,gravity.x,gravity.y,gravity.z,userAcceleration.x,userAcceleration.y,userAcceleration.z
0,-0.089783,0.923372,-0.373261,-0.2953179999999999,0.318373,-0.2398219999999999
1,-0.095037,0.922192,-0.374872,-0.217936,0.617267,-0.119345
2,-0.095434,0.923738,-0.3709449999999999,-0.070398,0.21472,-0.0452529999999999
3,-0.089261,0.928211,-0.361188,-0.256838,0.1723599999999999,0.003888
4,-0.086869,0.935041,-0.343734,-0.16307,0.105456,0.214858
5,-0.080426,0.941964,-0.325938,-0.132816,0.074226,0.200129
6,-0.0731909999999999,0.948023,-0.309669,-0.1216329999999999,0.059164,0.2080449999999999
7,-0.064782,0.95437,-0.291516,-0.105872,0.093222,0.1574819999999999
8,-0.0538419999999999,0.960375,-0.273463,-0.118674,0.077559,0.127314
9,-0.042889,0.965903,-0.255326,-0.100849,0.063943,0.114899
10,-0.031539,0.971069,-0.236706,-0.064149,0.010819,0.118283
11,-0.020684,0.976311,-0.21538,-0.085701,0.010795,0.105791
12,-0.00613,0.98067,-0.195573,-0.109196,0.028104,0.0516059999999999
13,0.008509,0.984545,-0.174926,-0.018106,-0.1135119999999999,0.088318
14,0.023441,0.987541,-0.155607,0.0227479999999999,-0.2073739999999999,0.131102
15,0.038161,0.989913,-0.136441,0.048341,-0.242919,0.135251
16,0.052953,0.991914,-0.115338,0.0044659999999999,-0.214082,0.071194
17,0.067585,0.993246,-0.094306,-0.027683,-0.21961,0.015815
18,0.082607,0.993748,-0.075103,-0.086437,-0.193974,0.017684
19,0.0963909999999999,0.993593,-0.059003,-0.139756,-0.216798,0.021268
20,0.108019,0.993089,-0.045877,-0.140169,-0.21219,-0.000449
21,0.117147,0.992517,-0.0344449999999999,-0.105168,-0.2048739999999999,0.009695
22,0.123028,0.99211,-0.024116,-0.017865,-0.153166,0.000358
23,0.126303,0.991876,-0.015131,-0.0177979999999999,-0.07702,0.000315
24,0.127425,0.991828,-0.006279,-0.0283339999999999,-0.081763,-0.067665
25,0.126146,0.992003,0.00412,-0.064058,-0.045485,-0.187271
26,0.122803,0.992299,0.016163,-0.109955,0.112437,-0.282078
27,0.1191359999999999,0.992489,0.0277639999999999,-0.069972,0.180713,-0.278054
28,0.114474,0.992648,0.039288,-0.142077,0.2198909999999999,-0.261975
29,0.11073,0.992404,0.0535929999999999,0.254824,0.4181189999999999,0.0198169999999999
30,0.110858,0.991365,0.070036,0.003674,0.69081,-0.015699
31,0.111643,0.990228,0.083565,0.016516,0.669791,-0.062416
32,0.110495,0.989658,0.091472,-0.142065,0.4821899999999999,0.0526779999999999
33,0.10753,0.989565,0.095899,-0.080233,0.348051,0.065692
34,0.103051,0.990166,0.094606,-0.072793,0.12075,0.127684
35,0.09659,0.991603,0.085989,-0.156221,0.06371,0.149607
36,0.089053,0.993549,0.07022,-0.183566,0.0727049999999999,0.120392
37,0.080632,0.99571,0.04539,-0.265263,0.105441,0.0726059999999999
38,0.071785,0.997379,0.009062,-0.267204,0.1041839999999999,0.02968
39,0.062776,0.99756,-0.030539,-0.225832,0.135909,0.1084349999999999
40,0.0544889999999999,0.996252,-0.067176,-0.225327,0.1182039999999999,0.028617
41,0.044153,0.993388,-0.105976,-0.184274,0.133596,0.048481
42,0.033487,0.988978,-0.144226,-0.03663,-0.004038,0.122528
43,0.023561,0.983926,-0.17701,-0.1559,-0.022318,-0.039802
44,0.007631,0.977446,-0.211046,-0.149965,0.060091,-0.032576
45,-0.012133,0.968682,-0.248004,-0.162413,-0.005365,-0.001935
46,-0.034581,0.95815,-0.28417,-0.011103,-0.236531,0.113302
47,-0.054977,0.947165,-0.315999,0.009262,-0.266211,0.11855
48,-0.074266,0.93521,-0.346217,0.050783,-0.335784,0.14831
49,-0.09156,0.922797,-0.37425,-0.015526,-0.4257109999999999,0.202558
50,-0.109543,0.912004,-0.395282,-0.079925,-0.38109,0.210177
51,-0.125378,0.903777,-0.409228,-0.069477,-0.631362,0.043948
52,-0.137674,0.9002180000000001,-0.413101,0.0104459999999999,-0.927257,-0.033142
53,-0.140549,0.896565,-0.42002,-0.167481,-0.302434,0.518591
54,-0.138443,0.894075,-0.425984,-0.53093,0.156004,-0.087978
55,-0.142757,0.8933200000000001,-0.426145,-0.0533789999999999,0.5950989999999999,-0.118518
56,-0.139289,0.888357,-0.437514,-0.111092,0.314203,0.271133
57,-0.147281,0.8850120000000001,-0.441658,-0.086621,-0.026614,-0.156212
58,-0.14522,0.879323,-0.453543,-0.090574,-0.063054,-0.286783
59,-0.141014,0.873661,-0.465651,0.127541,0.3322719999999999,-0.406678
60,-0.140892,0.869084,-0.474176,0.161186,-0.051045,-0.316519
61,-0.14875,0.871506,-0.46728,-0.017754,0.09317,-0.204214
62,-0.158743,0.878776,-0.450059,-0.435434,0.060769,-0.013472
63,-0.167718,0.889431,-0.4251859999999999,-0.516166,-0.322979,-0.033249
64,-0.173853,0.902584,-0.393848,-0.261587,-0.529537,-0.099377
65,-0.1771609999999999,0.914846,-0.3628619999999999,-0.052422,-0.6545770000000001,-0.219459
66,-0.173196,0.92644,-0.334231,0.121118,-0.730456,-0.360212
67,-0.160329,0.938256,-0.306544,0.144094,-0.674508,-0.177404
68,-0.140022,0.942054,-0.3048389999999999,-1.059013,1.411751,0.11949
69,-0.139783,0.93491,-0.326196,-0.224688,-0.123554,0.690469
70,-0.124743,0.941462,-0.313189,-0.316114,-0.021097,-0.00549
71,-0.110688,0.946794,-0.302205,-0.384398,-0.160753,0.370504
72,-0.096076,0.948423,-0.302097,-0.221551,0.284777,0.346332
73,-0.084387,0.951335,-0.296377,-0.143717,0.416585,0.309774
74,-0.077176,0.957419,-0.278194,-0.154269,0.323038,0.248272
75,-0.069844,0.964875,-0.253254,-0.203548,0.074585,0.071354
76,-0.0576309999999999,0.971476,-0.230027,-0.161546,0.021307,-0.015091
77,-0.044472,0.97691,-0.208971,0.034905,0.008884,0.016268
78,-0.02941,0.981604,-0.188646,0.100409,-0.016074,-0.010848
79,-0.014356,0.985871,-0.1668849999999999,0.148007,-0.101289,0.003234
80,-0.000186,0.989433,-0.14499,0.16167,-0.309028,-0.029235
81,0.015586,0.991835,-0.12657,0.1030349999999999,-0.311537,-0.003496
82,0.0308,0.993442,-0.110107,0.041237,-0.285312,0.058624
83,0.045489,0.994365,-0.095747,-0.096422,-0.216259,0.121367
84,0.058015,0.994951,-0.081889,-0.133516,-0.217851,0.1365
85,0.070582,0.995434,-0.06425,-0.183513,-0.195446,0.1151079999999999
86,0.083008,0.995678,-0.041631,-0.2006079999999999,-0.133908,0.043493
87,0.091951,0.995558,-0.020212,-0.175035,-0.113066,0.0167639999999999
88,0.097449,0.995236,-0.002894,-0.133078,-0.129208,0.044963
89,0.100419,0.994815,0.0160389999999999,-0.137177,-0.162815,0.035429
90,0.100122,0.994247,0.038053,-0.13833,-0.171371,-0.073957
91,0.09673,0.993586,0.0585539999999999,-0.063496,-0.072505,-0.2021079999999999
92,0.092013,0.993009,0.073934,0.035581,0.076831,-0.364629
93,0.086919,0.99259,0.08491,0.061411,0.106699,-0.346416
94,0.082862,0.992343,0.091593,-0.1016,0.063611,-0.099589
95,0.080648,0.992114,0.095943,-0.021002,0.008558,0.037571
96,0.08165,0.992067,0.095585,0.128113,0.033995,0.340618
97,0.088725,0.991607,0.094029,-0.366755,0.489609,0.13827
98,0.096739,0.99124,0.089905,-0.275266,0.450852,0.096038
99,0.099999,0.992197,0.07446,-0.280953,0.473456,0.242587
100,0.099788,0.993629,0.0523779999999999,-0.530849,-0.0065829999999999,0.244756
101,0.0930309999999999,0.995143,0.032155,-0.737349,0.021702,0.057124
102,0.079574,0.996723,0.014478,-0.754425,0.083736,-0.015378
103,0.064818,0.997877,-0.006175,-0.398726,-0.0291269999999999,-0.033544
104,0.053962,0.998172,-0.027221,-0.2624579999999999,-0.033343,-0.004044
105,0.043993,0.997983,-0.045752,0.099699,-0.048368,0.01618
106,0.036468,0.997057,-0.067426,0.097367,-0.062762,0.141324
107,0.027797,0.996232,-0.082149,-0.04539,-0.100266,-0.070515
108,0.016052,0.995505,-0.093335,0.016312,-0.208533,-0.079898
109,0.008845,0.994833,-0.101131,-0.119791,-0.319601,-0.176045
110,0.005201,0.994429,-0.105279,-0.204451,-0.290983,-0.209952
111,0.0044259999999999,0.994214,-0.107322,-0.218628,-0.248166,-0.2123949999999999
112,0.006375,0.994463,-0.1048819999999999,-0.177732,-0.2898429999999999,-0.242392
113,0.010203,0.995253,-0.096777,-0.152689,-0.328795,-0.274149
114,0.015729,0.99629,-0.0846,-0.130597,-0.416776,-0.396662
115,0.024155,0.997297,-0.069375,-0.0551759999999999,-0.351576,-0.4986939999999999
116,0.034631,0.997932,-0.054123,0.0008449999999999,-0.175697,-0.4916689999999999
117,0.045006,0.997918,-0.0461769999999999,-0.039925,-0.085228,-0.445477
118,0.054648,0.997393,-0.047099,-0.141562,-0.027972,-0.496068
119,0.065305,0.996475,-0.05262,-0.577054,0.179031,-0.175468
120,0.077546,0.994305,-0.073078,-0.868043,1.57056,0.280262
121,0.0866379999999999,0.992949,-0.080887,-0.582122,1.336595,0.4804229999999999
122,0.0914919999999999,0.993908,-0.061434,-0.080521,-0.084835,0.205965
123,0.094501,0.994823,-0.0373379999999999,-0.171589,-0.4297439999999999,0.002425
124,0.089957,0.995591,-0.026521,-0.210136,-0.470124,-0.066726
125,0.084767,0.995909,-0.031267,-0.255513,-0.362105,0.159395
126,0.085026,0.996027,-0.026414,-0.35709,0.052694,0.4382189999999999
127,0.088576,0.996063,0.003163,-0.4393899999999999,0.416031,0.187694
128,0.093626,0.995012,0.034388,-0.2933949999999999,0.020277,-0.0261779999999999
129,0.096778,0.993978,0.05137,-0.097557,-0.062749,-0.049829
130,0.097936,0.993163,0.063497,-0.068288,-0.185699,0.1870369999999999
131,0.0988309999999999,0.991632,0.083031,-0.0556179999999999,-0.169352,0.13076
132,0.096939,0.989273,0.109258,-0.040848,-0.063294,0.044291
133,0.0906039999999999,0.986864,0.133742,0.05115,0.1081829999999999,-0.2103409999999999
134,0.083319,0.985262,0.1493789999999999,0.131754,0.113341,-0.321101
135,0.078448,0.983658,0.162047,0.214094,-0.013611,-0.325545
136,0.075889,0.981714,0.174568,0.1716079999999999,-0.060572,-0.350182
137,0.072943,0.979795,0.186217,0.085214,-0.03578,-0.423735
138,0.068488,0.977877,0.197642,0.030222,0.003553,-0.4882609999999999
139,0.05866,0.977086,0.204593,0.302271,0.040477,-0.433872
140,0.04689,0.976581,0.209971,0.284271,0.1154,-0.167598
141,0.041022,0.975064,0.21809,0.134545,0.1608609999999999,-0.17828
142,0.039341,0.973382,0.22578,-0.155461,0.058219,-0.352352
143,0.03356,0.972763,0.22935,-0.236792,0.009979,-0.287532
144,0.0248639999999999,0.972336,0.232253,-0.305458,0.052384,-0.26216
145,0.016132,0.97303,0.230106,-0.38129,0.289574,-0.104999
146,0.01004,0.975092,0.221565,-0.120346,0.21253,0.200753
147,0.012421,0.977828,0.209034,-0.111969,0.158906,0.282283
148,0.021802,0.980673,0.194427,-0.253934,0.109125,0.219559
149,0.026181,0.985423,0.168089,-0.516827,0.2903949999999999,0.028414
150,0.022504,0.991165,0.130701,-0.5191319999999999,0.383698,0.015951
151,0.0125239999999999,0.995836,0.090282,-0.270581,0.2544079999999999,-0.015636
152,-0.0014609999999999,0.998592,0.053014,0.109509,0.088353,0.0389199999999999
153,-0.018163,0.999592,0.021973,0.4626979999999999,-0.084752,-0.138459
154,-0.034586,0.999389,-0.004761,0.477182,-0.112106,-0.176026
155,-0.050265,0.998253,-0.031,0.144869,-0.229729,-0.165289
156,-0.066212,0.996196,-0.056639,0.084446,-0.224604,-0.147097
157,-0.0806539999999999,0.993644,-0.078512,-0.00243,-0.285224,-0.127359
158,-0.094077,0.990831,-0.096965,-0.074532,-0.256898,-0.089283
159,-0.1058569999999999,0.988278,-0.109993,-0.044626,-0.304471,0.011558
160,-0.115547,0.986672,-0.114564,0.026146,-0.38868,-0.053557
161,-0.123023,0.986183,-0.110937,0.07424,-0.401069,-0.199304
162,-0.12765,0.986505,-0.102523,0.089015,-0.2357119999999999,-0.282715
163,-0.1300589999999999,0.987293,-0.091298,0.098,-0.100788,-0.363216
164,-0.130994,0.98829,-0.078248,0.136289,-0.0945059999999999,-0.393264
165,-0.130123,0.989301,-0.065955,0.229595,-0.094999,-0.4105
166,-0.125854,0.990395,-0.057257,0.2253869999999999,-0.034416,-0.359964
167,-0.119115,0.991367,-0.054797,0.1119579999999999,0.059552,-0.3714719999999999
168,-0.1147619999999999,0.991716,-0.057687,0.075318,0.224608,-0.353445
169,-0.113948,0.991527,-0.0623549999999999,-0.15189,0.250859,-0.4184489999999999
170,-0.1140369999999999,0.991342,-0.065082,-0.224739,0.0936039999999999,-0.336926
171,-0.112267,0.990923,-0.073934,-0.360145,0.17761,-0.282985
172,-0.109704,0.989883,-0.089974,-0.374488,0.23526,-0.235267
173,-0.106956,0.988432,-0.107523,-0.540704,0.388475,0.2994179999999999
174,-0.108689,0.988194,-0.107977,-0.33818,0.211315,0.530828
175,-0.115377,0.988726,-0.09544,-0.050181,-0.054109,0.345227
176,-0.120497,0.989076,-0.084901,0.231947,-0.003175,0.214036
177,-0.117738,0.99004,-0.077179,0.149614,0.041301,0.12883
178,-0.108967,0.991701,-0.068215,-0.008709,-0.018175,0.18438
179,-0.099218,0.993406,-0.0574419999999999,-0.103083,-0.040021,0.109795
180,-0.087693,0.995105,-0.045544,-0.076568,0.033719,0.066342
181,-0.075347,0.996648,-0.03185,-0.0288399999999999,0.038737,-0.007075
182,-0.06274,0.997866,-0.018019,0.015392,-0.014666,-0.051469
183,-0.051148,0.998683,-0.003815,0.181824,-0.176616,-0.083115
184,-0.041421,0.999088,0.010336,0.3019489999999999,-0.150317,-0.046011
185,-0.031723,0.999143,0.026545,0.2443239999999999,-0.093641,-0.1162359999999999
186,-0.022352,0.998737,0.044967,0.185575,-0.028904,-0.221709
187,-0.014486,0.998121,0.059511,0.174475,0.07715,-0.257921
188,-0.007076,0.99764,0.068286,0.173381,-0.019536,-0.13985
189,-0.001716,0.997213,0.074582,0.1474069999999999,-0.050908,-0.128247
190,6.6e-05,0.996826,0.079604,0.1097819999999999,-0.066757,-0.093947
191,-0.000583,0.996503,0.083545,0.075046,-0.02725,-0.083255
192,-0.00253,0.996205,0.086996,0.070569,0.013393,-0.0666409999999999
193,-0.005432,0.995865,0.090671,0.048019,0.074844,-0.13985
194,-0.010529,0.995441,0.094788,0.076996,0.145916,-0.170395
195,-0.016904,0.994911,0.099326,0.1116,0.189247,-0.196617
196,-0.023891,0.994127,0.105546,0.129817,0.424559,-0.140092
197,-0.030424,0.99322,0.112189,0.400785,0.5014850000000001,-0.085348
198,-0.0344709999999999,0.992302,0.1189369999999999,0.363099,0.559883,-0.09202
199,-0.038517,0.991692,0.122728,-0.081783,0.464271,0.019392
200,-0.043149,0.991713,0.121005,-0.1020539999999999,0.342149,0.098981
201,-0.049674,0.992491,0.111769,-0.035104,0.140001,0.138277
202,-0.059213,0.993647,0.095697,0.014321,0.200903,0.144736
203,-0.071495,0.994939,0.070598,-0.039085,0.263606,0.134511
204,-0.083321,0.99578,0.038464,-0.091911,0.1229339999999999,0.010409
205,-0.093495,0.995603,0.005598,-0.065242,0.00606,0.067751
206,-0.1027849999999999,0.994262,-0.029594,-0.068602,0.021317,-0.035622
207,-0.113899,0.991218,-0.06717,-0.005867,0.081246,-0.009429
208,-0.126358,0.98654,-0.103781,0.072433,0.029924,0.026022
209,-0.140375,0.980867,-0.134882,0.071513,-0.025194,0.022074
210,-0.1561519999999999,0.973552,-0.166771,0.112756,0.008199,0.0019149999999999
211,-0.170464,0.964142,-0.203401,0.1322559999999999,-0.049774,-0.0184
212,-0.182602,0.953719,-0.238906,0.082123,-0.153975,0.020095
213,-0.1945319999999999,0.94317,-0.269421,0.107404,-0.243326,0.088635
214,-0.205309,0.933302,-0.29461,0.121874,-0.2566969999999999,0.103235
215,-0.2144739999999999,0.92401,-0.316554,0.135251,-0.268263,0.174601
216,-0.2221969999999999,0.916029,-0.333946,0.097914,-0.421156,0.192253
217,-0.230304,0.909209,-0.346841,0.081607,-0.393691,0.123941
218,-0.236988,0.903881,-0.356141,0.050709,-0.3033099999999999,0.1201329999999999
219,-0.243687,0.900598,-0.359917,0.05959,-0.260797,0.111565
220,-0.250603,0.899708,-0.357384,0.02961,-0.247227,-0.0291829999999999
221,-0.255689,0.902227,-0.347287,0.13754,-0.2406219999999999,-0.069186
222,-0.259742,0.905501,-0.335561,0.1327279999999999,-0.100981,-0.348719
223,-0.26336,0.907793,-0.326424,0.276528,0.126478,-0.4588689999999999
224,-0.262596,0.910062,-0.3206719999999999,0.284126,0.160526,-0.386908
225,-0.256101,0.909983,-0.326102,-0.288242,0.756292,-0.3154079999999999
226,-0.258778,0.904812,-0.338155,-0.1002919999999999,0.7896310000000001,-0.019068
227,-0.258786,0.907849,-0.329908,0.072186,0.535251,-0.216586
228,-0.255717,0.915925,-0.309336,-0.015737,-0.043199,0.211207
229,-0.254713,0.922505,-0.290009,0.0312329999999999,-0.036824,0.2145389999999999
230,-0.253064,0.927772,-0.274219,0.0375949999999999,0.018425,0.161441
231,-0.251267,0.933245,-0.256742,0.030991,0.311917,0.1220069999999999
232,-0.247234,0.93995,-0.235305,0.074474,0.206702,0.085144
233,-0.240218,0.947053,-0.213036,0.054625,0.049208,0.067437
234,-0.231494,0.953737,-0.191821,0.061923,0.024458,0.042147
235,-0.21978,0.960145,-0.172677,0.07592,0.030624,0.066995
236,-0.2049929999999999,0.966657,-0.1534599999999999,0.098273,-0.020628,0.077395
237,-0.189697,0.972795,-0.13298,0.170517,-0.149843,0.103164
238,-0.174773,0.978276,-0.111481,0.288512,-0.3073929999999999,0.135758
239,-0.159542,0.983315,-0.087392,0.304287,-0.334358,0.110951
240,-0.143241,0.987772,-0.061548,0.245094,-0.296365,0.065149
241,-0.126908,0.991235,-0.036702,0.092804,-0.2371909999999999,0.023809
242,-0.112604,0.993547,-0.013572,0.0774779999999999,-0.226152,-0.011849
243,-0.100616,0.994901,0.007,0.057998,-0.140759,-0.049557
244,-0.091936,0.995455,0.024832,0.158617,-0.181567,-0.062002
245,-0.085479,0.995518,0.040461,0.220275,-0.201619,-0.083094
246,-0.079802,0.995433,0.052394,0.209166,-0.145076,-0.094951
247,-0.076811,0.99498,0.064157,0.140776,0.068558,-0.1246119999999999
248,-0.077337,0.994144,0.075475,0.1031849999999999,0.135647,-0.270757
249,-0.0804,0.993283,0.083212,0.113389,0.177417,-0.331229
250,-0.085725,0.992379,0.088512,0.122788,0.405036,-0.1394
251,-0.090935,0.990943,0.09881,0.370506,0.794,0.098104
252,-0.096249,0.989291,0.109719,0.22218,0.863828,0.059715
253,-0.100901,0.987799,0.118624,0.008356,0.4649439999999999,0.0265639999999999
254,-0.106482,0.986283,0.126127,-0.104868,0.349472,0.057009
255,-0.114489,0.984797,0.130638,-0.022977,0.151525,0.110527
256,-0.124404,0.984265,0.1254809999999999,-0.020936,0.033343,0.100044
257,-0.13537,0.984379,0.112573,-0.0309209999999999,0.059917,0.041373
258,-0.146785,0.985078,0.0898679999999999,0.012187,0.100738,-0.075372
259,-0.158226,0.985823,0.05584,0.104377,0.1192339999999999,-0.126702
260,-0.1683849999999999,0.985638,0.0128139999999999,0.159993,0.1209599999999999,-0.19566
261,-0.174893,0.983954,-0.035316,0.124204,0.164652,0.012657
262,-0.181428,0.97985,-0.0835279999999999,0.044023,0.030343,0.133516
263,-0.191352,0.974343,-0.118486,0.0649179999999999,-0.211098,0.13727
264,-0.204921,0.968499,-0.141481,0.00233,-0.102867,0.1041579999999999
265,-0.218714,0.961503,-0.1663609999999999,-0.1202599999999999,-0.020554,-0.00437
266,-0.236171,0.95165,-0.196428,0.0080209999999999,0.013834,0.0515309999999999
267,-0.2497739999999999,0.940055,-0.232184,0.0759,-0.2215489999999999,0.1121279999999999
268,-0.260554,0.927806,-0.266996,0.133647,-0.311976,0.153624
269,-0.270526,0.915232,-0.298604,0.203036,-0.348979,0.174566
270,-0.27933,0.902598,-0.327553,0.239977,-0.345698,0.167107
271,-0.287207,0.8914290000000001,-0.350522,0.216117,-0.307689,0.0991799999999999
272,-0.294058,0.8826620000000001,-0.366658,0.152578,-0.493379,0.174305
273,-0.298825,0.875653,-0.379387,0.073041,-0.345273,0.0096049999999999
274,-0.30291,0.8710459999999999,-0.386682,0.1033859999999999,-0.3110949999999999,-0.035254
275,-0.305119,0.8699540000000001,-0.387405,0.11147,-0.258107,-0.08075
276,-0.306147,0.8724049999999999,-0.38103,0.176966,-0.121733,-0.18089
277,-0.3059659999999999,0.8779020000000001,-0.3683369999999999,0.262036,-0.023715,-0.262797
278,-0.3029139999999999,0.884767,-0.354162,0.2364619999999999,0.036147,-0.318888
279,-0.298642,0.891067,-0.341777,0.147626,0.16037,-0.362385
280,-0.293358,0.8935649999999999,-0.339827,-0.4905319999999999,1.179585,-0.383211
281,-0.2988639999999999,0.887568,-0.350575,-0.310603,0.849065,0.002018
282,-0.300457,0.8881110000000001,-0.347827,0.0875809999999999,0.380062,-0.221295
283,-0.2921539999999999,0.8963690000000001,-0.333419,-0.035315,-0.1696079999999999,0.098648
284,-0.289707,0.903543,-0.31572,0.08794,-0.100687,0.172928
285,-0.284627,0.910145,-0.301037,0.160664,-0.0365949999999999,0.178204
286,-0.278904,0.916475,-0.286854,0.09177,0.223219,0.1831549999999999
287,-0.273284,0.923579,-0.268918,0.03044,0.241109,0.102048
288,-0.266109,0.93099,-0.249888,0.010845,0.16717,0.055888
289,-0.25784,0.938061,-0.23143,0.0120209999999999,0.026844,0.023148
290,-0.247888,0.944517,-0.2154969999999999,0.043268,0.0270709999999999,0.040997
291,-0.2355159999999999,0.950704,-0.201729,0.072964,0.007731,0.096901
292,-0.220861,0.957002,-0.188064,0.1410269999999999,-0.041825,0.076309
293,-0.2063,0.963209,-0.172245,0.237168,-0.086897,0.056095
294,-0.190695,0.969231,-0.15565,0.277975,-0.137566,0.053462
295,-0.175213,0.974798,-0.138092,0.300976,-0.2097679999999999,0.057922
296,-0.159489,0.980011,-0.118922,0.219181,-0.269287,0.008845
297,-0.143949,0.984722,-0.09799,0.105848,-0.2554889999999999,-0.002199
298,-0.130339,0.988489,-0.076824,0.0843179999999999,-0.209711,0.016643
299,-0.119145,0.99116,-0.0583669999999999,0.07874,-0.150019,0.041186
300,-0.109739,0.992982,-0.04409,0.074614,-0.198487,0.043449
301,-0.101397,0.994315,-0.0325079999999999,0.097567,-0.2312989999999999,-0.022744
302,-0.095113,0.995204,-0.022878,0.136037,-0.192317,-0.067149
303,-0.091165,0.995684,-0.01736,0.195948,-0.13637,-0.1032759999999999
304,-0.088822,0.995922,-0.01579,0.215577,-0.097759,-0.113772
305,-0.0874809999999999,0.99604,-0.015818,0.259982,-0.058739,-0.131399
306,-0.0877169999999999,0.996033,-0.014949,0.226541,-0.011139,-0.244161
307,-0.089499,0.995939,-0.009725,0.185659,0.055437,-0.315958
308,-0.093106,0.995656,-0.0002299999999999,0.148465,0.207225,-0.234145
309,-0.098018,0.995113,0.0119189999999999,-0.043461,0.31049,-0.203981
310,-0.103487,0.994293,0.025898,0.013857,0.514115,-0.124378
311,-0.102044,0.993865,0.042643,0.304742,0.5458390000000001,0.011495
312,-0.096401,0.993517,0.060247,0.1232109999999999,0.68376,-0.083578
313,-0.093873,0.992761,0.074917,0.1542369999999999,0.69628,0.010486
314,-0.0979889999999999,0.991501,0.08557,0.119992,0.5243220000000001,0.097535
315,-0.1069,0.990048,0.091516,0.133221,0.2141449999999999,0.112738
316,-0.1173,0.988927,0.090902,0.0527399999999999,0.026011,0.103571
317,-0.128322,0.988383,0.081428,-0.03806,0.016683,0.095712
318,-0.139601,0.98841,0.059633,-0.0545059999999999,-0.007102,0.022475
319,-0.148943,0.988426,0.028781,0.028368,0.090005,-0.138461
320,-0.155691,0.987787,-0.005818,0.097189,0.122503,-0.198543
321,-0.1600599999999999,0.985988,-0.046979,0.108851,0.212346,-0.0571929999999999
322,-0.166415,0.981741,-0.092129,0.038775,0.011026,0.181256
323,-0.1783269999999999,0.975908,-0.1257059999999999,0.048536,-0.103379,0.227604
324,-0.194744,0.96938,-0.149584,0.063014,-0.110219,0.175479
325,-0.211469,0.961278,-0.1767,-0.07326,0.042887,-0.011929
326,-0.231309,0.949942,-0.210011,0.008577,0.0295959999999999,0.083576
327,-0.2491159999999999,0.936971,-0.245,0.129152,-0.2272239999999999,0.17217
328,-0.264077,0.923575,-0.277979,0.15815,-0.312262,0.206796
329,-0.277234,0.910583,-0.306558,0.15199,-0.370392,0.201425
330,-0.2908449999999999,0.898841,-0.32786,0.203245,-0.411781,0.19546
331,-0.3030719999999999,0.88933,-0.342402,0.20714,-0.452379,0.128657
332,-0.3125,0.8816200000000001,-0.3536809999999999,0.1846,-0.376203,0.084607
333,-0.319366,0.8760950000000001,-0.361196,0.1317289999999999,-0.354626,-0.001384
334,-0.324694,0.8738379999999999,-0.361911,0.12778,-0.257414,-0.1163
335,-0.32857,0.874974,-0.355614,0.2471949999999999,-0.212575,-0.2205119999999999
336,-0.329157,0.878718,-0.345702,0.236277,-0.043162,-0.384553
337,-0.3280619999999999,0.883144,-0.335308,0.191725,0.140889,-0.378803
338,-0.326236,0.887051,-0.326665,0.080127,0.156559,-0.362697
339,-0.323954,0.8893549999999999,-0.3226449999999999,-0.256994,0.244952,-0.2877679999999999
340,-0.3251679999999999,0.88651,-0.329186,-0.2973449999999999,0.87826,0.1559839999999999
341,-0.3300369999999999,0.883863,-0.33145,-0.056788,0.588808,-0.140443
342,-0.330987,0.889848,-0.314034,-0.0561129999999999,-0.191193,0.1756059999999999
343,-0.330594,0.8976799999999999,-0.291336,0.0323149999999999,0.018534,0.182831
344,-0.327849,0.903487,-0.276089,0.126097,0.100862,0.261105
345,-0.322048,0.909772,-0.261915,0.1185109999999999,0.226642,0.267637
346,-0.31493,0.916627,-0.246196,0.0569039999999999,0.329192,0.203792
347,-0.30716,0.924306,-0.226514,0.070725,0.185648,0.122357
348,-0.298657,0.931533,-0.207482,0.097272,-0.006667,0.070198
349,-0.289209,0.937663,-0.192728,0.120966,-0.066096,0.062952
350,-0.277235,0.943396,-0.182051,0.178419,-0.055441,0.07707
351,-0.262934,0.949474,-0.1713569999999999,0.267863,-0.064021,0.0731049999999999
352,-0.247659,0.956063,-0.156863,0.340143,-0.11689,0.064929
353,-0.231433,0.962546,-0.141213,0.332751,-0.191215,0.033486
354,-0.215479,0.968519,-0.12465,0.319986,-0.230817,0.035462
355,-0.1998049999999999,0.974113,-0.1057309999999999,0.2574369999999999,-0.22863,0.034091
356,-0.184162,0.979134,-0.085899,0.1624789999999999,-0.180504,0.00724
357,-0.169728,0.983243,-0.066511,0.086186,-0.112409,-0.007875
358,-0.157368,0.986306,-0.049337,0.074574,-0.139245,-0.0191129999999999
359,-0.146312,0.988589,-0.035817,0.047085,-0.154086,-0.013011
360,-0.1370029999999999,0.990287,-0.023681,0.031809,-0.152549,-0.021546
361,-0.130235,0.991401,-0.012693,0.215334,-0.08509,-0.04703
362,-0.12473,0.992179,-0.004547,0.2303059999999999,-0.076942,-0.0663
363,-0.1203829999999999,0.992724,0.002292,0.214575,-0.034685,-0.121799
364,-0.118055,0.992985,0.00648,0.251127,-0.026676,-0.2289989999999999
365,-0.1173589999999999,0.993049,0.008805,0.26749,-0.019676,-0.302155
366,-0.117718,0.992996,0.009997,0.336971,-0.010742,-0.274386
367,-0.105528,0.994414,0.001853,0.18971,-0.02899,-0.140723
368,-0.098615,0.995124,-0.0007019999999999,0.171125,-0.045631,-0.086395
369,-0.092365,0.995724,-3e-06,0.134464,0.421329,0.086307
370,-0.092945,0.995588,0.012758,-0.033581,0.439089,-0.013658
371,-0.093077,0.995345,0.024955,-0.009004,0.438889,0.091103
372,-0.093293,0.995026,0.034892,-0.055725,0.69075,0.185063
373,-0.095638,0.994284,0.047445,-0.048191,0.723581,0.272959
374,-0.101351,0.993025,0.060233,-0.021421,0.600863,0.2923969999999999
375,-0.1105369999999999,0.991638,0.066584,-0.037961,0.229996,0.2283079999999999
376,-0.1227119999999999,0.990462,0.062653,-0.091521,0.106188,0.117722
377,-0.135541,0.989533,0.049498,-0.0548279999999999,0.044112,-0.0022719999999999
378,-0.147835,0.988536,0.030654,0.0552289999999999,0.034581,-0.17755
379,-0.159027,0.987271,0.001974,0.25566,0.053546,-0.229131
380,-0.1660569999999999,0.985286,-0.0404389999999999,0.219829,0.14185,-0.112622
381,-0.169178,0.981581,-0.088739,0.138249,0.180299,0.021692
382,-0.176648,0.976034,-0.12709,0.039273,-0.1071829999999999,0.251297
383,-0.189963,0.970376,-0.149273,-0.039911,-0.177468,0.035168
384,-0.209136,0.963601,-0.166536,0.078109,-0.0125659999999999,0.001497
385,-0.226613,0.95558,-0.188446,0.058339,0.037554,-0.020981
386,-0.240057,0.946066,-0.217554,0.046438,-0.046515,0.060724
387,-0.252003,0.935449,-0.2478449999999999,0.080296,-0.1510099999999999,0.104
388,-0.264292,0.923904,-0.276676,0.124049,-0.209396,0.133121
389,-0.277396,0.911922,-0.302405,0.128531,-0.324108,0.122
390,-0.2912679999999999,0.900143,-0.323888,0.128594,-0.3129389999999999,0.129324
391,-0.306383,0.8893639999999999,-0.339353,0.126695,-0.309698,0.141981
392,-0.320373,0.8798159999999999,-0.351117,0.087601,-0.314615,0.189878
393,-0.332036,0.871923,-0.359862,0.064122,-0.4153189999999999,0.222869
394,-0.339459,0.8661559999999999,-0.366798,0.023328,-0.306174,0.091026
395,-0.343213,0.863296,-0.370033,0.072064,-0.265808,0.032036
396,-0.343488,0.8635309999999999,-0.369228,0.0927549999999999,-0.264532,0.0146449999999999
397,-0.341431,0.8665959999999999,-0.3639179999999999,0.141373,-0.147189,-0.145879
398,-0.339345,0.870924,-0.355436,0.202917,-0.054426,-0.328112
399,-0.336022,0.8757889999999999,-0.346528,0.281609,0.016881,-0.363723
400,-0.327905,0.8821180000000001,-0.338148,0.2630099999999999,-0.055458,-0.290605
401,-0.314281,0.889093,-0.332776,-0.246799,0.7481909999999999,-0.384341
402,-0.313834,0.887447,-0.337557,-0.220651,0.863865,-0.255231
403,-0.315923,0.8861889999999999,-0.338912,0.160589,0.2090719999999999,-0.142167
404,-0.30499,0.893022,-0.330897,-0.064899,0.025084,0.087198
405,-0.298185,0.9001899999999999,-0.3174,0.041929,0.009661,0.272601
406,-0.290931,0.907305,-0.3035739999999999,-0.0263149999999999,0.156279,0.217225
407,-0.281415,0.913997,-0.292257,-0.040347,0.188969,0.193563
408,-0.271778,0.92156,-0.277244,-0.031231,0.241175,0.108314
409,-0.26058,0.929935,-0.259459,0.02268,0.121304,0.113875
410,-0.2498719999999999,0.937295,-0.242986,0.0982,0.031471,0.14417
411,-0.240346,0.943224,-0.229262,0.1188099999999999,0.024412,0.1295
412,-0.2315199999999999,0.949293,-0.212701,0.140532,0.030062,0.168023
413,-0.21889,0.955067,-0.1998359999999999,0.101367,0.031917,0.125175
414,-0.205036,0.961233,-0.184369,0.126881,0.007258,0.090207
415,-0.190251,0.96756,-0.16623,0.158345,-0.085755,0.066957
416,-0.174232,0.973763,-0.146386,0.173469,-0.131264,0.07261
417,-0.157916,0.979466,-0.125333,0.151995,-0.158818,0.034772
418,-0.141592,0.984563,-0.102897,0.152944,-0.168141,0.020423
419,-0.124768,0.989074,-0.0785179999999999,0.117596,-0.175003,-0.015323
420,-0.108345,0.992572,-0.0553419999999999,0.096672,-0.23305,0.026976
421,-0.092336,0.995144,-0.034088,0.08872,-0.332989,0.062119
422,-0.077605,0.996891,-0.013596,0.067977,-0.34531,0.056977
423,-0.065936,0.997809,0.00535,0.153323,-0.281577,0.04653
424,-0.056713,0.998152,0.021796,0.198055,-0.152647,0.08732
425,-0.049408,0.998113,0.03643,0.198242,-0.1161859999999999,0.0545429999999999
426,-0.044366,0.997811,0.049025,0.162576,0.0347209999999999,-0.052748
427,-0.0418269999999999,0.99736,0.0593559999999999,0.138705,0.129075,-0.180008
428,-0.041926,0.996976,0.065421,0.061977,0.227755,-0.254691
429,-0.043225,0.996787,0.067422,-0.059909,0.205453,-0.245644
430,-0.046248,0.996483,0.069868,0.236861,0.2658,-0.134794
431,-0.04918,0.99584,0.076704,0.194398,0.727167,-0.02136
432,-0.050749,0.994938,0.086726,0.090269,0.746853,-0.0596419999999999
433,-0.051183,0.994282,0.093717,0.006154,0.522167,0.027224
434,-0.0523419999999999,0.993595,0.100144,-0.145641,0.371502,0.1286
435,-0.057309,0.992702,0.106095,-0.068469,0.2290989999999999,0.25595
436,-0.0659309999999999,0.992048,0.107201,-0.088183,0.112871,0.2742989999999999
437,-0.077311,0.991777,0.101978,-0.1304529999999999,0.064848,0.162396
438,-0.089629,0.99211,0.087654,-0.145113,0.101869,0.032204
439,-0.101036,0.992931,0.062276,-0.084328,0.136036,-0.036962
440,-0.1118339999999999,0.993326,0.028196,0.014208,0.020605,-0.0491459999999999
441,-0.119719,0.992748,-0.010928,0.109541,0.011311,-0.174757
442,-0.124227,0.990623,-0.056873,0.186147,0.060235,0.117878
443,-0.1270369999999999,0.986552,-0.102844,-0.120125,0.1731319999999999,-0.07756
444,-0.142964,0.980775,-0.132825,0.018208,0.082687,0.1025819999999999
445,-0.163715,0.974086,-0.156053,0.099659,-0.011394,-0.0300269999999999
446,-0.184864,0.9655,-0.183397,0.074802,-0.010697,-0.0337509999999999
447,-0.205453,0.954293,-0.217058,0.063149,-0.1529319999999999,0.099534
448,-0.226363,0.942013,-0.247732,0.137069,-0.3942219999999999,0.177679
449,-0.248673,0.930084,-0.270379,0.152451,-0.455567,0.203682
450,-0.27071,0.918083,-0.28955,0.167698,-0.467568,0.225509
451,-0.291721,0.90632,-0.305748,0.0533019999999999,-0.327005,0.185585
452,-0.309425,0.89492,-0.321519,0.014503,-0.304069,0.178895
453,-0.322659,0.884761,-0.336288,-0.054112,-0.118922,0.062759
454,-0.334737,0.876892,-0.344979,0.036748,-0.349625,0.04313
455,-0.341366,0.871762,-0.351426,0.035412,-0.2418789999999999,-0.015471
456,-0.343649,0.8688030000000001,-0.356492,0.093923,-0.208616,-0.02983
457,-0.342232,0.8680530000000001,-0.359669,0.1245039999999999,-0.264171,-0.124386
458,-0.338264,0.8694040000000001,-0.36016,0.167304,-0.19408,-0.269769
459,-0.334594,0.871582,-0.3583179999999999,0.194,-0.1169579999999999,-0.2730599999999999
460,-0.329959,0.874059,-0.356577,0.134693,-0.12908,-0.237021
461,-0.322737,0.878081,-0.35329,0.092833,-0.0763539999999999,-0.258557
462,-0.3129349999999999,0.8828159999999999,-0.350296,-0.378975,0.606747,-0.121719
463,-0.312348,0.883076,-0.350164,-0.13269,0.461727,-0.1958109999999999
464,-0.307727,0.8876120000000001,-0.342709,-0.047833,0.385307,-0.227009
465,-0.296865,0.89556,-0.331426,-0.129206,0.2545409999999999,0.022466
466,-0.292784,0.902917,-0.314672,-0.048219,0.2213969999999999,0.149114
467,-0.287537,0.910328,-0.297698,-0.088851,0.181362,0.223937
468,-0.2821909999999999,0.917611,-0.279925,0.006801,0.1913369999999999,0.2381309999999999
469,-0.2760849999999999,0.924806,-0.261746,0.011665,0.105696,0.2706719999999999
470,-0.268399,0.931607,-0.2450929999999999,-0.021503,0.104831,0.234717
471,-0.257829,0.938318,-0.2303989999999999,-0.039961,0.135169,0.218757
472,-0.245269,0.944745,-0.217481,-0.010102,0.192538,0.23654
473,-0.23221,0.950533,-0.206309,0.114413,0.062574,0.159877
474,-0.219737,0.95552,-0.196715,0.130839,0.016358,0.1196579999999999
475,-0.2066869999999999,0.959563,-0.191095,0.104163,0.055588,0.03158
476,-0.194483,0.963162,-0.185727,0.162913,-0.041974,0.040128
477,-0.180297,0.966837,-0.1808799999999999,0.164718,-0.068598,0.009768
478,-0.165092,0.970528,-0.175554,0.25634,-0.14605,0.031237
479,-0.149471,0.974153,-0.169365,0.265315,-0.25287,0.10157
480,-0.135414,0.977646,-0.160846,0.228645,-0.28302,0.111758
481,-0.124192,0.980983,-0.149162,0.192491,-0.299907,0.124305
482,-0.115468,0.983943,-0.1361,0.112569,-0.26414,0.109107
483,-0.107273,0.986747,-0.121746,0.077899,-0.213996,0.074123
484,-0.099124,0.989388,-0.106227,0.073214,-0.0627679999999999,0.000193
485,-0.089895,0.991622,-0.092759,0.05335,-0.041747,0.002412
486,-0.0805429999999999,0.993253,-0.083424,0.041099,-0.045957,-0.007976
487,-0.072841,0.994466,-0.075697,0.0595049999999999,-0.115514,-0.012499
488,-0.067197,0.995421,-0.067971,0.102414,-0.160079,-0.001456
489,-0.063342,0.99628,-0.058423,0.0933399999999999,-0.175311,-0.035891
490,-0.062677,0.9969,-0.047543,0.067942,-0.096738,-0.076267
491,-0.065178,0.997227,-0.035896,0.099236,-0.078266,-0.125938
492,-0.069512,0.997305,-0.023437,0.134407,-0.115515,-0.145752
493,-0.075309,0.997105,-0.01042,0.1208109999999999,-0.034962,-0.241701
494,-0.082334,0.996599,0.003185,0.120771,-0.009767,-0.2474179999999999
495,-0.087852,0.996004,0.01601,0.158912,-0.035035,-0.215961
496,-0.089757,0.995556,0.02845,0.35439,0.01749,-0.025093
497,-0.087707,0.995322,0.040469,0.484314,0.041009,0.0281189999999999
498,-0.0819429999999999,0.995209,0.053312,0.394428,0.154327,0.026842
499,-0.075296,0.995019,0.06531,-0.1440799999999999,0.395148,-0.073977
500,-0.068801,0.994927,0.073378,-0.19217,0.368354,-0.015486
501,-0.060514,0.995218,0.07666,-0.113925,0.255713,0.117355
502,-0.050959,0.995862,0.075224,0.044306,0.218921,0.384875
503,-0.0406329999999999,0.996785,0.069032,-0.1089789999999999,0.184962,0.374633
504,-0.032411,0.997942,0.0553059999999999,-0.3391099999999999,-0.016374,0.352363
505,-0.028397,0.999085,0.031947,-0.443435,-0.119995,0.227071
506,-0.026573,0.999642,0.002568,-0.479729,0.0310589999999999,0.127772
507,-0.028355,0.999227,-0.027188,-0.453182,0.171474,0.136975
508,-0.035313,0.997709,-0.057671,-0.1128339999999999,0.134157,0.160958
509,-0.042493,0.995094,-0.089325,0.1275609999999999,0.040016,0.14357
510,-0.050948,0.991746,-0.11765,0.228316,0.045897,0.154317
511,-0.059936,0.987966,-0.1425789999999999,0.213073,-0.013402,0.059541
512,-0.06747,0.983437,-0.168216,0.14262,-0.144646,0.03873
513,-0.073024,0.978663,-0.192053,0.069026,-0.264994,0.0976929999999999
514,-0.0770769999999999,0.974646,-0.210054,-0.011454,-0.263494,0.032244
515,-0.082014,0.971525,-0.2222829999999999,-0.002794,-0.1504349999999999,-0.016899
516,-0.087438,0.968325,-0.233878,-0.034693,-0.158968,0.028937
517,-0.089941,0.965576,-0.2440699999999999,-0.085535,-0.174683,-0.013086
518,-0.0916309999999999,0.96369,-0.250806,-0.027159,-0.161413,-0.011035
519,-0.092182,0.963295,-0.252118,-0.0037799999999999,-0.146629,-0.027652
520,-0.091954,0.964445,-0.247765,0.0596509999999999,-0.161863,-0.108513
521,-0.090568,0.966733,-0.2392119999999999,0.075096,-0.139905,-0.174682
522,-0.086752,0.969674,-0.228481,0.064184,-0.126611,-0.194157
523,-0.080513,0.973056,-0.216051,0.067497,-0.054187,-0.180189
524,-0.072348,0.976221,-0.204344,0.119941,0.127157,-0.280626
525,-0.065704,0.978032,-0.197822,0.069137,0.197459,-0.198754
526,-0.065776,0.977875,-0.198575,-0.022069,0.234238,-0.134098
527,-0.070549,0.976507,-0.203605,-0.299827,0.173396,-0.169656
528,-0.074064,0.974832,-0.210274,-0.461321,0.38166,-0.2437969999999999
529,-0.075662,0.972531,-0.220125,-0.361059,0.4295069999999999,-0.2153
530,-0.071667,0.969608,-0.233927,-0.252598,0.334256,0.2225599999999999
531,-0.065672,0.967293,-0.245008,-0.351702,-0.024712,0.4185
532,-0.062312,0.969164,-0.238402,-0.356511,-0.214236,0.324828
533,-0.060532,0.972783,-0.223667,0.005051,-0.357579,0.330509
534,-0.058748,0.974615,-0.2160369999999999,0.191637,-0.205556,0.33739
535,-0.054063,0.975107,-0.215034,-0.00328,0.2620139999999999,0.459602
536,-0.047779,0.976702,-0.209207,-0.071026,0.319853,0.4316649999999999
537,-0.040055,0.979856,-0.195638,-0.2279199999999999,0.222002,0.22846
538,-0.029099,0.98263,-0.18327,-0.282485,-0.039622,0.075192
539,-0.016052,0.983956,-0.177679,-0.2419739999999999,-0.095864,0.127569
540,-0.003933,0.984196,-0.177031,-0.144733,-0.184254,0.235427
541,0.006176,0.984559,-0.1749359999999999,-0.035091,-0.107041,0.321467
542,0.013349,0.98609,-0.165668,-0.008818,-0.052588,0.295139
543,0.019642,0.988842,-0.1476589999999999,0.044079,0.034199,0.174377
544,0.0275699999999999,0.991395,-0.127957,0.039142,-0.006684,0.0219539999999999
545,0.03614,0.993007,-0.112377,0.0262829999999999,-0.041927,0.017925
546,0.043314,0.994256,-0.097857,0.041555,-0.055001,-0.015134
547,0.048029,0.995407,-0.0828,0.11115,-0.024734,-0.122416
548,0.050939,0.996387,-0.067933,0.108439,-0.017536,-0.1594539999999999
549,0.05342,0.99704,-0.05527,0.105698,-0.048462,-0.162412
550,0.055148,0.997475,-0.044711,0.096356,-0.080712,-0.106198
551,0.0556529999999999,0.997865,-0.034147,0.1048849999999999,-0.074205,-0.104235
552,0.054643,0.998214,-0.024102,0.158186,-0.063003,-0.09983
553,0.0537399999999999,0.998448,-0.014516,0.104799,0.118571,0.05898
554,0.054513,0.998503,-0.004226,-0.067468,0.186647,-0.091431
555,0.056607,0.998377,0.005981,-0.1703609999999999,0.124609,-0.122924
556,0.057152,0.998291,0.012098,-0.176537,0.079407,-0.050321
557,0.056913,0.998255,0.015666,-0.211805,0.186544,0.033467
558,0.058262,0.998167,0.016305,-0.091847,0.319582,0.254005
559,0.065026,0.997807,0.012234,-0.090569,0.314601,0.419483
560,0.078023,0.996941,0.004333,-0.288625,0.224907,0.389664
561,0.088867,0.995974,-0.011661,-0.502579,-0.072985,0.3446849999999999
562,0.093177,0.995049,-0.034539,-0.738486,-0.152001,0.170541
563,0.090845,0.993976,-0.061288,-0.628458,0.092892,0.04548
564,0.083609,0.992355,-0.090768,-0.350149,0.312225,0.04548
565,0.074569,0.989972,-0.119975,0.095719,0.278003,0.090495
566,0.066675,0.987335,-0.143951,0.246984,0.249328,-0.001953
567,0.059923,0.984434,-0.165222,0.2125989999999999,0.045778,-0.005646
568,0.052075,0.981379,-0.184884,-0.013364,-0.114619,0.01983
569,0.042631,0.978263,-0.202935,-0.080138,-0.2396,0.048608
570,0.031674,0.975793,-0.21639,-0.066678,-0.245782,0.025075
571,0.022011,0.973521,-0.227532,-0.075737,-0.210475,0.01217
572,0.016199,0.97143,-0.236773,-0.143366,-0.276514,0.049746
573,0.013203,0.969858,-0.243312,-0.1526829999999999,-0.300531,0.029704
574,0.011346,0.969051,-0.2465989999999999,-0.143548,-0.296001,0.002245
575,0.010926,0.969722,-0.243964,-0.047853,-0.268917,-0.081812
576,0.010541,0.971831,-0.23544,0.0146819999999999,-0.29486,-0.096653
577,0.010517,0.974842,-0.2226449999999999,0.082531,-0.275715,-0.103542
578,0.012883,0.977746,-0.209393,0.167751,-0.067804,-0.155857
579,0.02041,0.979675,-0.199546,-0.0670559999999999,0.188141,-0.336358
580,0.0296759999999999,0.979695,-0.1982799999999999,-0.275678,0.3088329999999999,-0.242851
581,0.030999,0.977775,-0.207352,-0.291695,0.329019,-0.146148
582,0.029361,0.974539,-0.222284,-0.445575,0.464792,0.002909
583,0.031313,0.971718,-0.234056,-0.373934,0.336708,0.043199
584,0.040485,0.972756,-0.2282679999999999,-0.353138,0.06411,0.145733
585,0.05571,0.976647,-0.207496,-0.439057,-0.271554,0.267357
586,0.061723,0.981153,-0.183102,-0.288652,-0.468214,0.246716
587,0.051173,0.984158,-0.169743,-0.17895,-0.4206359999999999,0.287526
588,0.032006,0.985183,-0.168488,0.026725,-0.001434,0.581605
589,0.027023,0.98763,-0.154448,-0.293136,0.8274020000000001,0.157515
590,0.038211,0.991255,-0.1263,-0.237476,0.274675,-0.104489
591,0.054709,0.992964,-0.105013,-0.154212,0.1477369999999999,-0.1181619999999999
592,0.075366,0.992667,-0.094503,-0.026309,-0.123725,0.131155
593,0.095534,0.991722,-0.085782,-0.034301,-0.202644,0.192486
594,0.1123509999999999,0.991048,-0.072102,-0.0420839999999999,-0.200124,0.200901
595,0.125213,0.990877,-0.049817,0.00351,-0.103777,0.112501
596,0.135883,0.990403,-0.025187,-0.049473,-0.017808,-0.086889
597,0.145688,0.989314,-0.005342,-0.084165,-0.05186,-0.120528
598,0.153789,0.988052,0.009935,-0.042247,-0.020538,-0.068712
599,0.1600619999999999,0.98685,0.022427,-0.026181,0.0019649999999999,-0.095441
600,0.164393,0.985894,0.031376,-0.040873,-0.021005,-0.060353
601,0.166263,0.985407,0.036442,0.010922,-0.053644,-0.044652
602,0.166622,0.985186,0.04054,0.016621,-0.057009,-0.064008
603,0.165395,0.985218,0.04458,-0.0261889999999999,-0.032017,-0.083596
604,0.162078,0.985579,0.048598,-0.059249,0.02086,-0.103545
605,0.156827,0.986307,0.050993,-0.1025819999999999,0.118414,-0.083479
606,0.150937,0.987203,0.0514279999999999,-0.094556,0.1695809999999999,-0.086325
607,0.141944,0.988411,0.053776,-0.074668,0.277595,-0.0738409999999999
608,0.130448,0.989574,0.061027,0.098647,0.5535329999999999,0.0568169999999999
609,0.119532,0.990379,0.069704,0.031149,0.597954,0.0559669999999999
610,0.109757,0.990945,0.077324,-0.114045,0.657462,0.006217
611,0.100313,0.991491,0.082937,-0.250261,0.357004,0.210276
612,0.09029,0.992288,0.0849019999999999,-0.279087,0.218878,0.2078989999999999
613,0.077522,0.993845,0.07911,-0.296242,0.122488,0.2077099999999999
614,0.062799,0.995779,0.066921,-0.37565,0.266047,-0.066097
615,0.046916,0.997895,0.044744,-0.246867,0.283309,-0.127569
616,0.033689,0.999368,0.011227,-0.0893679999999999,0.221701,-0.20683
617,0.02505,0.999215,-0.030647,0.010442,0.172736,-0.118416
618,0.017138,0.99696,-0.075995,-0.01433,0.206165,-0.016122
619,0.008459,0.993171,-0.116348,-0.0123959999999999,0.129891,0.117813
620,0.002261,0.990157,-0.139932,-0.364398,-0.253188,0.017984
621,-0.017708,0.987118,-0.159003,-0.2291949999999999,-0.062313,0.048545
622,-0.03947,0.981334,-0.188214,-0.192219,0.043263,0.047879
623,-0.056709,0.973032,-0.2235869999999999,-0.204201,-0.200067,0.1077579999999999
624,-0.073036,0.964524,-0.253688,-0.111565,-0.252747,0.150859
625,-0.089133,0.954901,-0.283225,0.029929,-0.2276679999999999,0.228339
626,-0.10155,0.943991,-0.313953,0.003527,-0.250891,0.2348199999999999
627,-0.113245,0.93389,-0.339151,0.038538,-0.332221,0.217752
628,-0.1227099999999999,0.925779,-0.357595,-0.127855,-0.386656,0.084066
629,-0.131101,0.919212,-0.371296,-0.168719,-0.303062,0.050343
630,-0.139417,0.915043,-0.3784949999999999,-0.114321,-0.537723,0.077195
631,-0.144428,0.911644,-0.384766,0.049625,-0.419105,-0.030761
632,-0.147025,0.91093,-0.385471,0.1038579999999999,-0.4033469999999999,-0.075192
633,-0.1467369999999999,0.913724,-0.378913,0.17167,-0.300885,-0.260675
634,-0.143009,0.918698,-0.368158,0.13985,0.01453,-0.405477
635,-0.136473,0.924166,-0.356778,0.030989,-0.0112629999999999,-0.431567
636,-0.132371,0.926312,-0.352736,-0.347289,0.069645,-0.087587
637,-0.1343099999999999,0.922658,-0.3614719999999999,-0.4958619999999999,1.032634,-0.006173
638,-0.1343079999999999,0.923928,-0.358215,-0.332901,0.0451279999999999,-0.147706
639,-0.127299,0.931319,-0.34123,-0.272878,0.0260779999999999,0.087522
640,-0.123967,0.938744,-0.3215429999999999,-0.098628,-0.048852,0.196451
641,-0.116495,0.945046,-0.305477,-0.18952,0.019691,0.224346
642,-0.108972,0.95075,-0.29017,-0.181189,0.160197,0.1564569999999999
643,-0.101423,0.957588,-0.2696989999999999,-0.163088,0.14727,0.038819
644,-0.092655,0.964621,-0.2468219999999999,-0.084897,-0.022833,0.088238
645,-0.083238,0.970758,-0.225165,-0.064986,-0.098108,0.0799769999999999
646,-0.0727299999999999,0.97619,-0.2043589999999999,-0.050622,-0.033365,0.0728429999999999
647,-0.059842,0.981013,-0.184473,-0.076495,-0.01353,0.059809
648,-0.044683,0.98537,-0.164466,-0.072825,-0.086062,0.0655429999999999
649,-0.028007,0.989091,-0.144617,0.0040659999999999,-0.164445,0.09144
650,-0.009564,0.992173,-0.1245039999999999,0.043149,-0.2193449999999999,0.098274
651,0.009326,0.994759,-0.101819,0.097089,-0.188515,0.1143309999999999
652,0.0279589999999999,0.996707,-0.0761,0.031001,-0.15163,0.015065
653,0.044143,0.997745,-0.050546,-0.030319,-0.171481,0.011758
654,0.0579929999999999,0.997981,-0.025867,-0.102717,-0.189448,0.037891
655,0.0692059999999999,0.997594,-0.003803,-0.153908,-0.150884,0.033054
656,0.0767419999999999,0.996935,0.015151,-0.112631,-0.1948109999999999,0.010621
657,0.082237,0.996142,0.030612,-0.082649,-0.193392,0.009442
658,0.087012,0.995213,0.044482,-0.063407,-0.166523,0.0037359999999999
659,0.0907309999999999,0.994227,0.057254,0.007978,-0.115092,-0.054523
660,0.093363,0.99336,0.0672059999999999,-0.041636,-0.031996,-0.094581
661,0.093673,0.992719,0.0757159999999999,-0.104263,0.048877,-0.234087
662,0.0911179999999999,0.992316,0.083688,-0.078423,0.203454,-0.306589
663,0.085187,0.992437,0.088375,-0.1179019999999999,0.247752,-0.30624
664,0.076538,0.992759,0.092574,-0.173492,0.287072,-0.256972
665,0.070648,0.99241,0.10064,0.229401,0.775076,0.224753
666,0.068176,0.991506,0.110748,-0.0520169999999999,0.555323,-0.004181
667,0.065955,0.990577,0.120022,-0.138404,0.371057,-0.022853
668,0.061083,0.990279,0.124958,-0.231082,0.13373,0.182598
669,0.052973,0.990916,0.123595,-0.20254,0.075795,0.168352
670,0.0414029999999999,0.992511,0.114914,-0.17832,0.0614899999999999,0.136016
671,0.028099,0.995,0.095831,-0.1246869999999999,0.306331,-0.0729279999999999
672,0.013613,0.997955,0.062437,-0.0628529999999999,0.307236,-0.086226
673,0.0021219999999999,0.999785,0.02059,-0.005067,0.194704,-0.067633
674,-0.0036969999999999,0.999678,-0.025074,-0.168696,0.098345,0.032398
675,-0.010478,0.997662,-0.0675279999999999,-0.198216,0.10442,0.089287
676,-0.022537,0.994373,-0.1035069999999999,-0.048614,-0.138828,0.17443
677,-0.035207,0.990756,-0.131003,-0.0676529999999999,-0.165927,0.1339779999999999
678,-0.047249,0.986624,-0.156013,-0.137642,-0.0514279999999999,-0.009712
679,-0.059425,0.980528,-0.187172,-0.1587599999999999,0.049151,-0.014976
680,-0.071091,0.971862,-0.224567,-0.133927,-0.03221,0.063983
681,-0.0815309999999999,0.96172,-0.2616219999999999,-0.056347,-0.152974,0.205744
682,-0.091307,0.951644,-0.293321,-0.055436,-0.288542,0.155229
683,-0.103564,0.941009,-0.3221429999999999,-0.0150419999999999,-0.2629849999999999,0.16896
684,-0.115558,0.929898,-0.349193,-0.023236,-0.316418,0.177623
685,-0.127363,0.9193,-0.372378,-0.114671,-0.358296,0.183581
686,-0.1379099999999999,0.909968,-0.391075,-0.134994,-0.455729,0.176552
687,-0.144762,0.902383,-0.405893,-0.139845,-0.424676,0.152826
688,-0.149128,0.8979790000000001,-0.413998,-0.080089,-0.463912,0.133572
689,-0.151452,0.89543,-0.418649,-0.017508,-0.4518569999999999,0.0624169999999999
690,-0.150164,0.894482,-0.4211319999999999,0.024447,-0.31416,-0.063075
691,-0.149895,0.895241,-0.419613,0.064446,-0.196541,-0.272617
692,-0.149633,0.897482,-0.414893,0.098424,-0.134924,-0.3013389999999999
693,-0.145967,0.901963,-0.406394,0.004457,-0.038437,-0.3125699999999999
694,-0.140246,0.908027,-0.394738,-0.193158,0.096413,-0.220054
695,-0.135324,0.910684,-0.39031,-0.629111,1.162406,-0.343378
696,-0.143441,0.907454,-0.394906,-0.156196,0.680864,-0.189414
697,-0.139946,0.910509,-0.389087,-0.233605,0.211363,-0.271893
698,-0.136504,0.917652,-0.373203,-0.240434,-0.02248,0.061283
699,-0.139671,0.924214,-0.355414,-0.106576,0.037974,0.121771
700,-0.138285,0.930904,-0.338075,-0.185476,0.03925,0.229356
701,-0.1331099999999999,0.938746,-0.317862,-0.116204,0.129201,0.206031
702,-0.124793,0.947174,-0.295444,-0.127847,0.12262,0.156925
703,-0.115917,0.954849,-0.273542,-0.13364,0.033386,0.071485
704,-0.1078339999999999,0.961196,-0.253917,-0.0534059999999999,-0.057784,0.113429
705,-0.09856,0.9667,-0.236167,-0.009274,-0.064036,0.100303
706,-0.087281,0.971776,-0.219159,-0.001144,-0.065526,0.098187
707,-0.074803,0.976504,-0.202095,0.051823,-0.107592,0.085198
708,-0.0611549999999999,0.981232,-0.18287,0.076704,-0.125657,0.083809
709,-0.045066,0.985503,-0.1635589999999999,0.081473,-0.159392,0.0719149999999999
710,-0.028627,0.989115,-0.144325,0.031679,-0.277933,0.139534
711,-0.0129319999999999,0.992212,-0.123876,-0.005973,-0.290888,0.120138
712,0.001703,0.994867,-0.101161,-0.041436,-0.250605,0.104029
713,0.0158759999999999,0.996924,-0.076735,-0.128913,-0.142523,0.017195
714,0.02883,0.998117,-0.054129,-0.134391,-0.077874,-0.02984
715,0.0410209999999999,0.998569,-0.034295,-0.095434,-0.12865,-0.024284
716,0.052483,0.998463,-0.017761,-0.0541149999999999,-0.132359,-0.015854
717,0.061911,0.998072,-0.004221,0.012461,-0.130778,0.0008179999999999
718,0.070284,0.997496,0.007795,0.054533,-0.145583,0.007144
719,0.076197,0.996916,0.018726,0.07604,-0.033705,0.004787
720,0.079099,0.996472,0.028047,-0.000898,0.045521,-0.041169
721,0.079759,0.996173,0.035729,-0.148836,0.0530519999999999,-0.1131369999999999
722,0.079,0.995904,0.043979,-0.166189,0.037269,-0.14162
723,0.0788789999999999,0.995363,0.05504,-0.154303,0.150007,-0.215837
724,0.075174,0.99486,0.067832,-0.066446,0.330289,-0.135062
725,0.072671,0.993855,0.083485,0.161414,0.467555,0.019252
726,0.071753,0.992513,0.098835,0.2055139999999999,0.683375,0.144314
727,0.071953,0.990798,0.1146369999999999,-0.101815,0.360185,0.023028
728,0.070085,0.989301,0.127951,-0.191392,0.330706,0.092096
729,0.0656669999999999,0.988087,0.139183,-0.2173699999999999,0.228786,0.092583
730,0.059122,0.987195,0.1481569999999999,-0.234033,0.170565,0.048545
731,0.049272,0.987749,0.148067,-0.22812,0.121565,0.0986529999999999
732,0.037967,0.99001,0.135786,-0.197208,0.151622,0.021837
733,0.025138,0.993619,0.10995,-0.0675419999999999,0.099277,-0.021037
734,0.012858,0.996932,0.077208,0.0118459999999999,0.066468,-0.090041
735,0.003667,0.999093,0.042413,-0.001302,-0.005868,-0.23124
736,-0.003379,0.999993,0.001358,-0.010781,0.091239,-0.146438
737,-0.010587,0.998768,-0.048481,-0.044802,0.124218,0.0841259999999999
738,-0.020165,0.995986,-0.087209,-0.140068,-0.16017,0.152425
739,-0.035248,0.993094,-0.111903,-0.129929,-0.168402,0.047068
740,-0.052962,0.989427,-0.13501,-0.205278,0.026716,-0.030318
741,-0.072977,0.983486,-0.16562,-0.14118,-0.009746,0.020006
742,-0.092405,0.974878,-0.202666,-0.02881,-0.148477,0.137572
743,-0.1087849999999999,0.964899,-0.239028,-0.038935,-0.216334,0.184631
744,-0.124912,0.954468,-0.270901,-0.047863,-0.264313,0.207256
745,-0.140362,0.943562,-0.299981,-0.082034,-0.2687719999999999,0.190667
746,-0.154024,0.932467,-0.326773,-0.1024,-0.315066,0.212134
747,-0.166577,0.922414,-0.34843,-0.130145,-0.337041,0.187038
748,-0.178899,0.913476,-0.365452,-0.11706,-0.317361,0.196949
749,-0.189243,0.906957,-0.376319,-0.088375,-0.452672,0.163642
750,-0.195937,0.902983,-0.3824,-0.08014,-0.363112,0.07991
751,-0.197604,0.901288,-0.385527,-0.070966,-0.294614,0.015669
752,-0.197373,0.902161,-0.383598,0.005402,-0.238358,-0.117531
753,-0.195883,0.904699,-0.37835,0.076574,-0.191213,-0.232276
754,-0.191421,0.909266,-0.369584,0.085983,-0.171534,-0.284286
755,-0.183899,0.915594,-0.357586,0.049301,0.048335,-0.266499
756,-0.17239,0.920104,-0.351695,-0.143787,0.1653609999999999,-0.3104909999999999
757,-0.165237,0.918247,-0.359885,-0.528428,1.046276,-0.317148
758,-0.166079,0.914951,-0.367806,-0.02313,0.5307890000000001,-0.198707
759,-0.154449,0.921353,-0.356724,-0.19867,-0.034802,-0.206417
760,-0.148725,0.929656,-0.337074,-0.182818,-0.009063,0.125861
761,-0.144001,0.936593,-0.319461,-0.065487,0.02729,0.269748
762,-0.136443,0.942523,-0.305009,-0.192796,0.101117,0.324067
763,-0.129958,0.949102,-0.286904,-0.188752,0.139018,0.137414
764,-0.121369,0.956202,-0.266353,-0.1847069999999999,0.106771,0.122707
765,-0.1115299999999999,0.962778,-0.246204,-0.107815,-0.040033,0.161045
766,-0.101408,0.968751,-0.226353,-0.040728,-0.066514,0.1401099999999999
767,-0.090156,0.973953,-0.20805,0.009422,-0.067825,0.162792
768,-0.076783,0.978901,-0.189352,-0.018691,-0.069049,0.099951
769,-0.061324,0.983944,-0.167597,-0.0024879999999999,-0.127148,0.0955299999999999
770,-0.044741,0.988383,-0.1452369999999999,0.0689559999999999,-0.2096199999999999,0.068744
771,-0.026599,0.991959,-0.123718,0.098971,-0.220886,0.0680539999999999
772,-0.006259,0.994766,-0.101963,0.0493339999999999,-0.196945,0.0293459999999999
773,0.014783,0.996663,-0.080249,-0.002149,-0.133015,-0.0004089999999999
774,0.03508,0.997587,-0.059872,-0.031372,-0.110273,-0.017032
775,0.054814,0.997618,-0.041811,-0.083455,-0.138167,-0.015333
776,0.073182,0.99697,-0.0262629999999999,-0.112748,-0.146171,-0.007856
777,0.088632,0.995994,-0.011637,-0.127191,-0.143699,-0.006689
778,0.100655,0.994915,0.002804,-0.085503,-0.131725,-0.01991
779,0.109313,0.993882,0.015665,-0.001876,-0.110871,-0.020228
780,0.115095,0.992967,0.027643,0.0207849999999999,-0.100221,-0.041559
781,0.118195,0.992234,0.038674,-0.003861,-0.048097,-0.076684
782,0.118253,0.99176,0.049225,-0.010587,0.012161,-0.138122
783,0.114453,0.991665,0.059124,-0.028058,0.123645,-0.21304
784,0.107845,0.992008,0.065466,-0.045925,0.227994,-0.251639
785,0.098868,0.992388,0.073394,-0.0947929999999999,0.36572,-0.211287
786,0.0917299999999999,0.992337,0.0827519999999999,0.325201,0.501239,0.137966
787,0.089714,0.991658,0.092525,0.041862,0.65359,0.053608
788,0.087766,0.990878,0.102239,-0.030256,0.430997,0.118998
789,0.084989,0.990308,0.109829,-0.364698,0.245715,0.172748
790,0.079908,0.989865,0.117379,-0.369841,0.224567,0.16677
791,0.072025,0.990075,0.1206619999999999,-0.2891579999999999,0.141624,0.181676
792,0.063162,0.991132,0.1168869999999999,-0.207327,0.095736,0.098689
793,0.054206,0.993,0.104923,-0.194251,0.098339,0.050397
794,0.045281,0.995623,0.081727,-0.176522,0.113065,-0.074677
795,0.033748,0.998269,0.04813,-0.164989,0.11042,-0.041081
796,0.020593,0.999743,0.009245,0.011404,0.119321,-0.168928
797,0.010047,0.999259,-0.0371149999999999,0.021432,0.083826,-0.0020239999999999
798,0.002592,0.996184,-0.08722,-0.0101599999999999,0.050142,0.114091
799,-0.005446,0.991936,-0.126611,-0.050492,-0.0168229999999999,0.2194
800,-0.019214,0.988363,-0.150885,-0.19093,-0.1318869999999999,0.1438809999999999
801,-0.035459,0.984325,-0.172753,-0.257311,-0.012783,0.058739
802,-0.0530389999999999,0.977901,-0.202219,-0.346787,0.033863,0.017985
803,-0.071185,0.968596,-0.238224,-0.275281,-0.106444,0.0847509999999999
804,-0.086912,0.958076,-0.273011,-0.159808,-0.243323,0.14676
805,-0.100465,0.947321,-0.304117,0.018373,-0.216394,0.176722
806,-0.111013,0.936423,-0.332844,0.102301,-0.273551,0.172322
807,-0.121476,0.925704,-0.358209,0.085877,-0.276687,0.15986
808,-0.132948,0.915585,-0.379508,0.007673,-0.251294,0.14617
809,-0.146087,0.906852,-0.395318,-0.126435,-0.300544,0.190301
810,-0.158653,0.8997069999999999,-0.4066369999999999,-0.1620869999999999,-0.23949,0.111242
811,-0.169996,0.894824,-0.412783,-0.143557,-0.372012,0.227144
812,-0.1787089999999999,0.8923620000000001,-0.414427,-0.146181,-0.3037849999999999,0.058913
813,-0.180218,0.8917700000000001,-0.415049,-0.112949,-0.213929,-0.036535
814,-0.1801,0.8939290000000001,-0.410429,-0.011367,-0.205926,-0.102358
815,-0.179069,0.897368,-0.403314,0.050163,-0.191192,-0.197608
816,-0.176129,0.902062,-0.394031,0.067288,-0.149819,-0.312482
817,-0.17055,0.908102,-0.382441,0.097827,-0.143255,-0.311727
818,-0.159619,0.912153,-0.377486,-0.385028,0.914263,-0.197191
819,-0.15607,0.910809,-0.382187,-0.458783,0.8510620000000001,-0.226898
820,-0.162081,0.909921,-0.381798,-0.024656,0.264486,-0.233756
821,-0.156501,0.914696,-0.372607,-0.082696,0.046409,-0.189558
822,-0.150086,0.919827,-0.362476,-0.270019,0.016727,0.167957
823,-0.148724,0.924618,-0.350657,-0.186619,0.102161,0.236735
824,-0.14114,0.930905,-0.336887,-0.18578,0.224307,0.203677
825,-0.13272,0.938038,-0.320105,-0.124055,0.105923,0.201651
826,-0.124029,0.945976,-0.299572,-0.105341,0.07737,0.109249
827,-0.1145829999999999,0.953185,-0.279833,-0.073787,0.054338,0.112825
828,-0.104702,0.959526,-0.261427,-0.021351,0.035988,0.138442
829,-0.093038,0.965406,-0.243584,-0.002696,0.019183,0.122948
830,-0.080407,0.970768,-0.226146,-0.03115,-0.046696,0.10052
831,-0.065833,0.975862,-0.208223,-0.055811,-0.117631,0.0338
832,-0.048426,0.980647,-0.189695,-0.043829,-0.1711069999999999,0.05644
833,-0.028754,0.984931,-0.170534,0.040305,-0.237708,0.1002059999999999
834,-0.009044,0.988625,-0.150121,0.049038,-0.256905,0.107748
835,0.010128,0.991625,-0.128744,0.040073,-0.270403,0.102728
836,0.028451,0.993863,-0.106887,0.000892,-0.204511,0.066024
837,0.045957,0.995328,-0.0849029999999999,-0.047666,-0.197171,0.035129
838,0.061962,0.996012,-0.064182,-0.113033,-0.157236,-0.005521
839,0.075673,0.996054,-0.046356,-0.131719,-0.124365,-0.047089
840,0.086988,0.995695,-0.031984,-0.110181,-0.1135839999999999,-0.02928
841,0.096651,0.995135,-0.01905,-0.0553149999999999,-0.105639,-0.024072
842,0.103499,0.994595,-0.008234,0.043077,-0.077206,0.018305
843,0.1082619999999999,0.994121,-0.000305,0.044661,-0.059398,0.0088799999999999
844,0.111555,0.993742,0.005524,0.018373,-0.002241,-0.077577
845,0.112841,0.993559,0.010202,-0.061709,0.092928,-0.143915
846,0.112497,0.99356,0.0134759999999999,-0.11799,0.074861,-0.194338
847,0.112544,0.993522,0.015698,-0.133891,0.047112,-0.2216159999999999
848,0.11008,0.993811,0.014816,-0.113178,0.044183,-0.18695
849,0.103497,0.99451,0.0153419999999999,-0.1660579999999999,0.140149,-0.084297
850,0.098946,0.994763,0.025551,0.188575,0.562976,0.195778
851,0.0958519999999999,0.994737,0.036153,0.017032,0.709074,0.067454
852,0.093697,0.994518,0.046391,-0.127282,0.4643899999999999,0.015666
853,0.090521,0.994196,0.058112,-0.255087,0.4,0.143334
854,0.084877,0.994182,0.0663,-0.135948,0.210729,0.184722
855,0.0768799999999999,0.994664,0.06877,-0.1469339999999999,0.086299,0.105668
856,0.0665029999999999,0.995638,0.065422,-0.184789,0.074858,0.020363
857,0.054071,0.997191,0.051812,-0.22526,0.1193859999999999,0.025382
858,0.039758,0.998843,0.027006,-0.1403589999999999,0.179334,-0.027037
859,0.0244139999999999,0.999678,-0.0067469999999999,-0.0278779999999999,0.031816,-0.0356579999999999
860,0.011415,0.998915,-0.045125,-0.043306,0.04027,0.004933
861,-0.000591,0.996294,-0.086001,-0.088124,0.171156,0.031344
862,-0.014186,0.991921,-0.126053,-0.1162619999999999,0.018531,0.101837
863,-0.030942,0.987243,-0.156182,-0.0853299999999999,-0.174315,0.096413
864,-0.051007,0.982716,-0.177948,-0.09502,-0.06461,0.097183
865,-0.070252,0.97698,-0.201425,-0.261627,0.056192,-0.034155
866,-0.092528,0.968577,-0.230861,-0.158922,-0.035624,0.066783
867,-0.110951,0.957949,-0.264617,-0.120571,-0.184191,0.131652
868,-0.125293,0.9469,-0.296108,-0.069562,-0.211961,0.147197
869,-0.139275,0.93643,-0.322025,-0.010413,-0.266768,0.1675289999999999
870,-0.152789,0.92612,-0.3449,0.012652,-0.334888,0.15386
871,-0.1650299999999999,0.915677,-0.3664679999999999,-0.0074099999999999,-0.2873969999999999,0.149565
872,-0.176897,0.905868,-0.38485,-0.032148,-0.389785,0.194573
873,-0.187107,0.896473,-0.401653,-0.053585,-0.342579,0.166255
874,-0.195385,0.888757,-0.41465,-0.0434149999999999,-0.379571,0.1259839999999999
875,-0.199755,0.883015,-0.424713,-0.082395,-0.210636,0.067871
876,-0.203669,0.881452,-0.426097,-0.002828,-0.4895,0.037197
877,-0.2031339999999999,0.8824790000000001,-0.424224,0.028451,-0.262545,-0.113389
878,-0.201195,0.885443,-0.418938,0.08419,-0.237326,-0.195198
879,-0.197135,0.889534,-0.412146,0.056236,-0.247231,-0.194696
880,-0.190874,0.895547,-0.401947,0.029344,-0.263864,-0.188477
881,-0.183217,0.904371,-0.385414,-0.07069,0.100237,-0.210442
882,-0.172165,0.914695,-0.365637,-0.081741,0.0899129999999999,-0.230219
883,-0.155669,0.919287,-0.361493,-0.63231,1.282739,-0.190829
884,-0.156972,0.917449,-0.365576,-0.105448,0.2141739999999999,-0.154489
885,-0.161997,0.917158,-0.36411,-0.001607,-0.189863,-0.178249
886,-0.150652,0.923629,-0.352437,-0.091535,-0.2087699999999999,-0.319499
887,-0.138847,0.92871,-0.343829,-0.273064,0.164445,0.314425
888,-0.135304,0.93322,-0.332854,-0.204693,0.132271,0.252197
889,-0.128101,0.940196,-0.315627,-0.197812,0.101293,0.148086
890,-0.119117,0.948083,-0.2948699999999999,-0.2515949999999999,0.054221,0.16752
891,-0.111167,0.955802,-0.272182,-0.252084,-0.064048,0.160594
892,-0.100342,0.962602,-0.2516489999999999,-0.223877,-0.039598,0.172731
893,-0.085421,0.968123,-0.235455,-0.1633119999999999,0.1517349999999999,0.093045
894,-0.071778,0.973014,-0.219293,-0.095199,0.094094,0.11265
895,-0.058308,0.977388,-0.203252,-0.033031,-0.027895,0.083546
896,-0.042921,0.981452,-0.186839,-0.028917,-0.129737,0.007091
897,-0.026129,0.985089,-0.170042,-0.038339,-0.177747,-0.020586
898,-0.007686,0.987982,-0.154371,-0.016774,-0.195593,-0.0109579999999999
899,0.011973,0.989928,-0.1410539999999999,-0.0115769999999999,-0.235015,-0.016692
900,0.031854,0.990973,-0.130215,-0.071375,-0.249991,0.052929
901,0.048388,0.991831,-0.1180109999999999,-0.057864,-0.286997,0.0551899999999999
902,0.060182,0.992658,-0.104906,-0.048128,-0.247739,0.061144
903,0.068873,0.99332,-0.092566,-0.025904,-0.156513,0.031119
904,0.078135,0.993739,-0.079842,-0.006449,-0.098368,0.06823
905,0.089009,0.993946,-0.064384,-0.035283,-0.11742,0.063759
906,0.099316,0.99393,-0.047278,-0.15408,-0.180255,0.0589049999999999
907,0.107575,0.993811,-0.027638,-0.258225,-0.075445,-0.052761
908,0.1127799999999999,0.993593,-0.007012,-0.230593,-0.047472,-0.115623
909,0.1158299999999999,0.993223,0.009353,-0.043045,-0.060652,-0.0652
910,0.11928,0.992636,0.02105,0.018583,-0.098471,-0.008828
911,0.122969,0.991857,0.033081,-0.010481,-0.102529,-0.14006
912,0.125124,0.991083,0.045752,-0.0594049999999999,-0.05105,-0.20043
913,0.1240119999999999,0.990666,0.056547,-0.077579,0.00703,-0.210676
914,0.120393,0.990509,0.066276,-0.107591,0.050125,-0.206123
915,0.114264,0.990808,0.072382,-0.138739,0.1303619999999999,-0.218302
916,0.104971,0.991689,0.0743539999999999,0.100656,0.005183,-0.1709119999999999
917,0.098575,0.992213,0.076106,0.150586,0.07131,0.006261
918,0.098253,0.991711,0.082777,0.18144,0.172764,-0.0284709999999999
919,0.102603,0.990406,0.092542,-0.181063,0.318951,-0.100355
920,0.109426,0.988801,0.101464,-0.323797,0.469055,-0.023033
921,0.116748,0.987505,0.105826,-0.210757,0.370786,0.06196
922,0.1230619999999999,0.986563,0.107445,-0.154434,0.294794,0.249351
923,0.124134,0.987048,0.1016,-0.237903,-0.003924,0.279183
924,0.119047,0.989048,0.087229,-0.358885,-0.081714,0.3261159999999999
925,0.108695,0.991774,0.067575,-0.570975,-0.119932,0.209983
926,0.09501,0.994581,0.04216,-0.672693,0.0357839999999999,-0.0068349999999999
927,0.080881,0.996607,0.0150979999999999,-0.5860380000000001,0.08872,0.0048909999999999
928,0.068924,0.997564,-0.010546,-0.452057,0.101511,0.014208
929,0.06018,0.997578,-0.034812,0.032609,0.076839,0.052436
930,0.05194,0.997134,-0.0549669999999999,0.083893,0.052808,0.045675
931,0.042168,0.996347,-0.0742289999999999,0.114783,0.020773,0.044246
932,0.030623,0.995423,-0.090501,0.00705,-0.101197,-0.08647
933,0.019413,0.994323,-0.104598,-0.023106,-0.153549,-0.1065079999999999
934,0.009453,0.992952,-0.11812,-0.0320509999999999,-0.197237,-0.094496
935,0.001842,0.99133,-0.131365,-0.1630349999999999,-0.2346469999999999,-0.104887
936,-0.003695,0.989558,-0.144073,-0.169538,-0.252833,-0.090546
937,-0.006717,0.988064,-0.153887,-0.16058,-0.282177,-0.088896
938,-0.0068379999999999,0.987458,-0.157722,-0.065092,-0.357224,-0.1454089999999999
939,-0.004352,0.987899,-0.155023,-0.067578,-0.357665,-0.148108
940,0.000939,0.989216,-0.146443,0.011406,-0.376652,-0.177395
941,0.008626,0.991185,-0.132188,0.0033829999999999,-0.324666,-0.183974
942,0.017252,0.993303,-0.114221,-0.012293,-0.270021,-0.176825
943,0.026918,0.994986,-0.096295,-0.095278,0.021127,-0.1542079999999999
944,0.036512,0.996071,-0.080658,-0.0348949999999999,0.298256,-0.042724
945,0.04269,0.996528,-0.071444,-0.1097369999999999,0.448326,-0.061033
946,0.045645,0.996733,-0.066606,-0.3935,0.4459399999999999,-0.680693
947,0.044591,0.996962,-0.063827,-0.310948,0.298646,-0.885194
948,0.039007,0.996722,-0.070853,-0.2619829999999999,0.123121,-0.819833
949,0.031149,0.995832,-0.085698,0.03982,0.106188,-0.277522
950,0.022805,0.994894,-0.098295,-0.170312,0.082514,-0.019412
951,0.015021,0.993976,-0.108548,-0.322882,0.148389,0.132001
952,0.008528,0.993544,-0.1131119999999999,-0.551604,0.2409079999999999,0.30609
953,0.001434,0.994715,-0.102652,-0.183823,-0.028086,0.3095
954,0.000354,0.995928,-0.090138,-0.060733,-0.021181,0.260426
955,0.0053,0.996553,-0.082773,-0.1244099999999999,-0.201692,0.200036
956,0.008451,0.996949,-0.077579,-0.271238,-0.182419,0.300434
957,0.009666,0.997333,-0.072326,-0.33979,-0.1187619999999999,0.280379
958,0.01225,0.997713,-0.066446,-0.453076,0.023771,0.244928
959,0.020733,0.998157,-0.057008,-0.519466,0.060849,0.079682
960,0.033055,0.998348,-0.046954,-0.427816,-0.015133,0.023868
961,0.043308,0.998157,-0.042475,-0.25632,-0.0842929999999999,0.117396
962,0.04973,0.997888,-0.041746,-0.123324,-0.131097,0.217344
963,0.0552799999999999,0.997772,-0.037306,-0.043866,-0.125473,0.224912
964,0.061975,0.99775,-0.0255,-0.0393769999999999,-0.087045,0.141666
965,0.069325,0.997574,-0.00602,-0.025624,-0.086579,0.005807
966,0.075377,0.996983,0.018435,-0.021056,-0.053929,-0.0590539999999999
967,0.078722,0.996014,0.041898,-0.011812,-0.00018,-0.199185
968,0.079071,0.99487,0.063068,0.00621,-0.029279,-0.189944
969,0.077784,0.993485,0.083271,0.034612,-0.099549,-0.169545
970,0.076169,0.991317,0.107165,0.002673,-0.138672,-0.189593
971,0.07355,0.988704,0.130581,-0.0576039999999999,-0.065913,-0.220029
972,0.069092,0.986071,0.15128,0.0316,-0.019,-0.2753489999999999
973,0.063976,0.983783,0.167554,0.2202039999999999,-0.01488,-0.168928
974,0.058063,0.982145,0.178929,0.026974,0.239092,-0.09322
975,0.056086,0.979249,0.194734,-0.167231,0.287749,-0.2495139999999999
976,0.056519,0.975492,0.212642,-0.32454,0.265337,-0.4435229999999999
977,0.053899,0.973927,0.220359,-0.151052,-0.015186,-0.277305
978,0.050416,0.97188,0.230006,-0.077989,0.061827,-0.315303
979,0.044908,0.970135,0.238363,-0.02147,0.133777,-0.29447
980,0.04048,0.968991,0.243748,-0.140455,0.203052,-0.031117
981,0.038317,0.968721,0.245166,-0.086352,0.2032,0.043087
982,0.041285,0.969506,0.241557,0.002568,0.158393,0.1353349999999999
983,0.048524,0.971955,0.2300969999999999,-0.32602,0.089248,0.4430449999999999
984,0.056098,0.975791,0.2113809999999999,-0.465018,0.096811,0.3279559999999999
985,0.056634,0.981072,0.185167,-0.492303,0.135643,-0.085497
986,0.049364,0.986388,0.15684,-0.374834,0.310655,-0.114756
987,0.036513,0.991728,0.123041,-0.201491,0.35515,-0.118906
988,0.021587,0.996016,0.086504,-0.027828,0.247209,-0.066362
989,0.006101,0.998577,0.052943,0.015642,0.18755,-0.0927679999999999
990,-0.010267,0.999722,0.0211389999999999,0.096479,0.010166,-0.1159119999999999
991,-0.026391,0.999598,-0.010193,0.1106809999999999,-0.159449,-0.110733
992,-0.040498,0.998341,-0.040887,0.072145,-0.211186,-0.029227
993,-0.052945,0.996344,-0.067022,0.055982,-0.201132,-0.016901
994,-0.0655289999999999,0.994163,-0.085684,0.050377,-0.243965,-0.086145
995,-0.07825,0.992036,-0.098678,0.077899,-0.276109,-0.096711
996,-0.088513,0.990157,-0.108404,0.047711,-0.259002,-0.1191049999999999
997,-0.097358,0.988403,-0.116526,-0.034417,-0.222885,-0.197882
998,-0.104646,0.98724,-0.120017,-0.046721,-0.255825,-0.194238
999,-0.110414,0.98697,-0.117031,-0.060469,-0.3346409999999999,-0.255269
1000,-0.115091,0.987191,-0.110479,0.007593,-0.360085,-0.265528
1001,-0.11729,0.98803,-0.1001799999999999,0.155223,-0.303307,-0.307321
1002,-0.1160279999999999,0.989381,-0.087514,0.2124329999999999,-0.201509,-0.364421
1003,-0.112163,0.9907,-0.0770049999999999,0.132839,-0.015923,-0.407248
1004,-0.109774,0.991278,-0.072903,0.117449,0.1837099999999999,-0.259281
1005,-0.109269,0.991332,-0.072924,0.0509649999999999,0.260713,-0.243421
1006,-0.109067,0.991524,-0.070574,-0.058673,0.2626719999999999,-0.41496
1007,-0.108598,0.991903,-0.0658059999999999,-0.185866,0.15336,-0.57697
1008,-0.109445,0.99208,-0.061614,-0.248877,-0.089232,-0.559495
1009,-0.112388,0.9918,-0.0608159999999999,-0.420159,-0.095331,-0.28713
1010,-0.117406,0.990872,-0.066213,-0.361659,0.1635309999999999,-0.2305699999999999
1011,-0.1225,0.990168,-0.067511,-0.264234,0.197897,-0.194986
1012,-0.12515,0.989559,-0.0714559999999999,-0.249362,-0.070629,0.229232
1013,-0.125354,0.989556,-0.0711519999999999,-0.444013,0.24752,0.413346
1014,-0.127409,0.98961,-0.066598,-0.36339,0.396727,0.365471
1015,-0.129459,0.989475,-0.064611,0.168766,0.0590929999999999,0.224859
1016,-0.128444,0.989596,-0.0647799999999999,0.068873,-0.200549,0.235602
1017,-0.128304,0.989836,-0.06131,0.195824,-0.09181,0.256135
1018,-0.1227,0.990978,-0.05388,0.128346,0.0124549999999999,0.2750869999999999
1019,-0.114004,0.992557,-0.042774,-0.1039369999999999,0.076291,0.176533
1020,-0.105314,0.993969,-0.030497,-0.18117,0.041722,0.086604
1021,-0.092602,0.995533,-0.018261,-0.208546,0.061062,0.009823
1022,-0.075737,0.997094,-0.00785,-0.149559,-0.07174,-0.050423
1023,-0.058748,0.998269,0.00155,0.033723,-0.148644,-0.007897
1024,-0.043401,0.998949,0.014574,0.221746,-0.127672,0.036909
1025,-0.029255,0.999049,0.032237,0.231159,0.042806,-0.15832
1026,-0.016781,0.998642,0.049262,0.208355,0.0778659999999999,-0.2201139999999999
1027,-0.00584,0.998005,0.062818,0.1935079999999999,0.0575679999999999,-0.203458
1028,0.003454,0.997266,0.073779,0.210123,-0.064175,-0.212115
1029,0.010603,0.996571,0.082025,0.195741,-0.063664,-0.199319
1030,0.014936,0.995891,0.089281,0.1127339999999999,-0.079708,-0.181887
1031,0.016583,0.995172,0.096703,0.0859559999999999,-0.107004,-0.215142
1032,0.0153889999999999,0.994516,0.103416,0.0824049999999999,-0.023233,-0.175499
1033,0.012542,0.993907,0.109472,0.016526,0.050313,-0.13738
1034,0.007997,0.993291,0.1153319999999999,-0.028475,0.142145,-0.19869
1035,0.000466,0.992618,0.121252,-0.0234909999999999,0.312115,-0.218435
1036,-0.008943,0.991789,0.127545,0.046006,0.4742909999999999,-0.084226
1037,-0.017208,0.990905,0.133428,0.307811,0.588608,-0.036794
1038,-0.023636,0.990103,0.138312,-0.027694,0.679407,0.047311
1039,-0.031814,0.989703,0.139532,-0.068772,0.5755899999999999,0.252756
1040,-0.041816,0.9904,0.1317279999999999,-0.102379,0.311038,0.287202
1041,-0.0538809999999999,0.991989,0.114224,-0.181318,0.0894929999999999,0.23238
1042,-0.066062,0.99372,0.090275,-0.276452,0.067026,0.024151
1043,-0.079482,0.994978,0.060773,-0.225007,0.080965,-0.08685
1044,-0.094249,0.995192,0.026522,-0.0632679999999999,0.113848,-0.1029839999999999
1045,-0.107389,0.994146,-0.0116099999999999,0.005292,0.142649,-0.1158309999999999
1046,-0.119167,0.99157,-0.050823,0.017223,0.151069,-0.077015
1047,-0.1305,0.987313,-0.090425,0.033255,0.04621,0.060136
1048,-0.140923,0.982156,-0.124523,0.086403,-0.077355,0.014126
1049,-0.150039,0.976731,-0.153231,0.056213,-0.057069,-0.093885
1050,-0.160163,0.970045,-0.182637,0.057502,0.008837,-0.141963
1051,-0.1731359999999999,0.9606,-0.217409,0.0406129999999999,-0.003706,-0.072249
1052,-0.186963,0.94924,-0.25295,0.071012,-0.161291,0.01122
1053,-0.20169,0.937576,-0.283317,0.125366,-0.179397,0.039711
1054,-0.214486,0.925882,-0.311021,0.150018,-0.173731,0.077547
1055,-0.2254239999999999,0.915185,-0.33409,0.12934,-0.403726,0.108749
1056,-0.238953,0.905662,-0.350247,0.142869,-0.394203,0.124905
1057,-0.252395,0.896776,-0.363436,0.078109,-0.4521199999999999,0.164293
1058,-0.263715,0.889324,-0.373568,0.018979,-0.399548,0.069109
1059,-0.2747949999999999,0.8839319999999999,-0.37835,0.032318,-0.342886,0.004327
1060,-0.286084,0.8823280000000001,-0.373697,0.110822,-0.554463,0.133157
1061,-0.290721,0.883599,-0.367058,0.101253,-0.300606,-0.134193
1062,-0.292595,0.886864,-0.357571,0.2147599999999999,-0.193246,-0.2267949999999999
1063,-0.291379,0.891633,-0.346535,0.2305719999999999,-0.0864419999999999,-0.30265
1064,-0.287344,0.8971,-0.335623,0.218588,-0.093724,-0.1982819999999999
1065,-0.278999,0.902231,-0.328841,-0.251794,0.486441,-0.327226
1066,-0.281769,0.901176,-0.329371,-0.3858789999999999,0.757424,-0.284033
1067,-0.288023,0.8990090000000001,-0.329882,0.09442,0.481133,-0.365324
1068,-0.2821869999999999,0.902296,-0.325928,-0.004068,-0.001478,-0.185227
1069,-0.279201,0.907139,-0.314867,-0.092198,0.146678,0.011706
1070,-0.280227,0.911579,-0.300819,-0.036591,0.12788,0.13253
1071,-0.2768,0.917522,-0.285539,-0.0682779999999999,0.166554,0.117539
1072,-0.2727989999999999,0.924581,-0.265947,-0.031522,0.081111,0.159532
1073,-0.267287,0.932438,-0.243134,0.002425,0.068661,0.1375279999999999
1074,-0.261198,0.93944,-0.2218659999999999,0.012342,0.054091,0.103321
1075,-0.254712,0.945535,-0.202683,0.1042609999999999,0.058035,0.125565
1076,-0.246123,0.951392,-0.18513,0.099364,0.025247,0.102855
1077,-0.235145,0.957348,-0.167892,0.0322029999999999,-0.068691,0.06018
1078,-0.222421,0.963118,-0.151419,0.04046,-0.073485,0.011786
1079,-0.209132,0.968575,-0.1346119999999999,0.136576,-0.120324,0.048811
1080,-0.194301,0.973856,-0.117671,0.1840619999999999,-0.1696109999999999,0.0628919999999999
1081,-0.1771039999999999,0.979167,-0.0993059999999999,0.230632,-0.206767,0.022081
1082,-0.158972,0.984219,-0.077691,0.249991,-0.188824,-0.012549
1083,-0.141908,0.988338,-0.055172,0.208116,-0.177074,-0.00037
1084,-0.126359,0.9914,-0.033971,0.171753,-0.203192,-0.015742
1085,-0.112298,0.993576,-0.013736,0.079049,-0.1680299999999999,-0.046551
1086,-0.1000289999999999,0.994965,0.005556,0.03318,-0.067491,-0.074525
1087,-0.090397,0.99563,0.023269,0.067814,-0.054072,-0.100753
1088,-0.083001,0.99591,0.0355889999999999,0.1174089999999999,-0.1094509999999999,-0.03414
1089,-0.07732,0.996037,0.043861,0.158847,-0.129964,-0.021736
1090,-0.074061,0.995923,0.051427,0.202266,-0.109402,-0.041906
1091,-0.072976,0.99574,0.0562919999999999,0.165506,-0.052975,-0.083651
1092,-0.074681,0.995579,0.056888,0.154698,-0.0248919999999999,-0.192218
1093,-0.078507,0.995268,0.057196,0.142182,-0.0538,-0.226798
1094,-0.084676,0.99461,0.059778,0.094426,-0.001644,-0.241601
1095,-0.090882,0.993914,0.0621899999999999,-0.146362,0.142469,-0.329157
1096,-0.100188,0.992556,0.069184,0.04048,0.35745,-0.270966
1097,-0.104387,0.991356,0.079421,0.317705,0.57595,-0.062041
1098,-0.1033859999999999,0.990343,0.0923269999999999,0.154258,0.459196,-0.136501
1099,-0.102359,0.989347,0.10347,0.136936,0.488802,-0.0491029999999999
1100,-0.104999,0.987712,0.115727,-0.0182,0.5572560000000001,0.0563
1101,-0.10968,0.985902,0.12633,-0.013519,0.559066,0.045698
1102,-0.115842,0.984701,0.130143,0.03018,0.195353,0.109954
1103,-0.124171,0.984282,0.12555,-0.041524,0.026735,0.124847
1104,-0.134358,0.984525,0.112479,-0.0602529999999999,0.001864,0.12742
1105,-0.144651,0.98523,0.091598,-0.082553,-0.004975,0.113251
1106,-0.1539579999999999,0.986134,0.061887,0.016842,0.096309,-0.109632
1107,-0.163248,0.986284,0.024258,0.063013,0.072814,-0.132183
1108,-0.16987,0.985285,-0.018747,0.112329,0.037817,-0.1620849999999999
1109,-0.174406,0.982347,-0.06761,0.148481,-0.008425,0.029845
1110,-0.179306,0.976992,-0.115455,0.176101,-0.077166,0.088905
1111,-0.186229,0.970845,-0.150909,0.121897,-0.172642,0.112945
1112,-0.19723,0.964128,-0.1776319999999999,0.063075,-0.125184,-0.032665
1113,-0.209863,0.955648,-0.206612,0.0736179999999999,0.069513,-0.087288
1114,-0.2198429999999999,0.945031,-0.242033,0.070765,-0.020868,0.050719
1115,-0.226647,0.93434,-0.275018,-0.008369,-0.174514,0.024423
1116,-0.238113,0.922911,-0.302546,0.1448819999999999,-0.2020549999999999,0.1091099999999999
1117,-0.249033,0.911816,-0.326451,0.185038,-0.218319,0.0880789999999999
1118,-0.25787,0.902049,-0.346132,0.133603,-0.2049969999999999,0.097674
1119,-0.268497,0.892465,-0.362508,0.109195,-0.275018,0.17252
1120,-0.278878,0.8838030000000001,-0.375654,-0.062537,-0.229079,0.095183
1121,-0.289205,0.8774879999999999,-0.382587,0.010228,-0.529358,0.227878
1122,-0.2924989999999999,0.8717379999999999,-0.393084,0.012576,-0.320316,0.089861
1123,-0.291624,0.8676969999999999,-0.402559,0.0642529999999999,-0.292105,0.002611
1124,-0.287234,0.865015,-0.41139,0.062198,-0.253763,-0.074145
1125,-0.281981,0.8629680000000001,-0.41925,0.124357,-0.225929,-0.130692
1126,-0.276705,0.8633129999999999,-0.422045,0.188082,-0.2052469999999999,-0.179914
1127,-0.271393,0.8672040000000001,-0.417492,0.225754,-0.2111829999999999,-0.241718
1128,-0.263975,0.874868,-0.406103,0.162107,-0.048208,-0.328455
1129,-0.255575,0.883712,-0.392086,0.168569,0.112839,-0.170063
1130,-0.244274,0.888742,-0.387898,-0.351627,1.447196,-0.401713
1131,-0.249571,0.885287,-0.392401,0.035154,0.441968,-0.297723
1132,-0.262596,0.882608,-0.389927,0.289101,0.010031,-0.361309
1133,-0.2659579999999999,0.886447,-0.378782,-0.094318,0.033902,-0.30173
1134,-0.275125,0.8878510000000001,-0.368813,-0.105262,0.177182,0.070596
1135,-0.28323,0.890483,-0.356114,-0.187046,0.230198,0.0468639999999999
1136,-0.283163,0.8971,-0.339157,-0.287425,0.196177,0.111603
1137,-0.278829,0.906338,-0.3174929999999999,-0.2615449999999999,0.1679109999999999,0.047993
1138,-0.27265,0.915875,-0.294671,0.009803,0.047458,0.062433
1139,-0.265382,0.92502,-0.271857,0.095659,0.020186,0.088523
1140,-0.256815,0.933756,-0.249281,0.110788,0.02535,0.081694
1141,-0.246056,0.9422,-0.227401,0.178826,0.0299529999999999,0.098724
1142,-0.232726,0.950215,-0.207183,0.191985,0.016063,0.071014
1143,-0.218728,0.957448,-0.188269,0.18139,-0.007558,0.038657
1144,-0.2049119999999999,0.963937,-0.169797,0.156343,-0.045037,0.004605
1145,-0.190873,0.969971,-0.150725,0.113801,-0.1567839999999999,-0.016817
1146,-0.176455,0.975495,-0.131403,0.1105829999999999,-0.181138,-0.001745
1147,-0.1617819999999999,0.980361,-0.112755,0.110925,-0.198714,0.020104
1148,-0.146708,0.98468,-0.09421,0.168299,-0.194626,0.046175
1149,-0.131828,0.988425,-0.075035,0.1625589999999999,-0.210944,0.032692
1150,-0.117473,0.991538,-0.0552039999999999,0.123714,-0.227621,-0.0009789999999999
1151,-0.105192,0.993747,-0.0373589999999999,0.105573,-0.158221,-0.032434
1152,-0.094206,0.99529,-0.02271,0.081099,-0.148641,-0.039286
1153,-0.084097,0.996408,-0.009585,0.0663059999999999,-0.131708,-0.043805
1154,-0.075067,0.997173,0.002005,0.1145559999999999,-0.118877,-0.011649
1155,-0.067597,0.997645,0.011343,0.1070869999999999,-0.119349,-0.020986
1156,-0.062486,0.997861,0.019027,0.171983,-0.085126,0.006013
1157,-0.059638,0.997906,0.024906,0.1783819999999999,-0.088818,-0.062626
1158,-0.058289,0.997877,0.028946,0.151901,-0.074278,-0.10112
1159,-0.058959,0.997723,0.032662,0.119903,-0.036893,-0.115731
1160,-0.061949,0.997435,0.035772,0.058485,-0.044875,-0.18044
1161,-0.06601,0.997009,0.0401339999999999,-0.082504,-0.020401,-0.2158389999999999
1162,-0.07157,0.996252,0.048519,-0.055307,0.137018,-0.255169
1163,-0.074751,0.995224,0.062745,0.257948,0.413498,-0.161438
1164,-0.075514,0.994099,0.077846,0.1071,0.5706899999999999,-0.1499589999999999
1165,-0.073498,0.993148,0.090832,0.152126,0.520051,-0.088695
1166,-0.073181,0.991967,0.103156,0.06015,0.643379,-0.005652
1167,-0.077619,0.990191,0.116154,0.150022,0.685316,0.022975
1168,-0.082867,0.98838,0.127408,0.170101,0.596871,0.010043
1169,-0.0900789999999999,0.987178,0.131761,0.03327,0.067876,0.051894
1170,-0.09969,0.986748,0.1280069999999999,-0.0405839999999999,-0.002449,0.069579
1171,-0.111842,0.986795,0.117142,-0.089696,0.01763,0.032867
1172,-0.124651,0.987582,0.095606,-0.052382,0.093137,-0.054758
1173,-0.136902,0.988544,0.063524,0.067032,0.08244,-0.093736
1174,-0.146251,0.989003,0.021896,0.1195329999999999,0.041438,-0.090164
1175,-0.151173,0.988176,-0.025512,0.142918,0.032912,-0.053758
1176,-0.155147,0.985267,-0.071931,0.173503,0.005028,0.016953
1177,-0.16117,0.980626,-0.111322,0.18473,-0.0624889999999999,0.038401
1178,-0.170828,0.975299,-0.14002,0.112875,-0.138248,0.030904
1179,-0.184143,0.969091,-0.164167,0.028213,0.000178,-0.00844
1180,-0.199514,0.960805,-0.192469,-0.062541,0.0038399999999999,-0.038977
1181,-0.2164199999999999,0.950298,-0.223815,-0.001598,-0.096294,0.044509
1182,-0.2308,0.939539,-0.25297,0.11288,-0.2205599999999999,0.148799
1183,-0.2434719999999999,0.929413,-0.277327,0.131076,-0.260895,0.152464
1184,-0.256477,0.919054,-0.2992579999999999,0.135673,-0.2625909999999999,0.149326
1185,-0.268832,0.908371,-0.320294,0.0972929999999999,-0.385651,0.181668
1186,-0.279961,0.89799,-0.339459,0.013267,-0.256084,0.091931
1187,-0.291823,0.8899590000000001,-0.350443,0.057967,-0.5553939999999999,0.164576
1188,-0.298003,0.8833780000000001,-0.36171,0.043532,-0.327806,0.028901
1189,-0.299802,0.879141,-0.3704409999999999,0.067471,-0.2746949999999999,0.043476
1190,-0.297975,0.87785,-0.37495,0.052354,-0.278012,-0.049733
1191,-0.294629,0.8789540000000001,-0.375007,0.099591,-0.247698,-0.223214
1192,-0.290679,0.8818030000000001,-0.3713849999999999,0.162902,-0.22984,-0.262373
1193,-0.2843199999999999,0.886763,-0.364432,0.245242,0.051637,-0.313028
1194,-0.276463,0.892709,-0.35586,0.237386,0.045692,-0.3216
1195,-0.26807,0.8964469999999999,-0.352873,-0.159589,1.013435,-0.416979
1196,-0.277948,0.89318,-0.353512,0.113153,0.368645,-0.274692
1197,-0.2887889999999999,0.893382,-0.3441909999999999,0.229523,0.359334,-0.341829
1198,-0.289138,0.8981120000000001,-0.331348,0.055846,0.254293,-0.353039
1199,-0.2964489999999999,0.901735,-0.314625,-0.0904529999999999,0.149901,0.065632
1200,-0.299848,0.907279,-0.2948429999999999,-0.04938,0.135491,0.073804
1201,-0.296037,0.91489,-0.274474,-0.194106,0.125577,0.194472
1202,-0.289645,0.923254,-0.252396,-0.111615,0.125604,0.184464
1203,-0.280532,0.931758,-0.23049,-0.068498,0.08553,0.149756
1204,-0.2691929999999999,0.939781,-0.210579,0.060208,0.07061,0.107124
1205,-0.257445,0.947026,-0.19199,0.160399,0.060207,0.120472
1206,-0.245383,0.953454,-0.175236,0.181174,0.031623,0.126271
1207,-0.234151,0.958983,-0.159754,0.184178,-0.006575,0.105875
1208,-0.223084,0.963889,-0.145423,0.128678,-0.0472319999999999,0.072699
1209,-0.211386,0.968669,-0.130357,0.053686,-0.109706,0.05864
1210,-0.198598,0.973326,-0.114854,0.028005,-0.140577,0.0545059999999999
1211,-0.185591,0.977573,-0.099516,0.093305,-0.157809,0.050795
1212,-0.172191,0.9814,-0.084852,0.109294,-0.162445,0.0223979999999999
1213,-0.1584279999999999,0.984809,-0.0710399999999999,0.1458549999999999,-0.199927,0.083201
1214,-0.145141,0.987814,-0.056139,0.127807,-0.196554,0.033937
1215,-0.1338859999999999,0.990172,-0.040346,0.1182609999999999,-0.15747,0.010393
1216,-0.12353,0.991984,-0.026483,0.083201,-0.116344,0.002969
1217,-0.1135299999999999,0.993394,-0.016544,0.075124,-0.126558,0.025211
1218,-0.103444,0.9946,-0.008042,0.066304,-0.128893,0.032852
1219,-0.093987,0.99557,-0.001021,0.09266,-0.104976,-0.021715
1220,-0.08617,0.996271,0.003746,0.143772,-0.097299,-0.0662
1221,-0.080693,0.996721,0.005604,0.193135,-0.108324,-0.076039
1222,-0.077896,0.996947,0.0048909999999999,0.245529,-0.034423,-0.103951
1223,-0.077857,0.996951,0.004653,0.246802,-0.028033,-0.150863
1224,-0.080542,0.996731,0.00587,0.1981109999999999,-0.080929,-0.197628
1225,-0.085351,0.996312,0.008481,0.0727169999999999,-0.004903,-0.250577
1226,-0.083323,0.99648,0.008961,-0.035376,0.100948,-0.322193
1227,-0.088784,0.995926,0.015595,-0.193901,0.200104,-0.357056
1228,-0.093259,0.995328,0.0248889999999999,0.302915,0.389621,-0.051211
1229,-0.092405,0.995081,0.035647,0.145444,0.688208,0.022322
1230,-0.090021,0.994591,0.051769,0.1036619999999999,0.58094,-0.1160089999999999
1231,-0.088851,0.993746,0.067601,-0.0144509999999999,0.5229779999999999,-0.055012
1232,-0.093922,0.992524,0.077911,0.076176,0.5581659999999999,0.126465
1233,-0.1014019999999999,0.991285,0.084073,0.1159589999999999,0.25664,0.1242849999999999
1234,-0.1110299999999999,0.990119,0.085631,0.115302,0.113763,0.058672
1235,-0.121403,0.989475,0.078717,0.123067,0.086376,0.0225259999999999
1236,-0.133079,0.989248,0.060611,0.107368,0.069391,0.0135009999999999
1237,-0.144339,0.989027,0.031425,0.1780769999999999,0.071795,-0.014655
1238,-0.152972,0.98822,-0.003968,0.179431,0.006836,0.04741
1239,-0.158379,0.986582,-0.0395839999999999,0.139932,-0.014872,0.06145
1240,-0.1655849999999999,0.983299,-0.075503,-0.00301,0.086281,0.080569
1241,-0.178307,0.977649,-0.111376,0.028466,0.028988,0.1055319999999999
1242,-0.193794,0.970747,-0.141739,0.070076,-0.018309,0.128891
1243,-0.2098409999999999,0.962868,-0.169845,0.0763269999999999,0.063224,0.041625
1244,-0.223991,0.9538,-0.200224,0.080085,0.089489,0.0404949999999999
1245,-0.237234,0.943423,-0.2316639999999999,0.062749,-0.0389889999999999,-0.005884
1246,-0.251411,0.931816,-0.261741,0.12255,-0.115745,0.111457
1247,-0.266405,0.919721,-0.288337,0.110048,-0.135785,0.132682
1248,-0.282922,0.907334,-0.310961,0.122491,-0.182191,0.145449
1249,-0.2984489999999999,0.895048,-0.33138,0.096117,-0.317946,0.140004
