,gravity.x,gravity.y,gravity.z,userAcceleration.x,userAcceleration.y,userAcceleration.z
0,0.3543949999999999,0.854195,-0.380457,0.16625,-0.003609,-0.40296
1,0.346278,0.8581799999999999,-0.378961,0.116842,0.142324,-0.499472
2,0.341202,0.859095,-0.381484,0.095001,-0.114909,-0.136552
3,0.339104,0.8649629999999999,-0.3699179999999999,0.064339,-0.229557,-0.048462
4,0.330206,0.8786309999999999,-0.344912,0.043986,0.17009,0.024752
5,0.310427,0.891899,-0.328851,-0.188768,0.482872,0.23008
6,0.303155,0.899063,-0.315871,-0.1823509999999999,0.350647,0.219542
7,0.308361,0.904717,-0.2939239999999999,-0.143933,-0.307748,0.267053
8,0.320817,0.907615,-0.270746,0.001205,-0.333991,0.299386
9,0.3300079999999999,0.907284,-0.260617,0.1530089999999999,0.045917,0.165814
10,0.333406,0.907312,-0.256158,0.079435,0.3164889999999999,-0.008185
11,0.33237,0.910859,-0.244655,0.00401,0.2297809999999999,0.0215099999999999
12,0.331436,0.915848,-0.226634,-0.184479,-0.10434,0.11735
13,0.3355619999999999,0.91874,-0.2080989999999999,-0.084936,-0.122918,0.0755919999999999
14,0.343508,0.919815,-0.1895619999999999,-0.003314,-0.091644,0.0093099999999999
15,0.349613,0.921027,-0.171668,0.167767,-0.050529,0.004203
16,0.351261,0.923303,-0.155301,0.098507,-0.071771,0.093915
17,0.35074,0.926132,-0.138752,-0.031373,-0.112152,0.107395
18,0.350461,0.928853,-0.119998,-0.1155369999999999,-0.099339,0.044055
19,0.350763,0.930893,-0.101946,-0.154077,-0.16362,0.0892049999999999
20,0.352137,0.931725,-0.088755,-0.14944,-0.184044,0.176249
21,0.354464,0.931802,-0.078033,-0.062854,-0.119684,0.121674
22,0.356425,0.931951,-0.066473,0.044881,-0.039403,0.072408
23,0.3573429999999999,0.932489,-0.052534,0.053424,0.027701,0.04498
24,0.356273,0.933525,-0.039876,0.058445,0.0931169999999999,-0.02621
25,0.353065,0.935201,-0.0270839999999999,0.144051,0.211146,-0.147583
26,0.347278,0.937609,-0.016583,0.221203,0.363492,-0.296527
27,0.341237,0.939938,-0.007892,0.2839,0.40398,-0.308926
28,0.336629,0.941631,0.000893,0.2898969999999999,0.294773,-0.058602
29,0.331775,0.943293,0.010619,-0.038867,0.4744319999999999,0.180589
30,0.319857,0.947246,0.020124,-0.107653,0.5725600000000001,0.222551
31,0.299996,0.953547,0.027201,-0.176369,0.409902,0.0940759999999999
32,0.279912,0.959561,0.02966,-0.163167,0.1730529999999999,-0.135144
33,0.267463,0.963315,0.021844,-0.150718,0.1693,-0.127328
34,0.261298,0.965253,0.000106,0.148675,-0.349515,-0.06404
35,0.259331,0.9653,-0.0305589999999999,0.165382,-0.365355,-0.018238
36,0.264546,0.962122,-0.065772,0.160167,-0.3621769999999999,0.016975
37,0.276959,0.955442,-0.10205,-0.066251,0.266955,-0.057267
38,0.287914,0.94808,-0.1350599999999999,-0.194469,0.108744,0.0092819999999999
39,0.2868739999999999,0.943819,-0.164012,-0.193429,0.113005,0.0382329999999999
40,0.283657,0.940132,-0.188897,-0.24017,-0.015587,0.158883
41,0.2862989999999999,0.933697,-0.215023,-0.255842,0.007145,0.100475
42,0.294064,0.923649,-0.245745,-0.207287,0.064159,0.07622
43,0.302939,0.912444,-0.275075,-0.132406,0.119157,0.144276
44,0.311125,0.902747,-0.297056,0.029054,-0.233878,0.07562
45,0.314391,0.896057,-0.313422,0.004793,-0.277496,0.106025
46,0.31353,0.8910969999999999,-0.328081,-0.1159289999999999,-0.190048,0.127138
47,0.307969,0.8873540000000001,-0.343149,-0.116501,0.00028,0.084635
48,0.299264,0.8866069999999999,-0.352651,-0.12478,0.080236,0.072728
49,0.290902,0.887984,-0.356166,-0.163994,0.160005,0.060389
50,0.285234,0.890284,-0.355007,-0.164751,-0.026682,0.039562
51,0.281051,0.894167,-0.348524,-0.13327,-0.117113,-0.021899
52,0.27803,0.899552,-0.336894,-0.119873,0.03395,-0.183476
53,0.272308,0.905406,-0.3257,-0.034485,0.04247,-0.2288659999999999
54,0.266957,0.910584,-0.315537,0.137325,-0.035279,-0.316772
55,0.263323,0.915285,-0.304807,0.088758,-0.300035,-0.27054
56,0.259829,0.919906,-0.293692,0.021757,-0.418197,-0.1192869999999999
57,0.2539929999999999,0.925624,-0.280534,-0.245234,-0.32542,0.241807
58,0.244027,0.929798,-0.275534,-0.313623,0.197888,0.40972
59,0.23826,0.931103,-0.276171,-0.011514,0.69588,0.285281
60,0.248976,0.930395,-0.269012,0.143313,0.542032,0.102585
61,0.2696449999999999,0.930834,-0.246639,0.177972,-0.399157,0.1148339999999999
62,0.288043,0.929023,-0.232246,0.152204,-0.300437,0.209755
63,0.301513,0.926571,-0.224827,0.073411,-0.269054,0.19254
64,0.313029,0.924982,-0.215436,-0.077052,0.016257,0.157727
65,0.318686,0.925612,-0.204139,-0.057394,0.215883,0.061942
66,0.319565,0.928576,-0.188719,-0.0642549999999999,0.221311,0.002485
67,0.32186,0.931142,-0.171382,0.089608,0.106349,0.059245
68,0.3254559999999999,0.932334,-0.157547,0.0576159999999999,-0.033118,0.137115
69,0.3270349999999999,0.933423,-0.147507,-0.019571,-0.0706,0.1648109999999999
70,0.32391,0.935926,-0.138259,-0.142544,-0.036557,0.195662
71,0.318485,0.939668,-0.1248259999999999,-0.099659,0.056624,0.108789
72,0.315422,0.94246,-0.110764,-0.059196,0.057708,0.0540929999999999
73,0.318509,0.942649,-0.099775,0.09183,-0.1299809999999999,0.125166
74,0.3220929999999999,0.942416,-0.089987,0.084432,-0.041598,0.019156
75,0.324008,0.942686,-0.079691,0.082517,-0.041868,0.00886
76,0.320376,0.94523,-0.062359,0.085707,0.279517,-0.039005
77,0.314996,0.948052,-0.044312,0.069312,0.278206,-0.094665
78,0.309009,0.950653,-0.027567,0.092435,0.180634,-0.18714
79,0.300052,0.953814,-0.013963,0.163571,0.1262339999999999,-0.184646
80,0.28966,0.957117,-0.00318,0.168897,0.070699,-0.19108
81,0.281421,0.959556,0.006489,-0.038028,0.019448,-0.195607
82,0.27149,0.96233,0.014207,-0.044195,0.087536,0.271179
83,0.2565159999999999,0.966422,0.014621,0.031066,0.345238,0.240155
84,0.241309,0.97039,0.009995,-0.039695,0.320061,0.04483
85,0.233535,0.97234,0.001534,-0.099135,0.262706,-0.105538
86,0.2296889999999999,0.973117,-0.0165039999999999,-0.212614,0.127621,-0.040961
87,0.227927,0.972634,-0.044935,-0.125861,0.034065,0.152341
88,0.2273639999999999,0.970597,-0.078949,-0.095712,0.137618,0.05864
89,0.23034,0.966701,-0.111445,0.006568,0.2084389999999999,-0.064169
90,0.235196,0.961861,-0.139624,0.00394,0.1940839999999999,-0.060266
91,0.238749,0.956369,-0.168364,0.0320639999999999,0.139014,0.002028
92,0.242494,0.949095,-0.201008,-0.101885,0.098955,-0.001674
93,0.243946,0.941205,-0.233696,-0.16167,0.073383,0.092521
94,0.245138,0.932644,-0.264711,-0.03594,0.0670809999999999,0.1093609999999999
95,0.248946,0.922893,-0.29374,-0.064971,-0.141842,0.198937
96,0.25134,0.913872,-0.318835,-0.078535,-0.246453,0.233767
97,0.2463429999999999,0.908078,-0.338674,-0.255178,-0.317486,0.246892
98,0.2380409999999999,0.904224,-0.35455,-0.311268,-0.259525,0.153867
99,0.232317,0.900574,-0.367405,-0.277559,-0.181382,0.1335329999999999
100,0.230798,0.896961,-0.3770739999999999,-0.184075,-0.1482119999999999,0.104109
101,0.232136,0.8944129999999999,-0.382268,-0.155904,-0.1633339999999999,0.038319
102,0.235142,0.894704,-0.379741,-0.133992,-0.169408,-0.0150949999999999
103,0.238046,0.8968799999999999,-0.372734,-0.05465,-0.168914,-0.074211
104,0.237431,0.899517,-0.366723,0.037838,-0.026135,-0.145392
105,0.231393,0.902953,-0.362111,0.0785889999999999,0.078019,-0.180293
106,0.22696,0.906511,-0.3559739999999999,0.194213,0.13571,-0.142683
107,0.22721,0.908991,-0.349432,0.12362,-0.04162,-0.205499
108,0.2306239999999999,0.910579,-0.343,0.045194,-0.156612,-0.205783
109,0.2327739999999999,0.910914,-0.34065,-0.191254,0.070409,-0.1146109999999999
110,0.230675,0.91023,-0.343892,-0.134667,0.084521,0.307133
111,0.234169,0.912839,-0.334486,-0.004311,0.171924,0.385084
112,0.244177,0.915773,-0.318947,-0.130178,-0.132494,0.284615
113,0.2553559999999999,0.91754,-0.3048,-0.182449,-0.125854,0.240438
114,0.260864,0.919457,-0.294177,0.003007,0.079124,0.257785
115,0.262584,0.921786,-0.28522,-0.012736,0.214063,0.118746
116,0.2631489999999999,0.925277,-0.2731409999999999,-0.135433,0.035386,0.071663
117,0.269704,0.927079,-0.260336,-0.137014,-0.040741,0.035711
118,0.280326,0.926981,-0.249227,-0.02088,0.038412,-0.026575
119,0.290805,0.927359,-0.23543,0.184475,0.117288,-0.021177
120,0.3004489999999999,0.928547,-0.217991,0.1513789999999999,0.03825,0.03159
121,0.308189,0.930084,-0.199883,-0.033683,-0.203537,0.143959
122,0.314722,0.931547,-0.182101,-0.102563,-0.271802,0.159991
123,0.319443,0.93377,-0.161303,-0.1111,-0.25773,0.066897
124,0.324917,0.935464,-0.139017,-0.031612,-0.093621,0.082269
125,0.330949,0.936187,-0.1183839999999999,-0.040437,-0.0417779999999999,0.044195
126,0.336576,0.936166,-0.101482,-0.023206,-0.056726,0.0507009999999999
127,0.340598,0.936098,-0.087755,-0.063621,-0.11719,0.101076
128,0.344157,0.935738,-0.077067,-0.039469,-0.13282,0.072306
129,0.346828,0.935653,-0.065213,-0.050273,-0.124526,0.056836
130,0.346381,0.936533,-0.053979,-0.002311,0.010733,0.023202
131,0.342854,0.93819,-0.047314,0.069301,0.235364,-0.017307
132,0.3396349999999999,0.939552,-0.043335,0.182399,0.4111109999999999,0.026825
133,0.340009,0.939534,-0.040694,0.200808,0.504191,-0.183915
134,0.340375,0.939616,-0.035396,0.181033,0.348958,-0.334187
135,0.333855,0.942243,-0.0265439999999999,0.14672,0.265734,-0.225287
136,0.319419,0.947496,-0.014424,-0.008933,0.15135,-0.053432
137,0.298587,0.954374,-0.001436,0.020093,0.401232,0.260836
138,0.275527,0.961259,0.007213,0.035462,0.437454,0.230351
139,0.258246,0.96602,0.0100299999999999,0.082849,0.2283929999999999,-0.165853
140,0.2513039999999999,0.967897,0.002935,0.066964,0.121169,-0.1527609999999999
141,0.251294,0.967796,-0.014416,-0.04028,-0.006813,-0.090991
142,0.257187,0.965357,-0.04388,-0.015061,-0.0313209999999999,-0.037206
143,0.268396,0.959765,-0.082474,-0.01658,0.036253,-0.0278779999999999
144,0.281757,0.952057,-0.119112,0.062817,0.309799,-0.141966
145,0.289455,0.944935,-0.152644,0.028386,0.28561,-0.130437
146,0.283469,0.94101,-0.18475,-0.095862,0.029769,0.0940059999999999
147,0.275907,0.937159,-0.213533,-0.150389,-0.061014,0.095598
148,0.278672,0.92924,-0.242577,-0.21164,0.011221,-0.002677
149,0.285635,0.918749,-0.272582,-0.2466949999999999,0.0368779999999999,0.0453029999999999
150,0.287445,0.909844,-0.299246,-0.17656,-0.042169,0.25115
151,0.287439,0.902549,-0.320584,-0.135798,-0.247001,0.258648
152,0.2912119999999999,0.8953959999999999,-0.336825,-0.179197,-0.266872,0.201434
153,0.294211,0.8885799999999999,-0.351932,-0.194739,-0.229263,0.195697
154,0.295421,0.8835379999999999,-0.363423,-0.233348,-0.1365589999999999,0.2134449999999999
155,0.297815,0.880293,-0.369298,-0.270715,-0.2386,0.2005819999999999
156,0.302457,0.877617,-0.371886,-0.230283,-0.316978,0.175825
157,0.307705,0.8750530000000001,-0.373618,-0.168881,-0.369376,0.098822
158,0.311455,0.874192,-0.372523,-0.183357,-0.293367,0.03506
159,0.312111,0.876239,-0.367128,-0.153099,-0.159671,-0.055175
160,0.308376,0.880624,-0.359717,-0.072307,-0.057549,-0.144708
161,0.301471,0.8873110000000001,-0.3489739999999999,0.050137,0.04616,-0.237085
162,0.295768,0.8946440000000001,-0.334847,0.129724,0.084024,-0.251854
163,0.293923,0.898344,-0.326461,0.230003,0.249315,-0.492799
164,0.29809,0.899565,-0.319242,0.223135,0.2359639999999999,-0.409258
165,0.297674,0.90271,-0.310633,0.146311,0.210311,-0.333211
166,0.286128,0.909413,-0.301807,-0.028636,0.068691,0.2192719999999999
167,0.277957,0.91968,-0.277342,-0.145815,-0.057116,0.2611219999999999
168,0.280967,0.927991,-0.244701,-0.264655,-0.047879,0.3119929999999999
169,0.286184,0.932073,-0.222099,-0.592428,-0.015324,0.3266219999999999
170,0.2933139999999999,0.933016,-0.208415,-0.238535,-0.015535,0.30511
171,0.303501,0.93305,-0.193113,-0.079335,0.005121,0.219464
172,0.310588,0.934353,-0.174663,0.043325,-0.00343,0.030971
173,0.314206,0.935918,-0.159119,-0.02284,-0.025976,0.0388639999999999
174,0.319345,0.93607,-0.1475769999999999,-0.068384,0.06808,0.0393149999999999
175,0.327347,0.935085,-0.135823,0.046508,0.151417,-0.050304
176,0.3356719999999999,0.934402,-0.119181,0.149359,0.064072,-0.078024
177,0.340705,0.934928,-0.099084,0.017144,-0.272223,0.041177
178,0.342905,0.936041,-0.078936,-0.013849,-0.333685,0.085863
179,0.33984,0.938368,-0.062942,0.050861,-0.226911,-0.020065
180,0.33202,0.941852,-0.051605,0.077144,-0.030323,-0.070572
181,0.323636,0.945331,-0.039947,0.006137,0.042386,-0.012025
182,0.320903,0.946673,-0.028598,-0.15977,-0.054018,-0.004483
183,0.327596,0.944634,-0.018285,-0.068852,-0.29139,0.003942
184,0.336231,0.941745,-0.007141,-0.027851,-0.4624359999999999,0.02449
185,0.338901,0.940809,0.003367,-0.1307859999999999,-0.439497,-0.05984
186,0.3347239999999999,0.942197,0.014513,-0.1175,-0.273908,-0.033342
187,0.327233,0.944545,0.0271889999999999,-0.072045,-0.144511,-0.075621
188,0.322993,0.945462,0.041992,-0.078959,-0.182828,-0.152008
189,0.320292,0.945577,0.0572919999999999,-0.05424,-0.159948,-0.122477
190,0.314327,0.9468,0.068957,-0.027507,-0.024742,-0.096697
191,0.305272,0.948934,0.079499,-0.0666399999999999,0.107325,-0.0599059999999999
192,0.29363,0.951655,0.09011,-0.0750639999999999,0.151311,-0.09011
193,0.281639,0.954169,0.101127,0.093956,0.224725,-0.10807
194,0.27563,0.955054,0.109021,0.485509,0.168939,-0.238705
195,0.273544,0.955204,0.112891,0.363694,0.183071,-0.296836
196,0.273498,0.954977,0.114905,0.077515,0.340891,-0.251807
197,0.277489,0.953726,0.115727,0.129753,0.306436,0.038768
198,0.283982,0.952133,0.1130569999999999,0.136061,0.145294,0.065334
199,0.2924739999999999,0.950478,0.1050519999999999,-0.014062,-0.010796,0.131765
200,0.301927,0.948919,0.091535,-0.238451,0.030574,0.292009
201,0.308483,0.94882,0.067559,-0.320629,0.1600359999999999,0.308661
202,0.313538,0.948938,0.034581,-0.580017,0.5320189999999999,0.138271
203,0.324358,0.945926,-0.001422,-0.509737,0.668194,0.091433
204,0.338702,0.940529,-0.025961,-0.389972,0.660179,0.091895
205,0.345841,0.93733,-0.042354,-0.175202,0.24161,0.054546
206,0.346976,0.936048,-0.058391,-0.199317,0.1630579999999999,0.0257529999999999
207,0.347614,0.934577,-0.075619,-0.202594,0.106179,0.086789
208,0.347672,0.932898,-0.0938809999999999,-0.106675,-0.021674,-0.001303
209,0.347905,0.930868,-0.111518,-0.107167,-0.02976,-0.001168
210,0.351254,0.927701,-0.126412,-0.1224329999999999,-0.0736049999999999,-0.016701
211,0.355987,0.92457,-0.135764,-0.160201,-0.302698,0.047401
212,0.359584,0.922761,-0.138562,-0.249767,-0.45778,0.043424
213,0.3574989999999999,0.923622,-0.138225,-0.27379,-0.486351,-0.0144699999999999
214,0.348193,0.927091,-0.138758,-0.32352,-0.410199,-0.027014
215,0.338616,0.930151,-0.141947,-0.339501,-0.269063,-0.054586
216,0.333808,0.931421,-0.144973,-0.2365179999999999,-0.245569,-0.0887309999999999
217,0.332179,0.931745,-0.146623,-0.160915,-0.227842,-0.214232
218,0.331846,0.931558,-0.148551,-0.059965,-0.2125639999999999,-0.297983
219,0.332424,0.931107,-0.15008,-0.025158,-0.1512,-0.36202
220,0.333804,0.930423,-0.151253,-0.035999,0.047848,-0.327965
221,0.336719,0.929162,-0.1525369999999999,0.023511,0.272986,-0.321035
222,0.341244,0.927498,-0.152608,0.071675,0.329261,-0.325495
223,0.347894,0.925397,-0.150335,-0.051507,0.468814,-0.440729
224,0.356517,0.922232,-0.149575,-0.30624,0.686059,-0.315741
225,0.3623699999999999,0.919864,-0.150094,-0.290699,0.4539609999999999,-0.2589329999999999
226,0.360925,0.921639,-0.142493,-0.4831029999999999,-0.031166,0.041602
227,0.3583929999999999,0.922971,-0.140243,-0.522882,0.11571,0.260177
228,0.354224,0.924279,-0.142208,-0.372382,0.236869,0.332363
229,0.349933,0.927115,-0.134139,-0.314426,0.098367,0.228713
230,0.351944,0.928187,-0.120806,-0.074295,-0.175822,0.231539
231,0.358931,0.926862,-0.1099339999999999,-0.025389,-0.1249059999999999,0.204172
232,0.365277,0.925722,-0.0979889999999999,-0.01347,0.0921309999999999,0.178967
233,0.367956,0.92641,-0.079759,-0.2570699999999999,0.148526,0.020296
234,0.37353,0.925693,-0.0596429999999999,-0.2601719999999999,0.097745,0.0307889999999999
235,0.384932,0.92191,-0.043561,-0.219847,-0.080388,0.154416
236,0.396124,0.917806,-0.026572,-0.188895,-0.138738,0.0837929999999999
237,0.401603,0.915803,-0.002555,-0.164878,-0.140077,0.022728
238,0.402014,0.915361,0.022057,-0.0305079999999999,-0.048219,-0.059777
239,0.399559,0.915731,0.042137,0.104393,-0.160314,-0.158821
240,0.395239,0.91643,0.062692,0.110438,-0.200289,-0.1420529999999999
241,0.388879,0.917853,0.079416,0.1119599999999999,-0.27828,-0.135812
242,0.38118,0.919349,0.097394,0.104538,-0.067039,-0.169125
243,0.374318,0.920221,0.114309,0.109066,0.048789,-0.201498
244,0.367338,0.921671,0.124788,0.018556,0.11373,-0.24843
245,0.359556,0.92372,0.1320869999999999,-0.0082069999999999,0.076554,-0.26818
246,0.3502659999999999,0.92632,0.138671,0.037215,0.1076299999999999,-0.232589
247,0.340915,0.928691,0.1459339999999999,-0.091083,0.039144,-0.274978
248,0.3331719999999999,0.930322,0.153239,-0.054928,0.046423,-0.227351
249,0.325792,0.93198,0.1589279999999999,0.048368,0.032192,-0.1885599999999999
250,0.318909,0.933821,0.162055,0.0980679999999999,0.0512559999999999,-0.1866519999999999
251,0.314975,0.934489,0.165851,-0.0611149999999999,0.212773,-0.213504
252,0.316529,0.933815,0.166688,-0.068864,0.237923,0.159575
253,0.321917,0.932719,0.162456,0.015241,-0.006983,0.255558
254,0.328309,0.932731,0.149037,-0.1801309999999999,0.082466,0.277537
255,0.339877,0.932537,0.121838,-0.358432,0.608905,0.186084
256,0.35046,0.933089,0.080687,-0.550991,0.89612,0.162416
257,0.351472,0.934761,0.051732,-0.574525,0.855675,0.049891
258,0.346105,0.937642,0.03204,-0.197469,0.368419,-0.088207
259,0.337577,0.941231,0.01065,0.008401,0.19712,0.04622
260,0.329413,0.944115,-0.011043,-0.095587,0.242088,0.001536
261,0.325183,0.94519,-0.029332,-0.245577,0.102585,0.056767
262,0.32428,0.944936,-0.0438949999999999,-0.1147609999999999,0.088176,-0.086812
263,0.323114,0.944503,-0.059159,-0.056406,-0.097106,-0.043411
264,0.322101,0.943888,-0.072899,-0.0294529999999999,-0.373179,0.04316
265,0.323411,0.943041,-0.077885,-0.090684,-0.521502,0.042713
266,0.323385,0.943368,-0.073931,-0.090658,-0.521829,0.03876
267,0.317779,0.945631,-0.069177,-0.241089,-0.668791,-0.214163
268,0.308159,0.948675,-0.070999,-0.2093429999999999,-0.453161,-0.2433929999999999
269,0.3017309999999999,0.950166,-0.078301,-0.074436,-0.330644,-0.268852
270,0.3008639999999999,0.94943,-0.089732,-0.014793,-0.297696,-0.298467
271,0.304929,0.946918,-0.10175,0.059115,-0.1072569999999999,-0.477199
272,0.310976,0.943977,-0.110409,0.150297,0.0572289999999999,-0.643192
273,0.316289,0.941233,-0.118447,0.182613,-0.022944,-0.612693
274,0.322394,0.938453,-0.123915,0.14309,-0.101158,-0.286852
275,0.330851,0.935543,-0.123629,-0.227061,0.1945069999999999,0.077548
276,0.33664,0.933071,-0.126645,-0.402864,0.579303,0.278302
277,0.33157,0.932798,-0.141201,-0.721493,1.829699,0.4816399999999999
278,0.3156239999999999,0.939837,-0.130678,-0.367214,-0.4502739999999999,0.121583
279,0.301325,0.945099,-0.126412,-0.224818,-0.604492,0.39486
280,0.305109,0.942064,-0.1393329999999999,0.158469,-0.278047,0.320607
281,0.31731,0.93797,-0.139699,0.573345,0.7260310000000001,-0.05456
282,0.320302,0.939361,-0.1224619999999999,0.427059,0.922364,-0.1318869999999999
283,0.31459,0.944259,-0.09694,-0.1809079999999999,0.486985,-0.082992
284,0.316757,0.944849,-0.0831549999999999,-0.052201,-0.0774929999999999,0.099848
285,0.327806,0.942268,-0.068284,-0.125627,-0.265251,0.104768
286,0.337769,0.940034,-0.047293,-0.180817,-0.340684,0.095144
287,0.339519,0.940116,-0.029937,-0.1214259999999999,0.015999,0.151596
288,0.334271,0.942192,-0.0229419999999999,-0.116177,0.013924,0.1446
289,0.332921,0.942803,-0.016582,-0.12293,0.231483,0.0648909999999999
290,0.339008,0.940708,-0.011498,-0.0618159999999999,-0.4658239999999999,-0.091575
291,0.348142,0.937412,-0.006798,-0.012509,-0.6049680000000001,-0.2055739999999999
292,0.353193,0.935533,-0.004691,0.226382,-0.629594,-0.342248
293,0.351898,0.936027,-0.003193,0.369324,-0.17263,-0.286434
294,0.351528,0.936167,0.003009,0.314121,0.0029809999999999,-0.3081239999999999
295,0.350955,0.936319,0.01123,0.1210609999999999,0.316275,-0.283813
296,0.342993,0.939103,0.020723,0.07522,0.654036,-0.377794
297,0.32743,0.944367,0.030805,0.146173,0.6033470000000001,-0.349973
298,0.309534,0.950115,0.0381769999999999,0.13883,0.374882,-0.210602
299,0.288534,0.956425,0.044583,-0.062201,0.397701,-0.02641
300,0.266073,0.962562,0.051644,-0.080847,0.341927,0.29856
301,0.246854,0.967755,0.0500139999999999,0.113177,0.414722,0.4878119999999999
302,0.239458,0.970444,0.029795,0.062407,0.194687,-0.0299019999999999
303,0.241098,0.970422,0.01189,-0.2107639999999999,0.15087,-0.113727
304,0.249608,0.968208,-0.016124,-0.062153,-0.034873,-0.218144
305,0.260192,0.964413,-0.046888,-0.0722039999999999,-0.006954,-0.110094
306,0.268838,0.959849,-0.080037,0.013267,0.160314,-0.129634
307,0.278567,0.954017,-0.110647,0.120526,0.381524,0.01763
308,0.286417,0.948371,-0.136195,-0.033411,0.0679559999999999,-0.015859
309,0.286756,0.944281,-0.161541,-0.084119,-0.0275639999999999,0.017955
310,0.285537,0.939424,-0.189584,-0.263824,0.080794,0.126855
311,0.288985,0.931673,-0.2201469999999999,-0.316085,0.176741,0.076271
312,0.295078,0.922243,-0.249778,-0.3165929999999999,0.1594529999999999,0.121314
313,0.29969,0.914089,-0.2731659999999999,-0.32389,-0.045116,0.2568539999999999
314,0.300754,0.90891,-0.288828,-0.213641,-0.215795,0.312677
315,0.300993,0.905648,-0.298658,-0.16612,-0.276726,0.25015
316,0.30019,0.904089,-0.304139,-0.145619,-0.220236,0.002107
317,0.298491,0.903384,-0.307884,-0.2150099999999999,-0.1934529999999999,-0.032616
318,0.295261,0.903925,-0.309406,-0.176136,-0.203867,-0.024624
319,0.289145,0.908074,-0.302966,0.021997,-0.180977,0.066119
320,0.281055,0.915928,-0.286487,-0.069813,-0.094425,-0.222378
321,0.266516,0.925511,-0.269053,-0.08187,-0.170231,-0.259465
322,0.254039,0.933262,-0.253923,0.121128,-0.062641,-0.325346
323,0.251236,0.936678,-0.2439349999999999,0.210923,0.037153,-0.4869
324,0.256821,0.934694,-0.245721,0.159149,-0.335405,-0.540824
325,0.258526,0.935549,-0.240628,0.144077,-0.564059,-0.280063
326,0.247883,0.942337,-0.2248219999999999,0.186428,-0.268631,0.25682
327,0.2291389999999999,0.949688,-0.21349,-0.075803,0.578205,0.592183
328,0.2079929999999999,0.954992,-0.211466,-0.461762,1.099268,0.640452
329,0.210734,0.958128,-0.19383,-0.657512,0.126619,-0.126192
330,0.232313,0.958383,-0.165895,0.056322,-0.537271,-0.118544
331,0.249754,0.956676,-0.149609,0.201616,-0.3165239999999999,0.089627
332,0.258915,0.95552,-0.1411869999999999,0.146679,-0.030212,0.1366099999999999
333,0.263787,0.955171,-0.134368,0.046912,0.0850669999999999,0.119903
334,0.258975,0.958501,-0.119155,-0.058596,0.128688,0.032531
335,0.255725,0.961875,-0.096903,0.039746,-0.059775,-0.086004
336,0.261113,0.961939,-0.080507,0.112391,-0.096842,-0.095885
337,0.2687469999999999,0.960795,-0.068088,0.127356,-0.209666,-0.059552
338,0.270662,0.961035,-0.056046,-0.020021,-0.218817,0.087891
339,0.264042,0.963488,-0.0442899999999999,-0.046604,-0.1892869999999999,0.105142
340,0.25417,0.96666,-0.0308839999999999,-0.014043,-0.045777,0.112305
341,0.249263,0.968267,-0.0177669999999999,5e-05,-0.192693,0.083151
342,0.251444,0.967824,-0.008953,-0.025416,-0.215078,0.106121
343,0.2554619999999999,0.966813,-0.000552,0.050569,-0.172028,-0.036817
344,0.257711,0.966177,0.008642,0.077769,-0.122045,-0.043112
345,0.257682,0.966075,0.016918,0.113549,0.023762,-0.078945
346,0.255524,0.966453,0.025776,0.25328,0.235757,-0.138981
347,0.253537,0.966601,0.037271,0.260181,0.20065,-0.265741
348,0.251733,0.966525,0.049468,0.243354,0.2167329999999999,-0.301528
349,0.246313,0.967432,0.058247,0.27183,0.377157,-0.177144
350,0.235879,0.969529,0.066054,0.200446,0.463546,-0.2225329999999999
351,0.22115,0.972476,0.073292,-0.000767,0.394361,-0.152348
352,0.204243,0.975971,0.07585,0.124661,0.299588,0.105378
353,0.188694,0.979117,0.075576,0.064572,0.25039,-0.034133
354,0.1761589999999999,0.981738,0.071738,0.04073,0.220609,-0.121894
355,0.166472,0.984324,0.058138,0.034196,0.0441029999999999,-0.0008869999999999
356,0.16216,0.985827,0.042858,0.047236,-0.129748,-0.0218009999999999
357,0.163786,0.986167,0.025216,-0.026167,-0.178611,0.047141
358,0.170622,0.985329,0.001413,0.0343339999999999,0.144798,-0.15632
359,0.179219,0.983449,-0.0263899999999999,0.12733,0.472514,-0.123802
360,0.18782,0.980461,-0.058377,0.088288,0.300911,-0.026691
361,0.192776,0.977515,-0.085383,-0.19096,-0.056205,0.052012
362,0.192397,0.976051,-0.101472,-0.272338,-0.2121199999999999,0.108613
363,0.193116,0.974202,-0.116725,-0.175309,-0.055776,0.039668
364,0.198996,0.969383,-0.143826,-0.157278,-0.035774,0.093564
365,0.2091829999999999,0.962848,-0.17075,-0.156739,-0.105304,-0.010067
366,0.214582,0.956958,-0.195382,-0.138395,-0.184177,0.023263
367,0.2164559999999999,0.952371,-0.214769,-0.064554,-0.167551,0.056886
368,0.21959,0.947895,-0.230792,0.038314,-0.033268,-0.022168
369,0.227826,0.941824,-0.2470889999999999,-0.0305149999999999,0.092875,-0.0454829999999999
370,0.2406829999999999,0.934668,-0.261642,-0.009146,-0.1074589999999999,0.110534
371,0.249796,0.929339,-0.271884,-0.112483,-0.065508,0.088626
372,0.251686,0.927942,-0.274896,-0.14814,-0.040079,-0.071097
373,0.249578,0.929561,-0.271326,-0.06777,-0.178416,-0.182577
374,0.243717,0.933024,-0.264684,0.10313,-0.071879,-0.376567
375,0.2371239999999999,0.936192,-0.2594329999999999,0.2414219999999999,-0.187611,-0.340451
376,0.232787,0.940159,-0.248797,0.184617,-0.401387,-0.2311369999999999
377,0.225578,0.94653,-0.230618,0.040917,-0.187604,-0.332951
378,0.2095929999999999,0.953433,-0.216855,0.017015,-0.262911,-0.075305
379,0.197351,0.959794,-0.199591,-0.031961,-0.163102,0.2979949999999999
380,0.193232,0.962303,-0.191371,0.025243,0.464516,0.383494
381,0.191793,0.964942,-0.179139,-0.0563559999999999,0.3549739999999999,0.271623
382,0.201322,0.966007,-0.162133,-0.116315,-0.080586,0.065545
383,0.221771,0.963855,-0.147609,0.197663,-0.216953,0.059062
384,0.235671,0.962448,-0.134683,0.230134,-0.201599,0.059747
385,0.2432909999999999,0.961954,-0.1242619999999999,0.251232,-0.108316,0.063593
386,0.246857,0.962318,-0.113988,0.070084,-0.0014869999999999,-0.029521
387,0.247461,0.963838,-0.098827,0.01496,0.001937,-0.07642
388,0.2505719999999999,0.964894,-0.078611,0.016701,-0.112248,-0.101306
389,0.258175,0.964256,-0.0595179999999999,0.071492,-0.20388,-0.041357
390,0.263241,0.963576,-0.047033,0.064717,-0.302672,0.10967
391,0.260915,0.964633,-0.0373379999999999,0.030254,-0.159396,0.103332
392,0.2536719999999999,0.967003,-0.023264,-0.020228,0.000434,0.023737
393,0.2480909999999999,0.968703,-0.007142,-0.024779,0.024873,-0.021117
394,0.2496519999999999,0.968315,0.0050609999999999,0.071836,-0.086128,0.018483
395,0.254382,0.966989,0.014407,0.092282,-0.129815,0.0082069999999999
396,0.254999,0.966659,0.023047,0.110525,-0.089035,-0.024894
397,0.249506,0.967863,0.031208,0.260794,0.254351,-0.114597
398,0.241825,0.969486,0.040024,0.3658099999999999,0.269054,-0.181366
399,0.235855,0.970387,0.0520259999999999,0.394348,0.152767,-0.160119
400,0.230393,0.970953,0.064456,0.36264,0.0536899999999999,-0.129321
401,0.223704,0.971902,0.0731179999999999,0.2089739999999999,0.2554079999999999,-0.163251
402,0.214614,0.97349,0.0790049999999999,0.063065,0.426641,-0.158045
403,0.204929,0.975356,0.081665,-0.133548,0.353517,-0.015488
404,0.191157,0.978062,0.082692,-0.099711,0.2701989999999999,0.336924
405,0.169904,0.98228,0.079011,-0.171003,0.2275739999999999,0.22145
406,0.148654,0.986449,0.069314,-0.107958,0.049836,-0.0964899999999999
407,0.1429369999999999,0.988357,0.051994,0.187095,0.101487,-0.116966
408,0.146629,0.988748,0.0293569999999999,0.0983049999999999,0.10462,0.071397
409,0.155709,0.987787,0.0041649999999999,0.014884,0.091864,0.104004
410,0.164166,0.986224,-0.019948,-0.208203,0.17999,0.122579
411,0.166957,0.985186,-0.038986,-0.3355059999999999,0.128477,-0.0301519999999999
412,0.165951,0.9844,-0.058345,-0.199352,0.215506,-0.094685
413,0.166426,0.982218,-0.086819,-0.088255,0.290335,-0.02631
414,0.175782,0.976728,-0.122847,-0.046265,0.024798,0.0605
415,0.190942,0.969339,-0.15463,-0.143594,-0.193918,-0.036456
416,0.203959,0.962565,-0.178488,-0.051783,-0.297205,0.093375
417,0.214716,0.956881,-0.195613,0.009604,-0.2474849999999999,0.114665
418,0.2289119999999999,0.949025,-0.216659,0.058747,-0.123661,0.083038
419,0.244834,0.938885,-0.241954,-0.153159,-0.065136,0.1159309999999999
420,0.250917,0.929261,-0.271119,-0.202745,0.0074909999999999,0.185639
421,0.247577,0.919459,-0.305437,-0.221072,0.164556,0.191179
422,0.2393739999999999,0.911677,-0.333971,-0.017969,-0.267207,0.099627
423,0.2359389999999999,0.908958,-0.343685,-0.019783,-0.372901,0.049846
424,0.242508,0.909043,-0.338853,-0.0514679999999999,-0.363038,-0.199767
425,0.250123,0.90981,-0.3311739999999999,-0.122345,-0.183964,-0.331393
426,0.2495889999999999,0.913555,-0.321113,-0.012177,-0.156628,-0.264748
427,0.240344,0.919009,-0.312488,0.197675,-0.0927149999999999,-0.246991
428,0.231175,0.921957,-0.310716,0.134823,-0.062765,-0.3936449999999999
429,0.2300219999999999,0.922315,-0.310509,0.131092,-0.14195,-0.386742
430,0.231313,0.924517,-0.302908,0.173472,-0.279558,-0.326242
431,0.222189,0.930228,-0.292058,0.050562,0.0803,0.264378
432,0.200422,0.937775,-0.283546,-0.1766039999999999,0.7588189999999999,0.466117
433,0.183839,0.944215,-0.273221,-0.435198,-0.096773,-0.086627
434,0.192321,0.949662,-0.2472739999999999,-0.093413,-0.408356,-0.052591
435,0.208319,0.952321,-0.222882,0.045114,-0.414052,0.0763669999999999
436,0.21875,0.953082,-0.2092159999999999,0.252823,-0.246478,0.159212
437,0.225754,0.95405,-0.197011,0.115631,-0.0070129999999999,0.090047
438,0.2260739999999999,0.957016,-0.181654,0.0773929999999999,0.0962669999999999,0.093779
439,0.222273,0.961845,-0.159488,-0.056227,-0.044944,-0.029111
440,0.227892,0.964082,-0.136376,0.022871,-0.1542369999999999,-0.0449139999999999
441,0.242207,0.962871,-0.119173,0.070873,-0.158397,-0.038329
442,0.258377,0.96031,-0.1050339999999999,0.132583,-0.260451,0.042366
443,0.266063,0.959832,-0.088999,0.0112959999999999,-0.2406239999999999,0.083857
444,0.25979,0.963129,-0.069844,-0.0154349999999999,-0.206781,0.043629
445,0.2463179999999999,0.967857,-0.050667,-0.089443,-0.049934,0.051613
446,0.236873,0.970761,-0.038735,-0.127238,-0.09332,0.018868
447,0.236884,0.971025,-0.031359,-0.103445,-0.161576,-0.008848
448,0.2433929999999999,0.969688,-0.021234,0.094818,-0.147422,0.0034579999999999
449,0.246405,0.969111,-0.009692,0.166894,-0.0005139999999999,-0.014356
450,0.245913,0.969281,0.002407,0.19,0.055865,-0.038005
451,0.2442619999999999,0.96957,0.015993,0.176744,0.10439,-0.098939
452,0.239861,0.970378,0.028588,0.152473,0.149617,-0.116189
453,0.231935,0.971998,0.037556,0.157042,0.186281,-0.10793
454,0.2241449999999999,0.973509,0.044981,0.190298,0.321855,-0.235319
455,0.216046,0.97494,0.052919,0.191943,0.410467,-0.28763
456,0.206546,0.976684,0.058395,0.197293,0.328278,-0.141968
457,0.19422,0.979251,0.057697,0.107492,0.300656,-0.062976
458,0.179116,0.982476,0.0513879999999999,0.102835,0.352057,0.200245
459,0.166265,0.985231,0.040736,0.0277199999999999,0.3834059999999999,0.0408069999999999
460,0.159331,0.986929,0.023815,-0.088805,0.219293,-0.014385
461,0.157277,0.987544,0.001959,-0.097478,0.063618,0.021677
462,0.158726,0.987008,-0.024621,-0.0821419999999999,-0.05645,-0.003425
463,0.161853,0.984858,-0.061999,-0.077335,-0.062952,0.082476
464,0.167925,0.980627,-0.100783,-0.026918,0.124216,0.043685
465,0.176965,0.974944,-0.134734,-0.002237,0.113679,0.019499
466,0.184791,0.969491,-0.161015,0.1123589999999999,0.0351779999999999,-0.016262
467,0.191727,0.963675,-0.185898,0.103576,-0.018011,-0.059677
468,0.200221,0.95556,-0.2163429999999999,-0.076609,-0.001138,-0.009655
469,0.2102989999999999,0.945833,-0.24731,-0.2127409999999999,-0.148927,0.049907
470,0.218875,0.937819,-0.269401,-0.1228819999999999,-0.146361,0.144706
471,0.2291389999999999,0.930563,-0.285545,-0.094725,-0.146689,0.131858
472,0.241876,0.922591,-0.300516,-0.109232,-0.18492,0.0622799999999999
473,0.252873,0.915031,-0.314266,-0.036183,-0.174399,-0.012714
474,0.263732,0.90797,-0.325615,-0.0596299999999999,-0.1144369999999999,-0.015923
475,0.2731,0.902377,-0.333347,-0.124144,-0.033664,-0.0164759999999999
476,0.282356,0.898224,-0.336835,-0.0557169999999999,-0.090088,-0.08707
477,0.287971,0.8968010000000001,-0.335872,-0.017006,-0.138943,-0.059911
478,0.290406,0.8986280000000001,-0.328817,0.052596,-0.121422,-0.159144
479,0.286707,0.903278,-0.319181,-0.00445,0.270352,-0.251834
480,0.278049,0.90864,-0.31153,0.0831269999999999,0.2777159999999999,-0.297356
481,0.271536,0.914332,-0.3004219999999999,0.2471409999999999,0.035176,-0.341546
482,0.264723,0.920438,-0.287585,0.062242,-0.494687,-0.315534
483,0.253212,0.928112,-0.272909,-0.024284,-0.5197109999999999,-0.183008
484,0.238598,0.93654,-0.256811,-0.128414,-0.254426,0.251013
485,0.226951,0.942197,-0.246466,-0.094963,0.757007,0.467688
486,0.2215,0.94545,-0.23885,-0.198322,0.266632,0.035771
487,0.227092,0.948121,-0.2224449999999999,-0.0393639999999999,-0.504869,0.062396
488,0.2398719999999999,0.949352,-0.202923,0.060924,-0.387783,0.12843
489,0.249252,0.948937,-0.1933359999999999,0.115632,-0.311104,0.149635
490,0.252499,0.949125,-0.18813,0.109729,0.005358,0.068776
491,0.252889,0.950534,-0.180328,0.1002909999999999,0.16084,0.060745
492,0.248976,0.953848,-0.167841,0.094591,0.14245,0.020838
493,0.25063,0.956318,-0.150418,0.060466,-0.025837,0.001248
494,0.260769,0.956172,-0.133115,0.087818,-0.136592,0.0223669999999999
495,0.273047,0.954466,-0.120104,0.054224,-0.180678,0.034594
496,0.280895,0.953523,-0.108982,-0.046169,-0.208451,0.11124
497,0.280551,0.955001,-0.096176,-0.014666,-0.151702,0.095322
498,0.2756639999999999,0.957926,-0.079818,0.009629,-0.101557,0.065398
499,0.272081,0.960322,-0.06114,-0.019639,-0.099436,0.07411
500,0.27203,0.961313,-0.04315,-0.053646,-0.1541529999999999,0.060957
501,0.273467,0.961417,-0.029629,-0.067061,-0.167731,0.0295529999999999
502,0.27399,0.961531,-0.019252,-0.010563,-0.149245,0.02412
503,0.272708,0.962048,-0.008789,0.091947,-0.064023,0.0336459999999999
504,0.26981,0.9629,0.002986,0.208767,0.024404,-0.072475
505,0.266157,0.96379,0.015877,0.209048,0.090424,-0.158318
506,0.2612739999999999,0.964859,0.02768,0.194826,0.206253,-0.180527
507,0.254901,0.96627,0.0364769999999999,0.258877,0.322746,-0.206048
508,0.248047,0.967708,0.044703,0.253052,0.4022409999999999,-0.366877
509,0.240453,0.969218,0.052761,0.226252,0.262884,-0.2425949999999999
510,0.233422,0.970627,0.058146,0.150062,0.224701,-0.111613
511,0.22729,0.971793,0.062777,0.059545,0.263055,0.19496
512,0.219026,0.973491,0.065777,-0.025514,0.193196,0.019154
513,0.209121,0.975831,0.063289,0.031281,0.1467119999999999,-0.035838
514,0.200871,0.97826,0.051411,0.101574,0.18298,-0.037342
515,0.194178,0.980408,0.032861,-0.267253,0.1613619999999999,-0.053949
516,0.190048,0.981725,0.0090879999999999,-0.256103,0.116664,-0.041971
517,0.186198,0.98228,-0.020986,-0.041163,0.147618,-0.0187169999999999
518,0.178888,0.982377,-0.054035,0.14437,0.17784,0.037326
519,0.17082,0.981699,-0.084109,0.188967,0.156714,0.019168
520,0.167696,0.9801,-0.106154,0.11859,0.160525,-0.077806
521,0.169826,0.976507,-0.132594,0.005803,0.273524,-0.045919
522,0.174363,0.970543,-0.166229,-0.050935,0.231514,0.056594
523,0.182064,0.963615,-0.195668,-0.077679,0.089714,0.016622
524,0.18961,0.957506,-0.217297,-0.087727,-0.086245,0.077724
525,0.1993859999999999,0.950908,-0.236661,-0.078002,-0.222163,0.1215789999999999
526,0.2048869999999999,0.944468,-0.256887,-0.096565,-0.322062,0.123037
527,0.2033319999999999,0.93913,-0.276912,-0.164666,-0.3099179999999999,0.1867329999999999
528,0.20273,0.933982,-0.294225,-0.203401,-0.283057,0.170537
529,0.20646,0.928454,-0.308766,-0.181863,-0.170688,0.035847
530,0.213588,0.923917,-0.317406,-0.130275,-0.2097909999999999,0.024086
531,0.225158,0.920949,-0.318034,-0.073378,-0.321721,-0.010655
532,0.2377969999999999,0.919986,-0.311556,-0.129993,-0.421817,-0.131025
533,0.247653,0.922659,-0.295564,-0.142596,-0.434225,-0.171218
534,0.253119,0.928386,-0.272066,-0.1113799999999999,-0.374751,-0.2159869999999999
535,0.25218,0.934835,-0.2499559999999999,0.169847,-0.119268,-0.257444
536,0.244402,0.941672,-0.231321,0.2761969999999999,-0.013678,-0.219043
537,0.2346079999999999,0.947657,-0.216549,0.43977,0.212179,-0.233021
538,0.225954,0.951178,-0.210222,-0.061296,-0.228155,-0.320585
539,0.226454,0.952581,-0.203211,-0.085097,-0.4456229999999999,-0.219976
540,0.23665,0.952675,-0.190771,-0.09865,-0.395638,-0.136393
541,0.238196,0.952663,-0.188898,-0.251486,0.4121899999999999,0.4142699999999999
542,0.235771,0.951433,-0.197926,-0.046882,0.66696,0.222599
543,0.241544,0.953198,-0.181814,0.1793539999999999,0.039264,0.09487
544,0.251361,0.95543,-0.154783,-0.253909,-0.377107,0.0855539999999999
545,0.256456,0.95714,-0.1345329999999999,-0.179994,-0.223421,0.2958639999999999
546,0.255413,0.958239,-0.1285609999999999,-0.099865,0.116651,0.314519
547,0.25189,0.959038,-0.129553,-0.127058,0.365471,-0.035563
548,0.2462929999999999,0.961423,-0.122442,-0.1182869999999999,0.066425,-0.055644
549,0.243851,0.963879,-0.107045,0.048263,-0.119031,0.09168
550,0.248756,0.964042,-0.093425,0.1786579999999999,-0.049491,0.017498
551,0.259625,0.962344,-0.0804629999999999,0.266162,0.039823,-0.054867
552,0.27133,0.960224,-0.065842,0.196107,-0.026966,-0.0594019999999999
553,0.278912,0.959048,-0.0492,0.031086,-0.195193,0.032735
554,0.281792,0.959038,-0.028697,-0.069878,-0.221001,-0.008504
555,0.278313,0.960448,-0.008153,-0.079125,-0.170882,0.018224
556,0.268798,0.963163,0.007086,-0.0706929999999999,-0.0893679999999999,0.035226
557,0.257092,0.966186,0.019329,-0.123043,-0.001372,-0.002208
558,0.2463219999999999,0.96868,0.031134,-0.123916,-0.026389,-0.025183
559,0.240988,0.969746,0.038747,0.117548,-0.249516,0.017345
560,0.239475,0.969866,0.044668,0.076916,-0.2449059999999999,-0.01296
561,0.2379929999999999,0.969868,0.051963,0.078398,-0.244907,-0.020255
562,0.235973,0.969859,0.060624,0.025425,-0.1374,-0.1019289999999999
563,0.23304,0.970022,0.0688049999999999,0.008217,-0.104315,-0.168475
564,0.228766,0.970676,0.0737429999999999,0.012491,-0.104969,-0.173413
565,0.222619,0.971808,0.077542,0.02291,-0.165671,-0.257916
566,0.214729,0.973105,0.083317,0.1249619999999999,-0.1940069999999999,-0.295688
567,0.2056619999999999,0.974341,0.091358,0.191082,-0.121313,-0.327931
568,0.1950319999999999,0.975641,0.100354,0.147696,0.072516,-0.269986
569,0.1842369999999999,0.976774,0.1093259999999999,0.2109199999999999,0.274065,-0.142514
570,0.177846,0.976943,0.118049,0.32786,0.245805,-0.2109599999999999
571,0.176804,0.976254,0.125107,0.368698,0.410053,-0.101761
572,0.182147,0.974765,0.128994,0.103559,0.405134,0.166721
573,0.191744,0.973221,0.12672,-0.010607,0.320358,0.224736
574,0.199027,0.972733,0.119003,-0.3689179999999999,0.154113,0.186798
575,0.2051489999999999,0.972996,0.105714,-0.662791,0.113445,0.12593
576,0.2157869999999999,0.973069,0.080972,-0.5309119999999999,0.102584,0.079321
577,0.224759,0.97331,0.046216,-0.241253,0.100406,0.169955
578,0.229871,0.973118,0.013603,0.039187,0.132107,0.070046
579,0.230376,0.973056,-0.008559,0.119844,0.190823,0.1029349999999999
580,0.226538,0.973646,-0.026061,-0.005652,0.201143,0.049468
581,0.223716,0.973641,-0.044281,-0.1107099999999999,0.148125,0.0185539999999999
582,0.225703,0.972187,-0.0624169999999999,-0.094493,0.152172,-0.007681
583,0.228656,0.970217,-0.079882,-0.142917,0.025098,-0.11714
584,0.230396,0.968142,-0.098007,-0.164829,-0.060412,-0.068879
585,0.2328059999999999,0.965539,-0.1162849999999999,-0.0789049999999999,-0.281579,-0.020494
586,0.2356329999999999,0.963056,-0.130332,-0.05236,-0.404844,0.0241009999999999
587,0.236445,0.961658,-0.138904,-0.057963,-0.4148439999999999,0.0191229999999999
588,0.2330429999999999,0.961706,-0.144222,-0.097636,-0.458547,-0.060398
589,0.225208,0.96322,-0.14654,-0.111775,-0.40687,-0.096868
590,0.218253,0.964585,-0.148078,-0.047202,-0.373429,-0.2262809999999999
591,0.21423,0.965189,-0.15001,-0.030667,-0.27984,-0.299133
592,0.211323,0.965292,-0.153428,-0.0226789999999999,-0.224081,-0.280456
593,0.208,0.965733,-0.155187,-0.015053,-0.148899,-0.249644
594,0.20278,0.966937,-0.154597,-0.077124,0.104719,-0.3231699999999999
595,0.198621,0.967691,-0.155278,-0.102918,0.179099,-0.293468
596,0.201079,0.966893,-0.157074,-0.030226,0.322658,-0.312454
597,0.212951,0.963842,-0.160146,-0.070266,0.311548,-0.425776
598,0.232134,0.959083,-0.162048,-0.246584,0.467964,-0.26593
599,0.249962,0.954582,-0.162109,-0.002297,0.1627279999999999,-0.192993
600,0.258155,0.953323,-0.156582,-0.366858,0.057923,0.414822
601,0.257763,0.951987,-0.165122,-0.251233,0.925683,0.482321
602,0.250513,0.952836,-0.171271,-0.167246,0.603591,0.112769
603,0.24548,0.957396,-0.15205,-0.146648,-0.028685,0.080609
604,0.251054,0.957203,-0.143947,-0.006868,-0.316303,0.221325
605,0.263101,0.953779,-0.145152,0.114844,-0.024779,0.146464
606,0.270447,0.953106,-0.135766,0.107498,-0.024106,0.137078
607,0.270662,0.955917,-0.113798,-0.1317,0.22551,0.090482
608,0.272404,0.957969,-0.0898679999999999,-0.134892,0.010201,0.1902559999999999
609,0.2832409999999999,0.955793,-0.078859,-0.126121,-0.1033299999999999,0.253954
610,0.297272,0.95235,-0.068137,-0.145417,-0.257602,0.139929
611,0.306709,0.950521,-0.049221,-0.088615,-0.110968,0.067882
612,0.308008,0.950781,-0.033627,-0.089914,-0.1112269999999999,0.0522889999999999
613,0.304404,0.95228,-0.0220229999999999,0.0662929999999999,0.013159,0.016454
614,0.303761,0.952699,-0.008793,0.102672,-0.204713,-0.006146
615,0.302546,0.953106,0.006173,0.103887,-0.2051199999999999,-0.021111
616,0.295747,0.955033,0.020709,0.162459,-0.126923,-0.113039
617,0.285355,0.957843,0.033054,0.1091,-0.089496,-0.2251159999999999
618,0.274416,0.960668,0.042369,0.120039,-0.092321,-0.234431
619,0.263604,0.963362,0.049289,0.0131139999999999,-0.019865,-0.373324
620,0.25326,0.965711,0.0569659999999999,0.006704,0.015781,-0.198827
621,0.243298,0.967768,0.0649179999999999,-0.009167,0.055624,-0.145927
622,0.233084,0.96986,0.0709019999999999,0.0495699999999999,0.126606,-0.078486
623,0.2262719999999999,0.971254,0.0738299999999999,0.189316,0.088255,-0.0608299999999999
624,0.2250989999999999,0.971551,0.073511,0.1168039999999999,0.207267,-0.048929
625,0.229378,0.97081,0.069992,0.152947,0.324265,0.2277219999999999
626,0.237146,0.96936,0.06394,-0.1628359999999999,0.321763,0.3881159999999999
627,0.248038,0.96774,0.044075,-0.396475,0.290256,0.307793
628,0.256475,0.966495,0.0096709999999999,-0.729071,0.487027,0.000323
629,0.260409,0.965114,-0.0270079999999999,-0.5223869999999999,0.515813,0.128372
630,0.2584079999999999,0.964642,-0.051753,-0.2756349999999999,0.420872,0.232386
631,0.251231,0.965276,-0.071498,0.383123,0.067225,0.0112719999999999
632,0.245729,0.96524,-0.088975,0.093413,0.26619,0.076539
633,0.242351,0.964403,-0.1057309999999999,0.005161,0.279096,0.028888
634,0.242736,0.962352,-0.1222549999999999,-0.201079,0.206289,0.002748
635,0.246207,0.959327,-0.138064,-0.212134,-0.038413,0.075457
636,0.249123,0.956441,-0.152136,-0.219933,-0.357473,0.0796419999999999
637,0.253139,0.95386,-0.161427,-0.162502,-0.5218079999999999,0.067036
638,0.259893,0.951591,-0.164067,-0.089437,-0.567298,0.037236
639,0.264943,0.950345,-0.163211,-0.033818,-0.49548,-0.074765
640,0.262761,0.951175,-0.161898,-0.091527,-0.4189479999999999,-0.151044
641,0.256287,0.953008,-0.161495,-0.045029,-0.356099,-0.2214239999999999
642,0.2526,0.953795,-0.162652,0.022226,-0.328246,-0.164618
643,0.254028,0.953076,-0.164634,0.005386,-0.3225369999999999,-0.384194
644,0.258825,0.951068,-0.168725,-0.04218,-0.176501,-0.388816
645,0.260759,0.948789,-0.178306,-0.0524149999999999,0.040149,-0.456993
646,0.2609059999999999,0.94702,-0.18727,0.03487,0.099642,-0.279649
647,0.266225,0.944045,-0.194656,0.077296,0.1648869999999999,-0.1241299999999999
648,0.28087,0.938882,-0.198999,-0.169984,0.403647,0.124429
649,0.299536,0.932737,-0.200669,-0.431037,0.832369,0.31067
650,0.3103349999999999,0.927822,-0.206948,-0.5605180000000001,1.060887,0.180092
651,0.304779,0.931177,-0.200019,-0.338348,-0.350107,0.175192
652,0.290355,0.93607,-0.198632,-0.022152,-0.20638,0.430246
653,0.288913,0.934524,-0.207806,0.240017,0.170091,0.175655
654,0.298405,0.932606,-0.202949,0.145259,0.364696,0.0470649999999999
655,0.305129,0.93431,-0.184253,-0.079314,0.515397,-0.006253
656,0.307512,0.937606,-0.162236,-0.040162,0.127564,0.169697
657,0.316735,0.936875,-0.148097,-0.051812,0.000259,0.211497
658,0.3321739999999999,0.933655,-0.133928,-0.278891,-0.2329409999999999,0.150118
659,0.344769,0.931958,-0.112142,-0.295666,-0.235852,0.059026
660,0.346805,0.933501,-0.091037,-0.206394,-0.152541,0.1086299999999999
661,0.341248,0.936729,-0.077938,0.049789,0.192619,0.191646
662,0.337687,0.939,-0.065052,-0.026469,-0.075994,0.092777
663,0.340498,0.938917,-0.049823,0.011293,-0.147642,0.097278
664,0.342362,0.938903,-0.035162,0.0708,-0.2106309999999999,-0.035425
665,0.342906,0.939116,-0.021509,0.203878,-0.0374279999999999,-0.152822
666,0.341669,0.939702,-0.014407,0.256735,0.050013,-0.1534849999999999
667,0.3410289999999999,0.939951,-0.013306,0.198888,0.140493,-0.082657
668,0.340584,0.940161,-0.009302,-0.0213849999999999,0.113871,-0.124655
669,0.336865,0.941543,0.002157,-0.027387,0.127457,-0.173086
670,0.328683,0.944313,0.015031,-0.044579,0.259941,-0.206804
671,0.315713,0.948513,0.025178,0.106024,0.459843,-0.243623
672,0.300591,0.953173,0.033034,0.121147,0.455183,-0.251479
673,0.2862699999999999,0.957405,0.03754,0.071763,0.228035,-0.070117
674,0.2723239999999999,0.9613,0.041547,-0.040345,0.267017,0.447451
675,0.255866,0.965843,0.040795,-0.023887,0.262474,0.448204
676,0.2477739999999999,0.968193,0.03457,0.084914,0.063011,-0.095284
677,0.2436239999999999,0.969462,0.027828,-0.0806,0.1213279999999999,-0.087643
678,0.243366,0.969836,0.0132539999999999,-0.080341,0.1209539999999999,-0.073069
679,0.246876,0.968926,-0.0148169999999999,-0.109165,0.105399,0.040451
680,0.25164,0.966482,-0.050759,-0.077858,0.368724,0.027413
681,0.25577,0.962791,-0.087183,-0.033388,0.406532,0.059397
682,0.258974,0.958797,-0.116739,-0.103213,0.204152,-0.057348
683,0.261008,0.954296,-0.145535,-0.2304909999999999,-0.057812,0.019086
684,0.266426,0.947111,-0.178847,-0.267235,-0.01843,0.107406
685,0.274316,0.93891,-0.207814,-0.25062,0.014978,0.177495
686,0.285472,0.930229,-0.230581,-0.174999,0.121452,0.020788
687,0.298092,0.92054,-0.252461,-0.204418,0.029579,0.080403
688,0.306986,0.912382,-0.270755,-0.224069,-0.131925,0.200427
689,0.314608,0.905744,-0.283969,-0.2217739999999999,-0.206724,0.186176
690,0.324049,0.899166,-0.29408,-0.255231,-0.173793,0.1140109999999999
691,0.334496,0.891698,-0.3049219999999999,-0.295189,-0.092442,-0.006052
692,0.340396,0.884998,-0.3176449999999999,-0.2250239999999999,-0.070713,0.001315
693,0.338865,0.8821200000000001,-0.3271469999999999,0.044146,-0.081522,-0.061189
694,0.329228,0.884215,-0.331304,0.111201,0.293061,-0.1241099999999999
695,0.3158579999999999,0.8893770000000001,-0.330504,0.0332779999999999,0.3059199999999999,-0.138414
696,0.30246,0.89635,-0.324137,-0.067475,0.046979,-0.1165369999999999
697,0.294257,0.902215,-0.315296,-0.0716919999999999,-0.274941,-0.192547
698,0.290369,0.906818,-0.305542,-0.018763,-0.443577,-0.219254
699,0.284111,0.912536,-0.29419,0.021554,-0.6419520000000001,-0.142913
700,0.27494,0.921554,-0.274107,-0.095634,-0.769943,0.187757
701,0.256998,0.9305,-0.26098,-0.5717260000000001,-0.168293,0.651163
702,0.239283,0.93134,-0.27448,-0.748957,1.090313,0.685476
703,0.2481739999999999,0.929703,-0.272125,0.2357739999999999,1.3305360000000002,-0.260407
704,0.271801,0.932011,-0.239726,0.385807,0.33958,-0.268849
705,0.291333,0.930775,-0.220844,0.351809,-0.763325,0.065296
706,0.299417,0.930371,-0.211535,-0.111596,-0.23364,0.181842
707,0.303566,0.93244,-0.195934,-0.289773,0.0299769999999999,0.066494
708,0.296232,0.937833,-0.180839,-0.336333,0.331225,-0.061837
709,0.276209,0.947319,-0.162119,-0.0689029999999999,0.3023909999999999,-0.024328
710,0.2696139999999999,0.95117,-0.1502359999999999,0.353051,-0.108244,0.089018
711,0.277734,0.950015,-0.142556,0.344932,-0.107089,0.081338
712,0.2888159999999999,0.948471,-0.130287,-0.017789,-0.2209469999999999,0.118569
713,0.295815,0.948363,-0.114395,-0.157631,-0.194915,0.0970309999999999
714,0.2953739999999999,0.950223,-0.099077,-0.15719,-0.196774,0.081713
715,0.290962,0.952932,-0.085122,-0.216575,-0.213339,0.072197
716,0.287375,0.955092,-0.072107,-0.20394,-0.171202,0.061212
717,0.28669,0.956166,-0.0595,-0.085015,-0.121144,-0.010187
718,0.286037,0.956929,-0.0495279999999999,0.096333,0.035106,0.038252
719,0.281215,0.958706,-0.042254,0.2114909999999999,0.435734,-0.135938
720,0.277545,0.960253,-0.029429,0.195737,0.4579439999999999,-0.181341
721,0.275735,0.961122,-0.014043,0.174156,0.319731,-0.2812
722,0.269482,0.962996,-0.00125,0.26604,0.3252739999999999,-0.223482
723,0.256992,0.96635,0.010197,0.24664,0.294117,-0.197529
724,0.239756,0.970578,0.021835,0.082525,0.295611,-0.141647
725,0.2181789999999999,0.975429,0.030286,-0.054086,0.327137,0.34331
726,0.1983849999999999,0.97967,0.029525,-0.106146,0.357625,0.315736
727,0.189109,0.981658,0.023824,-0.184989,0.175325,0.0576879999999999
728,0.184698,0.982728,0.010674,-0.235525,0.027007,0.108314
729,0.183221,0.982961,-0.014143,-0.221353,-0.05393,0.031432
730,0.1854309999999999,0.981631,-0.044704,-0.126639,-0.119754,0.093425
731,0.192206,0.978002,-0.080949,-0.0515809999999999,0.1554819999999999,-0.032668
732,0.204375,0.971341,-0.121292,0.005052,0.249637,-0.040802
733,0.215823,0.963084,-0.160859,-0.062259,0.246114,-0.059555
734,0.217808,0.956606,-0.193521,-0.0594059999999999,-0.143114,0.123773
735,0.219613,0.951152,-0.216948,0.005485,-0.133647,0.058973
736,0.230088,0.943141,-0.2398559999999999,-0.006531,-0.065761,-0.026272
737,0.246639,0.930668,-0.270211,0.006657,0.029644,-0.0564799999999999
738,0.263952,0.914135,-0.307693,0.069376,0.144581,0.182006
739,0.279717,0.8984200000000001,-0.338511,-0.11863,-0.114301,0.187616
740,0.289584,0.888049,-0.357071,-0.190326,-0.254351,0.16748
741,0.29851,0.8837659999999999,-0.360331,-0.545519,-0.336067,0.196024
742,0.307735,0.880389,-0.360836,-0.5502279999999999,-0.344592,0.153683
743,0.315033,0.876202,-0.36471,-0.0728,-0.089077,-0.064626
744,0.319813,0.8715379999999999,-0.371658,0.247158,0.2480139999999999,-0.149125
745,0.320401,0.8685709999999999,-0.3780429999999999,0.328449,0.145085,-0.134439
746,0.317069,0.869291,-0.379196,0.241861,-0.00836,-0.309921
747,0.310209,0.870383,-0.382352,0.082171,-0.040976,-0.436084
748,0.301894,0.871239,-0.387028,-0.08731,-0.275948,-0.195385
749,0.2943,0.878548,-0.376204,-0.1071059999999999,-0.51046,0.069044
750,0.281248,0.894265,-0.3481059999999999,-0.121885,-0.304559,-0.00811
751,0.255798,0.909802,-0.326826,-0.306716,0.483096,0.6555
752,0.228996,0.919688,-0.31894,-0.216163,0.941182,0.766069
753,0.220434,0.92381,-0.313005,-0.141394,1.267108,0.471895
754,0.231203,0.926993,-0.295325,-0.001391,-0.561728,-0.134316
755,0.249556,0.928322,-0.275549,0.288255,-0.5409010000000001,0.231436
756,0.25933,0.93014,-0.259951,0.1458819999999999,-0.213084,0.27434
757,0.261854,0.932748,-0.24779,-0.198652,0.010993,0.225207
758,0.254756,0.938478,-0.233123,-0.27328,-0.086213,0.177352
759,0.24297,0.946696,-0.211469,-0.187901,-0.149943,0.103452
760,0.2408829999999999,0.951705,-0.190314,-0.028862,-0.164825,0.042533
761,0.250651,0.952008,-0.175619,0.116094,-0.109616,-0.034265
762,0.2665099999999999,0.95027,-0.161076,0.145386,-0.1499309999999999,-0.030956
763,0.279536,0.949196,-0.144469,0.060292,-0.280846,0.0642529999999999
764,0.286452,0.950111,-0.123371,-0.054961,-0.31153,0.063205
765,0.288014,0.952285,-0.10092,-0.048467,-0.152801,0.000547
766,0.286893,0.954194,-0.084794,-0.020093,-0.040162,-0.024459
767,0.287744,0.954876,-0.073484,0.082251,-0.019939,-0.006762
768,0.289982,0.954828,-0.064794,0.1446039999999999,-0.011408,0.002584
769,0.2909239999999999,0.955193,-0.054346,0.187653,-0.000329,0.033823
770,0.291306,0.956038,-0.033411,0.163666,0.201265,-0.0462389999999999
771,0.289286,0.95714,-0.013419,0.14327,0.363615,-0.147637
772,0.284113,0.958779,-0.002437,0.152013,0.605308,-0.101812
773,0.27869,0.960341,0.007715,0.207806,0.608781,-0.090067
774,0.270838,0.962426,0.0191199999999999,0.139776,0.380577,-0.197358
775,0.2575409999999999,0.965889,0.026691,0.011425,0.199257,-0.1944
776,0.238233,0.97068,0.031742,0.003695,0.06791,0.298702
777,0.2179469999999999,0.975417,0.0322939999999999,0.048609,0.156129,0.337152
778,0.203676,0.978649,0.027286,-0.179293,0.2931559999999999,0.067227
779,0.197284,0.980207,0.015995,-0.244876,0.26961,0.057339
780,0.196545,0.980474,-0.004764,-0.16618,-0.0557299999999999,0.002261
781,0.1975849999999999,0.979777,-0.031291,-0.095992,-0.083323,0.075542
782,0.201981,0.977376,-0.0626419999999999,-0.011627,0.102092,5.1e-05
783,0.209587,0.973172,-0.094831,0.011863,0.24863,-0.0461139999999999
784,0.212932,0.96923,-0.123438,-0.080562,0.129357,-0.054296
785,0.204323,0.967368,-0.149785,-0.095436,0.06466,0.01679
786,0.195464,0.964482,-0.177634,-0.086516,-0.020452,0.11698
787,0.192944,0.958745,-0.208727,-0.100766,-0.00884,-0.022734
788,0.192156,0.952152,-0.2376349999999999,-0.110826,0.0057799999999999,-0.083258
789,0.190565,0.946003,-0.262205,-0.111189,-0.002506,0.030943
790,0.197265,0.938252,-0.284179,-0.144744,-0.068516,0.144256
791,0.210328,0.930176,-0.300871,-0.172089,-0.079437,0.0188729999999999
792,0.221188,0.924548,-0.310282,-0.133221,-0.147922,0.0229289999999999
793,0.2276719999999999,0.920957,-0.316216,-0.013515,-0.3050199999999999,0.1211319999999999
794,0.2328619999999999,0.918404,-0.31984,-0.054273,-0.25454,0.044358
795,0.236906,0.916909,-0.321157,-0.115873,-0.1880119999999999,0.0189569999999999
796,0.2383849999999999,0.916932,-0.319995,-0.193265,0.090728,0.0405
797,0.240421,0.918657,-0.313457,-0.089557,0.073897,-0.000478
798,0.242164,0.921412,-0.303883,-0.010597,-0.021708,-0.0713
799,0.241508,0.923679,-0.297455,0.147042,-0.043826,-0.382813
800,0.244511,0.922714,-0.297993,0.192897,-0.019058,-0.427089
801,0.254357,0.919357,-0.300121,0.211128,-0.1610869999999999,-0.323918
802,0.259038,0.919144,-0.29675,0.092861,-0.283448,0.061658
803,0.247492,0.923634,-0.292637,-0.235697,0.029186,0.418324
804,0.235171,0.929846,-0.282963,-0.29201,0.6237729999999999,0.407475
805,0.233994,0.934732,-0.267414,-0.228211,0.361457,0.369007
806,0.251867,0.935574,-0.2474869999999999,-0.092016,-0.291867,0.214375
807,0.270158,0.933767,-0.234692,0.063597,-0.307577,0.292294
808,0.278333,0.933182,-0.2273489999999999,0.077441,-0.137757,0.201836
809,0.27828,0.935528,-0.2175619999999999,0.0115599999999999,0.016025,0.10396
810,0.2724789999999999,0.940554,-0.202731,-0.045672,-0.012545,0.178897
811,0.269332,0.944652,-0.187292,-0.0807789999999999,-0.049236,0.097097
812,0.276507,0.94513,-0.173947,-0.034426,-0.002305,-0.0533779999999999
813,0.291672,0.942955,-0.160459,0.074112,0.046592,-0.091143
814,0.3057,0.940731,-0.146822,0.135874,-0.039303,-0.005568
815,0.311668,0.940856,-0.1328089999999999,0.058709,-0.131118,0.08453
816,0.310847,0.943315,-0.1162579999999999,-0.053523,-0.198854,0.082673
817,0.308177,0.946308,-0.097527,-0.1082109999999999,-0.164432,0.035866
818,0.306745,0.948481,-0.079211,-0.083586,-0.126673,0.018557
819,0.307673,0.949274,-0.064798,-0.069087,-0.102121,0.034936
820,0.3093,0.949384,-0.054636,-0.055928,-0.039579,0.0404459999999999
821,0.3104449999999999,0.949479,-0.045778,0.034052,-0.06096,-0.0312029999999999
822,0.308716,0.95054,-0.0339,0.0549309999999999,-0.040369,-0.063817
823,0.303113,0.952731,-0.020182,0.059757,0.056287,-0.055624
824,0.294048,0.955757,-0.006778,0.171895,0.1895369999999999,-0.008374
825,0.2838469999999999,0.958842,0.005957,0.2388429999999999,0.243902,-0.011893
826,0.273926,0.961571,0.0181199999999999,0.237015,0.446709,0.004799
827,0.264337,0.963936,0.030569,0.083304,0.540474,-0.2261719999999999
828,0.252537,0.966713,0.0409029999999999,0.0767019999999999,0.465508,-0.280665
829,0.240184,0.969639,0.0457589999999999,0.120213,0.205669,-0.111189
830,0.227149,0.972889,0.043271,0.1139,0.130673,0.2330809999999999
831,0.215454,0.975803,0.037016,0.021332,0.224331,0.209078
832,0.207176,0.977799,0.031127,-0.19004,0.1747119999999999,0.017411
833,0.200817,0.979467,0.017277,-0.278316,0.1330049999999999,-0.007527
834,0.199823,0.979776,-0.009609,-0.216883,0.030463,-0.045018
835,0.203071,0.978062,-0.046257,-0.120078,0.025493,0.1194839999999999
836,0.2105929999999999,0.973616,-0.087793,-0.013358,0.0264149999999999,0.137368
837,0.2217309999999999,0.967329,-0.1228619999999999,0.1115819999999999,0.201601,0.021391
838,0.231598,0.961277,-0.149314,-0.146103,-0.11037,0.013816
839,0.238865,0.956066,-0.1699,-0.266392,-0.265103,-0.045126
840,0.245241,0.949729,-0.194572,-0.229357,-0.190833,-0.050942
841,0.250684,0.9417,-0.224377,-0.055173,0.173565,-0.033329
842,0.258853,0.930457,-0.259292,-0.00162,0.317056,0.049651
843,0.270398,0.917988,-0.290121,-0.006116,0.222728,0.180777
844,0.280788,0.907847,-0.311384,-0.2067369999999999,-0.157801,0.2281619999999999
845,0.287211,0.901606,-0.323426,-0.318126,-0.119471,0.207978
846,0.290957,0.897644,-0.3310099999999999,-0.346362,-0.089661,0.188203
847,0.294704,0.8928780000000001,-0.340454,-0.2806349999999999,0.073309,0.143966
848,0.300575,0.88775,-0.348632,-0.207786,0.009925,0.067183
849,0.30713,0.884856,-0.350273,-0.141282,-0.058424,0.036888
850,0.314315,0.88507,-0.343286,0.077545,-0.151748,-0.092764
851,0.319229,0.8879360000000001,-0.331135,0.247421,-0.2035799999999999,-0.177776
852,0.316015,0.892767,-0.321077,0.299769,-0.199316,-0.253066
853,0.306722,0.897496,-0.316876,0.1899819999999999,0.050227,-0.327823
854,0.304517,0.898351,-0.316581,0.1215849999999999,-0.196843,-0.269982
855,0.306637,0.89785,-0.315954,0.060382,-0.499,-0.182825
856,0.301152,0.8998450000000001,-0.315554,-0.065922,-0.298572,0.131991
857,0.281784,0.905964,-0.3159349999999999,-0.308533,0.248302,0.506212
858,0.26716,0.914186,-0.304757,-0.2916809999999999,0.80667,0.4385
859,0.274329,0.919018,-0.283084,-0.305594,0.045948,0.048923
860,0.29616,0.918931,-0.260465,0.020887,-0.321336,0.272321
861,0.312502,0.916931,-0.248126,0.0792669999999999,-0.221863,0.339312
862,0.319565,0.915747,-0.2434599999999999,0.036377,0.017771,0.250555
863,0.319866,0.917839,-0.235039,0.001194,0.195167,0.080238
864,0.314978,0.92373,-0.2179429999999999,-0.058035,0.067695,0.1023879999999999
865,0.3135449999999999,0.928301,-0.1998309999999999,-0.100486,-0.049624,0.1295339999999999
866,0.318798,0.929579,-0.185034,0.039998,-0.017637,-0.011469
867,0.325972,0.929722,-0.171301,0.056963,-0.029072,-0.028147
868,0.3300869999999999,0.93057,-0.158322,0.0427769999999999,-0.085615,0.045896
869,0.328629,0.933015,-0.14653,-0.035782,-0.100526,0.099838
870,0.324111,0.93683,-0.1314779999999999,-0.056457,-0.083451,0.074411
871,0.319281,0.940819,-0.113595,-0.076055,-0.0614549999999999,0.049706
872,0.316663,0.943665,-0.095943,-0.08476,-0.148011,0.07455
873,0.317524,0.944782,-0.08093,-0.081134,-0.168415,0.044798
874,0.318532,0.945398,-0.068872,-0.056676,-0.150827,0.049203
875,0.318805,0.945983,-0.058851,-0.011066,-0.022002,0.035414
876,0.318797,0.94656,-0.048743,0.026387,-0.03587,0.024558
877,0.318182,0.947265,-0.037855,0.077128,0.037492,0.002424
878,0.314076,0.949027,-0.0262069999999999,0.085048,0.101998,-0.036049
879,0.305223,0.95216,-0.014594,0.116622,0.165378,-0.0750059999999999
880,0.293911,0.95582,-0.002784,0.133213,0.412802,-0.217049
881,0.281284,0.959576,0.008702,0.168942,0.450321,-0.2524909999999999
882,0.270727,0.962446,0.019681,0.2221159999999999,0.380892,-0.246259
883,0.26305,0.964319,0.029602,0.151364,0.181632,-0.132492
884,0.253034,0.966684,0.038446,0.134966,0.165869,0.088004
885,0.239278,0.969936,0.044175,0.090693,0.200657,0.163161
886,0.225655,0.973174,0.044649,-0.022057,0.403611,0.014143
887,0.214052,0.976097,0.037394,-0.13521,0.298272,-0.011256
888,0.204414,0.978618,0.022432,-0.2162849999999999,0.220433,0.017775
889,0.1993849999999999,0.979908,-0.002972,-0.086013,0.0768549999999999,-0.0300329999999999
890,0.1988859999999999,0.979349,-0.036098,0.025128,0.014685,0.133068
891,0.203101,0.976594,-0.070689,0.075219,-0.016008,0.097407
892,0.2105989999999999,0.972107,-0.1031509999999999,0.037891,0.140915,-0.015455
893,0.215835,0.966926,-0.135843,-0.1675859999999999,0.22416,0.0483339999999999
894,0.216194,0.961487,-0.16967,-0.2408829999999999,0.191681,0.085319
895,0.215542,0.954955,-0.203931,-0.253369,0.152314,0.1232569999999999
896,0.217739,0.946751,-0.2371469999999999,-0.241314,0.002834,0.171565
897,0.2243409999999999,0.937563,-0.265771,-0.1723849999999999,-0.1067829999999999,0.230096
898,0.234019,0.928209,-0.289224,-0.1338599999999999,-0.124528,0.28193
899,0.245878,0.918872,-0.308553,-0.134153,-0.241809,0.1704
900,0.2557,0.910446,-0.325105,-0.118294,-0.169632,0.117906
901,0.261767,0.902129,-0.342969,-0.1226839999999999,-0.156692,0.256589
902,0.267935,0.894632,-0.357536,-0.227759,-0.108332,0.231605
903,0.275922,0.888619,-0.366348,-0.310621,-0.238213,0.19667
904,0.284003,0.884027,-0.371249,-0.288443,-0.306314,0.059634
905,0.294027,0.880308,-0.372282,-0.0333,-0.402845,-0.0535299999999999
906,0.303465,0.8783270000000001,-0.369376,0.033175,-0.386704,-0.034325
907,0.305073,0.8802129999999999,-0.363515,0.125576,-0.308741,-0.166545
908,0.297931,0.8865190000000001,-0.353989,0.0840419999999999,0.070451,-0.252944
909,0.287232,0.894859,-0.341632,0.105895,0.035622,-0.292386
910,0.282267,0.901469,-0.328125,0.149664,0.063787,-0.37738
911,0.2847139999999999,0.905016,-0.3160239999999999,0.131149,-0.041811,-0.341615
912,0.285937,0.907517,-0.307637,0.036512,0.207306,-0.315731
913,0.280069,0.909441,-0.307352,0.014609,0.295057,0.10534
914,0.28206,0.913724,-0.292468,-0.081758,0.194156,0.141833
915,0.286848,0.920801,-0.264251,-0.086545,0.187078,0.113617
916,0.290439,0.927789,-0.234177,-0.533694,-0.258416,0.194916
917,0.294998,0.93111,-0.214464,-0.192321,-0.022694,0.328951
918,0.300939,0.931601,-0.203816,-0.198263,-0.023184,0.318303
919,0.302931,0.933684,-0.190923,-0.054518,0.203889,0.087148
920,0.302637,0.937412,-0.172202,-0.036676,0.094234,-0.082147
921,0.304597,0.940103,-0.153004,0.02835,0.084173,-0.023601
922,0.311425,0.940498,-0.135877,0.103416,0.044442,0.0073219999999999
923,0.323709,0.938411,-0.120753,0.042929,-0.178752,-0.03594
924,0.334366,0.936488,-0.105705,-0.037491,-0.297327,-0.005578
925,0.339766,0.936348,-0.08828,-0.132185,-0.343514,0.036645
926,0.33989,0.937861,-0.069815,-0.135666,-0.260523,-0.028086
927,0.337096,0.93972,-0.057221,-0.0904529999999999,-0.1791309999999999,-0.044006
928,0.332601,0.941704,-0.0505279999999999,-0.1345869999999999,-0.093712,-0.00892
929,0.328886,0.943376,-0.043098,-0.164366,-0.114702,0.028388
930,0.328656,0.943962,-0.0300459999999999,-0.172192,-0.153755,0.037629
931,0.332345,0.943043,-0.014107,-0.0649039999999999,-0.163227,0.062371
932,0.334682,0.942321,-0.00074,-0.0411949999999999,-0.119903,0.022881
933,0.3322989999999999,0.943114,0.00976,-0.0422899999999999,-0.0184919999999999,-0.048518
934,0.327526,0.944659,0.018104,-0.022472,-0.021182,-0.008186
935,0.321944,0.9464,0.025702,-0.006804,-0.0578039999999999,-0.07836
936,0.314076,0.948754,0.034684,0.005199,-0.100686,-0.134522
937,0.302512,0.951979,0.046936,0.003625,0.043932,-0.170456
938,0.287069,0.956204,0.0569789999999999,0.060862,0.177601,-0.164035
939,0.2715,0.960334,0.063453,0.084518,0.00715,-0.249442
940,0.2601719999999999,0.962978,0.070452,-0.001078,-0.126384,-0.2438219999999999
941,0.2492849999999999,0.965232,0.078509,-0.005816,0.051278,-0.0971549999999999
942,0.237271,0.967487,0.0874679999999999,0.085224,0.209164,-0.093358
943,0.231142,0.968384,0.093727,0.149611,0.109466,-0.213112
944,0.229259,0.968318,0.098888,0.031956,0.3467909999999999,-0.13055
945,0.230737,0.967751,0.100978,0.079596,0.258827,0.156224
946,0.2372449999999999,0.966275,0.100033,0.094206,0.006519,0.17577
947,0.245896,0.964447,0.096725,-0.0651409999999999,-0.096771,0.261368
948,0.254781,0.96286,0.089258,-0.27416,0.01059,0.269293
949,0.2645909999999999,0.961564,0.073247,-0.388615,0.309188,0.2148389999999999
950,0.273223,0.960895,0.044831,-0.534576,0.4260529999999999,0.204802
951,0.282998,0.959061,0.009724,-0.510995,0.52275,0.101848
952,0.295236,0.955155,-0.022256,-0.2427909999999999,0.342574,0.052194
953,0.301718,0.952409,-0.043187,-0.065695,0.163573,0.06667
954,0.302244,0.951455,-0.0580059999999999,-0.032393,0.19268,-6.9e-05
955,0.300466,0.950887,-0.074279,-0.0569659999999999,0.123271,0.002822
956,0.29864,0.949815,-0.093003,-0.13595,0.020141,-0.025985
957,0.29666,0.948368,-0.1121369999999999,-0.149382,0.0081599999999999,-0.023056
958,0.2957369999999999,0.945965,-0.132941,-0.146766,-0.129513,0.006018
959,0.296019,0.943136,-0.151171,-0.191679,-0.295888,0.059938
960,0.296596,0.941133,-0.162123,-0.188472,-0.32805,0.058592
961,0.296405,0.940638,-0.165315,-0.216113,-0.38914,0.046189
962,0.2929449999999999,0.941826,-0.164715,-0.230812,-0.414467,-0.034
963,0.2868219999999999,0.943807,-0.164155,-0.234057,-0.337667,-0.080321
964,0.281502,0.945514,-0.16354,-0.1811299999999999,-0.299365,-0.15334
965,0.277965,0.94677,-0.162318,-0.1042589999999999,-0.268532,-0.2134599999999999
966,0.276578,0.947376,-0.161144,-0.053327,-0.268436,-0.248219
967,0.276443,0.947744,-0.159201,0.028031,-0.28449,-0.354257
968,0.276552,0.948432,-0.154852,0.005232,-0.081718,-0.17631
969,0.276007,0.94892,-0.152822,0.023355,0.084558,-0.189905
970,0.275508,0.948831,-0.154267,-0.038096,0.304632,-0.214279
971,0.278973,0.947606,-0.155567,-0.201336,0.421886,-0.383374
972,0.290931,0.944435,-0.152926,-0.329657,0.516671,-0.317853
973,0.30537,0.939871,-0.152891,-0.232738,-0.10755,-0.11275
974,0.313897,0.938058,-0.146628,-0.35775,-0.18197,0.101157
975,0.314604,0.938528,-0.142033,-0.4639109999999999,-0.042105,0.302738
976,0.310415,0.937843,-0.155167,-0.412786,0.980751,0.624268
977,0.297975,0.94015,-0.165266,-0.33542,1.006032,0.425459
978,0.2901019999999999,0.944896,-0.151643,-0.085725,-0.271694,0.1355299999999999
979,0.295007,0.944922,-0.141692,-0.108041,-0.398459,0.232803
980,0.309723,0.940752,-0.137991,-0.077942,-0.2419599999999999,0.179068
981,0.322659,0.937667,-0.129054,0.0051909999999999,0.167908,0.045619
982,0.32465,0.939094,-0.11264,-0.189579,0.317696,-0.0168
983,0.326762,0.940379,-0.094325,-0.28065,0.195745,0.000681
984,0.338212,0.937213,-0.085007,-0.232011,-0.048541,0.159073
985,0.3528719999999999,0.932888,-0.071998,-0.128339,-0.254009,0.074515
986,0.365329,0.929678,-0.047064,-0.110645,-0.134146,-0.028619
987,0.370747,0.928411,-0.024093,-0.094441,-0.0180409999999999,-0.043091
988,0.368652,0.929518,-0.008594,0.03862,0.096895,-0.033779
989,0.366984,0.930193,0.006651,0.100835,-0.10071,-0.0495899999999999
990,0.365886,0.93032,0.024751,0.035115,-0.219703,-0.098268
991,0.360282,0.931854,0.042718,-0.008734,-0.120071,-0.119653
992,0.3507159999999999,0.934679,0.0579019999999999,-0.019829,-0.041079,-0.181635
993,0.3402489999999999,0.937771,0.069242,-0.029733,-0.032193,-0.20622
994,0.3290929999999999,0.940918,0.07969,-0.045722,-0.026871,-0.258355
995,0.3169,0.944169,0.0899929999999999,-0.074437,0.0111069999999999,-0.2118489999999999
996,0.303144,0.947741,0.099354,-0.047391,0.0677929999999999,-0.178181
997,0.288722,0.95133,0.107653,-0.102122,0.15159,-0.239565
998,0.277501,0.95379,0.115141,-0.090184,0.147803,-0.232557
999,0.2691909999999999,0.955259,0.122455,0.057408,0.080935,-0.172626
1000,0.2616179999999999,0.956567,0.1285069999999999,0.0796289999999999,0.153845,-0.184354
1001,0.255644,0.957358,0.134502,-0.023298,0.373895,-0.081234
1002,0.252265,0.957971,0.136504,-0.094535,0.286964,0.050431
1003,0.251121,0.958689,0.133541,-0.087989,0.242544,0.150532
1004,0.252737,0.959028,0.127943,-0.305944,0.1186849999999999,0.275911
1005,0.262449,0.958152,0.114213,-0.410459,-0.012931,0.2426289999999999
1006,0.275897,0.957214,0.0871919999999999,-0.38953,0.009797,-0.005252
1007,0.28233,0.95778,0.054112,-0.138989,0.413268,0.023296
1008,0.281339,0.959224,0.026831,-0.017697,0.4495439999999999,0.0794769999999999
1009,0.277315,0.960732,0.008523,0.144789,0.287788,-0.008371
1010,0.275927,0.961137,-0.0078459999999999,-0.075121,0.056914,-0.04968
1011,0.276194,0.960705,-0.027282,-0.122431,0.057254,-0.058686
1012,0.276105,0.959886,-0.048661,-0.132657,0.044661,-0.085784
1013,0.27428,0.959144,-0.069255,-0.088901,0.044213,-0.077535
1014,0.272434,0.958095,-0.08841,-0.079929,-0.036159,-0.074325
1015,0.273936,0.956042,-0.104528,-0.1086369999999999,-0.290484,-0.04394
1016,0.278982,0.953373,-0.1150369999999999,-0.118322,-0.5023529999999999,-0.044448
1017,0.282144,0.951843,-0.11989,-0.122842,-0.525573,-0.085966
1018,0.278654,0.952672,-0.121458,-0.170118,-0.4465989999999999,-0.129839
1019,0.269633,0.955329,-0.120951,-0.166133,-0.362265,-0.151113
1020,0.26164,0.957705,-0.1197039999999999,-0.0935179999999999,-0.335086,-0.220201
1021,0.257523,0.958979,-0.1184279999999999,0.035202,-0.271494,-0.324504
1022,0.25736,0.958982,-0.118756,0.0783789999999999,-0.23039,-0.343051
1023,0.258576,0.958661,-0.1187109999999999,0.080764,-0.100232,-0.350574
1024,0.255924,0.959404,-0.11845,-0.050358,0.092903,-0.515675
1025,0.250456,0.960997,-0.117219,0.002214,0.066789,-0.271239
1026,0.24984,0.961234,-0.116591,-0.013497,0.115243,-0.197572
1027,0.259096,0.958739,-0.116933,-0.284441,0.626497,-0.1177319999999999
1028,0.274754,0.954282,-0.117642,-0.289509,0.5226770000000001,-0.051349
1029,0.286993,0.951573,-0.1101309999999999,-0.366659,0.333477,0.134407
1030,0.28793,0.951605,-0.107367,-0.573712,0.436899,0.328177
1031,0.275396,0.955039,-0.109738,-0.241338,-0.042151,0.157696
1032,0.259842,0.959644,-0.107472,-0.2088469999999999,-0.119647,0.227467
1033,0.258262,0.959298,-0.114158,0.10804,-0.120904,0.1892309999999999
1034,0.265629,0.957205,-0.114817,0.2016109999999999,0.333001,0.053873
1035,0.268026,0.957933,-0.102522,0.145243,0.481749,-0.064058
1036,0.273382,0.958311,-0.082985,0.002726,0.182437,0.1171799999999999
1037,0.2837719999999999,0.956339,-0.069808,0.024654,-0.002023,0.2144309999999999
1038,0.296376,0.953006,-0.062646,-0.042836,-0.072253,0.2287989999999999
1039,0.307373,0.950239,-0.050501,-0.16626,-0.262815,0.1074619999999999
1040,0.310296,0.949995,-0.034772,-0.105919,-0.148359,0.0172699999999999
1041,0.308172,0.951111,-0.020012,-0.031789,-0.024384,0.014778
1042,0.308696,0.951122,-0.0074569999999999,0.031529,0.036213,0.013973
1043,0.313881,0.949439,0.005213,0.001991,-0.082389,-0.011255
1044,0.317808,0.947976,0.017942,-0.011228,-0.106652,-0.069426
1045,0.317026,0.947941,0.029749,0.086386,-0.1170079999999999,-0.198984
1046,0.310661,0.949794,0.036906,0.203987,-0.023967,-0.2443179999999999
1047,0.301454,0.952487,0.043301,0.2396989999999999,0.041241,-0.256954
1048,0.293987,0.954189,0.055457,0.24268,0.172031,-0.351523
1049,0.287664,0.955352,0.067328,0.202128,0.263047,-0.4459439999999999
1050,0.279699,0.957045,0.076249,0.182643,0.310548,-0.449754
1051,0.26727,0.96015,0.0816139999999999,0.174182,0.346613,-0.330882
1052,0.2535409999999999,0.963544,0.085327,0.093322,0.392841,-0.324371
1053,0.242121,0.966185,0.0885649999999999,0.012594,0.2223369999999999,-0.270984
1054,0.232231,0.968536,0.08937,0.130516,0.151108,0.093155
1055,0.2204429999999999,0.971617,0.0857059999999999,-0.017135,0.286928,0.066027
1056,0.2116199999999999,0.97411,0.079416,-0.0962789999999999,0.326519,0.038107
1057,0.205876,0.976112,0.0692919999999999,-0.147191,0.276574,0.01573
1058,0.200723,0.978401,0.049236,-0.068658,0.268121,0.0073739999999999
1059,0.195885,0.980368,0.022127,-0.039116,0.240884,0.042128
1060,0.1927559999999999,0.981201,-0.008539,0.016884,0.102585,0.019556
1061,0.194758,0.980079,-0.038692,0.029943,0.043725,0.021877
1062,0.200919,0.977232,-0.06806,0.0237819999999999,0.046572,0.051244
1063,0.205256,0.973497,-0.100785,-0.1009159999999999,0.050429,-0.027847
1064,0.204402,0.969135,-0.137773,-0.238536,-0.042377,0.03032
1065,0.2003079999999999,0.964705,-0.170899,-0.225119,-0.007033,0.079514
1066,0.2011109999999999,0.959766,-0.195931,-0.16185,0.00053,0.0456779999999999
1067,0.2136829999999999,0.952112,-0.218653,-0.126891,-0.194147,0.071344
1068,0.234758,0.942714,-0.236994,-0.120042,-0.27386,0.08465
1069,0.253115,0.934451,-0.2504429999999999,-0.060534,-0.336184,0.084351
1070,0.2640349999999999,0.928108,-0.262464,-0.060498,-0.073128,0.126142
1071,0.2710579999999999,0.922541,-0.274652,-0.086472,-0.0010019999999999,0.139566
1072,0.279101,0.91694,-0.285153,-0.0487839999999999,-0.210702,-0.129276
1073,0.285991,0.91331,-0.289933,-0.065242,-0.179317,-0.181167
1074,0.289529,0.911287,-0.292774,-0.08651,-0.142214,-0.2043579999999999
1075,0.28526,0.911467,-0.296382,0.025241,0.052873,-0.124638
1076,0.2730889999999999,0.915593,-0.295128,0.108519,0.0552779999999999,-0.152031
1077,0.259013,0.922681,-0.285585,0.218358,0.070574,-0.230208
1078,0.2484739999999999,0.929456,-0.272689,0.132432,-0.177763,-0.406724
1079,0.245187,0.933363,-0.262115,0.0929779999999999,-0.380064,-0.358064
1080,0.245082,0.936612,-0.250357,0.0436449999999999,-0.573056,-0.1635069999999999
1081,0.2393739999999999,0.94315,-0.230553,-0.22175,-0.342518,0.140099
1082,0.221053,0.950382,-0.218852,-0.557555,0.254086,0.542826
1083,0.202533,0.955634,-0.213844,-0.3169889999999999,0.91198,0.427162
1084,0.20525,0.957772,-0.20132,0.239025,0.349234,-0.12325
1085,0.232816,0.956704,-0.174644,0.304141,-0.335076,0.018531
1086,0.25115,0.95607,-0.151123,0.173548,-0.259735,0.1807089999999999
1087,0.2586239999999999,0.956994,-0.131378,-0.096515,-0.132241,0.2340239999999999
1088,0.258639,0.959282,-0.11344,-0.262317,-0.029258,0.264547
1089,0.2454449999999999,0.964607,-0.096297,-0.2129739999999999,0.024788,0.076293
1090,0.229698,0.969795,-0.081977,-0.130638,0.056359,-0.108651
1091,0.225125,0.971747,-0.0707769999999999,0.112567,0.029932,-0.129952
1092,0.23145,0.971178,-0.056794,0.219401,-0.142397,-0.0009
1093,0.239153,0.970064,-0.042004,0.080397,-0.244859,0.130765
1094,0.241971,0.969849,-0.028729,-0.050016,-0.229095,0.123013
1095,0.239194,0.970854,-0.0144979999999999,-0.132413,-0.187849,0.022768
1096,0.23368,0.972303,-0.000907,-0.051963,-0.102918,0.007194
1097,0.231128,0.97287,0.009134,-0.008442,-0.1607819999999999,0.040472
1098,0.232471,0.972489,0.0142009999999999,0.089138,-0.267167,-0.0433459999999999
1099,0.233359,0.972171,0.020144,0.086755,-0.290394,-0.021792
1100,0.2337969999999999,0.971912,0.02656,0.10539,-0.071338,-0.08079
1101,0.232901,0.971851,0.0352339999999999,0.1263369999999999,0.008404,-0.07715
1102,0.230142,0.97198,0.047622,0.120566,0.149785,-0.187621
1103,0.226804,0.971909,0.062693,0.082827,0.338866,-0.300791
1104,0.222234,0.972038,0.075707,0.113475,0.38636,-0.372872
1105,0.215853,0.972816,0.083755,0.183759,0.509011,-0.354217
1106,0.2060139999999999,0.974291,0.091066,0.1724349999999999,0.44145,-0.182649
1107,0.192925,0.975898,0.101888,0.224815,0.367715,-0.057897
1108,0.174994,0.978125,0.112366,0.2203909999999999,0.442194,0.046279
1109,0.15381,0.980638,0.121113,0.047132,0.40634,0.109249
1110,0.1310059999999999,0.98379,0.122364,0.0010279999999999,0.352941,0.152218
1111,0.1110319999999999,0.987259,0.113881,-0.162683,0.180221,0.105495
1112,0.104518,0.989671,0.098008,-0.020961,0.071196,-0.083924
1113,0.102779,0.991975,0.073487,-0.000698,0.035674,-0.040436
1114,0.104399,0.993804,0.03786,0.073351,-0.002532,-0.013522
1115,0.113785,0.993476,-0.006207,0.1277309999999999,-0.0361089999999999,-0.039264
1116,0.1270359999999999,0.990653,-0.049493,0.017648,-0.104972,-0.0522529999999999
1117,0.131364,0.987461,-0.0874419999999999,-0.2402969999999999,-0.110279,0.107767
1118,0.125336,0.985348,-0.115599,-0.176423,-0.000225,0.075682
1119,0.119095,0.982478,-0.1433019999999999,-0.114167,0.074681,0.030235
1120,0.125145,0.976614,-0.174777,-0.084938,0.143137,0.0144219999999999
1121,0.143321,0.968292,-0.204584,-0.066096,0.0856789999999999,0.040277
1122,0.1681619999999999,0.959419,-0.226319,-0.006342,-0.277886,0.085709
1123,0.188398,0.952094,-0.240848,0.156343,-0.330665,0.010303
1124,0.199996,0.946989,-0.251392,0.1132359999999999,-0.156065,-0.023984
1125,0.207664,0.943129,-0.259552,0.002724,-0.042968,-0.119903
1126,0.211521,0.940126,-0.267219,-0.1196329999999999,0.067671,-0.087167
1127,0.21,0.938441,-0.2742489999999999,-0.127466,-0.059703,-0.102139
1128,0.203692,0.939776,-0.274436,0.016737,-0.252734,0.033882
1129,0.198134,0.942105,-0.270491,0.05565,-0.232724,-0.150438
1130,0.1946109999999999,0.943919,-0.266698,-0.017899,-0.197474,-0.39715
1131,0.190371,0.946398,-0.26091,-0.067675,-0.14284,-0.42273
1132,0.189972,0.947289,-0.257952,0.081283,-0.223946,-0.362684
1133,0.196417,0.946057,-0.257643,0.233194,-0.600431,-0.294298
1134,0.203615,0.946078,-0.251915,0.311141,-0.540606,-0.164955
1135,0.196796,0.950172,-0.241721,0.138729,-0.000953,0.350516
1136,0.17453,0.956413,-0.234088,-0.052246,1.248665,0.600222
1137,0.149467,0.96034,-0.235354,-0.117866,1.584201,0.766192
1138,0.1484869999999999,0.967248,-0.205832,-0.274677,-0.490288,-0.073266
1139,0.165909,0.970156,-0.176788,0.024109,-0.8654959999999999,0.11911
1140,0.17772,0.97058,-0.162394,0.02986,-0.485488,0.238032
1141,0.177393,0.97233,-0.15195,0.0223599999999999,-0.0442139999999999,0.120547
1142,0.169209,0.974786,-0.145401,-0.062382,0.207831,0.002685
1143,0.153417,0.97952,-0.130324,-0.036184,0.172366,-0.0531019999999999
1144,0.149066,0.982945,-0.107607,0.229748,-0.079457,-0.052595
1145,0.15969,0.983019,-0.090289,0.3155139999999999,-0.235064,-0.0614139999999999
1146,0.173933,0.98179,-0.076262,0.267977,-0.276407,-0.052736
1147,0.18417,0.980881,-0.062729,0.0821409999999999,-0.272735,0.055695
1148,0.1869569999999999,0.98118,-0.0481,0.028467,-0.099893,0.036243
1149,0.1855119999999999,0.982161,-0.0304079999999999,-0.000729,-0.032347,0.0158199999999999
1150,0.185244,0.982587,-0.013659,-0.036517,-0.021878,0.023073
1151,0.189675,0.981836,-0.000886,-0.044838,-0.146203,0.058565
1152,0.195677,0.980607,0.009937,-0.049742,-0.166795,0.059033
1153,0.19889,0.979832,0.01871,0.003213,-0.054676,0.0137919999999999
1154,0.199052,0.979621,0.026437,0.0948929999999999,0.029641,-0.040262
1155,0.198678,0.979279,0.038949,0.164985,0.034789,-0.087762
1156,0.194854,0.979464,0.051582,0.175141,0.107801,-0.181084
1157,0.188681,0.980188,0.0600679999999999,0.276804,0.304815,-0.199289
1158,0.182159,0.980808,0.069364,0.334961,0.364376,-0.220365
1159,0.176046,0.981262,0.078167,0.329493,0.4394079999999999,-0.275692
1160,0.1700539999999999,0.98196,0.082541,0.198766,0.283558,-0.067176
1161,0.160165,0.983447,0.084595,0.237998,0.218946,0.185013
1162,0.145202,0.985545,0.087144,-0.179275,0.43636,0.120147
1163,0.12678,0.987871,0.08952,-0.379206,0.373487,-0.0511589999999999
1164,0.111592,0.990177,0.084103,-0.475042,0.33897,-0.075299
1165,0.1073089999999999,0.991999,0.066332,-0.047296,-0.018916,-0.052034
1166,0.107099,0.993607,0.035404,0.024599,-0.0607,-0.118442
1167,0.111951,0.993703,-0.000904,0.166354,-0.104375,0.014912
1168,0.123798,0.991608,-0.0369839999999999,0.042035,0.248383,-0.13898
1169,0.137178,0.987972,-0.071233,-0.033769,0.22353,-0.105753
1170,0.138422,0.984669,-0.106058,-0.083048,0.09396,-0.01943
1171,0.1325309999999999,0.981788,-0.13605,-0.187951,-0.198646,0.095538
1172,0.133134,0.977548,-0.163273,-0.160432,-0.073235,0.026524
1173,0.141979,0.970932,-0.192655,-0.169674,0.0052179999999999,0.041364
1174,0.159281,0.96272,-0.2185949999999999,-0.105815,-0.138791,0.071912
1175,0.181051,0.953772,-0.239842,-0.158819,-0.252417,0.116948
1176,0.1985,0.946343,-0.2549869999999999,-0.070326,-0.302406,0.108182
1177,0.210969,0.939905,-0.26843,-0.034928,-0.2279,0.063291
1178,0.222165,0.93395,-0.279939,-0.1406069999999999,-0.165212,0.023729
1179,0.231471,0.930287,-0.284558,-0.136211,-0.1875349999999999,-0.051868
1180,0.2373,0.929422,-0.282575,-0.11523,-0.044015,-0.03377
1181,0.238708,0.931332,-0.274998,0.046722,-0.041516,-0.073314
1182,0.235567,0.936133,-0.261052,0.265654,0.117852,-0.191463
1183,0.225078,0.942843,-0.2457079999999999,0.310582,0.250578,-0.299794
1184,0.211006,0.949325,-0.232902,0.152519,0.125977,-0.366616
1185,0.203901,0.953274,-0.222884,0.090807,-0.312603,-0.397493
1186,0.20763,0.954248,-0.215137,0.146771,-0.588175,-0.300244
1187,0.211442,0.954994,-0.207996,0.057509,-0.276497,-0.1898619999999999
1188,0.203744,0.955923,-0.211384,-0.16485,0.048166,0.24184
1189,0.203574,0.957872,-0.202539,0.035104,0.819792,0.339334
1190,0.208946,0.96101,-0.181062,-0.059608,-0.251706,0.129915
1191,0.2162349999999999,0.963317,-0.158889,-0.307757,-0.5906359999999999,0.091475
1192,0.222951,0.963987,-0.14493,0.022746,-0.329648,0.2156239999999999
1193,0.2217489999999999,0.964667,-0.142224,0.025718,0.16755,0.208875
1194,0.209308,0.967627,-0.1409619999999999,-0.018695,0.35798,0.009141
1195,0.195594,0.972033,-0.129909,-0.0600659999999999,0.0146919999999999,0.033581
1196,0.196865,0.973641,-0.1151069999999999,0.11565,-0.226983,0.038905
1197,0.210829,0.972447,-0.0994029999999999,0.115266,-0.199772,0.004264
1198,0.224687,0.970806,-0.083862,0.0838759999999999,-0.135479,-0.070938
1199,0.230178,0.970581,-0.070514,0.07753,-0.098908,0.026309
1200,0.22699,0.972026,-0.060195,0.065322,-0.070262,0.0361779999999999
1201,0.220963,0.974033,-0.049157,-0.039734,-0.046192,0.055978
1202,0.218559,0.975127,-0.036618,-0.093361,-0.125197,0.012433
1203,0.222063,0.974758,-0.022712,-0.0458089999999999,-0.182369,0.005332
1204,0.226601,0.973931,-0.009612,0.009025,-0.211495,0.025924
1205,0.2284,0.973557,0.001402,-0.0103819999999999,-0.092148,0.0114
1206,0.227432,0.973734,0.00987,0.053299,-0.034358,-0.017621
1207,0.226122,0.973936,0.017297,0.14279,-0.005643,-0.0656669999999999
1208,0.2247719999999999,0.974027,0.027031,0.171926,0.052157,-0.053337
1209,0.2220909999999999,0.97427,0.038126,0.151902,0.058323,-0.136255
1210,0.217725,0.974685,0.050653,0.112918,0.127946,-0.139138
1211,0.21024,0.97573,0.061071,0.224055,0.371621,-0.29572
1212,0.202787,0.976711,0.06996,0.2382989999999999,0.460545,-0.313979
1213,0.1957,0.977464,0.079029,0.197626,0.310607,-0.1816289999999999
1214,0.187967,0.978294,0.087117,0.204947,0.230263,-0.036702
1215,0.176567,0.979987,0.091806,0.127342,0.313332,0.0600809999999999
1216,0.164117,0.981697,0.0965179999999999,0.0297769999999999,0.330879,0.148828
1217,0.151257,0.983606,0.09808,-0.043667,0.3126739999999999,0.113971
1218,0.135322,0.98655,0.091571,-0.350532,0.192573,0.032086
1219,0.125238,0.989135,0.0768539999999999,-0.107553,0.1245579999999999,0.118184
1220,0.122652,0.990979,0.053822,-0.0260339999999999,0.058246,0.097087
1221,0.1232289999999999,0.99199,0.027405,-0.047439,0.0051259999999999,0.015946
1222,0.126878,0.991899,-0.00439,0.057845,0.1032849999999999,0.001003
1223,0.13358,0.990304,-0.037891,0.0659889999999999,0.225852,-0.051221
1224,0.141433,0.987238,-0.073078,-0.131042,0.050406,-0.006436
1225,0.144841,0.983606,-0.107349,-0.194341,-0.130685,0.1100039999999999
1226,0.1469099999999999,0.979745,-0.136015,-0.090803,-0.103082,0.01541
1227,0.154149,0.974223,-0.164654,-0.002019,0.01598,-0.028522
1228,0.166943,0.966736,-0.193745,-0.022259,-0.025116,0.073033
1229,0.184927,0.958582,-0.216582,-0.0670679999999999,-0.129648,0.076751
1230,0.202225,0.950603,-0.235463,-0.081299,-0.268703,0.03243
1231,0.2124989999999999,0.943901,-0.252748,-0.032125,-0.211509,0.020295
1232,0.2165429999999999,0.938788,-0.267902,-0.031194,-0.125602,0.023181
1233,0.222375,0.933586,-0.280984,-0.087365,-0.105156,0.046014
1234,0.229658,0.928182,-0.292783,-0.058974,-0.299352,0.0045899999999999
1235,0.231008,0.924869,-0.302058,-0.0504509999999999,-0.225513,-0.087117
1236,0.226739,0.924386,-0.306736,-0.041238,-0.2070239999999999,-0.11044
1237,0.220385,0.9262,-0.3058929999999999,0.073972,-0.040137,-0.23143
1238,0.210875,0.929317,-0.303129,0.1335309999999999,0.1200599999999999,-0.237596
1239,0.198738,0.932942,-0.300182,0.115914,0.08102,-0.195515
1240,0.188868,0.936942,-0.294033,0.03391,-0.031958,-0.210727
1241,0.184395,0.940301,-0.286041,0.078316,-0.235222,-0.307953
1242,0.185741,0.94219,-0.278863,0.079976,-0.364233,-0.270423
1243,0.192747,0.943377,-0.2699539999999999,0.022372,0.169783,-0.230381
1244,0.193703,0.943493,-0.268862,0.038673,0.25034,0.142931
1245,0.186795,0.946674,-0.262491,0.050662,0.288586,0.232584
1246,0.1814049999999999,0.953722,-0.2397719999999999,-0.000696,0.143171,0.2496449999999999
1247,0.186967,0.958775,-0.213959,-0.1603099999999999,-0.347096,0.209671
1248,0.1956099999999999,0.961371,-0.193615,-0.089104,-0.2893739999999999,0.237377
1249,0.19742,0.963208,-0.182321,0.032576,-0.029156,0.225595
1250,0.194246,0.96544,-0.173722,0.03372,0.169341,0.071396
1251,0.189554,0.968366,-0.162236,-0.0004669999999999,0.111041,0.065038
1252,0.189146,0.971058,-0.145784,-0.048369,-0.108616,0.099184
1253,0.195874,0.972138,-0.1287029999999999,0.111514,-0.159912,0.058559
1254,0.2050739999999999,0.972113,-0.1136809999999999,0.119892,-0.129523,0.0076019999999999
1255,0.2138969999999999,0.971597,-0.101143,0.092316,-0.1300599999999999,-0.096398
1256,0.221142,0.970852,-0.092338,0.112171,-0.157543,-0.025292
1257,0.2262219999999999,0.970503,-0.08325,0.084096,-0.145003,0.009001
1258,0.2280739999999999,0.971018,-0.07134,0.0484459999999999,-0.060404,0.018422
1259,0.227852,0.971952,-0.058101,-0.0399399999999999,-0.01048,0.038463
1260,0.229258,0.972367,-0.043881,-0.0662789999999999,-0.050233,0.027722
1261,0.231508,0.972328,-0.031066,-0.075808,-0.105293,0.010604
