,gravity.x,gravity.y,gravity.z,userAcceleration.x,userAcceleration.y,userAcceleration.z
0,0.105577,0.958203,-0.265881,-0.045351,0.509525,0.787366
1,0.072898,0.93955,-0.334551,-0.033301,0.575113,0.466082
2,0.021881,0.909588,-0.4149279999999999,0.057694,0.169895,0.005199
3,-0.002051,0.8808440000000001,-0.473396,0.034568,-0.113632,0.424339
4,0.00796,0.8618819999999999,-0.507041,-0.117381,-0.222707,0.6599189999999999
5,-0.0012109999999999,0.843615,-0.536942,-0.0036409999999999,-0.489154,0.5789949999999999
6,-0.023744,0.8259780000000001,-0.563198,0.145829,-0.526753,0.380184
7,-0.038103,0.810538,-0.584441,0.030076,-0.5340189999999999,0.242248
8,-0.0415079999999999,0.8011,-0.597086,0.007756,-0.6769850000000001,0.303003
9,-0.035314,0.79932,-0.5998640000000001,-0.00857,-0.753238,0.282023
10,-0.016863,0.807021,-0.590278,-0.018797,-0.773223,0.352958
11,0.014844,0.8208190000000001,-0.570992,-0.147245,-0.725283,0.270806
12,0.054978,0.835685,-0.546447,-0.176102,-0.62139,0.0879809999999999
13,0.10319,0.8518979999999999,-0.513436,-0.138698,-0.620804,-0.080192
14,0.160443,0.8685729999999999,-0.468864,-0.326215,0.2591429999999999,-0.69439
15,0.211943,0.8806069999999999,-0.423799,-0.4452649999999999,1.051324,-1.269927
16,0.2268329999999999,0.8727159999999999,-0.432329,-0.80888,1.888072,-0.311888
17,0.220936,0.855548,-0.468209,-0.550571,-0.272784,-0.750984
18,0.212928,0.838783,-0.501097,-0.687721,-0.446617,-0.219621
19,0.1880869999999999,0.8215610000000001,-0.538196,-0.697059,-0.295423,0.66074
20,0.159191,0.814971,-0.557204,-0.060787,0.646821,1.730681
21,0.141449,0.823464,-0.549449,-0.163543,1.150092,1.324244
22,0.1375839999999999,0.827124,-0.544914,-0.134121,0.1927579999999999,0.187278
23,0.1272319999999999,0.8249040000000001,-0.550764,-0.348012,-0.048674,0.106413
24,0.117421,0.8187439999999999,-0.5620189999999999,-0.085302,0.002316,0.872993
25,0.157666,0.832658,-0.530864,-0.062192,0.5220779999999999,0.1869309999999999
26,0.207026,0.851103,-0.48245,0.021001,0.602358,0.179731
27,0.251946,0.8584860000000001,-0.446675,-0.068078,0.403446,0.504003
28,0.302269,0.863599,-0.403513,-0.1200329999999999,-0.036954,0.549387
29,0.338864,0.8713219999999999,-0.354912,-0.093121,-0.134277,0.389305
30,0.375838,0.8741979999999999,-0.307433,-0.269683,-0.204704,0.203292
31,0.407925,0.874289,-0.263074,-0.506618,-0.280631,0.112668
32,0.43381,0.8753209999999999,-0.2135699999999999,-0.393664,-0.1721349999999999,0.157632
33,0.454439,0.876303,-0.159899,-0.253268,-0.108649,0.2101469999999999
34,0.471364,0.8755850000000001,-0.105624,0.0288959999999999,-0.090933,0.22333
35,0.482268,0.8743110000000001,-0.054647,0.143449,-0.081022,0.095723
36,0.490504,0.8714219999999999,-0.004184,0.032201,-0.003456,-0.09306
37,0.497459,0.866316,0.044922,-0.276649,0.088945,-0.6234890000000001
38,0.503425,0.8589610000000001,0.09347,-0.284385,0.116015,-0.718958
39,0.504743,0.851999,0.138989,-0.241361,0.168631,-0.7035640000000001
40,0.50041,0.8472430000000001,0.178198,-0.155302,0.240587,-0.076803
41,0.4902899999999999,0.8461280000000001,0.208965,-0.427683,0.4763199999999999,-0.236675
42,0.480056,0.847153,0.227731,-0.485931,0.425415,-0.404519
43,0.464657,0.8518370000000001,0.241769,-0.281734,0.1930849999999999,-0.152535
44,0.438547,0.8609889999999999,0.2576,-0.368326,0.411578,-0.32419
45,0.4138409999999999,0.869181,0.270637,-0.4348979999999999,0.267767,-0.546623
46,0.391295,0.879984,0.269258,-0.439391,0.1401109999999999,-0.418641
47,0.364041,0.8953610000000001,0.256492,-0.8839229999999999,0.28895,-0.074943
48,0.3372989999999999,0.913728,0.226526,-1.054722,0.449248,-0.01095
49,0.309661,0.935982,0.167431,-0.842131,0.766045,0.100589
50,0.271432,0.958056,0.091865,-0.380441,1.368986,0.498879
51,0.227886,0.973569,0.0147409999999999,-0.32957,1.572329,0.6636350000000001
52,0.184162,0.979012,-0.087219,-0.366123,1.281883,0.138153
53,0.130945,0.973318,-0.188401,-0.408915,1.142435,0.1491549999999999
54,0.0877059999999999,0.961982,-0.258626,-0.2600389999999999,0.923897,-0.12295
55,0.040885,0.94141,-0.334764,-0.129554,0.778576,0.033571
56,0.001068,0.910631,-0.41321,-0.166076,0.295027,0.315752
57,-0.03455,0.878994,-0.475572,0.092747,-0.356442,0.475358
58,-0.066098,0.844454,-0.531529,0.347256,-0.581911,0.232579
59,-0.086646,0.811947,-0.577259,0.284125,-0.607831,0.342854
60,-0.112023,0.7814760000000001,-0.613792,0.238778,-0.657377,0.35865
61,-0.13855,0.755175,-0.6407109999999999,0.171143,-0.803072,0.2698
62,-0.166372,0.736028,-0.656185,-0.095911,-0.809285,0.149868
63,-0.1844329999999999,0.726591,-0.66185,-0.153625,-0.748976,0.1531829999999999
64,-0.186808,0.728152,-0.659464,-0.212453,-0.73096,0.211923
65,-0.176277,0.738962,-0.650275,-0.295632,-0.780771,0.092291
66,-0.159128,0.7557560000000001,-0.635221,-0.413259,-0.770908,-0.078692
67,-0.14995,0.776911,-0.6114890000000001,0.080461,-0.629572,0.065179
68,-0.146135,0.797553,-0.585276,-0.024595,-0.517676,0.048625
69,-0.1458799999999999,0.809596,-0.568567,-0.794565,0.330129,-0.413947
70,-0.147042,0.798112,-0.584286,0.993554,0.422896,0.663556
71,-0.117215,0.799764,-0.5887560000000001,-0.914081,-0.480367,0.442042
72,-0.091288,0.822264,-0.561732,-0.380681,-0.37126,-0.004262
73,-0.077045,0.825572,-0.559008,-0.25282,0.443685,0.160876
74,-0.070005,0.834483,-0.546563,-0.224077,0.4410449999999999,-0.248023
75,-0.061487,0.8457049999999999,-0.53009,0.008401,0.545683,-0.2742
76,-0.042368,0.861389,-0.506169,-0.039587,0.5154569999999999,-0.152446
77,-0.020648,0.879492,-0.475458,0.042223,0.570871,-0.1615049999999999
78,-0.001199,0.898085,-0.439813,0.007608,0.631548,-0.313407
79,0.016338,0.917212,-0.398053,-0.015667,0.675805,-0.241168
80,0.0393639999999999,0.937176,-0.346616,0.057895,0.624134,-0.143588
81,0.064427,0.954686,-0.290542,-0.118641,0.594234,-0.236023
82,0.087508,0.967915,-0.235525,-0.258941,0.454097,-0.3341929999999999
83,0.107863,0.97616,-0.188323,-0.4252,0.072897,-0.465363
84,0.119393,0.981349,-0.150626,-0.569542,-0.290705,-0.5486840000000001
85,0.118648,0.985094,-0.124498,-0.407527,-0.6153890000000001,-0.496321
86,0.1059599999999999,0.987922,-0.113004,-0.182666,-0.996314,-0.2482929999999999
87,0.088554,0.989438,-0.114711,-0.087104,-1.1095700000000002,-0.186467
88,0.069011,0.988935,-0.131276,0.1773269999999999,-1.0171940000000002,-0.212748
89,0.049991,0.98414,-0.170168,0.023617,-0.959879,-0.401991
90,0.036875,0.972741,-0.228919,-0.163615,-0.784829,-0.054452
91,0.027647,0.955982,-0.292104,-0.807966,-0.311878,0.127827
92,0.0177289999999999,0.947171,-0.3202239999999999,-1.145613,0.1784089999999999,0.556872
93,-0.008197,0.942825,-0.3331719999999999,-0.590924,1.922272,0.380444
94,-0.088522,0.913278,-0.3975909999999999,0.0320639999999999,1.879782,-0.706627
95,-0.154887,0.870974,-0.466268,-0.350331,0.780652,-0.841792
96,-0.179795,0.8356299999999999,-0.519027,-0.221298,0.916658,-0.18509
97,-0.218529,0.798075,-0.56153,-0.0505139999999999,0.602072,-0.282327
98,-0.250546,0.7625460000000001,-0.5964430000000001,-0.270099,-0.019763,-0.2060159999999999
99,-0.26496,0.737626,-0.621046,-0.315393,-0.126939,-0.095797
100,-0.267985,0.724282,-0.6352899999999999,-0.2235,-0.281289,0.002798
101,-0.261613,0.723241,-0.639121,-0.015441,-0.414952,0.111472
102,-0.249586,0.7338859999999999,-0.631754,0.0485209999999999,-0.532821,0.142115
103,-0.233261,0.753533,-0.614632,0.033142,-0.761894,0.309197
104,-0.2136429999999999,0.777066,-0.592046,-0.022502,-0.990079,0.5573779999999999
105,-0.191175,0.8006840000000001,-0.56776,0.090512,-1.262842,0.688045
106,-0.166107,0.82626,-0.538234,0.213135,-1.39523,0.734065
107,-0.136927,0.856022,-0.498467,0.343898,-1.185871,0.4182359999999999
108,-0.1122089999999999,0.878866,-0.463675,0.017772,-0.6759850000000001,0.17002
109,-0.096411,0.882266,-0.460764,0.540686,0.094175,0.171808
110,-0.083469,0.8757149999999999,-0.47555,0.527744,0.100725,0.186594
111,-0.021945,0.8925700000000001,-0.450366,-0.505887,0.371087,-0.241803
112,-0.015769,0.906296,-0.422338,0.398979,0.8747090000000001,0.101766
113,-0.013419,0.914845,-0.40357,0.463187,1.009197,-0.121942
114,-0.011476,0.919893,-0.391989,0.2295699999999999,0.782377,-0.173731
115,-0.01326,0.927389,-0.37385,-0.151885,0.4629,-0.45606
116,-0.007976,0.937411,-0.348118,-0.166035,0.499479,-0.371349
117,0.00789,0.951766,-0.306704,-0.125581,0.479783,-0.398282
118,0.029393,0.966338,-0.2555679999999999,-0.01711,0.262284,-0.273698
119,0.057045,0.978546,-0.197944,-0.079476,0.147034,-0.310159
120,0.082344,0.986542,-0.141211,-0.130104,0.028579,-0.378107
121,0.09985,0.990816,-0.091099,-0.2059139999999999,-0.195193,-0.391888
122,0.110698,0.992863,-0.044217,-0.287624,-0.38483,-0.535724
123,0.114519,0.993399,-0.00528,-0.370027,-0.5807869999999999,-0.718276
124,0.116959,0.992825,0.024571,-0.2767949999999999,-0.7242850000000001,-0.616032
125,0.116721,0.992321,0.040743,-0.220282,-0.757366,-0.266268
126,0.108974,0.993172,0.04145,-0.148449,-0.494576,0.0821
127,0.093485,0.995142,0.0306339999999999,-0.204492,0.021307,0.194402
128,0.067032,0.997743,0.001016,-0.325134,0.34706,0.101309
129,0.0353589999999999,0.99789,-0.0543299999999999,-0.409474,0.7142069999999999,-0.291541
130,0.001436,0.990577,-0.136906,-0.633379,1.461892,-0.048122
131,-0.047773,0.972041,-0.229877,-0.147799,0.909139,0.278201
132,-0.090265,0.956531,-0.27729,0.027918,0.481625,0.139183
133,-0.139374,0.940293,-0.310507,0.186294,0.79335,-0.142022
134,-0.191155,0.90656,-0.376297,-0.085609,0.63238,-0.416946
135,-0.217909,0.87418,-0.433956,-0.320619,-0.027576,0.081158
136,-0.247817,0.8416799999999999,-0.4797439999999999,0.0814049999999999,-0.374609,0.3513409999999999
137,-0.277933,0.807275,-0.520628,0.373301,-0.613351,0.351119
138,-0.30002,0.775026,-0.556163,0.603105,-0.956087,0.33636
139,-0.324786,0.745624,-0.581854,0.28699,-0.935565,0.374242
140,-0.3482179999999999,0.72095,-0.599141,0.246778,-0.818576,0.383504
141,-0.36756,0.704248,-0.607396,0.226935,-0.717858,0.348103
142,-0.3788809999999999,0.696546,-0.609317,0.0512899999999999,-0.702665,0.243869
143,-0.379775,0.698516,-0.606499,-0.087907,-0.566391,0.116219
144,-0.36973,0.711056,-0.598075,-0.063955,-0.5514180000000001,0.029472
145,-0.3477929999999999,0.731615,-0.5863229999999999,-0.211533,-0.5155649999999999,-0.410488
146,-0.328246,0.75588,-0.566475,-0.098694,-0.383764,-0.577018
147,-0.316601,0.7781560000000001,-0.542431,0.184032,-0.5169560000000001,-0.037785
148,-0.30269,0.792339,-0.52969,-0.698775,0.936817,-0.746067
149,-0.291542,0.791796,-0.536709,0.8183060000000001,0.4504979999999999,0.534557
150,-0.2478199999999999,0.8102020000000001,-0.53118,-0.0616279999999999,-0.171347,0.702994
151,-0.208999,0.842043,-0.4972689999999999,-0.191239,0.0177289999999999,-0.030746
152,-0.192817,0.854258,-0.48276,0.021278,0.326863,0.168093
153,-0.176727,0.87195,-0.456578,0.005188,0.309172,0.1419109999999999
154,-0.165025,0.8891129999999999,-0.426893,0.031984,0.2061329999999999,0.167173
155,-0.147305,0.907699,-0.392907,0.105099,0.172486,0.132394
156,-0.131295,0.926355,-0.353015,0.131264,0.1737119999999999,0.0668059999999999
157,-0.11577,0.943946,-0.309118,0.004778,0.135399,-0.184779
158,-0.094493,0.959671,-0.2647489999999999,-0.0054979999999999,0.061645,-0.235709
159,-0.061838,0.973478,-0.220241,-0.017737,-0.025511,-0.248554
160,-0.023423,0.984545,-0.173525,0.041337,-0.450305,-0.187986
161,0.012029,0.991728,-0.127745,-0.008032,-0.615538,-0.214556
162,0.040307,0.995775,-0.082429,0.026892,-0.7643449999999999,-0.202834
163,0.0616669999999999,0.997485,-0.034758,-0.013724,-0.496783,0.014205
164,0.078943,0.996643,0.0213819999999999,-0.1030369999999999,-0.370178,-0.035481
165,0.0888559999999999,0.993734,0.067698,-0.219181,-0.3184869999999999,-0.123972
166,0.091508,0.990488,0.1026859999999999,-0.250748,0.014608,-0.425546
167,0.085877,0.98734,0.133302,-0.171632,0.108943,-0.475008
168,0.074684,0.984495,0.158674,0.073524,0.370028,-0.5021800000000001
169,0.064944,0.983553,0.168493,0.07266,0.566908,-0.4041349999999999
170,0.05985,0.984466,0.165015,0.031733,0.528306,-0.302344
171,0.053307,0.985396,0.161672,0.038856,0.4467779999999999,-0.255696
172,0.046678,0.985893,0.16069,-0.080705,0.398003,-0.3074949999999999
173,0.041058,0.98611,0.160892,-0.080747,0.441594,-0.288089
174,0.034267,0.986316,0.161221,-0.09132,0.545072,-0.247769
175,0.024105,0.986887,0.159556,-0.166241,0.7161770000000001,0.047399
176,0.012762,0.987912,0.154439,-0.232123,0.6652399999999999,0.07693
177,0.000755,0.990346,0.138561,-0.3558119999999999,0.357402,-0.109234
178,-0.010392,0.995304,0.09616,-0.356917,0.279491,-0.363769
179,-0.036638,0.999235,0.013206,-0.150038,0.31972,-0.860771
180,-0.088607,0.991263,-0.097639,-0.092576,0.287698,-0.7595390000000001
181,-0.150138,0.969894,-0.191711,0.396857,0.601059,0.889495
182,-0.1730819999999999,0.955836,-0.237508,0.207033,0.676153,0.792974
183,-0.189,0.950127,-0.248048,0.13416,0.626015,0.422166
184,-0.218905,0.920722,-0.323019,0.179064,0.364724,-0.147181
185,-0.240998,0.8759709999999999,-0.417836,-0.272491,-0.056711,-1.033351
186,-0.262269,0.844773,-0.466438,0.09279,-0.415178,0.21209
187,-0.278933,0.8120890000000001,-0.5125430000000001,0.243579,-0.562455,0.324524
188,-0.300986,0.78109,-0.547083,0.2052679999999999,-0.733848,0.360712
189,-0.322085,0.753877,-0.572647,0.19855,-0.8166359999999999,0.457443
190,-0.339491,0.7307819999999999,-0.592198,0.259184,-0.7263109999999999,0.436451
191,-0.355297,0.713204,-0.604234,0.230435,-0.674141,0.351014
192,-0.368841,0.7045239999999999,-0.606297,0.058584,-0.714839,0.311131
193,-0.37208,0.7066979999999999,-0.6017710000000001,-0.070013,-0.693362,0.140193
194,-0.363959,0.719696,-0.59124,-0.072183,-0.6076199999999999,0.12661
195,-0.348501,0.7407130000000001,-0.5743560000000001,-0.079814,-0.57514,0.026794
196,-0.326361,0.7659779999999999,-0.553859,-0.15893,-0.406405,-0.349919
197,-0.30367,0.787818,-0.535836,-0.089366,-0.364417,-0.451133
198,-0.276856,0.803004,-0.527758,-0.045547,0.04778,0.09691
199,-0.239784,0.8205809999999999,-0.518791,-0.087868,0.946433,-0.328896
200,-0.196668,0.832227,-0.518375,-0.042315,0.944613,-0.009472
201,-0.1572569999999999,0.8546299999999999,-0.494843,-0.035355,0.53305,0.220047
202,-0.131751,0.8750540000000001,-0.465739,0.17794,-0.26397,0.299357
203,-0.12254,0.8897,-0.439783,0.046338,0.327875,0.105081
204,-0.125413,0.8989659999999999,-0.41967,-0.062743,0.4439149999999999,0.03225
205,-0.133881,0.906991,-0.399291,-0.184768,0.351203,-0.169572
206,-0.132774,0.916728,-0.376791,-0.1541819999999999,0.146337,-0.355097
207,-0.114712,0.929444,-0.350663,-0.1474339999999999,0.160491,-0.388869
208,-0.0874289999999999,0.943423,-0.319841,0.008282,0.145368,-0.363569
209,-0.058226,0.956553,-0.285667,0.025755,0.098226,-0.321404
210,-0.030978,0.968608,-0.246633,0.066302,-0.0227,-0.21458
211,-0.004297,0.979176,-0.2029359999999999,0.051523,-0.123357,-0.155645
212,0.020981,0.98768,-0.1550359999999999,-0.058044,-0.0676659999999999,-0.110116
213,0.044476,0.993548,-0.104267,-0.096478,-0.078844,-0.163769
214,0.0647399999999999,0.996559,-0.051615,-0.137449,-0.122047,-0.143789
215,0.080674,0.996731,-0.002079,-0.2243349999999999,-0.179852,-0.2411
216,0.091232,0.994911,0.042588,-0.16159,-0.193992,-0.362137
217,0.096496,0.991493,0.087255,0.011765,-0.2242969999999999,-0.397649
218,0.097137,0.986769,0.129747,0.073166,-0.179869,-0.4442609999999999
219,0.094202,0.981907,0.164216,-0.0303279999999999,-0.174138,-0.582017
220,0.090111,0.976423,0.196113,-0.116447,-0.0523659999999999,-0.725242
221,0.088304,0.970128,0.225911,-0.221361,0.155849,-0.611576
222,0.081277,0.968156,0.2367469999999999,-0.2444849999999999,0.193327,-0.578819
223,0.062783,0.971932,0.2266889999999999,-0.25773,0.252738,-0.324727
224,0.036153,0.978415,0.203418,-0.187826,0.5666140000000001,0.038053
225,0.009545,0.986619,0.162707,-0.546776,0.74597,0.215909
226,-0.006226,0.994198,0.1073109999999999,-0.303329,0.5414770000000001,-0.154781
227,-0.01948,0.999438,0.026987,-0.290075,0.536237,-0.074457
228,-0.046903,0.994523,-0.093331,-0.3377409999999999,0.781401,0.501229
229,-0.081436,0.979363,-0.184946,-0.11467,0.370567,0.316706
230,-0.098753,0.973048,-0.208361,-0.2557239999999999,0.45136,-0.09477
231,-0.138127,0.952823,-0.270257,0.044239,0.74165,0.176568
232,-0.152772,0.913188,-0.377807,-0.168898,-0.181758,-0.391632
233,-0.158872,0.884718,-0.438208,-0.123858,-0.498289,0.275275
234,-0.167689,0.8606370000000001,-0.480809,-0.029286,-0.676311,0.384663
235,-0.188194,0.834259,-0.518255,0.362205,-0.914322,0.335104
236,-0.210851,0.80887,-0.548876,0.202062,-0.625795,0.294756
237,-0.230758,0.788774,-0.569719,0.189666,-0.57538,0.389543
238,-0.249629,0.775349,-0.580097,0.197688,-0.681447,0.388309
239,-0.264998,0.76828,-0.58268,0.037581,-0.80989,0.335564
240,-0.271717,0.768104,-0.57981,-0.144924,-0.821464,0.229896
241,-0.268256,0.776584,-0.570044,-0.207376,-0.719699,0.139701
242,-0.257453,0.792237,-0.553238,-0.259851,-0.548722,-0.037246
243,-0.244175,0.806836,-0.537948,-0.1978869999999999,-0.455945,-0.234407
244,-0.225731,0.816753,-0.530993,-0.233055,-0.5680649999999999,0.157839
245,-0.1990309999999999,0.8330620000000001,-0.5161279999999999,-0.016255,0.026298,-0.3161469999999999
246,-0.150384,0.8503200000000001,-0.504316,0.333474,0.8404149999999999,-0.302264
247,-0.103319,0.87165,-0.479108,-0.021681,0.733193,-0.039172
248,-0.075239,0.888907,-0.451859,-0.118365,0.134958,0.011887
249,-0.050517,0.905843,-0.420581,-0.098058,-0.190572,0.091648
250,-0.03538,0.919849,-0.390663,-0.036443,-0.0856059999999999,0.007423
251,-0.026118,0.932186,-0.3610239999999999,0.05395,0.211948,0.000825
252,-0.01858,0.944397,-0.328268,0.062372,0.5900880000000001,-0.05781
253,-0.0094939999999999,0.956952,-0.290074,-0.0022559999999999,0.632235,-0.13702
254,0.005672,0.968981,-0.247049,0.024907,0.482755,-0.076788
255,0.018136,0.978908,-0.203466,0.101341,0.303822,0.015112
256,0.0334649999999999,0.98616,-0.162353,0.044294,0.275239,0.027862
257,0.052486,0.990747,-0.125116,0.0573309999999999,0.098517,-0.112845
258,0.073653,0.993567,-0.085947,-0.002348,-0.145667,-0.098577
259,0.096137,0.994496,-0.041492,-0.078009,-0.2812699999999999,-0.1154299999999999
260,0.1165829999999999,0.993173,0.001416,-0.244727,-0.357736,-0.266049
261,0.132723,0.990385,0.038829,-0.19443,-0.447981,-0.381587
262,0.145541,0.986411,0.076134,-0.157229,-0.492072,-0.418083
263,0.152313,0.981665,0.114544,-0.212234,-0.700521,-0.348492
264,0.147886,0.977636,0.149475,-0.188642,-0.773626,-0.265549
265,0.13557,0.974563,0.17842,-0.179867,-0.6165,-0.1769859999999999
266,0.125184,0.971216,0.202619,0.055098,-0.365762,-0.018705
267,0.118684,0.965975,0.229762,0.0261519999999999,-0.350939,-0.0749929999999999
268,0.111773,0.958308,0.262938,-0.030322,-0.055095,-0.288634
269,0.103139,0.949602,0.295978,0.04423,0.113325,-0.415958
270,0.097874,0.942169,0.320504,0.061413,0.213684,-0.622933
271,0.093782,0.935812,0.339771,0.19174,0.633142,-0.6331979999999999
272,0.084924,0.932333,0.351466,0.405524,0.939158,-0.5931649999999999
273,0.073373,0.932915,0.352521,0.502204,1.094429,-0.47923
274,0.060631,0.933459,0.353501,0.040595,0.8847790000000001,-0.199616
275,0.050731,0.932241,0.358241,-0.30064,0.985667,-0.288081
276,0.0399949999999999,0.932416,0.359144,-0.099687,0.806018,-0.350905
277,0.025883,0.937792,0.346208,-0.295476,0.367521,-0.3141489999999999
278,0.0074379999999999,0.949524,0.313583,-0.2140719999999999,0.329361,-0.23001
279,-0.008513,0.963608,0.267155,-0.144365,0.267471,-0.182912
280,-0.018133,0.976701,0.213806,-0.19195,0.21289,-0.316726
281,-0.028515,0.988659,0.147397,-0.291721,0.212711,-0.316373
282,-0.0500209999999999,0.996094,0.0726779999999999,-0.468717,0.192093,-0.207352
283,-0.076569,0.997058,0.000589,-0.29721,0.242871,0.272101
284,-0.096477,0.994183,-0.047748,-0.231496,0.129276,0.439899
285,-0.1029829999999999,0.993277,-0.052761,-0.15814,0.035181,0.573971
286,-0.1042569999999999,0.99311,-0.053394,0.049203,0.395028,-0.054242
287,-0.1208359999999999,0.98586,-0.11605,-0.026519,0.156779,0.2505409999999999
288,-0.143267,0.971189,-0.19041,-0.28668,-0.300596,0.031139
289,-0.161894,0.955917,-0.244955,-0.2662989999999999,-0.470856,0.097799
290,-0.179504,0.942067,-0.283337,-0.145417,-0.549687,0.206844
291,-0.196739,0.927485,-0.317893,-0.074165,-0.54835,0.252387
292,-0.218488,0.910587,-0.350836,0.079541,-0.6149020000000001,0.21543
293,-0.239556,0.894785,-0.376781,0.220223,-0.493784,0.231273
294,-0.257794,0.882511,-0.39333,0.3612329999999999,-0.38332,0.285877
295,-0.273418,0.872439,-0.405075,0.438289,-0.490404,0.259033
296,-0.2826599999999999,0.865509,-0.413509,0.226905,-0.573318,0.099361
297,-0.2838699999999999,0.867086,-0.409356,0.1290089999999999,-0.671972,0.165673
298,-0.272121,0.8771909999999999,-0.395573,0.117748,-0.5940949999999999,0.240559
299,-0.2474219999999999,0.8933559999999999,-0.375085,0.017044,-0.57399,0.201745
300,-0.213356,0.911904,-0.350575,-0.087822,-0.566109,0.027974
301,-0.170191,0.932336,-0.319022,-0.128378,-0.58735,-0.209679
302,-0.1192309999999999,0.953374,-0.2772219999999999,-0.2626969999999999,-0.4980979999999999,-0.387421
303,-0.074753,0.968599,-0.237101,-0.413574,0.095167,-0.688924
304,-0.073035,0.967471,-0.24219,-0.516854,0.882581,-1.087751
305,-0.097496,0.952679,-0.287901,-0.648903,1.7352169999999998,-0.8882459999999999
306,-0.0993,0.941126,-0.323129,-0.435459,-0.969202,-1.087974
307,-0.091582,0.93939,-0.330378,-0.110201,-1.20059,-0.868459
308,-0.095968,0.940052,-0.327238,-0.2077889999999999,-0.153324,0.004331
309,-0.114642,0.938323,-0.326186,-0.303815,-0.383895,0.341933
310,-0.131708,0.940558,-0.3130409999999999,-0.39913,-0.154349,0.398276
311,-0.133147,0.948588,-0.28713,-0.539704,0.397726,0.352087
312,-0.126289,0.950343,-0.284412,-0.224923,1.292547,-0.250271
313,-0.110813,0.945581,-0.305924,0.24274,0.380347,-0.102371
314,-0.092433,0.944572,-0.31501,0.145534,-0.584236,0.753273
315,-0.063959,0.94559,-0.318999,-0.232672,-0.402865,0.6891470000000001
316,-0.0277639999999999,0.957297,-0.287755,-0.397819,0.154016,0.4639479999999999
317,-0.008675,0.969618,-0.244451,-0.393364,0.448321,0.217031
318,-0.010356,0.976443,-0.215503,0.0519049999999999,0.620893,0.450214
319,0.001331,0.979359,-0.202097,0.218518,0.202037,0.167963
320,0.026876,0.98205,-0.186666,0.171702,0.0835019999999999,0.018682
321,0.060913,0.98441,-0.164971,0.195831,-0.026631,-0.010581
322,0.097109,0.985873,-0.136432,0.102323,-0.153613,0.2662239999999999
323,0.1348589999999999,0.986487,-0.0929789999999999,0.051024,-0.164069,0.313026
324,0.166209,0.984938,-0.047533,-0.167186,-0.05847,0.0309769999999999
325,0.182997,0.982984,-0.015561,-0.147428,-0.1031319999999999,-0.07828
326,0.189158,0.981914,0.0072239999999999,-0.0517679999999999,-0.1471049999999999,-0.0620799999999999
327,0.192791,0.980726,0.031542,0.187565,-0.231046,-0.056093
328,0.195983,0.978683,0.0612799999999999,0.291825,-0.312927,0.012236
329,0.199246,0.974946,0.098825,0.254153,-0.3249829999999999,0.009131
330,0.202733,0.968883,0.141952,0.190303,-0.278514,-0.027389
331,0.202464,0.96231,0.18153,0.065526,-0.163909,-0.301525
332,0.1964,0.955147,0.221596,0.07159,-0.156746,-0.341591
333,0.185423,0.947275,0.261287,0.0554679999999999,-0.046106,-0.497859
334,0.166971,0.941106,0.293978,0.081289,0.2250469999999999,-0.5408350000000001
335,0.1443569999999999,0.936805,0.318654,0.144232,0.236978,-0.5285380000000001
336,0.117815,0.935626,0.332726,0.191221,0.357145,-0.486092
337,0.090221,0.938013,0.334625,0.101933,0.293035,-0.568893
338,0.0603029999999999,0.94477,0.322113,0.020584,0.24891,-0.423187
339,0.020055,0.955922,0.292905,0.036006,0.223063,-0.533064
340,-0.028916,0.9705,0.239326,0.002076,0.534291,0.285119
341,-0.066825,0.984956,0.159316,-0.542474,0.627379,0.5506909999999999
342,-0.084238,0.994088,0.068401,-0.818716,0.782233,0.4471479999999999
343,-0.095725,0.995096,-0.024672,-0.8512209999999999,0.884192,0.321288
344,-0.118469,0.984726,-0.127547,-0.522888,0.8491059999999999,0.3008099999999999
345,-0.1433299999999999,0.961808,-0.233176,-0.237834,0.863173,0.382254
346,-0.167021,0.929881,-0.327743,0.0267779999999999,0.817067,0.331252
347,-0.199287,0.8990090000000001,-0.389948,0.1396099999999999,0.6258020000000001,0.007623
348,-0.2366059999999999,0.865618,-0.441266,0.238376,0.53282,0.159329
349,-0.276993,0.830723,-0.4828729999999999,0.23703,0.219844,0.484125
350,-0.316129,0.792621,-0.521352,0.292676,-0.136432,0.567098
351,-0.348632,0.754229,-0.5564060000000001,0.539626,-0.356295,0.459345
352,-0.38894,0.7145199999999999,-0.581533,0.592446,-0.602292,0.38674
353,-0.438481,0.672266,-0.59648,0.467365,-0.534159,0.263823
354,-0.477425,0.634988,-0.6073310000000001,0.3478469999999999,-0.483102,0.25261
355,-0.510759,0.600241,-0.6154930000000001,0.164904,-0.392462,0.201613
356,-0.536717,0.567229,-0.624644,0.184621,-0.346313,0.1625619999999999
357,-0.55202,0.538732,-0.636425,0.171176,-0.429204,0.131298
358,-0.5575720000000001,0.51359,-0.652177,0.002961,-0.4907319999999999,0.123628
359,-0.561645,0.494158,-0.6635949999999999,-0.045334,-0.4235399999999999,0.319021
360,-0.571878,0.483804,-0.662485,-0.064231,-0.1900869999999999,0.186944
361,-0.578652,0.4813449999999999,-0.658381,-0.074837,-0.156073,-0.008337
362,-0.575412,0.485547,-0.658135,-0.09277,-0.184063,-0.097053
363,-0.563318,0.496027,-0.6607770000000001,-0.14263,-0.195963,-0.186162
364,-0.544799,0.513021,-0.663324,-0.242921,-0.110174,-0.5054069999999999
365,-0.5268550000000001,0.53001,-0.664461,-0.188996,-0.067775,-0.134199
366,-0.5192979999999999,0.5431010000000001,-0.6598229999999999,-0.3549239999999999,0.32581,-0.095579
367,-0.5038130000000001,0.5526479999999999,-0.663888,-0.474138,0.912272,-0.120902
368,-0.477156,0.573508,-0.665887,0.070937,1.142511,-0.210776
369,-0.4362229999999999,0.605057,-0.666042,0.101293,0.358429,0.678035
370,-0.387969,0.646054,-0.657335,0.013427,0.12572,0.6884779999999999
371,-0.3433239999999999,0.6806399999999999,-0.647189,0.0959179999999999,0.5136649999999999,0.362139
372,-0.310245,0.709494,-0.632742,0.128635,0.649088,0.340673
373,-0.2726909999999999,0.741761,-0.6127199999999999,0.046876,0.69255,0.282825
374,-0.2321949999999999,0.7764979999999999,-0.585774,0.071062,0.414847,0.2711989999999999
375,-0.190139,0.8125829999999999,-0.5509539999999999,0.263794,0.3823789999999999,0.302464
376,-0.1489609999999999,0.8464889999999999,-0.5111359999999999,0.300831,0.260109,0.252164
377,-0.10782,0.873065,-0.475527,0.278657,0.1781589999999999,0.070284
378,-0.070119,0.894064,-0.442409,0.150457,-0.399038,-0.05013
379,-0.040175,0.913708,-0.4043719999999999,0.216902,-0.5126609999999999,-0.039461
380,-0.012968,0.930933,-0.3649489999999999,0.1459329999999999,-0.56225,-0.066204
381,0.007888,0.945174,-0.3264579999999999,0.15616,-0.731154,-0.046283
382,0.027486,0.956722,-0.289686,0.154826,-0.621929,0.17819
383,0.046908,0.968191,-0.245758,0.044721,-0.4205529999999999,0.105667
384,0.0571659999999999,0.976815,-0.206285,-0.098578,-0.1552359999999999,-0.046416
385,0.059811,0.982646,-0.175556,-0.022534,0.161428,-0.082059
386,0.0545159999999999,0.986422,-0.154884,0.050205,0.23538,-0.1007
387,0.040885,0.988981,-0.142245,0.133355,0.457766,-0.17381
388,0.024731,0.990628,-0.134287,0.29166,0.686755,-0.0359089999999999
389,0.018451,0.991791,-0.126486,0.243222,0.6399229999999999,-0.049341
390,0.021598,0.992868,-0.117202,0.020043,0.269034,-0.23961
391,0.02462,0.993501,-0.111074,-0.088706,0.172041,-0.3725989999999999
392,0.0266959999999999,0.993097,-0.114163,-0.145242,0.180258,-0.293155
393,0.02792,0.991176,-0.1295319999999999,-0.204998,0.195774,-0.014969
394,0.0241569999999999,0.987553,-0.155385,-0.2817719999999999,0.333889,0.338704
395,0.0136949999999999,0.981288,-0.192026,-0.350228,0.409718,0.378657
396,0.002664,0.970604,-0.2406449999999999,-0.342035,0.5786060000000001,0.358367
397,-0.019255,0.953981,-0.299232,-0.0574059999999999,0.4157399999999999,0.001625
398,-0.077151,0.91618,-0.393259,0.0333279999999999,0.563465,0.218439
399,-0.160641,0.857733,-0.488346,0.205395,0.538385,0.569584
400,-0.2067739999999999,0.816075,-0.539684,0.1691,0.483226,0.341564
401,-0.243946,0.783061,-0.572101,0.2620119999999999,0.775212,0.1168849999999999
402,-0.2624849999999999,0.720255,-0.6421279999999999,0.007267,0.662802,-0.436271
403,-0.28381,0.661712,-0.693963,-0.195468,0.142487,0.34298
404,-0.3060469999999999,0.609002,-0.731743,0.171281,0.0541909999999999,0.257744
405,-0.326528,0.561616,-0.760239,0.342855,0.128295,0.417206
406,-0.34263,0.52364,-0.780001,0.281336,-0.200841,0.602236
407,-0.36068,0.4933439999999999,-0.791529,0.267082,-0.411343,0.6292369999999999
408,-0.382151,0.470785,-0.795185,0.211466,-0.33251,0.604252
409,-0.4036949999999999,0.459741,-0.79099,0.23124,-0.3788849999999999,0.604589
410,-0.42006,0.459568,-0.782524,0.252915,-0.5238689999999999,0.4880899999999999
411,-0.427422,0.470566,-0.77193,0.220498,-0.656936,0.323779
412,-0.4239199999999999,0.491622,-0.760655,0.085663,-0.652496,0.201787
413,-0.411093,0.520579,-0.748329,0.044669,-0.466196,0.015083
414,-0.3960889999999999,0.555095,-0.7314229999999999,0.172654,-0.222942,0.0845419999999999
415,-0.392554,0.581285,-0.712745,0.1651369999999999,0.082412,0.3018409999999999
416,-0.389979,0.586119,-0.710195,-0.2529349999999999,0.76227,0.0065209999999999
417,-0.374181,0.5923689999999999,-0.713501,0.163259,0.563805,-0.295684
418,-0.344303,0.612781,-0.711302,0.2787969999999999,0.188443,0.803374
419,-0.319472,0.644879,-0.6943090000000001,-0.023377,0.349063,0.408023
420,-0.310132,0.66192,-0.682404,0.331158,0.5829979999999999,0.310837
421,-0.297171,0.678855,-0.671447,0.071585,0.6590050000000001,0.124144
422,-0.285891,0.700022,-0.6543939999999999,0.139041,0.526297,0.096868
423,-0.274905,0.72332,-0.6334270000000001,0.19588,0.477638,0.1135299999999999
424,-0.262316,0.747163,-0.610683,0.178759,0.374862,0.113704
425,-0.249244,0.7720640000000001,-0.584627,0.157477,0.3065489999999999,0.070986
426,-0.234525,0.797653,-0.555647,0.178647,0.229737,0.084531
427,-0.215294,0.82358,-0.5247470000000001,0.2584909999999999,0.1718579999999999,0.155408
428,-0.193399,0.849893,-0.490175,0.205667,0.0422569999999999,0.217516
429,-0.1704,0.877344,-0.448581,0.17159,-0.075373,0.170977
430,-0.146532,0.903637,-0.402445,0.078051,-0.342709,0.130075
431,-0.119684,0.928136,-0.352464,0.004876,-0.4102229999999999,0.046129
432,-0.096554,0.947677,-0.304264,0.070644,-0.3805389999999999,0.122761
433,-0.081869,0.961713,-0.261527,0.049352,-0.319532,0.054847
434,-0.070641,0.971487,-0.226302,0.044991,-0.3145199999999999,0.033782
435,-0.062901,0.978996,-0.193908,0.091954,-0.151909,0.054397
436,-0.0604669999999999,0.984298,-0.165801,0.121304,-0.0065,0.044906
437,-0.061683,0.988119,-0.140733,0.117347,0.057566,0.011887
438,-0.064217,0.991239,-0.11537,0.099998,0.214571,-0.03995
439,-0.068163,0.993657,-0.089379,0.129717,0.320323,-0.152976
440,-0.0728,0.995029,-0.067864,0.125641,0.308056,-0.113731
441,-0.075537,0.995827,-0.051091,0.093405,0.311134,-0.1085609999999999
442,-0.0816409999999999,0.995598,-0.045901,-0.030007,0.823845,-0.020918
443,-0.091546,0.993982,-0.060064,-0.093727,0.873969,0.082372
444,-0.098902,0.99064,-0.094021,-0.3397429999999999,0.703788,0.3368489999999999
445,-0.110117,0.984953,-0.133157,-0.348502,0.389238,0.370187
446,-0.1310069999999999,0.975127,-0.178758,-0.2146199999999999,0.446107,0.145097
447,-0.166971,0.958933,-0.229256,-0.053808,0.466253,-0.01377
448,-0.217684,0.933579,-0.284668,0.060884,0.494552,-0.35086
449,-0.277161,0.8941319999999999,-0.351713,0.13855,0.5889310000000001,-0.272127
450,-0.327548,0.8442069999999999,-0.4242869999999999,0.009585,0.773667,0.097612
451,-0.346389,0.81158,-0.470476,0.163161,0.376287,0.904817
452,-0.368407,0.795201,-0.4815859999999999,0.147139,0.456416,0.614719
453,-0.416865,0.749921,-0.51365,0.387781,0.595325,0.6701600000000001
454,-0.4389659999999999,0.680623,-0.5865630000000001,0.05475,-0.065114,-0.051758
455,-0.4460949999999999,0.625362,-0.640247,0.285161,-0.5648,0.378239
456,-0.458049,0.582292,-0.671657,0.567546,-0.638079,0.533351
457,-0.4713779999999999,0.538033,-0.698799,0.478306,-0.606011,0.567527
458,-0.48308,0.4978479999999999,-0.720262,0.414125,-0.516373,0.565904
459,-0.4917,0.464127,-0.736759,0.372346,-0.47406,0.509037
460,-0.4989119999999999,0.437796,-0.747942,0.275279,-0.450202,0.4407529999999999
461,-0.503259,0.420722,-0.754798,0.0781029999999999,-0.398475,0.148475
462,-0.498137,0.418579,-0.759374,0.020857,-0.318176,0.079396
463,-0.480008,0.435331,-0.761628,-0.014072,-0.227659,0.072938
464,-0.455717,0.4670729999999999,-0.757735,-0.016375,-0.19658,-0.153917
465,-0.436799,0.504791,-0.744574,0.000916,-0.039108,-0.4098449999999999
466,-0.4283079999999999,0.537553,-0.726351,0.365244,-0.291627,0.106447
467,-0.409805,0.570913,-0.711418,-0.184495,0.19401,0.283943
468,-0.3733039999999999,0.609834,-0.699101,-0.312563,1.325712,-0.237956
469,-0.334165,0.633554,-0.69781,0.2434059999999999,1.20751,-0.221944
470,-0.289199,0.6684439999999999,-0.685232,0.068847,-0.017718,0.500692
471,-0.2610699999999999,0.7034199999999999,-0.661089,0.208366,-0.0022789999999999,0.54172
472,-0.245456,0.734881,-0.632216,0.23598,-0.032412,0.433562
473,-0.241862,0.760522,-0.602582,0.126795,0.304649,0.317945
474,-0.246134,0.782205,-0.572336,-0.002523,0.553275,0.230188
475,-0.2460449999999999,0.805265,-0.539449,-0.015613,0.610324,0.184392
476,-0.2350429999999999,0.8304940000000001,-0.505004,0.191144,0.30029,0.052169
477,-0.21353,0.8547870000000001,-0.47301,0.244688,0.185863,0.0576659999999999
478,-0.18582,0.876951,-0.443195,0.192275,0.12279,0.071948
479,-0.15728,0.8977940000000001,-0.411365,0.108849,-0.141767,0.128498
480,-0.1292579999999999,0.918236,-0.374336,0.09572,-0.384209,0.170952
481,-0.106739,0.937112,-0.332295,0.1380809999999999,-0.4037409999999999,0.212468
482,-0.090249,0.95414,-0.285419,0.08532,-0.363564,0.231341
483,-0.07706,0.967285,-0.241688,-0.025021,-0.354522,0.031758
484,-0.0636299999999999,0.977125,-0.202903,-0.037551,-0.404646,0.033485
485,-0.051759,0.983818,-0.171507,-0.001326,-0.384361,0.025343
486,-0.047237,0.987395,-0.151033,-0.004994,-0.309905,-0.008162
487,-0.0482589999999999,0.989606,-0.135431,0.290492,-0.063184,0.029855
488,-0.052058,0.991862,-0.11615,0.357203,0.05216,-0.0265959999999999
489,-0.053602,0.994565,-0.089209,0.382261,0.199375,-0.157708
490,-0.05426,0.996727,-0.059841,0.350494,0.538261,-0.187198
491,-0.052568,0.997913,-0.037367,0.249177,0.59216,-0.18004
492,-0.050287,0.998413,-0.02515,0.152841,0.542038,-0.235501
493,-0.054501,0.997967,-0.032878,-0.005543,0.720691,0.1524
494,-0.059449,0.996682,-0.055504,-0.09735,0.7919069999999999,0.282356
495,-0.0672789999999999,0.994156,-0.084362,-0.279142,0.711258,0.362164
496,-0.08076,0.989006,-0.12384,-0.440694,0.473229,0.337707
497,-0.1034829999999999,0.979191,-0.17455,-0.190173,0.290554,0.239034
498,-0.142032,0.960999,-0.2372739999999999,-0.108548,0.387862,-0.208024
499,-0.1955839999999999,0.931797,-0.305767,-0.017353,0.3942219999999999,-0.125538
500,-0.246669,0.891447,-0.380091,-0.048039,0.69005,-0.329183
501,-0.283995,0.844492,-0.454064,0.1509839999999999,0.8982600000000001,-0.102287
502,-0.28696,0.8089350000000001,-0.513101,0.248294,0.5220279999999999,0.657297
503,-0.29456,0.783094,-0.547717,0.130421,0.5789979999999999,0.6716340000000001
504,-0.3264849999999999,0.733504,-0.596133,0.1851269999999999,0.433213,0.228198
505,-0.350431,0.673337,-0.6510090000000001,0.076032,-0.054944,0.149361
506,-0.36416,0.625167,-0.690326,0.278024,-0.192398,0.526676
507,-0.377851,0.580425,-0.721341,0.431486,-0.517467,0.590619
508,-0.396302,0.5386350000000001,-0.7435149999999999,0.318207,-0.763885,0.673477
509,-0.4151899999999999,0.502089,-0.758631,0.281172,-0.63272,0.708063
510,-0.429497,0.471236,-0.770368,0.284173,-0.4534289999999999,0.636991
511,-0.439177,0.4500409999999999,-0.77755,0.287078,-0.4399699999999999,0.5820390000000001
512,-0.44261,0.4388289999999999,-0.781999,0.1174,-0.5051439999999999,0.474657
513,-0.440155,0.440692,-0.782338,0.0619809999999999,-0.414935,0.35236
514,-0.430745,0.458391,-0.777389,0.03066,-0.268205,0.1827079999999999
515,-0.412549,0.490263,-0.767752,-0.071109,-0.10211,-0.3285619999999999
516,-0.3909019999999999,0.526713,-0.754829,-0.011854,-0.136973,-0.349846
517,-0.378243,0.5587770000000001,-0.7380369999999999,0.3761219999999999,-0.135498,0.15567
518,-0.348511,0.587244,-0.730535,-0.084793,0.991476,-0.38772
519,-0.31072,0.611739,-0.727479,-0.181025,1.54033,-0.496093
520,-0.274946,0.637338,-0.719863,0.180402,0.4456239999999999,0.423079
521,-0.241176,0.673122,-0.699098,-0.019536,-0.01675,0.282762
522,-0.2187889999999999,0.704464,-0.6751729999999999,0.309792,0.144871,0.405032
523,-0.206669,0.728024,-0.653656,0.147267,0.260349,0.125198
524,-0.203603,0.7480600000000001,-0.6316229999999999,0.0599419999999999,0.388002,0.186051
525,-0.201403,0.7712479999999999,-0.603829,0.090212,0.34121,0.186105
526,-0.1945059999999999,0.795817,-0.573444,0.2402369999999999,0.2465719999999999,0.2102239999999999
527,-0.183629,0.820304,-0.541642,0.238164,0.186669,0.138093
528,-0.167245,0.8453069999999999,-0.507424,0.197793,0.186019,0.135278
529,-0.146744,0.8703139999999999,-0.470122,0.131027,0.026003,0.124297
530,-0.12575,0.8944190000000001,-0.429179,0.128039,-0.215937,0.166682
531,-0.10718,0.91809,-0.3815969999999999,0.153643,-0.346542,0.268728
532,-0.091534,0.939493,-0.330101,0.149228,-0.388605,0.174492
533,-0.079163,0.956525,-0.280688,0.094956,-0.4380159999999999,0.106891
534,-0.065818,0.970016,-0.233942,-0.047921,-0.452209,0.092203
535,-0.0523519999999999,0.979362,-0.195192,-0.093232,-0.401176,0.03531
536,-0.044269,0.985353,-0.164651,-0.0278899999999999,-0.3754139999999999,0.026163
537,-0.044097,0.988729,-0.143039,0.144546,-0.1052,0.092349
538,-0.049121,0.990319,-0.129794,0.224719,0.087226,0.0228449999999999
539,-0.054308,0.991378,-0.119209,0.285341,0.270066,-0.038705
540,-0.052712,0.993093,-0.104773,0.098702,0.4247689999999999,-0.102014
541,-0.04598,0.995272,-0.085488,0.0294399999999999,0.3240639999999999,-0.143256
542,-0.042594,0.996663,-0.06956,0.06797,0.384013,-0.2191519999999999
543,-0.042475,0.99715,-0.06227,0.0743809999999999,0.395459,-0.166383
544,-0.046872,0.996806,-0.064571,-0.0582769999999999,0.630147,0.056087
545,-0.056058,0.995246,-0.079576,-0.12659,0.671227,0.312807
546,-0.066536,0.992141,-0.105923,-0.1718829999999999,0.566865,0.479016
547,-0.079484,0.98672,-0.141622,-0.136535,0.4056909999999999,0.409872
548,-0.097307,0.978583,-0.181375,-0.042555,0.229791,0.117532
549,-0.118768,0.968707,-0.2179289999999999,0.031686,0.2674539999999999,-0.288128
550,-0.146468,0.955435,-0.256289,0.2570179999999999,0.498484,-0.615476
551,-0.174491,0.93224,-0.316976,0.209296,0.7051350000000001,-0.458796
552,-0.190236,0.895911,-0.40143,0.1753279999999999,0.831261,-0.013425
553,-0.202394,0.854894,-0.4776899999999999,0.295686,0.730952,0.577971
554,-0.205388,0.8250129999999999,-0.526464,0.224782,0.199767,0.915563
555,-0.2112679999999999,0.804752,-0.554739,0.168207,0.09306,0.8676969999999999
556,-0.2340679999999999,0.77757,-0.583604,0.145552,0.167285,0.485551
557,-0.266389,0.728483,-0.631147,-0.028411,-0.15315,0.249967
558,-0.30175,0.680158,-0.668078,-0.071251,-0.5628029999999999,0.369143
559,-0.332283,0.63699,-0.695578,0.097389,-0.4910239999999999,0.6013850000000001
560,-0.353288,0.593486,-0.723159,0.318056,-0.42213,0.47441
561,-0.367263,0.554826,-0.7465149999999999,0.31845,-0.406403,0.5196770000000001
562,-0.3800699999999999,0.522562,-0.763199,0.261478,-0.452677,0.493515
563,-0.39223,0.497959,-0.7734270000000001,0.231876,-0.404957,0.397207
564,-0.398372,0.482417,-0.7801100000000001,0.093425,-0.3573409999999999,0.282063
565,-0.394169,0.4767949999999999,-0.7856810000000001,-0.085766,-0.345417,0.256247
566,-0.387886,0.4870819999999999,-0.782492,-0.164467,-0.225806,0.393423
567,-0.382634,0.511992,-0.7690600000000001,-0.038234,-0.1537,0.267961
568,-0.368021,0.54445,-0.753746,-0.029761,-0.158769,0.039405
569,-0.348825,0.580213,-0.7359829999999999,0.19851,-0.2272159999999999,-0.233469
570,-0.327709,0.611256,-0.720396,-0.138996,0.4469109999999999,-0.035006
571,-0.29596,0.633337,-0.715044,-0.398955,1.045023,-0.402433
572,-0.255846,0.6550020000000001,-0.710993,0.300097,0.886791,-0.182149
573,-0.20356,0.6844600000000001,-0.700054,0.114647,0.298328,0.272335
574,-0.1700539999999999,0.7091189999999999,-0.684272,0.06895,0.121951,0.281501
575,-0.148978,0.729348,-0.667723,0.119208,-0.07676,0.199842
576,-0.13776,0.749926,-0.647015,0.179341,0.135358,0.064725
577,-0.135212,0.771835,-0.6212770000000001,0.106846,0.5275270000000001,0.193817
578,-0.132289,0.793519,-0.593989,0.136272,0.4660479999999999,0.171778
579,-0.125139,0.814982,-0.565808,0.204546,0.374272,0.0625889999999999
580,-0.115265,0.837658,-0.53389,0.106491,0.1082349999999999,0.155518
581,-0.1073809999999999,0.861604,-0.4960859999999999,0.068303,0.037947,0.164696
582,-0.098388,0.8859389999999999,-0.45324,0.077987,-0.026655,0.221551
583,-0.088659,0.909559,-0.405999,0.160879,-0.159071,0.276619
584,-0.077481,0.929207,-0.361336,0.154905,-0.194679,0.255181
585,-0.0647539999999999,0.94506,-0.320407,0.092418,-0.226631,0.230594
586,-0.045787,0.958728,-0.2806,-0.014302,-0.2645139999999999,0.186698
587,-0.0249509999999999,0.968871,-0.24629,-0.013334,-0.345763,0.043806
588,-0.00782,0.975579,-0.219491,-0.038857,-0.468254,0.01954
589,0.005693,0.980128,-0.198264,0.077041,-0.532999,0.071799
590,0.012783,0.982985,-0.183216,0.062336,-0.508055,0.023991
591,0.017461,0.985482,-0.168849,0.159617,-0.396569,0.115993
592,0.021417,0.988292,-0.151032,0.132804,-0.276805,0.191865
593,0.024378,0.991785,-0.125531,0.0767419999999999,-0.2036079999999999,0.224255
594,0.0260529999999999,0.99524,-0.093849,0.10357,0.022704,0.183448
595,0.026012,0.997699,-0.0625169999999999,-0.045513,0.4506189999999999,0.017122
596,0.023435,0.999002,-0.037874,-0.008008,0.548819,-0.173979
597,0.018369,0.99965,-0.018762,0.134067,0.745483,-0.433631
598,0.009229,0.999932,-0.006353,0.4139739999999999,0.901359,-0.34402
599,0.002043,0.99999,-0.002252,0.246278,0.860347,0.006235
600,-0.001202,0.999984,0.004291,-0.065067,0.8924110000000001,0.114117
601,-0.006984,0.999948,0.006612,-0.159123,0.5790930000000001,0.046168
602,-0.018641,0.999807,-0.005158,-0.207281,0.306437,-0.026398
603,-0.033453,0.998738,-0.037311,-0.113917,0.187251,-0.051709
604,-0.04672,0.995525,-0.082079,0.105268,0.141545,0.015353
605,-0.0535389999999999,0.989906,-0.131188,-0.0145759999999999,0.220452,0.03135
606,-0.060344,0.979159,-0.193899,-0.170659,0.252363,0.100439
607,-0.071811,0.96016,-0.270049,-0.26402,0.316191,0.157852
608,-0.077832,0.938095,-0.337508,-0.199053,0.119888,0.577513
609,-0.070878,0.922151,-0.380272,-0.207152,0.062102,0.7207100000000001
610,-0.0656409999999999,0.918796,-0.389226,-0.2321349999999999,0.134014,0.666341
611,-0.094132,0.90317,-0.418826,0.124848,0.694333,0.330355
612,-0.131614,0.869561,-0.475956,-0.148705,0.2589639999999999,0.168263
613,-0.151739,0.843817,-0.514725,-0.309886,-0.086814,0.236923
614,-0.161344,0.8247610000000001,-0.54197,-0.088976,-0.412239,0.586251
615,-0.175493,0.809133,-0.560804,0.011491,-0.394048,0.618787
616,-0.195075,0.7930619999999999,-0.577056,0.089957,-0.379533,0.622848
617,-0.210821,0.778616,-0.591022,0.173971,-0.4220939999999999,0.502948
618,-0.222328,0.767895,-0.600751,0.24836,-0.493802,0.536542
619,-0.23189,0.761073,-0.605797,0.307177,-0.563182,0.44091
620,-0.239485,0.757775,-0.606975,0.2503039999999999,-0.577019,0.395214
621,-0.239513,0.7615,-0.6022850000000001,0.179729,-0.603861,0.397115
622,-0.2296429999999999,0.77168,-0.593101,0.064817,-0.5607880000000001,0.5667800000000001
623,-0.212413,0.7840239999999999,-0.5832510000000001,-0.0430339999999999,-0.445233,0.469405
624,-0.185897,0.800297,-0.570054,-0.0688179999999999,-0.414494,0.366181
625,-0.149078,0.82476,-0.545473,-0.067307,-0.192634,0.042864
626,-0.1024289999999999,0.856079,-0.506587,-0.154117,0.083939,-0.047993
627,-0.066065,0.8772620000000001,-0.475437,-0.395254,1.397457,-0.69653
628,-0.0460649999999999,0.862894,-0.5032760000000001,-0.488404,1.271491,-0.84821
629,-0.0335139999999999,0.83588,-0.547884,-0.516229,0.052777,-0.8692
630,-0.02854,0.821528,-0.569449,-0.317926,-0.842341,-0.438013
631,-0.028443,0.816576,-0.5765319999999999,-0.284438,0.180052,0.229959
632,-0.043891,0.812371,-0.5814819999999999,-0.362207,0.1921759999999999,0.4577479999999999
633,-0.068009,0.81271,-0.578681,-0.316665,0.12685,0.585441
634,-0.074009,0.8229559999999999,-0.5632590000000001,-0.403469,-0.051762,0.495372
635,-0.076156,0.8364809999999999,-0.542673,-0.225571,0.1721099999999999,0.519007
636,-0.080332,0.8439139999999999,-0.530425,0.040048,0.517781,0.405837
637,-0.071894,0.845248,-0.52951,0.1446319999999999,0.239728,0.309753
638,-0.055571,0.841735,-0.537017,-0.043946,-0.100921,1.024322
639,-0.013455,0.849399,-0.527574,-0.232319,-0.203708,0.80771
640,0.031353,0.8730629999999999,-0.486591,-0.248913,0.266936,0.464343
641,0.0533789999999999,0.8923409999999999,-0.448185,-0.043598,0.440377,-0.227733
642,0.057248,0.8958659999999999,-0.440612,0.195956,0.070671,0.400115
643,0.100994,0.9004690000000001,-0.423022,0.322559,0.043516,0.536044
644,0.174541,0.913927,-0.366419,-0.0530659999999999,-0.051485,0.262202
645,0.232535,0.919998,-0.31547,-0.229895,-0.2187349999999999,0.317271
646,0.273209,0.92318,-0.270342,-0.316667,-0.220528,0.311434
647,0.302255,0.925997,-0.226188,-0.265329,-0.183153,0.304161
648,0.324957,0.927651,-0.184001,-0.182089,-0.135353,0.299663
649,0.3461619999999999,0.928404,-0.135007,0.070022,0.006456,0.364286
650,0.363811,0.927533,-0.085509,0.067082,0.029117,0.240905
651,0.372784,0.927023,-0.040591,0.0134919999999999,0.078272,0.151233
652,0.378841,0.925429,-0.0069019999999999,-0.025218,0.14528,-0.236415
653,0.384693,0.922857,0.01822,0.030147,0.029169,-0.361237
654,0.387688,0.920167,0.054564,-0.1502609999999999,0.075103,-0.1140119999999999
655,0.384589,0.918255,0.094264,-0.228232,0.120548,-0.124263
656,0.377181,0.9187,0.117093,-0.1436599999999999,0.210054,-0.320615
657,0.367827,0.920181,0.133997,-0.094848,0.210526,-0.221216
658,0.356886,0.921781,0.151453,-0.093199,0.225375,-0.256265
659,0.348078,0.923872,0.159021,-0.137904,0.210253,-0.20524
660,0.340185,0.92631,0.16189,-0.370688,0.2544909999999999,-0.24058
661,0.330583,0.930562,0.157336,-0.397966,0.2239489999999999,-0.325
662,0.318249,0.937565,0.140264,-0.236996,0.352123,-0.164373
663,0.3050489999999999,0.946105,0.108702,-0.338008,0.374391,0.1163049999999999
664,0.28981,0.955122,0.061139,-0.378678,0.402116,0.202807
665,0.275509,0.961287,0.003031,-0.806027,0.656389,0.317831
666,0.259542,0.964137,-0.05538,-0.685415,0.701497,0.600653
667,0.235945,0.965094,-0.11363,-0.3408489999999999,0.488458,0.309629
668,0.200574,0.961065,-0.1900349999999999,-0.19264,0.567285,0.209826
669,0.156357,0.94519,-0.286636,0.033981,0.441239,-0.062562
670,0.1228549999999999,0.922901,-0.364901,-0.270759,-0.055103,0.117495
671,0.120698,0.90826,-0.400609,-0.262696,0.081333,0.234013
672,0.116365,0.894149,-0.432377,-0.173631,0.068635,0.3231239999999999
673,0.104238,0.879443,-0.464443,-0.020543,-0.180148,0.376949
674,0.090832,0.8653120000000001,-0.492929,0.071933,-0.477693,0.38244
675,0.0782679999999999,0.8532219999999999,-0.515636,0.095285,-0.691463,0.395473
676,0.063947,0.845274,-0.530487,-0.0526549999999999,-0.74156,0.365692
677,0.056951,0.843249,-0.534493,-0.086095,-0.723635,0.353035
678,0.05993,0.848399,-0.525948,-0.121438,-0.777293,0.315637
679,0.071078,0.859926,-0.50544,-0.165056,-0.762712,0.248726
680,0.088127,0.875144,-0.475763,-0.226539,-0.624045,0.14718
681,0.111177,0.892035,-0.438072,-0.269457,-0.574271,0.03379
682,0.1438809999999999,0.908393,-0.392573,-0.299825,-0.492805,-0.157476
683,0.183397,0.921436,-0.342511,-0.403825,-0.218784,-0.330203
684,0.213022,0.928439,-0.304328,-0.491327,1.529417,-0.994027
685,0.224683,0.923531,-0.3108039999999999,-0.491697,1.617881,-0.574832
686,0.225288,0.913313,-0.339259,-0.436424,0.1233539999999999,-0.685018
687,0.2217869999999999,0.902371,-0.3695,-0.601547,-0.075802,-0.315558
688,0.221505,0.8981110000000001,-0.379902,-0.450402,0.213004,-0.053997
689,0.214246,0.8997940000000001,-0.380081,-0.315305,0.4896859999999999,0.440949
690,0.209621,0.902971,-0.375093,-0.254909,0.375669,0.963273
691,0.211571,0.904119,-0.371213,-0.1847619999999999,-0.037725,0.646695
692,0.206913,0.903911,-0.3743309999999999,-0.250706,-0.4002489999999999,0.5565060000000001
693,0.205559,0.909954,-0.360168,-0.457528,-0.123989,0.821838
694,0.213686,0.923129,-0.319629,-0.464006,0.391446,-0.08656
695,0.215604,0.931842,-0.291852,0.027682,0.652845,-0.1373319999999999
696,0.225538,0.934729,-0.274601,0.249575,0.244364,0.3870429999999999
697,0.255404,0.939367,-0.2287989999999999,-0.048358,-0.067175,0.467844
698,0.290061,0.940845,-0.175114,-0.320563,0.03291,0.217152
699,0.312032,0.940397,-0.135201,-0.320363,-0.260053,0.018731
700,0.322495,0.940932,-0.103119,-0.238938,-0.329192,-0.0549169999999999
701,0.326981,0.942856,-0.0640039999999999,-0.068848,-0.2445679999999999,-0.046531
702,0.324884,0.945548,-0.019433,-0.000864,-0.058524,-0.120002
703,0.31689,0.948126,0.025012,0.0290269999999999,0.1218349999999999,-0.123325
704,0.304907,0.950182,0.064595,-0.047186,0.105039,-0.193242
705,0.291209,0.951909,0.095147,-0.077982,0.1471049999999999,-0.2772449999999999
706,0.277239,0.953909,0.114813,-0.110873,0.200678,-0.402838
707,0.265436,0.955859,0.125949,-0.113337,0.392866,-0.429858
708,0.257404,0.957126,0.132813,-0.151325,0.430142,-0.440659
709,0.2521199999999999,0.95719,0.142157,-0.148925,0.441583,-0.440725
710,0.245175,0.957216,0.153661,-0.18681,0.4262829999999999,-0.52741
711,0.236725,0.957946,0.162134,-0.2182469999999999,0.307344,-0.591364
712,0.226888,0.960431,0.161492,-0.238683,0.251208,-0.309182
713,0.2138719999999999,0.965764,0.146782,-0.297353,0.421336,-0.076958
714,0.194131,0.973934,0.117269,-0.44613,0.463703,0.048869
715,0.167165,0.983141,0.074013,-0.604467,0.417525,0.112816
716,0.133118,0.991022,0.011946,-0.463196,0.383367,0.062914
717,0.0904919999999999,0.992575,-0.081211,-0.101371,0.6060270000000001,0.022297
718,0.036318,0.983959,-0.1746309999999999,-0.117876,0.578907,-0.299627
719,-0.0133599999999999,0.968659,-0.248019,-0.094824,0.615585,-0.207013
720,-0.0465779999999999,0.950883,-0.306012,-0.0765899999999999,0.445479,0.183454
721,-0.080167,0.927441,-0.365265,0.302625,0.758792,-0.098221
722,-0.098701,0.8912030000000001,-0.4427279999999999,0.021431,0.126726,-0.130194
723,-0.12525,0.8549459999999999,-0.503363,-0.179316,-0.3785969999999999,0.390234
724,-0.151744,0.8167399999999999,-0.55669,-0.0024,-0.450559,0.279988
725,-0.174531,0.7793640000000001,-0.601769,0.072709,-0.479971,0.349037
726,-0.199211,0.743675,-0.6381680000000001,0.087669,-0.531547,0.387542
727,-0.226735,0.7120770000000001,-0.6644800000000001,0.0757029999999999,-0.654612,0.459585
728,-0.254578,0.686109,-0.681499,0.167526,-0.7230810000000001,0.492184
729,-0.2803739999999999,0.667191,-0.690103,0.173761,-0.706299,0.4905029999999999
730,-0.298774,0.657266,-0.691904,0.00199,-0.638162,0.408136
731,-0.303767,0.657816,-0.6892020000000001,-0.0528309999999999,-0.576593,0.310739
732,-0.293556,0.6674220000000001,-0.6843739999999999,-0.120003,-0.5182680000000001,0.184435
733,-0.2739769999999999,0.686001,-0.674044,-0.25236,-0.490658,0.02872
734,-0.254213,0.713095,-0.65335,-0.307112,-0.356864,-0.243668
735,-0.240675,0.746293,-0.620579,0.003188,-0.275986,-0.506695
736,-0.224878,0.7751939999999999,-0.590338,0.3674409999999999,-0.441164,0.08309
737,-0.19562,0.79422,-0.575276,-0.425947,0.8497469999999999,-0.513454
738,-0.163356,0.814292,-0.55699,-0.17989,1.111505,-0.7378100000000001
739,-0.1215589999999999,0.829324,-0.545379,-0.014809,0.8729,-0.367066
740,-0.092676,0.8515020000000001,-0.516091,0.005915,-0.174546,0.2368849999999999
741,-0.079917,0.8710030000000001,-0.484727,0.038977,-0.120957,0.137285
742,-0.07736,0.886865,-0.455499,-0.131685,0.161521,0.033685
743,-0.0831809999999999,0.901553,-0.424589,-0.144739,0.372159,-0.042437
744,-0.0861,0.917164,-0.389088,-0.068014,0.316433,-0.102229
745,-0.0777419999999999,0.933999,-0.348704,-0.000765,0.213142,-0.213522
746,-0.05841,0.9503,-0.305793,0.164413,0.205065,-0.187066
747,-0.034241,0.964293,-0.262596,0.175247,0.096833,-0.1446
748,-0.007167,0.975711,-0.2189239999999999,0.167812,-0.1130549999999999,-0.117563
749,0.020932,0.984529,-0.1739359999999999,0.0563539999999999,-0.372469,-0.102904
750,0.049354,0.990644,-0.127192,-0.0588299999999999,-0.609556,-0.1098069999999999
751,0.073464,0.994297,-0.077237,-0.115472,-0.608677,-0.179766
752,0.089643,0.995543,-0.02908,-0.046415,-0.553481,-0.199496
753,0.101844,0.994655,0.016641,-0.086844,-0.551647,-0.172449
754,0.110193,0.992033,0.060952,-0.153849,-0.483,-0.177377
755,0.1120569999999999,0.988667,0.099833,-0.127361,-0.344182,-0.270518
756,0.10833,0.985525,0.130348,-0.017921,-0.204916,-0.363426
757,0.1065059999999999,0.982203,0.154657,0.133851,0.335378,-0.335077
758,0.107714,0.977838,0.179489,0.12753,0.542624,-0.316284
759,0.1107269999999999,0.973884,0.198181,-0.20524,0.685387,-0.514054
760,0.114645,0.971979,0.205182,-0.438391,0.680975,-0.628979
761,0.110649,0.975179,0.191754,-0.451134,0.6783399999999999,-0.5872470000000001
762,0.092956,0.982338,0.162353,-0.123001,0.779396,-0.1735529999999999
763,0.068682,0.988651,0.1335609999999999,-0.10959,0.980831,-0.006226
764,0.04601,0.993628,0.102825,-0.172734,0.713784,0.16837
765,0.0242439999999999,0.997601,0.0647399999999999,-0.294584,0.25838,0.0603059999999999
766,-0.002239,0.999953,0.0087549999999999,-0.269962,0.132523,-0.235348
767,-0.038631,0.996723,-0.070993,-0.1024819999999999,0.174542,-0.516409
768,-0.091168,0.983148,-0.158425,-0.00336,0.357916,-0.579048
769,-0.141005,0.962017,-0.233738,0.106978,0.787037,-0.392468
770,-0.173531,0.934706,-0.310169,0.3136219999999999,0.536227,0.274021
771,-0.188163,0.909853,-0.369805,0.328559,0.163268,0.505624
772,-0.205621,0.876182,-0.435911,0.071221,0.091637,-0.1055779999999999
773,-0.22689,0.834067,-0.50284,-0.094841,-0.157736,0.1547869999999999
774,-0.249832,0.7925399999999999,-0.55629,-0.00734,-0.4542069999999999,0.2555699999999999
775,-0.2686659999999999,0.754029,-0.599378,0.0695539999999999,-0.648927,0.3647289999999999
776,-0.285152,0.719733,-0.632983,0.069545,-0.648734,0.424777
777,-0.299641,0.69047,-0.658379,0.111714,-0.716731,0.497521
778,-0.3097519999999999,0.6668430000000001,-0.677769,0.11827,-0.672702,0.5126689999999999
779,-0.314262,0.649818,-0.692079,0.196251,-0.566184,0.46396
780,-0.314428,0.641204,-0.6999920000000001,0.117834,-0.640242,0.385326
781,-0.3088849999999999,0.641642,-0.702056,0.058259,-0.632365,0.343566
782,-0.299376,0.650147,-0.698341,-0.053956,-0.549896,0.2090219999999999
783,-0.2862429999999999,0.665622,-0.689209,-0.161053,-0.427127,-0.0137939999999999
784,-0.270794,0.692,-0.669181,-0.193959,-0.350813,-0.1398859999999999
785,-0.253056,0.726626,-0.638728,0.201131,-0.374102,0.0195259999999999
786,-0.227892,0.760419,-0.6081310000000001,0.08739,-0.456739,0.261375
787,-0.197257,0.784779,-0.587543,-0.421106,0.030376,0.022815
788,-0.162455,0.807052,-0.567689,-0.153662,1.575272,-1.200072
789,-0.119821,0.8238110000000001,-0.554053,0.1062859999999999,0.45393,0.199347
790,-0.083137,0.850123,-0.519976,-0.188882,0.06954,0.213732
791,-0.057576,0.873458,-0.483477,0.0675559999999999,-0.006866,0.168048
792,-0.045594,0.891436,-0.450841,-0.099838,0.096739,0.023015
793,-0.040924,0.907294,-0.418494,-0.172546,0.180917,0.047614
794,-0.038071,0.924316,-0.379717,-0.139053,0.226563,0.044802
795,-0.030983,0.939884,-0.340075,0.0572429999999999,0.158093,-0.069165
796,-0.014476,0.953938,-0.29964,0.195064,0.179927,-0.145703
797,0.009925,0.966754,-0.2555,0.047875,0.054273,-0.229882
798,0.039641,0.977065,-0.2091969999999999,-0.070495,-0.24005,-0.260209
799,0.070044,0.984167,-0.162786,-0.0784059999999999,-0.630606,-0.270731
800,0.099121,0.988312,-0.1157779999999999,-0.071686,-0.702377,-0.263357
801,0.1226329999999999,0.990374,-0.0641159999999999,-0.082883,-0.603243,-0.214327
802,0.137496,0.990398,-0.0140229999999999,-0.260329,-0.4594229999999999,-0.171432
803,0.142327,0.989261,0.033097,-0.2994159999999999,-0.453708,-0.188523
804,0.137694,0.987644,0.074759,-0.281904,-0.359928,-0.155463
805,0.125151,0.986084,0.109382,-0.107359,-0.136338,-0.200614
806,0.110569,0.984192,0.138311,0.047863,0.061599,-0.22614
807,0.096005,0.982202,0.161404,0.263965,0.464331,-0.21539
808,0.093244,0.978871,0.181953,0.131792,0.487529,-0.102134
809,0.0942419999999999,0.973774,0.207053,-0.0559879999999999,0.466381,-0.267112
810,0.097988,0.968978,0.226868,-0.147564,0.531129,-0.720276
811,0.104067,0.967479,0.230527,-0.068789,0.4916729999999999,-0.7831239999999999
812,0.102889,0.970472,0.2181449999999999,-0.148802,0.536456,-0.347539
813,0.087008,0.974878,0.205013,-0.193163,0.5511689999999999,0.027272
814,0.063429,0.97964,0.190445,-0.274915,0.381337,0.175323
815,0.041154,0.984921,0.168005,-0.339677,0.39513,0.104898
816,0.023771,0.990289,0.136941,-0.3654449999999999,0.226936,0.05683
817,0.00707,0.995749,0.091783,-0.276937,0.293542,-0.12694
818,-0.019429,0.99973,0.012345,-0.050395,0.343364,-0.157502
819,-0.064956,0.993007,-0.098535,-0.00702,0.470997,-0.171164
820,-0.124423,0.972244,-0.198122,0.003222,0.537704,-0.461714
821,-0.150546,0.947635,-0.281632,0.182224,0.4336819999999999,0.075363
822,-0.149577,0.934598,-0.322718,-0.0324459999999999,0.310336,0.48994
823,-0.167446,0.910053,-0.379157,0.175533,0.494778,0.205344
824,-0.185492,0.8689319999999999,-0.458852,0.007925,-0.222493,-0.225184
825,-0.207634,0.8336620000000001,-0.5117520000000001,-0.052559,-0.350325,0.151065
826,-0.231571,0.798049,-0.5563170000000001,0.202945,-0.558074,0.310956
827,-0.256567,0.763948,-0.592076,0.19184,-0.659227,0.364781
828,-0.281037,0.734007,-0.618263,0.073822,-0.7509140000000001,0.453849
829,-0.301408,0.70963,-0.636847,0.061784,-0.753362,0.4733489999999999
830,-0.317101,0.691485,-0.64907,0.092049,-0.6298239999999999,0.379798
831,-0.326155,0.681867,-0.6547350000000001,0.039839,-0.609418,0.353175
832,-0.328101,0.682182,-0.653432,-0.032754,-0.59185,0.31635
833,-0.320901,0.692905,-0.645679,-0.132651,-0.58086,0.105762
834,-0.305292,0.7144159999999999,-0.629605,-0.144034,-0.567962,-0.126926
835,-0.281841,0.744459,-0.605262,-0.213306,-0.54135,-0.3174369999999999
836,-0.260755,0.774113,-0.576846,-0.099001,-0.407078,-0.530133
837,-0.247443,0.793037,-0.556651,-0.188821,0.13305,0.1238809999999999
838,-0.230535,0.811384,-0.537127,-0.299738,0.710208,-0.38542
839,-0.200074,0.827507,-0.524593,0.063737,0.281258,0.1728319999999999
840,-0.164044,0.853492,-0.494606,-0.19115,-0.025107,0.0327379999999999
841,-0.134699,0.877577,-0.460118,-0.1161099999999999,-0.151381,-0.080821
842,-0.111502,0.899655,-0.422117,0.037436,0.157764,0.169156
843,-0.0972799999999999,0.917619,-0.385363,-0.034007,0.253401,0.04851
844,-0.087544,0.933132,-0.348703,-0.1117359999999999,0.278492,-0.021796
845,-0.074627,0.94824,-0.3086489999999999,-0.022053,0.132418,-0.109732
846,-0.05935,0.961568,-0.268059,0.022164,0.076319,-0.1706609999999999
847,-0.040867,0.972509,-0.229235,0.196918,0.067057,-0.221464
848,-0.016887,0.982507,-0.185433,0.168315,-0.010294,-0.2202219999999999
849,0.005166,0.98998,-0.1410819999999999,0.133567,-0.196508,-0.188295
850,0.023807,0.994727,-0.099717,0.067746,-0.495978,-0.165115
851,0.04178,0.997499,-0.056935,0.0286389999999999,-0.628999,-0.157573
852,0.059437,0.998207,-0.006351,-0.04073,-0.654472,-0.146085
853,0.070337,0.996531,0.0443649999999999,-0.176264,-0.4199779999999999,-0.204567
854,0.07554,0.993306,0.0873299999999999,-0.179315,-0.342442,-0.355228
855,0.0753,0.989718,0.121563,-0.110364,-0.2933679999999999,-0.390209
856,0.067166,0.986539,0.149059,0.089771,-0.054013,-0.370602
857,0.058851,0.983242,0.172509,0.11838,0.140964,-0.355431
858,0.055701,0.979687,0.192613,-0.001181,0.241276,-0.345231
859,0.054671,0.976437,0.208734,-0.096923,0.367755,-0.36033
860,0.050856,0.97433,0.219279,-0.0971809999999999,0.477437,-0.341701
861,0.045967,0.971782,0.2313329999999999,-0.117775,0.4737439999999999,-0.323268
862,0.039701,0.967804,0.248527,-0.098616,0.5030359999999999,-0.28228
863,0.030091,0.96538,0.259082,0.040283,0.914335,-0.193469
864,0.016848,0.966717,0.255266,-0.066638,0.910694,0.026442
865,-0.000403,0.969769,0.243996,-0.364527,0.446521,-0.004189
866,-0.01971,0.975974,0.216962,-0.329106,0.3110429999999999,-0.14221
867,-0.037616,0.985141,0.167538,-0.14732,0.383648,-0.308377
868,-0.06162,0.993979,0.09054,-0.091166,0.3746739999999999,-0.478693
869,-0.099888,0.9949,-0.013621,-0.020733,0.432193,-0.4099939999999999
870,-0.15328,0.981632,-0.113551,0.093068,0.342312,-0.381063
871,-0.191419,0.963726,-0.18596,0.158307,0.30875,0.346986
872,-0.195681,0.950716,-0.240498,0.097262,0.024763,0.511478
873,-0.204419,0.945337,-0.254053,0.189328,0.1100829999999999,0.774134
874,-0.216669,0.92806,-0.302904,0.227792,0.381388,0.511598
875,-0.2293619999999999,0.8882690000000001,-0.397949,-0.271569,-0.497751,-0.4221189999999999
