,gravity.x,gravity.y,gravity.z,userAcceleration.x,userAcceleration.y,userAcceleration.z
0,-0.23512,0.142537,-0.961458,-0.231783,0.375011,-1.045424
1,-0.252803,0.155194,-0.95499,-0.480382,0.65755,-0.8430139999999999
2,-0.291221,0.183647,-0.938863,-0.2229699999999999,-0.096291,0.4671229999999999
3,-0.292844,0.224727,-0.929376,-0.221347,-0.137371,0.457636
4,-0.286418,0.274928,-0.917812,-0.476628,0.126882,0.145336
5,-0.271203,0.326337,-0.905513,-0.126135,0.622684,0.26829
6,-0.243917,0.374168,-0.894708,-0.153421,0.574853,0.257486
7,-0.2185219999999999,0.420913,-0.8803860000000001,-0.188658,0.2649849999999999,0.267807
8,-0.189477,0.468951,-0.862661,-0.082221,0.195951,0.379613
9,-0.149678,0.518552,-0.841844,-0.138546,0.145785,0.383515
10,-0.103058,0.566275,-0.8177479999999999,-0.183426,0.117807,0.405348
11,-0.0511449999999999,0.611608,-0.789506,-0.094363,0.167048,0.336152
12,0.001274,0.654619,-0.755958,-0.146782,0.124038,0.302604
13,0.05015,0.694911,-0.717344,-0.045527,0.220097,0.243468
14,0.092265,0.732214,-0.674797,0.014913,0.113963,0.301643
15,0.1269839999999999,0.768037,-0.627689,-0.002045,0.064757,0.244404
16,0.155619,0.802142,-0.576499,-0.02534,0.027509,0.23278
17,0.177232,0.8353950000000001,-0.520292,-0.057039,0.056878,0.244047
18,0.190634,0.8666729999999999,-0.461018,-0.086385,0.07661,0.216313
19,0.192503,0.893964,-0.4046869999999999,-0.071867,0.109027,0.264169
20,0.188543,0.915496,-0.355412,-0.004934,0.10553,0.312169
21,0.182982,0.932377,-0.311755,0.01491,0.041043,0.262621
22,0.174864,0.944907,-0.276717,0.029191,-0.0199039999999999,0.145552
23,0.1657269999999999,0.955479,-0.244117,-0.202089,-0.198018,0.053947
24,0.1605589999999999,0.965776,-0.203705,-0.2319699999999999,-0.1834579999999999,0.004349
25,0.1575099999999999,0.975068,-0.156305,-0.1033869999999999,0.001219,-0.034643
26,0.153368,0.98231,-0.107444,-0.03615,0.037862,-0.080346
27,0.146715,0.987211,-0.062349,0.125898,0.071276,0.008714
28,0.13366,0.990683,-0.026094,-0.14338,0.070459,-0.1372519999999999
29,0.1191069999999999,0.992879,0.001861,-0.168271,0.0355329999999999,-0.104522
30,0.106005,0.993991,0.02726,-0.174838,-0.0264769999999999,-0.0835809999999999
31,0.094097,0.994307,0.049982,-0.075542,-0.07347,-0.08262
32,0.083942,0.993636,0.075101,0.039379,-0.032668,-0.036206
33,0.076001,0.991574,0.104903,0.057392,0.045444,0.009126
34,0.068381,0.988799,0.132662,0.027795,0.105103,0.074338
35,0.062077,0.985784,0.156127,-0.010792,0.227503,-0.024321
36,0.0567029999999999,0.982988,0.174694,-0.053774,0.373228,-0.106076
37,0.050366,0.981201,0.186301,-0.127896,0.4167939999999999,-0.281363
38,0.043624,0.980082,0.193741,-0.23709,0.376486,-0.330201
39,0.036874,0.978513,0.2028569999999999,-0.333337,0.322405,-0.17263
40,0.029017,0.976355,0.214215,-0.300562,0.454187,0.047198
41,0.0194139999999999,0.975026,0.221237,0.010646,0.28509,0.116074
42,0.005834,0.976271,0.216469,-0.049078,0.2317519999999999,-0.151848
43,-0.005652,0.979353,0.202076,-0.166681,0.327791,-0.226002
44,-0.0127409999999999,0.983455,0.180698,-0.115417,0.191502,-0.337452
45,-0.012639,0.988447,0.151038,0.0874679999999999,0.170916,-0.354621
46,-0.000673,0.993556,0.113339,0.209459,0.203893,-0.177166
47,0.020627,0.997406,0.068959,0.074802,0.1260069999999999,0.1294819999999999
48,0.041574,0.998939,0.019787,-0.339456,0.130944,0.233677
49,0.057486,0.997663,-0.036925,-0.61756,0.135745,0.124389
50,0.067559,0.993039,-0.096479,-0.734322,0.0930049999999999,0.471616
51,0.075943,0.986656,-0.144019,-0.671402,0.010124,0.751319
52,0.090047,0.98034,-0.175567,-0.344732,-0.0655299999999999,0.840362
53,0.104323,0.969835,-0.2203099999999999,-0.238219,0.004393,-0.1562619999999999
54,0.11598,0.954662,-0.2741699999999999,-0.400526,-0.019466,-0.221558
55,0.122813,0.942184,-0.311778,-0.115245,-0.106018,0.389155
56,0.128208,0.93015,-0.344069,-0.109028,-0.205891,0.4931779999999999
57,0.133709,0.918462,-0.372223,-0.195233,-0.16924,0.43898
58,0.135628,0.906778,-0.3991969999999999,-0.267159,-0.145532,0.352902
59,0.1343859999999999,0.8948450000000001,-0.425668,-0.267137,-0.324303,0.340952
60,0.131843,0.884893,-0.446745,-0.2761139999999999,-0.370642,0.336653
61,0.127075,0.8785930000000001,-0.460355,-0.280731,-0.414695,0.379759
62,0.120599,0.87516,-0.468564,-0.28454,-0.379905,0.475384
63,0.113897,0.873923,-0.472531,-0.306814,-0.350593,0.493634
64,0.1073089999999999,0.8750459999999999,-0.471996,-0.310296,-0.303695,0.514522
65,0.100748,0.8781100000000001,-0.467732,-0.213205,-0.300702,0.37914
66,0.097672,0.88392,-0.4573239999999999,-0.1489869999999999,-0.296793,0.2957639999999999
67,0.097829,0.892807,-0.439688,0.0358529999999999,-0.252579,-0.06901
68,0.102358,0.903254,-0.41672,0.0936559999999999,-0.107554,-0.402844
69,0.116336,0.912958,-0.391119,0.100934,0.038397,-0.550928
70,0.138023,0.921067,-0.364123,-0.12693,0.248001,-0.5596899999999999
71,0.149118,0.928699,-0.339533,-0.476587,0.326337,-0.438116
72,0.15436,0.933121,-0.324742,-0.5427109999999999,0.3667289999999999,-0.398418
73,0.155213,0.935164,-0.318397,-0.5063479999999999,0.08954,-0.0562519999999999
74,0.154017,0.934656,-0.320463,-0.463877,-0.068918,0.078688
75,0.150033,0.935256,-0.320604,-0.55494,-0.1368849999999999,0.031404
76,0.141948,0.942763,-0.301742,-0.5769310000000001,0.597642,0.220412
77,0.129945,0.95465,-0.267876,-0.2796949999999999,0.911134,0.332512
78,0.134923,0.957071,-0.256536,-0.037938,1.162268,0.422338
79,0.144423,0.956208,-0.254573,0.133226,-0.518617,0.762614
80,0.161995,0.958871,-0.233076,0.0787269999999999,-0.6268090000000001,0.790098
81,0.184026,0.963135,-0.196229,0.034541,-0.460693,0.59607
82,0.19265,0.967694,-0.162647,-0.063575,0.309085,0.379947
83,0.196795,0.971418,-0.132733,-0.158068,0.360155,0.4621699999999999
84,0.206445,0.973087,-0.10238,-0.2924739999999999,0.3014179999999999,0.336907
85,0.219234,0.972866,-0.073948,-0.56071,-0.019466,0.100879
86,0.231988,0.971777,-0.042797,-0.643792,-0.070196,0.025966
87,0.242058,0.970254,-0.004,-0.5150520000000001,-0.022118,0.18912
88,0.2495,0.967587,0.039047,-0.293858,0.021549,0.372773
89,0.255181,0.963765,0.077713,-0.033287,-0.004567,0.459992
90,0.260578,0.959904,0.103364,0.2161219999999999,-0.018101,0.341765
91,0.26513,0.957036,0.11742,0.309211,0.006984,0.096126
92,0.269373,0.953796,0.1330839999999999,-0.003046,0.014573,-0.00639
93,0.27455,0.948568,0.157608,-0.281569,0.058558,0.014328
94,0.279791,0.942303,0.183797,-0.3539489999999999,0.007999,0.09994
95,0.279294,0.937675,0.206785,-0.385526,-0.039207,-0.036604
96,0.272007,0.934392,0.230052,-0.300266,0.015941,-0.109385
97,0.260321,0.931562,0.253821,-0.102499,0.076113,-0.133871
98,0.24664,0.928585,0.277303,0.030368,0.046512,-0.150411
99,0.232605,0.925025,0.3003699999999999,0.068436,0.067544,-0.21959
100,0.2191989999999999,0.921552,0.320459,0.010492,0.070117,-0.260232
101,0.206012,0.917859,0.339255,-0.084308,0.1095309999999999,-0.275794
102,0.191496,0.914344,0.356797,-0.0697919999999999,0.113046,-0.293335
103,0.17615,0.911515,0.371633,-0.2834489999999999,0.119674,-0.353689
104,0.160749,0.909319,0.383794,-0.2051369999999999,0.116132,-0.35935
105,0.146002,0.90762,0.393585,-0.095587,0.168521,-0.3453969999999999
106,0.131001,0.90712,0.399966,0.044292,0.181839,-0.411608
107,0.114954,0.908174,0.402499,-0.022363,0.107588,-0.584719
108,0.099799,0.910996,0.400158,-0.043082,0.136063,-0.620708
109,0.087837,0.91665,0.389918,-0.10247,0.206259,-0.598902
110,0.075961,0.926173,0.369367,-0.212359,0.251561,-0.473203
111,0.06491,0.938462,0.339227,-0.189651,0.262954,-0.334192
112,0.057151,0.953247,0.2967349999999999,-0.177939,0.2307429999999999,-0.1380289999999999
113,0.057188,0.96864,0.2417949999999999,-0.268629,0.623996,0.009425
114,0.062971,0.980728,0.184947,-0.336134,0.758957,0.101125
115,0.068297,0.988147,0.137479,-0.406477,0.641126,0.155596
116,0.0781159999999999,0.992456,0.094493,-0.432364,0.59075,0.123051
117,0.090391,0.99469,0.049203,-0.664396,0.460327,0.21366
118,0.094982,0.995474,-0.003208,-0.454052,-0.240499,0.109195
119,0.094716,0.993998,-0.054732,-0.339452,-0.317454,0.114257
120,0.0916429999999999,0.990814,-0.099445,-0.2509139999999999,-0.346405,0.167088
121,0.088431,0.98669,-0.136467,0.045709,-0.2551219999999999,0.311317
122,0.078167,0.98099,-0.177617,0.058873,-0.274783,0.297002
123,0.070461,0.974259,-0.214137,-0.104183,-0.1585089999999999,0.122981
124,0.064674,0.967866,-0.243006,-0.193397,-0.1535349999999999,0.184474
125,0.059269,0.962141,-0.266029,-0.234928,-0.272291,0.252373
126,0.054458,0.957646,-0.282752,-0.2237849999999999,-0.351506,0.336493
127,0.053097,0.955274,-0.290915,-0.17773,-0.430006,0.2846889999999999
128,0.055553,0.955426,-0.289957,-0.091624,-0.458234,0.143641
129,0.059975,0.958146,-0.279927,-0.011391,-0.435883,0.041493
130,0.064223,0.962802,-0.262463,0.055299,-0.4201689999999999,-0.0422089999999999
131,0.068391,0.968625,-0.238932,0.089186,-0.393384,-0.1912589999999999
132,0.075122,0.974678,-0.210615,0.0603,-0.250603,-0.364733
133,0.087787,0.979767,-0.179864,-0.0142389999999999,0.084152,-0.5950989999999999
134,0.1020809999999999,0.983,-0.152615,-0.206848,0.502047,-0.73943
135,0.111045,0.985052,-0.131684,-0.345557,0.671854,-0.784072
136,0.116406,0.985598,-0.122664,-0.284054,0.253996,-0.6456930000000001
137,0.1195089999999999,0.985468,-0.120706,-0.295977,-0.136377,-0.403677
138,0.118362,0.985893,-0.118342,-0.4389649999999999,-0.331337,-0.07401
139,0.113518,0.98749,-0.109441,-0.498726,-0.255831,0.153066
140,0.104351,0.990948,-0.084455,-0.318798,0.097522,0.493527
141,0.100897,0.99392,-0.044069,-0.188406,0.418326,0.521242
142,0.104239,0.994494,-0.010794,0.172327,1.142973,-0.156961
143,0.101025,0.994765,-0.0154139999999999,0.0507079999999999,-0.2105699999999999,0.380343
144,0.094828,0.995428,-0.011455,0.074498,-0.5958760000000001,0.73138
145,0.09058,0.995718,0.018478,-0.044911,-0.557851,0.543519
146,0.079008,0.995786,0.0465579999999999,-0.10417,0.183138,-0.20969
147,0.059998,0.996139,0.064096,-0.025773,0.309098,-0.06811
148,0.046783,0.99523,0.085608,0.1405799999999999,0.328058,-0.064123
149,0.035759,0.99366,0.106584,-0.0535659999999999,0.088661,-0.079195
150,0.028763,0.992299,0.120474,-0.107392,0.055049,-0.059607
151,0.026891,0.991104,0.13034,-0.067861,-0.045258,-0.060882
152,0.02225,0.989507,0.142758,0.151044,0.0041909999999999,-0.082867
153,0.013009,0.987727,0.155644,0.313911,0.034093,-0.1040529999999999
154,0.008187,0.985668,0.168494,0.404823,0.105946,-0.140967
155,0.007645,0.982089,0.1882569999999999,0.178619,0.207181,-0.376123
156,0.00685,0.978295,0.2071,0.069871,0.197929,-0.424523
157,0.005774,0.975238,0.221076,-0.041373,0.103513,-0.358268
158,-0.000524,0.973537,0.2285239999999999,-0.189432,0.046696,-0.312828
159,-0.009775,0.972897,0.231025,-0.209417,0.030902,-0.257499
160,-0.018256,0.973006,0.230051,0.019019,-0.032409,-0.202829
161,-0.027505,0.97379,0.225775,0.201363,-0.105946,-0.2358
162,-0.035,0.975268,0.21823,0.180294,-0.11986,-0.298659
163,-0.040973,0.977072,0.208923,0.167376,-0.142904,-0.278503
164,-0.045511,0.978472,0.201289,0.244837,-0.182253,-0.1995029999999999
165,-0.047457,0.979088,0.197813,0.182268,-0.229897,-0.108076
166,-0.049178,0.978989,0.197883,0.011108,-0.0894929999999999,-0.120734
167,-0.053741,0.978756,0.197848,-0.1138309999999999,0.019977,-0.085483
168,-0.061397,0.97773,0.200674,-0.15688,0.105125,-0.071462
169,-0.069516,0.975539,0.208538,0.040188,0.178072,0.1821019999999999
170,-0.077345,0.971979,0.221969,0.232909,0.403204,0.035539
171,-0.08191,0.967132,0.240713,0.519684,0.7921,-0.025213
172,-0.082061,0.96116,0.263504,0.404617,0.795219,-0.108673
173,-0.080228,0.953634,0.290073,0.186353,0.745707,-0.051426
174,-0.076929,0.945543,0.316269,-0.032049,0.934355,-0.05922
175,-0.081002,0.938019,0.336979,-0.459678,0.694046,-0.169377
176,-0.092033,0.932068,0.350394,-0.429925,0.6076050000000001,-0.403494
177,-0.104742,0.929316,0.354114,0.038473,0.559194,-0.5531189999999999
178,-0.115713,0.930104,0.348586,0.469335,0.2994949999999999,-0.821715
179,-0.11472,0.93719,0.329409,0.569646,0.305654,-0.853716
180,-0.102717,0.949354,0.296938,0.609691,0.300585,-0.853426
181,-0.093198,0.962469,0.254878,0.19328,0.135843,-0.355831
182,-0.089324,0.97426,0.2069639999999999,0.040206,0.083113,-0.089822
183,-0.087658,0.984627,0.151071,-0.035404,0.142479,-0.095453
184,-0.085225,0.992514,0.087463,-0.019191,0.386408,-0.103531
185,-0.080841,0.996536,0.019413,0.020554,0.669998,0.081021
186,-0.074805,0.996023,-0.048356,0.020362,0.515101,0.178743
187,-0.066059,0.990809,-0.118028,0.012669,0.26119,0.142396
188,-0.061521,0.979454,-0.192048,0.005033,0.162377,-0.07489
189,-0.062929,0.96107,-0.2690369999999999,0.03467,0.229238,-0.095266
190,-0.066737,0.937075,-0.342686,0.060649,0.223768,0.0598799999999999
191,-0.069165,0.909708,-0.409445,0.0302089999999999,0.168234,0.324499
192,-0.079674,0.873916,-0.4795,0.111977,0.1190799999999999,0.505867
193,-0.10262,0.8245459999999999,-0.556409,-0.027217,0.196923,0.17764
194,-0.131144,0.766954,-0.628157,0.1325319999999999,0.064634,0.432554
195,-0.158699,0.705384,-0.69083,0.1821819999999999,0.035704,0.470524
196,-0.189189,0.640225,-0.744526,0.153788,-0.126766,0.522907
197,-0.222907,0.574198,-0.787787,0.2682719999999999,-0.3555239999999999,0.690451
198,-0.257497,0.510494,-0.820421,0.22962,-0.47691,0.776414
199,-0.287078,0.454218,-0.843369,0.291411,-0.564569,0.769059
200,-0.3118849999999999,0.405478,-0.859252,0.127589,-0.4602569999999999,0.7744439999999999
201,-0.334896,0.366462,-0.868072,0.10307,-0.476371,0.7918850000000001
202,-0.352211,0.3371409999999999,-0.873088,0.219613,-0.363508,0.73582
203,-0.362161,0.317888,-0.8762340000000001,0.273767,-0.453631,0.330473
204,-0.366647,0.308297,-0.8777940000000001,0.46853,-0.36274,0.27997
205,-0.3705199999999999,0.307494,-0.876448,0.441092,-0.371001,-0.060762
206,-0.375052,0.312945,-0.872583,0.4556939999999999,-0.3544489999999999,-0.086936
207,-0.379405,0.324673,-0.866394,0.495173,-0.349698,-0.191879
208,-0.383554,0.344035,-0.8570450000000001,0.0034119999999999,-0.069133,-1.19543
209,-0.382507,0.36748,-0.8477299999999999,-0.23468,0.309949,-1.47388
210,-0.389731,0.393953,-0.832412,-0.341806,0.519621,-1.279694
211,-0.407279,0.427648,-0.806994,-0.227365,-0.324911,0.454791
212,-0.403702,0.467711,-0.786301,-0.164581,-0.258086,0.070863
213,-0.396937,0.512069,-0.761725,-0.143193,-0.038574,-0.213083
214,-0.367237,0.557593,-0.744463,-0.049587,0.203378,0.16527
215,-0.340264,0.600171,-0.723888,-0.228385,0.07355,0.22784
216,-0.312244,0.63998,-0.7020890000000001,-0.0939909999999999,-0.0034289999999999,0.111329
217,-0.280808,0.6794439999999999,-0.677866,-0.0341949999999999,-0.069459,0.227838
218,-0.245119,0.718878,-0.6504840000000001,-0.0673049999999999,-0.1008059999999999,0.155931
219,-0.208749,0.7567699999999999,-0.619452,0.0280389999999999,-0.048869,0.210746
220,-0.168551,0.793702,-0.584487,0.0836659999999999,0.039702,0.120101
221,-0.130906,0.828094,-0.545089,0.102967,0.120148,0.062331
222,-0.099462,0.858506,-0.503063,0.122,0.161895,0.046733
223,-0.076686,0.884051,-0.461054,0.086497,0.055616,0.075098
224,-0.062365,0.906506,-0.417559,0.054126,-0.15884,0.038363
225,-0.056122,0.926015,-0.373287,0.108231,-0.235036,-0.0132639999999999
226,-0.058819,0.942782,-0.328178,0.219998,-0.116335,-0.02665
227,-0.065722,0.956886,-0.282925,0.327196,0.048576,-0.0042299999999999
228,-0.073117,0.968576,-0.237723,0.401074,0.153861,0.015875
229,-0.0801549999999999,0.977677,-0.194219,0.382691,0.1232299999999999,0.01534
230,-0.086508,0.984154,-0.154767,0.278479,0.0205909999999999,0.021558
231,-0.093944,0.98802,-0.122426,0.1285359999999999,0.021838,-0.103664
232,-0.104886,0.990123,-0.093014,-0.081302,0.075566,-0.1439089999999999
233,-0.119971,0.990701,-0.064141,-0.175363,0.034934,-0.1904819999999999
234,-0.137723,0.98977,-0.037206,-0.122608,-0.012475,-0.256953
235,-0.150273,0.988598,-0.009329,0.06226,-0.047391,-0.292276
236,-0.154053,0.987837,0.0210069999999999,0.388001,-0.149229,-0.174114
237,-0.156738,0.986629,0.044625,0.355804,-0.230129,-0.196465
238,-0.157643,0.985441,0.0636429999999999,0.31487,-0.224012,-0.175002
239,-0.157075,0.984475,0.078316,0.163713,-0.238091,-0.181283
240,-0.157123,0.983669,0.08777,0.103641,-0.222134,-0.2372909999999999
241,-0.158357,0.982917,0.093773,0.056871,-0.1589269999999999,-0.287697
242,-0.15987,0.98208,0.099783,0.136356,-0.1267329999999999,-0.256552
243,-0.162041,0.981104,0.105708,0.168205,-0.13032,-0.192973
244,-0.164966,0.980208,0.109427,0.145999,-0.159697,-0.154501
245,-0.169855,0.978665,0.115588,0.089762,-0.126995,0.069349
246,-0.174209,0.976671,0.125544,0.169982,-0.133119,0.120992
247,-0.178213,0.974131,0.138944,0.162893,0.269018,0.16347
248,-0.181463,0.970611,0.158053,0.127279,0.5158689999999999,0.183577
249,-0.183562,0.965892,0.18263,0.045424,1.110219,0.222552
250,-0.182792,0.959996,0.212107,-0.089807,0.7480720000000001,0.149496
251,-0.181292,0.952529,0.244575,-0.062284,0.791719,0.030205
252,-0.180309,0.943727,0.27724,-0.056843,0.884093,-0.062214
253,-0.181357,0.934559,0.30611,-0.014871,0.4460409999999999,-0.234531
254,-0.1862869999999999,0.92592,0.328578,-0.025169,0.344526,-0.352519
255,-0.194091,0.920046,0.340353,0.016433,0.315123,-0.463202
256,-0.201181,0.918344,0.340833,0.372735,0.243918,-0.768521
257,-0.202628,0.923644,0.325299,0.573905,0.268403,-1.008069
258,-0.190701,0.936535,0.294162,0.61787,0.288074,-1.076541
259,-0.168249,0.952442,0.254054,0.525702,0.315259,-0.650523
260,-0.1435,0.965837,0.2157869999999999,0.261496,0.318862,0.107318
261,-0.123315,0.977192,0.17288,0.031899,0.217831,0.445604
262,-0.117346,0.986102,0.1176059999999999,-0.438974,0.232725,0.32235
263,-0.123279,0.991047,0.051239,-0.389951,0.368633,-0.03157
264,-0.12869,0.991443,-0.021851,-0.319949,0.348217,-0.147064
265,-0.123619,0.98785,-0.094175,0.065376,0.450764,-0.153293
266,-0.115477,0.979352,-0.165933,0.261213,0.314273,0.038949
267,-0.116413,0.965176,-0.234269,0.332997,0.195499,0.253938
268,-0.12553,0.944321,-0.304136,0.044583,0.099563,0.254194
269,-0.133427,0.917787,-0.373982,-0.0590169999999999,0.230177,0.097462
270,-0.142265,0.886976,-0.439355,-0.021844,0.222002,0.057183
271,-0.157506,0.851426,-0.500265,-0.0810039999999999,0.004943,0.129339
272,-0.177248,0.810684,-0.558009,-0.038175,-0.062271,0.269862
273,-0.201683,0.762977,-0.614157,0.04702,0.038231,0.327505
274,-0.229469,0.7107359999999999,-0.664979,0.226814,0.080981,0.272309
275,-0.260375,0.656247,-0.708198,0.310485,-0.046048,0.393119
276,-0.293362,0.600467,-0.743893,0.317914,-0.190616,0.447903
277,-0.326764,0.545495,-0.77179,0.231809,-0.261056,0.4505619999999999
278,-0.36054,0.492772,-0.7919510000000001,0.253194,-0.258184,0.576466
279,-0.389857,0.44322,-0.807197,0.101298,-0.45529,0.555335
280,-0.410554,0.3997739999999999,-0.819528,0.125901,-0.398187,0.535455
281,-0.422985,0.363331,-0.830105,0.158855,-0.425526,0.544445
282,-0.429264,0.333652,-0.839291,0.196613,-0.376499,0.494961
283,-0.432411,0.310205,-0.846636,0.2109599999999999,-0.505228,0.349597
284,-0.433075,0.294858,-0.851766,0.506943,-0.3376429999999999,0.123113
285,-0.434634,0.287574,-0.85346,0.3487119999999999,-0.522559,0.073324
286,-0.4376359999999999,0.287139,-0.8520709999999999,0.415831,-0.400542,0.106115
287,-0.4379939999999999,0.294177,-0.849483,0.319418,-0.4005309999999999,0.001598
288,-0.433824,0.30743,-0.846925,0.2692739999999999,-0.434551,-0.032805
289,-0.423489,0.3220119999999999,-0.8467379999999999,0.157345,-0.299948,-0.421573
290,-0.40894,0.333685,-0.849366,-0.228161,0.329431,-1.13414
291,-0.409807,0.345524,-0.844199,-0.136762,0.147595,-0.903223
292,-0.419383,0.365598,-0.830937,-0.042135,-0.147275,-0.380245
293,-0.422593,0.396108,-0.815177,-0.142638,-0.373403,0.16059
294,-0.424533,0.433904,-0.794669,-0.070844,-0.096029,-0.17785
295,-0.417113,0.477469,-0.7733300000000001,0.057112,0.071389,-0.2133179999999999
296,-0.397394,0.524093,-0.753262,-0.048468,0.158891,-0.130817
297,-0.379876,0.568901,-0.729414,-0.038428,0.3074719999999999,0.062849
298,-0.357557,0.610739,-0.7065060000000001,0.158918,0.275187,0.029199
299,-0.326582,0.651872,-0.6844020000000001,0.042082,0.063796,0.170242
300,-0.287698,0.693124,-0.660914,-0.062613,-0.099649,0.1913089999999999
301,-0.244727,0.732772,-0.634943,-0.00419,-0.099517,0.145045
302,-0.198839,0.7707149999999999,-0.60536,0.005785,-0.055489,0.136152
303,-0.153479,0.806326,-0.57121,0.035315,0.003977,0.160688
304,-0.114551,0.838817,-0.532223,0.128376,0.188572,0.054089
305,-0.086733,0.867123,-0.490483,0.171465,0.193958,0.017171
306,-0.068298,0.891458,-0.447924,0.165817,0.0839299999999999,0.151233
307,-0.053485,0.913787,-0.402654,0.094028,-0.09938,0.10259
308,-0.043506,0.933636,-0.355568,0.094516,-0.185391,0.047997
309,-0.043403,0.950431,-0.307888,0.10482,-0.123938,0.011409
310,-0.048697,0.964448,-0.259742,0.195013,0.0309589999999999,0.03292
311,-0.056395,0.975135,-0.214306,0.334411,0.1204,0.028332
312,-0.063725,0.982583,-0.174546,0.382436,0.140479,0.01323
313,-0.071603,0.987448,-0.140764,0.27485,-0.001838,-0.072188
314,-0.080411,0.990449,-0.111982,0.10275,-0.123567,-0.119494
315,-0.092725,0.992026,-0.085342,-0.092181,-0.132956,-0.228303
316,-0.102989,0.993415,-0.050147,-0.074058,-0.0736309999999999,-0.117776
317,-0.11408,0.993303,-0.018164,0.077688,0.026121,-0.113443
318,-0.124348,0.992213,0.006851,0.203114,0.045202,-0.197082
319,-0.1302849999999999,0.991043,0.0292339999999999,0.266286,0.010834,-0.321562
320,-0.133218,0.989739,0.051625,0.304696,-0.049187,-0.201268
321,-0.139283,0.988,0.066721,0.213701,-0.101372,-0.180506
322,-0.145656,0.986462,0.075309,0.0929519999999999,-0.103741,-0.195671
323,-0.149372,0.985527,0.080118,0.122394,-0.029809,-0.334344
324,-0.151451,0.984977,0.082942,0.190879,-0.03768,-0.336543
325,-0.14506,0.986451,0.076594,0.229869,-0.124543,-0.244852
326,-0.1401339999999999,0.987412,0.073324,0.223005,-0.2314449999999999,-0.046377
327,-0.140895,0.986914,0.078394,0.25886,-0.210852,-0.008356
328,-0.143326,0.986267,0.0820429999999999,0.114975,-0.1547079999999999,-0.083874
329,-0.147289,0.985246,0.087136,-0.002888,-0.102845,-0.053826
330,-0.151807,0.983535,0.098026,0.018262,-0.101684,0.057446
331,-0.158385,0.981175,0.1104779999999999,0.0212389999999999,-0.026677,0.105571
332,-0.166983,0.97819,0.123519,-0.099985,0.188237,0.099763
333,-0.175611,0.974839,0.137284,-0.063266,0.296463,0.056212
334,-0.183595,0.971118,0.152382,0.20221,0.558729,0.070625
335,-0.191136,0.966768,0.169774,0.316579,0.53932,0.074183
336,-0.19588,0.961842,0.191018,0.358752,0.475368,0.044517
337,-0.195485,0.956348,0.217214,0.3946119999999999,0.406568,0.034068
338,-0.190618,0.949561,0.248988,0.170736,0.744744,0.176366
339,-0.181267,0.942276,0.281522,-0.232765,0.8764799999999999,0.031528
340,-0.175191,0.935277,0.307506,-0.481806,0.612117,-0.118434
341,-0.177624,0.929002,0.324653,-0.42873,0.506179,-0.258445
342,-0.190387,0.923812,0.3321409999999999,-0.225293,0.388871,-0.38132
343,-0.206828,0.922508,0.325877,0.084559,0.09829,-0.499217
344,-0.2182889999999999,0.927234,0.304271,0.291104,-0.0204199999999999,-0.536327
345,-0.2243909999999999,0.935072,0.274378,0.334269,-0.046141,-0.506434
346,-0.2224449999999999,0.944158,0.24306,0.382281,-0.030447,-0.400028
347,-0.210821,0.954308,0.211771,0.335821,0.054222,-0.254312
348,-0.195621,0.963714,0.181614,0.2646969999999999,0.076508,-0.154575
349,-0.183777,0.971096,0.152301,0.0132909999999999,0.112355,0.0565769999999999
350,-0.176417,0.97712,0.1187859999999999,-0.1100059999999999,0.069892,0.07259
351,-0.170104,0.982226,0.0793389999999999,-0.156846,0.025358,0.022788
352,-0.161165,0.986186,0.038207,-0.107038,0.045155,0.004365
353,-0.147642,0.989039,-0.00101,-0.031222,0.102026,0.050617
354,-0.130434,0.990757,-0.037219,0.034746,0.0388149999999999,0.12308
355,-0.114658,0.990742,-0.072674,0.101383,-0.047917,0.156964
356,-0.103735,0.988541,-0.109651,0.114905,-0.06305,0.158921
357,-0.09944,0.984235,-0.146256,0.086089,-0.062803,0.122528
358,-0.10005,0.978476,-0.180478,-0.022981,-0.148917,0.055096
359,-0.103088,0.971443,-0.213702,-0.179231,-0.161904,-0.008191
360,-0.110431,0.963592,-0.243503,-0.260968,-0.192489,0.065571
361,-0.119005,0.955827,-0.268756,-0.141447,-0.260103,0.146777
362,-0.126553,0.948244,-0.291232,-0.048679,-0.350069,0.079303
363,-0.132242,0.941398,-0.31029,-0.038534,-0.35456,0.105822
364,-0.137564,0.935322,-0.325955,-0.02453,-0.392445,0.159268
365,-0.1430789999999999,0.929793,-0.3391349999999999,0.060819,-0.331007,0.211892
366,-0.149219,0.924845,-0.349846,0.076068,-0.319682,0.221123
367,-0.1546259999999999,0.921192,-0.357061,0.063821,-0.427113,0.269079
368,-0.159082,0.919193,-0.360241,0.069498,-0.4576149999999999,0.229351
369,-0.163327,0.919244,-0.3582059999999999,0.073376,-0.445535,0.198522
370,-0.167196,0.921653,-0.350139,0.094107,-0.40467,0.128017
371,-0.171552,0.926007,-0.3362699999999999,0.166242,-0.373426,0.037945
372,-0.177371,0.931714,-0.316932,0.206469,-0.369092,-0.005944
373,-0.183264,0.93849,-0.2926539999999999,0.2469849999999999,-0.312911,-0.095758
374,-0.187295,0.946088,-0.264265,0.266228,-0.259412,-0.164996
375,-0.187268,0.953874,-0.234631,0.2888,0.061797,-0.391925
376,-0.178426,0.960961,-0.2114579999999999,0.263463,0.370567,-0.579924
377,-0.166763,0.966265,-0.196263,0.052215,0.572386,-0.632396
378,-0.157442,0.969609,-0.1872599999999999,-0.1090069999999999,0.331279,-0.6471060000000001
379,-0.147471,0.971023,-0.188053,-0.23528,0.014787,-0.5228689999999999
380,-0.141058,0.9708,-0.194029,-0.2445159999999999,-0.158818,-0.110017
381,-0.1422759999999999,0.969756,-0.198312,-0.242169,-0.117934,0.001382
382,-0.148348,0.969499,-0.195093,-0.31439,0.18727,0.041849
383,-0.157772,0.969705,-0.1864869999999999,-0.325291,0.586966,9e-06
384,-0.167865,0.969431,-0.178946,-0.176923,0.61495,-0.152871
385,-0.175273,0.966153,-0.189272,0.030757,-0.3713349999999999,0.197267
386,-0.184685,0.960948,-0.206076,0.008492,-0.726695,0.614996
387,-0.189448,0.96315,-0.190913,0.055583,-0.931183,0.8516950000000001
388,-0.190788,0.968678,-0.158935,0.170829,-0.473042,0.30812
389,-0.188872,0.973264,-0.130693,0.2307719999999999,0.068789,-0.004714
390,-0.1841809999999999,0.978399,-0.093855,0.655525,0.939997,0.265853
391,-0.170789,0.983604,-0.0578789999999999,0.4461189999999999,-0.083396,0.266879
392,-0.156373,0.986942,-0.0385649999999999,0.218446,-0.160999,0.142905
393,-0.147152,0.988881,-0.021325,0.033474,-0.18485,0.056253
394,-0.137817,0.990455,-0.000308,-0.227081,0.03106,0.036563
395,-0.123682,0.992074,0.022053,-0.167975,0.075248,0.03889
396,-0.110104,0.992901,0.044946,-0.1646,0.013981,0.037086
397,-0.10073,0.992543,0.068598,-0.12803,-0.056981,0.022055
398,-0.094884,0.991219,0.092064,-0.027232,-0.105004,0.045861
399,-0.090976,0.989099,0.1157609999999999,0.124973,-0.047311,0.185508
400,-0.08621,0.98686,0.1366369999999999,0.27664,0.025561,0.2503869999999999
401,-0.080876,0.985584,0.148584,0.388416,0.062542,0.083563
402,-0.075861,0.985434,0.1521809999999999,0.279428,0.1183109999999999,-0.109045
403,-0.070815,0.9853,0.155447,-0.045075,0.031058,-0.049475
404,-0.063431,0.984713,0.162208,-0.081222,-0.017595,-0.036185
405,-0.056426,0.983718,0.1706119999999999,-0.067368,-0.032226,-0.037968
406,-0.05356,0.982242,0.179791,0.00374,-0.043705,-0.043622
407,-0.055338,0.980386,0.189141,0.089182,-0.019799,-0.030114
408,-0.060525,0.97822,0.198532,0.126717,-0.015802,-0.045593
409,-0.066519,0.975943,0.207615,0.23876,0.022638,-0.031879
410,-0.070713,0.973508,0.217428,0.286869,0.014346,-0.069174
411,-0.074504,0.970997,0.227171,0.29066,0.016857,-0.078917
412,-0.0791029999999999,0.968315,0.23686,0.131654,0.022378,-0.1142859999999999
413,-0.085314,0.965729,0.2451159999999999,-0.049864,0.044967,-0.129897
414,-0.0925179999999999,0.963208,0.252317,-0.078442,0.034595,-0.134854
415,-0.099467,0.960772,0.258873,0.179545,0.07182,-0.0951159999999999
416,-0.106917,0.958928,0.262715,0.269316,0.075862,-0.1529589999999999
417,-0.115899,0.957424,0.264385,0.25158,0.069615,-0.1738859999999999
418,-0.124995,0.955918,0.265687,0.1703589999999999,0.082076,-0.220734
419,-0.133574,0.954688,0.265935,0.153334,0.101815,-0.289815
420,-0.142449,0.95393,0.2640409999999999,0.167641,0.118214,-0.286273
421,-0.151277,0.954127,0.258356,0.220873,0.2375989999999999,-0.2736909999999999
422,-0.1579809999999999,0.955916,0.247505,0.114768,0.310106,-0.3518139999999999
423,-0.161146,0.959652,0.2304179999999999,0.093489,0.337803,-0.284099
424,-0.160499,0.965646,0.204354,0.119834,0.375983,-0.142892
425,-0.159319,0.973329,0.165043,0.016634,0.276014,-0.041844
426,-0.15835,0.980995,0.112098,-0.132346,0.184303,-0.08982
427,-0.1553,0.986131,0.058482,-0.355137,0.227767,-0.0076549999999999
428,-0.153517,0.988038,0.014333,-0.371202,0.3360579999999999,0.45106
429,-0.153054,0.987804,-0.028472,-0.324424,0.258854,0.443892
430,-0.14861,0.985955,-0.076167,-0.251384,0.1186589999999999,0.226252
431,-0.139464,0.982678,-0.122015,-0.242829,0.138355,0.275458
432,-0.133996,0.976891,-0.166499,-0.120628,0.130164,0.4848739999999999
433,-0.127662,0.969133,-0.210898,0.071418,-0.0111709999999999,0.36933
434,-0.122264,0.959107,-0.255265,0.189128,-0.048462,0.485001
435,-0.12093,0.94568,-0.301762,0.1229589999999999,-0.10167,0.3185159999999999
436,-0.119467,0.931465,-0.34365,0.028555,-0.117241,0.28118
437,-0.1200859999999999,0.9177,-0.378683,-0.074143,-0.178396,0.279913
438,-0.122598,0.905745,-0.405698,-0.027961,-0.20265,0.3256969999999999
439,-0.127609,0.896084,-0.425142,0.079299,-0.17181,0.405488
440,-0.131407,0.8887299999999999,-0.439189,0.047057,-0.186383,0.380443
441,-0.131741,0.8842180000000001,-0.448105,0.029843,-0.2241989999999999,0.3280639999999999
442,-0.12853,0.8828379999999999,-0.451745,0.049368,-0.245035,0.253213
443,-0.122446,0.8845569999999999,-0.450068,0.087351,-0.238271,0.213832
444,-0.1164819999999999,0.889151,-0.442537,0.139324,-0.244741,0.181123
445,-0.1110369999999999,0.8970299999999999,-0.427788,0.192885,-0.276761,0.132042
446,-0.102997,0.907867,-0.406405,0.18483,-0.291992,0.034456
447,-0.089738,0.920492,-0.380313,0.112169,-0.22904,-0.154111
448,-0.071327,0.932245,-0.354722,0.068657,-0.00123,-0.387542
449,-0.0521649999999999,0.940442,-0.335923,0.03744,0.38927,-0.556198
450,-0.042466,0.945104,-0.323993,-0.069518,0.745875,-0.54907
451,-0.038162,0.945487,-0.323409,-0.2331239999999999,0.287652,-0.302644
452,-0.034839,0.943678,-0.329018,-0.286359,0.068864,-0.135078
453,-0.035684,0.941958,-0.333822,-0.34252,-0.087237,0.019826
454,-0.038575,0.941785,-0.333989,-0.459991,-0.210065,0.191365
455,-0.042601,0.946033,-0.32125,-0.534166,-0.062916,0.297507
456,-0.048401,0.954593,-0.2939469999999999,-0.4951939999999999,0.1527069999999999,0.39203
457,-0.051688,0.964495,-0.258983,0.1955329999999999,0.9129,0.346934
458,-0.043419,0.966297,-0.25373,0.4803699999999999,0.7425039999999999,0.265556
459,-0.034607,0.962637,-0.268565,0.3401639999999999,0.049311,0.337458
460,-0.019796,0.966462,-0.256035,0.118871,-0.92888,0.818261
461,-0.001575,0.976091,-0.217344,0.142902,-0.501894,0.593168
462,0.005467,0.983537,-0.180608,0.213939,-0.064622,0.322073
463,0.001541,0.987367,-0.1584269999999999,0.099259,0.301086,0.340861
464,0.001901,0.990518,-0.137351,-0.16816,-0.065225,0.293861
465,0.007421,0.993123,-0.1168119999999999,-0.173681,-0.06783,0.273321
466,0.018221,0.994676,-0.1013889999999999,-0.4396229999999999,-0.042864,0.1524599999999999
467,0.02999,0.995896,-0.085354,-0.120322,-0.044663,0.250485
468,0.040037,0.997179,-0.063438,-0.0328959999999999,-0.0511029999999999,0.3191449999999999
469,0.048474,0.997971,-0.041194,0.183063,-0.0589909999999999,0.433101
470,0.055031,0.998155,-0.025512,0.35508,0.00801,0.3543699999999999
471,0.060103,0.998082,-0.014534,0.352434,0.066172,0.177833
472,0.066487,0.997782,-0.0018,0.17039,0.1132869999999999,0.052367
473,0.073642,0.997196,0.0129449999999999,0.077038,0.087963,0.047053
474,0.078344,0.996518,0.028393,0.089167,0.068317,0.036167
475,0.081083,0.995781,0.042861,0.084384,0.02285,0.031907
476,0.08332,0.994892,0.056914,-0.082176,0.038006,0.003175
477,0.083715,0.994071,0.069325,-0.1434079999999999,0.02131,-0.007267
478,0.0815,0.993485,0.079605,-0.181201,-0.061417,0.026017
479,0.077174,0.99314,0.0878,0.031804,-0.04917,0.069426
480,0.072796,0.992721,0.095907,0.091572,-0.019057,0.0837649999999999
481,0.069021,0.992213,0.10364,0.072687,0.011419,0.0452399999999999
482,0.064508,0.991662,0.11152,-0.019525,0.031669,-0.029138
483,0.059049,0.990958,0.120445,0.006594,0.036843,-0.015815
484,0.054061,0.990149,0.129132,0.034196,0.030237,0.02019
485,0.04845,0.98927,0.137802,0.018078,0.020862,-0.00032
486,0.0429649999999999,0.988246,0.146681,-0.047542,0.184834,-0.043013
487,0.038113,0.986763,0.1576,0.062687,0.2864,-0.139
488,0.035786,0.984642,0.170854,0.147365,0.341042,-0.160066
489,0.034481,0.982617,0.18239,0.081089,0.424732,-0.1081859999999999
490,0.030162,0.982235,0.185191,-0.337214,0.524982,-0.174082
491,0.024548,0.984161,0.175543,-0.4941069999999999,0.55716,-0.14118
492,0.018478,0.988431,0.1505099999999999,-0.318694,0.393313,-0.23158
493,0.011008,0.993766,0.110904,-0.321677,0.301858,-0.386127
494,0.005736,0.998201,0.059608,-0.255553,0.2529889999999999,-0.324348
495,0.006508,0.999972,0.002418,-0.117302,0.302961,-0.032631
496,0.016099,0.998636,-0.049593,-0.066545,0.399039,0.270723
497,0.033433,0.995209,-0.091834,-0.247193,0.431778,0.583457
498,0.051501,0.989228,-0.137,-0.214984,0.359603,0.4697939999999999
499,0.062049,0.978978,-0.194286,-0.127479,0.398525,0.315135
500,0.071222,0.961884,-0.264009,-0.136652,0.415618,0.384859
501,0.081661,0.937417,-0.33849,-0.03207,0.456016,-0.092525
502,0.083451,0.906632,-0.413581,-0.202484,0.204528,0.019218
503,0.082307,0.871402,-0.483612,-0.274186,-0.035708,0.094818
504,0.078951,0.8348180000000001,-0.544833,-0.189638,0.082648,0.308444
505,0.069145,0.78975,-0.609517,0.0169759999999999,0.254729,0.336735
506,0.045279,0.7338439999999999,-0.677806,0.016107,0.4287229999999999,0.094554
507,0.011258,0.672242,-0.7402449999999999,0.0108519999999999,0.347182,0.295054
508,-0.02813,0.6045659999999999,-0.796057,-0.267509,0.176058,0.441855
509,-0.068495,0.531517,-0.8442729999999999,-0.248751,0.031731,0.4432109999999999
510,-0.107975,0.454843,-0.8840020000000001,-0.176678,0.016837,0.415358
511,-0.147072,0.377972,-0.91406,-0.001762,-0.001385,0.6348090000000001
512,-0.179279,0.30503,-0.935316,0.042133,-0.113364,0.681913
513,-0.203707,0.239218,-0.949357,0.075334,-0.072393,0.738755
514,-0.2205119999999999,0.181615,-0.958327,-0.032128,-0.404012,0.735701
515,-0.230904,0.134117,-0.963688,0.093484,-0.2296679999999999,0.732899
516,-0.235275,0.098834,-0.966891,0.1100309999999999,-0.188418,0.704928
517,-0.23389,0.075372,-0.969337,0.115406,-0.240915,0.616951
518,-0.228039,0.063022,-0.97161,0.09985,-0.322086,0.4078739999999999
519,-0.224739,0.060564,-0.972535,0.171638,-0.350725,0.274094
520,-0.224625,0.067822,-0.972082,0.2426309999999999,-0.287579,0.151464
521,-0.227025,0.082408,-0.970396,0.297185,-0.22114,-0.0069599999999999
522,-0.228633,0.105367,-0.967794,0.258998,-0.251897,-0.097361
523,-0.231046,0.143044,-0.96237,0.102949,-0.410927,-0.418871
524,-0.2312409999999999,0.182346,-0.955655,-1.3147950000000002,1.200329,-1.938632
525,-0.242995,0.2001619999999999,-0.949151,-1.082857,1.780871,-1.256247
526,-0.271409,0.233629,-0.933678,0.439378,-0.031511,0.312157
527,-0.278505,0.278721,-0.919102,-0.241042,-0.196812,0.276433
528,-0.273536,0.3250969999999999,-0.905257,-0.3008349999999999,0.146385,-0.2467059999999999
529,-0.244473,0.374235,-0.8945280000000001,-0.504444,0.449938,0.586712
530,-0.2136539999999999,0.4203739999999999,-0.8818370000000001,-0.69696,0.26264,0.384706
531,-0.17799,0.463975,-0.8677819999999999,-0.211765,0.179016,0.165969
532,-0.134469,0.509401,-0.849957,-0.085257,0.075682,0.339627
533,-0.090907,0.554818,-0.82699,-0.195744,0.042427,0.338495
534,-0.049632,0.598693,-0.799438,-0.199712,0.052476,0.301529
535,-0.007294,0.642091,-0.766592,-0.086792,0.18402,0.267844
536,0.030351,0.683702,-0.729128,-0.085939,0.200225,0.213671
537,0.059733,0.7216520000000001,-0.6896720000000001,-0.112376,0.216107,0.188818
538,0.082929,0.756662,-0.648522,-0.0917029999999999,0.045736,0.235406
539,0.1001659999999999,0.788615,-0.606671,-0.045235,-0.058024,0.186093
540,0.1103519999999999,0.81829,-0.56411,-0.065247,-0.009589,0.21386
541,0.113972,0.846799,-0.519554,-0.012226,0.125018,0.216682
542,0.109931,0.8732700000000001,-0.474668,0.061456,0.2426199999999999,0.22865
543,0.101702,0.8955129999999999,-0.433251,0.021909,0.22616,0.183831
544,0.092826,0.913322,-0.396509,-0.042167,0.150703,0.136072
545,0.087439,0.927839,-0.362579,-0.0258389999999999,-0.019513,0.111893
546,0.084106,0.940496,-0.329221,-0.062545,-0.0570429999999999,0.0592629999999999
547,0.083511,0.952106,-0.294133,-0.0951679999999999,-0.063327,-0.0305279999999999
548,0.0787669999999999,0.961909,-0.261763,-0.152421,-0.063884,-0.102129
549,0.070757,0.970388,-0.2309389999999999,-0.066744,0.04191,-0.108813
550,0.066509,0.977084,-0.202179,0.015446,0.104505,-0.086792
551,0.064092,0.981478,-0.180514,-0.0207569999999999,-0.1423819999999999,-0.088361
552,0.059634,0.984411,-0.165443,0.004194,-0.250081,-0.095634
553,0.0569179999999999,0.986588,-0.1529599999999999,0.0463839999999999,-0.310486,-0.06669
554,0.058066,0.988524,-0.139431,0.085626,-0.292082,-0.076175
555,0.0607049999999999,0.990237,-0.12545,0.108515,-0.209887,-0.070183
556,0.062694,0.991836,-0.1110049999999999,0.111241,-0.090011,0.059675
557,0.062559,0.993324,-0.0968789999999999,-0.143171,-0.103904,0.099183
558,0.061034,0.994915,-0.080065,-0.234145,-0.142193,0.212038
559,0.058401,0.996302,-0.062942,-0.338019,-0.047343,0.1678
560,0.0565919999999999,0.997571,-0.0405019999999999,-0.332486,0.371906,0.429326
561,0.055486,0.998383,-0.011931,-0.27239,0.507034,0.495543
562,0.053977,0.998335,0.020078,-0.130698,0.817567,0.276537
563,0.053452,0.996879,0.0580139999999999,0.198348,1.101601,0.2391199999999999
564,0.055699,0.993533,0.098896,-0.02831,0.833158,0.013973
565,0.062208,0.988663,0.136618,-0.271742,0.708175,-0.0723019999999999
566,0.068834,0.983749,0.165798,-0.440156,0.655961,-0.281856
567,0.065175,0.980166,0.187127,-0.5266609999999999,0.579054,-0.361444
568,0.0568679999999999,0.978937,0.196055,-0.359129,0.347067,-0.438838
569,0.051452,0.982453,0.179242,0.3234869999999999,0.20938,-0.80975
570,0.0571029999999999,0.989057,0.135999,0.456233,0.24161,-0.793562
571,0.068842,0.994144,0.083248,0.376196,0.2387659999999999,-0.584651
572,0.083214,0.995942,0.034156,0.22123,0.166305,-0.145805
573,0.096952,0.995194,-0.0134569999999999,-0.005415,0.14894,0.443328
574,0.101137,0.992585,-0.06738,-0.430239,0.236984,0.420255
575,0.092744,0.986249,-0.136766,-0.40323,0.32616,0.399354
576,0.083075,0.973293,-0.213994,-0.136328,0.295842,0.216878
577,0.080186,0.953822,-0.289465,0.101195,0.435583,0.091115
578,0.076316,0.928302,-0.363905,0.174157,0.46037,0.102064
579,0.06638,0.898457,-0.434011,-0.075108,0.038921,0.263494
580,0.054648,0.863814,-0.500835,-0.374747,0.132662,0.30859
581,0.039895,0.8236459999999999,-0.565697,-0.375161,0.126641,0.244087
582,0.024056,0.779637,-0.625767,-0.284051,0.057918,0.1647839999999999
583,0.009029,0.734695,-0.678335,-0.205287,0.000183,0.350668
584,-0.003545,0.685422,-0.728136,-0.068782,0.27489,0.4358689999999999
585,-0.019759,0.627067,-0.778713,0.053633,0.316078,0.543057
586,-0.045962,0.559034,-0.8278690000000001,0.183306,0.212877,0.59296
587,-0.079231,0.487125,-0.8697299999999999,0.113594,0.176846,0.546503
588,-0.116327,0.413967,-0.902828,0.112955,0.030491,0.548122
589,-0.153129,0.343494,-0.926587,0.0578529999999999,-0.2308079999999999,0.6852229999999999
590,-0.182059,0.280287,-0.942493,-0.002222,-0.250059,0.723255
591,-0.201772,0.225977,-0.953007,-0.049937,-0.221552,0.7556039999999999
592,-0.214559,0.181661,-0.959668,0.099111,-0.276647,0.750974
593,-0.224361,0.1486859999999999,-0.963096,0.066326,-0.298589,0.626258
594,-0.232513,0.127635,-0.964182,0.128296,-0.347209,0.488245
595,-0.238727,0.118191,-0.963867,0.1330299999999999,-0.261944,0.291153
596,-0.2456949999999999,0.117816,-0.962161,0.232801,-0.265658,0.18413
597,-0.253868,0.122822,-0.959409,0.265526,-0.252781,0.112897
598,-0.262685,0.131155,-0.955926,0.2345179999999999,-0.204733,0.010934
599,-0.2746679999999999,0.143291,-0.950802,0.222773,-0.161677,-0.107135
600,-0.284483,0.165037,-0.944369,0.143339,-0.1816839999999999,-0.194639
601,-0.285992,0.197907,-0.937572,-0.300007,0.060623,-0.8417709999999999
602,-0.284553,0.228363,-0.931064,-0.610466,0.839859,-0.439283
603,-0.301911,0.2578789999999999,-0.917795,-0.6181479999999999,0.322855,-0.256872
604,-0.306908,0.29356,-0.905334,-0.3088,-0.113766,0.34288
605,-0.308083,0.337337,-0.889544,0.100578,0.074238,0.4646479999999999
606,-0.289942,0.383828,-0.876704,-0.123693,0.183296,0.341303
607,-0.266119,0.42922,-0.8631049999999999,-0.395945,0.370768,0.408378
608,-0.232173,0.470743,-0.851174,-0.315816,0.292487,0.298821
609,-0.190128,0.511446,-0.838017,-0.20834,0.192106,0.280614
610,-0.142464,0.55379,-0.820378,-0.032234,0.083631,0.291645
611,-0.0923929999999999,0.596479,-0.797292,0.015794,0.117693,0.262716
612,-0.044341,0.638827,-0.768071,0.02275,0.135724,0.299305
613,0.0023079999999999,0.6796800000000001,-0.733504,0.038799,0.2405469999999999,0.269866
614,0.042196,0.717418,-0.695362,0.0427339999999999,0.303105,0.268025
615,0.073755,0.7517510000000001,-0.655308,0.008734,0.247227,0.263127
616,0.096845,0.7833600000000001,-0.613975,-0.071714,0.11082,0.262611
617,0.113606,0.81319,-0.5708,-0.14272,0.023891,0.2236929999999999
618,0.124744,0.8419530000000001,-0.524929,-0.161792,0.093487,0.204006
619,0.1302289999999999,0.8697159999999999,-0.476058,-0.091013,0.186238,0.259063
620,0.126317,0.8941690000000001,-0.429538,-0.026418,0.211392,0.223987
621,0.114241,0.913623,-0.390178,0.058748,0.143766,0.232616
622,0.10189,0.929428,-0.354653,0.038125,0.080872,0.156182
623,0.093437,0.942563,-0.320686,0.048912,0.055895,0.134437
624,0.088009,0.953131,-0.289467,0.100132,-0.031424,0.035393
625,0.085575,0.963235,-0.254656,-0.05579,0.0018219999999999,-0.018384
626,0.083867,0.972718,-0.2162869999999999,-0.183049,-0.082902,-0.0149139999999999
627,0.07731,0.97979,-0.184471,-0.176492,-0.089974,-0.04673
628,0.070243,0.985323,-0.15556,-0.02291,0.077284,-0.10442
629,0.064917,0.989727,-0.127358,0.074167,0.013569,-0.027489
630,0.058279,0.992882,-0.103838,-0.106023,-0.1134109999999999,-0.055738
631,0.051236,0.994899,-0.086858,-0.1441619999999999,-0.2033039999999999,-0.108073
632,0.045948,0.996154,-0.074555,-0.123676,-0.175903,-0.101821
633,0.043204,0.996802,-0.0671809999999999,-0.102576,-0.1284539999999999,-0.097751
634,0.042367,0.997217,-0.0612929999999999,0.039314,-0.130823,0.004027
635,0.041684,0.997504,-0.056934,0.056613,-0.195044,0.00545
636,0.038398,0.997567,-0.05812,-0.01609,-0.1919799999999999,-0.046143
637,0.033605,0.997702,-0.058783,-0.040823,-0.173452,-0.006113
638,0.031276,0.997926,-0.056201,0.162266,-0.266099,0.140567
639,0.0305709999999999,0.998302,-0.049516,0.1300579999999999,-0.271282,0.146242
640,0.029394,0.99884,-0.03804,-0.089208,0.052475,0.229904
641,0.027137,0.999367,-0.022874,-0.339301,0.464897,0.322129
642,0.022962,0.999705,-0.007511,-0.335127,0.464559,0.306767
643,0.018445,0.999771,0.0105569999999999,0.1355319999999999,0.7272649999999999,0.193514
644,0.017458,0.999334,0.031915,0.17848,0.571497,0.25083
645,0.02078,0.99803,0.059128,0.110705,0.518876,0.248001
646,0.0268769999999999,0.995429,0.0916049999999999,-0.031775,0.833902,0.290978
647,0.031099,0.991839,0.123619,-0.533617,0.693495,0.0350269999999999
648,0.0285699999999999,0.987889,0.152482,-0.544409,0.440608,-0.097978
649,0.020368,0.984332,0.175122,-0.304548,0.353269,-0.439404
650,0.0084459999999999,0.981878,0.189307,-0.027168,0.3080239999999999,-0.4907289999999999
651,0.003377,0.983262,0.182143,0.155222,0.150741,-0.581512
652,0.012517,0.988857,0.148311,0.317088,0.161228,-0.792675
653,0.030777,0.994772,0.097335,0.22023,0.181528,-0.6286470000000001
654,0.0526559999999999,0.997568,0.045582,0.126666,0.125631,-0.336766
655,0.076582,0.99706,0.000147,-0.123915,0.1175339999999999,0.381277
656,0.0912309999999999,0.994697,-0.047417,-0.589094,0.073601,0.560967
657,0.091615,0.990511,-0.1024099999999999,-0.664385,0.146818,0.4655689999999999
658,0.089634,0.982749,-0.161753,-0.61945,0.358606,0.22407
659,0.092086,0.970158,-0.224293,-0.132064,0.365581,0.277729
660,0.098857,0.950853,-0.29343,-0.009059,0.355193,0.257449
661,0.101848,0.926229,-0.362934,0.082784,0.220514,0.163899
662,0.097772,0.899169,-0.426533,-0.018792,0.143326,0.396397
663,0.087729,0.871658,-0.482195,-0.219794,0.020066,0.473055
664,0.073896,0.841146,-0.535732,-0.326704,0.035715,0.297008
665,0.057269,0.808342,-0.585919,-0.3717519999999999,0.094368,0.236401
666,0.035566,0.773345,-0.632985,-0.3356909999999999,-0.042815,0.268742
667,0.017402,0.736467,-0.676248,-0.318366,-0.113801,0.365533
668,0.006263,0.697923,-0.716144,-0.189613,-0.053132,0.499378
669,-0.0042299999999999,0.656262,-0.75452,-0.1249509999999999,-0.032971,0.536258
670,-0.0179539999999999,0.612638,-0.7901590000000001,0.131525,0.003512,0.562055
671,-0.036029,0.568913,-0.821607,0.166247,-0.0507699999999999,0.519987
672,-0.055914,0.527586,-0.847659,0.165182,-0.103849,0.49306
673,-0.076792,0.491826,-0.8673,0.054515,-0.319051,0.542242
674,-0.098032,0.462426,-0.8812209999999999,-0.0264029999999999,-0.364084,0.5469310000000001
675,-0.116103,0.441659,-0.889639,-0.012514,-0.336968,0.5120140000000001
676,-0.131079,0.429302,-0.893598,-0.038217,-0.28915,0.514142
677,-0.141934,0.4252229999999999,-0.89389,0.0087239999999999,-0.322821,0.464706
678,-0.147719,0.428675,-0.8913,-0.024599,-0.335291,0.421131
679,-0.15062,0.437401,-0.8865629999999999,-0.065063,-0.241005,0.30473
680,-0.150052,0.4499609999999999,-0.880351,-0.028033,-0.299327,0.176204
681,-0.145386,0.465422,-0.873066,0.080826,-0.221541,0.092945
682,-0.138531,0.48131,-0.865534,0.203274,-0.114626,-0.100394
683,-0.131294,0.4958,-0.858454,0.110802,-0.07774,-0.167181
684,-0.120574,0.510972,-0.8510979999999999,0.090346,-0.059022,-0.209738
685,-0.111014,0.528792,-0.8414590000000001,0.102408,-0.059172,-0.280901
686,-0.1072619999999999,0.551776,-0.8270649999999999,0.130654,-0.1038839999999999,-0.2707429999999999
687,-0.105652,0.582647,-0.805828,0.090988,-0.083364,-0.304432
688,-0.0971559999999999,0.613169,-0.783954,-0.228894,0.512274,-0.901685
689,-0.089396,0.626706,-0.7741100000000001,-0.876425,1.764148,-0.974455
690,-0.11942,0.636034,-0.762363,-0.151286,0.52603,0.441822
691,-0.146034,0.653004,-0.7431409999999999,-0.198906,-1.063343,1.450645
692,-0.131949,0.6795720000000001,-0.721643,-0.6533899999999999,-0.5272439999999999,-0.458472
693,-0.134223,0.701683,-0.69973,-0.109078,-0.232155,0.0309529999999999
694,-0.099676,0.732386,-0.673552,0.295583,0.290761,0.861922
695,-0.05071,0.757784,-0.650529,-0.550257,0.8580909999999999,0.130571
696,-0.029693,0.781646,-0.623012,-0.221329,0.5527350000000001,0.381359
697,-0.004157,0.806124,-0.591729,-0.092187,0.033033,0.465509
698,0.027988,0.8310059999999999,-0.555555,-0.024372,-0.064145,0.385755
699,0.061107,0.855916,-0.513487,0.002156,0.017024,0.348021
700,0.0897879999999999,0.8781549999999999,-0.469869,0.037317,0.247074,0.297109
701,0.1125579999999999,0.8981290000000001,-0.425076,0.081198,0.2208889999999999,0.249585
702,0.130791,0.915668,-0.380054,0.0251389999999999,0.118405,0.224063
703,0.148197,0.930648,-0.334554,-0.155674,-0.086471,0.1515099999999999
704,0.164366,0.943633,-0.2872889999999999,-0.239607,-0.1565079999999999,0.095745
705,0.178793,0.954867,-0.237181,-0.238943,-0.16463,0.081236
706,0.191662,0.963852,-0.185059,-0.153042,-0.083496,0.095444
707,0.198069,0.970855,-0.13491,-0.05717,0.044083,0.193718
708,0.2017,0.974955,-0.093658,-0.077295,0.055288,0.216385
709,0.2043599999999999,0.976952,-0.061594,-0.1555619999999999,0.084267,0.20669
710,0.205773,0.977911,-0.036592,-0.2413409999999999,0.148081,0.153917
711,0.209582,0.977686,-0.0140259999999999,-0.251009,0.038198,0.0293149999999999
712,0.21828,0.975768,0.014899,-0.132999,-0.11415,0.07676
713,0.226888,0.972742,0.047816,-0.122976,-0.11622,0.102194
714,0.230261,0.969997,0.0779509999999999,-0.074209,-0.026287,0.177664
715,0.2291239999999999,0.967939,0.102891,-0.072508,0.106371,0.019988
716,0.225744,0.96608,0.125375,-0.175588,0.115646,-0.045465
717,0.222213,0.964009,0.145938,-0.262756,0.0799059999999999,-0.104724
718,0.218013,0.962424,0.161865,-0.206081,-0.024008,-0.081467
719,0.213535,0.960878,0.17637,-0.090687,0.009856,-0.041239
720,0.2089099999999999,0.958622,0.193365,-0.069628,0.0281029999999999,-0.060141
721,0.204203,0.955477,0.212965,-0.134287,-0.011507,-0.00392
722,0.197542,0.952195,0.233005,-0.185411,0.033493,-0.050114
723,0.188056,0.949413,0.251473,-0.221655,0.052479,-0.112572
724,0.176335,0.946626,0.269803,-0.134236,0.060729,-0.241986
725,0.1632289999999999,0.943118,0.289607,-0.078253,0.141675,-0.2438
726,0.149329,0.940155,0.306263,-0.100867,0.155914,-0.293171
727,0.138627,0.937414,0.319415,-0.0574659999999999,0.063608,-0.273882
728,0.13018,0.935655,0.3280119999999999,0.096718,0.197173,-0.249094
729,0.1212029999999999,0.935078,0.3330579999999999,0.140974,0.205303,-0.308552
730,0.108966,0.93642,0.333515,-0.179675,0.2157099999999999,-0.48357
731,0.0963,0.940661,0.32538,-0.21869,0.319913,-0.579622
732,0.083362,0.948677,0.305044,-0.205753,0.311898,-0.559286
733,0.070855,0.959949,0.271048,-0.134591,0.160565,-0.15943
734,0.06182,0.972937,0.222621,-0.055258,0.234368,-0.0875659999999999
735,0.059911,0.984262,0.166216,-0.0575309999999999,0.4137939999999999,0.012937
736,0.059412,0.991963,0.11167,-0.340448,0.745693,0.219797
737,0.059544,0.996105,0.064954,-0.424519,0.285938,0.184573
738,0.0655429999999999,0.99756,0.023846,-0.332343,0.238188,0.112797
739,0.077177,0.996891,-0.015606,-0.366682,0.176403,0.0544399999999999
740,0.088673,0.994542,-0.0549059999999999,-0.46526,0.100886,0.2291
741,0.097992,0.990689,-0.0944779999999999,-0.350616,0.013965,0.339916
742,0.1042109999999999,0.984838,-0.1386619999999999,-0.137734,-0.12972,0.3834889999999999
743,0.1089079999999999,0.97666,-0.185118,-0.063788,-0.183508,0.3200659999999999
744,0.112827,0.967226,-0.22746,-0.119556,-0.206652,0.316953
745,0.115046,0.957858,-0.263185,-0.212855,-0.267764,0.278657
746,0.116854,0.948965,-0.292925,-0.3331929999999999,-0.224355,0.215486
747,0.116673,0.941242,-0.316932,-0.341969,-0.180728,0.2104099999999999
748,0.115588,0.935902,-0.332748,-0.338366,-0.170643,0.2826079999999999
749,0.1159109999999999,0.933169,-0.340226,-0.3180449999999999,-0.334536,0.334657
750,0.119171,0.932712,-0.340355,-0.294357,-0.320727,0.281898
751,0.1241,0.934099,-0.334741,-0.245194,-0.2588519999999999,0.214288
752,0.128295,0.936734,-0.325675,-0.163009,-0.226071,0.1463539999999999
753,0.131793,0.940143,-0.314253,-0.089649,-0.278248,0.116392
754,0.13708,0.944243,-0.299347,-0.045741,-0.311323,0.052323
755,0.14749,0.948977,-0.2787159999999999,-0.070784,-0.2979,-0.0092319999999999
756,0.162073,0.954213,-0.251404,-0.091547,-0.162999,-0.266526
757,0.179895,0.958342,-0.2218369999999999,-0.09408,0.092836,-0.456325
758,0.197001,0.960186,-0.198055,-0.100779,0.509891,-0.6123850000000001
759,0.2078539999999999,0.959957,-0.1878109999999999,-0.116698,0.716496,-0.679713
760,0.2142929999999999,0.958706,-0.186961,-0.287627,0.52837,-0.645361
761,0.213274,0.959379,-0.184658,-0.476504,0.023332,-0.268223
762,0.210486,0.960619,-0.181382,-0.533133,-0.15967,-0.120819
763,0.208953,0.962372,-0.1737,-0.600966,-0.352005,0.012124
764,0.206008,0.966776,-0.15132,-0.511047,-0.224009,0.155302
765,0.203945,0.972946,-0.108509,-0.361538,0.067307,0.215382
766,0.203628,0.977756,-0.0502,0.001419,0.933804,0.6728649999999999
767,0.198419,0.980093,-0.006179,-0.031595,0.522547,0.116241
768,0.19891,0.979986,0.007212,-0.1031609999999999,0.242914,-0.185664
769,0.204374,0.978674,0.020458,-0.182539,-0.574072,-0.00375
770,0.209692,0.976248,0.054396,-0.261465,-0.5972649999999999,0.496278
771,0.2070929999999999,0.973869,0.093171,-0.272202,-0.330543,0.601928
772,0.193,0.973773,0.120445,-0.2968659999999999,0.234724,0.253655
773,0.182672,0.974115,0.133116,-0.136179,0.373984,-0.182493
774,0.181944,0.972642,0.144403,-0.046691,0.299376,-0.372934
775,0.185375,0.967491,0.172005,-0.258221,-0.060646,0.068672
776,0.190058,0.960214,0.204584,-0.404428,-0.026132,0.3159389999999999
777,0.193964,0.955678,0.221463,-0.248713,-0.031422,0.142703
778,0.194724,0.955517,0.221488,-0.040823,0.005954,-0.106071
779,0.194353,0.954289,0.227041,0.055235,0.056377,-0.121389
780,0.191401,0.9505,0.24475,-0.080577,0.039276,0.076859
781,0.186789,0.946525,0.263034,-0.219413,-0.003776,0.102276
782,0.181513,0.943153,0.278395,-0.090022,-0.027091,0.013323
783,0.175267,0.940783,0.290167,-0.02155,0.002225,-0.044363
784,0.1676109999999999,0.938556,0.301675,0.074134,0.092511,-0.117974
785,0.159858,0.935662,0.314594,0.081231,0.109015,-0.115116
786,0.151092,0.93243,0.328226,-0.007278,0.039417,-0.149912
787,0.139646,0.929183,0.342208,-0.083844,-0.030486,-0.190627
788,0.126006,0.925791,0.3564,0.002595,-0.01147,-0.1983339999999999
789,0.110687,0.922255,0.370382,0.0616309999999999,0.018786,-0.20252
790,0.094804,0.918302,0.384345,0.1192619999999999,0.070452,-0.274619
791,0.078592,0.914147,0.397677,0.0542669999999999,0.114265,-0.327379
792,0.061695,0.910366,0.4091639999999999,0.013058,0.139118,-0.372451
793,0.043644,0.907017,0.418811,-0.053898,0.156215,-0.381701
794,0.024412,0.904565,0.425621,-0.02284,0.163078,-0.425759
795,0.00571,0.903392,0.428762,0.0397,0.1828509999999999,-0.452108
796,-0.012116,0.903278,0.4288689999999999,0.149551,0.223904,-0.447256
797,-0.029387,0.904639,0.425147,0.137266,0.230325,-0.52558
798,-0.046575,0.907849,0.416685,0.088506,0.2634309999999999,-0.550596
799,-0.061974,0.913753,0.401497,-0.050499,0.338948,-0.603997
800,-0.07301,0.923429,0.376741,-0.057208,0.397005,-0.6166550000000001
801,-0.082467,0.937681,0.337551,-0.048225,0.345126,-0.471004
802,-0.091422,0.955268,0.281234,-0.105722,0.233606,-0.327636
803,-0.100224,0.972542,0.210009,-0.1547349999999999,0.310951,-0.254
804,-0.106072,0.984574,0.139106,-0.348945,0.743102,-0.130317
805,-0.108797,0.99138,0.0729279999999999,-0.4231399999999999,0.7284689999999999,0.203668
806,-0.10123,0.994796,0.011134,-0.312726,0.616502,0.2710619999999999
807,-0.080845,0.995612,-0.047029,-0.141658,0.5735100000000001,0.375032
808,-0.063427,0.990899,-0.118695,-0.085575,0.284675,0.136929
809,-0.056865,0.977037,-0.2053219999999999,0.014018,0.1749099999999999,0.176727
810,-0.059813,0.953053,-0.296827,0.105773,0.0638389999999999,0.193159
811,-0.067794,0.922109,-0.380938,0.040923,-0.145757,0.098116
812,-0.085407,0.887142,-0.4535189999999999,0.039112,-0.121044,0.227964
813,-0.107806,0.850406,-0.5149590000000001,-0.005476,-0.081562,0.239416
814,-0.128971,0.812331,-0.568753,-0.1169549999999999,-0.25003,0.325849
815,-0.149797,0.7760050000000001,-0.612677,-0.081938,-0.4859819999999999,0.330801
816,-0.169144,0.743211,-0.6473220000000001,-0.010315,-0.46605,0.367262
817,-0.188196,0.714371,-0.673983,0.196497,-0.4206399999999999,0.296404
818,-0.204777,0.691865,-0.6923779999999999,0.177967,-0.525544,0.216609
819,-0.2153969999999999,0.6764720000000001,-0.704264,0.208225,-0.46024,0.156778
820,-0.220351,0.6675439999999999,-0.711216,0.134536,-0.445529,0.066852
821,-0.219386,0.664641,-0.7142270000000001,0.004557,-0.54994,-0.042746
822,-0.21663,0.66718,-0.7127,0.216416,-0.389851,-0.05317
823,-0.212746,0.674872,-0.7066,0.110421,-0.300117,-0.131046
824,-0.209031,0.686092,-0.696837,0.103592,-0.296153,-0.150789
825,-0.203579,0.701735,-0.6827310000000001,0.028241,-0.2835519999999999,-0.248437
826,-0.194141,0.723639,-0.662309,-0.091107,-0.284003,-0.120971
827,-0.1827359999999999,0.753567,-0.631459,-0.581775,0.051181,-0.2410989999999999
828,-0.164654,0.776351,-0.608412,-1.055546,1.359696,-0.839571
829,-0.160907,0.788942,-0.593023,-0.149594,0.703337,0.4335229999999999
830,-0.170168,0.8078529999999999,-0.564281,-0.134779,-0.429511,0.086346
831,-0.147521,0.8299690000000001,-0.537945,-0.176148,-0.422483,-0.043995
832,-0.129792,0.853783,-0.5041869999999999,0.607224,-0.146035,0.746786
833,-0.086889,0.882352,-0.462495,0.224233,0.382861,0.136171
834,-0.052444,0.905202,-0.421728,0.039886,0.760722,-0.016596
835,-0.037791,0.924424,-0.379482,-0.018163,0.258254,0.056499
836,-0.0281769999999999,0.939542,-0.341265,-0.055319,-0.45033,0.0020469999999999
837,-0.018928,0.953266,-0.301528,-0.002206,-0.471211,-0.016801
838,-0.0129819999999999,0.96594,-0.258428,0.048901,-0.320554,0.005743
839,-0.010024,0.976326,-0.216055,0.129821,0.053245,-0.022348
840,-0.0072829999999999,0.984367,-0.175955,0.202367,0.126472,-0.010156
841,-0.00775,0.989891,-0.141592,0.303908,0.107323,-0.0582679999999999
842,-0.01057,0.993405,-0.114132,0.242382,-0.042432,-0.19817
843,-0.01637,0.995791,-0.0901309999999999,0.180234,-0.07886,-0.166095
844,-0.024465,0.997518,-0.06595,0.081502,-0.006094,-0.291076
845,-0.029598,0.998904,-0.036107,0.127804,0.1066859999999999,-0.215679
846,-0.033586,0.999395,-0.008343,0.128663,0.092173,-0.253742
847,-0.036098,0.999209,0.016373,0.163524,0.009901,-0.255432
848,-0.039647,0.998422,0.039631,0.07169,-0.0096519999999999,-0.204365
849,-0.044653,0.99734,0.057503,0.027793,-0.026317,-0.19529
850,-0.049672,0.996347,0.069377,-0.005809,-0.115869,-0.17956
851,-0.055763,0.995649,0.074569,-0.007469,-0.1499,-0.291976
852,-0.063098,0.995287,0.073549,0.023441,-0.110948,-0.2883469999999999
853,-0.070659,0.994993,0.070598,0.0953789999999999,-0.075483,-0.241634
854,-0.078668,0.994571,0.068016,0.1088349999999999,-0.073383,-0.253166
855,-0.086762,0.994225,0.063064,0.1040339999999999,-0.065208,-0.271133
856,-0.094109,0.99388,0.057733,0.1249779999999999,-0.140486,0.081412
857,-0.099647,0.99338,0.057038,0.1585,-0.130724,0.0756059999999999
858,-0.105919,0.992613,0.0590549999999999,0.109566,-0.00244,0.134076
859,-0.112607,0.991075,0.071258,0.055615,0.1666099999999999,0.508073
860,-0.121696,0.988532,0.089336,-0.054574,0.879617,0.195195
861,-0.126026,0.984473,0.122137,0.126499,1.433481,0.358423
862,-0.126503,0.978599,0.162252,0.3583449999999999,0.715462,0.121988
863,-0.121744,0.970835,0.206501,-0.053381,0.909826,0.04797
864,-0.116317,0.961983,0.247067,-0.331467,1.094398,-0.136746
865,-0.117863,0.952681,0.280163,-0.517116,0.463442,-0.499508
866,-0.1256779999999999,0.945356,0.300817,-0.048532,0.4587279999999999,-0.939657
867,-0.137548,0.942079,0.3058599999999999,0.274816,0.465895,-1.112058
868,-0.140482,0.946097,0.2918,0.734019,0.267465,-0.8640969999999999
869,-0.1331099999999999,0.956922,0.257999,0.658821,0.1148849999999999,-0.836307
870,-0.122214,0.969255,0.213521,0.442984,0.1262039999999999,-0.41367
871,-0.109044,0.979661,0.168395,0.173238,0.157424,0.042985
872,-0.097468,0.987705,0.122164,-0.082845,0.186887,-0.040514
873,-0.0904929999999999,0.993502,0.06892,-0.091773,0.4693739999999999,0.084964
874,-0.085953,0.996254,0.008646,-0.002167,0.379875,0.106832
875,-0.079819,0.994871,-0.06202,0.233185,0.3728349999999999,-0.0904
876,-0.072825,0.987824,-0.137433,0.27891,0.231811,-0.0167569999999999
877,-0.074385,0.975234,-0.208265,0.090697,0.045549,0.153104
878,-0.082158,0.9555,-0.283302,-0.236262,-0.003763,0.07624
879,-0.09116,0.928346,-0.360352,-0.133693,0.167189,-0.096496
880,-0.104683,0.895013,-0.433572,-0.00869,0.145774,-0.051017
881,-0.121262,0.855391,-0.5035810000000001,-0.009293,0.00081,0.286235
882,-0.1423559999999999,0.807037,-0.573079,-0.103738,0.021088,0.356007
883,-0.170573,0.7468520000000001,-0.642738,0.094507,0.093816,0.319984
884,-0.199714,0.682262,-0.703298,0.2737949999999999,-0.025829,0.4331569999999999
885,-0.2311639999999999,0.615187,-0.753727,0.291375,-0.008131,0.526173
886,-0.264706,0.547366,-0.793926,0.260189,-0.242969,0.655605
887,-0.297426,0.483864,-0.823049,0.401903,-0.472802,0.682638
888,-0.32876,0.426672,-0.842535,0.2737219999999999,-0.530081,0.6920069999999999
889,-0.35971,0.377763,-0.8531709999999999,0.263427,-0.3916179999999999,0.72901
890,-0.385492,0.338675,-0.858308,0.158838,-0.4753779999999999,0.63376
891,-0.402237,0.311206,-0.8610190000000001,0.195649,-0.457477,0.602916
892,-0.4118279999999999,0.293904,-0.8625639999999999,0.1587609999999999,-0.362293,0.5141600000000001
893,-0.414941,0.284523,-0.864215,0.292688,-0.37983,0.305759
894,-0.4133159999999999,0.281775,-0.865893,0.363404,-0.380561,0.21918
895,-0.41022,0.28433,-0.8665299999999999,0.392703,-0.359754,0.099898
896,-0.406348,0.293864,-0.8651719999999999,0.3755409999999999,-0.391887,-0.082063
897,-0.402775,0.313972,-0.859762,0.104817,-0.330115,-0.956232
898,-0.399232,0.339752,-0.851575,-0.465788,0.680466,-1.864459
899,-0.396644,0.355299,-0.846424,-0.006234,0.6788350000000001,-0.572842
900,-0.4231979999999999,0.380455,-0.8222860000000001,0.17837,0.100212,-0.028254
901,-0.418687,0.417352,-0.806545,-0.46118,-0.463952,-0.210652
902,-0.414207,0.460539,-0.785068,0.571159,0.507845,-0.0762289999999999
903,-0.385317,0.506998,-0.771025,-0.064085,0.276861,0.246946
904,-0.3592579999999999,0.5532699999999999,-0.751546,0.00443,0.1730789999999999,0.0537309999999999
905,-0.333586,0.595906,-0.730487,0.080794,0.06866,0.111667
906,-0.303397,0.638687,-0.707123,0.040793,-0.040466,0.179963
907,-0.266826,0.681697,-0.681239,-0.05782,-0.114772,0.144358
908,-0.228263,0.723345,-0.6516609999999999,0.065619,-0.147448,0.202213
909,-0.18704,0.763728,-0.617841,0.072279,-0.113338,0.176786
910,-0.146192,0.801601,-0.579703,0.100584,0.135228,0.133292
911,-0.1120869999999999,0.8349700000000001,-0.538752,0.223705,0.238929,0.113169
912,-0.089008,0.8636149999999999,-0.4962229999999999,0.15932,0.139284,0.119148
913,-0.072333,0.888093,-0.453927,0.112052,-0.082245,0.098748
914,-0.06175,0.909364,-0.41138,0.138121,-0.189683,0.0703
915,-0.059059,0.927971,-0.367926,0.1866529999999999,-0.155419,0.009039
916,-0.061898,0.944412,-0.322865,0.285729,0.023025,0.0735519999999999
917,-0.0678179999999999,0.958287,-0.277622,0.322945,0.056621,0.051685
918,-0.075636,0.968977,-0.235264,0.309004,0.044252,0.010304
919,-0.082117,0.977377,-0.194874,0.183252,-0.019538,-0.049648
920,-0.088827,0.983412,-0.158099,0.0404879999999999,-0.077757,-0.063947
921,-0.097241,0.987351,-0.12517,-0.0012699999999999,-0.0587769999999999,-0.13606
922,-0.104545,0.990529,-0.08892,-0.010293,-0.007527,-0.138725
923,-0.113719,0.992001,-0.054647,0.002955,0.106571,-0.202463
924,-0.1230329999999999,0.992042,-0.026417,0.078432,0.152016,-0.253292
925,-0.126447,0.991964,0.000761,0.246244,0.077372,-0.26599
926,-0.129123,0.991345,0.023333,0.1633339999999999,-0.070752,-0.152407
927,-0.134893,0.990112,0.038267,0.066549,-0.18695,-0.11247
928,-0.142765,0.98868,0.045961,-0.0023309999999999,-0.209215,-0.138368
929,-0.150009,0.987541,0.047359,0.004089,-0.137138,-0.222957
930,-0.156005,0.986678,0.045948,0.133697,-0.11885,-0.274159
931,-0.158932,0.986067,0.048924,0.3040739999999999,-0.222808,-0.093541
932,-0.160658,0.985537,0.0537259999999999,0.340712,-0.274463,-0.016861
933,-0.162145,0.985154,0.0562309999999999,0.21935,-0.2371219999999999,-0.050204
934,-0.164521,0.984506,0.060525,0.0518799999999999,-0.168923,-0.0978779999999999
935,-0.165508,0.983563,0.072055,0.133007,-0.015073,0.225079
936,-0.167884,0.981741,0.089334,0.01319,0.208704,0.39176
937,-0.174258,0.978709,0.108369,-0.115079,0.5340779999999999,0.094481
938,-0.179871,0.974713,0.132519,-0.080459,1.0294370000000002,0.073917
939,-0.183945,0.969913,0.159411,0.320725,1.378521,0.063688
940,-0.186319,0.963826,0.1905339999999999,0.291086,0.726191,0.007845
941,-0.184435,0.957062,0.223595,0.008395,0.8359530000000001,-0.048775
942,-0.180898,0.950242,0.253563,-0.123103,0.74298,-0.3252489999999999
943,-0.18397,0.942841,0.277819,-0.091054,0.493942,-0.364412
944,-0.193329,0.936778,0.29163,0.191544,0.2349909999999999,-0.597126
945,-0.196941,0.936651,0.289613,0.34634,0.232173,-0.688096
946,-0.196017,0.942743,0.269795,0.505907,0.267493,-0.804082
947,-0.189004,0.954067,0.232403,0.368432,0.150898,-0.8104819999999999
948,-0.173718,0.966598,0.188384,0.40617,0.15741,-0.5838
949,-0.151814,0.977918,0.143555,0.385945,0.20177,-0.043565
950,-0.129237,0.987046,0.09496,0.024043,0.145522,0.328868
951,-0.113758,0.992581,0.042698,-0.097195,0.209461,0.32777
952,-0.10764,0.994038,-0.016849,0.0153699999999999,0.517452,0.130619
953,-0.102321,0.991202,-0.083851,0.023402,0.4304739999999999,0.150746
954,-0.097692,0.98284,-0.15642,0.0555019999999999,0.188608,-0.155439
955,-0.0985159999999999,0.96847,-0.228796,-0.033198,0.0557919999999999,-0.127726
956,-0.101797,0.949782,-0.2958679999999999,0.02645,0.076875,0.017182
957,-0.107205,0.92638,-0.360993,0.038998,0.105541,0.256883
958,-0.1146369999999999,0.897199,-0.426477,-0.173922,0.0526299999999999,0.005487
959,-0.1262589999999999,0.861965,-0.490985,-0.117576,-0.005947,0.0643799999999999
960,-0.144647,0.8212360000000001,-0.5519430000000001,-0.066977,-0.014641,0.207369
961,-0.165736,0.7744439999999999,-0.610541,0.145534,-0.003051,0.2612219999999999
962,-0.188978,0.721147,-0.666504,0.275968,0.064635,0.349366
963,-0.218599,0.662243,-0.716689,0.307619,0.11829,0.443633
964,-0.25377,0.598928,-0.7595270000000001,0.344911,-0.155325,0.4806569999999999
965,-0.290448,0.534972,-0.793373,0.279401,-0.338286,0.542305
966,-0.326619,0.4736359999999999,-0.817915,0.165197,-0.481052,0.58322
967,-0.361207,0.418392,-0.8333520000000001,0.148194,-0.387508,0.61924
968,-0.392827,0.371911,-0.841051,0.22498,-0.244256,0.663347
969,-0.415027,0.334319,-0.8461559999999999,0.120716,-0.406371,0.5686899999999999
970,-0.428839,0.306261,-0.849882,0.146887,-0.489595,0.442777
971,-0.431939,0.289063,-0.854324,0.2003869999999999,-0.440872,0.365814
972,-0.427579,0.282789,-0.858606,0.342237,-0.369718,0.260263
973,-0.422559,0.28508,-0.860332,0.2712989999999999,-0.42453,0.177776
974,-0.42132,0.292613,-0.858408,0.356073,-0.370814,0.063731
975,-0.418966,0.304268,-0.855503,0.293539,-0.346702,-0.122982
976,-0.413779,0.3151739999999999,-0.8540780000000001,0.211036,-0.173206,-0.450808
977,-0.405159,0.319154,-0.8567290000000001,0.155937,0.2437889999999999,-0.8476469999999999
978,-0.400318,0.322257,-0.857842,0.0136759999999999,0.184121,-0.908149
979,-0.408654,0.334181,-0.8493069999999999,-0.155387,-0.041181,-0.679029
980,-0.423781,0.357844,-0.8320780000000001,-0.105516,-0.322642,0.143891
981,-0.425063,0.394284,-0.814775,-0.188249,-0.0548059999999999,-0.121413
982,-0.421253,0.438808,-0.793719,-0.198269,0.100605,-0.16113
983,-0.399832,0.489162,-0.775146,-0.140925,0.432591,-0.1194619999999999
984,-0.373587,0.538037,-0.755609,0.003836,0.601932,0.041956
985,-0.349058,0.5825520000000001,-0.734021,-0.076036,0.374143,0.176297
986,-0.322034,0.6261909999999999,-0.710052,-0.027682,-0.039872,0.168396
987,-0.288701,0.6704859999999999,-0.683443,-0.073497,-0.101104,0.232042
988,-0.248255,0.7151569999999999,-0.653386,-0.130193,-0.099313,0.211446
989,-0.205321,0.757781,-0.619358,-0.048677,-0.045165,0.2240639999999999
990,-0.163764,0.797401,-0.580797,-0.028024,-0.045814,0.185137
991,-0.1265079999999999,0.833124,-0.538416,0.086347,0.0293329999999999,0.12147
992,-0.096694,0.863928,-0.494237,0.275115,0.115854,0.11173
993,-0.074349,0.890757,-0.448347,0.290688,0.0147,0.083021
994,-0.054965,0.91443,-0.400982,0.276279,-0.152238,0.044948
995,-0.040752,0.935252,-0.351612,0.222377,-0.229503,0.043934
996,-0.032599,0.95303,-0.301097,0.212378,-0.217098,0.009105
997,-0.030493,0.967944,-0.249282,0.257986,-0.0073269999999999,0.023772
998,-0.031816,0.979707,-0.1978589999999999,0.264986,0.052794,-0.0311439999999999
999,-0.038445,0.98749,-0.152872,0.166711,0.088834,0.002664
1000,-0.048277,0.992197,-0.1148849999999999,0.067182,-0.07107,-0.011747
1001,-0.058544,0.994852,-0.082616,0.035122,-0.142206,-0.060649
1002,-0.068802,0.996187,-0.0534899999999999,0.033813,-0.178789,-0.0987929999999999
1003,-0.080212,0.996446,-0.025389,-0.045245,-0.030747,-0.166048
1004,-0.092093,0.995727,0.005468,-0.029749,0.078385,-0.127019
1005,-0.102189,0.993963,0.039716,0.0712899999999999,0.091639,-0.099332
1006,-0.112021,0.991433,0.067038,0.280387,0.097358,-0.109366
1007,-0.1223799999999999,0.988351,0.090373,0.310292,0.0204379999999999,-0.069529
1008,-0.131467,0.985016,0.11154,0.204588,-0.058213,-0.060332
1009,-0.138328,0.981466,0.1325569999999999,0.141929,-0.079412,-0.068927
1010,-0.145072,0.977728,0.151597,0.07476,-0.073203,-0.044205
1011,-0.151589,0.973913,0.168801,0.0291829999999999,-0.020849,-0.06942
1012,-0.158347,0.970128,0.183731,-0.012384,0.001597,-0.134857
1013,-0.166158,0.96636,0.196265,0.001653,0.036066,-0.236792
1014,-0.173605,0.962487,0.20847,0.1165829999999999,0.162437,-0.253301
1015,-0.178851,0.95971,0.2166719999999999,0.207858,0.1146609999999999,-0.241361
1016,-0.183909,0.958934,0.215875,0.280008,0.097172,-0.2342
1017,-0.1889549999999999,0.959686,0.208037,0.223592,0.09607,-0.107955
1018,-0.186325,0.961699,0.200993,0.090271,0.031069,0.005901
1019,-0.177874,0.963443,0.200295,0.062457,0.1406369999999999,-0.037057
1020,-0.17851,0.961133,0.210562,-0.057696,0.2415489999999999,-0.050879
1021,-0.185398,0.956997,0.223076,-0.079586,0.4097939999999999,-0.114632
1022,-0.191688,0.953878,0.230976,0.3135449999999999,0.188059,0.052471
1023,-0.200822,0.951115,0.234582,0.24843,0.265957,0.016852
1024,-0.21191,0.948518,0.235342,0.027126,0.512817,-0.009848
1025,-0.22057,0.94659,0.2351469999999999,-0.052059,0.327626,-0.022973
