,gravity.x,gravity.y,gravity.z,userAcceleration.x,userAcceleration.y,userAcceleration.z
0,0.166568,0.947784,-0.271949,0.293363,0.050538,0.165901
1,0.162513,0.959616,-0.2296099999999999,0.4047929999999999,-0.189185,0.115215
2,0.169602,0.967964,-0.185138,0.260055,-0.418465,0.158374
3,0.193234,0.97196,-0.133973,0.061451,-0.3897,0.113664
4,0.218106,0.972435,-0.082425,-0.263455,-0.250542,-0.208697
5,0.236789,0.970815,-0.037982,-0.37218,-0.194357,-0.1461309999999999
6,0.244821,0.969563,0.002128,-0.246103,-0.125813,-0.178474
7,0.2450969999999999,0.968984,0.031493,-0.0154069999999999,0.067729,-0.265501
8,0.241988,0.968835,0.052857,0.117723,-0.085336,-0.183869
9,0.236678,0.969017,0.070586,0.181032,-0.0960159999999999,-0.093154
10,0.229872,0.969631,0.083475,0.2680369999999999,0.0170939999999999,0.057409
11,0.225248,0.969538,0.096192,0.311846,0.008337,-0.0478209999999999
12,0.223157,0.968365,0.111642,0.319171,0.018299,-0.113748
13,0.221683,0.967156,0.1243349999999999,0.321194,-0.009026,-0.203482
14,0.221055,0.965892,0.134831,0.235976,0.052739,-0.099705
15,0.219342,0.964733,0.145507,0.171695,0.1060369999999999,-0.080993
16,0.21505,0.964488,0.15333,0.093147,0.308584,-0.019175
17,0.20793,0.965019,0.1596769999999999,0.072038,0.392602,0.046423
18,0.199251,0.966143,0.1638869999999999,0.173643,0.5700810000000001,0.103965
19,0.192178,0.967996,0.161383,0.463172,0.545035,0.185953
20,0.189894,0.96954,0.154678,0.3205739999999999,0.580158,-0.026184
21,0.193253,0.970785,0.142208,0.260467,0.569819,-0.116299
22,0.195723,0.973498,0.118267,0.055376,0.441525,-0.378948
23,0.194962,0.97761,0.0791419999999999,0.080887,0.34281,-0.4698279999999999
24,0.197566,0.980092,0.019527,0.15508,0.287898,-0.422237
25,0.201527,0.977941,-0.054889,0.246685,0.5525760000000001,-0.037961
26,0.1995559999999999,0.970403,-0.135983,0.229079,0.52061,0.336911
27,0.196391,0.956802,-0.214375,0.112935,0.525147,0.451863
28,0.194553,0.93924,-0.2827949999999999,-0.1262849999999999,0.1539599999999999,0.275517
29,0.193927,0.91928,-0.342509,-0.1623869999999999,0.092835,0.382106
30,0.180362,0.898184,-0.400914,0.01257,0.108041,0.390767
31,0.1715549999999999,0.871499,-0.4594069999999999,0.189834,0.054923,0.172923
32,0.169579,0.8442629999999999,-0.508391,0.028694,-0.081506,0.58267
33,0.157709,0.8153560000000001,-0.557064,-0.049219,-0.199679,0.757839
34,0.130947,0.781983,-0.609388,-0.178691,-0.457017,0.58415
35,0.093825,0.748822,-0.656095,-0.006453,-0.461362,0.48631
36,0.052552,0.716312,-0.695797,0.104522,-0.286579,0.440533
37,0.004492,0.684156,-0.729321,0.0874419999999999,-0.159162,0.4688229999999999
38,-0.043831,0.653945,-0.75527,-0.085884,-0.282989,0.528921
39,-0.084369,0.628544,-0.773184,-0.261991,-0.439488,0.463964
40,-0.107828,0.610662,-0.784516,-0.169791,-0.315511,0.344803
41,-0.11457,0.601494,-0.790619,-0.045571,-0.178734,0.2657469999999999
42,-0.112233,0.600599,-0.7916340000000001,-0.003627,-0.227491,0.273979
43,-0.105831,0.605267,-0.788956,-0.075916,-0.316219,0.265823
44,-0.0939509999999999,0.614548,-0.7832640000000001,-0.076154,-0.352051,0.159805
45,-0.076232,0.6276390000000001,-0.774763,0.009093,-0.292876,0.017118
46,-0.0592049999999999,0.643691,-0.762991,0.116212,-0.2411179999999999,-0.2262969999999999
47,-0.044729,0.664077,-0.746324,0.203023,-0.2908469999999999,-0.587294
48,-0.027231,0.6872060000000001,-0.725951,0.152277,-0.000576,-0.414857
49,-0.000184,0.709487,-0.704717,-0.062621,0.792619,-0.466487
50,0.017449,0.730664,-0.682512,-0.012032,0.8566159999999999,0.1112079999999999
51,0.036701,0.747591,-0.663143,-0.217029,0.2149329999999999,0.4242359999999999
52,0.0668179999999999,0.764937,-0.640628,-0.331024,-0.392592,0.190631
53,0.0979179999999999,0.781991,-0.615548,0.138823,0.280356,0.321984
54,0.126807,0.804412,-0.580378,0.144067,0.391465,0.390207
55,0.148579,0.826239,-0.54337,0.2058219999999999,0.347391,0.3280679999999999
56,0.167722,0.847515,-0.5035729999999999,0.2786889999999999,0.2231949999999999,0.399859
57,0.180588,0.8694120000000001,-0.459899,0.3255619999999999,0.196185,0.409056
58,0.187826,0.890152,-0.4151479999999999,0.431345,0.156571,0.387621
59,0.1895329999999999,0.90906,-0.371057,0.396923,0.1123329999999999,0.2325829999999999
60,0.189741,0.92682,-0.324035,0.421389,0.108504,0.1631
61,0.18971,0.940452,-0.282055,0.372637,-0.108299,0.040676
62,0.186424,0.951825,-0.243457,0.321221,-0.313901,0.094165
63,0.18887,0.960676,-0.203532,0.258136,-0.425642,0.178309
64,0.2059219999999999,0.965652,-0.158451,-0.03301,-0.311859,0.22034
65,0.2314909999999999,0.966836,-0.107863,-0.2771909999999999,-0.249612,-0.051423
66,0.252154,0.96572,-0.061635,-0.614168,-0.2002779999999999,-0.1769359999999999
67,0.257216,0.966039,-0.0245449999999999,-0.139189,-0.175359,-0.162131
68,0.259273,0.965792,0.004184,0.078053,-0.02141,-0.249469
69,0.26041,0.964989,0.031238,0.104137,-0.005883,-0.3302179999999999
70,0.260302,0.963967,0.054807,0.1723299999999999,-0.035561,-0.076887
71,0.2554349999999999,0.964301,0.0697779999999999,0.222302,0.001778,0.026673
72,0.250146,0.965069,0.077856,0.303733,-0.05708,0.031458
73,0.2488699999999999,0.964572,0.0875,0.303177,-0.0921049999999999,-0.092093
74,0.248978,0.963252,0.100743,0.227844,-0.083247,-0.095524
75,0.247779,0.961895,0.115572,0.170098,-0.093196,-0.032228
76,0.245535,0.960716,0.129344,0.126154,-0.042472,-0.0144919999999999
77,0.247241,0.958774,0.1400559999999999,0.07211,0.036068,-0.053111
78,0.252053,0.956449,0.147196,0.131492,0.133288,-0.127664
79,0.251008,0.955333,0.155965,0.162338,0.260517,-0.074147
80,0.24459,0.955239,0.166391,0.091378,0.459205,-0.053415
81,0.234992,0.956414,0.1733289999999999,0.278588,0.568809,-0.002629
82,0.223601,0.959284,0.172533,0.6848770000000001,0.639806,0.216719
83,0.217384,0.961142,0.170123,0.342369,0.580377,0.129911
84,0.2204719999999999,0.960961,0.167143,0.081743,0.554801,-0.0985549999999999
85,0.222512,0.963078,0.151529,-0.000542,0.344341,-0.392908
86,0.219851,0.967756,0.1229069999999999,0.07385,0.463427,-0.427335
87,0.218075,0.973202,0.072902,0.113041,0.475163,-0.38621
88,0.217173,0.976123,0.0036009999999999,0.10761,0.425336,-0.269196
89,0.21598,0.973199,-0.078928,0.141869,0.481162,-0.024954
90,0.216034,0.962868,-0.161888,-0.012222,0.663779,0.404441
91,0.210101,0.947438,-0.241273,-0.208102,0.478358,0.359483
92,0.205565,0.926782,-0.314345,-0.25064,0.337561,0.38597
93,0.202599,0.903706,-0.377179,-0.129936,0.143413,0.403455
94,0.200021,0.877661,-0.435543,0.00881,0.170145,0.4419369999999999
95,0.187805,0.843934,-0.502495,0.077088,-0.169465,0.368172
96,0.164259,0.8048960000000001,-0.570226,0.012087,-0.247096,0.403707
97,0.132456,0.763681,-0.631857,-0.012614,-0.31428,0.627905
98,0.08812,0.720873,-0.687441,0.135239,-0.265078,0.407122
99,0.036558,0.6809569999999999,-0.731409,0.184039,-0.255588,0.543573
100,-0.0257279999999999,0.639787,-0.76812,0.130159,-0.229478,0.594414
101,-0.09236,0.602163,-0.7930119999999999,-0.101259,-0.346593,0.559873
102,-0.1486839999999999,0.570595,-0.807659,-0.197873,-0.336068,0.542369
103,-0.191003,0.547764,-0.814537,-0.0522679999999999,-0.230259,0.586784
104,-0.2146989999999999,0.533086,-0.818366,0.018959,-0.296987,0.431372
105,-0.221784,0.528771,-0.819275,0.033399,-0.296944,0.382859
106,-0.216808,0.5342020000000001,-0.8170810000000001,-0.016285,-0.3322969999999999,0.354969
107,-0.2001339999999999,0.546676,-0.813075,0.020081,-0.371795,0.126795
108,-0.1714,0.5637909999999999,-0.807936,0.012251,-0.337549,-0.034212
109,-0.1454069999999999,0.581359,-0.8005479999999999,0.104528,-0.300109,-0.160313
110,-0.124889,0.597055,-0.7924180000000001,0.135768,-0.06518,-0.815767
111,-0.108911,0.602647,-0.7905399999999999,0.083215,0.294692,-1.159289
112,-0.114542,0.596464,-0.794424,-0.0616669999999999,0.488817,-1.144801
113,-0.1182589999999999,0.606571,-0.786184,-0.187023,-0.0533789999999999,0.006368
114,-0.105279,0.62917,-0.770104,-0.310828,-0.171132,0.933052
115,-0.088472,0.659377,-0.746587,-0.101927,0.180726,-0.00323
116,-0.05711,0.682143,-0.728984,0.036129,0.60344,-0.342916
117,-0.023853,0.7019920000000001,-0.711784,-0.335568,0.67873,0.129768
118,0.0046159999999999,0.724805,-0.688937,0.1541819999999999,0.234561,0.282962
119,0.0514769999999999,0.7459100000000001,-0.664053,0.1897339999999999,0.207108,0.325277
120,0.102088,0.766858,-0.633644,0.262277,0.312656,0.289436
121,0.1522069999999999,0.787836,-0.596779,0.271636,0.172873,0.369194
122,0.2056239999999999,0.809567,-0.549833,0.20734,0.116657,0.271574
123,0.2533019999999999,0.830628,-0.495874,0.022119,0.0875389999999999,0.1930329999999999
124,0.288731,0.8513290000000001,-0.438029,-0.063572,0.039906,0.255457
125,0.31311,0.871782,-0.376767,0.025315,-0.071642,0.2304969999999999
126,0.319052,0.8933469999999999,-0.3164349999999999,0.02659,-0.1730259999999999,0.269026
127,0.310469,0.913598,-0.2625679999999999,0.0737169999999999,-0.11834,0.148494
128,0.2944969999999999,0.930198,-0.219081,0.22833,0.050225,-0.050893
129,0.27913,0.942277,-0.184915,0.36798,0.073775,-0.032477
130,0.267743,0.950892,-0.155279,0.323047,-0.035105,-0.0145669999999999
131,0.267102,0.956396,-0.1181319999999999,0.216113,-0.30213,0.063887
132,0.279098,0.957561,-0.071922,0.0856929999999999,-0.386119,0.086113
133,0.296172,0.954841,-0.0235289999999999,-0.137496,-0.401542,-0.125214
134,0.313627,0.949279,0.022344,-0.23129,-0.336852,-0.152394
135,0.3260929999999999,0.943682,0.055846,-0.280027,-0.189974,-0.1239609999999999
136,0.32894,0.941047,0.0788659999999999,-0.2779,0.154855,-0.052972
137,0.322725,0.941091,0.100932,-0.020158,-0.0473839999999999,-0.065104
138,0.312238,0.9426,0.118339,0.042849,-0.056537,-0.011939
139,0.299457,0.944308,0.136373,0.03735,-0.004504,-0.211859
140,0.290809,0.943725,0.157493,0.089241,0.033341,-0.2382119999999999
141,0.285392,0.942079,0.17615,0.142541,0.018126,-0.194353
142,0.277384,0.941317,0.192278,0.220602,0.039564,-0.276552
143,0.268251,0.941216,0.2052909999999999,0.282973,0.021797,-0.2235869999999999
144,0.259795,0.941488,0.214702,0.361009,0.041025,-0.190075
145,0.252337,0.942323,0.219873,0.621259,-0.0013289999999999,-0.0565429999999999
146,0.245258,0.943251,0.2238679999999999,0.612103,-0.01248,-0.137656
147,0.242702,0.94309,0.227305,0.6146590000000001,-0.012319,-0.141093
148,0.2453389999999999,0.941797,0.2298239999999999,0.207984,0.337073,-0.1957819999999999
149,0.2530679999999999,0.94047,0.226858,0.237609,0.43891,-0.033789
150,0.264852,0.941383,0.2089079999999999,0.225825,0.437996,-0.0158379999999999
151,0.28092,0.943642,0.174973,-0.009894,0.4404369999999999,-0.098572
152,0.293771,0.947454,0.12658,-0.474419,0.2157239999999999,-0.029763
153,0.299479,0.952122,0.061387,-0.491297,0.255092,0.066528
154,0.3069989999999999,0.95169,-0.005603,-0.458579,0.383469,0.324069
155,0.314745,0.94698,-0.06448,-0.5618310000000001,0.698436,0.210995
156,0.3160469999999999,0.939863,-0.129485,-0.594245,0.822833,0.159865
157,0.292778,0.936341,-0.193753,-0.71331,0.827254,0.268933
158,0.251639,0.932614,-0.258656,-0.502784,0.189288,0.35117
159,0.22694,0.915767,-0.331458,-0.277431,0.217229,0.4341029999999999
160,0.2135159999999999,0.894432,-0.392934,0.2089239999999999,-0.134804,0.44431
161,0.211391,0.876448,-0.432606,0.266392,-0.184172,0.599812
162,0.219514,0.8608100000000001,-0.459146,0.281584,-0.252687,0.550729
163,0.225302,0.846166,-0.482947,-0.030371,-0.381521,0.571463
164,0.224257,0.833002,-0.505779,-0.254226,-0.491068,0.528988
165,0.218526,0.8224540000000001,-0.525179,-0.216283,-0.505391,0.4146289999999999
166,0.215858,0.8163239999999999,-0.5357390000000001,-0.18531,-0.466715,0.348758
167,0.2195949999999999,0.815109,-0.5360699999999999,-0.196768,-0.36145,0.255614
168,0.230338,0.818617,-0.5261239999999999,-0.137641,-0.316771,0.192247
169,0.246529,0.826275,-0.506447,-0.066567,-0.317273,0.110924
170,0.270395,0.836675,-0.476296,-0.016229,-0.2673239999999999,-0.083579
171,0.301071,0.846224,-0.43961,0.006745,-0.072695,-0.4272109999999999
172,0.334752,0.850935,-0.404779,0.032619,0.20328,-0.8594569999999999
173,0.36688,0.8501280000000001,-0.377725,0.086641,0.379212,-1.02883
174,0.383101,0.8506100000000001,-0.360125,0.193407,0.749838,-0.805509
175,0.388426,0.8502129999999999,-0.355328,-0.069411,0.397117,-0.310535
176,0.386081,0.848468,-0.361991,-0.409137,0.376538,-0.249261
177,0.379123,0.848726,-0.368681,-0.649265,0.467238,0.003141
178,0.380492,0.852894,-0.357482,-0.557142,0.782513,0.303008
179,0.383031,0.8553959999999999,-0.3486829999999999,-0.425679,0.489071,0.328938
180,0.386553,0.847031,-0.364843,-0.509111,-0.510239,0.876958
181,0.399128,0.84388,-0.35855,-0.663304,-0.5001909999999999,0.6118
182,0.407445,0.8497819999999999,-0.334446,-0.366674,-0.076085,0.486088
183,0.41091,0.863958,-0.291074,-0.333045,0.111094,1.034497
184,0.409378,0.879799,-0.2415719999999999,-0.191467,0.223625,0.796519
185,0.398236,0.895804,-0.197323,0.132739,0.4806,0.605984
186,0.4006159999999999,0.903264,-0.153668,0.403796,0.5418350000000001,0.0491
187,0.411998,0.90546,-0.1019429999999999,0.266789,0.2213099999999999,0.153747
188,0.420433,0.905277,-0.060839,0.0600659999999999,0.14378,0.215823
189,0.4285279999999999,0.903137,-0.0264189999999999,-0.089188,0.056137,0.206275
190,0.435258,0.9002700000000001,0.007389,-0.194718,-0.111192,0.094205
191,0.435446,0.8994040000000001,0.038073,-0.1839049999999999,-0.109914,-0.064303
192,0.430876,0.9002450000000001,0.062389,-0.174864,-0.069939,-0.0961419999999999
193,0.42673,0.900594,0.082593,-0.0133689999999999,0.038554,-0.065626
194,0.4242979999999999,0.9001959999999999,0.098011,0.066257,-0.011417,0.017727
195,0.421121,0.8998229999999999,0.11385,0.109198,-0.01724,0.000271
196,0.417419,0.8985569999999999,0.135439,0.1885069999999999,0.006534,-0.395555
197,0.410833,0.897998,0.157489,0.134363,-0.025836,-0.357059
198,0.405053,0.89761,0.173824,0.101188,-0.006573,-0.267208
199,0.401379,0.8972969999999999,0.1836809999999999,0.019718,-0.02776,-0.215953
200,0.3975619999999999,0.897252,0.192015,-0.021143,0.003276,-0.2371199999999999
201,0.392466,0.8979440000000001,0.199129,-0.045741,-0.0409029999999999,-0.174944
202,0.3857,0.89892,0.207757,-0.101993,-0.0077769999999999,-0.236154
203,0.377065,0.900443,0.2168139999999999,-0.004232,0.098,-0.1834579999999999
204,0.366608,0.9028,0.2248,0.039184,0.103929,-0.190452
205,0.356059,0.905217,0.231922,0.110723,0.107799,-0.2264139999999999
206,0.345275,0.91009,0.229138,0.243668,0.122274,-0.326962
207,0.339073,0.911117,0.2342659999999999,0.2786639999999999,0.1266789999999999,-0.35777
208,0.336706,0.911249,0.237146,0.239573,0.134512,-0.392038
209,0.336694,0.910982,0.238186,0.046652,0.19737,-0.501736
210,0.339205,0.911941,0.230842,0.0230539999999999,0.2632,-0.442985
211,0.343395,0.916121,0.2068469999999999,0.178989,0.307435,-0.333923
212,0.358216,0.919882,0.159634,0.270599,0.210809,-0.183285
213,0.384192,0.918215,0.096248,0.132806,0.375272,-0.237865
214,0.402443,0.915202,0.020786,-0.574745,0.694127,-0.1327549999999999
215,0.4006369999999999,0.914455,-0.057003,-0.633456,0.927723,0.005886
216,0.384167,0.91322,-0.135769,-0.58421,1.238559,0.366237
217,0.363084,0.907567,-0.210907,-0.664628,0.814891,0.4157409999999999
218,0.34548,0.894199,-0.284679,-0.385702,0.700558,0.621883
219,0.319085,0.8726229999999999,-0.369737,-0.029244,0.488751,0.649858
220,0.292049,0.837211,-0.462362,0.613255,0.352563,0.327383
221,0.278602,0.792589,-0.542381,0.508202,0.210753,0.169777
222,0.251506,0.747931,-0.614279,0.149571,-0.120948,0.336035
223,0.204837,0.706861,-0.677041,-0.069751,-0.254698,0.6342399999999999
224,0.15791,0.6703399999999999,-0.725055,-0.248349,-0.368536,0.71413
225,0.111264,0.6362680000000001,-0.763401,-0.162198,-0.285896,0.474292
226,0.067899,0.607344,-0.7915300000000001,-0.183149,-0.274489,0.366741
227,0.026742,0.585073,-0.810538,-0.2445159999999999,-0.278981,0.40644
228,-0.008624,0.569566,-0.8218989999999999,-0.156125,-0.231217,0.497162
229,-0.031476,0.560307,-0.827686,-0.1532619999999999,-0.3124889999999999,0.502429
230,-0.0384399999999999,0.557499,-0.8292860000000001,-0.23544,-0.318623,0.443238
231,-0.033944,0.560394,-0.8275290000000001,-0.259971,-0.2582239999999999,0.2992849999999999
232,-0.024528,0.566874,-0.8234379999999999,-0.198815,-0.154063,0.167905
233,-0.015125,0.574825,-0.8181350000000001,-0.16319,-0.155345,0.1772359999999999
234,-0.001775,0.5833149999999999,-0.812242,-0.1227819999999999,-0.161196,0.039919
235,0.01625,0.592666,-0.805283,-0.1076049999999999,-0.148101,-0.084488
236,0.036399,0.604296,-0.795926,-0.169928,-0.111269,-0.132678
237,0.05606,0.619038,-0.783355,-0.205367,-0.156026,-0.169007
238,0.080971,0.638003,-0.765763,-0.228035,-0.151507,-0.2373199999999999
239,0.110966,0.6609,-0.742222,-0.317692,0.090473,-0.558422
240,0.12793,0.669237,-0.731951,0.150635,1.660551,-1.7284529999999998
241,0.106948,0.680539,-0.724862,0.1393589999999999,-0.165692,0.67315
242,0.142422,0.702188,-0.6975979999999999,-1.093044,0.018438,-0.256488
243,0.155789,0.7242310000000001,-0.671725,-0.327161,0.281949,0.391558
244,0.194262,0.743276,-0.640154,0.319181,0.475077,0.580202
245,0.245781,0.763709,-0.5969369999999999,-0.089303,0.753213,0.352736
246,0.288771,0.783618,-0.5500430000000001,-0.2021619999999999,0.541546,0.4428189999999999
247,0.322804,0.80262,-0.5015890000000001,-0.062337,0.186379,0.417758
248,0.359952,0.82027,-0.444505,0.02016,0.0572779999999999,0.411088
249,0.384139,0.8388620000000001,-0.385666,-0.002349,0.003545,0.340881
250,0.398675,0.8578549999999999,-0.324244,-0.031762,-0.088934,0.282176
251,0.403265,0.876749,-0.2620639999999999,-0.027106,-0.214411,0.208002
252,0.3886429999999999,0.8979889999999999,-0.206305,-0.015886,-0.249765,0.136801
253,0.36264,0.918373,-0.1583359999999999,0.16983,0.048301,-0.110325
254,0.348413,0.929478,-0.121102,0.434943,-0.0123489999999999,-0.147117
255,0.348511,0.933333,-0.086122,0.434783,-0.167052,-0.175292
256,0.362661,0.930594,-0.049595,0.235346,-0.354559,0.148121
257,0.385515,0.922617,0.011888,-0.302096,-0.2249239999999999,-0.52672
258,0.399707,0.914095,0.068196,-0.618548,-0.087984,-0.394002
259,0.397719,0.911965,0.100621,-0.397429,-0.0772019999999999,-0.280827
260,0.393414,0.911743,0.118041,-0.133831,-0.047638,-0.278014
261,0.385321,0.913017,0.133831,0.153268,0.133919,-0.218609
262,0.376953,0.915069,0.143312,0.17337,0.057114,-0.283587
263,0.374372,0.914811,0.151494,0.2254659999999999,0.008468,-0.220982
264,0.373204,0.913962,0.159302,0.188243,0.0902039999999999,-0.129364
265,0.370432,0.914296,0.163787,0.038213,0.051432,-0.162642
266,0.367461,0.914696,0.16819,-0.035262,0.049614,-0.184928
267,0.364172,0.914667,0.175348,-0.027822,0.21131,-0.052256
268,0.358597,0.915669,0.181499,-0.08934,0.408459,-0.03767
269,0.350286,0.918188,0.184969,-0.159414,0.503855,-0.0274829999999999
270,0.3407239999999999,0.921453,0.186587,0.022435,0.6199899999999999,0.029646
271,0.329715,0.926063,0.183516,0.294232,0.596642,0.065492
272,0.324484,0.929596,0.174773,0.178796,0.567902,-0.0409529999999999
273,0.323748,0.932483,0.160143,0.025128,0.520458,-0.191499
274,0.321718,0.937148,0.135038,-0.132509,0.384721,-0.54762
275,0.320876,0.942434,0.094035,-0.062926,0.328425,-0.654903
276,0.322402,0.94612,0.029998,0.001176,0.429399,-0.533309
277,0.321617,0.945539,-0.0500629999999999,0.074151,0.626849,0.06517
278,0.318657,0.938072,-0.135897,-0.001411,0.5684739999999999,0.2746909999999999
279,0.311434,0.926648,-0.210528,-0.080279,0.550921,0.445773
280,0.304505,0.913008,-0.271447,-0.083924,0.117525,0.406838
281,0.299318,0.897603,-0.323587,-0.188768,0.195689,0.3915949999999999
282,0.296325,0.876815,-0.378654,-0.095596,0.140473,0.2107619999999999
283,0.291417,0.8503879999999999,-0.438075,-0.065663,-0.019547,0.299419
284,0.280923,0.8212430000000001,-0.4966239999999999,-0.137277,-0.210556,0.399472
285,0.259605,0.789259,-0.55648,-0.177529,-0.296507,0.517249
286,0.2270179999999999,0.757991,-0.61148,-0.1348849999999999,-0.4396319999999999,0.4698479999999999
287,0.191049,0.72736,-0.6591229999999999,-0.071848,-0.412434,0.45461
288,0.146295,0.698929,-0.700066,-0.047585,-0.354386,0.482521
289,0.09572,0.673325,-0.733123,-0.081362,-0.283722,0.479735
290,0.048097,0.652788,-0.7560100000000001,-0.286866,-0.358797,0.4158
291,0.014281,0.6386689999999999,-0.769347,-0.26042,-0.322156,0.388106
292,-0.005279,0.632283,-0.774718,-0.2159579999999999,-0.238194,0.354369
293,-0.014828,0.632508,-0.774411,-0.2031589999999999,-0.254486,0.360455
294,-0.0146039999999999,0.637792,-0.770068,-0.198576,-0.299978,0.287234
295,-0.002794,0.6475350000000001,-0.762029,-0.225538,-0.324476,0.068135
296,0.013719,0.660406,-0.750781,-0.079484,-0.256231,-0.102597
297,0.030467,0.675239,-0.7369680000000001,-0.042201,-0.22718,-0.133852
298,0.0497,0.692549,-0.719655,-0.016284,-0.260451,-0.237773
299,0.075297,0.711989,-0.69814,-0.082926,0.03354,-0.485317
300,0.1050349999999999,0.727547,-0.677967,-0.188486,0.494758,-0.516552
301,0.117519,0.743325,-0.658523,-0.064861,0.765632,-0.59787
302,0.123083,0.7582479999999999,-0.6402399999999999,-0.160391,0.337241,0.4858659999999999
303,0.137548,0.776079,-0.61545,-0.435003,-0.177476,0.192354
304,0.160946,0.7945800000000001,-0.585436,-0.137172,0.09162,0.295809
305,0.19254,0.815427,-0.545896,-0.0569659999999999,0.261691,0.389478
306,0.222961,0.835917,-0.501525,0.075318,0.471335,0.26541
307,0.249663,0.8538680000000001,-0.456697,0.124024,0.250472,0.311647
308,0.269471,0.872668,-0.407222,0.179519,0.08386,0.329006
309,0.283656,0.8910870000000001,-0.354256,0.2152,0.022396,0.233971
310,0.287046,0.908165,-0.304687,0.1841,-0.035698,0.121688
311,0.280238,0.92507,-0.256331,0.1205339999999999,-0.132314,0.104293
312,0.268442,0.939828,-0.211319,0.137915,0.023933,-0.015396
313,0.258032,0.950502,-0.1730809999999999,0.317103,0.022673,0.032913
314,0.261979,0.955778,-0.133593,0.321975,-0.191511,0.0134759999999999
315,0.27929,0.955922,-0.090561,0.28321,-0.348973,-0.009567
316,0.302404,0.952286,-0.0411459999999999,-0.034124,-0.36937,0.023797
317,0.3267199999999999,0.944983,0.0158449999999999,-0.402388,-0.260382,-0.383536
318,0.341404,0.93807,0.058786,-0.541676,-0.2175349999999999,-0.353754
319,0.3448989999999999,0.934319,0.089896,-0.378316,-0.071282,-0.350882
320,0.343536,0.932204,0.113872,-0.107239,0.037263,-0.373042
321,0.339626,0.930909,0.1343599999999999,0.011967,-0.014496,-0.369635
322,0.334015,0.930263,0.151773,0.341873,-0.082133,-0.088007
323,0.328491,0.929603,0.167096,0.291107,0.085885,0.0720389999999999
324,0.326207,0.927652,0.181766,0.165279,0.058782,-0.0060149999999999
325,0.3286969999999999,0.925048,0.190353,0.142098,0.20804,-0.334198
326,0.3316119999999999,0.923458,0.192995,0.10514,0.044315,-0.3906719999999999
327,0.331638,0.923349,0.19347,0.105114,0.044424,-0.391148
328,0.327684,0.925081,0.1919259999999999,-0.005006,0.103468,0.0617669999999999
329,0.3225389999999999,0.927199,0.190418,-0.023879,0.238512,0.091656
330,0.319341,0.928717,0.188397,-0.02068,0.2369929999999999,0.093677
331,0.317402,0.930268,0.183969,0.125133,0.513595,0.003363
332,0.313994,0.932666,0.177569,0.270891,0.548459,0.0456209999999999
333,0.312417,0.934306,0.171629,0.206183,0.512029,-0.015668
334,0.313159,0.936005,0.16067,0.100294,0.509781,-0.101405
335,0.313052,0.939472,0.139211,-0.073473,0.417843,-0.247121
336,0.313115,0.944146,0.102647,-0.070378,0.395652,-0.345765
337,0.314341,0.948262,0.044481,-0.032908,0.398906,-0.445833
338,0.309954,0.950304,-0.0290069999999999,0.024656,0.538176,-0.320984
339,0.2988889999999999,0.948197,-0.107607,0.043961,0.578674,-0.1345049999999999
340,0.288149,0.940831,-0.178323,-0.0273449999999999,0.4954479999999999,0.0543149999999999
341,0.28015,0.929547,-0.2396889999999999,-0.06401,0.26366,0.335927
342,0.275897,0.915597,-0.292501,-0.1046319999999999,0.229194,0.33666
343,0.272966,0.899062,-0.342303,-0.021943,0.092088,0.257083
344,0.271701,0.878136,-0.393764,0.071667,0.160408,0.1065779999999999
345,0.273206,0.8515370000000001,-0.44748,0.076983,0.105616,0.152665
346,0.272437,0.8224600000000001,-0.4993329999999999,-0.023703,-0.106456,0.341084
347,0.262189,0.793245,-0.549559,-0.251416,-0.3833789999999999,0.561415
348,0.235982,0.76241,-0.602528,-0.165929,-0.409779,0.583897
349,0.200101,0.732273,-0.650947,-0.086072,-0.406574,0.550773
350,0.159761,0.704807,-0.6911729999999999,-0.10425,-0.326542,0.490962
351,0.113952,0.677859,-0.726305,-0.15747,-0.209598,0.413393
352,0.065907,0.6527890000000001,-0.754666,-0.248311,-0.260409,0.383496
353,0.0247669999999999,0.629754,-0.7763979999999999,-0.218187,-0.205591,0.429245
354,-0.00435,0.611274,-0.791405,-0.189071,-0.187111,0.4442529999999999
355,-0.021249,0.6,-0.799716,-0.177069,-0.180246,0.354297
356,-0.026427,0.5954699999999999,-0.802941,-0.225984,-0.127651,0.2605679999999999
357,-0.022826,0.596879,-0.802005,-0.2200929999999999,-0.151856,0.2361329999999999
358,-0.014117,0.6042890000000001,-0.796639,-0.18646,-0.1937809999999999,0.21444
359,0.0012289999999999,0.616739,-0.787166,-0.149194,-0.286829,0.024653
360,0.0270209999999999,0.632059,-0.7744479999999999,-0.135099,-0.274134,-0.096158
361,0.05545,0.649429,-0.758396,-0.035385,-0.215988,-0.3261679999999999
362,0.078232,0.669523,-0.738658,-0.018509,-0.244002,-0.280537
363,0.104557,0.6919109999999999,-0.71437,-0.058903,-0.229951,-0.2138989999999999
364,0.142838,0.710138,-0.689419,0.013046,1.005804,-1.315647
365,0.149871,0.715925,-0.6819,0.031694,0.174197,0.8372350000000001
366,0.154297,0.729873,-0.6659390000000001,-0.479705,-0.442382,0.289428
367,0.174337,0.754864,-0.632285,-0.110128,0.229267,0.676108
368,0.200552,0.775421,-0.598746,-0.048162,0.377472,0.6139899999999999
369,0.231281,0.798236,-0.5561689999999999,-0.2046089999999999,0.7687189999999999,0.03946
370,0.26091,0.816611,-0.514847,-0.0798799999999999,0.1216059999999999,0.449264
371,0.283236,0.835033,-0.4716909999999999,-0.021914,-0.01733,0.422375
372,0.305761,0.852938,-0.4230859999999999,0.072992,0.037824,0.336675
373,0.32443,0.8712120000000001,-0.368415,0.0818049999999999,0.164127,0.25347
374,0.3365,0.888864,-0.3109389999999999,0.041948,0.012931,0.2016099999999999
375,0.338055,0.906503,-0.252911,0.021213,-0.108896,0.152615
376,0.325229,0.924654,-0.198078,0.1884279999999999,0.029997,0.005863
377,0.306879,0.938996,-0.155253,0.368017,0.23976,-0.037068
378,0.298261,0.947174,-0.117869,0.431384,-0.075211,-0.087774
379,0.300404,0.950467,-0.07976,0.216442,-0.36662,-0.02313
380,0.318444,0.947064,-0.040684,0.009208,-0.322766,0.071751
381,0.344804,0.93864,0.007568,-0.319703,-0.253169,-0.25769
382,0.362993,0.929811,0.06065,-0.631929,-0.169664,-0.300152
383,0.367812,0.924635,0.098774,-0.5207350000000001,-0.219465,-0.202182
384,0.366284,0.922098,0.124747,-0.125501,0.0101219999999999,-0.20249
385,0.361821,0.921186,0.143153,0.129573,-0.015409,-0.184077
386,0.351891,0.922822,0.156727,0.145378,0.006194,-0.210728
387,0.3422469999999999,0.923549,0.172961,0.1801839999999999,0.111669,-0.248202
388,0.340049,0.921801,0.186119,0.382791,0.150969,-0.224221
389,0.339617,0.92068,0.192352,0.203871,0.052617,-0.322036
390,0.336248,0.921198,0.195757,0.135341,-0.022517,-0.159716
391,0.334365,0.920434,0.20246,0.097856,-0.061074,-0.1059789999999999
392,0.3336699999999999,0.91837,0.2127219999999999,0.0170069999999999,0.127498,-0.047531
393,0.3301179999999999,0.917738,0.2208369999999999,-0.136377,0.342394,-0.083524
394,0.32521,0.918973,0.2229699999999999,-0.132598,0.513232,-0.075845
395,0.3180659999999999,0.921713,0.221965,0.055897,0.5651189999999999,-0.11877
396,0.307819,0.92568,0.219892,0.250103,0.555643,-0.096692
397,0.298735,0.930483,0.212008,0.56833,0.6734140000000001,0.097135
398,0.298079,0.933349,0.199998,0.06238,0.505189,-0.276856
399,0.302273,0.936454,0.177974,-0.035916,0.3644949999999999,-0.402522
400,0.305134,0.941315,0.144255,-0.014622,0.315277,-0.508025
401,0.307684,0.946932,0.092951,0.035257,0.389753,-0.475977
402,0.309247,0.950707,0.022664,0.051532,0.5009680000000001,-0.301305
403,0.311743,0.948175,-0.061417,0.160852,0.671072,0.109772
404,0.310751,0.939077,-0.146838,-0.087576,0.441752,0.176379
405,0.303182,0.927443,-0.218914,-0.121923,0.25789,0.166119
406,0.2983719999999999,0.913342,-0.277082,-0.093309,0.181354,0.331998
407,0.295971,0.895805,-0.331555,-0.0003779999999999,0.102547,0.063397
408,0.300129,0.872066,-0.3865449999999999,-0.009999,0.095783,0.042994
409,0.303313,0.84631,-0.437899,-0.176696,-0.2707179999999999,0.570529
410,0.298042,0.819523,-0.489437,-0.299415,-0.354634,0.593837
411,0.281167,0.789408,-0.54569,-0.383706,-0.377222,0.6376390000000001
412,0.246757,0.756414,-0.6057600000000001,-0.183464,-0.4188439999999999,0.560212
413,0.201313,0.723341,-0.6604899999999999,-0.097965,-0.4592729999999999,0.547713
414,0.154872,0.694124,-0.702996,-0.14886,-0.337725,0.4894949999999999
415,0.1071829999999999,0.667562,-0.736798,-0.192388,-0.252904,0.4942439999999999
416,0.063022,0.64446,-0.762035,-0.249241,-0.256703,0.443676
417,0.030566,0.6253449999999999,-0.779749,-0.282001,-0.294626,0.369394
418,0.013453,0.613915,-0.789257,-0.196528,-0.14373,0.266506
419,0.007795,0.6103029999999999,-0.7921279999999999,-0.188673,-0.082135,0.294021
420,0.009013,0.611228,-0.791402,-0.200038,-0.230979,0.212438
421,0.017653,0.617334,-0.786502,-0.227675,-0.297968,0.105365
422,0.034854,0.628949,-0.776663,-0.105869,-0.2611969999999999,-0.037714
423,0.0552169999999999,0.6434979999999999,-0.7634529999999999,0.015248,-0.201298,-0.192205
424,0.071812,0.66072,-0.747189,0.086819,-0.271834,-0.388386
425,0.086333,0.681685,-0.726533,0.011934,-0.389708,-0.140685
426,0.11093,0.707434,-0.698018,-0.28459,-0.0484529999999999,-0.033901
427,0.139363,0.731988,-0.66691,-0.2238349999999999,1.00817,-1.438986
428,0.145283,0.747698,-0.647948,0.898632,1.575223,0.666808
429,0.156588,0.762093,-0.6282449999999999,-0.75165,-0.196007,0.0747169999999999
430,0.1820109999999999,0.779462,-0.5994229999999999,-0.437229,-0.156629,0.183942
431,0.21194,0.7948310000000001,-0.5686140000000001,-0.076061,0.091308,0.459834
432,0.243979,0.817756,-0.521292,0.034066,0.244133,0.307012
433,0.280675,0.8391049999999999,-0.4659609999999999,0.0729929999999999,0.40267,0.3186989999999999
434,0.308206,0.858917,-0.408982,-0.018228,0.208191,0.372422
435,0.320447,0.8784620000000001,-0.354421,0.023395,0.133592,0.376928
436,0.32476,0.896847,-0.30032,0.193047,0.086552,0.252805
437,0.321342,0.913679,-0.248849,0.189995,0.080157,0.187021
438,0.307107,0.92978,-0.202953,0.2284159999999999,0.097106,0.018749
439,0.291097,0.942954,-0.161542,0.281855,0.0747309999999999,-0.02756
440,0.281283,0.951896,-0.121525,0.308653,-0.333107,0.014821
441,0.2838179999999999,0.955298,-0.082743,0.3123579999999999,-0.399405,-0.009984
442,0.299332,0.953299,-0.040197,0.044693,-0.5450649999999999,0.115193
443,0.321757,0.946727,0.013179,-0.508357,-0.373165,-0.29156
444,0.340053,0.938045,0.066554,-0.694805,-0.209971,-0.33462
445,0.347556,0.931743,0.1051339999999999,-0.670981,-0.12292,-0.333787
446,0.34485,0.929597,0.130075,0.065794,0.035186,-0.323999
447,0.3391079999999999,0.928509,0.151224,0.105793,0.049564,-0.2886599999999999
448,0.3311429999999999,0.928336,0.168904,0.309879,0.006998,-0.157445
449,0.324246,0.928667,0.180094,0.205311,0.269392,-0.2514889999999999
450,0.322402,0.92692,0.1920059999999999,0.213837,0.282385,-0.319921
451,0.325558,0.924779,0.196942,0.2466159999999999,0.1398569999999999,-0.434201
452,0.326553,0.924665,0.195828,0.139755,-0.051496,-0.168957
453,0.326161,0.924894,0.195398,0.129039,-0.062543,-0.067789
454,0.324736,0.924903,0.197716,0.051409,-0.018577,-0.07827
455,0.324758,0.924827,0.198035,0.007121,0.200814,-0.072439
456,0.322214,0.925735,0.197951,-0.033273,0.3230139999999999,-0.039198
457,0.315372,0.927896,0.198847,-0.094135,0.584128,0.030691
458,0.308111,0.930712,0.1970589999999999,0.276712,0.5943579999999999,0.083703
459,0.303381,0.933769,0.189806,0.270212,0.520592,0.050214
460,0.302361,0.936003,0.1801839999999999,0.233955,0.487123,-0.047783
461,0.301806,0.93921,0.163671,-0.04381,0.388625,-0.325048
462,0.299979,0.943458,0.141037,-0.016486,0.403634,-0.3593909999999999
463,0.299798,0.948495,0.102325,0.045722,0.387534,-0.4986569999999999
464,0.303008,0.952236,0.037751,0.025133,0.398014,-0.492463
465,0.303275,0.951812,-0.045514,0.163522,0.687898,-0.078707
466,0.300025,0.944948,-0.130581,-0.002845,0.5788399999999999,0.192639
467,0.296013,0.933383,-0.202894,-0.131661,0.459988,0.212004
468,0.296413,0.918069,-0.263218,-0.243465,0.327399,0.353107
469,0.298496,0.900659,-0.315766,-0.121891,0.2112949999999999,0.1816569999999999
470,0.301105,0.8789309999999999,-0.369881,-0.029056,0.149817,0.075005
471,0.306103,0.851778,-0.42517,0.058872,0.1223119999999999,0.086212
472,0.299609,0.8239280000000001,-0.481013,-0.237155,-0.279448,0.560145
473,0.280043,0.791908,-0.542636,-0.3356,-0.4914159999999999,0.6033970000000001
474,0.245017,0.757905,-0.604601,-0.256873,-0.5413979999999999,0.66408
475,0.1988589999999999,0.72492,-0.659502,-0.123572,-0.501043,0.4771899999999999
476,0.149703,0.693258,-0.704968,-0.17192,-0.405752,0.5288510000000001
477,0.095644,0.663907,-0.741672,-0.101885,-0.280744,0.589832
478,0.0413399999999999,0.638219,-0.768742,-0.242726,-0.2887929999999999,0.473866
479,0.000144,0.6155189999999999,-0.788121,-0.2315739999999999,-0.270396,0.396153
480,-0.027719,0.5993609999999999,-0.799998,-0.189414,-0.2336079999999999,0.367426
481,-0.041124,0.591074,-0.805567,-0.197935,-0.1433819999999999,0.308542
482,-0.042359,0.5895239999999999,-0.806639,-0.184966,-0.2194829999999999,0.215437
483,-0.029069,0.594737,-0.8033939999999999,-0.209777,-0.269999,0.162433
484,-0.003536,0.6064149999999999,-0.795139,-0.218617,-0.275727,0.036167
485,0.022411,0.622451,-0.7823359999999999,-0.070858,-0.316314,-0.079923
486,0.042759,0.641352,-0.766053,-0.008915,-0.312799,-0.193267
487,0.059184,0.662373,-0.746831,0.043004,-0.397938,-0.41421
488,0.082759,0.6849609999999999,-0.723863,-0.0886639999999999,-0.259774,-0.239302
489,0.116822,0.7048300000000001,-0.699689,-0.193482,0.7307779999999999,-0.644336
490,0.130985,0.721854,-0.679534,0.320294,1.218484,-0.5929270000000001
491,0.139957,0.73814,-0.659968,-0.146289,0.278232,0.626521
492,0.165116,0.7606390000000001,-0.6278229999999999,-0.415925,-0.132847,0.082352
493,0.2011109999999999,0.7795529999999999,-0.593168,-0.177201,0.276524,0.429014
494,0.234653,0.8007770000000001,-0.551081,-0.153187,0.443562,0.154505
495,0.267175,0.820607,-0.5051899999999999,-0.125802,0.381816,0.305102
496,0.296191,0.8412209999999999,-0.452341,-0.0740379999999999,0.17834,0.430079
497,0.317228,0.8614040000000001,-0.3966659999999999,0.034151,0.0524139999999999,0.375761
498,0.326513,0.8807010000000001,-0.343146,0.086802,0.0364279999999999,0.302176
499,0.330029,0.8983540000000001,-0.289887,0.188022,0.020668,0.18129
500,0.324913,0.91589,-0.235734,0.201516,0.021335,0.056382
501,0.308004,0.932428,-0.1889539999999999,0.266108,0.079733,-0.050212
502,0.292953,0.944395,-0.149297,0.501908,0.179705,-0.069209
503,0.28447,0.952247,-0.110876,0.357925,-0.320976,-0.033991
504,0.288564,0.954762,-0.071771,0.2843429999999999,-0.4062699999999999,-0.058615
505,0.306905,0.951279,-0.0294639999999999,0.0788669999999999,-0.3886719999999999,0.004714
506,0.32854,0.944334,0.01689,-0.523638,-0.128355,-0.300505
507,0.343945,0.93699,0.061169,-0.7201649999999999,-0.02041,-0.297848
508,0.343921,0.934347,0.093295,-0.012439,0.005046,-0.267307
509,0.341679,0.93257,0.116443,0.133434,0.036806,-0.2738219999999999
510,0.337657,0.931112,0.1378619999999999,0.170049,0.039102,-0.2806079999999999
511,0.332793,0.929734,0.157579,0.067506,-0.024202,-0.273606
512,0.32736,0.929368,0.1705799999999999,0.174929,-0.078798,-0.141192
513,0.324187,0.928887,0.179049,0.190354,-0.032769,-0.1044339999999999
514,0.323217,0.927085,0.189822,0.105296,-0.027686,-0.116397
515,0.320918,0.925698,0.200205,0.056142,-0.00567,-0.127039
516,0.317678,0.924631,0.210062,0.034175,-0.024011,-0.181727
517,0.323076,0.921519,0.215436,0.07643,-0.018977,-0.284101
518,0.323857,0.919558,0.222526,0.05508,0.087461,-0.201744
519,0.318723,0.91937,0.230571,0.033099,0.184832,-0.100017
520,0.311108,0.920642,0.235833,-0.023754,0.6305350000000001,0.073417
521,0.3043389999999999,0.922223,0.238477,0.09242,0.721622,0.084674
522,0.298941,0.923983,0.23849,0.243677,0.566617,0.16773
523,0.295768,0.924798,0.239285,0.236626,0.441276,-0.05354
524,0.293073,0.92592,0.238258,0.1986109999999999,0.399397,-0.165367
525,0.286148,0.928677,0.235938,0.116623,0.4125399999999999,-0.2349
526,0.281558,0.932966,0.2242489999999999,0.129117,0.510791,-0.3114989999999999
527,0.281949,0.939326,0.195345,0.201419,0.37029,-0.472384
528,0.286923,0.945841,0.151816,0.200382,0.283285,-0.524084
529,0.294779,0.950831,0.094945,0.117193,0.179739,-0.257634
530,0.300326,0.953249,0.033304,0.05087,0.177732,0.001287
531,0.300066,0.953597,-0.024567,-0.213274,0.2393199999999999,0.186463
532,0.298061,0.951379,-0.077639,-0.380596,0.316153,0.398852
533,0.296699,0.946957,-0.123421,-0.551109,0.097873,0.363716
534,0.296912,0.940489,-0.165273,-0.542884,0.009645,0.449621
535,0.294623,0.934442,-0.200018,-0.441321,-0.197275,0.200155
536,0.289784,0.926618,-0.239576,-0.341618,-0.195554,0.008375
537,0.286012,0.909721,-0.300994,-0.226075,-3.8e-05,-0.029541
538,0.281678,0.8931709999999999,-0.350566,-0.230546,-0.198164,0.351451
539,0.284123,0.8780290000000001,-0.385139,-0.180699,-0.196389,0.411354
540,0.289005,0.8607030000000001,-0.41912,-0.2700079999999999,-0.196442,0.305289
541,0.287248,0.8428620000000001,-0.455046,-0.191056,-0.290448,0.314146
542,0.27594,0.8265370000000001,-0.490601,-0.09346,-0.463118,0.366959
543,0.2584,0.81357,-0.520892,-0.171394,-0.53023,0.399463
544,0.242715,0.806264,-0.539466,-0.278192,-0.466603,0.435615
545,0.23075,0.80357,-0.548657,-0.260245,-0.442929,0.433972
546,0.2263599999999999,0.8050470000000001,-0.5483210000000001,-0.224377,-0.437035,0.367093
547,0.231071,0.810578,-0.538112,-0.200691,-0.3796239999999999,0.256862
548,0.241332,0.819443,-0.5198729999999999,-0.1348099999999999,-0.327576,0.131262
549,0.252575,0.831421,-0.4949149999999999,-0.100079,-0.310836,0.008129
550,0.265544,0.84621,-0.461963,-0.103725,-0.309803,-0.161023
551,0.278987,0.861949,-0.423326,-0.0580399999999999,-0.231182,-0.479278
552,0.287578,0.876928,-0.385085,0.158192,0.155847,-0.82506
553,0.29907,0.88638,-0.353386,0.4993149999999999,0.6285430000000001,-0.928062
554,0.315873,0.887184,-0.336338,0.335525,0.434914,-0.912822
555,0.326653,0.884914,-0.331992,0.134864,0.137898,-0.780389
556,0.331175,0.885224,-0.3266429999999999,-0.363706,0.069823,-0.3057269999999999
557,0.331288,0.8908809999999999,-0.310762,-0.508916,0.3422429999999999,0.157533
558,0.3391639999999999,0.897655,-0.281384,-0.596122,0.8820690000000001,0.130215
559,0.3574989999999999,0.8928229999999999,-0.273963,-0.423463,1.724486,-0.882913
560,0.366169,0.883395,-0.292451,-0.3795659999999999,-0.460239,0.976289
561,0.371015,0.8839100000000001,-0.2846849999999999,-0.697858,-0.803389,0.705751
562,0.365251,0.893016,-0.262883,-0.3940909999999999,-0.370937,0.216283
563,0.351805,0.908975,-0.2235869999999999,-0.071883,0.0992649999999999,0.713806
564,0.332065,0.924381,-0.187738,0.0307579999999999,0.322048,0.6956720000000001
565,0.325112,0.933284,-0.152561,0.235298,0.764683,0.528034
566,0.341207,0.93261,-0.117506,0.3143559999999999,0.083701,-0.139971
567,0.352882,0.932695,-0.07447,0.10804,0.016829,-0.211907
568,0.361182,0.931931,-0.032296,-0.12789,0.0439899999999999,-0.074515
569,0.371293,0.928506,0.0030989999999999,-0.2174989999999999,-0.094827,0.1652819999999999
570,0.37879,0.924828,0.034657,-0.2321369999999999,-0.093667,0.118541
571,0.384668,0.920554,0.067826,-0.155328,-0.09101,0.01863
572,0.388943,0.91602,0.098089,-0.087063,-0.059056,-0.083441
573,0.387634,0.913618,0.122601,-0.084899,-0.020308,-0.175595
574,0.38521,0.911862,0.141807,-0.103548,0.007464,-0.29174
575,0.382807,0.91053,0.156149,0.052923,0.047036,-0.210546
576,0.379483,0.909724,0.168472,0.07674,0.039586,-0.206055
577,0.376623,0.908761,0.179714,0.0987799999999999,-0.0091939999999999,-0.185406
578,0.375845,0.906794,0.1909269999999999,0.153742,-0.031611,-0.250528
579,0.373722,0.905083,0.202844,0.1054809999999999,-0.038673,-0.263651
580,0.370095,0.903828,0.2147369999999999,-0.119591,-0.001546,-0.214493
581,0.364781,0.902939,0.22721,-0.110279,-0.009262,-0.2474579999999999
582,0.3608949999999999,0.902427,0.235305,-0.115351,-0.008765,-0.279998
583,0.355015,0.90289,0.242365,0.031017,0.038424,-0.204233
584,0.348113,0.904133,0.247685,0.109804,0.046062,-0.151387
585,0.341136,0.90521,0.253394,0.201894,0.081103,-0.131232
586,0.334957,0.905547,0.260337,0.308583,0.083589,-0.143821
587,0.330825,0.904912,0.267721,0.441194,0.136317,-0.277563
588,0.327403,0.903266,0.277316,0.371786,0.212182,-0.491626
589,0.326688,0.901568,0.283611,0.1132069999999999,0.172132,-0.4824479999999999
590,0.329408,0.899056,0.2884,-0.093522,0.157249,-0.407418
591,0.331368,0.898495,0.287903,-0.1016919999999999,0.219578,-0.357697
592,0.331594,0.902887,0.273545,0.2420449999999999,0.27471,0.03984
593,0.341551,0.907105,0.2459469999999999,0.2277699999999999,0.342804,0.06611
594,0.362134,0.908317,0.209298,0.105716,0.396752,0.036537
595,0.3831199999999999,0.909823,0.159459,-0.4264239999999999,0.322644,-0.267201
596,0.392503,0.914898,0.094289,-0.544481,0.4835239999999999,0.024531
597,0.382227,0.923459,0.033386,-0.5604640000000001,0.618167,0.0936429999999999
598,0.356171,0.93415,-0.022259,-0.614395,0.601251,0.130841
599,0.32957,0.941273,-0.073341,-0.433726,0.284145,0.145454
600,0.312184,0.942392,-0.120119,-0.433538,0.327445,0.2378559999999999
601,0.2942599999999999,0.939658,-0.174481,-0.071482,0.066415,0.472439
602,0.273622,0.932314,-0.236458,0.2652719999999999,0.017271,0.175392
603,0.259983,0.921322,-0.289079,0.4154779999999999,-0.0183979999999999,0.189363
604,0.2631,0.909356,-0.322246,0.342949,-0.131295,0.17509
605,0.271962,0.8967229999999999,-0.349167,0.061763,-0.19546,0.225128
606,0.273412,0.884654,-0.377658,-0.163915,-0.246745,0.264713
607,0.264986,0.875567,-0.403929,-0.234667,-0.310778,0.308196
608,0.2542,0.870324,-0.421797,-0.389362,-0.408989,0.273726
609,0.24777,0.868225,-0.429872,-0.39369,-0.390426,0.259248
610,0.246678,0.869084,-0.4287609999999999,-0.327657,-0.381413,0.201237
611,0.250109,0.872869,-0.4189729999999999,-0.1446859999999999,-0.340337,0.131162
612,0.256519,0.878508,-0.403008,-0.101855,-0.319426,0.12133
613,0.26511,0.885331,-0.381967,-0.065434,-0.338395,0.0897
614,0.277088,0.892814,-0.355102,-0.1070589999999999,-0.368858,-0.174378
615,0.29035,0.90083,-0.322792,-0.08547,-0.34071,-0.383934
616,0.3014469999999999,0.908643,-0.288945,0.334478,-0.102628,-0.796565
617,0.317955,0.911266,-0.261707,0.796593,0.604908,-0.83714
618,0.346414,0.905106,-0.246519,0.694418,0.590545,-0.8160729999999999
619,0.37458,0.89502,-0.242117,0.151649,0.146362,-0.727366
620,0.394192,0.887984,-0.2368309999999999,-0.512936,-0.21205,-0.5033569999999999
621,0.402645,0.886764,-0.2269769999999999,-0.464413,-0.043594,-0.3624239999999999
622,0.403179,0.89138,-0.207076,-0.5158189999999999,0.1736069999999999,0.365614
623,0.4082929999999999,0.896982,-0.169447,-0.597106,1.232718,0.29968
624,0.400813,0.900106,-0.170737,-0.330653,1.7590279999999998,-1.265893
625,0.386135,0.902768,-0.189478,-0.441754,-0.565747,1.111918
626,0.370982,0.908376,-0.192922,-0.420939,-0.672032,0.8108420000000001
627,0.354832,0.915317,-0.190477,-0.021946,-0.261158,0.638247
628,0.3356159999999999,0.929174,-0.154891,0.04686,-0.055577,0.8023060000000001
629,0.311797,0.943756,-0.109997,0.230027,0.622787,0.6697960000000001
630,0.299273,0.951661,-0.06906,0.331923,0.815353,0.541716
631,0.308078,0.949714,-0.0558899999999999,0.342053,0.125268,-0.404742
632,0.311954,0.949816,-0.02294,0.126736,-0.0429709999999999,-0.159616
633,0.3196449999999999,0.947532,-0.001721,0.108974,-0.048468,-0.006031
634,0.32806,0.944442,0.019928,0.2168929999999999,-0.139816,0.042893
635,0.335005,0.941282,0.041843,0.298525,-0.099607,-0.1044339999999999
636,0.343609,0.936885,0.064581,0.408435,-0.091869,-0.1519829999999999
637,0.35312,0.931371,0.088577,0.328139,-0.101888,-0.461258
638,0.366247,0.924662,0.10418,0.106653,0.006841,-0.253807
639,0.3765159999999999,0.918592,0.120067,-0.093863,0.06621,-0.39152
640,0.381805,0.915299,0.128239,-0.210067,-0.083374,-0.236652
641,0.385557,0.913441,0.130245,0.032793,-0.118992,-0.19215
642,0.388227,0.912152,0.131341,0.106539,-0.100125,-0.1889279999999999
643,0.387442,0.912,0.13467,0.0917149999999999,-0.093519,-0.207226
644,0.383974,0.912791,0.13917,0.159818,-0.066828,-0.1310069999999999
645,0.3798289999999999,0.913714,0.144392,0.124367,-0.111818,-0.150267
646,0.376212,0.913911,0.152387,0.046762,-0.124681,-0.169889
647,0.3690969999999999,0.915461,0.1602829999999999,0.000792,-0.0075629999999999,-0.121404
648,0.360987,0.917428,0.16735,0.023885,0.002708,-0.077201
649,0.355151,0.919205,0.170063,0.042081,0.09758,0.001003
650,0.34662,0.921127,0.177114,0.120344,0.307052,0.00297
651,0.332534,0.923952,0.1890109999999999,0.171052,0.499587,-0.088135
652,0.315901,0.927623,0.199284,0.323763,0.637883,-0.2028849999999999
653,0.302334,0.931089,0.2041079999999999,0.562153,0.581591,0.1552059999999999
654,0.293796,0.934041,0.203085,0.3130159999999999,0.671275,-0.003043
655,0.29507,0.936771,0.188112,-0.0415149999999999,0.5701109999999999,-0.417207
656,0.294531,0.942361,0.158741,0.081721,0.295248,-0.482868
657,0.289419,0.950399,0.113893,0.100688,0.35316,-0.444246
658,0.289633,0.955765,0.051175,0.18667,0.368637,-0.20831
659,0.296328,0.954735,-0.025775,0.1219609999999999,0.435234,0.2152739999999999
660,0.30411,0.947117,-0.102374,0.084852,0.547879,0.326876
661,0.30349,0.937985,-0.16755,-0.0551679999999999,0.544804,0.268517
662,0.292644,0.92998,-0.2224679999999999,-0.258708,0.23599,0.107081
663,0.284961,0.916114,-0.282005,-0.217196,0.21206,0.208229
664,0.288265,0.8917649999999999,-0.3487889999999999,0.057011,0.2491199999999999,0.307774
665,0.293105,0.862691,-0.412127,0.066514,-0.140432,0.313906
666,0.293488,0.8307559999999999,-0.472976,-0.027207,-0.215658,0.370436
667,0.277766,0.797916,-0.5349510000000001,-0.041743,-0.3650239999999999,0.4324729999999999
668,0.251874,0.763832,-0.594236,-0.13516,-0.305412,0.6489550000000001
669,0.2213159999999999,0.7313689999999999,-0.645071,-0.104601,-0.272949,0.699789
670,0.17753,0.701501,-0.6902010000000001,-0.108377,-0.287957,0.5183409999999999
671,0.128429,0.672701,-0.7286819999999999,-0.103893,-0.146944,0.365004
672,0.075227,0.6437579999999999,-0.761521,-0.218355,-0.271673,0.4771579999999999
673,0.032676,0.618512,-0.785095,-0.154166,-0.307919,0.4190819999999999
674,0.00402,0.602549,-0.798071,-0.063651,-0.23469,0.333105
675,-0.01278,0.5959909999999999,-0.802888,-0.1056119999999999,-0.223906,0.326845
676,-0.02181,0.597549,-0.801534,-0.192638,-0.255661,0.384573
677,-0.023759,0.604574,-0.796194,-0.214522,-0.2980239999999999,0.260946
678,-0.015182,0.616278,-0.787381,-0.191682,-0.341483,0.148221
679,0.004474,0.632255,-0.774746,0.130276,-0.244956,-0.357563
680,0.0247919999999999,0.652877,-0.757057,0.148777,-0.277877,-0.407387
681,0.04452,0.679127,-0.732668,0.128439,-0.32787,-0.385969
682,0.075221,0.706038,-0.704166,-0.0586649999999999,0.675096,-0.6070369999999999
683,0.108037,0.726658,-0.678449,0.078944,1.018139,-1.093676
684,0.125383,0.742276,-0.658257,0.547194,1.17467,0.489662
685,0.150221,0.761929,-0.629995,-0.4757369999999999,-0.242825,0.094229
686,0.181704,0.77789,-0.601554,-0.256228,-0.190152,0.393973
687,0.218683,0.797212,-0.562695,-0.0417579999999999,0.1441329999999999,0.399441
688,0.250313,0.818734,-0.516734,0.022529,0.632865,0.4335739999999999
689,0.271886,0.839924,-0.469682,0.071483,0.367336,0.444093
690,0.279154,0.860564,-0.426026,0.145803,0.173509,0.390717
691,0.274916,0.880526,-0.3861219999999999,0.300508,0.082548,0.33676
692,0.264558,0.900174,-0.345964,0.276122,0.019001,0.295304
693,0.250255,0.919742,-0.3023929999999999,0.1604809999999999,-0.104174,0.2101989999999999
694,0.232702,0.937827,-0.257535,0.228236,-0.011603,0.032697
695,0.224029,0.949748,-0.218592,0.2812969999999999,-0.0425209999999999,-0.019857
696,0.224907,0.957989,-0.177951,0.450508,-0.293285,-0.037946
697,0.2332429999999999,0.963034,-0.134743,0.380664,-0.388754,-0.010353
698,0.2465699999999999,0.964657,-0.092904,0.086148,-0.356182,0.1646359999999999
699,0.263428,0.963457,-0.048431,-0.285645,-0.258959,-0.288742
700,0.2778489999999999,0.960595,-0.006803,-0.448076,-0.147851,-0.212801
701,0.281082,0.959334,0.025692,-0.28891,-0.0587139999999999,-0.318188
702,0.2802159999999999,0.958712,0.048358,0.1071589999999999,-0.025591,-0.277332
703,0.275002,0.959132,0.066537,0.219398,-0.024242,-0.245096
704,0.269991,0.959387,0.081662,0.214506,-0.030432,-0.177945
705,0.265262,0.959809,0.091603,0.212506,-0.015809,-0.136997
706,0.260497,0.960577,0.097067,0.248705,-0.029089,-0.029638
707,0.258058,0.960546,0.1036619999999999,0.14488,-0.024953,-0.036569
708,0.255805,0.959867,0.114923,0.155526,-0.038221,-0.082819
709,0.2546239999999999,0.958282,0.129803,0.245163,-0.0569,-0.204449
710,0.259007,0.955436,0.141577,0.1132609999999999,0.118798,-0.07778
711,0.257303,0.955089,0.146929,-0.050012,0.303761,-0.040346
712,0.2513869999999999,0.956972,0.144904,0.048555,0.436568,0.025232
713,0.243821,0.959823,0.138843,0.333541,0.518738,0.106015
714,0.2346739999999999,0.962925,0.133007,0.487906,0.480907,0.252979
715,0.227537,0.965035,0.130082,0.181139,0.53759,0.169325
716,0.2264429999999999,0.965786,0.126363,0.094449,0.457233,-0.0215199999999999
717,0.2246699999999999,0.967553,0.115546,0.048371,0.274192,-0.32859
718,0.22011,0.970811,0.095209,0.135923,0.411681,-0.3667849999999999
719,0.216358,0.974797,0.054283,0.085629,0.38174,-0.417397
720,0.213935,0.976826,-0.005601,0.051812,0.357433,-0.2877639999999999
721,0.211356,0.974169,-0.079453,0.133294,0.282377,-0.042541
722,0.2109639999999999,0.964273,-0.160192,0.016758,0.504462,0.340215
723,0.20715,0.950648,-0.2309719999999999,-0.050137,0.369161,0.363464
724,0.206394,0.933981,-0.291673,-0.122272,0.227228,0.196244
725,0.208025,0.915304,-0.344871,-0.11162,0.1994119999999999,0.233009
726,0.207667,0.8953620000000001,-0.393946,0.123326,0.1056599999999999,0.144083
727,0.211581,0.8694049999999999,-0.4464979999999999,0.154248,-0.026998,0.2645679999999999
728,0.212234,0.8421270000000001,-0.495754,-0.007323,-0.12852,0.41389
729,0.200342,0.814018,-0.545189,-0.328027,-0.387032,0.477334
730,0.172441,0.7844899999999999,-0.59568,-0.222871,-0.2962849999999999,0.458992
731,0.136364,0.754699,-0.6417390000000001,-0.1135369999999999,-0.173492,0.437897
732,0.101408,0.7248600000000001,-0.681388,0.0890519999999999,-0.173774,0.420829
733,0.058391,0.6963729999999999,-0.715298,-0.058223,-0.207634,0.407146
734,0.014041,0.668971,-0.743154,-0.160464,-0.309001,0.46758
735,-0.028689,0.645547,-0.76318,-0.202482,-0.45147,0.426052
736,-0.058329,0.627725,-0.776245,-0.080526,-0.316553,0.3478239999999999
737,-0.0764519999999999,0.617125,-0.783141,-0.0462589999999999,-0.2619309999999999,0.313338
738,-0.08526,0.613766,-0.7848689999999999,-0.125281,-0.249432,0.3423489999999999
739,-0.086228,0.616475,-0.782637,-0.169021,-0.329823,0.268461
740,-0.077093,0.6249060000000001,-0.776882,-0.143457,-0.350004,0.06187
741,-0.059274,0.637948,-0.7677930000000001,-0.0574559999999999,-0.3694699999999999,-0.166793
742,-0.039471,0.655454,-0.754201,0.090023,-0.375684,-0.388042
743,-0.019841,0.6784479999999999,-0.734378,0.139775,-0.319088,-0.310544
744,0.006154,0.7033560000000001,-0.710809,-0.03745,0.218763,-0.221396
745,0.037269,0.7236630000000001,-0.6891430000000001,0.6654439999999999,1.469849,-0.633351
746,0.053436,0.738498,-0.672132,0.426864,1.272718,0.697538
747,0.070833,0.75695,-0.649619,-0.18828,0.307442,0.615088
748,0.097899,0.77555,-0.623645,-0.038924,-0.121818,0.386416
749,0.135175,0.7935800000000001,-0.593256,-0.065855,0.459243,0.345377
750,0.170476,0.813796,-0.555578,-0.06516,0.467576,0.3384
751,0.204346,0.8335549999999999,-0.513246,-0.052598,0.337648,0.369737
752,0.23113,0.852266,-0.469271,0.011698,0.139373,0.444384
753,0.2468679999999999,0.872159,-0.422359,0.190708,0.009875,0.3659469999999999
754,0.256151,0.892214,-0.371931,0.424635,-0.006548,0.253156
755,0.257723,0.910218,-0.324148,0.3578469999999999,0.0083,0.190572
756,0.2486949999999999,0.927681,-0.278477,0.298119,0.035561,0.115818
757,0.236904,0.941769,-0.238617,0.259297,0.101322,0.009262
758,0.227498,0.952581,-0.202049,0.254802,-0.080831,0.0349649999999999
759,0.226649,0.960173,-0.163357,0.287572,-0.37361,0.012616
760,0.235639,0.964006,-0.123102,0.2334929999999999,-0.387529,0.1351109999999999
761,0.25271,0.964349,-0.078455,-0.185892,-0.246148,-0.077139
762,0.271327,0.961983,-0.030927,-0.383983,-0.143166,-0.244234
763,0.283056,0.959085,0.0045299999999999,-0.560384,-0.059473,-0.19322
764,0.284965,0.958026,0.031086,-0.022163,0.046399,-0.219975
765,0.2846059999999999,0.957193,0.052588,0.136735,0.059897,-0.215063
766,0.282176,0.956798,0.069986,0.255711,-0.043041,-0.149607
767,0.280204,0.956357,0.082768,0.141259,-0.065274,-0.022221
768,0.277951,0.956097,0.0927679999999999,0.133487,-0.0294149999999999,-0.01095
769,0.27495,0.956352,0.098882,0.10832,0.018716,-0.090016
770,0.272783,0.956495,0.10339,0.264433,0.060061,-0.156995
771,0.2716739999999999,0.956244,0.1085049999999999,0.2972349999999999,-0.007178,-0.2449489999999999
772,0.270435,0.956109,0.1127109999999999,0.237194,0.009208,-0.3158809999999999
773,0.268792,0.956031,0.117214,0.231452,0.096353,-0.311428
774,0.264734,0.956757,0.120476,0.181189,0.333938,0.021675
775,0.25506,0.959157,0.122246,-0.085886,0.551539,0.153679
776,0.245796,0.962023,0.118653,-0.002418,0.572965,0.0354149999999999
777,0.240427,0.964813,0.106366,0.711813,0.6944130000000001,0.093066
778,0.239326,0.967102,0.086136,0.407555,0.542968,0.073807
779,0.24179,0.967795,0.069963,-0.098739,0.344385,-0.21718
780,0.240929,0.969407,0.046778,-0.169396,0.249725,-0.369211
781,0.23835,0.971146,0.007004,-0.020561,0.309844,-0.495331
782,0.233033,0.97078,-0.057157,0.044707,0.420562,-0.410677
783,0.227275,0.963764,-0.1396099999999999,0.121266,0.460918,-0.242028
784,0.221187,0.951323,-0.2145909999999999,0.2315719999999999,0.312608,0.347205
785,0.212807,0.939231,-0.269346,0.1084369999999999,0.0471279999999999,0.343366
786,0.2090699999999999,0.926071,-0.314121,0.034933,0.138641,0.41022
787,0.208036,0.911301,-0.355305,0.170428,0.166672,0.057347
788,0.216579,0.89261,-0.395388,0.075642,0.152327,0.1512619999999999
789,0.220555,0.870574,-0.439826,0.0136979999999999,0.124192,0.260932
790,0.218896,0.845339,-0.487318,-0.16665,-0.1426869999999999,0.6170640000000001
791,0.2061349999999999,0.816172,-0.539782,-0.33823,-0.3514199999999999,0.671862
792,0.176512,0.785826,-0.592719,-0.3236219999999999,-0.398985,0.5704560000000001
793,0.13987,0.755081,-0.640533,-0.012444,-0.158859,0.283432
794,0.10039,0.724695,-0.681714,0.124616,-0.171396,0.489133
795,0.0554039999999999,0.6946439999999999,-0.717214,0.097749,-0.201419,0.520559
796,0.0111659999999999,0.666041,-0.745829,-0.090863,-0.286463,0.472956
797,-0.023672,0.642439,-0.765969,-0.2153719999999999,-0.379957,0.387719
798,-0.0435269999999999,0.626208,-0.778438,-0.157767,-0.292299,0.3454239999999999
799,-0.051164,0.618801,-0.783878,-0.092101,-0.222652,0.295017
800,-0.051414,0.619631,-0.783205,-0.147728,-0.300509,0.267336
801,-0.042459,0.627884,-0.777146,-0.126334,-0.366821,0.103592
802,-0.022034,0.642971,-0.765571,-0.081802,-0.376553,-0.175759
803,-0.0002029999999999,0.6639430000000001,-0.747781,0.124119,-0.384326,-0.423835
804,0.0219259999999999,0.691024,-0.7224970000000001,0.2827159999999999,-0.337096,-0.288123
805,0.0518529999999999,0.717437,-0.694688,0.03767,0.33487,-0.26065
806,0.078135,0.741071,-0.6668609999999999,0.568746,1.697207,0.025641
807,0.102014,0.7567189999999999,-0.645728,0.00759,1.204295,1.140677
808,0.117122,0.778964,-0.616029,-0.40951,-0.322345,0.005204
809,0.148073,0.7929229999999999,-0.591051,-0.1569839999999999,0.035629,0.486696
810,0.187998,0.811006,-0.5540039999999999,-0.172952,0.173095,0.239505
811,0.222041,0.830937,-0.5101319999999999,0.006368,0.432231,0.414718
812,0.249186,0.8509909999999999,-0.462291,0.137166,0.280296,0.434535
813,0.262545,0.870074,-0.4171729999999999,0.2454199999999999,0.232526,0.367231
814,0.264883,0.888834,-0.373902,0.488931,0.127326,0.304673
815,0.264807,0.906639,-0.328441,0.382837,0.079079,0.233867
816,0.258193,0.923944,-0.28223,0.269182,0.006522,0.04871
817,0.249134,0.937225,-0.24399,0.189419,-0.01239,-0.010298
818,0.240307,0.948017,-0.208576,0.206119,-0.2175639999999999,-0.009945
819,0.2333889999999999,0.956712,-0.173841,0.249933,-0.2877659999999999,-0.000293
820,0.234996,0.962257,-0.137209,0.304921,-0.314781,0.126192
821,0.249598,0.963768,-0.094016,0.007894,-0.290092,0.127067
822,0.268738,0.961884,-0.050448,-0.143417,-0.278016,-0.045331
823,0.284556,0.958592,-0.010752,-0.466196,-0.030766,-0.27973
824,0.287782,0.957473,0.020302,-0.187639,-0.039199,-0.262642
825,0.284015,0.957906,0.041675,0.0545929999999999,-0.035695,-0.2400389999999999
826,0.278253,0.958594,0.060474,0.239615,-0.096854,-0.12099
827,0.271346,0.959407,0.076769,0.166642,-0.028224,-0.009111
828,0.263802,0.960754,0.085701,0.1689369999999999,-0.042251,0.010308
829,0.258061,0.961855,0.090687,0.241054,0.039595,-0.081287
830,0.255005,0.961536,0.102,0.269302,0.016201,-0.141673
831,0.2536,0.960213,0.11688,0.382478,-0.009423,-0.2357159999999999
832,0.252527,0.958706,0.130747,0.1925869999999999,0.0963929999999999,-0.2281139999999999
833,0.2505,0.957987,0.139618,0.111805,0.184667,-0.2050469999999999
834,0.245788,0.959084,0.140455,0.021652,0.340552,-0.067762
835,0.237129,0.961615,0.138021,0.1650319999999999,0.608118,0.177942
836,0.225872,0.964868,0.134149,0.3765449999999999,0.6296609999999999,0.190894
837,0.216998,0.96798,0.126135,0.441022,0.622352,0.212534
838,0.214312,0.96965,0.117615,0.1471839999999999,0.477875,-0.108734
839,0.211526,0.971983,0.102423,0.053,0.194475,-0.328986
840,0.204708,0.975718,0.077805,0.087711,0.257757,-0.376252
841,0.197614,0.979613,0.03595,0.109347,0.337373,-0.363754
842,0.190622,0.981395,-0.022683,0.0645049999999999,0.458501,-0.413809
843,0.183571,0.978371,-0.095283,0.165794,0.578864,-0.0595789999999999
844,0.177123,0.968013,-0.177669,0.1222549999999999,0.630848,0.320995
845,0.170916,0.951547,-0.25561,-0.066409,0.273856,0.207377
846,0.172443,0.930497,-0.323155,-0.025501,0.2565449999999999,0.374928
847,0.179139,0.909934,-0.374059,-0.083649,0.193002,0.31661
848,0.185664,0.887425,-0.421897,0.069906,0.076075,0.313971
849,0.194879,0.8583209999999999,-0.4746579999999999,0.065131,0.012727,0.470996
850,0.195238,0.827866,-0.525845,-0.074037,-0.221223,0.571515
851,0.177392,0.7943319999999999,-0.581002,-0.183846,-0.463247,0.432701
852,0.143865,0.7579359999999999,-0.636264,-0.153204,-0.409761,0.460467
853,0.107302,0.7209180000000001,-0.68466,-0.002627,-0.380815,0.529402
854,0.063911,0.686792,-0.724036,0.028573,-0.268213,0.497565
855,0.015315,0.6552,-0.7552979999999999,-0.079707,-0.370272,0.45908
856,-0.024269,0.629031,-0.776999,-0.245247,-0.339068,0.389579
857,-0.051891,0.609179,-0.791331,-0.114842,-0.251559,0.4025829999999999
858,-0.066065,0.597075,-0.799458,-0.113225,-0.223525,0.392751
859,-0.069394,0.5944560000000001,-0.801126,-0.1439079999999999,-0.244389,0.371576
860,-0.064773,0.600362,-0.797099,-0.178574,-0.351765,0.217815
861,-0.049878,0.613578,-0.7880550000000001,-0.161227,-0.374473,0.089325
862,-0.0259149999999999,0.632474,-0.774146,-0.078364,-0.3613099999999999,-0.192697
863,-0.001941,0.6575449999999999,-0.75341,0.217761,-0.345213,-0.491829
864,0.0234,0.687071,-0.7262109999999999,0.253135,-0.2160929999999999,-0.2874
865,0.057807,0.7098409999999999,-0.701983,-0.05799,0.588331,-0.659986
866,0.083614,0.730671,-0.6775869999999999,0.4789319999999999,1.470638,0.787145
867,0.110398,0.7495970000000001,-0.652619,-0.197129,0.5374359999999999,0.941208
868,0.13513,0.76961,-0.624047,-0.412031,-0.276782,-0.035515
869,0.172445,0.784995,-0.595012,-0.131902,0.0987789999999999,0.3538929999999999
870,0.204731,0.805994,-0.555385,-0.117543,0.217871,0.1602589999999999
871,0.2307969999999999,0.828468,-0.510261,0.038048,0.3946159999999999,0.471016
872,0.251576,0.850036,-0.4627529999999999,0.118191,0.135437,0.4549859999999999
873,0.26086,0.8708469999999999,-0.416616,0.132252,0.062564,0.437108
874,0.261968,0.891127,-0.370482,0.386424,0.023516,0.433409
875,0.262694,0.909402,-0.322444,0.357484,0.127143,0.243892
876,0.25655,0.926666,-0.274702,0.3149369999999999,0.163849,0.1028119999999999
877,0.247471,0.939882,-0.2353039999999999,0.244243,-0.073442,-0.078889
878,0.2386039999999999,0.949817,-0.202248,0.256865,-0.243015,-0.100746
879,0.233203,0.957456,-0.169947,0.301098,-0.305646,-0.047827
880,0.239867,0.961211,-0.136104,0.175675,-0.360488,0.286967
881,0.258845,0.961232,-0.094971,-0.170649,-0.277729,-0.054672
882,0.278453,0.959009,-0.052444,-0.501613,-0.1319519999999999,-0.22937
883,0.285891,0.958041,-0.020215,-0.385897,-0.201235,-0.184222
884,0.285227,0.95845,0.001604,-0.076777,-0.145675,-0.147066
885,0.284009,0.958578,0.021218,0.226214,-0.021246,-0.194771
886,0.282281,0.958454,0.040822,0.1330319999999999,-0.088749,-0.197972
887,0.279251,0.958556,0.056316,0.117599,-0.044646,-0.133419
888,0.27494,0.959161,0.06634,0.177636,-0.049356,-0.045146
889,0.2711989999999999,0.95959,0.0749799999999999,0.067073,0.023565,0.041201
890,0.267832,0.959594,0.086184,0.117513,0.00972,-0.026812
891,0.265626,0.958945,0.099248,0.225982,-0.031531,-0.092794
892,0.262217,0.958113,0.1150819999999999,0.320181,-0.046172,-0.202851
893,0.255768,0.95775,0.1314519999999999,0.14096,0.165144,-0.103071
894,0.246763,0.958239,0.144459,0.045656,0.355146,0.062801
895,0.236277,0.959153,0.155504,-0.004908,0.461654,0.060423
896,0.226388,0.960552,0.16146,0.310645,0.630894,0.000863
897,0.219102,0.962854,0.1577589999999999,0.558607,0.622107,0.375703
898,0.216232,0.964142,0.153802,0.007279,0.6178279999999999,0.047904
899,0.217965,0.965802,0.140354,-0.100655,0.4826689999999999,-0.419941
900,0.216076,0.969985,0.111452,0.098728,0.4273079999999999,-0.4841479999999999
901,0.214207,0.974799,0.0621809999999999,0.222423,0.306894,-0.53441
902,0.2152659999999999,0.976547,-0.001153,0.274999,0.309342,-0.29766
903,0.216159,0.973624,-0.072911,0.221738,0.509087,0.1552619999999999
904,0.217518,0.964477,-0.14985,0.052745,0.552231,0.407708
905,0.2204179999999999,0.950488,-0.2190349999999999,-0.318746,0.250181,0.386318
906,0.2278059999999999,0.934136,-0.274742,-0.342155,0.230674,0.389687
907,0.236169,0.917075,-0.321228,-0.322106,0.133539,0.211273
908,0.231611,0.89659,-0.377456,-0.081678,0.100694,0.134124
909,0.223504,0.865123,-0.448999,0.322349,0.053273,0.117166
910,0.22007,0.8324870000000001,-0.508455,0.25138,-0.104871,0.516069
911,0.211848,0.798652,-0.5632659999999999,-0.166804,-0.329383,0.543536
912,0.1864839999999999,0.761536,-0.6207090000000001,-0.2486789999999999,-0.351273,0.5967680000000001
913,0.147335,0.724793,-0.673025,-0.172421,-0.2381599999999999,0.483541
914,0.094276,0.691505,-0.71619,0.007698,-0.186851,0.441028
915,0.0393079999999999,0.656198,-0.753562,0.010985,-0.148477,0.419501
916,-0.017179,0.619848,-0.784532,-0.173968,-0.238546,0.474641
917,-0.062002,0.586936,-0.807253,-0.153589,-0.224113,0.437289
918,-0.0924059999999999,0.560419,-0.8230360000000001,-0.048509,-0.183847,0.45063
919,-0.111804,0.540326,-0.833994,-0.017438,-0.183804,0.4298949999999999
920,-0.1221759999999999,0.52767,-0.840615,-0.0275589999999999,-0.192999,0.2863699999999999
921,-0.128547,0.523871,-0.842041,-0.03254,-0.1970579999999999,0.274093
922,-0.130072,0.527855,-0.8393139999999999,-0.0573059999999999,-0.3116219999999999,0.304616
923,-0.119986,0.536994,-0.835008,-0.067392,-0.320762,0.300309
924,-0.097212,0.550739,-0.828996,-0.082628,-0.330554,0.026246
925,-0.072949,0.568991,-0.8191,0.058697,-0.254065,-0.161888
926,-0.050561,0.5920300000000001,-0.804326,0.06556,-0.267429,-0.281138
927,-0.0256579999999999,0.620286,-0.783953,0.071755,-0.327257,-0.404386
928,0.004593,0.652591,-0.757694,0.144348,0.950665,-1.436078
929,0.033116,0.675972,-0.7361800000000001,0.8475,1.637398,-2.163295
930,0.035437,0.685701,-0.727017,0.560769,0.869353,1.311047
931,0.054933,0.706287,-0.7057869999999999,-1.107499,-0.771824,-0.1314779999999999
932,0.07568,0.732917,-0.676092,-0.020733,-0.23606,0.5174
933,0.110772,0.755065,-0.64622,0.106743,0.455201,0.371287
934,0.14164,0.7753479999999999,-0.61544,-0.364724,0.475064,0.040534
935,0.167399,0.792571,-0.586346,-0.194315,0.177476,0.432964
936,0.2050429999999999,0.812448,-0.5457810000000001,0.056538,0.1597039999999999,0.377156
937,0.253318,0.8331120000000001,-0.491675,0.122963,0.262576,0.377127
938,0.295469,0.8527629999999999,-0.4306779999999999,0.064165,0.101857,0.288969
939,0.322949,0.8687450000000001,-0.375467,0.05991,-0.018739,0.1776059999999999
940,0.3382969999999999,0.882912,-0.32559,0.071294,-0.09507,0.153517
941,0.343634,0.8979809999999999,-0.274834,0.104166,-0.096147,0.150307
942,0.338368,0.913503,-0.225846,0.158183,-0.050694,0.0889139999999999
943,0.322676,0.928331,-0.184572,0.184968,0.053663,0.027895
944,0.307066,0.939912,-0.149202,0.245531,0.06784,-0.02452
945,0.293475,0.948561,-0.118695,0.262601,-0.042769,-0.0991399999999999
946,0.283862,0.954456,-0.0917549999999999,0.201017,-0.271534,-0.1424359999999999
947,0.282548,0.957163,-0.06316,0.206389,-0.2203,0.094136
948,0.288229,0.956997,-0.032598,0.13421,-0.243573,0.1524859999999999
949,0.29734,0.954757,0.003081,-0.1362529999999999,-0.280929,-0.032729
950,0.307094,0.950932,0.037451,-0.18362,-0.058033,-0.2192599999999999
951,0.312339,0.948168,0.058329,-0.178566,0.00186,-0.089548
952,0.311319,0.947181,0.07687,-0.156244,0.032052,-0.045467
953,0.305245,0.947546,0.094665,-0.016747,-0.066732,-0.03073
954,0.297712,0.94845,0.1085769999999999,0.023043,-0.059626,0.018254
955,0.289162,0.949181,0.124175,0.0136639999999999,-0.046456,0.00702
956,0.280091,0.949511,0.141267,-0.033326,-0.072512,-0.0412
957,0.270761,0.94925,0.159973,0.0152039999999999,-0.045548,-0.104584
958,0.261963,0.948109,0.18012,0.098602,0.018108,-0.158682
959,0.252641,0.946543,0.20052,0.19342,0.034384,-0.1837349999999999
960,0.2438219999999999,0.944809,0.21878,0.206083,0.057999,-0.368973
961,0.239632,0.942793,0.231721,0.347984,0.137483,-0.188432
962,0.2330449999999999,0.942764,0.238459,0.458499,0.080795,-0.179118
963,0.227111,0.942842,0.2438179999999999,0.410599,0.106734,-0.164258
964,0.224375,0.942178,0.248863,0.314779,0.170462,-0.138068
965,0.223023,0.94179,0.251535,0.2414239999999999,0.309355,-0.130319
966,0.22599,0.942083,0.247761,0.31469,0.3386639999999999,0.016232
967,0.237032,0.942613,0.235103,0.025724,0.46411,-0.211269
968,0.252611,0.944482,0.210044,-0.1532609999999999,0.442496,-0.227653
969,0.262642,0.95024,0.167452,-0.244835,0.239426,-0.010836
970,0.2709,0.956286,0.110044,-0.307704,0.208341,0.002719
971,0.283066,0.958007,0.045558,-0.369492,0.279663,0.054295
972,0.297075,0.95471,-0.016047,-0.395433,0.363009,0.010798
973,0.310267,0.947411,-0.078288,-0.423197,0.448554,0.167994
974,0.314359,0.93917,-0.138283,-0.518049,0.533929,0.259544
975,0.301982,0.933905,-0.191344,-0.509471,0.264993,0.312392
976,0.286708,0.925112,-0.248903,-0.249171,0.022078,0.376161
977,0.272999,0.910735,-0.309869,0.102352,-0.069854,0.287469
978,0.258058,0.893402,-0.36773,0.227767,-0.1307829999999999,0.447275
979,0.250139,0.8764850000000001,-0.411332,0.224669,-0.157933,0.492692
980,0.256976,0.8596469999999999,-0.4415409999999999,0.045713,-0.162183,0.36302
981,0.259338,0.8449700000000001,-0.467717,-0.104813,-0.246047,0.4166
982,0.256552,0.831257,-0.4931359999999999,-0.148764,-0.326405,0.377704
983,0.249544,0.8212459999999999,-0.5131020000000001,-0.229936,-0.37427,0.394098
984,0.245105,0.816084,-0.523374,-0.286869,-0.409346,0.314603
985,0.248392,0.8154939999999999,-0.522745,-0.21026,-0.309039,0.171106
986,0.257209,0.8193940000000001,-0.5122770000000001,-0.135047,-0.285886,0.1947569999999999
987,0.270014,0.8262229999999999,-0.494406,-0.093134,-0.265936,0.191794
988,0.2873699999999999,0.8341430000000001,-0.470758,-0.128358,-0.277625,0.041406
989,0.307677,0.8417100000000001,-0.443676,-0.177992,-0.210713,-0.171986
990,0.328783,0.848267,-0.415131,-0.152712,-0.171402,-0.289047
991,0.347559,0.8550469999999999,-0.384818,0.433249,0.257196,-0.483468
992,0.364797,0.8627520000000001,-0.350098,0.742136,0.680003,-0.7676390000000001
993,0.384562,0.8630399999999999,-0.3275079999999999,0.566945,0.699659,-0.911887
994,0.400618,0.854557,-0.330493,-0.060759,0.31686,-0.8770879999999999
995,0.410211,0.8468889999999999,-0.338371,-0.448296,-0.1038309999999999,-0.4256979999999999
996,0.4134899999999999,0.845972,-0.3366679999999999,-0.487388,0.086295,-0.203783
997,0.416918,0.85151,-0.317958,-0.591951,0.222541,0.538768
998,0.427037,0.8573639999999999,-0.287323,-0.600499,1.085401,0.957153
999,0.424813,0.858547,-0.287085,-0.312371,1.7738080000000005,-0.360849
1000,0.4143949999999999,0.854691,-0.312678,-0.578442,-0.521668,1.345865
1001,0.4103279999999999,0.856483,-0.313137,-0.593205,-0.6991189999999999,0.350109
1002,0.411551,0.8645700000000001,-0.288325,-0.264334,-0.363502,0.532741
1003,0.4131149999999999,0.8763219999999999,-0.247753,-0.231658,0.135397,0.902279
1004,0.410147,0.888388,-0.206229,0.101969,0.646386,0.643622
1005,0.4139489999999999,0.896133,-0.159923,0.151771,0.629745,0.403682
1006,0.425662,0.8966639999999999,-0.121609,0.281186,0.263294,-0.244159
1007,0.431849,0.8986540000000001,-0.076879,-0.057871,0.12312,0.075917
1008,0.437477,0.8979719999999999,-0.047353,-0.1276779999999999,0.0620659999999999,0.139578
1009,0.444835,0.895408,-0.0186099999999999,-0.158717,-0.04702,0.142618
1010,0.451347,0.892309,0.007137,0.034768,-0.056235,0.0727429999999999
1011,0.4557989999999999,0.8895879999999999,0.029331,0.069378,-0.042436,0.0497089999999999
1012,0.4548359999999999,0.889143,0.050274,-0.080035,-0.062331,-0.068768
1013,0.4521189999999999,0.8889940000000001,0.072515,-0.11818,-0.067689,-0.098638
1014,0.44953,0.8884,0.0929909999999999,-0.130194,-0.069613,-0.138829
1015,0.4443029999999999,0.8890979999999999,0.109897,0.035571,-0.054046,-0.082965
1016,0.437803,0.8904719999999999,0.1239589999999999,0.089327,-0.059479,-0.11929
1017,0.429955,0.8923409999999999,0.137271,0.124763,-0.029487,-0.2607
1018,0.421824,0.8945040000000001,0.148005,0.050543,-0.039722,-0.161829
1019,0.415074,0.896225,0.156435,0.050411,-0.06311,-0.141145
1020,0.406073,0.898525,0.166536,0.045542,-0.0733149999999999,-0.1542369999999999
1021,0.394605,0.901243,0.178953,0.028414,-0.031873,-0.193113
1022,0.382291,0.903624,0.193117,0.114291,-0.028135,-0.188372
1023,0.369731,0.905917,0.2063719999999999,0.246557,0.033871,-0.118497
1024,0.358043,0.908105,0.217087,0.295537,0.132178,-0.153687
1025,0.347251,0.909621,0.2279969999999999,0.373544,0.134095,-0.134567
1026,0.335997,0.911195,0.238341,0.546801,0.086211,-0.250486
1027,0.326579,0.911969,0.248263,0.414602,0.1199369999999999,-0.542437
1028,0.325063,0.910657,0.254978,0.120845,0.191165,-0.375111
1029,0.328316,0.908485,0.258532,-0.01989,0.33416,-0.350848
1030,0.3324789999999999,0.908497,0.253113,-0.004293,0.51472,-0.176072
1031,0.342149,0.91087,0.23071,-0.088685,0.535129,-0.234463
1032,0.359409,0.914413,0.186152,-0.372501,0.277696,-0.372813
1033,0.375359,0.919717,0.114916,-0.471001,0.35424,-0.1676359999999999
1034,0.382069,0.923375,0.0371779999999999,-0.4532819999999999,0.422221,0.035835
1035,0.384513,0.922454,-0.034802,-0.428931,0.667329,0.192319
1036,0.384887,0.916683,-0.107415,-0.515609,1.030674,0.250008
1037,0.368384,0.912328,-0.178704,-0.537421,0.8311559999999999,0.27366
1038,0.34268,0.904752,-0.252945,-0.521895,0.603152,0.511627
1039,0.312636,0.8885770000000001,-0.335674,-0.084319,0.380054,0.353146
1040,0.285178,0.859087,-0.42501,0.490381,0.3658889999999999,0.095451
1041,0.258738,0.8217700000000001,-0.50768,0.549566,0.2193369999999999,0.224004
1042,0.233634,0.7834180000000001,-0.5759029999999999,0.183938,-0.081544,0.247244
1043,0.190639,0.7456109999999999,-0.638526,-0.233226,-0.2356619999999999,0.473304
1044,0.132935,0.709796,-0.691746,-0.265869,-0.309711,0.510792
1045,0.0807679999999999,0.6764720000000001,-0.732023,-0.115192,-0.098499,0.272657
1046,0.031725,0.6438560000000001,-0.764486,0.051573,-0.062542,0.162176
1047,-0.016776,0.6122989999999999,-0.790446,6.7e-05,-0.129572,0.255534
1048,-0.061453,0.584202,-0.809277,-0.017878,-0.242969,0.353283
1049,-0.100267,0.560407,-0.822124,-0.086348,-0.421857,0.48788
1050,-0.129016,0.54198,-0.830427,-0.1232579999999999,-0.411288,0.470534
1051,-0.147885,0.5288189999999999,-0.83575,-0.19466,-0.377742,0.378123
1052,-0.157014,0.520891,-0.8390569999999999,-0.242461,-0.301881,0.315055
1053,-0.158965,0.517038,-0.8410700000000001,-0.242753,-0.316721,0.316305
1054,-0.150643,0.514962,-0.8438709999999999,-0.1897049999999999,-0.278924,0.170119
1055,-0.138574,0.515015,-0.8459040000000001,-0.052603,-0.202744,0.024188
1056,-0.130975,0.518691,-0.8448680000000001,-0.0532299999999999,-0.180068,-0.01556
1057,-0.1258,0.5244449999999999,-0.8420979999999999,-0.2090389999999999,-0.2330179999999999,-0.06136
1058,-0.117117,0.533775,-0.837476,-0.355692,-0.2280489999999999,-0.163028
1059,-0.102604,0.550854,-0.828269,-0.387707,-0.202587,-0.284524
1060,-0.085122,0.5793729999999999,-0.810603,-0.351569,-0.06648,-0.059835
1061,-0.057344,0.614636,-0.786721,-0.539351,1.758884,-1.793464
1062,-0.061751,0.619896,-0.7822479999999999,-0.021379,2.412682,-1.6708610000000002
1063,-0.081241,0.6401319999999999,-0.763955,-0.978726,-0.582453,-0.021888
1064,-0.048642,0.674638,-0.736541,-0.129153,-0.055025,0.801513
1065,-0.019423,0.698228,-0.715609,0.514738,0.124221,0.76166
1066,0.021571,0.716437,-0.697314,0.008123,0.8784120000000001,0.048785
1067,0.0589639999999999,0.732075,-0.678663,-0.083989,0.268505,0.3235909999999999
1068,0.110767,0.751808,-0.650008,-0.003238,0.074502,0.274352
1069,0.1842859999999999,0.7711979999999999,-0.609332,0.146509,0.3316,0.510471
1070,0.258175,0.789805,-0.556368,0.069523,0.211537,0.463946
1071,0.308586,0.80771,-0.502365,-0.010734,0.074645,0.379059
1072,0.33709,0.827832,-0.448391,0.166206,-0.056012,0.385067
1073,0.359666,0.849432,-0.386127,0.024062,-0.101111,0.285999
1074,0.37245,0.8694430000000001,-0.324557,0.0064709999999999,-0.180479,0.193682
1075,0.361122,0.8922690000000001,-0.270989,-0.036491,-0.187084,0.08828
1076,0.336291,0.915319,-0.221556,0.077985,0.002742,0.077498
1077,0.324815,0.928665,-0.179058,0.257811,0.215988,-0.0151259999999999
1078,0.33047,0.933868,-0.13662,0.26273,-0.094573,-0.015937
1079,0.348166,0.933758,-0.082828,0.194222,-0.189922,-0.2409329999999999
1080,0.366882,0.92986,-0.0272089999999999,-0.157058,-0.209661,-0.318555
1081,0.3764409999999999,0.926359,0.011589,-0.310843,-0.18437,-0.261665
1082,0.373879,0.926647,0.039007,-0.134392,-0.187801,-0.236075
1083,0.367674,0.927956,0.060783,0.097902,-0.039132,-0.270347
1084,0.360884,0.929202,0.079551,0.179231,0.038923,-0.254264
1085,0.35628,0.929953,0.090739,0.221738,-0.000906,-0.296504
1086,0.354056,0.930026,0.098367,0.228326,-0.00484,-0.308374
1087,0.352373,0.930038,0.1041319999999999,0.254377,-0.026382,-0.378119
1088,0.35102,0.929913,0.109667,0.246438,-0.042233,-0.318331
1089,0.348597,0.929896,0.117278,0.1214809999999999,0.117788,-0.132003
1090,0.343233,0.930658,0.126676,-0.095232,0.406866,0.036349
1091,0.336351,0.932389,0.1322839999999999,-0.2112139999999999,0.8264610000000001,0.0734809999999999
1092,0.330429,0.93491,0.129382,0.053971,0.8062090000000001,-0.067339
1093,0.326372,0.937358,0.121746,0.338103,0.616567,0.146779
1094,0.325261,0.938733,0.113868,-0.044515,0.506411,-0.2948679999999999
1095,0.320984,0.942113,0.096816,-0.080185,0.367244,-0.4066
1096,0.314971,0.946811,0.065761,0.126802,0.3149079999999999,-0.4845689999999999
1097,0.312728,0.949743,0.013047,0.014374,0.5239050000000001,-0.505708
1098,0.310878,0.948815,-0.055574,0.0071,0.5727770000000001,-0.345031
1099,0.306262,0.94201,-0.137131,-0.052813,0.568717,0.118744
1100,0.299752,0.929945,-0.2129239999999999,-0.130715,0.2430139999999999,0.2349889999999999
1101,0.295656,0.915625,-0.272405,-0.183901,0.279596,0.373083
1102,0.29239,0.901151,-0.320034,-0.19832,0.153216,0.401577
1103,0.300982,0.8801680000000001,-0.367019,-0.052355,0.166875,0.234253
1104,0.3054659999999999,0.854347,-0.420442,-0.097946,0.108605,0.33925
1105,0.290669,0.8264739999999999,-0.4821229999999999,-0.209065,-0.128736,0.4649109999999999
1106,0.2635119999999999,0.794048,-0.54776,-0.24215,-0.281352,0.358689
1107,0.229733,0.7608189999999999,-0.606934,-0.199567,-0.259141,0.462174
1108,0.193131,0.728731,-0.656997,-0.051667,-0.219194,0.489562
1109,0.149704,0.69787,-0.7004,-0.1153869999999999,-0.3068329999999999,0.476996
1110,0.101855,0.670036,-0.735305,-0.1218279999999999,-0.279319,0.509917
1111,0.058373,0.6477149999999999,-0.75964,-0.2438739999999999,-0.332468,0.368313
1112,0.0268699999999999,0.631983,-0.774513,-0.226317,-0.296,0.346641
1113,0.008768,0.62466,-0.780845,-0.2025549999999999,-0.272319,0.334647
1114,0.001977,0.6266149999999999,-0.779324,-0.285058,-0.315534,0.3119929999999999
1115,0.007637,0.637105,-0.770737,-0.323463,-0.401723,0.2595369999999999
1116,0.0287209999999999,0.655307,-0.754813,-0.314579,-0.506839,-0.1386349999999999
1117,0.060604,0.680254,-0.730463,-0.2033039999999999,-0.449068,-0.596014
1118,0.0884669999999999,0.711306,-0.697288,0.222019,-0.173266,-0.2701949999999999
1119,0.118247,0.735295,-0.667347,0.181023,0.83137,-0.52145
1120,0.149722,0.752512,-0.641329,0.232465,1.344763,-0.256407
1121,0.185668,0.7649100000000001,-0.616792,-0.576079,-0.068728,0.496522
1122,0.211375,0.780001,-0.588992,-0.393702,-0.416475,0.272891
1123,0.247184,0.794799,-0.554243,-0.139503,-0.027908,0.266371
1124,0.279436,0.813234,-0.510447,-0.1968859999999999,0.417112,0.131816
1125,0.304733,0.832988,-0.4617989999999999,-0.088898,0.5333600000000001,0.349754
1126,0.322089,0.852456,-0.411785,0.0471279999999999,0.345756,0.370098
1127,0.32611,0.8725620000000001,-0.363698,0.169312,0.151135,0.44193
1128,0.3239059999999999,0.892069,-0.315094,0.459633,0.149419,0.396302
1129,0.318995,0.910765,-0.262177,0.478842,0.276079,0.271439
1130,0.309157,0.927429,-0.210436,0.385896,0.315766,0.0574519999999999
1131,0.298227,0.939754,-0.1670589999999999,0.258505,0.135899,-0.1156099999999999
1132,0.289948,0.948284,-0.12912,0.1998589999999999,-0.126324,-0.091644
1133,0.29018,0.95216,-0.095761,0.253368,-0.378994,0.120465
1134,0.300665,0.951773,-0.060924,0.162745,-0.44921,0.157771
1135,0.316538,0.94844,-0.015737,-0.142496,-0.505111,0.066
1136,0.333738,0.941945,0.036621,-0.687345,-0.198628,-0.299057
1137,0.341478,0.936805,0.075959,-0.734025,-0.173698,-0.374482
1138,0.338008,0.935372,0.103975,-0.241328,-0.121178,-0.3270889999999999
1139,0.332487,0.933636,0.133253,0.1663079999999999,-0.021664,-0.38426
1140,0.326427,0.930975,0.163437,0.232655,0.00915,-0.3961179999999999
1141,0.319691,0.929342,0.184667,0.343365,0.033579,-0.375738
1142,0.313731,0.929041,0.19605,0.4295859999999999,0.059805,-0.322042
1143,0.3109179999999999,0.928398,0.2034369999999999,0.348475,0.172234,-0.223884
1144,0.310257,0.927447,0.2087139999999999,0.246323,0.172422,-0.118474
1145,0.310772,0.926098,0.2138719999999999,0.034641,0.218921,-0.1163839999999999
1146,0.310521,0.925815,0.2154559999999999,0.087596,0.318371,-0.136477
1147,0.305271,0.927255,0.216761,0.063289,0.385748,-0.118113
1148,0.296475,0.930509,0.215022,0.040027,0.46033,-0.118998
1149,0.289191,0.935384,0.203476,0.272744,0.5354869999999999,-0.125396
1150,0.286502,0.941062,0.179717,0.435971,0.633951,0.024049
1151,0.291039,0.944255,0.153816,0.026344,0.439565,-0.17762
1152,0.296436,0.947591,0.119068,-0.07349,0.3165989999999999,-0.340534
1153,0.300242,0.951622,0.065206,-0.050013,0.274162,-0.508641
1154,0.298388,0.954363,-0.011768,0.063581,0.586973,-0.501096
1155,0.291441,0.951318,-0.1002,0.080461,0.7012390000000001,-0.294682
1156,0.282783,0.941973,-0.18085,0.109551,0.507826,0.217074
1157,0.275208,0.929057,-0.247185,0.050873,0.316609,0.368828
1158,0.268796,0.913401,-0.305673,-0.088086,0.232656,0.449517
1159,0.262806,0.895589,-0.3589449999999999,-0.014103,0.095835,0.173398
1160,0.266533,0.871941,-0.410693,0.038063,0.184974,0.183428
1161,0.270731,0.845355,-0.460512,-0.103373,0.110502,0.4541949999999999
1162,0.264941,0.8149390000000001,-0.5154340000000001,-0.223742,-0.155104,0.449546
1163,0.244044,0.781421,-0.5742970000000001,-0.258051,-0.339496,0.5162220000000001
1164,0.213011,0.7487149999999999,-0.627731,-0.164824,-0.405331,0.588699
1165,0.175414,0.718305,-0.673247,-0.041198,-0.474455,0.5373979999999999
1166,0.133316,0.6897810000000001,-0.711635,-0.067398,-0.375374,0.550884
1167,0.08842,0.6633720000000001,-0.743045,-0.123515,-0.3114119999999999,0.533374
1168,0.045367,0.641321,-0.7659279999999999,-0.327776,-0.349908,0.4964119999999999
1169,0.014255,0.624781,-0.780668,-0.260181,-0.3057809999999999,0.500257
1170,-0.004335,0.614781,-0.788684,-0.234526,-0.287678,0.472125
1171,-0.010431,0.612161,-0.790662,-0.251791,-0.254129,0.294797
1172,-0.005344,0.616992,-0.786949,-0.2296409999999999,-0.354541,0.16935
1173,0.01065,0.6296689999999999,-0.776788,-0.2396239999999999,-0.360627,0.094888
1174,0.033257,0.64874,-0.7602800000000001,-0.141792,-0.382291,-0.324452
1175,0.0574919999999999,0.6744399999999999,-0.736085,-0.09161,-0.375932,-0.400481
1176,0.0851789999999999,0.706494,-0.7025710000000001,-0.1040079999999999,-0.403546,-0.170613
1177,0.124258,0.737563,-0.6637430000000001,-0.317861,0.487717,-0.639617
1178,0.147006,0.757979,-0.635493,1.061963,2.445512,-0.767583
1179,0.1676079999999999,0.776412,-0.607524,-0.298407,0.700593,0.863384
1180,0.180526,0.790585,-0.5851310000000001,-0.69522,-0.663327,-0.046171
1181,0.220931,0.80377,-0.552391,-0.241958,-0.301253,0.5240100000000001
1182,0.255894,0.824651,-0.504441,-0.1592299999999999,0.148219,0.200013
1183,0.283001,0.846699,-0.450558,0.014072,0.4383359999999999,0.366681
1184,0.300099,0.866503,-0.398878,0.041088,0.331572,0.389448
1185,0.30487,0.885683,-0.350157,0.2231909999999999,0.131575,0.2993
1186,0.306579,0.902972,-0.301064,0.309327,0.026792,0.23066
1187,0.3039199999999999,0.919564,-0.249042,0.263921,0.079093,0.172458
1188,0.300786,0.932438,-0.200188,0.286479,0.173931,-0.0774
1189,0.300166,0.940957,-0.1564829999999999,0.2187239999999999,0.052604,-0.12347
1190,0.29873,0.946726,-0.1202309999999999,0.21839,-0.336481,-0.14843
1191,0.305569,0.948096,-0.087897,0.167972,-0.406989,-0.004709
1192,0.323975,0.944878,-0.047222,0.17456,-0.355034,0.1058619999999999
1193,0.342988,0.939328,0.002519,-0.379334,-0.27319,-0.375795
1194,0.3563,0.933226,0.0460649999999999,-0.553215,-0.210967,-0.320067
1195,0.357288,0.930971,0.074974,-0.490116,-0.137468,-0.284035
1196,0.356362,0.929273,0.097159,0.076286,0.083941,-0.342506
1197,0.354263,0.927991,0.115382,0.142243,0.033252,-0.365321
1198,0.349994,0.927735,0.12959,0.115415,-0.031678,-0.298673
1199,0.345926,0.928149,0.137322,0.198798,0.047651,-0.202232
1200,0.342809,0.928578,0.142145,0.2465619999999999,0.054652,-0.173456
1201,0.342003,0.927583,0.150347,0.1786569999999999,0.065704,-0.103869
1202,0.340676,0.926645,0.158901,0.168632,0.095587,-0.184093
1203,0.340681,0.925167,0.167277,0.152345,0.128803,-0.258342
1204,0.339172,0.924025,0.1764069999999999,0.026307,0.3755969999999999,-0.122696
1205,0.33116,0.925346,0.184519,-0.061858,0.4590689999999999,-0.113825
1206,0.320311,0.928789,0.186363,-0.07875,0.591353,-0.148994
1207,0.311541,0.933654,0.176671,0.516981,0.7492840000000001,0.01768
1208,0.307849,0.938858,0.154123,0.4582489999999999,0.646637,0.1461849999999999
1209,0.311354,0.94083,0.133712,-0.0723549999999999,0.413418,-0.302886
1210,0.315245,0.943653,0.100599,-0.165144,0.267223,-0.51431
1211,0.3173829999999999,0.947011,0.049203,-0.057724,0.257472,-0.447412
1212,0.314781,0.948934,-0.020513,-0.018211,0.447276,-0.378657
1213,0.312332,0.944654,-0.100309,0.121476,0.729571,-0.056551
1214,0.307233,0.933985,-0.182387,0.0614039999999999,0.576665,0.191848
1215,0.298221,0.920943,-0.250828,0.04205,0.244325,0.2314949999999999
1216,0.293087,0.905171,-0.307821,-0.036801,0.158107,0.3367969999999999
1217,0.289153,0.88651,-0.361219,0.153336,0.100398,0.17851
1218,0.292133,0.8620129999999999,-0.414224,0.191082,0.123446,0.09736
1219,0.292101,0.8347600000000001,-0.466738,-0.141084,-0.158841,0.525347
1220,0.283237,0.80561,-0.520346,-0.2347909999999999,-0.234626,0.558905
1221,0.258351,0.77395,-0.578142,-0.318242,-0.272088,0.6097279999999999
1222,0.221032,0.742314,-0.632541,-0.318749,-0.407582,0.516437
1223,0.177608,0.711911,-0.6794359999999999,0.013753,-0.359219,0.439476
1224,0.129939,0.68275,-0.719002,-0.01179,-0.314754,0.467918
1225,0.0792669999999999,0.6557569999999999,-0.750797,-0.1249509999999999,-0.319895,0.572971
1226,0.0363459999999999,0.632826,-0.773438,-0.270446,-0.33766,0.353013
1227,0.007633,0.616937,-0.7869729999999999,-0.27393,-0.278146,0.29181
1228,-0.0093709999999999,0.6096739999999999,-0.7925939999999999,-0.24928,-0.170572,0.359199
1229,-0.022739,0.607128,-0.794276,-0.168194,-0.209957,0.453822
1230,-0.023684,0.608633,-0.793096,-0.176542,-0.278036,0.341726
1231,-0.008849,0.617169,-0.786779,-0.249161,-0.333935,0.179204
1232,0.015595,0.632808,-0.774149,-0.192521,-0.3128,0.0725809999999999
1233,0.045413,0.654606,-0.754602,-0.117999,-0.322132,-0.3225159999999999
1234,0.074094,0.6829770000000001,-0.726669,-0.006177,-0.287454,-0.548737
1235,0.1030099999999999,0.713144,-0.693404,0.037646,-0.042704,-0.237886
1236,0.127623,0.738517,-0.662042,-0.032713,0.908242,-1.16384
1237,0.145083,0.7533489999999999,-0.641412,0.882627,2.140587,0.396387
1238,0.156841,0.7721359999999999,-0.615792,-0.797146,-0.626033,0.016549
1239,0.181013,0.7888569999999999,-0.587309,-0.441556,-0.65577,0.321653
1240,0.224488,0.809164,-0.5430020000000001,-0.120728,-0.0137229999999999,0.358478
1241,0.261479,0.831089,-0.490826,-0.045384,0.50111,0.165569
1242,0.2874219999999999,0.851218,-0.439097,0.008415,0.4565359999999999,0.390085
1243,0.301185,0.8703620000000001,-0.389546,0.0578539999999999,0.182967,0.280995
1244,0.304647,0.889,-0.341843,0.297983,-0.034768,0.26799
1245,0.304843,0.905809,-0.294226,0.327054,-0.041169,0.155401
1246,0.3003429999999999,0.922343,-0.243032,0.0953789999999999,-0.015757,-0.038935
1247,0.288562,0.937316,-0.1953349999999999,0.090085,0.01326,-0.101082
1248,0.275991,0.948458,-0.155696,0.14097,0.0443089999999999,-0.111317
1249,0.267287,0.95573,-0.122973,0.364473,-0.192943,-0.06976
1250,0.270744,0.958458,-0.089666,0.394951,-0.302162,-0.034922
1251,0.286152,0.956765,-0.0519779999999999,0.331341,-0.400323,0.10694
1252,0.307786,0.951434,-0.004883,-0.431108,-0.167742,-0.371276
1253,0.325572,0.944666,0.039879,-0.606013,-0.078593,-0.328865
1254,0.329203,0.941654,0.06996,-0.619639,-0.11005,-0.360166
1255,0.327691,0.940436,0.090441,0.042213,0.02102,-0.3135239999999999
1256,0.325495,0.939299,0.108401,0.1192829999999999,0.0601509999999999,-0.309115
1257,0.322107,0.938629,0.123303,0.123679,-0.00502,-0.270046
1258,0.318783,0.938476,0.132743,0.134983,0.008423,-0.24639
1259,0.315636,0.938594,0.139271,0.243278,0.0926559999999999,-0.275654
1260,0.314922,0.93761,0.147281,0.330524,0.0275079999999999,-0.244678
1261,0.315638,0.935957,0.156003,0.313634,0.0027329999999999,-0.116544
1262,0.313713,0.934664,0.167236,0.130226,0.095899,-0.1031339999999999
1263,0.31064,0.933409,0.179531,-0.0576789999999999,0.339373,-0.039288
1264,0.305756,0.932962,0.189933,-0.15889,0.671393,0.016931
1265,0.299825,0.934838,0.190165,0.202097,0.753868,0.046224
1266,0.296017,0.937597,0.182388,0.238925,0.6107279999999999,0.109543
1267,0.298117,0.938945,0.171719,0.111704,0.510777,-0.071377
