,gravity.x,gravity.y,gravity.z,userAcceleration.x,userAcceleration.y,userAcceleration.z
0,-0.176373,0.983824,-0.0311819999999999,-0.047382,-0.029921,0.0302209999999999
1,-0.177163,0.983704,-0.030492,-0.057319,-0.029862,0.026082
2,-0.178111,0.983566,-0.029404,-0.055958,-0.029403,0.027267
3,-0.1794329999999999,0.983377,-0.027618,-0.053844,-0.030649,0.0288079999999999
4,-0.18143,0.983086,-0.024784,-0.0447199999999999,0.002632,0.031086
5,-0.183077,0.982856,-0.021572,-0.038084,0.009041,0.025356
6,-0.184885,0.982587,-0.018174,-0.01734,0.0221889999999999,0.010102
7,-0.1861259999999999,0.982398,-0.0155039999999999,-0.015259,0.0259329999999999,0.006303
8,-0.1871799999999999,0.982223,-0.0138199999999999,-0.005539,0.02826,0.000118
9,-0.187626,0.982145,-0.013279,-0.002529,0.041231,-0.003018
10,-0.187769,0.982112,-0.013672,0.008738,0.03835,0.002014
11,-0.187674,0.982111,-0.015,0.0189419999999999,0.025686,0.002579
12,-0.187295,0.982151,-0.016987,0.0149319999999999,0.019772,0.005817
13,-0.186626,0.982238,-0.019156,0.00671,0.006745,0.01052
14,-0.185801,0.982355,-0.021085,0.0057469999999999,0.003912,0.014631
15,-0.184926,0.982484,-0.022658,0.008565,0.002714,0.012038
16,-0.184199,0.98259,-0.023955,0.011393,-0.003616,0.009322
17,-0.183622,0.98267,-0.0250479999999999,0.006253,-0.001942,0.010171
18,-0.183136,0.982738,-0.0259259999999999,0.001251,0.005863,0.015016
19,-0.182789,0.982783,-0.026663,0.000248,0.00855,0.016318
20,-0.182554,0.982809,-0.027335,0.006422,0.006831,0.013022
21,-0.182338,0.98283,-0.028002,0.010264,0.0016359999999999,0.014025
22,-0.182022,0.98287,-0.0286529999999999,0.010895,0.002192,0.01434
23,-0.181565,0.982935,-0.029294,0.011887,0.006552,0.005246
24,-0.181045,0.983012,-0.029906,0.009399,0.0085799999999999,0.002592
25,-0.180495,0.983095,-0.030523,0.008986,0.008925,-0.00268
26,-0.1799859999999999,0.983168,-0.0311639999999999,0.007989,0.0054789999999999,-0.003336
27,-0.179523,0.983229,-0.031924,0.011997,-0.001249,0.002276
28,-0.179149,0.983274,-0.032621,0.0115319999999999,-0.000425,0.0106489999999999
29,-0.178911,0.983299,-0.033171,0.012606,0.0012439999999999,0.016829
30,-0.1787119999999999,0.983321,-0.033581,0.008683,0.001298,0.0190849999999999
31,-0.178473,0.983358,-0.033776,0.0008,0.00149,0.02218
32,-0.178249,0.983404,-0.033612,-0.001637,0.004175,0.018749
33,-0.1778809999999999,0.983491,-0.033013,-0.011481,0.011153,0.013558
34,-0.177535,0.983577,-0.032286,-0.0084689999999999,0.0157509999999999,0.006743
35,-0.177314,0.983633,-0.031787,-0.005029,0.015253,0.000857
36,-0.177215,0.983656,-0.031604,-0.011964,0.0143449999999999,-0.011609
37,-0.177215,0.98365,-0.031814,-0.009599,0.01075,-0.011598
38,-0.177197,0.983634,-0.032402,-0.005756,0.009164,-0.0084
39,-0.177152,0.983616,-0.033198,0.000135,0.004147,-0.00678
40,-0.177068,0.9836,-0.034118,0.0089769999999999,0.005063,-0.002366
41,-0.176832,0.983608,-0.035088,0.008375,0.008732,-0.00283
42,-0.176413,0.98365,-0.036005,0.009085,0.014366,0.001795
43,-0.175925,0.983704,-0.036922,0.009528,0.013366,0.00317
44,-0.1754079999999999,0.983764,-0.03778,0.007714,0.006806,0.002791
45,-0.1749359999999999,0.983819,-0.038526,0.004252,0.008964,-0.0006889999999999
46,-0.174529,0.983866,-0.039172,0.0017989999999999,0.008764,-0.003446
47,-0.1741339999999999,0.983907,-0.039887,0.003144,0.010539,-0.00235
48,-0.173707,0.983947,-0.040759,0.004045,0.01204,0.003162
49,-0.173217,0.983993,-0.041738,0.007415,0.0066989999999999,0.003087
50,-0.1728599999999999,0.984016,-0.042673,0.007622,0.011422,0.002939
51,-0.17252,0.984041,-0.043454,0.003804,0.005354,0.004956
52,-0.172101,0.984084,-0.044141,-0.001421,0.001664,0.004392
53,-0.171629,0.984141,-0.044712,-0.006273,0.001852,0.005848
54,-0.17114,0.984205,-0.04517,-0.0082569999999999,0.002611,0.003956
55,-0.170789,0.98425,-0.045523,-0.006701,0.005054,0.004416
56,-0.170631,0.984265,-0.045799,-0.008705,0.005131,0.001289
57,-0.170618,0.984258,-0.0459959999999999,-0.012258,0.0036119999999999,-0.002085
58,-0.170623,0.984253,-0.04608,-0.0131539999999999,0.0047909999999999,-0.003389
59,-0.170523,0.984266,-0.046174,-0.017725,0.005389,-0.003325
60,-0.170348,0.984287,-0.046375,-0.0153509999999999,0.004971,-0.003261
61,-0.170252,0.98429,-0.046649,-0.010671,0.0077599999999999,-0.001645
62,-0.170322,0.98426,-0.04702,-0.003979,0.0168229999999999,-0.002357
63,-0.170551,0.9842,-0.047435,0.00275,0.009284,-0.003529
64,-0.1708309999999999,0.984127,-0.047936,-0.001761,0.011097,-0.006584
65,-0.170978,0.984064,-0.048713,-0.001416,0.014472,-0.001549
66,-0.170891,0.984019,-0.049895,0.000664,0.006017,-0.006379
67,-0.170594,0.983995,-0.051359,0.001603,0.011641,-0.002489
68,-0.170221,0.983984,-0.052792,-0.003653,0.015711,0.011411
69,-0.169653,0.984015,-0.054019,-0.007135,0.006585,0.0167569999999999
70,-0.168848,0.984093,-0.055102,-0.0155389999999999,-0.00335,0.02164
71,-0.167772,0.984223,-0.056069,-0.024931,-0.0078129999999999,0.020257
72,-0.16665,0.984367,-0.056887,-0.020224,0.004677,0.014941
73,-0.165744,0.984481,-0.057553,-0.002851,0.001419,0.011562
74,-0.164968,0.984572,-0.05822,0.000554,-0.000319,0.010628
75,-0.164278,0.984663,-0.0586309999999999,0.003374,-0.002806,0.0114349999999999
76,-0.1637819999999999,0.984747,-0.058612,0.008768,0.00236,0.006214
77,-0.163099,0.984872,-0.058421,0.008085,0.002234,0.006022
78,-0.162463,0.985007,-0.057912,0.006839,0.010629,0.00182
79,-0.1618109999999999,0.985144,-0.0574169999999999,0.011497,0.007624,0.00894
80,-0.161343,0.985245,-0.056991,0.015377,0.00476,0.010513
81,-0.161145,0.985304,-0.056534,0.019009,0.006258,0.01857
82,-0.1612589999999999,0.985318,-0.055958,0.013966,0.007266,0.0214889999999999
83,-0.161493,0.985325,-0.055156,0.008936,0.012509,0.015423
84,-0.161658,0.985343,-0.054333,0.000708,0.017358,0.011456
85,-0.161673,0.98537,-0.053796,-0.002405,0.015775,0.01278
86,-0.161588,0.985383,-0.053805,-0.00249,0.010985,0.014986
87,-0.161526,0.985366,-0.054308,-0.003544,0.011765,0.020617
88,-0.161391,0.985351,-0.054978,-0.010209,0.006058,0.025559
89,-0.161179,0.985356,-0.0555,-0.017914,0.005626,0.025944
90,-0.1609809999999999,0.985378,-0.055697,-0.016127,0.003956,0.022311
91,-0.160901,0.985388,-0.055747,-0.014987,7e-05,0.018791
92,-0.160916,0.985391,-0.055652,-0.012744,0.000632,0.017688
93,-0.161,0.985385,-0.055513,-0.008052,0.009656,0.015047
94,-0.160996,0.985384,-0.0555419999999999,-0.003921,0.008131,0.009552
95,-0.160893,0.98539,-0.055746,-0.0008349999999999,0.009377,0.002692
96,-0.160761,0.985388,-0.056148,0.008722,0.0105069999999999,0.000743
97,-0.160486,0.98539,-0.056894,0.008828,0.008659,0.004908
98,-0.160192,0.985393,-0.057655,0.011465,0.008351,0.0040659999999999
99,-0.159879,0.985407,-0.058285,0.009366,0.006979,0.007717
100,-0.159546,0.985439,-0.058657,0.009674,0.010944,0.011737
101,-0.159307,0.985467,-0.058847,0.016347,0.006812,0.009103
102,-0.1592,0.985483,-0.058874,0.0137069999999999,0.013083,0.001684
103,-0.159077,0.985508,-0.0587809999999999,0.00591,0.0144009999999999,0.0059549999999999
104,-0.158798,0.985544,-0.0589299999999999,0.002365,0.009604,0.01323
105,-0.15845,0.985573,-0.059386,0.004245,0.00425,0.021162
106,-0.158079,0.98559,-0.060084,0.003966,0.0033469999999999,0.020731
107,-0.157724,0.985614,-0.060622,0.005579,0.00134,0.016753
108,-0.157541,0.985628,-0.0608679999999999,0.0065239999999999,0.004072,0.010987
109,-0.157696,0.985601,-0.060907,0.003124,0.013041,0.007898
110,-0.158078,0.985539,-0.060917,0.005337,0.008968,0.009906
111,-0.158474,0.985471,-0.060988,0.0069689999999999,0.0031149999999999,0.011397
112,-0.158864,0.985406,-0.0610289999999999,0.009236,0.005042,0.011621
113,-0.159229,0.985349,-0.061002,0.0070989999999999,0.01044,0.012388
114,-0.159571,0.9853,-0.060896,0.0036409999999999,0.011267,0.006697
115,-0.159828,0.985266,-0.060779,-0.003166,0.009012,0.001179
116,-0.1600339999999999,0.985229,-0.0608299999999999,-0.001709,0.011795,-0.000815
117,-0.16029,0.985174,-0.061058,-0.000888,0.015956,0.000251
118,-0.160661,0.985087,-0.061486,-0.001204,0.006338,0.002267
119,-0.161022,0.984986,-0.062143,0.002438,0.003981,0.0015199999999999
120,-0.161246,0.984896,-0.062987,0.001044,0.0065439999999999,0.0007469999999999
121,-0.161224,0.984833,-0.0640299999999999,-0.00084,0.009781,-0.011242
122,-0.161131,0.98477,-0.065215,-0.001481,0.01349,-0.008424
123,-0.161053,0.984702,-0.0664309999999999,-0.00191,0.017053,-0.000113
124,-0.160896,0.984652,-0.067547,0.001609,0.001295,0.010738
125,-0.160706,0.984622,-0.0684309999999999,0.001419,0.001324,0.011622
126,-0.160573,0.984596,-0.069112,-0.000957,0.007378,0.00295
127,-0.160459,0.984569,-0.069755,-0.001299,0.006046,-0.006631
128,-0.160375,0.984521,-0.070628,0.000875,0.007117,-0.006445
129,-0.160275,0.984464,-0.071647,-0.000721,0.007541,-0.0038079999999999
130,-0.160106,0.984415,-0.072693,-0.003941,0.003134,0.013336
131,-0.15984,0.984386,-0.073655,-0.004375,0.003574,0.01439
132,-0.159697,0.984372,-0.074162,-0.005586,0.00629,0.015995
133,-0.159727,0.984367,-0.074158,-0.007143,-2.2e-05,0.010529
134,-0.159909,0.984363,-0.073819,-0.005374,-0.0052369999999999,0.007519
135,-0.160168,0.984357,-0.073333,-0.008182,0.001941,0.0055229999999999
136,-0.160541,0.984341,-0.072727,-0.010449,0.010577,0.0037579999999999
137,-0.160984,0.984312,-0.072146,-0.006924,0.013933,0.006701
138,-0.1613619999999999,0.984279,-0.071751,-0.00299,0.009206,0.014409
139,-0.161552,0.984259,-0.071596,-0.003335,0.008462,0.014696
140,-0.161577,0.984249,-0.071683,-0.007384,0.013355,0.004132
141,-0.161551,0.984228,-0.072021,-0.006234,0.011469,0.002578
142,-0.1614519999999999,0.984203,-0.072588,-0.008699,0.008808,0.006151
143,-0.1613609999999999,0.984175,-0.0731639999999999,-0.006195,-0.001433,0.017485
144,-0.161347,0.984156,-0.073461,-0.009094,0.004004,0.021749
145,-0.161414,0.984149,-0.073405,-0.008844,0.006162,0.01945
146,-0.161489,0.984157,-0.073133,-0.006754,0.004674,0.017011
147,-0.161473,0.984176,-0.072907,-0.007305,0.008789,0.010086
148,-0.161375,0.984189,-0.072952,-0.008822,0.007678,0.009689
149,-0.161301,0.984194,-0.073043,-0.009369,0.004026,0.0160669999999999
150,-0.161241,0.984197,-0.073136,-0.00743,0.002329,0.022233
151,-0.161214,0.984209,-0.073035,-0.0106909999999999,0.001127,0.024436
152,-0.1612579999999999,0.984229,-0.072662,-0.00903,0.011819,0.015899
153,-0.161384,0.984246,-0.072153,-0.005898,0.011741,0.012659
154,-0.161469,0.984256,-0.071836,-0.006332,0.009015,0.009947
155,-0.161435,0.98426,-0.071849,-0.004489,0.005303,0.01208
156,-0.161329,0.98426,-0.072086,-0.003268,0.004372,0.013904
157,-0.161249,0.98426,-0.072262,-0.0003109999999999,0.010643,0.015453
158,-0.161179,0.984274,-0.072229,0.001145,0.012659,0.0158169999999999
159,-0.161065,0.984296,-0.07219,-0.001594,0.013537,0.012436
160,-0.160865,0.984318,-0.072337,-0.00457,0.007763,0.008311
161,-0.160608,0.984331,-0.072719,-0.002264,0.0045299999999999,0.011455
162,-0.160359,0.984342,-0.073127,-0.004542,0.003314,0.017234
163,-0.160123,0.984363,-0.07336,-0.00452,0.004666,0.019344
164,-0.159899,0.984391,-0.07347,-0.006009,0.006408,0.016921
165,-0.159668,0.984429,-0.073469,-0.008087,0.0086129999999999,0.014128
166,-0.159497,0.98446,-0.073425,-0.003757,0.004478,0.012894
167,-0.1592869999999999,0.984483,-0.073573,-0.00209,0.003295,0.01153
168,-0.159064,0.984509,-0.073712,-0.002466,0.007877,0.012143
169,-0.15886,0.984542,-0.07371,-0.005279,0.005113,0.018885
170,-0.158711,0.984574,-0.073591,-0.004665,0.002745,0.01898
171,-0.158593,0.984611,-0.073359,-0.005927,0.004677,0.017908
172,-0.158549,0.984644,-0.07301,-0.005315,0.006781,0.011791
173,-0.158515,0.984665,-0.072805,-0.006997,0.00824,0.013113
174,-0.158439,0.984687,-0.072671,-0.004235,0.008157,0.011743
175,-0.158385,0.984712,-0.072449,-0.004808,0.004561,0.016464
176,-0.158333,0.984738,-0.072202,-0.005592,0.002124,0.01492
177,-0.158364,0.984766,-0.071762,-0.003944,0.003164,0.016053
178,-0.158464,0.984798,-0.071099,-0.003783,0.003285,0.017769
179,-0.158623,0.984828,-0.070316,-0.003395,0.003819,0.020588
180,-0.15888,0.984861,-0.069279,-0.00413,0.003527,0.020298
181,-0.159202,0.984896,-0.068027,-0.008645,0.008161,0.021137
182,-0.1595369999999999,0.984933,-0.066696,-0.008859,0.015937,0.021713
183,-0.159796,0.984967,-0.065559,-0.0046479999999999,0.014117,0.010078
184,-0.159866,0.984998,-0.06492,-0.003815,0.022387,0.00303
185,-0.159821,0.985008,-0.06489,-0.005371,0.027138,-0.000494
186,-0.159723,0.984986,-0.065459,-0.003363,0.0137169999999999,0.009779
187,-0.15947,0.984952,-0.066566,0.000825,0.0049,0.016075
188,-0.159088,0.98493,-0.067803,-0.001007,0.003351,0.017098
189,-0.158686,0.984924,-0.0688179999999999,-9.7e-05,0.001953,0.0151069999999999
190,-0.158331,0.984936,-0.069469,0.002828,0.001697,0.015194
191,-0.1580079999999999,0.984963,-0.069814,0.005893,0.003013,0.011709
192,-0.1577579999999999,0.985001,-0.0698429999999999,0.000104,0.008254,0.005039
193,-0.157585,0.985032,-0.069793,-0.00193,0.007353,0.0061329999999999
194,-0.157499,0.985053,-0.069691,7.4e-05,0.0085379999999999,0.0098459999999999
195,-0.157441,0.985061,-0.0697179999999999,0.003114,0.008668,0.005937
196,-0.157377,0.98506,-0.06987,-0.000185,0.010209,0.009536
197,-0.157294,0.985055,-0.070134,-0.001016,0.007087,0.012258
198,-0.157197,0.985049,-0.070436,-0.003127,0.004423,0.007981
199,-0.157078,0.98505,-0.070681,-0.00114,0.006084,0.007098
200,-0.156968,0.985057,-0.070826,-0.0016469999999999,0.00536,0.005259
201,-0.156891,0.985068,-0.070849,-0.001831,0.004647,0.003039
202,-0.156876,0.985071,-0.070839,-0.0065299999999999,0.005545,0.008064
203,-0.156903,0.985067,-0.070836,-0.003315,0.001428,0.00948
204,-0.156931,0.985064,-0.070815,-0.003088,0.004956,0.0097489999999999
205,-0.156895,0.985075,-0.070748,-0.004665,0.008944,0.007698
206,-0.156829,0.985089,-0.070696,-0.000398,0.0063659999999999,0.006365
207,-0.156846,0.985088,-0.0706659999999999,-0.001235,0.006367,0.00899
208,-0.15695,0.985079,-0.070569,-0.004061,0.003584,0.006451
209,-0.157078,0.985075,-0.0703299999999999,-0.001354,0.005693,0.007585
210,-0.157189,0.98508,-0.070021,-0.001975,0.006742,0.008116
211,-0.157301,0.985085,-0.069685,-0.002352,0.008765,0.010572
212,-0.157405,0.98509,-0.069383,-0.002858,0.010882,0.010164
213,-0.157498,0.985091,-0.069157,-0.002826,0.0151379999999999,0.006321
214,-0.157604,0.985084,-0.069013,-0.0016829999999999,0.017342,0.001859
215,-0.15773,0.985064,-0.0690139999999999,-0.000595,0.011686,0.001372
216,-0.157881,0.985024,-0.069235,0.000151,0.0060799999999999,0.0067959999999999
217,-0.1580119999999999,0.984972,-0.069677,-0.002785,0.004393,0.009908
218,-0.158108,0.984929,-0.07006,-0.0010869999999999,0.006175,0.011283
219,-0.158201,0.984898,-0.070282,-0.001925,0.007411,0.013916
220,-0.158291,0.984882,-0.070309,-0.00211,0.01112,0.006756
221,-0.158447,0.984857,-0.070313,-0.002274,0.011618,0.0065
222,-0.15866,0.984816,-0.070403,-0.001099,0.013353,0.007414
223,-0.158863,0.984763,-0.0706909999999999,-0.003353,0.00451,0.008145
224,-0.158964,0.984705,-0.071257,-0.003069,0.001638,0.011733
225,-0.1589539999999999,0.984668,-0.071793,-0.002545,0.001446,0.014008
226,-0.158883,0.984661,-0.072045,-0.011756,0.0065489999999999,0.020806
227,-0.158773,0.984675,-0.072101,-0.011561,0.00472,0.020724
228,-0.158651,0.9847,-0.07203,-0.011362,0.004619,0.018136
229,-0.1585859999999999,0.984722,-0.071866,-0.010878,0.002521,0.022595
230,-0.158579,0.984731,-0.071767,-0.0104269999999999,0.001368,0.0208639999999999
231,-0.158626,0.984739,-0.071559,-0.008534,0.003695,0.0209
232,-0.158729,0.984757,-0.071073,-0.0021899999999999,0.0035399999999999,0.01785
233,-0.158796,0.984788,-0.070494,-0.003283,0.0041649999999999,0.016738
234,-0.158864,0.984823,-0.069846,-0.0012,0.006678,0.0140759999999999
235,-0.158907,0.984859,-0.069247,-0.0001199999999999,0.011983,0.008426
236,-0.158871,0.984899,-0.06876,-0.000508,0.01443,0.006397
237,-0.1587869999999999,0.984933,-0.068455,-0.0031079999999999,0.010443,0.0064129999999999
238,-0.158687,0.98495,-0.068444,-0.009007,0.009663,0.007165
239,-0.158671,0.984941,-0.068622,-0.011129,0.00775,0.005893
240,-0.158762,0.984909,-0.06887,-0.008032,0.013169,0.015144
241,-0.158839,0.984879,-0.069124,-0.011251,0.006821,0.020662
242,-0.158842,0.984854,-0.069461,-0.011003,0.006814,0.020724
243,-0.158888,0.984828,-0.069733,-0.010744,0.001241,0.016861
244,-0.158939,0.984816,-0.069785,-0.00758,0.004121,0.0172189999999999
245,-0.158979,0.984821,-0.069616,-0.009569,0.004757,0.019536
246,-0.1590099999999999,0.984837,-0.069334,-0.0041979999999999,0.0117,0.010466
247,-0.159031,0.984853,-0.06906,-0.002514,0.011256,0.0079329999999999
248,-0.159013,0.984868,-0.068874,0.000963,0.008189,0.00935
249,-0.1589549999999999,0.984876,-0.068893,0.005086,0.0070519999999999,0.007369
250,-0.158857,0.984879,-0.069088,0.002912,0.01123,0.006099
251,-0.158779,0.984873,-0.069347,0.000881,0.0088709999999999,0.009654
252,-0.158722,0.984868,-0.069544,-0.000686,0.0069989999999999,0.013285
253,-0.158575,0.984879,-0.069726,-0.0039619999999999,0.007034,0.0155719999999999
254,-0.158334,0.984904,-0.0699149999999999,-0.00701,0.0072069999999999,0.012603
255,-0.158093,0.984925,-0.0701649999999999,-0.006672,0.0048509999999999,0.014837
256,-0.15785,0.984943,-0.070464,-0.005282,0.006024,0.014785
257,-0.157641,0.984955,-0.07076,-0.008009,0.002441,0.017537
258,-0.157446,0.984971,-0.070969,-0.006372,0.002532,0.016388
259,-0.157275,0.984994,-0.071032,-0.003263,0.010535,0.018542
260,-0.157157,0.985016,-0.070988,-0.003777,0.010605,0.0183
261,-0.1571,0.985037,-0.070824,-0.0024,0.002405,0.014397
262,-0.157018,0.98506,-0.0706919999999999,-0.00471,0.007967,0.012022
263,-0.156879,0.985088,-0.0706059999999999,-0.006069,0.011631,0.009648
264,-0.156712,0.985121,-0.070525,-0.004573,0.009188,0.012176
265,-0.1564819999999999,0.985155,-0.0705549999999999,-0.006818,0.00659,0.015043
266,-0.156199,0.98519,-0.070688,-0.007208,0.007409,0.014872
267,-0.155899,0.985227,-0.0708429999999999,-0.009659,0.003253,0.018505
268,-0.15561,0.985265,-0.0709409999999999,-0.009887,0.003428,0.017947
269,-0.1554589999999999,0.985293,-0.0708879999999999,-0.008512,0.005643,0.019161
270,-0.155438,0.985312,-0.070663,-0.00806,0.011346,0.018233
271,-0.155495,0.985334,-0.070233,-0.006431,0.011523,0.016553
272,-0.1555099999999999,0.985364,-0.06977,-0.007286,0.0117819999999999,0.017143
273,-0.155462,0.9854,-0.069369,-0.008402,0.012189,0.0135979999999999
274,-0.155318,0.985446,-0.06904,-0.0082569999999999,0.0099,0.012476
275,-0.155054,0.985492,-0.06898,-0.010824,0.01344,0.01298
276,-0.1547339999999999,0.985529,-0.0691789999999999,-0.011847,0.0139979999999999,0.0146139999999999
277,-0.154425,0.985555,-0.069489,-0.007104,0.007639,0.011307
278,-0.154101,0.985576,-0.069911,-0.008924,0.006917,0.011974
279,-0.153765,0.985597,-0.070357,-0.011152,0.00775,0.012938
280,-0.153455,0.985618,-0.070734,-0.001285,0.008919,0.009668
281,-0.153071,0.985644,-0.0712059999999999,-0.001776,0.0096709999999999,0.009637
282,-0.152688,0.985668,-0.071694,0.0004969999999999,0.011769,0.008004
283,-0.152371,0.98569,-0.072064,-0.001666,0.0074129999999999,0.0133479999999999
284,-0.152033,0.985723,-0.072336,0.001001,0.010829,0.013986
285,-0.151757,0.985749,-0.07255,0.001,0.008315,0.0132699999999999
286,-0.151447,0.985782,-0.072759,-0.004497,0.0108,0.012319
287,-0.151095,0.985805,-0.073175,-0.002607,0.0077709999999999,0.010675
288,-0.150692,0.985831,-0.073657,-0.0059549999999999,0.004861,0.011706
289,-0.150358,0.985841,-0.074198,-0.004411,0.004103,0.0157409999999999
290,-0.1501839999999999,0.985822,-0.074805,-0.005761,0.0016809999999999,0.016943
291,-0.150073,0.985793,-0.075408,-0.006207,0.007554,0.009734
292,-0.15004,0.985759,-0.075905,-0.004104,0.005802,0.006386
293,-0.150122,0.985716,-0.076312,-0.000101,0.005144,0.009753
294,-0.150249,0.985674,-0.076608,0.004238,0.008131,0.01658
295,-0.150332,0.985639,-0.076889,6.3e-05,0.007479,0.019806
296,-0.1502359999999999,0.98563,-0.077187,-0.003389,0.012203,0.021417
297,-0.150023,0.985643,-0.077446,-0.003786,0.012465,0.014808
298,-0.149794,0.985652,-0.077773,0.000883,0.003148,0.015182
299,-0.149616,0.98565,-0.078141,-0.000195,0.002966,0.012604
300,-0.14945,0.985645,-0.078536,0.0004019999999999,0.005231,0.010634
301,-0.149392,0.985623,-0.078919,0.0028469999999999,0.005176,0.009842
302,-0.149463,0.985592,-0.07917,0.005542,0.008732,0.004372
303,-0.149504,0.985575,-0.07931,0.0075209999999999,0.01,0.002711
304,-0.149431,0.985572,-0.079488,0.008073,0.010354,0.005895
305,-0.149279,0.985565,-0.079859,0.0089129999999999,0.005737,0.008906
306,-0.149096,0.98555,-0.080386,-0.001173,0.00911,0.0117819999999999
307,-0.148898,0.985538,-0.080894,-0.005704,0.008236,0.009849
308,-0.148702,0.985542,-0.081215,-0.006937,0.0048909999999999,0.007454
309,-0.148463,0.985562,-0.081398,-0.004811,0.003833,0.006218
310,-0.14832,0.985571,-0.081548,-0.003505,0.004236,0.005742
311,-0.148347,0.985561,-0.081617,-0.004729,0.00504,0.0026379999999999
312,-0.148549,0.985537,-0.081539,-0.004176,0.011564,0.005138
313,-0.148856,0.985505,-0.081374,-0.0034729999999999,0.006301,0.002685
314,-0.149164,0.985474,-0.081184,-0.004217,0.003417,0.003059
315,-0.14941,0.985453,-0.080984,-0.000645,0.002813,-1e-05
316,-0.149554,0.985447,-0.080786,-0.003018,0.017162,0.004721
317,-0.149621,0.985449,-0.080635,-0.002951,0.0171599999999999,0.00457
318,-0.149726,0.985439,-0.080563,-0.0085989999999999,0.009679,0.009595
319,-0.149798,0.985436,-0.0804629999999999,-0.013868,0.005271,0.005085
320,-0.149846,0.985432,-0.080425,-0.0138199999999999,0.005275,0.005047
321,-0.149866,0.985423,-0.080508,-0.012472,0.0138139999999999,0.005312
322,-0.149915,0.98539,-0.080822,-0.004535,0.014488,0.003276
323,-0.149922,0.985338,-0.081426,-0.004954,0.010389,0.007848
324,-0.149845,0.985282,-0.082243,-0.0087549999999999,0.000344,0.012587
325,-0.1497,0.98524,-0.083005,-0.008045,0.003225,0.016706
326,-0.149567,0.985225,-0.083421,-0.007186,0.006581,0.014055
327,-0.149525,0.985232,-0.083415,-0.003551,0.008268,0.01179
328,-0.149538,0.98525,-0.083174,-0.00511,0.005182,0.010634
329,-0.149541,0.985272,-0.082909,-0.007167,0.002841,0.011772
330,-0.149546,0.985284,-0.082767,-0.008596,0.0064,0.009266
331,-0.14957,0.985283,-0.082731,-0.005474,0.011085,0.009031
332,-0.149663,0.985262,-0.082814,-0.004832,0.012693,0.010686
333,-0.149753,0.98524,-0.0829179999999999,0.000629,0.010671,0.010881
334,-0.149789,0.985229,-0.082978,0.000405,0.010376,0.009018
335,-0.149756,0.98523,-0.0830289999999999,-0.000863,0.003936,0.009298
336,-0.1496579999999999,0.985243,-0.0830549999999999,-0.001603,0.0107739999999999,0.0123159999999999
337,-0.149528,0.985262,-0.083066,0.001731,0.006895,0.013151
338,-0.149421,0.985283,-0.083011,0.002128,0.003121,0.007693
339,-0.149349,0.985307,-0.082848,-0.003163,0.011839,0.011575
340,-0.14934,0.985318,-0.082734,-0.001524,0.0118129999999999,0.012192
341,-0.14943,0.985312,-0.082636,0.000901,0.007363,0.011362
342,-0.14956,0.9853,-0.08255,-0.001365,0.006537,0.0137939999999999
343,-0.149751,0.985286,-0.082365,-0.001585,0.004627,0.014143
344,-0.149968,0.985277,-0.082086,-0.003688,0.0075819999999999,0.011041
345,-0.1502349999999999,0.985268,-0.081708,0.000226,0.008385,0.0097019999999999
346,-0.150563,0.985253,-0.081277,0.0001419999999999,0.007148,0.010034
347,-0.150916,0.985233,-0.080872,0.000998,0.009961,0.0099189999999999
348,-0.151256,0.985208,-0.0805309999999999,0.0004379999999999,0.010534,0.010249
349,-0.151571,0.985183,-0.080245,0.002951,0.011643,0.008514
350,-0.151868,0.985155,-0.080034,0.001721,0.011519,0.011979
351,-0.15214,0.985125,-0.079882,0.001734,0.011167,0.010912
352,-0.152361,0.985101,-0.079759,9.3e-05,0.012763,0.011873
353,-0.152564,0.985075,-0.079688,-0.001992,0.008196,0.007499
354,-0.152758,0.98504,-0.0797529999999999,0.0002009999999999,0.003043,0.008754
355,-0.1529,0.985004,-0.079932,0.000327,0.004086,0.008643
356,-0.1530099999999999,0.984977,-0.080046,-0.002385,0.009881,0.010192
357,-0.1531269999999999,0.984959,-0.080046,-0.001963,0.006511,0.013304
358,-0.153221,0.984956,-0.079909,-0.001168,0.007598,0.014159
359,-0.153322,0.984954,-0.0797409999999999,-0.001066,0.0076,0.013991
360,-0.153451,0.984953,-0.0795049999999999,-0.002326,0.012545,0.0076359999999999
361,-0.1535359999999999,0.984951,-0.079358,-0.0029579999999999,0.007954,0.00964
362,-0.153588,0.984935,-0.079456,-0.002006,0.007619,0.010105
363,-0.15362,0.984916,-0.079636,-0.005392,0.008401,0.013474
364,-0.1536529999999999,0.984899,-0.079778,-0.004565,0.00381,0.011998
365,-0.153659,0.984898,-0.079771,-0.005566,0.005382,0.0142189999999999
366,-0.153644,0.984914,-0.079613,-0.0071379999999999,0.006633,0.012673
367,-0.153612,0.984935,-0.079415,-0.0066349999999999,0.008733,0.008843
368,-0.153565,0.984953,-0.079275,-0.001419,0.008669,0.010198
369,-0.153505,0.984965,-0.079244,-0.003584,0.011129,0.0085799999999999
370,-0.153473,0.984966,-0.079291,-0.008713,0.00893,0.0120299999999999
371,-0.1534829999999999,0.984958,-0.079374,-0.007436,0.007214,0.015287
372,-0.1535099999999999,0.984952,-0.079398,-0.007836,0.006229,0.013449
373,-0.153563,0.98495,-0.079318,-0.007997,0.005101,0.010242
374,-0.153598,0.984958,-0.079146,-0.0064519999999999,0.00819,0.006651
375,-0.153634,0.984964,-0.079009,-0.004127,0.009589,0.007125
376,-0.153711,0.984959,-0.078921,-0.00463,0.006099,0.009509
377,-0.153844,0.984945,-0.078843,-0.003993,0.006648,0.012787
378,-0.154003,0.984933,-0.078677,-0.002232,0.010733,0.0147889999999999
379,-0.154164,0.984928,-0.078422,-0.005122,0.010586,0.010856
380,-0.154291,0.984927,-0.078192,-0.004874,0.0101599999999999,0.006872
381,-0.154399,0.98492,-0.078057,-0.003071,0.008106,0.008217
382,-0.1545119999999999,0.9849,-0.078095,-0.004927,0.011332,0.011109
383,-0.154662,0.984865,-0.078239,-0.0033729999999999,0.0104359999999999,0.009818
384,-0.154816,0.984827,-0.078408,-0.000473,0.005911,0.010888
385,-0.154952,0.984795,-0.078539,-0.000886,0.0055,0.0070209999999999
386,-0.155041,0.984773,-0.078644,-0.00243,0.01126,0.0073709999999999
387,-0.155089,0.984756,-0.078762,-0.002626,0.009202,0.007183
388,-0.155159,0.984733,-0.07891,-0.003975,0.006875,0.010459
389,-0.15524,0.984702,-0.0791309999999999,-0.00339,0.00248,0.014724
390,-0.1552869999999999,0.984673,-0.0794059999999999,-0.003954,0.0072549999999999,0.014938
391,-0.1552859999999999,0.984657,-0.079601,-0.003512,0.011131,0.011364
392,-0.1552599999999999,0.984658,-0.0796419999999999,-0.0034159999999999,0.00872,0.012534
393,-0.155265,0.984658,-0.079631,-0.002221,0.0086579999999999,0.010844
394,-0.155263,0.984656,-0.0796679999999999,-0.002559,0.0077459999999999,0.010316
395,-0.155269,0.984645,-0.079784,-0.00295,0.0069319999999999,0.007183
396,-0.155276,0.984628,-0.079985,-0.0010199999999999,0.008246,0.009017
397,-0.155225,0.984615,-0.080243,0.0001199999999999,0.007237,0.0087099999999999
398,-0.155167,0.984609,-0.080429,-0.001373,0.006587,0.01326
399,-0.155169,0.984603,-0.080497,-0.003293,0.004518,0.013877
400,-0.155217,0.984601,-0.080428,-0.001766,0.005359,0.010894
401,-0.155317,0.9846,-0.080249,-0.002901,0.010685,0.010119
402,-0.155394,0.984601,-0.080078,-0.003053,0.012087,0.009644
403,-0.155464,0.984597,-0.079999,-0.002296,0.010398,0.012311
404,-0.155546,0.984579,-0.080057,-0.0018329999999999,0.0075629999999999,0.014368
405,-0.155654,0.98456,-0.080087,-0.002885,0.003477,0.010964
406,-0.155743,0.984548,-0.080054,-0.003117,0.005121,0.008139
407,-0.1557859999999999,0.984548,-0.079972,0.0011539999999999,0.006983,0.00818
408,-0.155833,0.984555,-0.079801,0.000956,0.0080299999999999,0.007001
409,-0.155896,0.984561,-0.079605,-0.001667,0.0075049999999999,0.0088799999999999
410,-0.155977,0.984563,-0.079417,-0.001952,0.011012,0.009119
411,-0.156076,0.984561,-0.079252,-0.0005099999999999,0.010206,0.01045
412,-0.1561519999999999,0.984557,-0.079146,-0.001029,0.0088209999999999,0.008391
413,-0.156242,0.984548,-0.07908,-0.002342,0.010508,0.007684
414,-0.156318,0.984534,-0.079099,-0.0015949999999999,0.008721,0.007764
415,-0.156393,0.984517,-0.079166,-0.002665,0.0066019999999999,0.010806
416,-0.156464,0.984501,-0.079218,-0.0026089999999999,0.0071819999999999,0.010477
417,-0.156532,0.984495,-0.079158,-0.0019149999999999,0.00609,0.011958
418,-0.156614,0.984495,-0.0790039999999999,-0.000781,0.009127,0.007807
419,-0.15674,0.984488,-0.078842,-0.0017079999999999,0.008448,0.010361
420,-0.156912,0.984471,-0.078704,-0.002405,0.009196,0.009719
421,-0.15711,0.984454,-0.078534,-0.0039619999999999,0.008787,0.009748
422,-0.1573099999999999,0.984438,-0.078331,-0.001702,0.008223,0.007011
423,-0.157492,0.984426,-0.078111,-0.000147,0.00915,0.007219
424,-0.157628,0.984415,-0.077982,0.000295,0.006186,0.010218
425,-0.157767,0.984398,-0.077913,-0.001382,0.010246,0.009233
426,-0.1579279999999999,0.984372,-0.077911,-0.0022429999999999,0.009326,0.010223
427,-0.158121,0.984345,-0.077859,-0.004141,0.007308,0.013772
428,-0.158319,0.984323,-0.077731,-0.005591,0.010244,0.010669
429,-0.158485,0.984304,-0.077641,-0.002358,0.0073799999999999,0.011479
430,-0.158635,0.984283,-0.077592,-0.0030629999999999,0.0077209999999999,0.010011
431,-0.158763,0.98426,-0.077624,-0.0026899999999999,0.006249,0.011371
432,-0.158915,0.984237,-0.077609,-0.000768,0.005784,0.0129729999999999
433,-0.159058,0.984218,-0.077549,0.000199,0.0033759999999999,0.008229
434,-0.159214,0.984205,-0.077392,-0.000591,0.006731,0.008087
435,-0.15933,0.984205,-0.077159,-0.002367,0.010836,0.007411
436,-0.159414,0.984202,-0.077029,-0.001261,0.008001,0.010165
437,-0.159502,0.984186,-0.077044,-0.0050799999999999,0.01174,0.01224
438,-0.159581,0.984166,-0.077144,-0.008937,0.009517,0.017345
439,-0.159648,0.984141,-0.0773269999999999,-0.009633,0.007391,0.0161849999999999
440,-0.159694,0.984114,-0.077568,-0.008564,0.006334,0.015175
441,-0.1597,0.984096,-0.07778,-0.006025,0.004383,0.012473
442,-0.159679,0.984087,-0.077948,-0.0023079999999999,0.002989,0.011008
443,-0.15968,0.984083,-0.077999,-0.002811,0.007098,0.009091
444,-0.159728,0.98408,-0.077932,-9.2e-05,0.0084739999999999,0.007955
445,-0.1598,0.984083,-0.077746,-0.003545,0.007204,0.009982
446,-0.1598109999999999,0.984095,-0.077572,-0.00416,0.008047,0.012204
447,-0.159738,0.984109,-0.077536,-0.004783,0.007605,0.010978
448,-0.159635,0.984117,-0.07766,-0.003421,0.0083,0.007668
449,-0.159553,0.984115,-0.0778539999999999,-0.0033799999999999,0.010041,0.012134
450,-0.159498,0.984112,-0.0780039999999999,-0.004992,0.007755,0.011429
451,-0.159495,0.984102,-0.0781309999999999,-0.005529,0.0082989999999999,0.013983
452,-0.1595089999999999,0.984094,-0.078197,-0.003012,0.0072689999999999,0.01086
453,-0.1595089999999999,0.984097,-0.078158,-0.00495,0.008884,0.010424
454,-0.159485,0.984106,-0.078101,-0.0005639999999999,0.006861,0.00788
455,-0.159469,0.984109,-0.078088,-4.6e-05,0.006827,0.007837
456,-0.159449,0.98411,-0.078121,-0.00083,0.00997,0.009899
457,-0.159434,0.984111,-0.078136,0.0004379999999999,0.010563,0.006572
458,-0.159394,0.984116,-0.078153,0.000169,0.010818,0.007764
459,-0.159293,0.984128,-0.078217,-0.002679,0.0094939999999999,0.008987
460,-0.159153,0.984141,-0.078329,-0.004543,0.00884,0.008215
461,-0.158989,0.984152,-0.078533,-0.005745,0.007166,0.013347
462,-0.158808,0.984161,-0.078784,-0.005194,0.004441,0.012424
463,-0.158629,0.98417,-0.0790299999999999,-0.005097,0.006584,0.00977
464,-0.15846,0.984183,-0.079201,-0.0013599999999999,0.008813,0.006218
465,-0.158335,0.984196,-0.079297,-0.004095,0.007427,0.006741
466,-0.1581509999999999,0.984219,-0.079377,-0.002616,0.008152,0.0103
467,-0.15795,0.984241,-0.079506,-0.004251,0.008191,0.011452
468,-0.157745,0.984265,-0.07961,-0.003571,0.008304,0.014532
469,-0.1575609999999999,0.98429,-0.079666,-0.002992,0.007898,0.01181
470,-0.157385,0.984319,-0.0796549999999999,-0.002389,0.004908,0.009098
471,-0.1572329999999999,0.98435,-0.079565,-0.003915,0.004053,0.008749
472,-0.157089,0.984387,-0.079402,-0.0036009999999999,0.008076,0.011317
473,-0.156949,0.984428,-0.07916,-0.0009339999999999,0.008018,0.009839
474,-0.156824,0.984473,-0.078856,-0.000723,0.0078219999999999,0.010863
475,-0.156695,0.984517,-0.078564,0.000277,0.012615,0.0106769999999999
476,-0.156516,0.984558,-0.078398,0.001106,0.013519,0.0141889999999999
477,-0.156361,0.984583,-0.0784049999999999,-0.000957,0.010199,0.014806
478,-0.156254,0.984593,-0.078484,-0.004574,0.010814,0.012627
479,-0.156196,0.984604,-0.07847,-0.004144,0.007339,0.013285
480,-0.156172,0.984615,-0.078382,-0.001009,0.007298,0.007398
481,-0.156181,0.98462,-0.078296,0.0012439999999999,0.00859,0.006274
482,-0.156187,0.984622,-0.078261,-0.0011769999999999,0.005994,0.007857
483,-0.156202,0.984613,-0.07835,-0.000109,0.005942,0.01028
484,-0.1561799999999999,0.984602,-0.078528,0.000403,0.009325,0.0094209999999999
485,-0.156103,0.984602,-0.078683,0.001181,0.006731,0.009179
486,-0.155978,0.984617,-0.078745,0.000323,0.007388,0.007914
487,-0.155847,0.984636,-0.078761,0.0001,0.007856,0.007319
488,-0.155717,0.984655,-0.0787799999999999,-0.002212,0.010294,0.00949
489,-0.155609,0.984668,-0.078837,-0.0019379999999999,0.009152,0.008265
490,-0.155546,0.984671,-0.0789179999999999,-0.0003689999999999,0.0063869999999999,0.008804
491,-0.1555,0.984676,-0.078949,-0.001635,0.010289,0.008072
492,-0.1554839999999999,0.984677,-0.078974,-0.001147,0.009525,0.007898
493,-0.155447,0.984681,-0.078987,-0.0011539999999999,0.008651,0.006768
494,-0.155381,0.984683,-0.079097,-0.001952,0.008482,0.007717
495,-0.155281,0.984684,-0.079273,-0.00373,0.009319,0.0079379999999999
496,-0.155178,0.984684,-0.079469,-0.004337,0.007595,0.009691
497,-0.15511,0.984681,-0.079639,-0.004542,0.006865,0.0135229999999999
498,-0.155029,0.984681,-0.079795,-0.0047,0.006591,0.010993
499,-0.15494,0.984685,-0.079929,-0.003385,0.008418,0.008838
500,-0.154844,0.984689,-0.0800559999999999,-0.005053,0.007025,0.0089959999999999
501,-0.154756,0.984694,-0.080174,-0.002928,0.008928,0.005574
502,-0.154656,0.984699,-0.080301,-0.0041119999999999,0.007962,0.010187
503,-0.15454,0.984703,-0.080478,-0.005051,0.007058,0.010685
504,-0.15445,0.984702,-0.0806559999999999,-0.005279,0.005364,0.009748
505,-0.154413,0.984698,-0.080777,-0.005637,0.007459,0.012143
506,-0.1543759999999999,0.984699,-0.080835,-0.0062229999999999,0.005993,0.012674
507,-0.154343,0.984702,-0.080866,-0.0060869999999999,0.006677,0.013926
508,-0.154321,0.984703,-0.080888,-0.007208,0.007301,0.010408
509,-0.154254,0.98471,-0.080938,-0.006116,0.00763,0.010443
510,-0.1541809999999999,0.984712,-0.081046,-0.006768,0.006651,0.009085
511,-0.154167,0.984708,-0.081125,-0.0038979999999999,0.0088069999999999,0.01095
512,-0.154171,0.984701,-0.081203,-0.004719,0.006983,0.008403
513,-0.154158,0.984699,-0.0812539999999999,-0.005434,0.010373,0.0134139999999999
514,-0.154125,0.984694,-0.081374,0.0006219999999999,0.006624,0.008452
515,-0.154088,0.984692,-0.081479,-0.004161,0.005695,0.00932
516,-0.154059,0.984689,-0.081567,-0.004953,0.006431,0.0073019999999999
517,-0.154028,0.984693,-0.081581,-0.004465,0.007831,0.009026
518,-0.1539849999999999,0.984701,-0.081567,-0.000556,0.010951,0.00541
519,-0.153951,0.984708,-0.081546,0.000646,0.007266,0.008213
520,-0.153918,0.984712,-0.08155,0.001727,0.008131,0.00698
521,-0.153849,0.984719,-0.081605,7.099999999999999e-05,0.010338,0.008302
522,-0.153745,0.984733,-0.081635,-0.001163,0.007348,0.0106819999999999
523,-0.153625,0.984751,-0.081638,-0.002015,0.007131,0.012516
524,-0.153539,0.984767,-0.081608,-0.00181,0.005422,0.009541
525,-0.153506,0.984782,-0.081492,-0.0018739999999999,0.0072989999999999,0.0115769999999999
526,-0.15349,0.984799,-0.081311,-0.00421,0.006656,0.009748
527,-0.153497,0.984817,-0.081079,-0.0022949999999999,0.006211,0.011132
528,-0.153493,0.984842,-0.080789,-0.001948,0.006827,0.006296
529,-0.15352,0.984862,-0.080485,0.001741,0.007402,0.007304
530,-0.153554,0.984879,-0.0802129999999999,0.001317,0.010863,0.004164
531,-0.153574,0.984892,-0.080014,-0.0004639999999999,0.013109,0.005139
532,-0.153568,0.984902,-0.079896,0.0010869999999999,0.007484,0.00879
533,-0.153555,0.984908,-0.07985,-0.0004509999999999,0.008088,0.006989
534,-0.153539,0.984915,-0.079794,-0.003092,0.009333,0.009177
535,-0.153548,0.98492,-0.079707,-0.004045,0.007939,0.009883
536,-0.153589,0.984918,-0.079662,-6.7e-05,0.006812,0.010006
537,-0.153635,0.984908,-0.079693,0.0008179999999999,0.007142,0.007122
538,-0.153713,0.984893,-0.079729,-0.000233,0.007829,0.006288
539,-0.153789,0.984881,-0.079726,-0.001133,0.004957,0.010589
540,-0.153876,0.984876,-0.079626,-0.000222,0.00722,0.01119
541,-0.153919,0.984885,-0.079428,-0.000576,0.008142,0.009955
542,-0.1539569999999999,0.9849,-0.079167,-0.002202,0.010019,0.009663
543,-0.153972,0.984916,-0.078937,-0.003926,0.006737,0.009907
544,-0.1539829999999999,0.984926,-0.078798,-0.004556,0.009032,0.008241
545,-0.153998,0.984928,-0.078739,-0.00448,0.008968,0.009373
546,-0.1540349999999999,0.984927,-0.078672,-0.004718,0.0059479999999999,0.011075
547,-0.154104,0.984927,-0.078543,-0.003947,0.007856,0.0099239999999999
548,-0.154177,0.984929,-0.07837,-0.00604,0.007487,0.009248
549,-0.154258,0.984934,-0.078145,-0.004586,0.007879,0.009496
550,-0.154371,0.984937,-0.077889,-0.0039229999999999,0.009143,0.010948
551,-0.154442,0.984943,-0.077673,-0.0086129999999999,0.0125239999999999,0.011481
552,-0.154477,0.984945,-0.07758,-0.006397,0.009806,0.0114489999999999
553,-0.154552,0.984933,-0.077586,-0.0042159999999999,0.006217,0.0090739999999999
554,-0.154674,0.984909,-0.07765,-0.0065349999999999,0.0069739999999999,0.007948
555,-0.15479,0.984886,-0.077704,-0.005809,0.007134,0.007819
556,-0.154915,0.984868,-0.077688,0.001366,0.004299,0.007666
557,-0.154998,0.984857,-0.077658,6e-05,0.004248,0.009665
558,-0.155028,0.984866,-0.077486,-0.0003819999999999,0.01074,0.006304
559,-0.15496,0.984896,-0.077236,-0.002617,0.007566,0.005581
560,-0.154883,0.984925,-0.077014,-0.001275,0.005279,0.006625
561,-0.1548109999999999,0.984941,-0.076955,-0.004278,0.011809,0.007619
562,-0.1547599999999999,0.984947,-0.076985,-0.004496,0.008522,0.007603
563,-0.1547599999999999,0.984937,-0.077107,-0.003718,0.004992,0.0075569999999999
564,-0.154754,0.98493,-0.0772149999999999,0.00035,0.0075629999999999,0.010503
565,-0.154738,0.984928,-0.077263,-0.0019089999999999,0.005275,0.009056
566,-0.1546789999999999,0.984942,-0.0772,-0.000518,0.006238,0.010275
567,-0.15462,0.984963,-0.077053,-0.0017829999999999,0.006187,0.009441
568,-0.154534,0.984991,-0.076864,-0.001426,0.0071049999999999,0.010579
569,-0.154453,0.985023,-0.076627,-0.004132,0.009454,0.008085
570,-0.154377,0.985056,-0.076352,-0.0037799999999999,0.006735,0.007611
571,-0.154304,0.985087,-0.076096,-0.003258,0.009939,0.0085
572,-0.154203,0.985119,-0.07589,-0.004793,0.008259,0.010613
573,-0.1541,0.985147,-0.075739,-0.006773,0.007804,0.007166
574,-0.154015,0.985162,-0.07571,-0.005622,0.00762,0.006114
575,-0.153976,0.985166,-0.075738,-0.002289,0.005465,0.0051049999999999
576,-0.1539839999999999,0.985164,-0.075759,-0.002541,0.005086,0.008544
577,-0.154005,0.985159,-0.075777,-0.000445,0.0050149999999999,0.0098599999999999
578,-0.154055,0.985156,-0.075706,-0.000669,0.008466,0.0105659999999999
579,-0.154122,0.985169,-0.075399,-0.004585,0.00743,0.011541
580,-0.154231,0.98519,-0.074907,-0.005742,0.009027,0.0082569999999999
581,-0.154342,0.985208,-0.074434,-0.005189,0.009253,0.008012
582,-0.154407,0.985223,-0.074096,-0.004635,0.0094209999999999,0.005157
583,-0.154427,0.985231,-0.0739539999999999,-0.003075,0.006453,0.009852
584,-0.154441,0.985226,-0.073988,-0.003899,0.007068,0.00984
585,-0.154464,0.985219,-0.07403,-0.000779,0.007213,0.012064
586,-0.154513,0.985212,-0.074029,-0.001829,0.00165,0.010568
587,-0.154571,0.985211,-0.073913,-0.0016179999999999,0.00455,0.010818
588,-0.154612,0.985224,-0.07365,-0.0054979999999999,0.011632,0.010387
589,-0.154656,0.985239,-0.073363,-0.00727,0.007895,0.010405
590,-0.15471,0.985245,-0.073163,-0.006377,0.007247,0.009488
591,-0.154727,0.985248,-0.073094,-0.007001,0.007794,0.010548
592,-0.154701,0.98525,-0.073112,-0.007317,0.011042,0.009987
593,-0.154689,0.985247,-0.073179,-0.002019,0.010419,0.009626
594,-0.154753,0.985231,-0.073264,-0.003725,0.011245,0.008109
595,-0.154892,0.985208,-0.073274,-0.003525,0.009696,0.014161
596,-0.155067,0.985183,-0.07324,-0.0021899999999999,0.003831,0.014372
597,-0.155212,0.98516,-0.073241,-0.0012519999999999,0.007195,0.0101
598,-0.155335,0.985145,-0.073181,0.000611,0.006173,0.009429
599,-0.155405,0.985143,-0.073056,-0.001517,0.007731,0.009839
600,-0.155444,0.985143,-0.072976,-0.000837,0.010554,0.011162
601,-0.155464,0.985147,-0.072886,-0.001594,0.009634,0.010813
602,-0.1555089999999999,0.985143,-0.0728429999999999,-0.000131,0.009257,0.008313
603,-0.155575,0.985124,-0.072964,-0.003071,0.009566,0.0117
604,-0.15564,0.985097,-0.073185,-0.0003819999999999,0.008067,0.009312
605,-0.155704,0.985074,-0.073361,0.000583,0.006762,0.011608
606,-0.155769,0.985057,-0.073445,-0.003288,0.00742,0.012258
607,-0.155789,0.985057,-0.073404,-0.004489,0.004033,0.008798
608,-0.155821,0.985061,-0.073286,-0.002809,0.008164,0.010099
609,-0.155862,0.985065,-0.07315,-0.00231,0.0065879999999999,0.011047
610,-0.155926,0.985065,-0.073022,-0.0026739999999999,0.010556,0.012079
611,-0.156004,0.985057,-0.072961,-0.003954,0.012365,0.008142
612,-0.156094,0.985042,-0.072963,-0.00249,0.010487,0.0065879999999999
613,-0.156163,0.985024,-0.073054,-0.001353,0.007011,0.008708
614,-0.156226,0.985003,-0.073209,-0.004724,0.004804,0.012678
615,-0.156269,0.984986,-0.073334,-0.002926,0.005843,0.012772
616,-0.15628,0.984982,-0.073372,-0.00528,0.00426,0.011574
617,-0.1563,0.984983,-0.073323,-0.006801,0.0066099999999999,0.008962
618,-0.156355,0.984983,-0.073201,-0.004869,0.008944,0.0075879999999999
619,-0.156413,0.984985,-0.073054,-0.0042159999999999,0.009904,0.005626
620,-0.156524,0.98497,-0.073009,-0.0029,0.007324,0.00877
621,-0.156617,0.984951,-0.0730649999999999,-0.00151,0.0069159999999999,0.008582
622,-0.156673,0.984938,-0.073122,-6.6e-05,0.006242,0.009264
623,-0.15672,0.984933,-0.0730929999999999,8.9e-05,0.006797,0.009037
624,-0.156746,0.984937,-0.072983,0.000252,0.009951,0.0073549999999999
625,-0.1567869999999999,0.98494,-0.072862,-0.002957,0.007706,0.007935
626,-0.156872,0.98493,-0.072814,-0.004444,0.0063729999999999,0.005431
627,-0.156944,0.984918,-0.072822,-0.000984,0.0065829999999999,0.006385
628,-0.1570339999999999,0.984906,-0.072788,-0.005808,0.007525,0.011691
629,-0.157145,0.984897,-0.072673,-0.005697,0.0075349999999999,0.0115769999999999
630,-0.1572839999999999,0.98489,-0.0724679999999999,-0.0008269999999999,0.0042,0.008808
631,-0.157437,0.984887,-0.072182,-0.002842,0.0120159999999999,0.010369
632,-0.157605,0.984884,-0.071849,-0.004428,0.009608,0.008922
633,-0.157765,0.984873,-0.071652,-0.0033369999999999,0.009558,0.0092129999999999
634,-0.157995,0.98484,-0.0716,-0.00033,0.006295,0.006353
635,-0.158241,0.984795,-0.071675,0.0018989999999999,0.006034,0.006138
636,-0.158419,0.984769,-0.071638,0.0009939999999999,0.0034969999999999,0.008284
637,-0.158579,0.984753,-0.071504,-0.000281,0.006458,0.009294
638,-0.158737,0.984741,-0.071319,0.0008849999999999,0.006195,0.007156
639,-0.158975,0.984724,-0.071031,0.001932,0.0056939999999999,0.009828
640,-0.159238,0.984704,-0.07071,-0.001055,0.00939,0.008393
641,-0.1595079999999999,0.984681,-0.070424,-0.001609,0.010512,0.005833
642,-0.1597869999999999,0.984652,-0.070199,0.000683,0.00955,0.006142
643,-0.160069,0.984616,-0.070058,0.002018,0.005664,0.007436
644,-0.160342,0.984578,-0.069971,0.004337,0.007289,0.006021
645,-0.160623,0.984541,-0.069852,0.002725,0.00989,0.010922
646,-0.160868,0.984515,-0.069654,0.003306,0.009611,0.00662
647,-0.161096,0.984487,-0.069511,-0.001074,0.005213,0.0090099999999999
648,-0.161316,0.984458,-0.069422,-0.005463,0.005594,0.011393
649,-0.161549,0.984424,-0.069348,-0.004879,0.0092129999999999,0.011655
650,-0.161764,0.984399,-0.0692049999999999,-0.008646,0.007422,0.013586
651,-0.161945,0.984387,-0.068951,-0.010678,0.006915,0.013302
652,-0.161997,0.984396,-0.068701,-0.011251,0.004755,0.013983
653,-0.161961,0.984413,-0.068539,-0.007122,0.007728,0.013303
654,-0.161852,0.984436,-0.068472,-0.008528,0.008026,0.016654
655,-0.16166,0.984469,-0.068453,-0.006659,0.004682,0.0161
656,-0.16143,0.984511,-0.0683899999999999,-0.004311,0.004182,0.016189
657,-0.161173,0.984557,-0.068329,-0.003225,0.002335,0.014816
658,-0.160877,0.984612,-0.068242,-0.0001189999999999,-0.000801,0.012624
659,-0.160568,0.984677,-0.068025,0.001266,0.00545,0.0067459999999999
660,-0.160292,0.984748,-0.067651,0.000609,0.008004,0.0067989999999999
661,-0.160027,0.984823,-0.067194,0.001153,0.008387,0.002726
662,-0.15978,0.984895,-0.06672,-0.001902,0.011595,0.001443
663,-0.159515,0.984969,-0.066262,-0.004685,0.010621,-0.000281
664,-0.159262,0.985042,-0.065795,-0.001062,0.0104269999999999,6e-05
665,-0.159081,0.985099,-0.065374,0.006508,0.006188,0.0006
666,-0.158949,0.98514,-0.06507,0.008039,0.013364,0.003639
667,-0.158832,0.985173,-0.064856,0.004886,0.013987,0.0058649999999999
668,-0.158807,0.98518,-0.064815,0.004129,0.0145919999999999,0.005977
669,-0.158924,0.985152,-0.06495,0.00069,0.011476,0.0090879999999999
670,-0.159121,0.985109,-0.065122,-0.008253,0.00775,0.01103
671,-0.159383,0.985062,-0.065179,-0.015147,0.006103,0.014856
672,-0.159614,0.985032,-0.06508,-0.019021,0.009124,0.018037
673,-0.159661,0.985042,-0.064801,-0.037071,0.0191229999999999,0.031812
674,-0.159552,0.985071,-0.0646299999999999,-0.03718,0.019094,0.031641
675,-0.1593359999999999,0.985114,-0.06452,-0.042812,0.00065,0.019231
676,-0.159016,0.985181,-0.064286,-0.034969,-0.010648,0.011017
677,-0.158691,0.985249,-0.064044,-0.027908,-0.011723,0.007983
678,-0.158697,0.985267,-0.063744,-0.020059,-0.008339,0.00306
679,-0.159325,0.9852,-0.063221,-0.012504,0.003188,0.00481
680,-0.160375,0.985081,-0.0624059999999999,-0.006358,0.005199,0.008161
681,-0.161923,0.984897,-0.0613,-0.003345,0.0027429999999999,0.010473
682,-0.163643,0.984691,-0.060023,-0.008858,0.015568,0.005885
683,-0.165285,0.984517,-0.0583669999999999,-0.010985,0.024395,0.005755
684,-0.166818,0.984362,-0.0565919999999999,-0.017127,0.030836,0.006437
685,-0.167964,0.984251,-0.055113,-0.008824,0.019457,0.010695
686,-0.1687519999999999,0.984164,-0.054235,-0.008036,0.019543,0.009817
687,-0.1691619999999999,0.984107,-0.0539889999999999,0.0027649999999999,0.016137,0.007206
688,-0.169309,0.984078,-0.054081,0.01019,0.007454,0.00571
689,-0.169407,0.984048,-0.05432,0.014606,0.004005,0.002516
690,-0.169489,0.984021,-0.054549,0.029704,0.0004759999999999,-0.001084
691,-0.169488,0.984019,-0.054586,0.029397,0.004644,0.000341
692,-0.169369,0.98405,-0.054389,0.022412,0.002095,0.001533
693,-0.169024,0.984133,-0.053956,0.011904,0.008237,0.0071719999999999
694,-0.168474,0.984256,-0.053419,0.011583,0.0151639999999999,0.012067
695,-0.167814,0.984396,-0.052929,0.016295,0.015803,0.013958
696,-0.16706,0.984546,-0.052528,0.0148379999999999,0.007825,0.009956
697,-0.166271,0.984696,-0.052215,0.014736,-0.0033729999999999,0.00418
698,-0.16554,0.984836,-0.051897,0.019269,-0.003574,-0.002485
699,-0.1649779999999999,0.984955,-0.051417,0.009476,0.005035,-0.005818
700,-0.164697,0.985042,-0.050648,0.00715,0.011631,-0.005305
701,-0.164742,0.985084,-0.049681,0.012032,0.0129319999999999,-0.004412
702,-0.164999,0.985092,-0.048668,0.016409,0.006638,-0.002006
703,-0.165461,0.985063,-0.047674,0.015696,0.009002,-0.002558
704,-0.165983,0.985013,-0.04688,0.008848,0.014559,0.000264
705,-0.166473,0.984954,-0.046379,0.0013109999999999,0.010651,0.005898
706,-0.166865,0.984899,-0.046136,-0.014272,0.015925,0.015512
707,-0.167225,0.984843,-0.046028,-0.0256,0.008687,0.028588
708,-0.167653,0.984768,-0.046086,-0.027263,0.003498,0.044728
709,-0.168117,0.984677,-0.0463439999999999,-0.036031,0.004123,0.0599549999999999
710,-0.1685,0.984586,-0.046874,-0.042712,0.015246,0.065962
711,-0.168551,0.984539,-0.047666,-0.047971,0.023029,0.052
712,-0.1683609999999999,0.984523,-0.048642,-0.0383649999999999,0.01006,0.030286
713,-0.168139,0.984523,-0.049418,-0.025602,-0.007899,0.017283
714,-0.167848,0.984566,-0.049547,-0.017424,-0.021218,0.00966
715,-0.167591,0.984631,-0.049129,-0.007122,-0.022015,-0.0069159999999999
716,-0.167508,0.984671,-0.048593,0.011868,0.00744,-0.020041
717,-0.167654,0.984665,-0.048215,0.042303,0.019043,-0.024783
718,-0.167902,0.984617,-0.048324,0.046075,0.021807,-0.019425
719,-0.16793,0.984577,-0.049038,0.037391,0.0214199999999999,0.000225
720,-0.167537,0.9846,-0.049915,0.026652,0.013829,0.015782
721,-0.16677,0.984702,-0.050472,0.0140449999999999,0.011713,0.022045
722,-0.165891,0.984854,-0.050398,-0.003039,0.0114989999999999,0.029692
723,-0.165029,0.985023,-0.049932,-0.016612,0.010034,0.025869
724,-0.1643109999999999,0.985163,-0.049523,-0.034526,0.003835,0.02102
725,-0.163874,0.985233,-0.049572,-0.036642,0.006344,0.019497
726,-0.163619,0.985257,-0.049949,-0.03737,0.005328,0.023093
727,-0.163515,0.985253,-0.050358,-0.007963,0.005408,0.028049
728,-0.163388,0.98525,-0.050837,-0.00809,0.005412,0.028529
729,-0.163207,0.985259,-0.051233,0.011397,0.002457,0.016275
730,-0.162919,0.985287,-0.051614,0.017564,0.00629,0.003472
731,-0.162467,0.985342,-0.052,0.012244,0.011103,0.002393
732,-0.161892,0.985412,-0.052448,0.012097,0.01503,0.002537
733,-0.161267,0.985482,-0.05305,0.002728,0.011161,0.012828
734,-0.160677,0.985532,-0.053896,0.0021379999999999,0.011111,0.013674
735,-0.160052,0.985582,-0.054822,-0.007047,0.0066359999999999,0.02258
736,-0.159456,0.985622,-0.055833,-0.0209789999999999,0.003193,0.026781
737,-0.158924,0.98565,-0.056838,-0.023632,0.008444,0.029036
738,-0.158518,0.985666,-0.057696,-0.024038,0.009329,0.026156
739,-0.1582619999999999,0.985664,-0.058423,-0.0228139999999999,0.003625,0.024045
740,-0.158096,0.985652,-0.05906,-0.02182,0.002309,0.018777
741,-0.157958,0.985634,-0.059725,-0.018784,0.002495,0.0134759999999999
742,-0.157817,0.985609,-0.060507,-0.016561,0.007723,0.0095269999999999
743,-0.157564,0.985594,-0.061399,-0.016509,0.00815,0.011244
744,-0.157214,0.985586,-0.06241,-0.012937,0.005502,0.011034
745,-0.1567059999999999,0.985599,-0.063475,-0.013597,0.007778,0.01068
746,-0.156075,0.985635,-0.064474,-0.014503,0.0073459999999999,0.007329
747,-0.155407,0.985673,-0.065492,-0.014835,0.0111989999999999,0.005007
748,-0.154688,0.985712,-0.066609,-0.016759,0.008001,0.0079239999999999
749,-0.1539559999999999,0.985742,-0.067847,-0.014868,0.00434,0.010107
750,-0.153309,0.985757,-0.069085,-0.010097,-0.002725,0.012323
751,-0.152839,0.985755,-0.070154,-0.004357,-0.000922,0.014002
752,-0.152557,0.985738,-0.071002,-0.004379,-0.002126,0.019214
753,-0.152329,0.985732,-0.0715669999999999,-0.020279,0.010042,0.019947
754,-0.152093,0.985751,-0.0718,-0.018973,0.0100069999999999,0.017692
755,-0.151972,0.98576,-0.071935,-0.015463,0.011555,0.013708
756,-0.151857,0.985757,-0.072213,-0.005202,0.0069489999999999,0.006951
757,-0.151758,0.985741,-0.072633,0.002283,0.001411,0.005021
758,-0.151635,0.985728,-0.073074,0.006478,0.0072989999999999,0.004135
759,-0.151549,0.985706,-0.073542,0.010222,0.009335,-0.001516
760,-0.151472,0.985678,-0.074067,0.015577,0.008935,-9.1e-05
761,-0.15133,0.985663,-0.074548,0.014627,0.009774,0.004175
762,-0.151018,0.985685,-0.074892,0.01111,0.002505,0.005358
763,-0.150541,0.985731,-0.075244,0.005704,0.004259,0.011432
764,-0.150077,0.985774,-0.0756049999999999,-0.001001,0.011113,0.0091069999999999
765,-0.149743,0.985806,-0.0758539999999999,-0.002921,0.0107459999999999,0.010043
766,-0.149539,0.985816,-0.076129,0.000628,0.002801,0.005709
767,-0.1494329999999999,0.985801,-0.076536,0.00417,0.003137,0.005873
768,-0.149362,0.98578,-0.076942,0.0067379999999999,0.0045,0.0091159999999999
769,-0.149324,0.985769,-0.077161,0.011613,0.00587,0.006742
770,-0.149275,0.985767,-0.077272,0.0153789999999999,0.0070459999999999,0.0049759999999999
771,-0.149125,0.985784,-0.077345,0.01558,0.0096379999999999,0.0030039999999999
772,-0.148863,0.985817,-0.077441,0.010236,0.009789,0.003314
773,-0.148552,0.985853,-0.07757,0.009315,0.0127739999999999,0.004328
774,-0.148277,0.985887,-0.07767,0.007454,0.0111989999999999,0.0071129999999999
775,-0.147983,0.985925,-0.077744,0.004367,0.005713,0.008576
776,-0.147788,0.985952,-0.077776,0.003166,0.005381,0.007326
777,-0.147645,0.985974,-0.077762,0.000703,0.008166,0.00777
778,-0.147522,0.985999,-0.077685,0.004547,0.008722,0.008425
779,-0.147445,0.986016,-0.0776159999999999,0.002151,0.009452,0.0106
780,-0.147387,0.98603,-0.077544,0.001864,0.000558,0.010665
781,-0.147365,0.986041,-0.077444,-0.0020329999999999,0.006497,0.013693
782,-0.147466,0.986036,-0.077321,-0.0015199999999999,0.007373,0.0142259999999999
783,-0.147663,0.986019,-0.07716,-0.0006219999999999,0.006672,0.0147979999999999
784,-0.14793,0.985993,-0.076982,-0.001148,0.008041,0.018373
785,-0.148265,0.985951,-0.076869,0.000605,0.008143,0.017314
786,-0.1486859999999999,0.985898,-0.0767429999999999,0.00182,0.008975,0.017218
787,-0.149122,0.985845,-0.076574,0.00041,0.006159,0.016836
788,-0.149547,0.985799,-0.076344,-0.000279,0.00616,0.018879
789,-0.149859,0.985773,-0.076069,-0.005735,0.006308,0.020649
790,-0.150057,0.985761,-0.075833,-0.004591,-0.000303,0.021527
791,-0.150154,0.985762,-0.075624,-0.005302,0.000322,0.02054
792,-0.150172,0.985778,-0.075387,-0.00942,0.0148479999999999,0.022729
793,-0.150106,0.9858,-0.075224,-0.006876,0.006936,0.019362
794,-0.14998,0.985824,-0.075175,-0.005308,0.007997,0.0174509999999999
795,-0.149865,0.985835,-0.075264,-0.0037909999999999,0.008764,0.015068
796,-0.149721,0.985838,-0.075507,-0.001448,0.001314,0.017737
797,-0.149574,0.98584,-0.075778,-0.001046,-0.002716,0.018466
798,-0.14944,0.985856,-0.075832,0.001567,-0.003861,0.020977
799,-0.149319,0.985897,-0.075534,-0.004139,0.006458,0.018085
800,-0.149175,0.98596,-0.0749919999999999,-0.007258,0.013567,0.013895
801,-0.149035,0.986023,-0.074447,-0.008283,0.012726,0.015746
802,-0.148878,0.986072,-0.074101,-0.008242,0.007412,0.012578
803,-0.148609,0.986123,-0.073978,-0.012753,0.010108,0.014591
804,-0.148342,0.986164,-0.07397,-0.008533,0.008816,0.020152
805,-0.148293,0.986166,-0.074033,-0.008048,0.00802,0.023419
806,-0.148421,0.986151,-0.073977,-0.005098,0.009775,0.025729
807,-0.148815,0.986108,-0.073766,-0.001942,0.003547,0.024007
808,-0.14961,0.986001,-0.0735799999999999,-0.000414,-0.004235,0.024356
809,-0.150788,0.985839,-0.073339,-0.0072019999999999,-0.005477,0.020986
810,-0.152094,0.985675,-0.0728419999999999,-0.028433,0.0008359999999999,0.020016
811,-0.153205,0.985563,-0.072028,-0.03753,0.016833,0.024252
812,-0.154054,0.985495,-0.071144,-0.045409,0.027185,0.029686
813,-0.154557,0.985461,-0.070514,-0.037399,0.018476,0.036929
814,-0.154719,0.985443,-0.070405,-0.031103,0.005005,0.036653
815,-0.154464,0.985458,-0.070754,-0.0287329999999999,0.0010539999999999,0.034865
816,-0.154022,0.985485,-0.071334,-0.012268,-0.000149,0.023299
817,-0.1534559999999999,0.985526,-0.071991,-0.001756,0.008874,0.019699
818,-0.15286,0.985579,-0.072523,0.002164,0.010133,0.016249
819,-0.152325,0.985649,-0.0727039999999999,0.006939,0.004479,0.01411
820,-0.151927,0.985725,-0.072502,0.0074569999999999,0.000908,0.003517
821,-0.151585,0.985816,-0.071978,-0.0016589999999999,0.005257,-0.002851
822,-0.151298,0.985906,-0.071348,-0.015725,0.013087,-0.003756
823,-0.1512,0.985954,-0.070893,-0.0269459999999999,0.016304,0.005875
824,-0.151398,0.985929,-0.070819,-0.025695,0.017534,0.009372
825,-0.151927,0.985828,-0.071092,-0.0187419999999999,0.014782,0.014879
826,-0.152874,0.985648,-0.0715669999999999,-0.0145,-0.001685,0.015338
827,-0.154023,0.985448,-0.071846,-0.018691,0.003489,0.0167159999999999
828,-0.1552369999999999,0.985264,-0.071761,-0.022283,0.011409,0.016036
829,-0.156462,0.985095,-0.071417,-0.035982,0.008664,0.024679
830,-0.157569,0.984942,-0.071101,-0.032876,0.003019,0.029948
831,-0.158557,0.984788,-0.071043,-0.03082,-0.004899,0.035627
832,-0.159227,0.984671,-0.071158,-0.036192,0.018793,0.050055
833,-0.159168,0.984672,-0.07128,-0.042492,0.015862,0.0539759999999999
834,-0.1588,0.984729,-0.0713179999999999,-0.042464,0.014905,0.0499709999999999
835,-0.158328,0.984835,-0.070898,-0.024152,-0.007998,0.020315
836,-0.15746,0.985034,-0.0700539999999999,-0.014995,0.007352,0.006913
837,-0.156304,0.98527,-0.069323,-0.009498,0.017309,-0.007872
838,-0.1551529999999999,0.985474,-0.069011,0.004305,0.017059,-0.0166669999999999
839,-0.15435,0.985582,-0.069256,0.014671,0.013609,-0.017368
840,-0.154055,0.98557,-0.070077,0.017718,0.010173,-0.0158139999999999
841,-0.154491,0.985432,-0.071051,0.022624,0.001247,-0.005624
842,-0.155329,0.985251,-0.071739,0.0144139999999999,0.011728,0.002205
843,-0.1562579999999999,0.985069,-0.072213,-0.0085519999999999,0.0160599999999999,0.0312589999999999
844,-0.157271,0.984871,-0.072711,-0.0163889999999999,0.013802,0.037143
845,-0.158109,0.98471,-0.073073,-0.013613,0.013352,0.039229
846,-0.158363,0.98465,-0.073341,-0.011147,0.008621,0.039131
847,-0.158072,0.984666,-0.0737429999999999,-0.012811,0.0075819999999999,0.038236
848,-0.157566,0.984687,-0.074548,-0.010784,0.005273,0.037637
849,-0.157201,0.984671,-0.075523,-0.007807,0.001139,0.031074
850,-0.157156,0.984617,-0.076321,-0.002573,-0.000333,0.027264
851,-0.157426,0.984547,-0.076662,0.010683,-0.002415,0.015261
852,-0.1577599999999999,0.9845,-0.076579,0.024856,0.00195,0.0076549999999999
853,-0.1580109999999999,0.984491,-0.076179,0.026831,0.003775,0.006889
854,-0.15815,0.984511,-0.0756309999999999,0.024742,0.0075239999999999,0.0086909999999999
855,-0.158092,0.984549,-0.0752549999999999,0.009425,0.014886,0.006987
856,-0.157908,0.984573,-0.075326,0.0086,0.0206599999999999,0.010232
857,-0.15774,0.984562,-0.0758269999999999,0.006403,0.0146449999999999,0.012106
858,-0.157558,0.984539,-0.076503,-0.008824,0.009709,0.019207
859,-0.157502,0.98451,-0.0769929999999999,-0.010375,0.006594,0.0257389999999999
860,-0.157582,0.984485,-0.077149,-0.002895,0.0055969999999999,0.01741
861,-0.15771,0.984475,-0.077016,0.000132,0.004402,0.01151
862,-0.157841,0.984473,-0.076765,0.003834,0.006188,0.008436
863,-0.1579819999999999,0.984466,-0.076566,0.005547,0.005829,0.012494
864,-0.1581,0.984455,-0.076464,0.005924,0.008877,0.013201
865,-0.158146,0.984455,-0.076373,0.003147,0.013653,0.0160699999999999
866,-0.158031,0.984481,-0.07627,-0.000233,0.010743,0.01435
867,-0.157741,0.984531,-0.0762299999999999,-0.010442,0.007885,0.0179259999999999
868,-0.157385,0.984575,-0.076401,-0.01832,0.012404,0.015594
869,-0.157119,0.984588,-0.0767809999999999,-0.020188,0.010606,0.016204
870,-0.157063,0.984559,-0.077266,-0.016384,0.005096,0.023341
871,-0.1572,0.984503,-0.077698,-0.012645,0.00358,0.0272829999999999
872,-0.157354,0.984462,-0.0779,-0.009257,0.0040939999999999,0.029545
873,-0.15742,0.984452,-0.07789,-0.005925,0.0068349999999999,0.028817
874,-0.15745,0.984454,-0.077804,-0.008184,0.008008,0.024123
875,-0.157448,0.984453,-0.077829,-0.016624,0.007384,0.019922
876,-0.157431,0.984441,-0.0780169999999999,-0.016352,0.008205,0.020674
877,-0.157436,0.984417,-0.078305,-0.011784,0.009266,0.02232
878,-0.157473,0.984388,-0.078596,-0.011792,0.010287,0.024199
879,-0.157566,0.984354,-0.078835,-0.01022,0.007711,0.023674
880,-0.157683,0.984319,-0.079046,-0.009538,0.00735,0.024191
881,-0.157711,0.984291,-0.079331,-0.009113,0.008171,0.020981
882,-0.157697,0.984267,-0.079662,-0.008853,0.007753,0.0218
883,-0.157691,0.98424,-0.080009,-0.007928,0.011381,0.021919
884,-0.157638,0.984209,-0.080496,-0.007737,0.0075819999999999,0.020956
885,-0.157544,0.984172,-0.081131,-0.007571,0.008092,0.02179
886,-0.157413,0.984129,-0.081902,-0.009487,0.007891,0.017586
887,-0.157213,0.984082,-0.082845,-0.0102069999999999,0.0063659999999999,0.0176449999999999
888,-0.157031,0.984034,-0.083749,-0.0072599999999999,0.002294,0.023553
889,-0.156881,0.984001,-0.08442,-0.005106,0.0070269999999999,0.024789
890,-0.156722,0.983994,-0.084793,-0.0070659999999999,0.0036609999999999,0.021912
891,-0.156589,0.983994,-0.085037,-0.003628,0.003463,0.013855
892,-0.1564849999999999,0.983979,-0.085405,-0.006372,0.010284,0.011323
893,-0.156382,0.983946,-0.0859679999999999,-0.00707,0.009584,0.013733
894,-0.156278,0.983903,-0.086654,-0.005358,0.009032,0.018096
895,-0.15615,0.983864,-0.087323,-0.0082329999999999,0.006309,0.025495
896,-0.155964,0.983849,-0.087826,-0.005657,0.005287,0.026897
897,-0.15577,0.983855,-0.0881,-0.011329,0.005357,0.025524
898,-0.155648,0.983862,-0.08824,-0.011817,0.00503,0.0251
899,-0.155593,0.983863,-0.0883169999999999,-0.012666,0.005944,0.025573
900,-0.15558,0.983859,-0.088383,-0.012862,0.008496,0.024159
901,-0.155604,0.983841,-0.088542,-0.009741,0.005081,0.020152
902,-0.15566,0.983812,-0.088767,-0.010966,0.00601,0.018225
903,-0.1557329999999999,0.983781,-0.0889799999999999,-0.006743,0.011946,0.016653
904,-0.155778,0.983767,-0.089058,-0.005385,0.010801,0.01635
905,-0.1557329999999999,0.983781,-0.088987,-0.004484,0.009978,0.015852
906,-0.155603,0.983813,-0.088858,-0.006369,0.008985,0.01673
907,-0.155419,0.983849,-0.088787,-0.0074379999999999,0.0103069999999999,0.0146139999999999
908,-0.15521,0.983874,-0.088869,-0.007708,0.010679,0.01311
909,-0.1549839999999999,0.983882,-0.08917,-0.008102,0.010457,0.012723
910,-0.154765,0.983872,-0.089671,-0.009298,0.011566,0.012843
911,-0.154521,0.983854,-0.090291,-0.008626,0.005587,0.013493
912,-0.154292,0.983838,-0.090853,-0.014577,0.005817,0.026735
913,-0.154059,0.983842,-0.091199,-0.013604,0.000472,0.034802
914,-0.153911,0.983858,-0.091277,-0.0178259999999999,0.000273,0.039351
915,-0.15381,0.983899,-0.0910049999999999,-0.02011,-0.001157,0.038377
916,-0.153789,0.98397,-0.090266,-0.026585,0.0005269999999999,0.034617
917,-0.1538,0.984059,-0.089279,-0.025827,0.000545,0.034774
918,-0.153918,0.984138,-0.088196,-0.0259529999999999,-0.002205,0.034332
919,-0.154185,0.984204,-0.086983,-0.028783,-0.001462,0.040596
920,-0.154468,0.984281,-0.085609,-0.027341,-0.000607,0.039497
921,-0.154757,0.98437,-0.08404,-0.022763,0.0010119999999999,0.039866
922,-0.1550609999999999,0.984465,-0.082353,-0.0191639999999999,0.005113,0.032625
923,-0.155241,0.984569,-0.080757,-0.01819,0.00887,0.029304
924,-0.155355,0.984661,-0.0794059999999999,-0.018916,0.014896,0.024154
925,-0.1554819999999999,0.984721,-0.078412,-0.004765,0.0337579999999999,0.009366
926,-0.155476,0.984756,-0.077983,-0.005107,0.034058,0.009654
927,-0.155393,0.984767,-0.078013,-0.001132,0.026662,0.009288
928,-0.155189,0.984763,-0.078463,-0.0018239999999999,0.00448,0.014758
929,-0.154836,0.98476,-0.079187,-0.001551,0.004818,0.011133
930,-0.154473,0.984756,-0.079946,-0.000465,0.002259,0.015798
931,-0.154188,0.984753,-0.080533,0.002577,0.002689,0.018063
932,-0.154014,0.984759,-0.080785,7.000000000000001e-06,0.003812,0.01708
933,-0.153905,0.98478,-0.080742,-0.002314,0.003181,0.01809
934,-0.153842,0.984809,-0.0805,-0.002133,0.007073,0.017222
935,-0.153742,0.984847,-0.080223,-0.0016989999999999,0.0122379999999999,0.020805
936,-0.153566,0.984894,-0.0799909999999999,-0.001006,0.009598,0.029638
937,-0.153305,0.984948,-0.079826,-0.001694,0.008292,0.0241
938,-0.15303,0.984993,-0.079795,-0.002366,0.0081409999999999,0.0201639999999999
939,-0.152798,0.985017,-0.079946,-0.00249,0.003112,0.021505
940,-0.152669,0.985021,-0.080145,-0.00497,0.003062,0.025351
941,-0.15266,0.985021,-0.080162,-0.000156,0.003871,0.027336
942,-0.152766,0.985031,-0.079831,0.000452,0.00856,0.027829
943,-0.152929,0.985056,-0.0792139999999999,0.002889,0.009253,0.025472
944,-0.15307,0.985087,-0.078544,0.0067379999999999,0.009099,0.021965
945,-0.153122,0.985111,-0.078151,0.003907,0.012311,0.021495
946,-0.153089,0.985122,-0.078068,-0.000262,0.011353,0.017842
947,-0.153021,0.985121,-0.078217,-0.001596,0.011461,0.019242
948,-0.152945,0.98511,-0.07851,0.000448,0.006208,0.020099
949,-0.152902,0.985091,-0.078831,0.002023,0.002245,0.020146
950,-0.152883,0.985077,-0.07904,-0.00065,0.005051,0.018295
951,-0.152946,0.98507,-0.0790049999999999,0.002372,0.00785,0.018077
952,-0.153082,0.985066,-0.078785,0.000708,0.005855,0.016712
953,-0.153313,0.985061,-0.078407,0.004219,0.004548,0.0179819999999999
954,-0.153642,0.985052,-0.077871,0.002671,0.009302,0.0203
955,-0.154034,0.985033,-0.077336,0.000164,0.017347,0.021107
956,-0.154421,0.985,-0.076984,0.0024129999999999,0.013703,0.022144
957,-0.1547579999999999,0.984947,-0.07699,0.001468,0.010033,0.019312
958,-0.154974,0.984889,-0.077301,-0.007028,0.00565,0.016968
959,-0.155137,0.984822,-0.07782,-0.008498,0.005778,0.019959
960,-0.155323,0.984745,-0.078428,-0.009838,0.0034909999999999,0.024457
961,-0.155549,0.984678,-0.078818,-0.003768,0.003542,0.025504
962,-0.155798,0.98464,-0.078808,0.000539,0.007929,0.024364
963,-0.156064,0.984626,-0.078463,0.0019039999999999,0.005884,0.018618
964,-0.15634,0.984612,-0.078085,-0.002946,0.009834,0.007101
965,-0.156643,0.984576,-0.07793,-0.006885,0.010892,0.008456
966,-0.1569569999999999,0.984517,-0.078036,-0.006312,0.010631,0.004717
967,-0.157215,0.984452,-0.078338,-0.008236,0.0050659999999999,0.026229
968,-0.157389,0.984387,-0.078794,-0.009313,0.011066,0.0314459999999999
969,-0.157525,0.984346,-0.079035,-0.017921,0.012938,0.0301
970,-0.15763,0.984334,-0.078974,-0.020959,0.013606,0.028009
971,-0.157702,0.984335,-0.078815,-0.01962,0.0060979999999999,0.025241
972,-0.157788,0.984336,-0.078627,-0.016635,0.005288,0.01924
973,-0.157905,0.984327,-0.078502,-0.016564,0.005114,0.011928
974,-0.158116,0.984297,-0.078446,-0.007594,0.010423,0.008148
975,-0.158401,0.984242,-0.078561,-0.007508,0.0176349999999999,0.013085
976,-0.158765,0.984158,-0.078886,-0.007358,0.015705,0.015867
977,-0.159075,0.984054,-0.079548,-0.00604,0.00998,0.015461
978,-0.159194,0.983949,-0.080606,-0.0170449999999999,0.0102069999999999,0.023584
979,-0.1590619999999999,0.98385,-0.08206,-0.020198,0.008856,0.029692
980,-0.1588109999999999,0.983766,-0.083549,-0.021547,0.005675,0.034218
981,-0.158523,0.983714,-0.084698,-0.022278,0.005025,0.0372129999999999
982,-0.158289,0.983688,-0.085436,-0.019628,0.002061,0.036959
983,-0.158227,0.98366,-0.085865,-0.017768,0.001737,0.03635
984,-0.15835,0.983624,-0.086056,-0.019308,0.004703,0.032223
985,-0.158619,0.983582,-0.086032,-0.019573,0.011214,0.0362279999999999
986,-0.158974,0.983532,-0.085948,-0.016487,0.005924,0.037165
987,-0.159252,0.983489,-0.0859279999999999,-0.016392,0.01027,0.039084
988,-0.159401,0.983457,-0.086012,-0.018623,0.006762,0.036711
989,-0.159446,0.983432,-0.086211,-0.019006,0.00665,0.03755
990,-0.159409,0.983416,-0.0864549999999999,-0.017502,0.006925,0.039519
991,-0.1593089999999999,0.983417,-0.086636,-0.01783,0.006589,0.040067
992,-0.159192,0.983427,-0.086732,-0.017215,0.003404,0.038667
993,-0.1590329999999999,0.983445,-0.086821,-0.020807,0.002471,0.039549
994,-0.158962,0.983455,-0.086847,-0.022694,0.0006,0.0413759999999999
995,-0.158978,0.983461,-0.086748,-0.02518,0.002837,0.043779
996,-0.159093,0.983465,-0.086491,-0.024303,0.003672,0.045292
997,-0.159226,0.983484,-0.086025,-0.022278,0.002401,0.043392
998,-0.159378,0.983514,-0.0854019999999999,-0.018265,0.001212,0.040007
999,-0.159565,0.983552,-0.08462,-0.019039,0.003417,0.03776
1000,-0.1597559999999999,0.983593,-0.083771,-0.0170169999999999,0.005497,0.037903
1001,-0.159986,0.983634,-0.082847,-0.016237,0.008248,0.037787
1002,-0.160254,0.98368,-0.081776,-0.019296,0.002022,0.039921
1003,-0.160515,0.983741,-0.080533,-0.018928,0.00126,0.033917
1004,-0.160796,0.983802,-0.079216,-0.019105,0.005807,0.032447
1005,-0.161121,0.983855,-0.077877,-0.016964,0.005769,0.031429
1006,-0.161493,0.983904,-0.076483,-0.010809,0.0068489999999999,0.033301
1007,-0.1618349999999999,0.983947,-0.075193,-0.009872,0.0094,0.030775
1008,-0.162224,0.983977,-0.0739549999999999,-0.008598,0.013536,0.0258899999999999
1009,-0.162622,0.983997,-0.0728169999999999,-0.006338,0.014493,0.029101
1010,-0.162988,0.984017,-0.071724,-0.0069489999999999,0.016472,0.028176
1011,-0.163265,0.984045,-0.070701,-0.004887,0.028482,0.020561
1012,-0.163383,0.984071,-0.070073,-0.0005269999999999,0.022597,0.012181
1013,-0.16328,0.984078,-0.070213,0.001323,0.01847,0.00486
1014,-0.162868,0.984065,-0.071346,0.001857,0.014669,0.006268
1015,-0.1622299999999999,0.984021,-0.073372,0.000106,0.011722,0.006386
1016,-0.161577,0.983951,-0.075706,-0.002485,0.004482,0.01403
1017,-0.1610089999999999,0.983894,-0.077632,-0.001696,0.00161,0.027125
1018,-0.16052,0.983882,-0.078793,0.000623,-0.0040079999999999,0.0325279999999999
1019,-0.160146,0.983907,-0.079234,-0.003078,-0.004217,0.0293079999999999
1020,-0.159917,0.983955,-0.07911,-0.008373,0.0075159999999999,0.0203479999999999
1021,-0.159805,0.983997,-0.078805,-0.010758,0.012447,0.02015
1022,-0.159769,0.984021,-0.078578,-0.011328,0.0109579999999999,0.018566
1023,-0.159716,0.984033,-0.078543,-0.008985,0.011283,0.024329
1024,-0.159631,0.98404,-0.0786309999999999,-0.005561,0.006958,0.022906
1025,-0.159519,0.984048,-0.0787539999999999,-0.005154,0.004187,0.022785
1026,-0.159383,0.984061,-0.078873,-0.003551,0.004236,0.025223
1027,-0.1592589999999999,0.984078,-0.078912,-0.004483,0.005714,0.022362
1028,-0.159182,0.984099,-0.078794,-0.006772,0.003633,0.026273
1029,-0.159175,0.984128,-0.078445,-0.009206,0.0032979999999999,0.028274
1030,-0.159206,0.98417,-0.0778539999999999,-0.0107459999999999,0.00225,0.0331
1031,-0.159297,0.984219,-0.077043,-0.012227,0.005557,0.02971
1032,-0.159443,0.984266,-0.076144,-0.010906,0.005556,0.026675
1033,-0.159608,0.984309,-0.075235,-0.0112909999999999,0.011464,0.026773
1034,-0.159791,0.984346,-0.074364,-0.005431,0.0162639999999999,0.021858
1035,-0.159914,0.984372,-0.073759,-0.003722,0.0129889999999999,0.018476
1036,-0.159913,0.98439,-0.073517,-0.006331,0.01886,0.0167389999999999
1037,-0.159821,0.984395,-0.073645,-0.00325,0.017283,0.014746
1038,-0.15969,0.984379,-0.074139,-0.000314,0.009517,0.0133169999999999
1039,-0.159511,0.984354,-0.07486,-0.002843,0.0079099999999999,0.017365
1040,-0.159294,0.98433,-0.075628,-0.0041119999999999,0.007857,0.0174919999999999
1041,-0.159118,0.984309,-0.076277,-0.003251,0.003042,0.018477
1042,-0.159003,0.984289,-0.076763,-0.00477,0.006006,0.0185819999999999
1043,-0.158967,0.98427,-0.077087,-0.005248,0.010634,0.0208889999999999
1044,-0.1589819999999999,0.984243,-0.077392,-0.004226,0.008051,0.021087
1045,-0.158995,0.984222,-0.077634,-0.013566,0.002411,0.0265329999999999
1046,-0.159004,0.984217,-0.077686,-0.013557,0.002416,0.026585
1047,-0.159056,0.984232,-0.077389,-0.011873,0.001761,0.026104
1048,-0.1590859999999999,0.984261,-0.076947,-0.013765,0.007331,0.022443
1049,-0.159151,0.984285,-0.07651,-0.0137,0.0073069999999999,0.022006
1050,-0.159321,0.984288,-0.07612,-0.008205,0.010097,0.019006
1051,-0.159531,0.984266,-0.0759649999999999,-0.006241,0.0155509999999999,0.020958
1052,-0.159674,0.984233,-0.076087,-0.004647,0.017308,0.022818
1053,-0.159714,0.9842,-0.076435,-0.005753,0.0151139999999999,0.020848
1054,-0.159651,0.98417,-0.076939,-0.008867,0.009131,0.02013
1055,-0.1594809999999999,0.984144,-0.077625,-0.011784,0.009172,0.020221
1056,-0.159288,0.984118,-0.07835,-0.008849,0.006696,0.021084
1057,-0.159047,0.984104,-0.079011,-0.009319,0.007839,0.025041
1058,-0.158727,0.984106,-0.079631,-0.0110569999999999,0.010325,0.025646
1059,-0.1584,0.98411,-0.080234,-0.009172,0.008276,0.020908
1060,-0.158077,0.984109,-0.080873,-0.0104099999999999,0.003852,0.0246139999999999
1061,-0.157756,0.984108,-0.081513,-0.0071909999999999,0.00103,0.028031
1062,-0.157488,0.984108,-0.082032,-0.010923,0.004357,0.033249
1063,-0.1572619999999999,0.984121,-0.082311,-0.01533,0.004481,0.033742
1064,-0.15712,0.984144,-0.082308,-0.016083,0.001635,0.033968
1065,-0.157105,0.984167,-0.082063,-0.015808,0.002573,0.0289779999999999
1066,-0.157151,0.984182,-0.081784,-0.01654,0.004785,0.028897
1067,-0.1572579999999999,0.984193,-0.081453,-0.011336,0.005446,0.031664
1068,-0.157365,0.984208,-0.081058,-0.011092,0.00743,0.0300019999999999
1069,-0.157396,0.984227,-0.080765,-0.011534,0.008494,0.029374
1070,-0.15733,0.984252,-0.080591,-0.012256,0.00853,0.031427
1071,-0.157256,0.984277,-0.080427,-0.013002,0.005164,0.032911
1072,-0.157191,0.984305,-0.080217,-0.012029,0.002664,0.034654
1073,-0.157102,0.984344,-0.079907,-0.016467,0.004639,0.03375
1074,-0.157022,0.984391,-0.079487,-0.019186,0.004684,0.035282
1075,-0.157031,0.984426,-0.079034,-0.016721,0.005869,0.037652
1076,-0.157101,0.984453,-0.078558,-0.014713,0.0067269999999999,0.03655
1077,-0.157169,0.984483,-0.078049,-0.013287,0.004317,0.037903
1078,-0.1572,0.98452,-0.0775179999999999,-0.0146139999999999,0.0046619999999999,0.0374629999999999
1079,-0.157228,0.984562,-0.076926,-0.016128,0.004894,0.03411
1080,-0.157331,0.984597,-0.076266,-0.014728,0.004966,0.0364709999999999
1081,-0.157501,0.98463,-0.075483,-0.0153509999999999,0.007375,0.037778
1082,-0.157664,0.984674,-0.0745649999999999,-0.007131,0.0073,0.033596
1083,-0.157746,0.984732,-0.073619,-0.00534,0.00802,0.0271709999999999
1084,-0.157741,0.984784,-0.072923,-0.01006,0.016131,0.024613
1085,-0.157722,0.984807,-0.072649,-0.007286,0.023036,0.017748
1086,-0.157718,0.984793,-0.07285,-0.001935,0.0158479999999999,0.02242
1087,-0.157654,0.984762,-0.073416,4.5e-05,0.004481,0.026892
1088,-0.157442,0.984743,-0.0741179999999999,-0.00273,0.0060869999999999,0.025916
1089,-0.157117,0.984748,-0.07474,-0.0069,0.0066,0.022113
1090,-0.156792,0.984763,-0.075215,-0.002846,0.004067,0.02451
1091,-0.156518,0.984774,-0.07564,-0.004187,0.004178,0.022982
1092,-0.1562859999999999,0.984783,-0.076004,-0.004526,0.004658,0.02533
1093,-0.1561,0.984799,-0.076183,-0.008054,0.004673,0.028774
1094,-0.155946,0.984814,-0.076307,-0.00624,0.006016,0.028943
1095,-0.15582,0.984831,-0.076345,-0.0066549999999999,0.010454,0.030325
1096,-0.155729,0.984845,-0.076343,-0.006639,0.006396,0.0237919999999999
1097,-0.155624,0.984858,-0.076397,-0.006973,0.008001,0.0246389999999999
1098,-0.15553,0.98487,-0.076427,-0.0067319999999999,0.008416,0.0272779999999999
1099,-0.1554559999999999,0.984885,-0.076386,-0.009614,0.002938,0.031235
1100,-0.155423,0.984901,-0.076251,-0.007572,0.003136,0.033145
1101,-0.155418,0.984926,-0.075933,-0.007775,0.004057,0.0272269999999999
1102,-0.155454,0.984954,-0.075496,-0.007525,0.011659,0.021999
1103,-0.155473,0.984969,-0.0752559999999999,-0.00891,0.011979,0.0228419999999999
1104,-0.1554859999999999,0.984965,-0.075293,-0.00934,0.011541,0.022299
1105,-0.155495,0.984951,-0.075447,-0.008918,0.008106,0.022575
1106,-0.155478,0.984929,-0.075774,-0.008416,0.009777,0.024733
1107,-0.155417,0.9849,-0.076274,-0.007455,0.011026,0.023158
1108,-0.155328,0.984866,-0.076883,-0.008445,0.008481,0.023829
1109,-0.155211,0.984836,-0.077513,-0.009141,0.004575,0.024931
1110,-0.155082,0.984811,-0.078086,-0.012139,0.005699,0.025596
1111,-0.1549549999999999,0.984795,-0.078532,-0.012586,0.002235,0.027293
1112,-0.154874,0.984786,-0.078804,-0.011248,0.007264,0.0271839999999999
1113,-0.154798,0.984788,-0.078937,-0.012225,0.0044399999999999,0.025196
1114,-0.1547369999999999,0.984785,-0.079082,-0.0142379999999999,0.004442,0.024608
1115,-0.154711,0.984777,-0.079239,-0.014325,0.0063729999999999,0.026337
1116,-0.154701,0.984767,-0.079374,-0.010261,0.007436,0.0256779999999999
1117,-0.1546529999999999,0.984765,-0.079494,-0.010371,0.007331,0.024593
1118,-0.154523,0.984773,-0.079646,-0.012148,0.008177,0.022014
1119,-0.154378,0.984781,-0.079837,-0.014704,0.007483,0.024631
1120,-0.154274,0.984783,-0.080009,-0.013618,0.006794,0.026191
1121,-0.154203,0.984786,-0.080107,-0.011385,0.002091,0.0280139999999999
1122,-0.154173,0.984793,-0.080082,-0.0147879999999999,0.004526,0.0289649999999999
1123,-0.154143,0.984806,-0.079978,-0.0146039999999999,0.011242,0.0258699999999999
1124,-0.154093,0.98482,-0.0799059999999999,-0.0108849999999999,0.009458,0.025463
1125,-0.154074,0.984821,-0.079929,-0.009973,0.008145,0.027622
1126,-0.154029,0.98482,-0.080025,-0.013635,0.00427,0.027627
1127,-0.153975,0.984824,-0.08008,-0.0123,0.004861,0.027254
1128,-0.15386,0.984842,-0.080079,-0.011331,0.005332,0.027498
1129,-0.153753,0.984863,-0.080025,-0.010126,0.008881,0.024544
1130,-0.153648,0.984885,-0.079959,-0.010384,0.006662,0.0264
1131,-0.153553,0.984903,-0.079913,-0.009319,0.0089629999999999,0.029102
1132,-0.153413,0.984925,-0.079908,-0.011473,0.0091849999999999,0.0269139999999999
1133,-0.153244,0.984949,-0.079944,-0.0112,0.009726,0.027073
1134,-0.153072,0.984971,-0.080007,-0.008641,0.007858,0.025961
1135,-0.152901,0.984991,-0.080088,-0.009758,0.0080819999999999,0.026362
1136,-0.15274,0.985008,-0.0801809999999999,-0.009888,0.008675,0.025234
1137,-0.152614,0.98502,-0.080277,-0.010289,0.0072739999999999,0.02858
1138,-0.1525119999999999,0.985033,-0.080311,-0.008392,0.006193,0.029835
1139,-0.1524049999999999,0.985055,-0.080238,-0.007644,0.007117,0.030037
1140,-0.152266,0.985091,-0.080063,-0.010911,0.006547,0.02713
1141,-0.152125,0.985131,-0.079839,-0.010259,0.008918,0.025655
1142,-0.151977,0.985163,-0.079726,-0.010163,0.0090689999999999,0.0260149999999999
1143,-0.15183,0.985188,-0.079703,-0.010875,0.0086629999999999,0.026969
1144,-0.151679,0.985206,-0.0797679999999999,-0.009927,0.010766,0.0277509999999999
1145,-0.151527,0.985217,-0.0799179999999999,-0.0108569999999999,0.0088019999999999,0.027931
1146,-0.151361,0.985225,-0.080132,-0.011329,0.008976,0.031548
1147,-0.151199,0.985234,-0.080325,-0.011704,0.0068769999999999,0.0310389999999999
1148,-0.150999,0.985252,-0.080489,-0.011522,0.007958,0.028197
1149,-0.150792,0.985272,-0.080624,-0.010173,0.008472,0.029187
1150,-0.150615,0.985288,-0.080765,-0.011037,0.005786,0.0270389999999999
1151,-0.150418,0.985303,-0.080953,-0.011097,0.009754,0.02738
1152,-0.15022,0.985316,-0.0811549999999999,-0.011462,0.009603,0.028696
1153,-0.150062,0.985322,-0.081372,-0.009087,0.007872,0.0283019999999999
1154,-0.149876,0.985329,-0.08163,-0.011302,0.006996,0.028041
1155,-0.1496819999999999,0.985339,-0.081863,-0.008765,0.007855,0.031127
1156,-0.149447,0.98536,-0.0820429999999999,-0.010954,0.008338,0.028057
1157,-0.149207,0.985377,-0.082277,-0.009621,0.007879,0.028642
1158,-0.148984,0.985386,-0.082567,-0.008075,0.007091,0.027514
1159,-0.148748,0.985393,-0.08291,-0.009745,0.008595,0.025812
1160,-0.148544,0.985397,-0.083232,-0.007386,0.007554,0.028056
1161,-0.148419,0.985391,-0.083526,-0.006519,0.0067819999999999,0.032547
1162,-0.148317,0.985392,-0.083694,-0.008498,0.006948,0.032958
1163,-0.148232,0.9854,-0.083743,-0.0082469999999999,0.007855,0.029574
1164,-0.148169,0.985419,-0.083628,-0.009424,0.005959,0.028055
1165,-0.148095,0.985445,-0.083459,-0.009559,0.0067269999999999,0.030907
1166,-0.148056,0.985465,-0.0832909999999999,-0.011139,0.008843,0.0278709999999999
1167,-0.148036,0.985481,-0.083137,-0.00916,0.009239,0.0317
1168,-0.14804,0.985477,-0.083183,-0.008957,0.015652,0.0325089999999999
1169,-0.148057,0.985458,-0.08338,-0.006942,0.00821,0.02915
1170,-0.148077,0.985438,-0.08358,-0.013269,0.0076349999999999,0.0277329999999999
1171,-0.148032,0.985427,-0.0837929999999999,-0.0156949999999999,0.007875,0.029212
1172,-0.148024,0.985411,-0.083992,-0.010591,0.004824,0.0296399999999999
1173,-0.148042,0.985392,-0.0841799999999999,-0.010619,0.009603,0.031751
1174,-0.148079,0.985378,-0.084282,-0.00959,0.005284,0.032463
1175,-0.148205,0.985356,-0.084313,-0.008533,0.005458,0.029671
1176,-0.148374,0.985332,-0.084301,-0.005602,0.006566,0.0285449999999999
1177,-0.148545,0.985309,-0.084271,-0.007858,0.0075349999999999,0.025952
1178,-0.1487079999999999,0.985284,-0.0842649999999999,-0.007908,0.007819,0.0224669999999999
1179,-0.148842,0.985257,-0.084344,-0.005912,0.010226,0.022424
1180,-0.148914,0.985225,-0.084593,-0.00581,0.008107,0.026823
1181,-0.14883,0.985207,-0.084952,-0.010045,0.0109629999999999,0.028387
1182,-0.148674,0.985198,-0.085327,-0.010643,0.010713,0.030411
1183,-0.148587,0.985179,-0.085695,-0.008776,0.007069,0.029833
1184,-0.148587,0.985153,-0.085997,-0.009356,0.003037,0.027388
1185,-0.148645,0.985129,-0.08617,-0.007666,0.004602,0.024112
1186,-0.148749,0.985111,-0.0862,-0.005059,0.007672,0.020267
1187,-0.148873,0.985087,-0.086261,-0.002235,0.006445,0.022876
1188,-0.1489359999999999,0.985073,-0.086306,-0.0035909999999999,0.010639,0.024203
1189,-0.148925,0.985065,-0.086424,-0.00612,0.011212,0.024031
1190,-0.148842,0.985066,-0.08655,-0.012276,0.007976,0.026216
1191,-0.148707,0.985074,-0.086686,-0.014424,0.008258,0.024842
1192,-0.148567,0.985085,-0.086808,-0.014534,0.005424,0.028092
1193,-0.148481,0.985083,-0.086982,-0.014071,0.00625,0.029548
1194,-0.148505,0.985062,-0.0871779999999999,-0.012124,0.003525,0.0302779999999999
1195,-0.148725,0.985021,-0.087266,-0.003009,0.0074569999999999,0.026719
1196,-0.149044,0.984975,-0.087234,-0.0017739999999999,0.0059,0.022888
1197,-0.149324,0.98494,-0.087154,-0.001891,0.005432,0.0267139999999999
1198,-0.149456,0.984931,-0.087032,-0.00919,0.01272,0.024731
1199,-0.149401,0.984936,-0.087071,-0.010679,0.009617,0.026936
1200,-0.149273,0.984939,-0.087255,-0.0108069999999999,0.010529,0.025243
1201,-0.149132,0.984937,-0.08751,-0.015053,0.0089129999999999,0.0315709999999999
1202,-0.149078,0.984922,-0.087778,-0.015931,0.007266,0.030741
1203,-0.149154,0.984894,-0.087963,-0.0176699999999999,0.007187,0.031872
1204,-0.149338,0.984861,-0.088018,-0.015991,0.006869,0.02738
1205,-0.149539,0.984833,-0.087986,-0.013715,0.007278,0.027592
1206,-0.1497339999999999,0.984809,-0.087924,-0.012559,0.00512,0.026095
1207,-0.149915,0.984789,-0.087841,-0.006442,0.006895,0.024166
1208,-0.150022,0.984779,-0.087774,-0.004992,0.009774,0.023916
1209,-0.1501019999999999,0.984777,-0.087656,-0.004912,0.007792,0.019114
1210,-0.150122,0.984781,-0.087575,-0.00744,0.0123959999999999,0.026082
1211,-0.150066,0.984784,-0.087641,-0.006565,0.012424,0.026224
1212,-0.1500369999999999,0.984774,-0.087802,-0.0084099999999999,0.009168,0.0262629999999999
1213,-0.150097,0.984751,-0.087949,-0.0116,0.004018,0.027097
1214,-0.1502619999999999,0.984725,-0.087964,-0.014716,0.0038159999999999,0.028669
1215,-0.1504319999999999,0.984708,-0.087862,-0.012486,0.004001,0.028658
1216,-0.150616,0.984697,-0.087675,-0.010212,0.004897,0.026655
1217,-0.150778,0.984693,-0.087433,-0.006022,0.007372,0.025849
1218,-0.150919,0.984695,-0.087175,-0.00321,0.008301,0.025682
1219,-0.151032,0.984697,-0.086952,-0.004195,0.007551,0.0252
1220,-0.15114,0.984697,-0.086768,-0.003858,0.007506,0.027152
1221,-0.151254,0.984699,-0.086547,-0.0074069999999999,0.007077,0.02748
1222,-0.151399,0.984692,-0.086372,-0.008452,0.005741,0.0277019999999999
1223,-0.15154,0.984683,-0.08623,-0.008158,0.004484,0.0277889999999999
1224,-0.1517089999999999,0.984672,-0.086046,-0.009195,0.0073019999999999,0.02936
1225,-0.151963,0.984656,-0.0857909999999999,-0.010803,0.006097,0.0293639999999999
1226,-0.152212,0.984643,-0.085493,-0.010157,0.007758,0.033231
1227,-0.152444,0.984633,-0.08519,-0.008704,0.0070959999999999,0.028961
1228,-0.152644,0.984626,-0.08492,-0.0083819999999999,0.0076989999999999,0.025197
1229,-0.152777,0.984624,-0.084694,-0.007638,0.010294,0.027916
1230,-0.152903,0.984619,-0.084534,-0.0089319999999999,0.010392,0.026382
1231,-0.153024,0.984613,-0.084383,-0.008261,0.0064909999999999,0.028307
1232,-0.153133,0.98461,-0.084223,-0.0070079999999999,0.006327,0.026941
1233,-0.153246,0.98461,-0.084018,-0.007429,0.006586,0.024143
1234,-0.153374,0.984605,-0.083841,-0.007194,0.007064,0.02865
1235,-0.153516,0.984597,-0.083677,-0.007693,0.007194,0.025862
1236,-0.153658,0.98459,-0.083499,-0.011885,0.008269,0.028613
1237,-0.153813,0.98458,-0.0833309999999999,-0.009578,0.009027,0.029544
1238,-0.153952,0.984574,-0.083145,-0.009195,0.006759,0.030792
1239,-0.154078,0.984573,-0.082914,-0.0080159999999999,0.007873,0.031584
1240,-0.154196,0.984576,-0.0826669999999999,-0.010935,0.007978,0.0278269999999999
1241,-0.154342,0.984571,-0.0824559999999999,-0.009126,0.007739,0.026151
1242,-0.1544849999999999,0.984555,-0.08237,-0.009181,0.007159,0.025012
1243,-0.154639,0.984534,-0.082337,-0.006936,0.006784,0.028748
1244,-0.154801,0.984509,-0.082327,-0.007323,0.007144,0.031546
1245,-0.154998,0.984489,-0.082202,-0.006562,0.007195,0.029651
1246,-0.155196,0.984478,-0.081957,-0.007218,0.0072829999999999,0.026232
1247,-0.155385,0.98447,-0.081686,-0.007091,0.007336,0.0264189999999999
1248,-0.155572,0.984462,-0.081427,-0.008201,0.010365,0.025
1249,-0.155767,0.984445,-0.081252,-0.0023899999999999,0.010336,0.02513
1250,-0.155997,0.984415,-0.081182,-0.002557,0.006781,0.0247849999999999
1251,-0.156252,0.984379,-0.081123,-0.004057,0.006648,0.023628
1252,-0.156522,0.984346,-0.081013,-0.005175,0.012679,0.028019
1253,-0.156766,0.984312,-0.080955,-0.007526,0.0069299999999999,0.027442
1254,-0.1570089999999999,0.984274,-0.080944,-0.009113,0.00564,0.028042
1255,-0.157249,0.984247,-0.0808059999999999,-0.011711,0.003577,0.026835
1256,-0.157446,0.984233,-0.0805879999999999,-0.012491,0.004155,0.027197
1257,-0.157693,0.984209,-0.080395,-0.010215,0.0041329999999999,0.0268209999999999
1258,-0.158027,0.984172,-0.080192,-0.010018,0.0059549999999999,0.026099
1259,-0.158397,0.984131,-0.079966,-0.010533,0.005935,0.027705
1260,-0.1587579999999999,0.984099,-0.079644,-0.0064329999999999,0.008058,0.026864
1261,-0.1590369999999999,0.984081,-0.079312,-0.006749,0.012395,0.024746
1262,-0.159244,0.984066,-0.079079,-0.004742,0.013248,0.0265279999999999
1263,-0.159389,0.98405,-0.0789909999999999,-0.01363,0.010503,0.024135
1264,-0.159518,0.984022,-0.079073,-0.0126319999999999,0.01111,0.026537
1265,-0.159651,0.983988,-0.079235,-0.014787,0.011313,0.028224
1266,-0.159789,0.983958,-0.079328,-0.012254,0.007086,0.024671
1267,-0.159944,0.98393,-0.0793519999999999,-0.015196,0.004488,0.022193
1268,-0.160099,0.983909,-0.079307,-0.014737,0.001855,0.02169
1269,-0.160235,0.983892,-0.0792419999999999,-0.016324,0.003321,0.022663
1270,-0.160328,0.983882,-0.079174,-0.012448,0.006184,0.025494
1271,-0.160391,0.983878,-0.079099,-0.009271,0.007104,0.0241669999999999
1272,-0.160434,0.983879,-0.078998,-0.00842,0.008385,0.029712
1273,-0.160472,0.983885,-0.078848,-0.011525,0.0091569999999999,0.028097
1274,-0.160485,0.983898,-0.07866,-0.011222,0.008503,0.030503
1275,-0.160458,0.983921,-0.078424,-0.013248,0.008862,0.031137
1276,-0.160461,0.983939,-0.078192,-0.010575,0.0104,0.029608
1277,-0.160493,0.983947,-0.078029,-0.010268,0.010728,0.030056
1278,-0.160557,0.983944,-0.077936,-0.006526,0.007389,0.028238
1279,-0.160606,0.983938,-0.077909,-0.0056229999999999,0.00915,0.027372
1280,-0.160613,0.983937,-0.077911,-0.003007,0.008373,0.02858
1281,-0.160579,0.98394,-0.077944,0.0009109999999999,0.009728,0.027208
1282,-0.160505,0.983947,-0.078002,-0.001482,0.009049,0.027999
1283,-0.160412,0.983956,-0.07808,-0.002994,0.010657,0.031083
1284,-0.160305,0.983968,-0.078152,-0.005619,0.00822,0.0323139999999999
1285,-0.16019,0.983982,-0.078207,-0.005947,0.006222,0.032141
1286,-0.160066,0.983998,-0.078265,-0.008163,0.005931,0.032244
1287,-0.159951,0.984014,-0.078299,-0.008231,0.008036,0.0323699999999999
1288,-0.159832,0.984032,-0.078319,-0.0107,0.008583,0.03297
1289,-0.159738,0.984055,-0.078225,-0.007605,0.004913,0.032586
1290,-0.159664,0.984079,-0.078071,-0.0045509999999999,0.0032869999999999,0.030143
1291,-0.159546,0.984112,-0.077897,-0.004928,0.007343,0.028932
1292,-0.159435,0.984137,-0.07781,-0.003529,0.00976,0.0272579999999999
1293,-0.159352,0.984151,-0.0778,-0.001048,0.009746,0.025874
1294,-0.159296,0.984158,-0.077818,-0.007711,0.007129,0.025252
1295,-0.15922,0.984171,-0.077809,-0.00913,0.004446,0.026723
1296,-0.159139,0.984189,-0.0777549999999999,-0.009882,0.005328,0.027462
1297,-0.159117,0.984204,-0.077614,-0.010713,0.008686,0.026025
1298,-0.159134,0.984209,-0.077508,-0.00975,0.008878,0.028664
1299,-0.159151,0.984215,-0.077396,-0.009016,0.010627,0.026081
1300,-0.159114,0.984225,-0.077344,-0.0109,0.008527,0.0262269999999999
1301,-0.159028,0.984239,-0.077336,-0.006926,0.008803,0.0262959999999999
1302,-0.158901,0.984254,-0.077417,-0.003757,0.005065,0.026193
1303,-0.1587869999999999,0.984262,-0.077546,-0.0037649999999999,0.00495,0.023759
1304,-0.158701,0.984268,-0.077651,-0.003897,0.005952,0.023315
1305,-0.158618,0.984277,-0.077703,-0.0066349999999999,0.009345,0.026372
1306,-0.1585339999999999,0.984292,-0.077678,-0.006047,0.007819,0.024745
1307,-0.158458,0.984309,-0.0776179999999999,-0.00684,0.006703,0.028866
1308,-0.158379,0.984332,-0.077496,-0.0085519999999999,0.009336,0.0266839999999999
1309,-0.158358,0.98435,-0.077309,-0.00897,0.0067849999999999,0.027093
1310,-0.158347,0.984368,-0.077102,-0.005838,0.006385,0.0262899999999999
1311,-0.158341,0.984391,-0.076825,-0.007079,0.007888,0.02731
1312,-0.158322,0.984421,-0.076475,-0.006854,0.005508,0.024596
1313,-0.158304,0.984451,-0.076119,-0.007726,0.0089719999999999,0.024544
1314,-0.1582829999999999,0.984473,-0.075885,-0.008846,0.011346,0.0228449999999999
1315,-0.1582329999999999,0.984484,-0.075844,-0.007187,0.008497,0.0247569999999999
1316,-0.158158,0.984489,-0.075938,-0.008849,0.008385,0.024684
1317,-0.158039,0.984495,-0.076115,-0.005764,0.0070209999999999,0.025105
1318,-0.157904,0.984501,-0.076316,-0.004801,0.006069,0.0262519999999999
1319,-0.157752,0.984513,-0.076475,-0.008706,0.006118,0.026427
1320,-0.157619,0.984529,-0.076546,-0.00948,0.0065299999999999,0.027016
1321,-0.157548,0.984544,-0.076489,-0.009276,0.0072459999999999,0.030621
1322,-0.157487,0.984557,-0.07645,-0.009337,0.007233,0.030583
1323,-0.157396,0.984573,-0.07643,-0.008482,0.008743,0.027754
1324,-0.157271,0.984591,-0.076467,-0.005967,0.005659,0.024648
1325,-0.157131,0.984605,-0.076569,-0.008259,0.007003,0.025391
1326,-0.156953,0.984626,-0.0766559999999999,-0.010039,0.007821,0.026119
1327,-0.156798,0.984646,-0.0767159999999999,-0.007111,0.008625,0.023982
1328,-0.156693,0.984658,-0.076774,9.2e-05,0.006873,0.025322
1329,-0.156673,0.98466,-0.076789,0.003917,0.008931,0.023277
1330,-0.156674,0.984663,-0.076747,0.00311,0.014452,0.023036
1331,-0.156697,0.984666,-0.076661,0.0019579999999999,0.0159139999999999,0.023591
1332,-0.156691,0.984672,-0.0766039999999999,0.001127,0.0096519999999999,0.0226789999999999
1333,-0.156617,0.984678,-0.076678,-0.007064,0.003848,0.025118
1334,-0.156431,0.984698,-0.076799,-0.014803,0.005994,0.025697
1335,-0.1562079999999999,0.984716,-0.077023,-0.022793,0.0037939999999999,0.031353
1336,-0.156018,0.984715,-0.077419,-0.022769,0.0050009999999999,0.031429
1337,-0.155894,0.984703,-0.077819,-0.023198,0.005058,0.0326529999999999
1338,-0.155836,0.984684,-0.07818,-0.023638,0.007244,0.034372
1339,-0.1558369999999999,0.984663,-0.078445,-0.020662,0.0033439999999999,0.038406
1340,-0.155813,0.984655,-0.078592,-0.019221,0.001612,0.0393
1341,-0.155743,0.984669,-0.078556,-0.0152319999999999,0.00494,0.033969
1342,-0.155564,0.984711,-0.0783809999999999,-0.01567,0.003952,0.032742
1343,-0.15535,0.984761,-0.078174,-0.007949,0.00999,0.026645
1344,-0.155093,0.984807,-0.078112,-0.008634,0.012736,0.022829
1345,-0.154841,0.984841,-0.078187,-0.005987,0.014717,0.021195
1346,-0.154613,0.98486,-0.078395,-0.001133,0.008808,0.017863
1347,-0.154377,0.984874,-0.078683,-0.000164,0.005956,0.0164729999999999
1348,-0.154132,0.984887,-0.078994,-0.000271,0.009726,0.01773
1349,-0.1539,0.984899,-0.0793059999999999,0.000915,0.012553,0.015021
1350,-0.15369,0.984904,-0.079647,0.001789,0.012136,0.019252
1351,-0.153437,0.984911,-0.080051,0.000254,0.009062,0.021945
1352,-0.1531829999999999,0.984913,-0.0805029999999999,-0.002441,0.007061,0.023175
1353,-0.152947,0.984917,-0.0809,-0.0034549999999999,0.006309,0.021925
1354,-0.152765,0.984925,-0.081157,-0.003302,0.007217,0.022715
1355,-0.1526549999999999,0.984926,-0.081341,-0.004129,0.006666,0.025418
1356,-0.152569,0.984933,-0.081424,-0.005893,0.0065379999999999,0.025439
1357,-0.152495,0.984942,-0.081455,-0.0054789999999999,0.007856,0.026661
1358,-0.152448,0.984952,-0.081421,-0.00487,0.009036,0.0265959999999999
1359,-0.152453,0.984954,-0.081385,-0.005185,0.01056,0.026667
1360,-0.152517,0.984939,-0.081443,-0.004588,0.0068819999999999,0.026817
1361,-0.1526,0.984912,-0.081619,-0.003559,0.008084,0.027252
1362,-0.152701,0.984882,-0.081797,-0.004342,0.006894,0.026545
1363,-0.152817,0.984852,-0.081933,-0.0053549999999999,0.009594,0.0294889999999999
1364,-0.152934,0.984826,-0.0820309999999999,-0.004385,0.008903,0.028229
1365,-0.15297,0.984809,-0.082171,-0.006149,0.0074849999999999,0.026888
1366,-0.152975,0.984795,-0.082329,-0.008737,0.005012,0.027962
1367,-0.152993,0.984776,-0.082521,-0.00872,0.005031,0.028154
1368,-0.153059,0.984756,-0.082632,-0.0069299999999999,0.010269,0.02767
1369,-0.153128,0.984739,-0.082702,-0.008081,0.012255,0.025954
1370,-0.153215,0.984718,-0.082799,-0.007994,0.012276,0.0260509999999999
1371,-0.153313,0.984688,-0.082966,-0.006919,0.008262,0.025562
1372,-0.15333,0.984664,-0.083228,-0.007055,0.004991,0.025855
1373,-0.1532339999999999,0.984654,-0.083525,-0.0095319999999999,0.0019649999999999,0.0271129999999999
1374,-0.153075,0.984657,-0.083772,-0.008775,0.002296,0.027513
1375,-0.152902,0.984675,-0.0838759999999999,-0.013037,0.010152,0.027724
1376,-0.152766,0.984689,-0.083953,-0.011906,0.0091,0.029296
1377,-0.152676,0.984693,-0.084074,-0.010166,0.007845,0.025037
1378,-0.152586,0.984692,-0.084249,-0.011751,0.009128,0.0262959999999999
1379,-0.152447,0.984698,-0.084428,-0.012348,0.006803,0.02675
1380,-0.152293,0.984713,-0.084535,-0.0113879999999999,0.00662,0.027268
1381,-0.152131,0.984735,-0.084576,-0.009886,0.007758,0.027737
1382,-0.151936,0.98476,-0.08463,-0.009762,0.007793,0.023381
1383,-0.151759,0.984777,-0.084746,-0.007909,0.008921,0.025099
1384,-0.151592,0.984791,-0.0848889999999999,-0.008564,0.007091,0.0289959999999999
1385,-0.151401,0.984811,-0.084997,-0.012081,0.005942,0.029669
1386,-0.151158,0.984851,-0.08497,-0.0160319999999999,0.008619,0.0263149999999999
1387,-0.150844,0.984909,-0.084853,-0.015171,0.008499,0.028411
1388,-0.15052,0.984968,-0.084738,-0.014764,0.008944,0.025213
1389,-0.150219,0.985015,-0.084725,-0.015903,0.010117,0.025155
1390,-0.1499589999999999,0.985046,-0.084826,-0.013402,0.00882,0.0269339999999999
1391,-0.149694,0.985071,-0.084999,-0.01565,0.0082,0.024239
1392,-0.149409,0.985096,-0.085215,-0.015081,0.009212,0.0270639999999999
1393,-0.149034,0.985125,-0.0855419999999999,-0.0157,0.010572,0.028504
1394,-0.148522,0.985162,-0.086004,-0.016746,0.010184,0.02976
1395,-0.147957,0.985199,-0.086548,-0.016258,0.007293,0.03215
1396,-0.147388,0.985238,-0.087075,-0.018246,0.003867,0.0339589999999999
1397,-0.146945,0.985256,-0.08762,-0.018445,0.003941,0.036946
1398,-0.146871,0.985207,-0.088296,-0.028941,0.007423,0.033212
1399,-0.147321,0.985079,-0.0889669999999999,-0.025271,0.008085,0.0257649999999999
1400,-0.148263,0.984885,-0.0895519999999999,-0.016196,0.004236,0.0309279999999999
1401,-0.149455,0.984638,-0.090279,-0.012258,-0.000156,0.027642
1402,-0.150691,0.984381,-0.091017,-0.015538,0.011438,0.024794
1403,-0.151902,0.984135,-0.091662,-0.004409,0.01318,0.024386
1404,-0.152929,0.983921,-0.092241,0.0101219999999999,0.009212,0.021562
1405,-0.153552,0.983768,-0.092838,0.016116,0.00314,0.0223419999999999
1406,-0.153658,0.98369,-0.093477,0.008944,0.009215,0.027223
1407,-0.153344,0.983686,-0.094034,-0.003669,0.014086,0.028086
1408,-0.152816,0.983729,-0.094434,-0.0067909999999999,0.006765,0.028455
1409,-0.152177,0.983815,-0.094574,-0.005859,0.005611,0.028885
1410,-0.151366,0.98395,-0.094463,-0.009415,0.007245,0.017711
1411,-0.15053,0.984095,-0.094292,-0.007917,0.007467,0.016564
1412,-0.149692,0.984223,-0.094296,-0.005582,0.009902,0.016156
1413,-0.148946,0.984322,-0.094444,-0.003413,0.00724,0.01908
1414,-0.148278,0.984408,-0.094601,0.00953,0.00778,0.0164449999999999
1415,-0.147534,0.984507,-0.094732,0.00848,0.011251,0.016744
1416,-0.146779,0.984616,-0.09477,0.0062,0.012072,0.016935
1417,-0.146033,0.984725,-0.094799,0.005546,0.008043,0.02583
1418,-0.145346,0.984831,-0.094751,8.2e-05,0.00754,0.026819
1419,-0.144752,0.984929,-0.094639,0.000343,0.009928,0.028263
1420,-0.144274,0.985015,-0.094481,-0.006208,0.007295,0.020293
1421,-0.144017,0.985053,-0.094472,-0.012386,0.009118,0.0189569999999999
1422,-0.143997,0.985039,-0.09465,-0.012253,0.009529,0.018463
1423,-0.144208,0.984984,-0.094901,-0.003237,0.0054789999999999,0.0258699999999999
1424,-0.144506,0.984918,-0.095141,-0.001749,0.00582,0.025866
1425,-0.144761,0.98487,-0.095249,0.002366,0.006784,0.024906
1426,-0.144915,0.984849,-0.09523,0.0090049999999999,0.008406,0.020478
1427,-0.144923,0.984854,-0.095173,0.006556,0.012629,0.02219
1428,-0.144837,0.984874,-0.095091,0.004838,0.012135,0.017698
1429,-0.144671,0.984898,-0.095096,-8.9e-05,0.0097159999999999,0.01807
1430,-0.144447,0.984916,-0.095245,-0.004418,0.0095599999999999,0.020721
1431,-0.144247,0.984918,-0.095533,-0.009531,0.006812,0.024396
1432,-0.144147,0.984897,-0.095899,-0.009784,0.0066799999999999,0.0272649999999999
1433,-0.1441349999999999,0.984871,-0.0961809999999999,-0.0082239999999999,0.006096,0.026846
1434,-0.144165,0.984851,-0.096341,-0.0089719999999999,0.004483,0.024899
1435,-0.144257,0.984829,-0.096429,-0.006744,0.002873,0.0230949999999999
1436,-0.144386,0.984811,-0.096413,-0.005135,0.006171,0.0229419999999999
1437,-0.1445519999999999,0.984801,-0.096271,-0.005548,0.004213,0.022067
1438,-0.144773,0.984791,-0.096034,-0.00844,0.006923,0.023036
1439,-0.145038,0.984781,-0.0957399999999999,-0.007428,0.00849,0.022162
1440,-0.145334,0.984771,-0.0953919999999999,-0.00968,0.010773,0.023477
1441,-0.145629,0.984758,-0.095074,-0.010376,0.010267,0.018948
1442,-0.1459099999999999,0.984739,-0.094841,-0.0094849999999999,0.009829,0.020714
1443,-0.1461329999999999,0.984712,-0.094779,-0.010575,0.008101,0.0227729999999999
1444,-0.146325,0.984673,-0.0948929999999999,-0.009086,0.003761,0.021834
1445,-0.146477,0.98464,-0.095001,-0.011222,0.0078219999999999,0.021911
1446,-0.1466299999999999,0.984618,-0.094996,-0.012748,0.012315,0.022914
1447,-0.146774,0.984597,-0.094988,-0.007493,0.010017,0.027148
1448,-0.146932,0.984568,-0.095036,-0.009043,0.0068709999999999,0.0274089999999999
1449,-0.147038,0.984543,-0.095133,-0.01295,0.006088,0.024256
1450,-0.147058,0.984533,-0.095217,-0.013968,0.006434,0.02138
1451,-0.147009,0.984528,-0.095343,-0.014124,0.006653,0.02265
1452,-0.146994,0.984525,-0.0953929999999999,-0.0124,0.0049159999999999,0.023036
1453,-0.147043,0.984522,-0.095342,-0.011053,0.0035909999999999,0.024038
1454,-0.147058,0.984539,-0.095145,-0.012534,0.005115,0.027274
1455,-0.147072,0.984562,-0.094884,-0.01075,0.0120349999999999,0.028982
1456,-0.146984,0.984584,-0.094798,-0.014637,0.0147139999999999,0.026728
1457,-0.146784,0.984596,-0.094981,-0.015371,0.009972,0.029048
1458,-0.146497,0.984599,-0.095394,-0.0202819999999999,0.008184,0.031581
1459,-0.146139,0.984607,-0.095856,-0.027673,0.006726,0.030792
1460,-0.145714,0.984635,-0.096216,-0.030342,0.003875,0.031458
1461,-0.145292,0.984685,-0.096346,-0.034456,0.001246,0.025454
1462,-0.144894,0.984749,-0.096292,-0.035129,0.006065,0.020731
1463,-0.144574,0.984816,-0.096098,-0.032001,0.007265,0.018706
1464,-0.144413,0.984862,-0.095863,-0.02673,0.00644,0.019508
1465,-0.144331,0.984888,-0.095728,-0.019808,0.008215,0.020899
1466,-0.14414,0.984919,-0.095696,-0.020213,0.01026,0.0208819999999999
1467,-0.143772,0.984964,-0.095778,-0.017987,0.0124269999999999,0.02014
1468,-0.143202,0.985028,-0.095972,-0.0151379999999999,0.009143,0.020746
1469,-0.14237,0.985117,-0.09629,-0.016443,0.009725,0.022666
1470,-0.141445,0.985203,-0.096773,-0.016072,0.013897,0.022097
1471,-0.140621,0.98526,-0.097393,-0.0185889999999999,0.008789,0.027371
1472,-0.139881,0.985295,-0.098099,-0.016827,0.00555,0.02974
1473,-0.139229,0.985327,-0.098705,-0.017586,0.005182,0.0328629999999999
1474,-0.138649,0.985365,-0.099135,-0.008568,0.005922,0.033797
1475,-0.1380839999999999,0.985415,-0.099428,-0.000999,0.00958,0.034045
1476,-0.137521,0.985474,-0.099616,0.0018399999999999,0.005874,0.030387
1477,-0.136866,0.985542,-0.09985,0.0027719999999999,0.010827,0.028393
1478,-0.136117,0.985613,-0.100165,0.0047079999999999,0.013182,0.02445
1479,-0.1353329999999999,0.985675,-0.100613,0.013934,0.017529,0.030956
1480,-0.13448,0.985711,-0.101401,0.010915,0.019202,0.034842
1481,-0.133705,0.985706,-0.102472,0.010689,0.013027,0.034265
1482,-0.13313,0.985683,-0.103438,0.014187,-0.003536,0.032393
1483,-0.132816,0.985638,-0.104269,0.01424,0.012348,0.029806
1484,-0.132775,0.985592,-0.104753,0.011422,0.015781,0.0264
1485,-0.132913,0.985558,-0.104903,0.00596,0.010826,0.016662
1486,-0.133207,0.985508,-0.104996,0.005277,0.001232,0.013444
1487,-0.133541,0.985453,-0.105093,0.006375,0.0030269999999999,0.014761
1488,-0.133605,0.985421,-0.1053089999999999,0.00746,0.007484,0.0258569999999999
1489,-0.133425,0.985401,-0.105719,0.008944,0.00671,0.024786
1490,-0.1330609999999999,0.9854,-0.106188,0.009511,0.005613,0.024233
1491,-0.1325309999999999,0.985419,-0.106668,0.006584,0.005822,0.021585
1492,-0.131854,0.985451,-0.1072109999999999,-0.001264,0.008491,0.016955
1493,-0.131167,0.985482,-0.107764,-0.008496,0.0116189999999999,0.013862
1494,-0.130515,0.98549,-0.1084849999999999,-0.015771,0.012481,0.017496
1495,-0.129895,0.985463,-0.109465,-0.019961,0.014811,0.025252
1496,-0.12935,0.985417,-0.110524,-0.020705,0.012249,0.025899
1497,-0.128918,0.985353,-0.11159,-0.025074,0.004469,0.024218
1498,-0.128459,0.985299,-0.1125859999999999,-0.031286,0.002799,0.020636
1499,-0.127897,0.98527,-0.113471,-0.033968,0.003499,0.02349
1500,-0.127298,0.985256,-0.114265,-0.036627,0.007862,0.0240389999999999
1501,-0.126813,0.985232,-0.115001,-0.0299709999999999,0.010129,0.022335
1502,-0.12654,0.985201,-0.115573,-0.022813,0.008314,0.019458
1503,-0.126359,0.985167,-0.1160559999999999,-0.021194,0.002885,0.017911
1504,-0.126176,0.985138,-0.116494,-0.0125569999999999,0.005264,0.013375
1505,-0.125962,0.985119,-0.1168849999999999,-0.007049,0.008167,0.009128
1506,-0.1257839999999999,0.985108,-0.117166,-0.0034119999999999,0.008452,0.008386
1507,-0.125514,0.985106,-0.117476,-0.005391,0.012392,0.009947
1508,-0.12519,0.985102,-0.117849,-0.0035329999999999,0.015691,0.011236
1509,-0.124831,0.985098,-0.1182609999999999,-0.001802,0.007654,0.011648
1510,-0.124488,0.985098,-0.118616,-0.0024649999999999,0.0086909999999999,0.014368
1511,-0.1241599999999999,0.985104,-0.118913,-0.001114,0.006016,0.016313
1512,-0.1238539999999999,0.985111,-0.119175,-0.0052049999999999,0.002239,0.0137669999999999
1513,-0.123677,0.985115,-0.1193299999999999,-0.002392,0.009743,0.009543
1514,-0.123581,0.985117,-0.119413,-0.000549,0.010748,0.007261
1515,-0.123489,0.985113,-0.119541,0.000884,0.010294,0.009021
1516,-0.123374,0.985114,-0.119649,0.005469,0.009042,0.011998
1517,-0.123126,0.98513,-0.119773,0.004306,0.020699,0.0158759999999999
1518,-0.122891,0.985149,-0.119859,0.003567,0.008656,0.0191509999999999
1519,-0.122792,0.985153,-0.119932,0.002248,0.011353,0.014509
1520,-0.122722,0.985159,-0.11995,0.0030629999999999,0.009668,0.012925
1521,-0.1226119999999999,0.985173,-0.119947,0.004875,0.0074569999999999,0.016737
1522,-0.1225339999999999,0.985183,-0.119949,0.002707,0.011155,0.016327
1523,-0.122528,0.985185,-0.11994,0.00206,0.0092459999999999,0.018484
1524,-0.1225779999999999,0.985191,-0.119838,0.002064,0.0067069999999999,0.020122
1525,-0.122666,0.985204,-0.119643,0.004761,0.007487,0.020537
1526,-0.122719,0.985226,-0.119402,0.006081,0.008853,0.018724
1527,-0.122748,0.985244,-0.119228,0.000159,0.011491,0.021526
1528,-0.122824,0.985242,-0.119167,0.0004019999999999,0.011814,0.022502
1529,-0.122989,0.985223,-0.119153,-0.001187,0.011237,0.026806
1530,-0.123208,0.985207,-0.119059,-0.00225,0.0051189999999999,0.02653
1531,-0.123453,0.985202,-0.118845,-0.002035,0.009458,0.023249
1532,-0.123731,0.985199,-0.118576,-0.001941,0.007553,0.021942
1533,-0.123998,0.985199,-0.1183029999999999,-0.004145,0.009461,0.020174
1534,-0.124271,0.985191,-0.118084,-0.005307,0.006981,0.022808
1535,-0.12457,0.985176,-0.117897,-0.005664,0.007653,0.022194
1536,-0.124855,0.985168,-0.1176599999999999,-0.006676,0.0112769999999999,0.022354
1537,-0.125131,0.985158,-0.117448,-0.005286,0.009043,0.023149
1538,-0.125372,0.985146,-0.117293,-0.006692,0.008933,0.022124
1539,-0.125539,0.985137,-0.11719,-0.006892,0.009446,0.022448
1540,-0.125694,0.985122,-0.117151,-0.010201,0.008362,0.0219819999999999
1541,-0.125856,0.985106,-0.117119,-0.011091,0.007585,0.021752
1542,-0.126044,0.985092,-0.117029,-0.009698,0.008484,0.022501
1543,-0.126244,0.985092,-0.116815,-0.0096049999999999,0.008026,0.018091
1544,-0.126464,0.985093,-0.116573,-0.009385,0.008026,0.017849
1545,-0.126682,0.985098,-0.116293,-0.01234,0.0077459999999999,0.02033
1546,-0.12688,0.985102,-0.116042,-0.012311,0.007543,0.020186
1547,-0.127052,0.985106,-0.115823,-0.0152819999999999,0.00847,0.021402
1548,-0.127207,0.98511,-0.115614,-0.008246,0.010693,0.021712
1549,-0.1273,0.985117,-0.1154569999999999,-0.010091,0.009695,0.019831
1550,-0.127371,0.985128,-0.1152859999999999,-0.007044,0.008387,0.016134
1551,-0.1274279999999999,0.985141,-0.1151079999999999,-0.0066359999999999,0.00932,0.018916
1552,-0.127429,0.985151,-0.115024,-0.003858,0.006335,0.019062
1553,-0.127365,0.985157,-0.11504,-0.003921,0.00967,0.015507
1554,-0.127272,0.985165,-0.115072,-0.005327,0.011722,0.013525
1555,-0.1271769999999999,0.985166,-0.115168,-0.004873,0.007631,0.015665
1556,-0.127076,0.985162,-0.115317,-0.005843,0.0076359999999999,0.020727
1557,-0.126995,0.985156,-0.115453,-0.009556,0.008465,0.020315
1558,-0.126975,0.985151,-0.115518,-0.014261,0.009829,0.024332
1559,-0.127014,0.985151,-0.1154829999999999,-0.012192,0.007861,0.024281
1560,-0.127107,0.985147,-0.1154119999999999,-0.013243,0.006659,0.023356
1561,-0.127263,0.985135,-0.115338,-0.010753,0.007601,0.022672
1562,-0.127458,0.985119,-0.115257,-0.011443,0.008258,0.023186
1563,-0.127673,0.985109,-0.115105,-0.011258,0.007856,0.022423
1564,-0.12787,0.985101,-0.114954,-0.011092,0.0091,0.021356
1565,-0.128019,0.985091,-0.11488,-0.01224,0.009965,0.020779
1566,-0.128143,0.985071,-0.114909,-0.009217,0.0069019999999999,0.017664
1567,-0.128261,0.985048,-0.11498,-0.010563,0.006987,0.020361
1568,-0.128408,0.985023,-0.1150289999999999,-0.009715,0.007378,0.020318
1569,-0.128604,0.984999,-0.1150119999999999,-0.011395,0.01114,0.022131
1570,-0.12882,0.984976,-0.114973,-0.0097,0.00944,0.019285
1571,-0.129091,0.984947,-0.114915,-0.009428,0.007942,0.019563
1572,-0.129393,0.984922,-0.114795,-0.009554,0.00635,0.019214
1573,-0.129657,0.984902,-0.1146609999999999,-0.009701,0.006736,0.016395
1574,-0.12992,0.984884,-0.114522,-0.008645,0.006205,0.015401
1575,-0.130196,0.984868,-0.114344,-0.006142,0.010539,0.017786
1576,-0.130455,0.984852,-0.114184,-0.006295,0.007442,0.016421
1577,-0.130677,0.984836,-0.114074,-0.005569,0.007901,0.017059
1578,-0.130864,0.984823,-0.113967,-0.004695,0.008936,0.017882
1579,-0.1310339999999999,0.984808,-0.1139039999999999,-0.006417,0.009668,0.01878
1580,-0.131195,0.984788,-0.11389,-0.004929,0.008223,0.018614
1581,-0.131354,0.984766,-0.113898,-0.00715,0.0044,0.020377
1582,-0.131501,0.984749,-0.113878,-0.008025,0.008263,0.018206
1583,-0.131668,0.984732,-0.113829,-0.008453,0.010278,0.019667
1584,-0.131813,0.984723,-0.113742,-0.007164,0.008182,0.0177039999999999
1585,-0.132022,0.984707,-0.11364,-0.006375,0.005787,0.017753
1586,-0.13227,0.984693,-0.113475,-0.0078049999999999,0.00664,0.016353
1587,-0.132579,0.984695,-0.113094,-0.00649,0.005539,0.011211
1588,-0.132993,0.984707,-0.112496,0.007337,0.009174,0.006157
1589,-0.133496,0.984707,-0.1119059999999999,0.00784,0.009174,0.005567
1590,-0.134043,0.984691,-0.111392,0.015543,0.011479,0.011218
1591,-0.134589,0.984666,-0.11095,0.0136169999999999,0.009078,0.014759
1592,-0.135131,0.984643,-0.110499,0.016357,0.009177,0.012034
1593,-0.135623,0.984632,-0.109991,0.018817,0.010516,0.015615
1594,-0.136053,0.984627,-0.109507,0.015096,0.011818,0.018183
1595,-0.136496,0.98461,-0.109097,0.012823,0.009744,0.017376
1596,-0.13692,0.984592,-0.108731,0.0104549999999999,0.010281,0.020886
1597,-0.1373339999999999,0.984575,-0.1083609999999999,0.008962,0.008483,0.0210349999999999
1598,-0.137768,0.984564,-0.107902,0.007443,0.009241,0.020805
1599,-0.1382,0.984577,-0.107233,0.002137,0.0062829999999999,0.01304
1600,-0.138698,0.984589,-0.106474,-0.001271,0.006866,0.011137
1601,-0.139259,0.984589,-0.105746,-0.000649,0.008255,0.0067319999999999
1602,-0.139888,0.984574,-0.105045,0.000683,0.004836,0.00777
1603,-0.140615,0.984536,-0.1044349999999999,0.002553,0.005561,0.008243
1604,-0.141397,0.98449,-0.103816,0.00126,0.00727,0.011347
1605,-0.142198,0.984441,-0.1031849999999999,0.001253,0.007349,0.0129439999999999
1606,-0.1429609999999999,0.9844,-0.102525,-0.002547,0.006155,0.017335
1607,-0.143651,0.984368,-0.101873,-0.003123,0.0051189999999999,0.0210479999999999
1608,-0.144287,0.984343,-0.101213,-0.006775,0.008836,0.021333
1609,-0.14492,0.984321,-0.1005279999999999,-0.00628,0.005883,0.019168
1610,-0.145597,0.984293,-0.0998179999999999,-0.00484,0.004369,0.016932
1611,-0.146306,0.984267,-0.099039,0.004185,0.005418,0.011011
1612,-0.147079,0.984227,-0.09829,0.006164,0.008235,0.008522
1613,-0.1478799999999999,0.984174,-0.097622,0.007515,0.011523,0.010144
1614,-0.148489,0.984134,-0.0971009999999999,0.010717,0.014752,0.008981
1615,-0.148917,0.984109,-0.096703,0.015433,0.011725,0.009667
1616,-0.1492099999999999,0.984095,-0.0963929999999999,0.011774,0.011968,0.0099519999999999
1617,-0.149283,0.984107,-0.096164,0.008292,0.011529,0.009342
1618,-0.149152,0.984142,-0.096009,0.008527,0.009175,0.00351
1619,-0.1489089999999999,0.984182,-0.095974,0.0072159999999999,0.008509,0.005795
1620,-0.148535,0.98423,-0.096063,-0.000528,0.005058,0.011987
1621,-0.1481829999999999,0.984268,-0.096222,-0.0044659999999999,0.002823,0.020508
1622,-0.147931,0.984303,-0.096246,-0.009936,0.002437,0.022516
1623,-0.1478,0.984352,-0.095954,-0.015347,0.006691,0.022834
1624,-0.147794,0.984408,-0.095387,-0.014681,0.007994,0.016682
1625,-0.147946,0.984453,-0.094683,-0.010928,0.0083299999999999,0.015734
1626,-0.148127,0.984493,-0.093982,-0.015905,0.007115,0.017245
1627,-0.148283,0.984534,-0.0933,-0.020525,0.0024809999999999,0.019677
1628,-0.148411,0.984582,-0.092588,-0.019696,0.002662,0.0174229999999999
1629,-0.148491,0.984637,-0.0918679999999999,-0.025596,0.005063,0.017207
1630,-0.148553,0.9847,-0.091095,-0.0139379999999999,0.004604,0.01413
1631,-0.148524,0.984774,-0.090334,-0.0159349999999999,0.003385,0.009951
1632,-0.148313,0.984895,-0.089352,-0.0094939999999999,0.004866,0.001415
1633,-0.147704,0.985097,-0.088126,0.008117,0.006923,0.017096
1634,-0.146372,0.985394,-0.087024,0.0067849999999999,0.006626,0.015994
1635,-0.1446069999999999,0.985752,-0.0859149999999999,0.00534,0.011212,0.027306
1636,-0.14259,0.986172,-0.08445,0.000424,0.00275,0.022011
1637,-0.140728,0.986589,-0.082684,-0.011692,0.008025,0.016858
1638,-0.139426,0.986885,-0.0813509999999999,-0.017953,0.014244,0.015555
1639,-0.138873,0.987003,-0.080863,-0.030271,0.025571,0.0241919999999999
1640,-0.139006,0.986989,-0.080796,-0.0246139999999999,0.013362,0.034684
1641,-0.139552,0.986941,-0.080433,-0.017644,-0.002002,0.047398
1642,-0.140407,0.986922,-0.079165,-0.0159349999999999,-0.005645,0.064837
1643,-0.141397,0.986959,-0.076912,-0.012503,-0.019185,0.063988
1644,-0.142441,0.98701,-0.074285,-0.007629,-0.033046,0.069464
1645,-0.143537,0.987065,-0.071383,-0.039248,0.095638,0.055666
1646,-0.144419,0.987146,-0.068428,-0.049871,0.095343,0.056694
1647,-0.144668,0.987274,-0.066004,-0.049943,0.041474,0.077677
1648,-0.144072,0.987435,-0.0648909999999999,-0.0399949999999999,-0.014474,0.112422
1649,-0.143057,0.987582,-0.064901,-0.041162,-0.030337,0.119238
1650,-0.142287,0.987721,-0.064465,-0.050858,-0.019215,0.111279
1651,-0.141975,0.987868,-0.0628799999999999,-0.056161,-0.011,0.095839
1652,-0.142003,0.988015,-0.060459,-0.058284,-0.003609,0.065342
1653,-0.1426079999999999,0.988098,-0.057609,-0.040268,-0.003021,0.045204
1654,-0.143879,0.988063,-0.05497,-0.008495,-0.033809,0.047173
1655,-0.145574,0.987945,-0.052589,0.002492,-0.034316,0.048438
1656,-0.147454,0.987792,-0.050166,0.001992,0.0033729999999999,0.039699
1657,-0.149449,0.987618,-0.047621,-0.018672,0.027488,0.017958
1658,-0.151508,0.987425,-0.045042,-0.023037,0.041857,0.005675
1659,-0.153999,0.987134,-0.042923,0.002601,0.05646,0.002777
1660,-0.156951,0.986725,-0.041604,0.031875,0.021331,0.005425
1661,-0.159959,0.986287,-0.04052,0.047562,0.008036,0.0071489999999999
1662,-0.16237,0.985933,-0.039541,0.0645299999999999,0.009414,0.022665
1663,-0.163718,0.98572,-0.039277,0.043936,0.037778,0.022111
1664,-0.164155,0.985631,-0.039706,0.024247,0.044445,0.009966
1665,-0.163995,0.985615,-0.040748,-0.002616,0.019955,0.009987
1666,-0.163639,0.985601,-0.042463,-0.006023,0.000391,0.025587
1667,-0.16327,0.985562,-0.044738,-0.013763,-0.004391,0.044555
1668,-0.163164,0.985456,-0.047373,-0.0313709999999999,-0.001279,0.056589
1669,-0.163529,0.985267,-0.049982,-0.032684,0.006448,0.040826
1670,-0.164413,0.985027,-0.051782,-0.023438,0.00475,0.029672
1671,-0.165774,0.984781,-0.052118,0.0013,-0.010492,-0.006995
1672,-0.167102,0.984586,-0.051557,0.022906,-0.008756,-0.019732
1673,-0.168244,0.98444,-0.050622,0.036255,-0.007725,-0.022971
1674,-0.169186,0.984328,-0.049661,0.05502,0.012209,-0.031287
1675,-0.169868,0.98424,-0.049073,0.059409,0.031935,-0.036468
1676,-0.170164,0.984187,-0.049104,0.055022,0.03275,-0.035139
1677,-0.170031,0.984178,-0.049733,0.040851,0.028975,-0.021922
1678,-0.16963,0.984198,-0.0507,0.028685,0.019464,-0.005117
1679,-0.169122,0.984229,-0.051789,0.011224,0.007531,0.0128479999999999
1680,-0.168572,0.984272,-0.052765,-0.007301,-0.002094,0.023102
1681,-0.168034,0.98433,-0.0534039999999999,-0.016155,0.006622,0.0248539999999999
1682,-0.1676119999999999,0.984392,-0.053582,-0.021307,0.002867,0.020455
1683,-0.167399,0.984442,-0.053335,-0.0136,-0.010031,0.012747
1684,-0.167376,0.98447,-0.052894,-0.000105,0.006726,0.01493
1685,-0.167507,0.984475,-0.052388,0.004314,0.0113599999999999,0.0144699999999999
1686,-0.167699,0.98447,-0.0518649999999999,0.003087,0.01289,0.01355
1687,-0.167812,0.984474,-0.051425,0.0010949999999999,0.015496,0.013888
1688,-0.167709,0.984501,-0.0512419999999999,0.0006259999999999,0.0138819999999999,0.011066
1689,-0.167401,0.984552,-0.051271,-0.002368,0.008826,0.009126
1690,-0.166943,0.984621,-0.051438,-0.0065959999999999,0.007338,0.010804
1691,-0.166395,0.984695,-0.0517929999999999,-0.0094159999999999,0.008026,0.015568
1692,-0.165742,0.98478,-0.052278,-0.0146169999999999,0.00579,0.0226759999999999
1693,-0.1651,0.984871,-0.052604,-0.02095,0.00045,0.027259
1694,-0.1644779999999999,0.98497,-0.052688,-0.022625,0.0019379999999999,0.027938
1695,-0.163971,0.985059,-0.052607,-0.022827,0.000841,0.0255379999999999
1696,-0.163574,0.985133,-0.052464,-0.018692,0.008336,0.019459
1697,-0.16322,0.9852,-0.052321,-0.019046,0.00827,0.019316
1698,-0.162972,0.985245,-0.05225,-0.018058,0.010025,0.022572
1699,-0.1627839999999999,0.985267,-0.052412,-0.015805,0.006417,0.019972
1700,-0.162605,0.985276,-0.052788,-0.017189,0.0058119999999999,0.020501
1701,-0.162481,0.98528,-0.0531019999999999,-0.0147949999999999,0.008159,0.018159
1702,-0.162222,0.985317,-0.053203,-0.0068909999999999,0.007755,0.022182
1703,-0.161962,0.985358,-0.053238,0.0016989999999999,0.005258,0.022934
1704,-0.161689,0.985409,-0.053123,0.00109,0.004474,0.019936
1705,-0.161369,0.985474,-0.052881,-0.002144,0.008727,0.018244
1706,-0.160971,0.985554,-0.0526049999999999,-0.007547,0.007427,0.016258
1707,-0.160504,0.985641,-0.0523929999999999,-0.0140259999999999,0.013489,0.017069
1708,-0.160031,0.985725,-0.0522679999999999,-0.011737,0.00988,0.020469
1709,-0.159605,0.985797,-0.052209,-0.011431,0.006924,0.017496
1710,-0.159266,0.985849,-0.052265,-0.006612,0.00733,0.027255
1711,-0.158903,0.985894,-0.052535,-0.00989,0.011543,0.030181
1712,-0.158449,0.985942,-0.052994,-0.007643,0.012608,0.032486
1713,-0.157893,0.986003,-0.053527,-0.0079239999999999,0.009252,0.031951
1714,-0.157193,0.986084,-0.054085,-0.008029,0.00499,0.026588
1715,-0.156464,0.986172,-0.054596,-0.0079189999999999,0.00539,0.025208
1716,-0.155862,0.986246,-0.054977,0.001428,0.0028899999999999,0.02716
1717,-0.155444,0.986297,-0.055238,0.00278,0.002762,0.027681
1718,-0.155192,0.986328,-0.055402,0.003184,0.006241,0.031537
1719,-0.155013,0.986354,-0.055445,0.005813,0.011052,0.025934
1720,-0.154776,0.98639,-0.0554669999999999,0.007392,0.012588,0.0267649999999999
1721,-0.154348,0.986448,-0.055626,0.0080769999999999,0.007769,0.023323
1722,-0.153801,0.986515,-0.055958,0.007973,0.006848,0.023121
1723,-0.153249,0.986575,-0.056411,0.0074659999999999,0.011746,0.019393
1724,-0.152821,0.986613,-0.056915,0.009007,0.0055899999999999,0.020218
1725,-0.152544,0.986628,-0.057401,0.007464,0.006155,0.023191
1726,-0.152349,0.986631,-0.057862,0.006826,0.004367,0.0267339999999999
1727,-0.152185,0.986632,-0.058262,0.0106439999999999,0.0067,0.027424
1728,-0.152108,0.986628,-0.05853,0.011345,0.007711,0.027173
1729,-0.152015,0.986634,-0.058677,0.012123,0.008194,0.026115
1730,-0.151949,0.986635,-0.058827,0.012056,0.008192,0.026264
1731,-0.151884,0.986641,-0.058901,0.008878,0.012551,0.023745
1732,-0.151835,0.986642,-0.059002,0.011241,0.0079709999999999,0.025235
1733,-0.151811,0.986638,-0.059133,0.012498,0.007853,0.024419
1734,-0.1517599999999999,0.98664,-0.0592269999999999,0.009441,0.006035,0.02108
1735,-0.1517079999999999,0.986645,-0.059282,0.007498,0.008808,0.01993
1736,-0.151699,0.986643,-0.0593309999999999,0.0049549999999999,0.015645,0.0179639999999999
1737,-0.151807,0.986623,-0.0593879999999999,0.0033079999999999,0.0100959999999999,0.025727
1738,-0.151935,0.986599,-0.059472,0.0033909999999999,-0.00053,0.024605
1739,-0.152134,0.986571,-0.059424,0.001819,0.002397,0.023841
1740,-0.152334,0.986553,-0.059204,0.00411,0.0079379999999999,0.0188139999999999
1741,-0.152507,0.986538,-0.059008,0.000881,0.013996,0.018573
1742,-0.15261,0.986523,-0.058999,0.002388,0.015552,0.017815
1743,-0.152718,0.986493,-0.059211,-0.00228,0.00896,0.016136
1744,-0.152878,0.986452,-0.0594899999999999,-0.0046229999999999,0.009001,0.02003
1745,-0.153081,0.986405,-0.059746,-0.005046,0.006057,0.026619
1746,-0.153283,0.986361,-0.0599559999999999,-0.006186,-0.000521,0.024265
1747,-0.153489,0.986322,-0.060075,-0.0060409999999999,0.001975,0.021227
1748,-0.1537609999999999,0.986277,-0.060111,-0.009722,0.013265,0.022269
1749,-0.154078,0.986223,-0.060184,-0.005331,0.0037359999999999,0.019596
1750,-0.154356,0.986171,-0.0603299999999999,-0.006564,0.005559,0.020261
1751,-0.154613,0.986125,-0.060422,-0.00742,0.011967,0.022992
1752,-0.154867,0.986086,-0.060413,-0.004649,0.00218,0.021641
1753,-0.155072,0.986057,-0.060364,-0.002277,0.0035369999999999,0.016388
1754,-0.1552049999999999,0.986037,-0.0603419999999999,-0.0046,0.008607,0.01545
1755,-0.155192,0.986031,-0.0604899999999999,-0.0053,0.010597,0.012516
1756,-0.155064,0.98603,-0.0608309999999999,-0.006511,0.01574,0.014978
1757,-0.154814,0.98604,-0.0613,-0.005144,0.012907,0.0158139999999999
1758,-0.1544569999999999,0.986064,-0.06181,-8.4e-05,0.008428,0.015576
1759,-0.154042,0.986101,-0.0622519999999999,0.00414,0.01013,0.01968
1760,-0.153596,0.986149,-0.062591,0.004899,0.009334,0.017669
1761,-0.153226,0.98619,-0.062854,0.009717,0.013978,0.020862
1762,-0.152925,0.986218,-0.063145,0.006867,0.005405,0.0179639999999999
1763,-0.152559,0.986255,-0.063458,0.001588,0.00491,0.01524
1764,-0.151862,0.986339,-0.063829,-0.0039759999999999,0.014348,0.013032
1765,-0.15114,0.98642,-0.064284,-0.001173,0.008178,0.012526
1766,-0.15059,0.986468,-0.06483,-0.0040729999999999,0.00607,0.018336
1767,-0.150223,0.986488,-0.06538,-0.00769,0.00335,0.021999
1768,-0.150001,0.986487,-0.065907,-0.010705,0.006006,0.024326
1769,-0.150032,0.986447,-0.066433,-0.025689,0.007877,0.035824
1770,-0.150544,0.986339,-0.0668769999999999,-0.026748,0.00327,0.031767
1771,-0.151562,0.986169,-0.067076,-0.021808,0.001517,0.02899
1772,-0.153004,0.985951,-0.067006,-0.0233419999999999,0.004055,0.029088
1773,-0.154797,0.985667,-0.067053,-0.020283,0.008458,0.031622
1774,-0.15693,0.985313,-0.067301,-0.009833,0.006798,0.02981
1775,-0.15919,0.98494,-0.067455,-0.002385,0.004226,0.026424
1776,-0.1612299999999999,0.984612,-0.067389,0.013006,0.0038369999999999,0.016333
1777,-0.162736,0.984362,-0.067429,0.020189,0.015852,0.00885
1778,-0.163588,0.984198,-0.067756,0.02072,0.02157,0.007896
1779,-0.163821,0.984121,-0.0683,0.018359,0.010782,0.016298
1780,-0.163684,0.984103,-0.068897,0.019794,-0.005099,0.0176419999999999
1781,-0.1635059999999999,0.984098,-0.06938,0.019265,0.001986,0.01782
1782,-0.16343,0.984101,-0.069522,0.012017,0.010955,0.010928
1783,-0.1635349999999999,0.984098,-0.069322,0.011176,0.0154139999999999,0.011796
1784,-0.163804,0.98408,-0.068937,0.012269,0.013952,0.01486
1785,-0.164109,0.984059,-0.068509,0.013825,0.005305,0.019742
1786,-0.164339,0.984056,-0.068013,0.014757,0.006286,0.01624
1787,-0.164507,0.984064,-0.067483,0.012392,0.006338,0.009881
1788,-0.164682,0.984065,-0.067048,0.0104459999999999,0.014181,0.009843
1789,-0.164986,0.98403,-0.066807,0.0144419999999999,0.017908,0.01334
1790,-0.165326,0.983979,-0.066721,0.0164,0.011139,0.022746
1791,-0.165565,0.983941,-0.0666809999999999,0.014549,0.007026,0.024338
1792,-0.165616,0.983943,-0.066535,0.015958,5.1e-05,0.022788
1793,-0.165499,0.983977,-0.0663179999999999,0.016207,0.003602,0.022159
1794,-0.165179,0.984054,-0.065972,0.0109129999999999,0.005784,0.020669
