,gravity.x,gravity.y,gravity.z,userAcceleration.x,userAcceleration.y,userAcceleration.z
0,-0.01172,0.962864,0.269731,-0.021865,0.005535,-0.003022
1,-0.011823,0.962926,0.269507,-0.019824,0.008296,0.002832
2,-0.011978,0.962988,0.269276,-0.022721,0.005762,0.0016589999999999
3,-0.0120959999999999,0.963032,0.2691119999999999,-0.02161,0.006404,0.005607
4,-0.012256,0.96307,0.268969,-0.0178949999999999,0.0055119999999999,0.001447
5,-0.012342,0.963138,0.268721,-0.018039,0.006924,0.002153
6,-0.012366,0.963218,0.268434,-0.0191129999999999,0.006082,0.0030039999999999
7,-0.012421,0.963289,0.2681739999999999,-0.021072,0.002287,0.0057979999999999
8,-0.012495,0.963351,0.267949,-0.017748,0.002592,0.00558
9,-0.012581,0.963413,0.267723,-0.016457,0.005185,0.004372
10,-0.0127319999999999,0.963457,0.267558,-0.014474,0.00685,0.001317
11,-0.0128259999999999,0.963489,0.267439,-0.017127,0.004285,-0.001325
12,-0.01284,0.963504,0.267383,-0.016991,0.004605,-0.003467
13,-0.0129139999999999,0.963516,0.267339,-0.017497,0.005234,-0.002919
14,-0.012956,0.963539,0.267251,-0.018538,0.007423,-0.001458
15,-0.012962,0.963567,0.267151,-0.018471,0.004664,-0.0003509999999999
16,-0.0130229999999999,0.963599,0.267032,-0.019188,0.008645,-0.005603
17,-0.013074,0.96361,0.26699,-0.017963,0.0055969999999999,-0.00727
18,-0.013197,0.963631,0.266908,-0.017351,0.007026,-0.008897
19,-0.0133949999999999,0.963666,0.266773,-0.005801,0.0038179999999999,-0.005253
20,-0.0134939999999999,0.963715,0.266592,-0.011073,0.00621,-0.00112
21,-0.013481,0.963741,0.266499,-0.013481,0.007558,-0.001942
22,-0.0134169999999999,0.963769,0.266399,-0.018459,0.006552,-0.001186
23,-0.013299,0.963768,0.266408,-0.01676,0.0051649999999999,-0.00147
24,-0.013212,0.963748,0.266486,-0.01549,0.007612,0.000466
25,-0.013181,0.963741,0.2665119999999999,-0.019351,0.009663,-0.005861
26,-0.0131949999999999,0.96376,0.266445,-0.020344,0.007539,-0.00317
27,-0.0132419999999999,0.963761,0.266437,-0.015887,0.002624,-0.0017579999999999
28,-0.013312,0.963733,0.266533,-0.012261,0.006359,0.000465
29,-0.013365,0.963703,0.266642,-0.015871,0.009197,-0.004084
30,-0.013341,0.96368,0.266725,-0.016368,0.008412,-0.003054
31,-0.013294,0.96368,0.266728,-0.020489,0.006642,-0.006108
32,-0.013205,0.963672,0.266763,-0.019815,0.002652,0.001441
33,-0.013149,0.963639,0.266881,-0.021473,0.0053549999999999,0.00117
34,-0.013143,0.963609,0.266993,-0.019694,0.00717,0.001623
35,-0.0131949999999999,0.963591,0.267053,-0.01923,0.0072489999999999,2.1e-05
36,-0.0132729999999999,0.963577,0.2671,-0.014376,0.007065,0.002386
37,-0.0133,0.96355,0.267196,-0.014059,0.000988,0.003846
38,-0.013303,0.963479,0.267451,-0.013934,0.001364,0.006979
39,-0.0132039999999999,0.963378,0.2678239999999999,-0.014246,0.007478,0.007292
40,-0.013122,0.963286,0.268157,-0.020523,0.011522,-0.001159
41,-0.01305,0.963202,0.268461,-0.020214,0.006662,-0.003752
42,-0.01292,0.963126,0.268739,-0.018025,0.0064629999999999,-0.0008869999999999
43,-0.0128569999999999,0.963059,0.268985,-0.021567,0.009506,-0.003237
44,-0.012929,0.963047,0.269021,-0.023738,0.0086319999999999,-0.006295
45,-0.013066,0.963066,0.268947,-0.023174,0.006584,-0.005549
46,-0.013224,0.963093,0.268845,-0.016133,0.004681,0.003295
47,-0.013349,0.963088,0.268857,-0.00896,0.001726,0.00516
48,-0.013313,0.963037,0.26904,-0.012428,0.002768,0.004169
49,-0.013281,0.96298,0.2692469999999999,-0.0211729999999999,0.0067769999999999,-0.007803
50,-0.013196,0.962905,0.269516,-0.023272,0.00969,-0.007705
51,-0.013189,0.962826,0.2697989999999999,-0.021509,0.006199,-0.00364
52,-0.013216,0.962761,0.270028,-0.018874,0.008979,-5.4000000000000005e-05
53,-0.013277,0.962734,0.270122,-0.015776,0.0068239999999999,-0.0008349999999999
54,-0.0132979999999999,0.962722,0.270165,-0.015373,0.008607,-0.004098
55,-0.013305,0.962708,0.270216,-0.017228,0.006531,-0.0032479999999999
56,-0.013234,0.962674,0.270337,-0.017116,0.005938,0.000644
57,-0.013205,0.962652,0.270421,-0.014352,0.003931,0.00616
58,-0.0131539999999999,0.962653,0.270418,-0.019378,0.007348,0.0050799999999999
59,-0.0130669999999999,0.962654,0.270419,-0.021586,0.005303,0.002972
60,-0.012924,0.962638,0.270482,-0.0227659999999999,0.005181,0.00143
61,-0.0128539999999999,0.962627,0.270526,-0.020762,0.004506,0.004392
62,-0.012827,0.962667,0.270384,-0.017889,0.00416,0.004717
63,-0.0128289999999999,0.962743,0.270115,-0.016865,0.0045579999999999,0.007076
64,-0.01288,0.962819,0.269842,-0.016706,0.000972,0.006617
65,-0.012852,0.962858,0.269701,-0.015743,0.0009019999999999,0.00923
66,-0.0127319999999999,0.96286,0.2696989999999999,-0.018121,0.000213,0.008133
67,-0.0126959999999999,0.962834,0.269795,-0.020934,0.0023,0.005809
68,-0.012684,0.962826,0.2698239999999999,-0.0245169999999999,0.003452,0.000683
69,-0.012652,0.962836,0.269791,-0.023023,0.00303,-0.001465
70,-0.012692,0.962833,0.269798,-0.018924,0.005383,0.001488
71,-0.012777,0.962828,0.269811,-0.016337,0.005357,0.003214
72,-0.0128379999999999,0.962849,0.269737,-0.015558,0.007519,0.000283
73,-0.012955,0.962883,0.269609,-0.01709,0.0034869999999999,0.003463
74,-0.012994,0.962905,0.269529,-0.020148,0.004869,-0.000532
75,-0.012925,0.96292,0.269477,-0.020019,0.004075,-0.000312
76,-0.0128759999999999,0.962922,0.269474,-0.022188,0.004043,-0.001529
77,-0.012835,0.962917,0.269492,-0.022443,0.006077,-0.001013
78,-0.012831,0.962929,0.269447,-0.02054,0.0064459999999999,-0.002068
79,-0.012825,0.962958,0.269345,-0.019905,0.006906,-0.001675
80,-0.012835,0.962984,0.269254,-0.0183389999999999,0.004256,0.000292
81,-0.01283,0.963006,0.2691739999999999,-0.013644,0.006598,0.0025859999999999
82,-0.0128259999999999,0.96302,0.269122,-0.0154479999999999,0.007454,0.003934
83,-0.0128379999999999,0.963026,0.269104,-0.0171,0.004794,0.002137
84,-0.0128289999999999,0.963021,0.269121,-0.0184669999999999,0.002357,0.001417
85,-0.012785,0.963,0.269196,-0.016756,0.005612,0.001053
86,-0.012743,0.962972,0.2692989999999999,-0.01898,0.006968,-0.002712
87,-0.012693,0.962971,0.269306,-0.020297,0.008876,-9.5e-05
88,-0.012661,0.962985,0.269259,-0.020893,0.009458,0.000974
89,-0.012624,0.962999,0.26921,-0.01794,0.002547,0.005937
90,-0.012553,0.963016,0.269152,-0.01708,0.001538,0.006193
91,-0.012501,0.963029,0.269106,-0.016689,0.003478,0.006879
92,-0.012486,0.963027,0.2691139999999999,-0.0211599999999999,0.010743,0.005682
93,-0.012392,0.963022,0.269137,-0.0218639999999999,0.009314,0.002408
94,-0.012348,0.963019,0.26915,-0.0173919999999999,0.0042049999999999,0.002319
95,-0.012296,0.963029,0.269117,-0.014972,0.00714,0.003908
96,-0.012318,0.963057,0.269017,-0.016216,0.00464,0.003734
97,-0.012305,0.963119,0.268795,-0.0223319999999999,0.008592,0.005939
98,-0.012304,0.96319,0.2685389999999999,-0.023584,0.007436,0.004395
99,-0.0123819999999999,0.963243,0.268347,-0.016854,0.000716,0.0095459999999999
100,-0.012462,0.963282,0.268201,-0.016194,0.000859,0.006701
101,-0.012498,0.963299,0.2681389999999999,-0.016646,0.003696,0.009006
102,-0.0125519999999999,0.963307,0.268107,-0.016959,0.00709,0.001547
103,-0.01258,0.963298,0.2681389999999999,-0.019525,0.006139,-0.003536
104,-0.012496,0.96328,0.268208,-0.017747,0.003029,-0.0037119999999999
105,-0.012436,0.963256,0.268298,-0.0173639999999999,0.003434,-0.000674
106,-0.012457,0.963259,0.268287,-0.0153599999999999,0.010359,-0.001853
107,-0.012453,0.96329,0.268173,-0.017698,0.009503,-0.003875
108,-0.012439,0.963338,0.268001,-0.017529,0.010111,-0.005992
109,-0.012463,0.963378,0.267857,-0.0189699999999999,0.004029,-0.0033
110,-0.012519,0.963419,0.267708,-0.0163509999999999,0.003912,0.003578
111,-0.012555,0.963474,0.267507,-0.016132,0.0050009999999999,0.005275
112,-0.012578,0.963543,0.267257,-0.019267,0.002597,0.007676
113,-0.012529,0.963626,0.266961,-0.022521,0.001844,0.005393
114,-0.012482,0.963719,0.266628,-0.022751,-0.000279,0.00684
115,-0.01253,0.963809,0.2662989999999999,-0.019849,-0.0037719999999999,0.009122
116,-0.012745,0.963869,0.266073,-0.017345,0.003432,0.004893
117,-0.013054,0.963836,0.266176,-0.01374,0.007905,-0.003908
118,-0.01334,0.963725,0.266563,-0.014675,0.00974,-0.012046
119,-0.0135129999999999,0.963588,0.267049,-0.013525,0.0132639999999999,-0.022069
120,-0.0135229999999999,0.963461,0.267509,-0.015865,0.012766,-0.02282
121,-0.013518,0.963382,0.26779,-0.01349,0.0186889999999999,-0.016935
122,-0.013482,0.963412,0.267683,-0.014182,0.0168129999999999,-0.009245
123,-0.0133699999999999,0.963554,0.267178,-0.020322,0.005761,0.0054659999999999
124,-0.013252,0.963789,0.266336,-0.023781,0.0015279999999999,0.013876
125,-0.0132539999999999,0.963977,0.265654,-0.02468,-0.004718,0.016298
126,-0.013406,0.964041,0.265415,-0.02146,-0.001898,0.015026
127,-0.013728,0.96397,0.265654,-0.010747,-0.0034289999999999,0.002229
128,-0.013943,0.963835,0.266133,-0.002384,0.0067,0.001277
129,-0.01398,0.963678,0.2666969999999999,-0.008817,0.004949,-0.003117
130,-0.013894,0.963538,0.26721,-0.018134,0.010568,-0.012525
131,-0.01374,0.963431,0.267601,-0.023232,0.011987,-0.012687
132,-0.013588,0.963362,0.267858,-0.020881,0.012789,-0.011541
133,-0.01348,0.96335,0.267903,-0.021447,0.009641,-0.003941
134,-0.01348,0.963388,0.267768,-0.022135,0.00556,0.001138
135,-0.013526,0.963438,0.267588,-0.015771,0.004076,0.007513
136,-0.013574,0.963495,0.26738,-0.013175,0.002722,0.011062
137,-0.0135919999999999,0.963543,0.267208,-0.0165139999999999,0.007298,0.009877
138,-0.013438,0.963574,0.267103,-0.019613,0.008792,0.009753
139,-0.01326,0.963603,0.267007,-0.019378,0.0017289999999999,0.01052
140,-0.013094,0.963624,0.266941,-0.025129,-0.000763,0.009091
141,-0.013002,0.963642,0.26688,-0.026274,-0.001056,0.006679
142,-0.013052,0.963662,0.266803,-0.024988,0.004157,0.003887
143,-0.01321,0.96369,0.266696,-0.023609,0.004267,0.004224
144,-0.013438,0.963693,0.2666719999999999,-0.013936,0.006629,-0.0006349999999999
145,-0.013611,0.963698,0.2666469999999999,-0.012893,0.011278,-0.002777
146,-0.0137449999999999,0.963708,0.266605,-0.015613,0.011329,-0.004581
147,-0.013854,0.963747,0.266458,-0.013993,0.012602,-0.007089
148,-0.013904,0.963841,0.266112,-0.018857,0.010722,0.000383
149,-0.013943,0.963961,0.265676,-0.018833,0.005659,0.001292
150,-0.013962,0.964085,0.2652239999999999,-0.021454,0.001796,0.003529
151,-0.013999,0.964208,0.2647739999999999,-0.020761,-0.000799,0.008679
152,-0.014077,0.964302,0.2644289999999999,-0.017585,-0.002251,0.010214
153,-0.0141919999999999,0.964375,0.264159,-0.019423,-0.002918,0.010468
154,-0.014252,0.964407,0.2640369999999999,-0.015365,0.001642,0.012666
155,-0.014187,0.964402,0.2640619999999999,-0.018894,0.004928,0.012718
156,-0.01409,0.96437,0.264182,-0.019601,0.007279,0.0071489999999999
157,-0.014072,0.96434,0.264293,-0.019666,0.006943,0.001179
158,-0.014127,0.964348,0.264261,-0.0194729999999999,0.008431,-2.4e-05
159,-0.014195,0.96439,0.264103,-0.017848,0.009853,0.000241
160,-0.014288,0.964473,0.263792,-0.015162,0.00652,0.005174
161,-0.014322,0.964571,0.26343,-0.015799,0.0041789999999999,0.004987
162,-0.014293,0.964643,0.2631699999999999,-0.015812,0.002673,0.004927
163,-0.014302,0.964706,0.262937,-0.014827,0.002335,0.008212
164,-0.014313,0.964767,0.262714,-0.015686,0.005448,0.005444
165,-0.0143039999999999,0.964822,0.2625099999999999,-0.0138639999999999,0.0025239999999999,0.003328
166,-0.014308,0.964859,0.262373,-0.019154,0.004959,-0.0004559999999999
167,-0.014322,0.964884,0.262283,-0.022528,0.0062619999999999,1e-06
168,-0.014362,0.964916,0.262161,-0.022549,0.006108,0.000229
169,-0.014447,0.96498,0.26192,-0.016681,0.006425,0.0023469999999999
170,-0.014515,0.96506,0.2616199999999999,-0.0131939999999999,0.005979,0.000557
171,-0.014562,0.965123,0.261385,-0.014476,0.004374,0.000197
172,-0.014562,0.965168,0.261219,-0.018732,0.002544,-0.001133
173,-0.014581,0.965222,0.261019,-0.019507,0.005497,-0.000933
174,-0.014622,0.965275,0.260817,-0.018169,0.00793,-0.001784
175,-0.014678,0.965337,0.260587,-0.016114,0.007854,0.000659
176,-0.014721,0.965375,0.260439,-0.017978,0.005343,-0.002352
177,-0.0147789999999999,0.965397,0.260355,-0.01641,0.0060079999999999,0.00025
178,-0.01485,0.965425,0.260246,-0.017377,0.00746,0.000924
179,-0.0149539999999999,0.965472,0.2600659999999999,-0.017975,0.008008,-0.001338
180,-0.015026,0.96552,0.259886,-0.0185129999999999,0.008006,-0.000212
181,-0.015037,0.965551,0.259768,-0.020592,0.005777,0.003247
182,-0.015058,0.965587,0.259633,-0.017611,0.005742,-0.002386
183,-0.015083,0.965626,0.259486,-0.018578,0.006328,0.000157
184,-0.015111,0.965671,0.259318,-0.019038,0.007794,-0.00207
185,-0.015094,0.965708,0.25918,-0.0193449999999999,0.007864,-0.000223
186,-0.015112,0.96575,0.259024,-0.02038,0.009241,0.000757
187,-0.0151759999999999,0.965795,0.2588519999999999,-0.0199039999999999,0.005442,-0.001253
188,-0.015243,0.965842,0.258673,-0.020997,0.006342,-0.0004179999999999
189,-0.015314,0.965871,0.25856,-0.01911,0.0069689999999999,-0.001816
190,-0.015382,0.965897,0.258457,-0.016387,0.009811,-0.000965
191,-0.0154639999999999,0.965948,0.258265,-0.016122,0.008326,-0.006022
192,-0.0154639999999999,0.966006,0.2580469999999999,-0.015587,0.008771,-0.005026
193,-0.0154539999999999,0.966079,0.257773,-0.017902,0.009018,-0.002569
194,-0.0154479999999999,0.96616,0.257472,-0.018442,0.008251,0.001546
195,-0.015392,0.966253,0.257125,-0.0152169999999999,0.00889,0.0008089999999999
196,-0.015347,0.966368,0.256696,-0.016483,0.002962,0.004809
197,-0.0152639999999999,0.966495,0.256223,-0.0193729999999999,0.001385,0.005206
198,-0.015224,0.966631,0.25571,-0.024678,0.002729,0.005857
199,-0.015221,0.966737,0.255311,-0.020866,0.001403,0.006698
200,-0.015274,0.96682,0.2549929999999999,-0.020156,-0.0003129999999999,0.00581
201,-0.015391,0.966879,0.254761,-0.014516,0.000177,0.006332
202,-0.015456,0.966937,0.254536,-0.0142379999999999,0.000882,0.008449
203,-0.015438,0.966982,0.254366,-0.018711,0.000944,0.008864
204,-0.015415,0.966985,0.254355,-0.018353,0.005091,0.005945
205,-0.0154349999999999,0.96695,0.25449,-0.018226,0.004944,0.001675
206,-0.0154419999999999,0.966918,0.254611,-0.014541,0.0058,-0.000277
207,-0.015468,0.966907,0.25465,-0.013738,0.005688,0.0001419999999999
208,-0.015511,0.966918,0.254603,-0.015815,0.008668,0.002767
209,-0.015525,0.966947,0.2544929999999999,-0.019753,0.007525,0.0020989999999999
210,-0.015543,0.966976,0.254382,-0.0197199999999999,0.004475,0.0023469999999999
211,-0.015576,0.967008,0.254255,-0.0189699999999999,0.005266,0.002154
212,-0.0156509999999999,0.967065,0.254033,-0.019139,0.0085659999999999,-0.001134
213,-0.015731,0.967146,0.253722,-0.020432,0.0079519999999999,0.0007639999999999
214,-0.015846,0.967245,0.253335,-0.019707,0.007258,0.002693
215,-0.015969,0.967345,0.252944,-0.017021,0.004411,0.0031899999999999
216,-0.016069,0.967435,0.2525929999999999,-0.0158069999999999,0.004443,-0.001616
217,-0.016168,0.967523,0.252247,-0.015906,0.008185,-0.003331
218,-0.016327,0.967634,0.251814,-0.015045,0.011492,-0.002348
219,-0.0165319999999999,0.967771,0.25127,-0.015618,0.005617,-0.001117
220,-0.016711,0.967912,0.250715,-0.017698,0.005782,0.000215
221,-0.016924,0.96804,0.250207,-0.021407,0.009042,-0.003686
222,-0.017125,0.968159,0.2497309999999999,-0.018978,0.005733,-0.003195
223,-0.017352,0.968285,0.249228,-0.016995,0.005684,-0.005148
224,-0.017566,0.968424,0.248671,-0.015026,0.0026149999999999,-0.00244
225,-0.017796,0.968567,0.2480949999999999,-0.0143539999999999,0.003951,-0.00133
226,-0.018021,0.968689,0.247601,-0.0152729999999999,0.004898,-0.000623
227,-0.018236,0.968804,0.247136,-0.01605,0.004996,5.7e-05
228,-0.018402,0.968902,0.2467389999999999,-0.0089719999999999,0.000641,0.0045119999999999
229,-0.018535,0.968965,0.246481,-0.0112959999999999,0.001829,0.004099
230,-0.018637,0.968986,0.2463929999999999,-0.016031,0.003625,0.002463
231,-0.018677,0.968987,0.246386,-0.017883,0.004768,0.003889
232,-0.018701,0.968967,0.246461,-0.020422,0.003658,0.00537
233,-0.0187759999999999,0.968927,0.246615,-0.019127,0.005637,0.001462
234,-0.018894,0.968909,0.246678,-0.015378,0.0072879999999999,-0.001698
235,-0.018999,0.968911,0.246658,-0.012984,0.007178,0.003266
236,-0.019045,0.968925,0.246601,-0.017469,0.009453,0.00137
237,-0.0189879999999999,0.968967,0.246442,-0.019403,0.008679,0.0009339999999999
238,-0.018976,0.969023,0.2462219999999999,-0.019476,0.00902,0.001779
239,-0.019029,0.969083,0.245982,-0.016386,0.001422,0.000524
240,-0.0190919999999999,0.969164,0.245658,-0.013822,0.0054909999999999,-0.001456
241,-0.019187,0.969248,0.2453179999999999,-0.015863,0.007162,0.001844
242,-0.019224,0.969329,0.244994,-0.016405,0.004563,0.003251
243,-0.019212,0.969397,0.2447239999999999,-0.017393,0.001123,0.004879
244,-0.019133,0.969459,0.244486,-0.019014,0.001778,0.004217
245,-0.019074,0.969507,0.244299,-0.018646,0.000906,0.00506
246,-0.019057,0.969541,0.244165,-0.018373,0.001864,0.004019
247,-0.019076,0.969552,0.2441179999999999,-0.0174229999999999,0.000296,0.009544
248,-0.019131,0.969548,0.2441289999999999,-0.017063,0.00262,0.011151
249,-0.019165,0.969529,0.244201,-0.017746,0.003234,0.014711
250,-0.0192759999999999,0.969467,0.244439,-0.012172,0.005417,0.005347
251,-0.019316,0.969421,0.244619,-0.013506,0.004013,0.003123
252,-0.019348,0.969379,0.244785,-0.019089,0.006665,0.00494
253,-0.019348,0.969337,0.24495,-0.019882,0.0076989999999999,0.003372
254,-0.019323,0.969319,0.24502,-0.018855,0.006236,0.004888
255,-0.019341,0.969324,0.2449989999999999,-0.01673,0.008535,0.000774
256,-0.019327,0.969349,0.2449039999999999,-0.019399,0.0062369999999999,0.002136
257,-0.01931,0.969396,0.244717,-0.019646,0.002665,0.005023
258,-0.019321,0.969442,0.244535,-0.018567,0.003413,0.005496
259,-0.019367,0.969464,0.244441,-0.0172389999999999,0.005816,0.0040479999999999
260,-0.019454,0.969478,0.24438,-0.012284,0.004368,0.004841
261,-0.019517,0.969494,0.244313,-0.0137159999999999,0.002964,0.004298
262,-0.019538,0.969504,0.244269,-0.017037,0.003168,0.002725
263,-0.0195639999999999,0.969503,0.244269,-0.01721,0.000391,0.0038689999999999
264,-0.019607,0.969485,0.244337,-0.017915,-0.002811,0.004855
265,-0.019725,0.969429,0.244549,-0.01653,-0.002648,0.009632
266,-0.019873,0.969335,0.244912,-0.013788,-0.000875,0.012657
267,-0.020006,0.969179,0.245519,-0.013609,-0.000688,0.013834
268,-0.020117,0.968957,0.246384,-0.013345,0.001396,0.007629
269,-0.0201289999999999,0.968692,0.2474239999999999,-0.015363,0.004071,0.00427
270,-0.020086,0.968425,0.248469,-0.0144599999999999,0.006886,0.001363
271,-0.02003,0.968165,0.249486,-0.0155539999999999,0.01267,-0.007573
272,-0.019954,0.967953,0.250314,-0.017629,0.019413,-0.016793
273,-0.019903,0.967832,0.250784,-0.018167,0.02196,-0.017508
274,-0.0199039999999999,0.967796,0.250922,-0.017831,0.019722,-0.019995
275,-0.019993,0.967873,0.25062,-0.012875,0.01548,-0.015985
276,-0.020105,0.968023,0.250027,-0.010596,0.013025,-0.014279
277,-0.020253,0.968194,0.24935,-0.007656,0.011542,-0.009711
278,-0.020294,0.968351,0.24874,-0.009156,0.008136,-0.00521
279,-0.020211,0.96848,0.248244,-0.014182,0.00558,-0.00392
280,-0.019999,0.968599,0.247797,-0.016287,0.007949,-0.003168
281,-0.0197789999999999,0.968725,0.247321,-0.019558,0.0042369999999999,-0.00373
282,-0.019593,0.968858,0.246811,-0.020828,0.004942,-0.001358
283,-0.019437,0.968957,0.246436,-0.024661,0.00257,0.003824
284,-0.019395,0.969007,0.246244,-0.024093,-0.000196,0.00548
285,-0.0194039999999999,0.969015,0.2462099999999999,-0.0174,0.0018859999999999,0.004218
286,-0.019417,0.968985,0.246324,-0.0135419999999999,0.004602,0.003538
287,-0.019377,0.968912,0.246615,-0.012239,0.004309,-0.004748
288,-0.019216,0.968804,0.247052,-0.015574,0.005149,-0.004941
289,-0.019053,0.968668,0.247601,-0.0165909999999999,0.0062159999999999,-0.007748
290,-0.0189669999999999,0.968544,0.248092,-0.017593,0.010918,-0.0071709999999999
291,-0.018973,0.96846,0.2484179999999999,-0.016397,0.009659,-0.007558
292,-0.019051,0.968415,0.2485889999999999,-0.016075,0.00946,-0.005303
293,-0.019119,0.968382,0.248713,-0.018112,0.00899,0.001912
294,-0.019087,0.968333,0.248904,-0.019014,0.010228,0.004224
295,-0.019051,0.96829,0.249076,-0.01934,0.005953,0.001855
296,-0.018945,0.968263,0.249189,-0.019034,0.0078269999999999,0.0013449999999999
297,-0.0188389999999999,0.96826,0.249209,-0.021032,0.005602,0.0015539999999999
298,-0.018771,0.96828,0.249133,-0.022428,0.006497,0.002225
299,-0.018731,0.968305,0.2490389999999999,-0.022025,0.003588,0.001068
300,-0.018733,0.96833,0.2489429999999999,-0.020955,0.003335,0.001866
301,-0.018823,0.968363,0.248805,-0.019171,0.002752,0.000936
302,-0.018889,0.968411,0.2486139999999999,-0.016053,0.001728,0.002744
303,-0.018973,0.96845,0.248452,-0.01603,0.0046479999999999,0.002311
304,-0.019006,0.968442,0.248482,-0.016867,0.00162,0.00193
305,-0.019031,0.968377,0.2487349999999999,-0.015271,0.003044,0.00154
306,-0.019056,0.968303,0.249021,-0.0144219999999999,0.004247,-0.002118
307,-0.019055,0.968241,0.249261,-0.016925,0.006429,-0.002068
308,-0.0189949999999999,0.968215,0.249365,-0.019122,0.00763,-0.005301
309,-0.018987,0.968201,0.2494219999999999,-0.020595,0.005981,-0.004915
310,-0.019013,0.968184,0.2494849999999999,-0.016845,0.005327,-0.003132
311,-0.019083,0.968156,0.249586,-0.01528,0.0068349999999999,-0.000563
312,-0.019128,0.968133,0.2496719999999999,-0.019278,0.005728,-0.000816
313,-0.01915,0.968097,0.249809,-0.019181,0.006848,-0.006783
314,-0.019132,0.968071,0.249913,-0.016772,0.009728,-0.009861
315,-0.01908,0.96804,0.250037,-0.01629,0.0075159999999999,-0.001792
316,-0.01904,0.968009,0.25016,-0.018207,0.009378,0.000741
317,-0.018991,0.967993,0.250222,-0.017721,0.008722,-0.000817
318,-0.01891,0.967985,0.250258,-0.017406,0.007219,0.000856
319,-0.0188139999999999,0.967999,0.250212,-0.018753,0.007358,0.00078
320,-0.0187479999999999,0.96802,0.250136,-0.020162,0.005201,0.003343
321,-0.01875,0.968037,0.2500679999999999,-0.0194729999999999,0.002681,0.004494
322,-0.018805,0.968044,0.25004,-0.016793,0.003956,0.003073
323,-0.0188319999999999,0.968041,0.2500489999999999,-0.0159729999999999,0.003868,0.003461
324,-0.018829,0.968019,0.250133,-0.017319,0.0064379999999999,0.001912
325,-0.018812,0.967984,0.250268,-0.017245,0.006503,-0.0054259999999999
326,-0.018813,0.967947,0.2504119999999999,-0.016954,0.006647,-0.005539
327,-0.0188629999999999,0.967919,0.250517,-0.0140349999999999,0.009346,-0.005872
328,-0.018874,0.967906,0.250566,-0.014939,0.010778,-0.004335
329,-0.018825,0.967922,0.250507,-0.019429,0.011113,-0.009571
330,-0.018734,0.967948,0.2504139999999999,-0.02161,0.010263,-0.008089
331,-0.0187069999999999,0.967994,0.250234,-0.020112,0.005226,-0.005682
332,-0.018731,0.968055,0.2499989999999999,-0.018195,0.002679,0.004197
333,-0.018809,0.96813,0.2496989999999999,-0.018285,0.00535,0.007122
334,-0.018841,0.968192,0.2494559999999999,-0.019,0.00454,0.005046
335,-0.018861,0.968237,0.24928,-0.0177139999999999,0.0071049999999999,0.000445
336,-0.018923,0.968253,0.249212,-0.01695,0.000909,-0.004919
337,-0.019022,0.968256,0.249196,-0.0136169999999999,0.0043549999999999,-0.003575
338,-0.019116,0.968246,0.249226,-0.015415,0.01001,-0.000707
339,-0.019177,0.968246,0.2492239999999999,-0.014071,0.008424,-0.00522
340,-0.019305,0.968242,0.249229,-0.010267,0.0062,-0.010642
341,-0.019372,0.968239,0.249236,-0.0163789999999999,0.00689,-0.008437
342,-0.019451,0.9682,0.249381,-0.0184669999999999,0.0070959999999999,-0.009741
343,-0.019515,0.96814,0.249608,-0.017594,0.008163,-0.01093
344,-0.01957,0.968097,0.249771,-0.0099709999999999,0.010312,-0.012726
345,-0.019547,0.968059,0.249917,-0.01094,0.010563,-0.012994
346,-0.019474,0.968028,0.250042,-0.017116,0.006855,-0.011165
347,-0.0194139999999999,0.968018,0.250087,-0.018778,0.009811,-0.005229
348,-0.019375,0.967995,0.250181,-0.017719,0.006523,-0.0034
349,-0.019398,0.96798,0.250233,-0.015666,0.007606,-0.007923
350,-0.019382,0.967928,0.2504369999999999,-0.016323,0.008085,-0.013224
351,-0.019381,0.967862,0.250692,-0.0175759999999999,0.007449,-0.01261
352,-0.01941,0.967795,0.250946,-0.015227,0.005425,-0.0103
353,-0.019381,0.967719,0.251241,-0.01608,0.007913,-0.009633
354,-0.019294,0.967647,0.2515239999999999,-0.01835,0.010868,-0.006453
355,-0.019203,0.967604,0.2516989999999999,-0.021737,0.008288,-0.008337
356,-0.019117,0.967563,0.25186,-0.0217009999999999,0.007504,-0.009978
357,-0.019131,0.967535,0.2519659999999999,-0.0169099999999999,0.010355,-0.0029579999999999
358,-0.019152,0.967488,0.252146,-0.014173,0.005351,0.000768
359,-0.019127,0.967418,0.252416,-0.017342,0.007405,-0.001165
360,-0.0191,0.967339,0.25272,-0.018544,0.011588,-0.007801
361,-0.019057,0.967257,0.253035,-0.017,0.0091069999999999,-0.010054
362,-0.019004,0.967183,0.253324,-0.016335,0.008357,-0.006711
363,-0.0188909999999999,0.967111,0.253606,-0.0172569999999999,0.0077569999999999,-0.0055899999999999
364,-0.018782,0.967051,0.253843,-0.021196,0.008443,-0.006758
365,-0.018694,0.967004,0.254029,-0.019483,0.003394,-0.006257
366,-0.018652,0.966964,0.254183,-0.018884,0.007187,-0.006121
367,-0.018633,0.966923,0.254342,-0.015318,0.006527,0.001274
368,-0.018631,0.966859,0.254583,-0.012955,0.006285,0.004176
369,-0.0185539999999999,0.966775,0.254907,-0.0154729999999999,0.005148,0.005362
370,-0.018474,0.966686,0.255252,-0.020253,0.005467,-0.003833
371,-0.018405,0.966597,0.2555949999999999,-0.019177,0.007784,-0.006251
372,-0.018355,0.966524,0.255874,-0.0191819999999999,0.007948,-0.006317
373,-0.018351,0.966445,0.2561739999999999,-0.01734,0.0088209999999999,-0.005746
374,-0.018348,0.966377,0.25643,-0.016793,0.006478,-0.006201
375,-0.018311,0.966328,0.256615,-0.016952,0.008144,-0.005181
376,-0.01823,0.966296,0.256741,-0.0172009999999999,0.0064819999999999,-0.003292
377,-0.018125,0.966274,0.25683,-0.017534,0.007603,0.000158
378,-0.018073,0.966248,0.2569329999999999,-0.019524,0.005783,-0.003744
379,-0.018076,0.966211,0.2570719999999999,-0.019476,0.0066739999999999,-0.002006
380,-0.018099,0.966171,0.257218,-0.018354,0.008179,-0.006822
381,-0.018125,0.966149,0.257296,-0.017474,0.00698,-0.005877
382,-0.018127,0.96613,0.257369,-0.016693,0.006389,-0.006728
383,-0.0180789999999999,0.966109,0.257453,-0.017062,0.007539,-0.005103
384,-0.018042,0.966092,0.257519,-0.01832,0.00777,-0.005215
385,-0.018047,0.966072,0.2575909999999999,-0.018528,0.011177,-0.0061719999999999
386,-0.018087,0.966071,0.257592,-0.0152229999999999,0.009637,-0.0077599999999999
387,-0.01813,0.966071,0.25759,-0.016339,0.0069209999999999,-0.007834
388,-0.018119,0.966076,0.257571,-0.0162129999999999,0.006595,-0.005618
389,-0.018073,0.966084,0.2575469999999999,-0.017953,0.006207,-0.004175
390,-0.018005,0.966091,0.257524,-0.0187069999999999,0.007573,-0.002183
391,-0.017968,0.966106,0.257469,-0.0194009999999999,0.0052229999999999,-0.003593
392,-0.017988,0.966112,0.257443,-0.018892,0.005247,-0.003201
393,-0.017983,0.966099,0.2574929999999999,-0.017707,0.006282,-0.004029
394,-0.018014,0.96607,0.257601,-0.017127,0.007945,-0.006716
395,-0.0180099999999999,0.966036,0.257728,-0.015972,0.00865,-0.007133
396,-0.018034,0.965995,0.2578789999999999,-0.0150169999999999,0.005624,-0.008764
397,-0.018052,0.965968,0.257979,-0.018737,0.009115,-0.004866
398,-0.018045,0.965935,0.258103,-0.020224,0.007881,-0.0051119999999999
399,-0.018038,0.965898,0.258239,-0.019788,0.011275,-0.011825
400,-0.018026,0.965876,0.258325,-0.017115,0.010137,-0.015084
401,-0.018008,0.965864,0.258369,-0.0162639999999999,0.0114159999999999,-0.014809
402,-0.018016,0.965879,0.258313,-0.0187419999999999,0.009753,-0.008756
403,-0.018036,0.9659,0.258234,-0.01744,0.008237,-0.006556
404,-0.018019,0.965915,0.258179,-0.017869,0.009381,-0.005494
405,-0.017986,0.965914,0.258183,-0.019368,0.009351,-0.005986
406,-0.017983,0.965899,0.258239,-0.018852,0.01045,-0.00859
407,-0.017997,0.965859,0.258389,-0.017602,0.008873,-0.009182
408,-0.017996,0.965797,0.2586199999999999,-0.016321,0.011056,-0.009353
409,-0.0179889999999999,0.965728,0.2588789999999999,-0.017213,0.012666,-0.005843
410,-0.017917,0.965654,0.259157,-0.0205349999999999,0.0153479999999999,-0.009752
411,-0.0178009999999999,0.965602,0.259361,-0.020575,0.012929,-0.01049
412,-0.0177289999999999,0.965603,0.25936,-0.018602,0.011173,-0.008872
413,-0.017633,0.965627,0.259278,-0.019262,0.008708,0.000335
414,-0.017525,0.965699,0.259017,-0.019768,0.0101,0.002382
415,-0.017468,0.96581,0.258608,-0.020572,0.005885,0.005125
416,-0.017466,0.965907,0.258243,-0.0204069999999999,0.00031,-0.000507
417,-0.017514,0.96592,0.258192,-0.0183289999999999,-0.001335,-0.003432
418,-0.017616,0.965859,0.25841,-0.011162,0.005424,-0.0065489999999999
419,-0.017684,0.965732,0.258881,-0.014313,0.011075,-0.008607
420,-0.017684,0.965588,0.259418,-0.016541,0.0130199999999999,-0.0165139999999999
421,-0.0175759999999999,0.965461,0.259897,-0.019366,0.0140919999999999,-0.022959
422,-0.017374,0.965394,0.260158,-0.0211699999999999,0.016402,-0.023571
423,-0.017154,0.965401,0.2601469999999999,-0.023725,0.009804,-0.011155
424,-0.017066,0.965476,0.259874,-0.022637,0.005777,0.000517
425,-0.017077,0.965581,0.259482,-0.0215889999999999,0.004664,0.006128
426,-0.017156,0.965609,0.259373,-0.017696,0.00421,0.004085
427,-0.017236,0.965543,0.259612,-0.014685,0.005343,-0.001022
428,-0.017238,0.965411,0.260102,-0.011616,0.008542,-0.010941
429,-0.017146,0.965256,0.260682,-0.013875,0.012771,-0.014008
430,-0.016953,0.965111,0.261231,-0.020507,0.012291,-0.0126959999999999
431,-0.016672,0.965022,0.261578,-0.0217039999999999,0.010182,-0.009625
432,-0.016366,0.965033,0.261555,-0.0211699999999999,-0.0008,-0.002888
433,-0.015972,0.965156,0.261127,-0.023961,0.0075,0.013302
434,-0.015824,0.965326,0.260508,-0.0273279999999999,0.004004,0.016805
435,-0.015915,0.965435,0.2600969999999999,-0.023101,0.006397,0.012669
436,-0.016181,0.965447,0.2600369999999999,-0.013482,0.004417,0.000659
437,-0.016443,0.965371,0.260302,-0.005988,0.005714,-0.009279
438,-0.01652,0.965303,0.260549,-0.00739,0.005767,-0.010121
439,-0.01647,0.965259,0.260712,-0.014643,0.007763,-0.016465
440,-0.016339,0.965254,0.26074,-0.022052,0.009737,-0.01399
441,-0.016211,0.965274,0.2606719999999999,-0.02308,0.016644,-0.012289
442,-0.016119,0.965309,0.260549,-0.020319,0.013969,-0.011251
443,-0.016117,0.965355,0.2603789999999999,-0.020443,0.011802,-0.012714
444,-0.016191,0.965425,0.260114,-0.014891,0.009825,-0.01605
445,-0.016277,0.96552,0.259757,-0.0138139999999999,0.0077319999999999,-0.0091159999999999
446,-0.016304,0.965586,0.259509,-0.017235,0.006139,-0.005358
447,-0.016284,0.965627,0.259357,-0.014783,0.0053659999999999,-0.002826
448,-0.01622,0.965664,0.259223,-0.016174,0.0042759999999999,-0.00286
449,-0.016093,0.965675,0.259193,-0.022054,0.009453,-0.003684
450,-0.015989,0.965663,0.259244,-0.022906,0.007863,-0.004315
451,-0.015983,0.965653,0.259279,-0.018623,0.004378,-0.0047469999999999
452,-0.0160389999999999,0.965646,0.259301,-0.016478,0.004599,-0.002969
453,-0.016101,0.965632,0.259353,-0.0150879999999999,0.006384,-0.006286
454,-0.0161669999999999,0.965594,0.25949,-0.018455,0.006071,-0.007293
455,-0.016153,0.965525,0.259745,-0.01789,0.0062759999999999,-0.008341
456,-0.016069,0.965422,0.260133,-0.018156,0.003221,-0.010331
457,-0.016019,0.965308,0.26056,-0.020541,0.00802,-0.008241
458,-0.015958,0.965194,0.2609829999999999,-0.018619,0.011536,-0.012601
459,-0.0159169999999999,0.965099,0.261338,-0.018033,0.011403,-0.013612
460,-0.0159169999999999,0.965047,0.261531,-0.01753,0.014125,-0.014582
461,-0.015895,0.965017,0.261644,-0.018255,0.010874,-0.01616
462,-0.015888,0.96499,0.261743,-0.019512,0.007788,-0.0133
463,-0.01593,0.964972,0.261806,-0.015412,0.006479,-0.009823
464,-0.015965,0.964986,0.261751,-0.016368,0.012339,-0.0084099999999999
465,-0.01594,0.965012,0.261658,-0.016394,0.012314,-0.008317
466,-0.015862,0.965035,0.261577,-0.024314,0.011634,-0.0130419999999999
467,-0.015721,0.965032,0.261598,-0.024669,0.009563,-0.015352
468,-0.0156169999999999,0.965018,0.261656,-0.022072,0.007059,-0.012281
469,-0.015586,0.965009,0.26169,-0.018869,0.008273,-0.009035
470,-0.0156169999999999,0.965012,0.261676,-0.017083,0.006362,-0.004855
471,-0.015595,0.965012,0.261676,-0.019012,0.008758,-0.004169
472,-0.015524,0.964984,0.261783,-0.020136,0.009457,-0.008808
473,-0.015438,0.964932,0.261979,-0.020253,0.008166,-0.014482
474,-0.015387,0.964875,0.262192,-0.016702,0.005767,-0.011719
475,-0.015397,0.964827,0.262371,-0.015975,0.005586,-0.0059159999999999
476,-0.0153789999999999,0.964774,0.2625639999999999,-0.0147419999999999,0.0060659999999999,-0.002783
477,-0.015308,0.964705,0.262823,-0.020565,0.013612,-0.004232
478,-0.015236,0.964624,0.2631239999999999,-0.02108,0.010108,-0.0139639999999999
479,-0.0152389999999999,0.964548,0.2634039999999999,-0.018895,0.009131,-0.011725
480,-0.0152629999999999,0.964496,0.2635909999999999,-0.021388,0.004712,-0.00703
481,-0.015284,0.96444,0.263793,-0.01856,0.005881,-0.002029
482,-0.015255,0.964385,0.263996,-0.016437,0.0085,-0.004841
483,-0.0151659999999999,0.964319,0.264245,-0.020509,0.009818,-0.0105519999999999
484,-0.015074,0.964252,0.264494,-0.021685,0.007779,-0.0105569999999999
485,-0.0150689999999999,0.964206,0.264659,-0.017615,0.006726,-0.007595
486,-0.015064,0.964169,0.264797,-0.015392,0.004047,-0.00407
487,-0.015071,0.964144,0.264886,-0.0166669999999999,0.006116,-0.003258
488,-0.014986,0.964097,0.265063,-0.019087,0.007781,-0.0069299999999999
489,-0.014906,0.96403,0.265312,-0.022219,0.006109,-0.005256
490,-0.014903,0.963948,0.265606,-0.019429,0.006068,-0.003109
491,-0.014949,0.963873,0.265878,-0.01653,0.007227,-0.001764
492,-0.015005,0.963822,0.266057,-0.016184,0.008483,-0.0062299999999999
493,-0.014998,0.963785,0.266192,-0.0207539999999999,0.01029,-0.011462
494,-0.01498,0.963758,0.266288,-0.021687,0.009676,-0.009833
495,-0.014981,0.963721,0.266422,-0.019169,0.009759,-0.008502
496,-0.01504,0.963704,0.26648,-0.015691,0.009608,-0.006592
497,-0.015119,0.963709,0.266457,-0.017733,0.0108849999999999,-0.00927
498,-0.015194,0.963733,0.266367,-0.021641,0.01373,-0.012308
499,-0.015258,0.963773,0.266219,-0.020478,0.013934,-0.016432
500,-0.015335,0.963837,0.265979,-0.018082,0.008697,-0.015918
501,-0.015509,0.963914,0.265691,-0.0132389999999999,0.004211,-0.008291
502,-0.015708,0.964,0.265364,-0.012841,0.0045969999999999,-0.005339
503,-0.0158479999999999,0.964055,0.265155,-0.011801,0.00648,-0.001911
504,-0.015915,0.964065,0.2651139999999999,-0.014359,0.0067599999999999,-0.007012
505,-0.015966,0.964042,0.2651969999999999,-0.016397,0.005014,-0.013
506,-0.016009,0.963982,0.265413,-0.01698,0.003136,-0.010133
507,-0.016065,0.963911,0.265664,-0.018084,0.004472,-0.008355
508,-0.016125,0.963817,0.266,-0.017551,0.012486,-0.0053799999999999
509,-0.016158,0.963727,0.266323,-0.017075,0.011676,-0.01115
510,-0.016123,0.963645,0.266621,-0.01766,0.0124599999999999,-0.011968
511,-0.016061,0.963581,0.266856,-0.022131,0.013149,-0.01089
512,-0.01603,0.963551,0.266966,-0.021659,0.013531,-0.012358
513,-0.016059,0.96358,0.26686,-0.017312,0.014463,-0.013732
514,-0.016105,0.96366,0.2665679999999999,-0.012872,0.013727,-0.013806
515,-0.01613,0.963767,0.266178,-0.015044,0.01098,-0.015583
516,-0.016109,0.963913,0.26565,-0.018345,0.011398,-0.014048
517,-0.0161,0.964073,0.2650679999999999,-0.0170729999999999,0.009743,-0.011314
518,-0.016091,0.96424,0.264461,-0.016701,0.007317,-0.0067239999999999
519,-0.016046,0.964423,0.263795,-0.017065,0.005273,-0.004273
520,-0.015953,0.964599,0.263158,-0.016395,0.004563,-0.000249
521,-0.01581,0.964749,0.262614,-0.017134,-8.9e-05,0.0023239999999999
522,-0.015669,0.964848,0.262257,-0.018191,0.001475,0.005565
523,-0.015544,0.964892,0.262105,-0.018514,-9.4e-05,0.011516
524,-0.015436,0.964884,0.262141,-0.016119,0.002707,0.010381
525,-0.015321,0.964833,0.262336,-0.019103,0.006023,0.005075
526,-0.015182,0.964742,0.262679,-0.021393,0.003825,-0.000152
527,-0.015118,0.964665,0.262964,-0.021351,0.0074569999999999,-0.010065
528,-0.015128,0.964622,0.2631239999999999,-0.021966,0.008218,-0.007051
529,-0.015191,0.964593,0.263226,-0.020774,0.007835,-0.005307
530,-0.015297,0.964599,0.2631949999999999,-0.016991,0.008652,-0.0037189999999999
531,-0.015392,0.964612,0.263144,-0.014012,0.00571,-0.002432
532,-0.015475,0.964642,0.263029,-0.0154539999999999,0.0073739999999999,0.002977
533,-0.0155229999999999,0.964663,0.262947,-0.0167949999999999,0.0066349999999999,0.00016
534,-0.015587,0.964675,0.262899,-0.018196,0.0073549999999999,0.000331
535,-0.0156509999999999,0.964687,0.262854,-0.021596,0.005452,-2.1e-05
536,-0.015666,0.964693,0.26283,-0.0207569999999999,0.008147,-0.001325
537,-0.015655,0.9647,0.262804,-0.021683,0.006568,-0.004961
538,-0.0156819999999999,0.964721,0.262725,-0.021488,0.008515,-0.004592
539,-0.015706,0.964748,0.262623,-0.0217699999999999,0.009983,-0.0053289999999999
540,-0.015783,0.964789,0.262469,-0.018702,0.006464,-0.003802
541,-0.015857,0.964846,0.262256,-0.015256,0.010725,-0.003283
542,-0.015895,0.96491,0.262015,-0.016027,0.0100349999999999,-0.005622
543,-0.0159319999999999,0.964981,0.261754,-0.01782,0.00853,-0.00678
544,-0.016033,0.965074,0.2614059999999999,-0.018529,0.007888,-0.004905
545,-0.0161389999999999,0.965171,0.261038,-0.019109,0.004388,-0.000235
546,-0.016237,0.965273,0.260653,-0.018782,0.003614,0.001646
547,-0.016295,0.965361,0.260323,-0.018968,0.003221,0.0001139999999999
548,-0.01635,0.965423,0.260088,-0.01905,0.001358,0.0018899999999999
549,-0.016406,0.965446,0.260001,-0.015897,0.000817,0.002557
550,-0.0164169999999999,0.965423,0.260084,-0.012865,-0.003356,0.007342
551,-0.016354,0.965345,0.260376,-0.018131,0.004824,0.005584
552,-0.016242,0.965233,0.260799,-0.020273,0.007652,-0.002177
553,-0.016145,0.965113,0.261251,-0.019515,0.008825,-0.01209
554,-0.016041,0.965019,0.261601,-0.021648,0.011482,-0.0127459999999999
555,-0.016005,0.964958,0.26183,-0.021287,0.008995,-0.012211
556,-0.016081,0.964923,0.261955,-0.020815,0.00633,-0.001716
557,-0.016206,0.964897,0.2620429999999999,-0.021209,0.008004,-0.0093879999999999
558,-0.016337,0.964853,0.262194,-0.017004,0.014135,-0.0141319999999999
559,-0.016452,0.964839,0.26224,-0.0143699999999999,0.012852,-0.020113
560,-0.016566,0.964889,0.262048,-0.0160419999999999,0.010986,-0.013207
561,-0.016717,0.964966,0.261756,-0.018378,0.008438,-0.005866
562,-0.016944,0.965031,0.261501,-0.018883,0.006023,-0.002849
563,-0.017212,0.965081,0.261299,-0.016907,0.006828,-0.006294
564,-0.017488,0.965123,0.261126,-0.01924,0.010463,-0.0079519999999999
565,-0.01774,0.965155,0.260988,-0.018118,0.010888,-0.012254
566,-0.017988,0.965184,0.260863,-0.015856,0.007914,-0.011764
567,-0.018236,0.965217,0.260725,-0.01248,0.0073939999999999,-0.010481
568,-0.018473,0.965247,0.2605949999999999,-0.01325,0.010217,-0.008901
569,-0.018655,0.965289,0.260425,-0.0172639999999999,0.011212,-0.011158
570,-0.018791,0.96535,0.26019,-0.019158,0.0135009999999999,-0.016934
571,-0.018886,0.965419,0.259926,-0.016331,0.014119,-0.014778
572,-0.018985,0.965496,0.259631,-0.013531,0.008243,-0.0079379999999999
573,-0.019174,0.965576,0.259321,-0.010367,0.007508,-0.007078
574,-0.019357,0.965668,0.258965,-0.013266,0.009155,-0.008675
575,-0.019465,0.965732,0.258716,-0.016256,0.005947,-0.011921
576,-0.019423,0.965746,0.258669,-0.01764,0.005751,-0.01256
577,-0.019392,0.965724,0.258754,-0.01874,0.006536,-0.0125989999999999
578,-0.019405,0.965695,0.258862,-0.018025,0.009006,-0.01376
579,-0.019497,0.96569,0.258872,-0.0155979999999999,0.010125,-0.011756
580,-0.019548,0.965683,0.258894,-0.017851,0.011124,-0.011931
581,-0.019546,0.965674,0.258925,-0.0184639999999999,0.011346,-0.015578
582,-0.019581,0.965658,0.258982,-0.0176349999999999,0.008066,-0.01298
583,-0.019669,0.965634,0.259067,-0.010971,0.0067329999999999,-0.009723
584,-0.019768,0.965624,0.259094,-0.013558,0.006589,-0.003341
585,-0.019814,0.96563,0.2590679999999999,-0.020118,0.009483,0.0002549999999999
586,-0.019761,0.965633,0.259059,-0.020537,0.009739,-0.004985
587,-0.019696,0.96563,0.259077,-0.017948,0.006569,-0.007994
588,-0.019706,0.965613,0.259136,-0.014916,0.003945,-0.006542
589,-0.019753,0.965595,0.259198,-0.015937,0.004467,-0.0020109999999999
590,-0.0197479999999999,0.965578,0.259263,-0.018856,0.009138,0.0016469999999999
591,-0.019716,0.965569,0.259299,-0.018919,0.012855,-0.004538
592,-0.019686,0.965568,0.259306,-0.018141,0.01249,-0.009901
593,-0.019652,0.965584,0.259248,-0.018083,0.009575,-0.010149
594,-0.019674,0.96561,0.259148,-0.017894,0.008938,-0.0074849999999999
595,-0.019687,0.965656,0.258975,-0.0164,0.0124319999999999,-0.003909
596,-0.019635,0.965705,0.258797,-0.013141,0.008904,-0.002724
597,-0.019521,0.965741,0.2586699999999999,-0.014674,0.008654,-0.006442
598,-0.01939,0.965773,0.258562,-0.0152169999999999,0.006929,0.000273
599,-0.019219,0.965798,0.258482,-0.0171419999999999,0.008034,0.002656
600,-0.01902,0.965811,0.258446,-0.016335,0.00509,0.00196
601,-0.018848,0.965824,0.258413,-0.016919,0.008251,-0.004323
602,-0.018672,0.965844,0.25835,-0.019231,0.008094,-0.006428
603,-0.018555,0.965888,0.258196,-0.01915,0.009164,-0.003725
604,-0.01851,0.965943,0.257993,-0.018783,0.005111,0.001102
605,-0.01846,0.966002,0.257775,-0.01633,0.0038619999999999,0.00109
606,-0.018389,0.966045,0.257621,-0.014402,-0.0010019999999999,0.003106
607,-0.018277,0.966054,0.257592,-0.014346,0.002741,0.004737
608,-0.01813,0.966019,0.257735,-0.014372,0.0051719999999999,0.009538
609,-0.017925,0.965952,0.257999,-0.016285,0.006826,0.00488
610,-0.017696,0.965893,0.258234,-0.018635,0.010013,-0.002543
611,-0.017527,0.965861,0.258366,-0.018331,0.008703,-0.006673
612,-0.0174229999999999,0.965875,0.258321,-0.019778,0.0090239999999999,-0.0052689999999999
613,-0.017379,0.965912,0.258184,-0.019059,0.003341,0.0035039999999999
614,-0.017361,0.965952,0.258036,-0.015812,-0.001429,0.003789
615,-0.017308,0.965977,0.257945,-0.0151169999999999,0.003414,0.00887
616,-0.017182,0.965961,0.2580139999999999,-0.016143,0.001523,0.010189
617,-0.017006,0.965893,0.25828,-0.013786,-0.001064,0.009009
618,-0.016779,0.965769,0.258755,-0.013006,-0.005167,0.012775
619,-0.016442,0.96558,0.259483,-0.0141669999999999,-0.00452,0.014549
620,-0.016031,0.965335,0.260418,-0.01618,-0.003528,0.018772
621,-0.0156509999999999,0.965038,0.261538,-0.017583,0.000797,0.011365
622,-0.015307,0.964731,0.262691,-0.022199,0.008337,0.003942
623,-0.015006,0.964421,0.263845,-0.024682,0.005245,-0.0072989999999999
624,-0.014823,0.964133,0.264905,-0.02166,0.0086909999999999,-0.011701
625,-0.014733,0.963901,0.265751,-0.018119,0.007367,-0.009724
626,-0.014686,0.963726,0.266387,-0.016732,0.005741,-0.005538
627,-0.014705,0.963602,0.266833,-0.016774,0.010137,-0.004474
628,-0.014683,0.963476,0.26729,-0.017376,0.009302,-0.008074
629,-0.014616,0.963323,0.267847,-0.016146,0.009868,-0.010676
630,-0.0146229999999999,0.963166,0.268412,-0.0156199999999999,0.010467,-0.015772
631,-0.014713,0.963037,0.268867,-0.009548,0.013632,-0.01783
632,-0.014782,0.962931,0.269244,-0.010929,0.011968,-0.016101
633,-0.01483,0.962863,0.269485,-0.015642,0.012296,-0.011444
634,-0.014851,0.962834,0.2695889999999999,-0.025082,0.011821,-0.010555
635,-0.014823,0.962841,0.269565,-0.02511,0.010639,-0.009662
636,-0.014851,0.962883,0.269413,-0.024013,0.007484,-0.006519
637,-0.01504,0.962952,0.269157,-0.018682,0.003311,-0.0014869999999999
638,-0.015346,0.962979,0.269038,-0.012608,-0.000974,-0.001201
639,-0.015645,0.962899,0.269308,-0.012401,0.002829,-0.005514
640,-0.015816,0.962702,0.270002,-0.011818,0.0080159999999999,-0.010648
641,-0.015793,0.962416,0.271021,-0.005142,0.015031,-0.023477
642,-0.01558,0.962125,0.272067,-0.004287,0.0150789999999999,-0.031466
643,-0.015294,0.961927,0.272783,-0.016994,0.017825,-0.0260329999999999
644,-0.015072,0.961854,0.27305,-0.022511,0.01773,-0.02537
645,-0.014995,0.961911,0.272855,-0.024876,0.020114,-0.020154
646,-0.015078,0.962047,0.272369,-0.02072,0.014683,-0.020523
647,-0.015299,0.962165,0.271942,-0.013555,0.007928,-0.021698
648,-0.015602,0.962209,0.271765,-0.011559,0.009287,-0.018607
649,-0.0159039999999999,0.962214,0.27173,0.001103,0.003103,-0.015153
650,-0.016066,0.962212,0.271727,0.000762,0.012825,-0.011962
651,-0.016047,0.962244,0.2716159999999999,-0.004415,0.0134639999999999,-0.012567
652,-0.015905,0.96229,0.27146,-0.022913,0.013662,-0.014563
653,-0.015772,0.962351,0.271253,-0.02532,0.019628,-0.014096
654,-0.0158139999999999,0.962394,0.271097,-0.031656,0.016732,-0.023477
655,-0.016063,0.962462,0.270841,-0.020268,0.011018,-0.024183
656,-0.0165039999999999,0.962586,0.270374,-0.007208,0.0117939999999999,-0.0168789999999999
657,-0.016975,0.962779,0.269656,-0.000496,0.012211,-0.0059689999999999
658,-0.017321,0.963016,0.268789,-0.0045899999999999,0.0116239999999999,-0.0036829999999999
659,-0.017455,0.9632,0.2681199999999999,-0.009431,0.0032,-0.005699
660,-0.017467,0.963284,0.267815,-0.011021,0.004138,-0.0038229999999999
661,-0.017481,0.963317,0.267698,-0.017065,0.008515,-0.010298
662,-0.017575,0.963347,0.267582,-0.0178259999999999,0.010942,-0.009312
663,-0.017699,0.963433,0.267266,-0.018007,0.009208,-0.010262
664,-0.017774,0.963554,0.266824,-0.018877,0.012078,-0.0073939999999999
665,-0.017772,0.963689,0.266337,-0.017522,0.008052,-0.0110569999999999
666,-0.017699,0.96384,0.265796,-0.017823,0.009839,-0.008793
667,-0.017605,0.964024,0.265135,-0.019565,0.008221,-0.002058
668,-0.017587,0.964223,0.264409,-0.022422,0.0115,-0.002767
669,-0.017602,0.96441,0.263728,-0.021598,0.010352,-0.006938
670,-0.01762,0.964567,0.263151,-0.021779,0.005403,-0.0137
671,-0.017638,0.964696,0.262679,-0.019334,0.00616,-0.020491
672,-0.01774,0.964827,0.262189,-0.014379,0.010133,-0.0155
673,-0.017835,0.965023,0.261459,-0.0005059999999999,0.008976,-0.010025
674,-0.01771,0.965339,0.260302,0.001047,0.008157,-0.0004599999999999
675,-0.017331,0.965792,0.25864,-0.01279,0.014708,0.010098
676,-0.016995,0.96635,0.256567,-0.022601,0.011693,0.007684
677,-0.016936,0.966925,0.254397,-0.026949,-0.002294,0.00717
678,-0.017315,0.967375,0.252653,-0.0231819999999999,-0.0009289999999999,0.007861
679,-0.018102,0.967682,0.251416,-0.012278,-0.000245,0.00101
680,-0.0188039999999999,0.967902,0.250519,0.0014089999999999,-0.006659,0.006347
681,-0.019193,0.968013,0.250061,-0.001376,-0.007396,0.0077819999999999
682,-0.019236,0.967998,0.250116,-0.0084739999999999,-0.004649,0.008047
683,-0.019049,0.967908,0.250477,-0.0171909999999999,-0.005612,0.009746
684,-0.018713,0.967771,0.251032,-0.0205169999999999,-0.002912,0.006033
685,-0.018209,0.967583,0.251793,-0.030925,0.018074,0.007256
686,-0.017737,0.967471,0.252256,-0.03071,0.013196,0.002704
687,-0.017458,0.967475,0.252261,-0.025725,0.00686,-0.0066409999999999
688,-0.017318,0.967614,0.251735,-0.017213,0.006843,0.011159
689,-0.017384,0.96785,0.250821,-0.018154,0.0086819999999999,0.015109
690,-0.017686,0.968049,0.250035,-0.015518,0.007431,0.012111
691,-0.018032,0.968122,0.249723,0.007763,-0.010587,0.0053729999999999
692,-0.018251,0.968061,0.249946,0.0077989999999999,-0.008954,0.0063409999999999
693,-0.018284,0.967879,0.250644,0.002385,-0.003707,0.009136
694,-0.018139,0.967659,0.251505,-0.0140419999999999,0.009438,-0.0053659999999999
695,-0.017802,0.967471,0.252252,-0.016378,0.013944,-0.010935
696,-0.017406,0.967321,0.2528559999999999,-0.023579,0.020274,-0.011553
697,-0.017037,0.967263,0.253101,-0.0275949999999999,0.018211,-0.007755
698,-0.016782,0.967342,0.252814,-0.0292079999999999,0.0153699999999999,-0.001258
699,-0.016715,0.967531,0.2520949999999999,-0.025841,0.009428,0.003414
700,-0.016901,0.967799,0.251054,-0.0208639999999999,0.007268,0.009017
701,-0.01718,0.968085,0.249931,-0.013047,0.002664,0.010048
702,-0.017368,0.96834,0.248925,-0.010723,0.002409,0.006263
703,-0.01741,0.968542,0.248136,-0.014725,-0.000509,0.003008
704,-0.017386,0.968704,0.247504,-0.016031,-0.003524,0.0015949999999999
705,-0.017345,0.9688,0.24713,-0.0138129999999999,-0.005024,0.0071579999999999
706,-0.017348,0.968784,0.247193,-0.011522,-0.002857,0.005477
707,-0.017349,0.96873,0.247403,-0.011566,0.0009199999999999,0.002307
708,-0.017468,0.968685,0.247574,-0.0138889999999999,0.00504,0.000275
709,-0.017748,0.968673,0.2475969999999999,-0.014783,0.0107879999999999,-0.008263
710,-0.018047,0.968626,0.2477599999999999,-0.004613,0.00519,-0.000843
711,-0.018163,0.968525,0.2481489999999999,0.010793,0.005169,0.004445
712,-0.018085,0.968413,0.248588,0.001575,0.009049,-0.003547
713,-0.017883,0.968329,0.248932,-0.018449,0.009744,-0.007431
714,-0.017797,0.96832,0.248973,-0.026911,0.012164,-0.013499
715,-0.017844,0.968339,0.248894,-0.024362,0.008467,-0.011986
716,-0.017965,0.968343,0.248871,-0.012247,0.005458,0.000153
717,-0.018047,0.96835,0.248837,-0.003635,0.002506,0.005756
718,-0.018009,0.96833,0.248916,-0.004879,-3.8e-05,0.006532
719,-0.01795,0.968245,0.249251,-0.009439,-0.002104,0.005357
720,-0.017938,0.968052,0.25,-0.005744,-0.002125,0.012192
721,-0.0179919999999999,0.96775,0.251165,0.002046,0.005502,0.012232
722,-0.018003,0.967376,0.252602,0.001814,0.004548,0.006919
723,-0.017792,0.966997,0.254065,-0.0037689999999999,0.005232,-0.002112
724,-0.017424,0.966641,0.25544,-0.019137,0.00571,-0.010796
725,-0.017131,0.96632,0.2566719999999999,-0.028813,-5.7e-05,-0.00948
726,-0.0170759999999999,0.965984,0.257936,-0.025358,0.0003549999999999,-0.012865
727,-0.017171,0.965582,0.259434,-0.019069,0.007837,-0.014881
728,-0.017283,0.965179,0.260922,-0.004949,0.020646,-0.020627
729,-0.017283,0.964854,0.262123,-0.005758,0.024358,-0.022377
730,-0.017145,0.96468,0.262771,-0.023703,0.0164139999999999,-0.023467
731,-0.016955,0.964585,0.26313,-0.024243,0.0150599999999999,-0.024253
732,-0.016923,0.964508,0.263413,-0.020141,0.0106349999999999,-0.02475
733,-0.017051,0.964431,0.26369,-0.005379,0.016221,-0.026111
734,-0.017303,0.964392,0.263814,0.002029,0.015832,-0.024312
735,-0.017493,0.964429,0.263667,0.000724,0.018161,-0.0200139999999999
736,-0.017569,0.964486,0.263455,-0.0043729999999999,0.010383,-0.013378
737,-0.017629,0.964531,0.263282,-0.005534,0.004249,-0.00869
738,-0.017669,0.964602,0.263021,-0.011018,0.007017,-0.001974
739,-0.0176629999999999,0.964656,0.262822,-0.022895,0.012837,0.001643
740,-0.017601,0.964735,0.2625369999999999,-0.034569,0.017061,-0.004496
741,-0.017639,0.964891,0.261961,-0.041352,0.013961,-0.004225
742,-0.017911,0.965133,0.26105,-0.035937,-0.001555,0.000867
743,-0.018446,0.965429,0.259917,-0.027788,-0.005056,0.005815
744,-0.019146,0.965714,0.2588,-0.021121,-0.000459,0.011708
745,-0.019813,0.965915,0.257999,-0.009911,0.002438,0.008648
746,-0.020302,0.966034,0.257515,-0.001472,0.006806,0.000419
747,-0.020569,0.966022,0.257536,-0.000824,0.006451,-0.0078099999999999
748,-0.020719,0.965919,0.257913,-0.000872,0.006417,-0.014306
749,-0.020772,0.965791,0.258388,0.001317,0.0096879999999999,-0.0143539999999999
750,-0.020732,0.965662,0.25887,-0.002873,0.016668,-0.022282
751,-0.020641,0.965566,0.259236,-0.010029,0.020152,-0.03127
752,-0.020618,0.965541,0.259331,-0.012311,0.019338,-0.032082
753,-0.020696,0.965599,0.259108,-0.014277,0.01696,-0.029952
754,-0.0208789999999999,0.965757,0.258502,-0.01086,0.00815,-0.0144219999999999
755,-0.021147,0.965982,0.257641,-0.010653,0.01026,-0.0134389999999999
756,-0.021414,0.966206,0.256776,-0.012018,0.010249,-0.013169
757,-0.021696,0.966386,0.2560739999999999,-0.013125,0.008254,-0.0148479999999999
758,-0.021978,0.966504,0.255603,-0.008326,-0.002225,-0.004016
759,-0.022143,0.966542,0.255446,-0.006101,-0.004628,0.003343
760,-0.022174,0.966528,0.255498,-0.010037,0.001917,0.001902
761,-0.022005,0.966455,0.255789,-0.0167669999999999,0.00434,-0.005209
762,-0.021763,0.966357,0.256181,-0.01791,0.008955,-0.004869
763,-0.021593,0.96624,0.256635,-0.019423,0.012001,-0.002653
764,-0.021384,0.966086,0.25723,-0.018807,0.00985,0.006518
765,-0.021136,0.965896,0.257965,-0.0188419999999999,0.00496,0.011322
766,-0.02087,0.965725,0.258627,-0.0170939999999999,0.001423,0.011576
767,-0.020548,0.96566,0.258893,-0.012121,0.001091,0.0069299999999999
768,-0.020146,0.965714,0.258723,-0.01768,0.011779,0.011479
769,-0.019979,0.965908,0.2580139999999999,-0.019083,0.0114019999999999,0.011075
770,-0.020221,0.966183,0.2569659999999999,-0.014096,0.00156,0.00869
771,-0.020825,0.966435,0.2559659999999999,-0.005527,-0.006566,0.006363
772,-0.02175,0.96658,0.255343,0.012213,-0.012326,0.008482
773,-0.022525,0.96652,0.255504,0.018527,-0.0069549999999999,0.01125
774,-0.0228,0.966234,0.25656,0.015338,-0.000718,0.008287
775,-0.022697,0.965845,0.258029,-0.005532,0.011633,-0.012836
776,-0.022306,0.965451,0.259533,-0.008288,0.01723,-0.017147
777,-0.021765,0.965139,0.26074,-0.011942,0.012858,-0.019514
778,-0.0209759999999999,0.964983,0.261381,-0.028676,0.0197889999999999,0.011126
779,-0.020191,0.965035,0.261252,-0.0364339999999999,0.022178,0.020975
780,-0.019821,0.965271,0.260405,-0.0419,0.0031579999999999,0.024781
781,-0.020034,0.965515,0.2594849999999999,-0.026444,-0.003967,0.023032
782,-0.020831,0.965591,0.259138,-0.017789,0.004425,0.022921
783,-0.021797,0.965398,0.259778,0.011787,-0.010289,0.006411
784,-0.022299,0.965007,0.261184,0.016104,-0.004603,-0.0064379999999999
785,-0.0222729999999999,0.964443,0.263256,0.002299,-0.002361,-0.00761
786,-0.0217139999999999,0.963832,0.26553,-0.010864,-0.0110879999999999,-0.004177
787,-0.020738,0.963328,0.26743,-0.0332019999999999,0.0175379999999999,0.0012779999999999
788,-0.019666,0.963087,0.268374,-0.043689,0.030824,-0.003604
789,-0.019075,0.96308,0.268444,-0.051283,0.039407,-0.0134849999999999
790,-0.0191919999999999,0.963253,0.267814,-0.028461,0.029072,-0.021095
791,-0.020036,0.963463,0.266997,-0.010055,0.022026,-0.019652
792,-0.021208,0.963568,0.266526,0.00305,0.017908,-0.011216
793,-0.022052,0.963565,0.26647,0.017551,-0.0004599999999999,-0.006155
794,-0.02213,0.96351,0.266663,0.005742,0.005027,-0.014252
795,-0.021621,0.963475,0.266831,-0.002656,0.006862,-0.018952
796,-0.020724,0.963574,0.266547,-0.034985,0.007816,-0.003349
797,-0.020016,0.963836,0.265651,-0.056034,0.007965,0.001576
798,-0.019767,0.964117,0.264651,-0.054162,0.004893,0.004895
799,-0.020097,0.964286,0.264008,-0.025222,0.0094989999999999,0.005767
800,-0.020693,0.964318,0.263844,0.005404,0.015479,-0.00948
801,-0.021249,0.964229,0.264127,0.01275,0.008763,-0.008893
802,-0.021422,0.964074,0.264677,0.011076,0.0085659999999999,-0.010908
803,-0.0210759999999999,0.963961,0.265117,0.001362,0.009412,-0.015757
804,-0.020426,0.963989,0.265067,-0.015584,-0.000183,-0.022407
805,-0.019599,0.964222,0.264279,-0.036675,0.014018,0.001224
806,-0.019188,0.964593,0.262954,-0.052604,0.0154639999999999,0.012101
807,-0.019328,0.964949,0.261631,-0.039739,0.012269,0.013759
808,-0.019856,0.965197,0.260677,-0.009929,0.001432,-0.001217
809,-0.020547,0.96535,0.260057,0.011529,0.006559,-0.009263
810,-0.0210139999999999,0.965409,0.259801,0.016711,0.004547,-0.005849
811,-0.021009,0.965403,0.259824,0.0072459999999999,0.005545,-0.007459
812,-0.020671,0.965365,0.259993,0.001475,0.000715,-0.008085
813,-0.020078,0.965355,0.2600739999999999,-0.011294,0.00309,-0.004764
814,-0.019319,0.965441,0.259813,-0.027083,0.0087099999999999,0.000288
815,-0.018849,0.965609,0.2592239999999999,-0.043941,0.016172,-0.001076
816,-0.018823,0.965811,0.258475,-0.028754,0.001291,0.001001
817,-0.019203,0.965983,0.257806,-0.003899,0.004507,0.009299
818,-0.019676,0.966014,0.257654,0.019355,-0.008967,0.0138599999999999
819,-0.019761,0.965863,0.258211,0.0206,-0.008572,0.01219
820,-0.019484,0.965569,0.259329,-0.00818,0.0081549999999999,0.0070129999999999
821,-0.018928,0.9652,0.260742,-0.015053,0.007121,0.003128
822,-0.018261,0.964822,0.262186,-0.017048,0.0037909999999999,0.003393
823,-0.017491,0.964552,0.26323,-0.018321,0.001253,0.010421
824,-0.01673,0.964432,0.263719,-0.0261779999999999,0.011108,0.0191789999999999
825,-0.016424,0.964437,0.2637219999999999,-0.040537,0.013133,-0.0023239999999999
826,-0.016641,0.964475,0.263569,-0.0232,0.008227,-0.002247
827,-0.017282,0.964421,0.263723,-0.011557,0.005382,-0.004034
828,-0.017998,0.964223,0.264398,0.01226,-0.00115,0.001516
829,-0.0183599999999999,0.963962,0.265324,0.013127,-0.00249,-0.001423
830,-0.018246,0.963671,0.266387,0.005337,0.004423,-0.003951
831,-0.017791,0.963365,0.26752,-0.019105,0.008619,-0.018222
832,-0.017147,0.963134,0.268396,-0.024509,0.007142,-0.017908
833,-0.016609,0.963121,0.268475,-0.034356,0.0211009999999999,-0.009885
834,-0.016569,0.963277,0.26792,-0.030275,0.014308,-0.007316
835,-0.016981,0.963446,0.267284,-0.019853,0.00657,-0.00317
836,-0.017711,0.963562,0.266818,-0.006062,0.018371,-0.002444
837,-0.018595,0.963578,0.266703,0.009806,0.008194,-0.0136969999999999
838,-0.019181,0.963502,0.266935,0.016679,0.005905,-0.018507
839,-0.019315,0.963385,0.267347,0.006848,0.007517,-0.020658
840,-0.019045,0.963295,0.267688,-0.011198,-0.002877,-0.023318
841,-0.018499,0.963268,0.267823,-0.035411,0.020679,-0.019318
842,-0.018131,0.963347,0.267565,-0.04063,0.024613,-0.02112
843,-0.018149,0.963487,0.2670619999999999,-0.041986,0.0198199999999999,-0.020663
844,-0.018566,0.963604,0.266609,-0.01955,0.009342,-0.01194
845,-0.0192169999999999,0.963692,0.266246,0.009467,0.01168,-0.009318
846,-0.019819,0.963734,0.266049,0.012723,0.016902,-0.010129
847,-0.020065,0.963735,0.266026,0.012695,0.0124,-0.012653
848,-0.019885,0.963708,0.266138,-0.011304,-0.000161,-0.019311
849,-0.019462,0.963629,0.2664559999999999,-0.01783,-0.001913,-0.019782
850,-0.019056,0.963557,0.266744,-0.022692,0.0011949999999999,-0.014608
851,-0.018862,0.963517,0.266904,-0.023603,0.013274,-0.011472
852,-0.01888,0.963503,0.2669539999999999,-0.021174,0.0177139999999999,-0.010637
853,-0.019012,0.963511,0.266912,-0.013611,0.013646,-0.010351
854,-0.01915,0.963499,0.26695,0.004028,0.002764,-0.003842
855,-0.019207,0.963454,0.267107,0.0041,0.002275,-0.002489
856,-0.019181,0.963379,0.267379,0.0003509999999999,0.0065,-0.0014039999999999
857,-0.019038,0.963284,0.267729,-0.011022,0.011508,-0.007109
858,-0.018847,0.963174,0.26814,-0.0170729999999999,0.010962,-0.010022
859,-0.018713,0.96309,0.268448,-0.018061,0.010985,-0.0094
860,-0.018627,0.963039,0.2686409999999999,-0.019734,0.006474,-0.004359
861,-0.0186099999999999,0.963036,0.268651,-0.016592,0.0064769999999999,-0.004155
862,-0.0186099999999999,0.963094,0.268442,-0.005071,0.016627,-0.008173
863,-0.018483,0.96316,0.268216,0.000569,0.010854,-0.0138979999999999
864,-0.018267,0.963266,0.26785,0.002062,0.009436,-0.011701
865,-0.018106,0.963452,0.267192,-0.005118,0.0052829999999999,-0.0002089999999999
866,-0.0180229999999999,0.963642,0.2665099999999999,-0.017378,-0.003559,0.012024
867,-0.017913,0.963754,0.266113,-0.019395,0.001242,0.009308
868,-0.017781,0.963803,0.265945,-0.021388,-0.0017059999999999,-0.007049
869,-0.01769,0.96385,0.265781,-0.020548,-0.001738,-0.005206
870,-0.017686,0.963927,0.265504,-0.0209789999999999,-0.005598,0.010879
871,-0.017726,0.963974,0.265331,-0.020391,0.0014039999999999,0.016728
872,-0.0177289999999999,0.963931,0.265486,-0.012835,0.002591,0.005327
873,-0.017669,0.963807,0.265938,-0.00528,0.0103439999999999,-0.002861
874,-0.017531,0.963654,0.266501,-0.005068,0.0102379999999999,-0.0044009999999999
875,-0.017373,0.963512,0.267023,-0.009132,0.008564,-0.004893
876,-0.017164,0.963425,0.267349,-0.009341,0.008651,-0.0052179999999999
877,-0.016955,0.963384,0.267511,-0.0188419999999999,0.015895,-0.011926
878,-0.016822,0.963405,0.267443,-0.018258,0.010731,-0.007311
879,-0.016769,0.963456,0.267264,-0.018417,0.0071099999999999,0.000757
880,-0.016766,0.9635,0.267103,-0.014927,0.003694,-0.000685
881,-0.01672,0.963523,0.267022,-0.012256,0.005028,0.002097
882,-0.016616,0.963539,0.266971,-0.014939,0.0073319999999999,0.002927
883,-0.016493,0.963546,0.266955,-0.017733,0.006272,-7.900000000000001e-05
884,-0.016368,0.963545,0.266964,-0.015905,0.006242,0.000889
885,-0.016247,0.963527,0.2670369999999999,-0.015949,0.005391,0.002525
886,-0.016177,0.963483,0.267198,-0.018445,0.004122,0.004927
887,-0.016113,0.963423,0.26742,-0.020203,0.005709,0.000173
888,-0.0160289999999999,0.963345,0.267705,-0.020699,0.0072209999999999,-0.004598
889,-0.015936,0.963278,0.267952,-0.009454,0.010477,-0.00689
890,-0.015827,0.963233,0.268119,-0.011517,0.010384,-0.007179
891,-0.015755,0.963205,0.268226,-0.012077,0.009665,-0.004799
892,-0.01567,0.963187,0.268293,-0.012971,0.0080959999999999,-0.007108
893,-0.015581,0.963177,0.268336,-0.0101599999999999,0.007252,-0.003825
894,-0.0154259999999999,0.963191,0.268293,-0.010193,0.008839,0.0001699999999999
895,-0.015275,0.963234,0.268148,-0.0132129999999999,0.009132,-0.0006
896,-0.015187,0.963291,0.267948,-0.0135139999999999,0.0050009999999999,0.00436
897,-0.0151759999999999,0.96334,0.267771,-0.012504,0.003685,0.008947
898,-0.0151479999999999,0.96336,0.267701,-0.012958,0.001911,0.009429
899,-0.015063,0.963339,0.267782,-0.013654,0.00387,0.000132
900,-0.0149909999999999,0.963319,0.267857,-0.0131919999999999,0.010939,-0.0040479999999999
901,-0.014928,0.963335,0.267805,-0.012324,0.005538,-0.005643
902,-0.014868,0.96336,0.267715,-0.013574,0.0047799999999999,0.000229
903,-0.014802,0.963398,0.267584,-0.013381,0.011212,0.003397
904,-0.014757,0.963439,0.267438,-0.013198,0.009156,0.000644
905,-0.014768,0.963496,0.267233,-0.00928,0.007726,-0.0033469999999999
906,-0.014792,0.963558,0.267007,-0.008036,0.004368,-0.000757
907,-0.014776,0.963603,0.266844,-0.009364,0.00205,0.003694
908,-0.014721,0.963622,0.266777,-0.01511,0.006318,0.002434
909,-0.014685,0.963629,0.266756,-0.018625,0.0068,-0.002169
910,-0.014665,0.963638,0.2667239999999999,-0.012648,0.005768,-0.005204
911,-0.014631,0.96365,0.266683,-0.0103629999999999,0.007893,-0.00295
912,-0.014568,0.963659,0.266651,-0.010898,0.00358,-0.00536
913,-0.0145259999999999,0.963681,0.266573,-0.012986,0.013034,-0.002717
914,-0.014502,0.963692,0.2665369999999999,-0.015115,0.009834,-0.004742
915,-0.014521,0.963691,0.2665369999999999,-0.0108849999999999,0.005349,-0.003796
916,-0.0145289999999999,0.963694,0.266529,-0.011823,0.006506,-0.003864
917,-0.014459,0.963726,0.266417,-0.013831,0.008655,-0.004698
918,-0.014297,0.963828,0.266058,-0.0181729999999999,0.008554,-0.004949
919,-0.014143,0.964006,0.265421,-0.021242,0.003447,0.003149
920,-0.014097,0.964204,0.264702,-0.019732,0.000593,0.008629
921,-0.014079,0.96436,0.264134,-0.0083819999999999,0.0042369999999999,0.020534
922,-0.014069,0.964503,0.263614,-0.008392,0.0035759999999999,0.014417
923,-0.014047,0.964643,0.263103,-0.01351,0.002856,0.00417
924,-0.014071,0.964747,0.262719,-0.018857,-0.000407,-0.0018239999999999
925,-0.014173,0.964779,0.2625949999999999,-0.0094019999999999,0.0005679999999999,0.003931
926,-0.01425,0.964737,0.262746,-0.007708,0.000122,0.003932
927,-0.014185,0.964675,0.262977,-0.010473,0.002946,-0.001182
928,-0.014087,0.964632,0.26314,-0.0158659999999999,0.007765,-0.014956
929,-0.014021,0.964608,0.26323,-0.0141919999999999,0.006919,-0.009446
930,-0.013977,0.964556,0.263427,-0.014603,0.005949,-0.003173
931,-0.0139099999999999,0.964442,0.263844,-0.008138,0.001515,0.009029
932,-0.013737,0.964282,0.264439,-0.006801,0.002225,0.011806
933,-0.013423,0.964115,0.2650619999999999,-0.006657,0.010815,0.0130139999999999
934,-0.013018,0.96401,0.265463,-0.020658,0.010508,-0.000434
935,-0.01258,0.964035,0.265393,-0.026117,0.008011,-0.002485
936,-0.01228,0.964201,0.264804,-0.0284,0.004793,0.015149
937,-0.01231,0.964448,0.263903,-0.02663,-0.000825,0.020109
938,-0.012579,0.964674,0.263065,-0.019556,0.000719,0.016568
939,-0.013026,0.964812,0.2625369999999999,-0.007848,0.002656,0.005652
940,-0.013569,0.964876,0.262273,0.003804,0.000807,-0.003743
941,-0.013987,0.964846,0.262361,0.009348,-0.008013,-0.000597
942,-0.014087,0.964678,0.262975,0.0032229999999999,-0.008974,0.005443
943,-0.013986,0.964392,0.264026,-0.010795,5.5e-05,0.0014
944,-0.013746,0.964032,0.26535,-0.0129419999999999,0.007876,-0.006576
945,-0.013422,0.963704,0.266555,-0.016729,0.016429,-0.01335
946,-0.013129,0.96349,0.267342,-0.02424,0.020427,-0.013313
947,-0.0129449999999999,0.963398,0.267685,-0.024714,0.012417,-0.005692
948,-0.013056,0.963437,0.2675389999999999,-0.018331,0.010227,-0.001594
949,-0.013377,0.963533,0.267176,-0.010243,0.012022,0.0017289999999999
950,-0.0137139999999999,0.963609,0.266889,-0.004459,0.013045,7.900000000000001e-05
951,-0.0139669999999999,0.963642,0.266755,-0.001215,0.010296,-0.0070959999999999
952,-0.014136,0.96367,0.2666409999999999,-0.002908,0.008223,-0.016718
953,-0.014277,0.963733,0.266407,-0.00446,0.001309,-0.019978
954,-0.014368,0.963845,0.265997,-0.008672,0.005088,-0.009863
955,-0.0144509999999999,0.96399,0.265466,-0.0137169999999999,0.007506,-0.002389
956,-0.014528,0.964126,0.264968,-0.01602,0.009797,-0.002791
957,-0.0146449999999999,0.964235,0.2645639999999999,-0.017414,0.012938,-0.010627
958,-0.01481,0.964317,0.264257,-0.0137849999999999,0.010735,-0.013143
959,-0.015078,0.964383,0.264002,-0.00839,0.011234,-0.01481
960,-0.015338,0.964456,0.263719,-0.002789,0.007514,-0.013216
961,-0.015459,0.964535,0.263424,-0.0088939999999999,0.012806,-0.011776
962,-0.015427,0.964614,0.263137,-0.011566,0.014634,-0.014464
963,-0.0154,0.964724,0.262732,-0.017513,0.016782,-0.02149
964,-0.015456,0.964895,0.262101,-0.019822,0.01179,-0.02353
965,-0.01563,0.96509,0.261373,-0.014475,0.010176,-0.018362
966,-0.015928,0.965315,0.260524,-0.0076159999999999,0.006426,-0.012203
967,-0.016237,0.965558,0.259603,-0.004896,0.008365,-0.008214
968,-0.016453,0.965762,0.258828,-0.0016899999999999,0.004926,-0.006509
969,-0.016556,0.96591,0.258268,-0.002426,0.006121,-0.004911
970,-0.01659,0.966007,0.257901,-0.003399,0.005993,-0.004941
971,-0.016543,0.966061,0.257705,-0.006437,0.004612,-0.005614
972,-0.0164069999999999,0.966092,0.257596,-0.00848,0.004321,-0.002423
973,-0.016211,0.966127,0.257477,-0.01748,0.011534,-0.002396
974,-0.016082,0.966168,0.257332,-0.018738,0.006381,-0.000694
975,-0.016053,0.966213,0.257164,-0.012938,0.004734,0.002113
976,-0.016087,0.966264,0.256972,-0.01179,0.000121,0.009675
977,-0.016087,0.966293,0.25686,-0.01237,-0.001251,0.0124269999999999
978,-0.0160139999999999,0.966291,0.256873,-0.00895,0.004091,0.011773
979,-0.0158729999999999,0.966249,0.257042,-0.008083,-0.002717,0.011467
980,-0.015727,0.96614,0.2574599999999999,-0.007695,-0.002822,0.0134449999999999
981,-0.015571,0.965952,0.2581719999999999,-0.010781,0.002828,0.0192479999999999
982,-0.015349,0.965736,0.258994,-0.010392,0.007927,0.008385
983,-0.015096,0.965541,0.259736,-0.015162,0.013265,-0.005494
984,-0.014915,0.965412,0.2602239999999999,-0.016198,0.007885,-0.00554
985,-0.014877,0.965346,0.260472,-0.0149539999999999,0.004533,0.009456
986,-0.014883,0.965298,0.260646,-0.011362,0.001163,0.021
987,-0.014872,0.965223,0.260927,-0.011922,0.002947,0.017668
988,-0.014833,0.965169,0.261129,-0.014632,0.005977,0.008845
989,-0.014791,0.965113,0.261339,-0.011287,0.000616,0.0092909999999999
990,-0.014749,0.965039,0.261614,-0.008948,-0.00105,0.010053
991,-0.0146889999999999,0.964929,0.262021,-0.0069019999999999,-0.004343,0.02254
992,-0.014541,0.964784,0.2625639999999999,-0.010026,0.002211,0.01835
993,-0.0143259999999999,0.964626,0.263155,-0.014879,0.004963,0.0082069999999999
994,-0.014133,0.964474,0.2637219999999999,-0.021908,0.005832,0.0064189999999999
995,-0.014047,0.964318,0.264298,-0.020102,-0.001534,0.010711
996,-0.014052,0.964134,0.264966,-0.011964,-0.0078049999999999,0.020861
997,-0.0140669999999999,0.963912,0.265773,-0.00757,-0.003508,0.024007
998,-0.014033,0.963634,0.26678,-0.013356,0.0036049999999999,0.008153
999,-0.013896,0.963341,0.267844,-0.013829,0.008018,0.000664
1000,-0.013759,0.963092,0.268744,-0.016133,0.012067,-0.007728
1001,-0.013672,0.962885,0.269489,-0.016738,0.009313,-0.004016
1002,-0.013741,0.96275,0.269969,-0.018074,0.008426,-0.001567
1003,-0.0139099999999999,0.962667,0.270257,-0.0175069999999999,0.009456,-0.002206
1004,-0.014075,0.962622,0.270407,-0.013421,0.01719,-0.008062
1005,-0.014252,0.96265,0.270302,-0.0133509999999999,0.0275699999999999,-0.023292
1006,-0.014502,0.962749,0.269935,-0.012628,0.012395,-0.024574
1007,-0.01487,0.962924,0.269291,-0.00631,0.003156,-0.019215
1008,-0.015428,0.963173,0.268367,6.2e-05,0.004372,-0.005199
1009,-0.01594,0.963425,0.267429,-0.001836,0.0044859999999999,0.004803
1010,-0.016171,0.963585,0.266838,0.0016899999999999,0.004524,0.002525
1011,-0.0161569999999999,0.963637,0.26665,0.001081,0.0075239999999999,-0.005267
1012,-0.016064,0.963618,0.266723,-0.006442,0.002416,-0.010605
1013,-0.016025,0.963586,0.266843,-0.007657,0.00286,-0.008801
1014,-0.016075,0.963548,0.266977,-0.011284,0.006285,-0.0077599999999999
1015,-0.016112,0.963526,0.267052,-0.009386,0.0144699999999999,-0.008263
1016,-0.016168,0.96352,0.267074,-0.01177,0.0149349999999999,-0.0125569999999999
1017,-0.016244,0.963525,0.267048,-0.0090239999999999,0.010489,-0.013004
1018,-0.016432,0.963535,0.267001,0.0011279999999999,0.006543,-0.001971
1019,-0.01662,0.963532,0.267,0.003802,0.006302,0.001844
1020,-0.016721,0.963526,0.267014,0.00221,0.007513,0.00325
1021,-0.016737,0.963531,0.266997,-0.0143449999999999,0.009186,-0.007613
1022,-0.016731,0.963535,0.266982,-0.0162889999999999,0.009625,-0.007903
1023,-0.016817,0.963574,0.266834,-0.014693,0.006992,-0.004261
1024,-0.016962,0.963629,0.266628,-0.003179,0.000605,0.0045049999999999
1025,-0.017088,0.963702,0.266354,-0.005343,0.00137,0.00925
1026,-0.017206,0.963767,0.266115,-0.016867,0.002313,0.007552
1027,-0.017372,0.963793,0.266009,-0.016045,0.00366,0.001111
1028,-0.017653,0.963772,0.266065,-0.002916,-0.003872,0.0001699999999999
1029,-0.018063,0.963671,0.266405,0.001828,-0.002169,-0.000521
1030,-0.018423,0.96348,0.267071,0.008093,0.003408,-0.000744
1031,-0.018575,0.96324,0.267926,0.000234,0.006731,-0.0083439999999999
1032,-0.018627,0.962987,0.268829,-0.010228,0.014887,-0.022399
1033,-0.018622,0.96276,0.269642,-0.012186,0.020699,-0.028461
1034,-0.01859,0.962602,0.27021,-0.011622,0.017684,-0.0209889999999999
1035,-0.018658,0.96254,0.270425,-0.009556,0.015304,-0.008798
1036,-0.018696,0.962581,0.270277,-0.01202,0.012639,-0.00041
1037,-0.018693,0.96268,0.269925,-0.01007,0.013547,0.001407
1038,-0.018545,0.962839,0.269367,-0.0141699999999999,0.014319,0.002025
1039,-0.018408,0.963087,0.268489,-0.015894,0.009936,0.001836
1040,-0.018455,0.963409,0.267325,-0.01072,-0.000183,0.006021
1041,-0.018633,0.963809,0.265868,-0.010633,-0.001117,0.015382
1042,-0.018888,0.964206,0.26441,-0.010348,-0.004504,0.028406
1043,-0.019022,0.964541,0.2631739999999999,-0.011404,-0.005511,0.028666
1044,-0.019105,0.964782,0.262284,-0.013045,-0.0082239999999999,0.023147
1045,-0.0193,0.964913,0.261788,-0.013216,-0.0144129999999999,0.020484
1046,-0.019653,0.964934,0.261685,-0.0103,-0.011824,0.0201289999999999
1047,-0.020003,0.964825,0.2620619999999999,-0.0015119999999999,-0.005429,0.015908
1048,-0.0201849999999999,0.964599,0.262878,-0.004382,0.0037689999999999,0.002061
1049,-0.020231,0.964291,0.264001,-0.0078599999999999,0.005023,-0.0184259999999999
1050,-0.020266,0.963977,0.2651449999999999,-0.005979,0.0100069999999999,-0.023736
1051,-0.020301,0.96371,0.26611,-0.003899,0.010838,-0.022778
1052,-0.020321,0.963491,0.2669,-0.0053289999999999,0.021052,-0.016198
1053,-0.020253,0.963332,0.26748,-0.006846,0.021486,-0.01545
1054,-0.020109,0.963227,0.267868,-0.009661,0.018447,-0.013825
1055,-0.0200139999999999,0.963218,0.26791,-0.008337,0.0162129999999999,-0.011516
1056,-0.019987,0.963303,0.267607,-0.004794,0.00563,0.000322
1057,-0.019927,0.963458,0.267053,-0.005296,0.006513,0.009146
1058,-0.019797,0.96367,0.266298,-0.012689,4.5e-05,0.018202
1059,-0.019783,0.963932,0.265345,-0.018058,0.004039,0.016562
1060,-0.020056,0.964194,0.264372,-0.014901,-0.008262,0.025103
1061,-0.020634,0.964417,0.263513,-0.0077319999999999,-0.014313,0.02738
1062,-0.021283,0.964541,0.263007,0.008404,-0.016208,0.032846
1063,-0.021768,0.964511,0.263077,0.0073019999999999,0.001507,0.030442
1064,-0.021912,0.964335,0.263712,0.010789,0.004034,0.022375
1065,-0.021805,0.96406,0.264723,0.000336,-0.0039159999999999,0.005358
1066,-0.021515,0.963748,0.265883,-0.01358,0.008573,0.002901
1067,-0.021287,0.963486,0.266849,-0.0177139999999999,0.0095819999999999,-0.001392
1068,-0.021181,0.963297,0.2675369999999999,-0.020368,0.019628,-0.001531
1069,-0.021263,0.963256,0.267682,-0.027763,0.0239729999999999,0.003314
1070,-0.021467,0.963367,0.267263,-0.031176,0.017681,0.0031219999999999
1071,-0.021769,0.96352,0.266688,-0.030233,0.006847,0.004445
1072,-0.022132,0.963662,0.266146,-0.024041,-0.000604,-0.003374
1073,-0.022502,0.963762,0.265754,-0.014943,0.002791,-0.004768
1074,-0.022784,0.963813,0.265546,-0.006421,-0.000907,-0.00227
1075,-0.022855,0.963804,0.265573,0.0106629999999999,-0.004469,0.00521
1076,-0.022605,0.963696,0.265986,0.003624,-0.002484,0.00057
1077,-0.022163,0.963499,0.266737,2.3e-05,6.3e-05,-0.010435
1078,-0.021696,0.963195,0.267868,0.017408,0.011399,-0.046707
1079,-0.0213539999999999,0.962869,0.269065,0.028419,0.022895,-0.0545419999999999
1080,-0.021233,0.962706,0.269654,0.062676,0.028474,-0.037369
1081,-0.021302,0.962757,0.269469,0.048677,0.025448,-0.0014789999999999
1082,-0.021273,0.962957,0.268753,0.00809,-0.001287,0.023835
1083,-0.021068,0.963196,0.267914,-0.02126,-0.0025329999999999,0.0283199999999999
1084,-0.020869,0.963338,0.267417,-0.031072,0.004481,0.007974
1085,-0.020703,0.963368,0.267323,-0.032001,-0.0027199999999999,0.0027429999999999
1086,-0.02081,0.963331,0.267446,-0.030841,-0.013059,0.005579
1087,-0.020986,0.963289,0.267584,-0.037334,-0.004075,0.025079
1088,-0.020988,0.963268,0.267658,-0.039879,0.010548,0.042996
1089,-0.020794,0.963307,0.267534,-0.033115,0.011822,0.0300269999999999
1090,-0.020511,0.963437,0.267084,-0.028592,0.017764,0.016592
1091,-0.020615,0.963697,0.266137,-0.015793,0.004397,0.005607
1092,-0.021131,0.963992,0.265028,0.009748,-0.01816,0.01256
1093,-0.021749,0.964123,0.264499,0.030416,-0.015713,0.016065
1094,-0.022124,0.964009,0.264886,0.033613,-0.007512,0.003195
1095,-0.022154,0.963709,0.265971,0.027967,-0.003611,-0.0204729999999999
1096,-0.021871,0.963305,0.267457,0.024328,-0.003008,-0.039338
1097,-0.02163,0.962904,0.268915,0.028893,0.013613,-0.043421
1098,-0.021539,0.962549,0.270194,0.037668,0.024268,-0.043982
1099,-0.021764,0.962363,0.270838,0.029393,0.073999,-0.020472
1100,-0.022377,0.962673,0.269684,-0.007546,0.046665,0.028763
1101,-0.023329,0.963344,0.267194,-0.02051,-0.010692,0.037447
1102,-0.024063,0.96384,0.265334,-0.02684,-0.023655,0.034242
1103,-0.024666,0.964217,0.263906,-0.018165,-0.035521,0.010737
1104,-0.025502,0.964393,0.26318,-0.012264,-0.0199349999999999,0.020267
1105,-0.026414,0.964466,0.262824,-0.010085,-0.00919,0.0303279999999999
1106,-0.026563,0.964413,0.263003,-0.0129259999999999,-0.0128449999999999,0.0283329999999999
1107,-0.0256449999999999,0.964199,0.26388,-0.058202,0.008244,0.041128
1108,-0.024204,0.963867,0.265225,-0.0815549999999999,0.010483,0.012897
1109,-0.022907,0.96339,0.2670619999999999,-0.086849,0.017612,-0.001544
1110,-0.022368,0.963112,0.268109,-0.080186,0.032753,-0.010754
1111,-0.022922,0.96319,0.267781,-0.042111,0.015798,0.009501
1112,-0.024135,0.963546,0.266391,-0.02776,0.010056,0.0153169999999999
1113,-0.025381,0.964098,0.264271,-0.0105379999999999,0.0029739999999999,0.0273399999999999
1114,-0.026143,0.964612,0.262312,0.030873,-0.002866,-0.009977
1115,-0.025522,0.964866,0.26144,0.058024,0.019494,-0.043209
1116,-0.023129,0.964352,0.263551,0.028622,0.004978,-0.008195
1117,-0.020523,0.963519,0.266791,0.032135,-0.026569,0.047662
1118,-0.018877,0.963392,0.267373,0.0272689999999999,-0.018949,0.055503
1119,-0.0189669999999999,0.963928,0.265426,-0.022949,0.001449,0.011628
1120,-0.019534,0.964306,0.264007,-0.045926,0.0156889999999999,-0.001419
1121,-0.020076,0.964713,0.26248,-0.010259,0.027719,0.015459
1122,-0.021259,0.965084,0.261015,0.002262,0.003116,0.002977
1123,-0.022285,0.9653,0.260129,0.008979,-0.002196,-0.0411959999999999
1124,-0.023114,0.965267,0.26018,0.019513,0.010579,-0.0669429999999999
1125,-0.023091,0.965157,0.260587,0.026326,0.015266,-0.023389
1126,-0.0232509999999999,0.96524,0.260266,0.017453,0.0140539999999999,-0.016919
1127,-0.023409,0.965285,0.260085,-0.000776,0.009202,-0.015899
1128,-0.023347,0.965268,0.260155,0.002091,0.009845,-0.009453
1129,-0.023313,0.965197,0.260421,0.0068189999999999,0.004926,-0.011962
1130,-0.023344,0.965158,0.2605639999999999,0.0069409999999999,0.007697,-0.010884
1131,-0.023358,0.965183,0.260469,-0.007876,0.008022,-0.006395
1132,-0.023361,0.965211,0.260366,-0.013763,0.004561,-0.001119
1133,-0.0232479999999999,0.965175,0.260511,-0.013708,0.003423,0.004336
1134,-0.023111,0.965094,0.260822,-0.006918,0.000726,0.006847
1135,-0.022984,0.965011,0.261141,9.6e-05,0.002991,0.007276
1136,-0.022937,0.964947,0.261383,-0.001797,0.004337,0.000488
1137,-0.022902,0.964876,0.2616469999999999,-0.008226,0.003599,-0.002889
1138,-0.02289,0.964768,0.262047,-0.0093829999999999,0.006576,-0.0001909999999999
1139,-0.022897,0.964632,0.262547,-0.00524,0.001982,0.001201
1140,-0.022964,0.964485,0.263082,0.001312,0.002251,-0.000676
1141,-0.02302,0.964319,0.263683,0.002268,0.002996,-0.002605
1142,-0.023024,0.964155,0.264283,-0.000719,0.009386,-0.003709
1143,-0.0229669999999999,0.96399,0.26489,-0.006131,0.01004,-0.003126
1144,-0.022927,0.96384,0.265442,-0.004752,0.005704,-0.002777
1145,-0.022895,0.963717,0.265891,-0.002817,0.003904,0.002709
1146,-0.0228729999999999,0.963604,0.266301,-0.003143,0.008961,0.004497
1147,-0.022828,0.963497,0.2666929999999999,-0.006301,0.011998,0.006058
1148,-0.022761,0.963394,0.2670679999999999,-0.009237,0.006866,0.002051
1149,-0.022696,0.963309,0.267382,-0.010584,0.005395,0.0035979999999999
1150,-0.022684,0.963257,0.26757,-0.008765,0.003768,0.006005
1151,-0.0227169999999999,0.963243,0.267621,-0.012088,0.005477,0.008975
1152,-0.022695,0.963231,0.267665,-0.014186,0.006404,0.0066269999999999
1153,-0.022595,0.96319,0.267822,-0.015674,0.003195,0.0076599999999999
1154,-0.022486,0.963121,0.268078,-0.015036,0.0008529999999999,0.006901
1155,-0.0224639999999999,0.963068,0.2682719999999999,-0.013104,0.0009519999999999,0.004799
1156,-0.022493,0.963036,0.268383,-0.01245,0.002433,0.010258
1157,-0.022482,0.963023,0.268429,-0.013377,0.010503,0.00571
1158,-0.022406,0.963018,0.2684539999999999,-0.013559,0.013362,0.002404
1159,-0.0222729999999999,0.963011,0.26849,-0.014851,0.011278,-0.006085
1160,-0.022261,0.963049,0.268353,-0.010622,0.0063869999999999,-0.007276
1161,-0.022355,0.963157,0.26796,-0.0077959999999999,0.007867,-0.003388
1162,-0.022452,0.963313,0.267392,-0.00715,0.008535,0.002491
1163,-0.02247,0.963466,0.266838,-0.009375,0.0109909999999999,0.002098
1164,-0.0224389999999999,0.963609,0.266322,-0.009055,0.013869,-0.001064
1165,-0.022418,0.963773,0.265733,-0.0047729999999999,0.0098599999999999,-0.003709
1166,-0.02244,0.963977,0.264988,-0.003149,0.006131,-0.003498
1167,-0.022484,0.964215,0.2641179999999999,-0.0037,0.00246,0.003109
1168,-0.02251,0.964455,0.263236,-0.010342,0.004966,0.009073
1169,-0.022463,0.964673,0.262442,-0.01077,0.001407,0.008875
1170,-0.02238,0.964864,0.261745,-0.0065209999999999,0.004801,0.010762
1171,-0.022297,0.965052,0.26106,-0.003689,0.009008,0.008151
1172,-0.022275,0.965262,0.260284,-0.009097,0.003747,0.006104
1173,-0.022319,0.965524,0.259308,-0.009953,0.0025399999999999,0.005325
1174,-0.022421,0.96578,0.258342,-0.011636,7.099999999999999e-05,0.014531
1175,-0.022443,0.96599,0.257555,-0.007754,-0.002611,0.01959
1176,-0.022349,0.966161,0.256922,-0.005193,-0.0045829999999999,0.022497
1177,-0.022195,0.966297,0.256425,-0.008307,0.000241,0.019103
1178,-0.021997,0.966391,0.256087,-0.012381,0.0027559999999999,0.017854
1179,-0.021805,0.966461,0.255839,-0.011002,0.002167,0.012212
1180,-0.0216419999999999,0.966517,0.255642,-0.008784,-0.000361,0.012654
1181,-0.021512,0.966571,0.255449,-0.008166,-0.00542,0.017027
1182,-0.0213949999999999,0.966587,0.255397,-0.0071239999999999,-0.001346,0.023579
1183,-0.021254,0.966569,0.255476,-0.00667,0.000274,0.025667
1184,-0.021039,0.966556,0.2555409999999999,-0.008334,0.002407,0.015729
1185,-0.020817,0.966555,0.255565,-0.012905,0.00514,0.011601
1186,-0.020653,0.96656,0.255558,-0.010491,0.002388,0.006984
1187,-0.02056,0.966576,0.255504,-0.005883,0.004127,0.00597
1188,-0.020453,0.966609,0.25539,-0.003259,0.003774,0.007565
1189,-0.020314,0.966664,0.255192,-0.007442,0.007228,0.007625
1190,-0.020188,0.966734,0.254938,-0.010528,0.00551,0.005759
1191,-0.0201,0.966793,0.254719,-0.008525,0.002979,0.006313
1192,-0.020044,0.96685,0.254507,-0.004492,0.004402,0.00451
1193,-0.019972,0.966902,0.254318,-0.002886,0.007784,0.0039829999999999
1194,-0.019837,0.966968,0.254076,-0.006026,0.007916,0.001249
1195,-0.019684,0.967045,0.253796,-0.0070799999999999,0.006878,0.004215
1196,-0.019502,0.967127,0.2534949999999999,-0.011428,0.004781,0.007445
1197,-0.0193729999999999,0.967217,0.253163,-0.014334,0.008979,0.008464
1198,-0.019292,0.96732,0.252778,-0.0096379999999999,0.004726,0.004897
1199,-0.019237,0.967455,0.252264,-0.00536,0.000593,0.004892
1200,-0.019168,0.967592,0.251745,-0.007092,0.002852,0.005808
1201,-0.019118,0.967686,0.251384,-0.005113,0.002666,0.010472
1202,-0.019116,0.967719,0.251258,0.001888,0.001809,0.015054
1203,-0.019057,0.967716,0.251276,0.003889,-0.001865,0.011084
1204,-0.018923,0.967687,0.251396,-0.004163,-0.003103,0.0152509999999999
1205,-0.018772,0.967613,0.251695,-0.005841,-0.003684,0.016188
1206,-0.018614,0.967463,0.252283,-0.001436,-0.002787,0.021216
1207,-0.018411,0.967243,0.253138,-0.001364,-0.0017739999999999,0.0186509999999999
1208,-0.018087,0.967004,0.254075,-0.001291,0.002204,0.017852
1209,-0.017713,0.96676,0.255028,-0.0080439999999999,0.006797,0.010124
1210,-0.0173889999999999,0.966555,0.255823,-0.015585,0.001966,0.002813
1211,-0.0172189999999999,0.966377,0.256507,-0.017204,-0.000771,0.003671
1212,-0.017204,0.966175,0.257269,-0.012276,0.000759,0.010874
1213,-0.017238,0.965964,0.258058,-0.0037579999999999,0.004693,0.018325
1214,-0.0172,0.965765,0.258803,-0.003156,0.0069819999999999,0.0154729999999999
1215,-0.0170729999999999,0.965559,0.25958,-0.004778,0.011614,-0.000944
1216,-0.016926,0.965364,0.260314,-0.005352,-0.000811,-0.001143
1217,-0.016911,0.965212,0.26088,-0.006663,0.001066,-0.002106
1218,-0.016971,0.965086,0.261342,-0.009594,0.005526,0.004481
1219,-0.017034,0.964996,0.261671,-0.007914,0.009934,0.001146
1220,-0.017066,0.964927,0.261922,-0.009317,0.013177,0.002894
1221,-0.017055,0.964864,0.262154,-0.0090829999999999,0.008326,-0.003137
1222,-0.017074,0.964785,0.262445,-0.0058439999999999,0.00662,-0.003564
1223,-0.017107,0.964709,0.262719,-0.005476,0.0071379999999999,-0.007866
1224,-0.017207,0.964681,0.262816,-0.0069319999999999,0.01089,-0.008833
1225,-0.0172949999999999,0.964696,0.262754,-0.007271,0.015528,-0.012067
1226,-0.01736,0.964718,0.262669,-0.00797,0.016819,-0.008611
1227,-0.0173819999999999,0.964741,0.262585,-0.000914,0.006664,-0.0087549999999999
1228,-0.017408,0.964776,0.262453,-3.3e-05,0.008582,-0.010225
1229,-0.01744,0.96484,0.262217,-0.003602,0.011006,-0.012431
1230,-0.017429,0.964923,0.26191,-0.007061,0.01344,-0.010903
1231,-0.017432,0.96501,0.26159,-0.009972,0.008379,-0.006677
1232,-0.017497,0.965081,0.261324,-0.0015609999999999,0.002754,-0.000186
1233,-0.017629,0.965131,0.261132,0.003606,-0.000653,0.004218
1234,-0.01774,0.965175,0.2609599999999999,-5.2e-05,0.004842,0.006908
1235,-0.017756,0.965193,0.260892,-0.003026,0.0047009999999999,0.005709
1236,-0.017672,0.96521,0.260833,-0.012144,0.006668,0.002137
1237,-0.017599,0.965203,0.260868,-0.010783,0.002403,0.0010949999999999
1238,-0.017665,0.965199,0.260876,-0.0017289999999999,-0.003804,0.00098
1239,-0.017837,0.965206,0.26084,-0.001969,-0.0023309999999999,0.0038689999999999
1240,-0.017977,0.96517,0.260965,-0.002973,0.003565,0.005606
1241,-0.018037,0.965107,0.261192,-0.002852,0.0101129999999999,-0.002311
1242,-0.018076,0.965042,0.26143,-0.003698,0.010193,-0.0047469999999999
1243,-0.018131,0.964972,0.261685,-0.000683,0.003565,0.002536
1244,-0.018149,0.964907,0.261921,-0.003549,0.001462,0.006084
1245,-0.018133,0.964835,0.262189,-0.012461,0.008401,0.001513
1246,-0.018137,0.964768,0.262435,-0.01351,0.0073849999999999,7.7e-05
1247,-0.0181659999999999,0.964716,0.262623,-0.006645,0.003988,-0.000218
1248,-0.018212,0.964665,0.262808,-0.003807,0.00201,0.006556
1249,-0.018255,0.964611,0.263003,-0.003717,0.001667,0.006925
1250,-0.0183,0.964572,0.2631429999999999,-0.005107,0.007123,0.004954
1251,-0.0183,0.964545,0.263241,-0.010539,0.010126,0.0013
1252,-0.018247,0.964518,0.263341,-0.011065,0.007863,-0.00031
1253,-0.018236,0.964485,0.263464,-0.00775,0.003944,0.005579
1254,-0.018319,0.964452,0.263579,-0.004295,0.003215,0.002519
1255,-0.018374,0.964432,0.263648,-0.003171,0.0032649999999999,0.008478
1256,-0.018351,0.96441,0.263732,-0.006993,0.003638,0.012406
1257,-0.0182319999999999,0.96436,0.263922,-0.013552,0.0052439999999999,0.006998
1258,-0.018127,0.964276,0.264236,-0.013672,0.001956,0.00145
1259,-0.018122,0.964196,0.26453,-0.010076,0.002998,0.003842
1260,-0.018167,0.964149,0.264698,-0.006812,0.002953,0.00993
1261,-0.018226,0.964123,0.264786,-0.008004,0.004703,0.0148919999999999
1262,-0.01826,0.964091,0.264901,-0.011495,0.0029809999999999,0.012062
1263,-0.018266,0.964038,0.2650929999999999,-0.012114,0.002881,0.009077
1264,-0.018338,0.963977,0.265308,-0.005145,0.000592,0.009701
1265,-0.018403,0.963928,0.2654809999999999,0.00139,0.004639,0.012428
1266,-0.018401,0.963891,0.2656159999999999,-0.003617,0.006186,0.010812
1267,-0.018318,0.963854,0.265757,-0.012719,0.005903,0.000463
1268,-0.018259,0.963813,0.26591,-0.014196,0.002114,-0.000285
1269,-0.018292,0.963782,0.26602,-0.00626,0.002984,0.003374
1270,-0.018358,0.963753,0.2661199999999999,-0.001387,0.000938,0.008874
1271,-0.018405,0.963725,0.266219,-0.0017829999999999,0.0079239999999999,0.00554
1272,-0.0183979999999999,0.96371,0.266275,-0.008076,0.00945,0.000784
1273,-0.018422,0.963712,0.266264,-0.00526,0.004077,0.002336
1274,-0.0184919999999999,0.963712,0.266261,-0.003603,0.001422,0.008672
1275,-0.018552,0.963699,0.266303,-0.001727,0.004365,0.011285
1276,-0.0185509999999999,0.96368,0.266371,-0.0055119999999999,0.0045509999999999,0.005876
1277,-0.01847,0.963663,0.266442,-0.010003,0.006751,0.001914
1278,-0.018408,0.963667,0.266432,-0.011819,0.007891,-0.000654
1279,-0.018436,0.963696,0.266324,-0.007031,0.003421,0.008227
1280,-0.0185,0.963709,0.2662739999999999,-0.001168,0.002187,0.012199
1281,-0.018558,0.963708,0.266275,0.00014,0.00434,0.011038
1282,-0.018544,0.963702,0.266297,-0.003367,0.003766,0.005386
1283,-0.018527,0.963713,0.26626,-0.005384,0.005449,0.001333
1284,-0.018535,0.963738,0.2661679999999999,-0.006185,0.004325,0.006324
1285,-0.018571,0.963761,0.266082,-0.004272,0.002059,0.010529
1286,-0.018634,0.96377,0.266048,-0.002637,0.004645,0.008137
1287,-0.018672,0.963783,0.265996,-0.00385,0.00454,0.006953
1288,-0.018698,0.963803,0.265924,-0.006601,0.0070379999999999,0.001715
1289,-0.018728,0.963837,0.265796,-0.007227,0.009078,0.004986
1290,-0.018781,0.963865,0.2656929999999999,-0.005602,0.004824,0.003549
1291,-0.018857,0.96388,0.265632,-0.002154,0.004397,0.006661
1292,-0.018916,0.963917,0.265495,-0.004628,0.004467,0.008705
1293,-0.018936,0.963965,0.265319,-0.009598,0.004282,0.004136
1294,-0.018932,0.964032,0.265076,-0.010502,0.005527,-0.000534
1295,-0.018924,0.964099,0.264831,-0.0062369999999999,0.007809,0.0010539999999999
1296,-0.018934,0.964147,0.264656,-0.001818,0.005778,0.00312
1297,-0.018947,0.964197,0.264471,-0.0015,0.003302,0.005839
1298,-0.018908,0.964257,0.264254,-0.008374,0.007056,0.005552
1299,-0.018826,0.964325,0.264013,-0.008579,0.006027,0.002711
1300,-0.018781,0.964396,0.263757,-0.010592,0.0077569999999999,0.00521
1301,-0.018782,0.964474,0.263473,-0.008027,0.004719,0.003418
1302,-0.018851,0.964562,0.2631429999999999,-0.004281,0.001105,0.008387
1303,-0.0189009999999999,0.964646,0.262833,-0.001408,0.000442,0.014571
1304,-0.018888,0.9647,0.262637,-0.004656,0.001609,0.0137
1305,-0.018834,0.964735,0.2625119999999999,-0.007289,0.005282,0.006958
1306,-0.018775,0.964779,0.262351,-0.007714,0.0062439999999999,0.004998
1307,-0.018756,0.964825,0.262186,-0.004788,-0.000637,0.011343
1308,-0.018763,0.964875,0.262001,-0.003179,-0.000947,0.012459
1309,-0.018755,0.9649,0.261911,-0.003645,0.00115,0.015295
1310,-0.018736,0.964906,0.26189,-0.0038619999999999,0.003097,0.008267
1311,-0.01873,0.964917,0.261848,-0.0048909999999999,0.007358,0.00155
1312,-0.018739,0.964949,0.261728,-0.004286,0.003618,0.001165
1313,-0.01875,0.964976,0.261627,-0.005297,0.002904,0.0075829999999999
1314,-0.018781,0.964986,0.26159,-0.003985,0.001536,0.011511
1315,-0.018796,0.964994,0.261559,-0.000262,0.006365,0.006813
1316,-0.018781,0.965008,0.261509,-0.007449,0.012882,-0.002507
1317,-0.01873,0.965037,0.261405,-0.008354,0.011235,-0.004203
1318,-0.018762,0.9651,0.2611719999999999,-0.007972,0.00983,-0.006839
1319,-0.018907,0.965164,0.260923,-0.000243,0.00296,0.0075099999999999
1320,-0.019021,0.965229,0.2606739999999999,0.000222,2.7e-05,0.009742
1321,-0.019072,0.965265,0.260535,-0.002931,-0.000727,0.005121
1322,-0.019046,0.96529,0.260448,-0.0045899999999999,0.004422,-0.000575
1323,-0.019028,0.96529,0.260447,-0.003815,0.00494,-0.002299
1324,-0.019038,0.965254,0.26058,-0.002095,0.000383,0.003809
1325,-0.019108,0.965204,0.260758,-0.000896,0.003012,0.008331
1326,-0.019125,0.965157,0.2609309999999999,-0.001916,0.0084599999999999,0.0078219999999999
1327,-0.019079,0.965123,0.26106,-0.005274,0.0100959999999999,0.002276
1328,-0.019041,0.965092,0.261178,-0.011248,0.012386,-0.006951
1329,-0.019087,0.965095,0.261163,-0.008943,0.005699,-0.007028
1330,-0.019219,0.965141,0.2609849999999999,-0.003517,0.004311,0.003206
1331,-0.01942,0.965194,0.260773,0.001903,0.002564,0.0128169999999999
1332,-0.019553,0.965242,0.260585,0.0004639999999999,0.0029739999999999,0.009816
1333,-0.019589,0.965263,0.260502,-0.004932,0.006233,0.000408
1334,-0.019581,0.965273,0.260467,-0.007778,0.003859,-0.003296
1335,-0.019645,0.965287,0.260411,-0.002969,0.001632,-0.001714
1336,-0.019777,0.965293,0.260377,0.000185,0.003488,0.008849
1337,-0.019908,0.965283,0.260403,0.000316,0.0034969999999999,0.008823
1338,-0.019966,0.965259,0.260488,-0.001762,0.007702,0.005137
1339,-0.019993,0.965234,0.260577,-0.006069,0.008795,-0.005161
1340,-0.02002,0.965218,0.260633,-0.009399,0.007789,-0.004911
1341,-0.020114,0.965204,0.260678,-0.005307,0.002783,0.002277
1342,-0.02022,0.965183,0.260747,0.001131,0.00407,0.010172
1343,-0.020279,0.965158,0.260839,-0.000473,0.007209,0.010539
1344,-0.020257,0.965141,0.260903,-0.007972,0.009377,0.0022199999999999
1345,-0.020241,0.965138,0.260913,-0.010749,0.008479,-0.001452
1346,-0.020331,0.965129,0.260941,-0.006753,0.000951,0.003677
1347,-0.020528,0.965103,0.261022,0.001363,-0.000869,0.009852
1348,-0.020684,0.965074,0.261117,3.9e-05,0.000258,0.013618
1349,-0.020749,0.965026,0.261288,-0.004749,0.006989,0.001697
1350,-0.020727,0.964985,0.26144,-0.0071959999999999,0.009929,-0.000637
1351,-0.020731,0.964955,0.261551,-0.007162,0.005259,-0.002441
1352,-0.0208129999999999,0.964935,0.261621,-0.003311,0.00351,0.005926
1353,-0.020934,0.964911,0.261698,0.000624,0.001565,0.0098319999999999
1354,-0.020964,0.96489,0.261775,-0.002763,0.005325,0.0108849999999999
1355,-0.020922,0.964869,0.261854,-0.005765,0.008443,0.001955
1356,-0.02088,0.96487,0.261854,-0.009455,0.008961,0.001025
1357,-0.0209199999999999,0.964898,0.261746,-0.006714,0.0032409999999999,0.005374
1358,-0.0210069999999999,0.964926,0.261637,-0.001836,0.000727,0.0130509999999999
1359,-0.021058,0.964945,0.26156,-0.001342,0.002202,0.013662
1360,-0.021033,0.964954,0.26153,-0.006142,0.006725,0.009847
1361,-0.020964,0.964964,0.261499,-0.00995,0.006532,0.004462
1362,-0.020931,0.964987,0.261419,-0.009769,0.004435,0.0037939999999999
1363,-0.020988,0.965004,0.261349,-0.0043409999999999,0.000923,0.006138
1364,-0.0210479999999999,0.965019,0.261291,0.000921,0.000298,0.014008
1365,-0.021072,0.965013,0.261309,0.000518,0.002806,0.014036
1366,-0.021049,0.964995,0.2613769999999999,-0.005273,0.006624,0.0067959999999999
1367,-0.0210139999999999,0.964986,0.261413,-0.009168,0.006923,0.001648
1368,-0.0210479999999999,0.965001,0.261356,-0.0024809999999999,0.003764,0.004651
1369,-0.021113,0.96502,0.261279,-0.000875,0.004783,0.012555
1370,-0.021136,0.965037,0.261217,-0.0048649999999999,0.002569,0.012144
1371,-0.021066,0.965053,0.261161,-0.004996,0.002537,0.01043
1372,-0.020998,0.96509,0.261031,-0.011229,0.009779,-0.0003799999999999
1373,-0.020998,0.965138,0.260854,-0.00987,0.007244,-0.000463
1374,-0.02107,0.965167,0.260743,-0.001925,0.001066,0.0064849999999999
1375,-0.021085,0.965188,0.260664,0.001111,0.003654,0.017138
1376,-0.021028,0.965208,0.260592,-0.0021809999999999,0.005785,0.015149
1377,-0.020938,0.965255,0.260426,-0.007092,0.002412,0.010937
1378,-0.020919,0.965296,0.260276,-0.00554,0.002264,0.006875
1379,-0.020959,0.965293,0.260283,-0.001532,-0.0008,0.007219
1380,-0.021013,0.965233,0.260501,0.004076,0.0015789999999999,0.005033
1381,-0.02101,0.965161,0.26077,0.005354,0.007343,0.001773
1382,-0.020868,0.965131,0.260892,0.001383,0.009448,-0.002668
1383,-0.020703,0.965156,0.260812,-0.007449,0.012673,-0.008431
1384,-0.020565,0.965227,0.260559,-0.009495,0.009886,-0.003952
1385,-0.020568,0.96533,0.260178,-0.006929,0.006533,0.000931
1386,-0.020628,0.965441,0.259762,-0.0008869999999999,0.001646,0.009937
1387,-0.020655,0.965537,0.259405,-0.000249,-0.001303,0.0188389999999999
1388,-0.02059,0.965589,0.259217,-0.001703,-0.000318,0.017028
1389,-0.020437,0.965598,0.259193,-0.0049689999999999,0.004647,0.005943
1390,-0.0202889999999999,0.965584,0.259262,-0.0033159999999999,0.0033799999999999,0.001496
1391,-0.020205,0.965573,0.259307,-0.000867,0.004703,0.010087
1392,-0.020132,0.965568,0.259335,-0.0035039999999999,0.001718,0.0153689999999999
1393,-0.020051,0.965563,0.259356,-0.0081319999999999,0.004926,0.012036
1394,-0.019951,0.965558,0.259383,-0.009788,0.006823,0.002153
1395,-0.019879,0.965568,0.25935,-0.006564,0.009743,-0.001934
1396,-0.019877,0.965611,0.259192,-0.0007379999999999,0.006572,0.000986
1397,-0.019879,0.96566,0.259009,0.0017059999999999,0.004143,0.010842
1398,-0.01979,0.965699,0.258868,-0.0014199999999999,0.0036149999999999,0.014127
1399,-0.01961,0.96573,0.258769,-0.0059479999999999,0.004577,0.006367
1400,-0.01941,0.965771,0.258632,-0.012969,0.008045,-0.001841
1401,-0.019321,0.965837,0.25839,-0.0100209999999999,0.00366,0.000719
1402,-0.01937,0.965895,0.258171,-9e-06,-0.0006389999999999,0.013313
1403,-0.019429,0.965911,0.258107,0.003209,-0.003249,0.022288
1404,-0.019365,0.965867,0.258275,0.006868,-0.002397,0.01948
1405,-0.019184,0.965776,0.25863,0.003483,-0.0024879999999999,0.012824
1406,-0.018916,0.965656,0.259098,-0.001791,0.002316,0.0066489999999999
1407,-0.018653,0.965534,0.259571,-0.005502,0.001812,0.007122
1408,-0.018505,0.965402,0.2600699999999999,-0.00539,0.000662,0.014863
1409,-0.018353,0.965271,0.260567,-0.005435,-0.002625,0.015449
1410,-0.0181729999999999,0.965147,0.2610409999999999,-0.006455,0.006044,0.015479
1411,-0.018001,0.965046,0.261426,-0.010549,0.009502,0.005297
1412,-0.0178919999999999,0.964994,0.261628,-0.011588,0.014102,-0.00261
1413,-0.017855,0.964993,0.261632,-0.007901,0.009082,-0.007787
1414,-0.017936,0.96502,0.261528,-0.0012439999999999,0.0021739999999999,0.005714
1415,-0.018086,0.96504,0.261446,0.006336,-0.001676,0.011351
1416,-0.018162,0.965043,0.261426,0.003819,0.000609,0.01343
1417,-0.018091,0.965021,0.261515,-0.000342,0.004767,0.006002
1418,-0.017977,0.964984,0.261659,-0.009306,0.009824,-0.004014
1419,-0.017887,0.964974,0.261701,-0.013302,0.011176,-0.008298
1420,-0.017929,0.964992,0.261631,-0.006698,0.0088849999999999,-0.008412
1421,-0.018096,0.965032,0.261472,-0.002687,0.0037939999999999,0.0009029999999999
1422,-0.018282,0.96508,0.261282,0.0008869999999999,0.002693,0.003199
1423,-0.0183949999999999,0.965115,0.2611429999999999,0.002999,-0.000225,0.01202
1424,-0.018414,0.965095,0.261216,0.0014,-0.000327,0.011412
1425,-0.01838,0.965018,0.261504,-0.003165,-0.002997,0.013093
1426,-0.018394,0.964842,0.2621489999999999,-0.002923,-0.010863,0.018949
1427,-0.018425,0.964582,0.263101,0.004479,-0.011351,0.023322
1428,-0.018385,0.964299,0.264139,0.002119,-0.00263,0.023169
1429,-0.018363,0.964019,0.265164,-0.010553,0.012818,0.009601
1430,-0.01828,0.963733,0.266207,-0.014618,0.017147,0.0009289999999999
1431,-0.018203,0.96348,0.267128,-0.017503,0.016821,-0.006157
1432,-0.018307,0.963276,0.267854,-0.013507,0.0144919999999999,-0.017091
1433,-0.018594,0.963139,0.268327,-0.009574,0.018458,-0.02173
1434,-0.019018,0.963126,0.268347,0.006186,0.021783,-0.02413
1435,-0.019509,0.963266,0.267807,0.009728,0.019247,-0.020248
1436,-0.019996,0.963486,0.2669809999999999,0.010719,0.0159449999999999,-0.017286
1437,-0.020427,0.963681,0.266243,0.015132,-0.001019,-0.000953
1438,-0.0207,0.963819,0.2657199999999999,0.016199,0.002535,0.007061
1439,-0.020701,0.963859,0.265578,0.007075,0.00361,0.005235
1440,-0.02049,0.963829,0.265704,-0.006045,0.00866,-0.00365
1441,-0.020301,0.963776,0.265911,-0.018258,0.010284,-0.011303
1442,-0.020318,0.963756,0.265982,-0.01818,0.007161,-0.0148379999999999
1443,-0.020524,0.963776,0.265892,-0.007598,0.005035,-0.0074239999999999
1444,-0.020824,0.963832,0.265667,0.009746,0.005681,0.003895
1445,-0.021055,0.963887,0.26545,0.011748,0.00671,0.005378
1446,-0.021158,0.96391,0.265355,0.003564,0.009143,0.001338
1447,-0.0211449999999999,0.963892,0.265422,-0.001789,0.00199,0.001103
1448,-0.021175,0.963847,0.26558,0.003704,-0.001277,0.003432
1449,-0.021238,0.963805,0.265729,0.0063,0.003678,0.00783
1450,-0.021258,0.963755,0.26591,0.001071,0.004919,0.009161
1451,-0.021205,0.963721,0.266038,-0.009129,0.008875,0.003951
1452,-0.021117,0.963699,0.266126,-0.014466,0.007081,0.0034049999999999
1453,-0.021078,0.963674,0.266215,-0.011362,0.002848,0.003743
1454,-0.021158,0.963651,0.266294,-0.000205,0.002139,0.009158
1455,-0.02129,0.963654,0.266273,0.0036049999999999,0.002472,0.0119099999999999
1456,-0.021375,0.963669,0.266213,1.3e-05,0.00763,0.010048
1457,-0.021373,0.963671,0.266205,-0.006139,0.002867,0.008652
1458,-0.021312,0.963631,0.266354,-0.006245,0.002403,0.008015
1459,-0.021304,0.963573,0.2665659999999999,-0.00514,0.001714,0.007527
1460,-0.02137,0.963533,0.266702,0.003609,0.001097,0.011588
1461,-0.021438,0.963527,0.2667199999999999,0.002776,0.00359,0.017811
1462,-0.021434,0.963516,0.266762,-0.001821,0.002061,0.018379
1463,-0.0213159999999999,0.963466,0.266953,-0.010423,0.004308,0.008758
1464,-0.021219,0.963415,0.267144,-0.008536,0.002634,0.003944
1465,-0.021208,0.963399,0.267201,-0.000841,0.000178,0.005123
1466,-0.021223,0.963403,0.267187,-0.000155,0.001655,0.010569
1467,-0.021183,0.963412,0.267157,-0.001385,0.005857,0.015268
1468,-0.02108,0.963408,0.267179,-0.002785,0.005617,0.00432
1469,-0.02095,0.963392,0.2672449999999999,-0.0037689999999999,0.004137,0.00282
1470,-0.0208719999999999,0.963398,0.267233,-0.001132,0.002728,0.004602
1471,-0.020826,0.963431,0.267117,-0.0027329999999999,0.004678,0.0153389999999999
1472,-0.020794,0.963488,0.266914,-0.007312,0.0064519999999999,0.011131
1473,-0.020736,0.963544,0.266715,-0.013077,0.004275,0.010567
1474,-0.020717,0.963585,0.266572,-0.012425,0.000725,0.008804
1475,-0.0207569999999999,0.9636,0.2665119999999999,-0.003077,-0.000786,0.011884
1476,-0.020808,0.963619,0.266439,0.002666,-0.001507,0.0144599999999999
1477,-0.020793,0.963663,0.266282,-0.0007059999999999,0.003531,0.009642
1478,-0.020703,0.963726,0.266059,-0.003314,0.005374,0.00895
1479,-0.020602,0.963779,0.265876,-0.008268,0.001736,0.006905
1480,-0.0205449999999999,0.963805,0.265787,-0.003381,-0.003738,0.008856
1481,-0.020587,0.963801,0.2657989999999999,0.000155,-0.005381,0.014536
1482,-0.020605,0.963773,0.265901,0.002203,-0.000287,0.016188
1483,-0.020582,0.963703,0.266155,0.004941,0.003948,0.011662
1484,-0.020485,0.96361,0.266501,0.004234,0.0054,0.01098
1485,-0.020375,0.963515,0.26685,-0.003856,0.00734,-0.0018809999999999
1486,-0.020287,0.963426,0.267179,-0.009209,0.003112,0.001468
1487,-0.020303,0.963347,0.267462,-0.008139,0.007554,0.001276
1488,-0.020392,0.963317,0.267565,-0.0078219999999999,0.010163,0.003279
1489,-0.020486,0.963327,0.267522,-0.003959,0.009894,0.0037479999999999
1490,-0.020534,0.963345,0.2674539999999999,-0.00301,0.005253,0.002565
1491,-0.020508,0.963361,0.267397,-0.000717,0.004657,-0.003603
1492,-0.020484,0.963349,0.267441,-0.001702,0.004821,-1.6e-05
1493,-0.020585,0.963323,0.267529,-0.001693,0.001017,0.00655
1494,-0.0207539999999999,0.963302,0.26759,0.000368,0.0033729999999999,0.004673
1495,-0.02087,0.963265,0.267716,-0.000981,0.006492,0.002471
1496,-0.020954,0.963203,0.26793,-0.002224,0.0067209999999999,-0.001969
1497,-0.020974,0.963125,0.26821,-0.003012,0.007135,-0.006308
1498,-0.021065,0.96304,0.268511,-0.002068,0.002414,-0.00551
1499,-0.0212289999999999,0.962968,0.268757,0.001713,0.0061329999999999,-0.0038799999999999
1500,-0.021434,0.962936,0.268856,0.000499,0.008546,-0.000377
1501,-0.021595,0.962931,0.26886,0.001271,0.00974,0.0043799999999999
1502,-0.021718,0.962918,0.268897,0.001576,0.011233,0.002557
1503,-0.021823,0.962883,0.269014,0.002353,0.008919,-0.002382
1504,-0.021904,0.962846,0.2691409999999999,0.00216,0.00479,-0.00193
1505,-0.021993,0.962803,0.26929,0.001074,0.003964,0.00311
1506,-0.022095,0.962786,0.269339,-0.0046229999999999,0.005841,0.002832
1507,-0.022196,0.962784,0.269337,-0.005193,0.00566,0.002177
1508,-0.022295,0.962774,0.269365,-0.0041789999999999,0.007334,1.3e-05
1509,-0.0223879999999999,0.962758,0.269417,0.002186,0.001857,0.002601
1510,-0.022531,0.962726,0.269517,0.002374,-0.0008269999999999,0.001357
1511,-0.022722,0.962682,0.269659,0.005144,-0.0012109999999999,0.009043
1512,-0.022844,0.962615,0.269891,0.001939,0.003877,0.00759
1513,-0.022938,0.962544,0.270136,0.0004309999999999,0.009349,0.002355
1514,-0.023023,0.962487,0.270331,-0.0006889999999999,0.007758,-0.00025
1515,-0.02314,0.962438,0.270494,-0.000297,0.000742,0.003477
1516,-0.023295,0.962379,0.270692,-0.001257,-0.001884,0.0111989999999999
1517,-0.023468,0.962319,0.270891,-0.00209,0.0028,0.0120069999999999
1518,-0.023656,0.962267,0.271057,-0.006328,0.0071849999999999,0.008667
1519,-0.023844,0.962228,0.27118,-0.00118,0.003089,0.002928
1520,-0.024028,0.962178,0.271341,-0.001134,0.001918,0.00643
1521,-0.02422,0.962126,0.271507,0.00063,-0.0001199999999999,0.012062
1522,-0.024391,0.962083,0.271644,0.000251,0.0017989999999999,0.011834
1523,-0.024546,0.962042,0.271776,-0.001013,0.005564,0.009108
1524,-0.024683,0.961988,0.271954,-0.003836,0.00606,0.003345
1525,-0.024791,0.961917,0.272198,-0.001485,0.003553,0.007435
1526,-0.024953,0.96185,0.272419,0.0023239999999999,-0.002026,0.008999
1527,-0.025128,0.961811,0.272541,0.003507,0.00285,0.0112719999999999
1528,-0.025223,0.961779,0.2726449999999999,-0.001648,0.004057,0.006102
1529,-0.025261,0.961737,0.27279,-0.006309,0.009271,0.005683
1530,-0.025308,0.961698,0.272922,-0.007834,0.006167,0.002545
1531,-0.025484,0.961676,0.272985,-0.0018899999999999,0.004129,0.005564
1532,-0.025735,0.961695,0.272893,0.003106,0.002142,0.008387
1533,-0.025986,0.961744,0.272698,-0.001709,0.0057399999999999,0.010673
1534,-0.026163,0.961786,0.272532,-0.001852,0.010458,0.005346
1535,-0.026237,0.961806,0.272457,-0.004006,0.005006,0.006306
1536,-0.026309,0.961803,0.272457,0.002368,0.002171,0.005665
1537,-0.026361,0.961835,0.272343,-0.001227,0.002613,0.010052
1538,-0.026392,0.961895,0.272127,-0.004079,0.008671,0.0079329999999999
1539,-0.026385,0.96197,0.271862,-0.006986,0.008397,0.008808
1540,-0.0263699999999999,0.962054,0.271568,-0.008771,0.004926,0.008598
1541,-0.026405,0.962133,0.271284,-0.004829,0.002588,0.0073569999999999
1542,-0.026467,0.962234,0.270921,0.004143,-0.001159,0.0157
1543,-0.02652,0.962348,0.270511,0.0028079999999999,-0.002982,0.019894
1544,-0.0265329999999999,0.962429,0.2702219999999999,-0.005297,0.0004309999999999,0.023785
1545,-0.026466,0.962466,0.270097,-0.008279,0.000394,0.019469
1546,-0.026387,0.962456,0.2701389999999999,-0.006358,-0.000847,0.015673
1547,-0.026309,0.962442,0.2701969999999999,-0.001691,0.000525,0.015402
1548,-0.0262339999999999,0.962452,0.2701679999999999,-0.00288,0.003475,0.012562
1549,-0.026168,0.962486,0.270056,-0.006013,0.00364,0.0146729999999999
1550,-0.026108,0.962518,0.269946,-0.007309,0.008384,0.0099
1551,-0.026083,0.962569,0.269768,-0.007334,0.008333,0.010079
1552,-0.026067,0.962634,0.2695369999999999,0.000554,0.003568,0.0102329999999999
1553,-0.02603,0.962715,0.2692489999999999,-0.001558,0.0019149999999999,0.010215
1554,-0.025965,0.962807,0.2689269999999999,-0.003759,0.003044,0.010553
1555,-0.025901,0.962891,0.268632,-0.006722,0.0032649999999999,0.008468
1556,-0.0258189999999999,0.962968,0.268365,-0.001418,0.003936,0.0075599999999999
1557,-0.0257649999999999,0.96304,0.268111,0.002404,0.002902,0.012955
1558,-0.025681,0.963124,0.267819,0.001664,0.003795,0.012302
1559,-0.025577,0.963228,0.267453,-0.003507,0.004972,0.009173
1560,-0.025468,0.963337,0.267072,-0.004592,0.002651,0.003894
1561,-0.025373,0.963434,0.26673,-0.00606,0.004553,0.004327
1562,-0.025315,0.963513,0.266452,-0.004593,0.003986,0.007229
1563,-0.025282,0.963591,0.2661719999999999,0.003737,0.003313,0.008272
1564,-0.025203,0.963695,0.265804,0.004588,1.9e-05,0.010197
1565,-0.025064,0.963796,0.26545,-0.001547,0.004527,0.007941
1566,-0.024932,0.963884,0.265144,-0.00966,0.006209,0.002861
1567,-0.024903,0.963961,0.264868,0.002594,0.002989,0.004236
1568,-0.024927,0.964037,0.264587,0.005807,0.002271,0.00882
1569,-0.024916,0.964118,0.264293,0.009215,0.002587,0.012608
1570,-0.024821,0.964206,0.263982,-0.000524,0.003461,0.010799
1571,-0.0246949999999999,0.96429,0.263689,-0.007547,0.005742,0.0018449999999999
1572,-0.024607,0.964363,0.263427,-0.005652,0.010917,-0.001754
1573,-0.024588,0.964438,0.263157,0.005896,0.006357,0.006314
1574,-0.024608,0.964539,0.262781,0.008403,0.005874,0.005972
1575,-0.024527,0.964664,0.26233,-0.002878,0.006161,0.005035
1576,-0.024465,0.964814,0.261786,-0.005885,0.005691,-0.001196
1577,-0.0245039999999999,0.964961,0.261239,-0.002123,0.0026449999999999,-0.001
1578,-0.024611,0.965087,0.260765,0.001754,0.002443,0.003975
1579,-0.0246879999999999,0.965183,0.260403,0.007629,-0.000339,0.0183139999999999
1580,-0.024706,0.965239,0.260193,0.0018329999999999,0.001772,0.0175169999999999
1581,-0.024643,0.965284,0.260032,-0.008392,0.003512,0.010659
1582,-0.024568,0.965312,0.2599329999999999,-0.006163,0.00182,0.006104
1583,-0.024494,0.965321,0.259908,0.001789,0.003109,0.012034
1584,-0.02441,0.965326,0.259897,0.00233,0.008047,0.008307
1585,-0.02431,0.965355,0.259799,-0.0037359999999999,0.008537,0.006086
1586,-0.024265,0.965403,0.259626,-0.011151,0.006567,6.4e-05
1587,-0.024345,0.965489,0.259297,-0.0111019999999999,0.006313,-0.005177
1588,-0.024555,0.965581,0.258934,0.003071,0.003505,0.000328
1589,-0.024807,0.965665,0.258598,0.013057,0.003482,0.006554
1590,-0.024936,0.965711,0.258412,0.019458,0.000414,0.015575
1591,-0.024906,0.965738,0.258314,0.006657,0.004416,0.016314
1592,-0.024762,0.965734,0.258342,-0.0080439999999999,0.002771,0.011495
1593,-0.024697,0.965707,0.25845,-0.010856,0.003242,0.004138
1594,-0.024768,0.965689,0.258509,-0.008176,0.004709,0.001317
1595,-0.024922,0.965689,0.258494,0.000737,0.00567,0.00588
1596,-0.02504,0.965719,0.25837,0.00116,0.004572,0.010535
1597,-0.02509,0.965765,0.258193,-0.000606,0.0015199999999999,0.013032
1598,-0.025169,0.965804,0.258038,-0.006692,0.001954,0.006382
1599,-0.025258,0.965824,0.257955,0.002583,0.001736,0.0066319999999999
1600,-0.025348,0.965835,0.257904,0.005511,0.002228,0.008805
1601,-0.025375,0.965828,0.257931,0.004318,0.00306,0.013705
1602,-0.025343,0.96583,0.257928,-0.0053729999999999,0.00762,0.010596
1603,-0.025296,0.965836,0.2579079999999999,-0.007449,0.0046689999999999,0.004421
1604,-0.0253159999999999,0.965853,0.257845,-0.005385,0.006575,0.002257
1605,-0.025447,0.965895,0.257675,-0.002568,0.004305,0.007965
1606,-0.025649,0.965931,0.257517,0.00212,0.0016589999999999,0.011251
1607,-0.025781,0.965967,0.25737,0.001611,0.001166,0.01741
1608,-0.025849,0.965978,0.257321,-0.00386,0.004542,0.017063
1609,-0.0258899999999999,0.965969,0.257351,-0.0045509999999999,0.00037,0.0064269999999999
1610,-0.025963,0.965954,0.257403,-0.001457,0.000981,0.007871
1611,-0.026005,0.965934,0.25747,0.002369,0.005379,0.010978
1612,-0.0260089999999999,0.965943,0.257439,-0.003685,0.008209,0.009208
1613,-0.025969,0.965972,0.257333,-0.0067,0.007692,0.008795
1614,-0.025907,0.966014,0.257181,-0.0071579999999999,0.003102,0.006063
1615,-0.0259019999999999,0.966066,0.2569869999999999,-0.005485,-0.001039,0.01018
1616,-0.025934,0.966115,0.256801,-0.003286,-0.0052689999999999,0.013295
1617,-0.025979,0.966137,0.256713,0.002358,-0.005413,0.019166
1618,-0.025938,0.966094,0.256878,0.000441,-0.005507,0.024509
1619,-0.025796,0.965964,0.257382,0.0008789999999999,-0.005667,0.019825
1620,-0.025604,0.965778,0.2580989999999999,-0.000519,-0.0026579999999999,0.014621
1621,-0.0253569999999999,0.965562,0.258928,-0.003803,-0.002321,0.01425
1622,-0.025166,0.965321,0.259844,-0.004757,0.005474,0.007109
1623,-0.0250479999999999,0.965117,0.260611,-0.0075599999999999,0.013597,0.004053
1624,-0.024988,0.964959,0.261202,-0.006003,0.018028,-0.009921
1625,-0.024965,0.964893,0.261447,-0.005201,0.021039,-0.013584
1626,-0.025025,0.964907,0.261392,-0.006637,0.012556,-0.011392
1627,-0.0252009999999999,0.964973,0.26113,-0.004188,0.004799,-0.001563
1628,-0.025433,0.965055,0.260804,0.002575,0.0057399999999999,0.000609
1629,-0.025594,0.965116,0.2605639999999999,0.004293,0.003832,0.006007
1630,-0.025692,0.965137,0.260475,0.003643,0.005535,0.004951
1631,-0.025705,0.965112,0.260569,0.001871,0.003119,0.004797
1632,-0.025638,0.965045,0.260824,-0.001401,0.004682,0.002207
1633,-0.025565,0.964943,0.261206,-0.002252,0.001823,0.005685
1634,-0.025559,0.964855,0.261534,-0.005203,0.007741,0.001695
1635,-0.02561,0.964798,0.261738,-0.0028469999999999,0.009964,0.001751
1636,-0.025689,0.964774,0.261816,-9.9e-05,0.008553,0.0008789999999999
1637,-0.025761,0.964765,0.261842,0.002156,0.005007,0.00566
1638,-0.025836,0.964736,0.261942,0.00452,0.000123,0.0093739999999999
1639,-0.025901,0.964692,0.2621,0.002082,0.002471,0.008195
1640,-0.025951,0.964643,0.2622739999999999,0.00323,0.001375,0.005915
1641,-0.0259839999999999,0.964582,0.262493,0.000898,0.003389,0.005314
1642,-0.02598,0.964512,0.262754,-0.002203,0.002682,0.005511
1643,-0.02601,0.964431,0.263047,-0.002845,0.002351,0.008254
1644,-0.026119,0.964352,0.263328,0.0012779999999999,-0.001919,0.013238
1645,-0.026218,0.964254,0.263673,0.001483,0.000605,0.016768
1646,-0.026323,0.964138,0.2640889999999999,-0.000624,0.005299,0.010142
1647,-0.026367,0.964012,0.264544,-0.0026089999999999,0.007287,0.004911
1648,-0.026373,0.963906,0.26493,-0.0011539999999999,0.006981,0.004098
1649,-0.0264189999999999,0.963813,0.265262,-0.000162,0.000588,0.007977
1650,-0.0264569999999999,0.963739,0.265526,-0.002489,-0.0004059999999999,0.012703
1651,-0.026481,0.963679,0.265742,-0.003091,0.003439,0.014379
1652,-0.026493,0.963616,0.265968,-0.0069849999999999,0.0093,0.011574
1653,-0.026504,0.963559,0.2661739999999999,-0.003388,0.003208,0.009964
1654,-0.026552,0.96352,0.266309,-0.0026379999999999,0.002621,0.008944
1655,-0.026636,0.963493,0.266399,0.001749,0.001625,0.0108989999999999
1656,-0.0266889999999999,0.96347,0.266476,-0.001478,0.005127,0.01099
1657,-0.026708,0.963433,0.26661,-0.004816,0.003425,0.011558
1658,-0.026719,0.963369,0.266838,-0.004074,-0.001745,0.011818
1659,-0.026762,0.963293,0.267107,-0.0018329999999999,0.0002379999999999,0.013975
1660,-0.02682,0.963231,0.267328,-0.002035,0.00494,0.0129
1661,-0.026882,0.963186,0.267484,-0.003452,0.00587,0.010546
1662,-0.026902,0.963139,0.26765,-0.003783,0.006755,0.008229
1663,-0.0269,0.963076,0.267877,-0.003175,0.0022559999999999,0.01174
1664,-0.0269139999999999,0.963004,0.268136,-0.001238,0.0035789999999999,0.010856
1665,-0.026931,0.962967,0.268267,-0.001359,0.005645,0.008192
1666,-0.0269839999999999,0.962962,0.268284,-0.006036,0.008596,0.009777
1667,-0.0270019999999999,0.962961,0.268283,-0.0071769999999999,0.004019,0.0090599999999999
1668,-0.0269949999999999,0.962956,0.268304,-0.003202,0.004894,0.012015
1669,-0.0270019999999999,0.962975,0.268234,-0.0026149999999999,0.001014,0.016022
1670,-0.027031,0.963013,0.268092,-0.004371,-0.00084,0.017247
1671,-0.02707,0.963041,0.267988,-0.004974,-0.001951,0.015765
1672,-0.0271089999999999,0.96302,0.2680619999999999,-0.003271,-0.002464,0.014637
1673,-0.027112,0.962957,0.268287,0.00346,0.001307,0.009361
1674,-0.0270839999999999,0.962877,0.268576,0.000533,0.003187,0.0095459999999999
1675,-0.0270279999999999,0.962814,0.268807,-0.005961,0.008087,0.0043409999999999
1676,-0.026975,0.96277,0.268971,-0.004199,0.00772,0.003246
1677,-0.026935,0.962735,0.269101,0.001621,0.008472,0.00281
1678,-0.026897,0.962727,0.269134,0.001689,0.008053,0.004563
1679,-0.026798,0.962765,0.269009,-0.002393,0.002689,0.011768
1680,-0.026691,0.962828,0.268793,-0.005383,-0.00128,0.017676
1681,-0.026635,0.96289,0.268577,-0.008751,0.0028539999999999,0.019936
1682,-0.02666,0.962894,0.2685599999999999,-0.001889,-0.001789,0.015528
1683,-0.026712,0.962836,0.268762,0.007745,-0.0037909999999999,0.016821
1684,-0.026632,0.962754,0.2690639999999999,0.006338,-0.00145,0.016169
1685,-0.026517,0.962671,0.269372,-0.007572,0.00759,0.004538
1686,-0.026391,0.962619,0.269569,-0.008597,0.004376,-0.000175
1687,-0.02632,0.962611,0.269606,-0.000352,0.005559,0.001176
1688,-0.026272,0.962611,0.26961,0.003384,0.007619,0.007886
1689,-0.026217,0.962635,0.26953,-0.0013859999999999,0.009228,0.0117349999999999
1690,-0.026179,0.962664,0.269429,-0.003285,0.006712,0.006648
1691,-0.026157,0.962705,0.269284,-0.000638,0.00165,0.00835
1692,-0.026151,0.962748,0.26913,-0.000399,0.001577,0.010472
1693,-0.026128,0.962775,0.269036,0.0015609999999999,0.004678,0.014503
1694,-0.026059,0.962798,0.26896,-0.005938,0.005036,0.012214
1695,-0.025994,0.962834,0.26884,-0.009055,0.004436,0.006581
1696,-0.0259839999999999,0.962876,0.268689,-0.007753,0.002456,0.0063659999999999
1697,-0.026025,0.962915,0.268548,0.001046,0.0032409999999999,0.010078
1698,-0.0260779999999999,0.962943,0.268442,0.00586,0.004846,0.010595
1699,-0.026066,0.96298,0.26831,0.002842,0.005465,0.009431
1700,-0.025985,0.963024,0.268158,-0.003785,0.004352,0.007767
1701,-0.0259089999999999,0.963066,0.268017,-0.0078129999999999,0.003395,0.007115
1702,-0.025881,0.963102,0.267889,-0.00424,0.005404,0.005732
1703,-0.0258949999999999,0.963148,0.2677219999999999,-0.000839,0.004504,0.00747
1704,-0.0258839999999999,0.963207,0.267511,-0.001399,0.0034219999999999,0.011237
1705,-0.0258259999999999,0.963276,0.267268,-0.0018989999999999,0.003201,0.009923
1706,-0.025768,0.96333,0.26708,-0.005268,0.003253,0.011729
1707,-0.025706,0.963382,0.266897,-0.00324,0.004116,0.012629
1708,-0.025668,0.963442,0.266685,-0.0027129999999999,0.004118,0.0109489999999999
1709,-0.025613,0.96352,0.266409,-0.003546,0.00288,0.014262
1710,-0.025553,0.9636,0.2661239999999999,-0.005361,0.001808,0.014119
1711,-0.025502,0.963671,0.265872,-0.0037799999999999,0.0040869999999999,0.010983
1712,-0.02547,0.963734,0.265646,-0.0030329999999999,0.003124,0.01034
1713,-0.025442,0.963801,0.265406,-0.00236,0.002859,0.009909
1714,-0.025386,0.963873,0.265148,-0.005543,0.00451,0.012821
1715,-0.02532,0.963962,0.26483,-0.004358,0.004711,0.010591
1716,-0.025248,0.964048,0.264526,-0.0052689999999999,0.001269,0.010467
1717,-0.025168,0.964134,0.264221,-0.00361,5.4000000000000005e-05,0.015106
1718,-0.025052,0.9642,0.263989,0.0002569999999999,-0.000562,0.018039
1719,-0.024958,0.964244,0.263837,-0.002187,-0.0008039999999999,0.021747
1720,-0.024875,0.964257,0.263798,-0.003399,0.006522,0.016429
1721,-0.024737,0.964293,0.26368,-0.005475,0.0047009999999999,0.011482
1722,-0.024638,0.964358,0.263449,-0.0076799999999999,0.001553,0.005151
1723,-0.02456,0.964443,0.2631469999999999,0.000817,-0.003246,0.019156
1724,-0.024485,0.964512,0.262902,0.0056409999999999,-0.00745,0.0301889999999999
1725,-0.024363,0.964505,0.26294,0.005809,-0.010388,0.037017
1726,-0.024048,0.964412,0.263307,-0.001007,-0.004146,0.028869
1727,-0.023596,0.964251,0.263939,-0.010874,-0.001131,0.012214
1728,-0.023106,0.964044,0.264737,-0.013073,0.006476,-0.0004849999999999
1729,-0.022667,0.963863,0.265432,-0.012337,0.011662,-0.00672
1730,-0.0224259999999999,0.963771,0.265785,-0.009037,0.017308,-0.010475
1731,-0.0224,0.963796,0.2656969999999999,-0.003433,0.021342,-0.009441
1732,-0.0224949999999999,0.9639,0.265311,-0.0035979999999999,0.020429,-0.011695
1733,-0.022574,0.964066,0.264702,-0.001214,0.010513,-0.012092
1734,-0.022674,0.964273,0.263938,0.004882,0.003378,-0.003882
1735,-0.022825,0.964504,0.263078,0.010633,-0.0011099999999999,0.0071849999999999
1736,-0.022927,0.964733,0.262229,0.010659,-0.000302,0.016824
1737,-0.022819,0.96488,0.2616969999999999,0.000892,-0.000158,0.018271
1738,-0.022574,0.96493,0.261536,-0.008966,0.001486,0.011444
1739,-0.022288,0.964931,0.261556,-0.012105,0.000401,0.006282
1740,-0.022132,0.964938,0.261542,-0.009759,-0.001727,0.008569
1741,-0.022059,0.964968,0.261438,-0.006231,0.001234,0.009939
1742,-0.022015,0.965022,0.261243,-0.005878,0.003469,0.013507
1743,-0.021921,0.965064,0.261094,-0.003378,0.001977,0.008391
1744,-0.021796,0.965068,0.261087,-0.003885,0.0030559999999999,0.006338
1745,-0.0216449999999999,0.965034,0.261228,0.002938,0.001473,0.004306
1746,-0.021491,0.964983,0.2614309999999999,0.009055,0.0038439999999999,0.005887
1747,-0.0213539999999999,0.964943,0.261588,0.010032,0.009132,0.00483
1748,-0.021178,0.964935,0.261633,-0.001085,0.012711,-5.2e-05
1749,-0.020934,0.964957,0.2615699999999999,-0.009263,0.011651,-0.004398
1750,-0.020765,0.965008,0.261397,-0.013933,0.008106,-0.004195
1751,-0.020741,0.965075,0.261152,-0.0075489999999999,-0.002092,0.008242
1752,-0.020837,0.965129,0.260945,0.0046619999999999,-0.0019329999999999,0.016643
1753,-0.020883,0.965162,0.260816,0.005822,0.000368,0.018755
1754,-0.020772,0.965159,0.260838,-0.000529,0.002828,0.012142
1755,-0.020564,0.965155,0.26087,-0.006947,0.006525,0.0050149999999999
1756,-0.020415,0.965158,0.26087,-0.005815,0.004981,0.00448
1757,-0.020416,0.965181,0.260784,-0.0043799999999999,0.0036299999999999,0.008839
1758,-0.020472,0.965198,0.260718,0.000589,0.00137,0.012414
1759,-0.02048,0.965209,0.260676,-0.003064,0.0036479999999999,0.010564
1760,-0.020454,0.965209,0.260677,-0.003868,0.0035259999999999,0.008168
1761,-0.0204069999999999,0.965222,0.260634,0.000814,0.003589,0.007891
1762,-0.020331,0.965241,0.260567,-0.001062,0.002837,0.010414
1763,-0.020249,0.965246,0.260557,-0.001937,0.0011539999999999,0.013353
1764,-0.020188,0.965225,0.26064,-0.002792,-0.000534,0.013423
1765,-0.020112,0.965186,0.260788,-0.003524,0.004952,0.0127409999999999
1766,-0.019997,0.965147,0.260943,-0.00605,0.003527,0.010587
1767,-0.019888,0.96512,0.261049,-0.007258,0.00392,0.0066359999999999
1768,-0.019846,0.965117,0.261065,-0.00501,0.005983,0.006986
1769,-0.0198479999999999,0.965126,0.261032,-0.000752,0.001167,0.013428
1770,-0.019865,0.965127,0.261027,0.0030039999999999,-0.000466,0.010259
1771,-0.019809,0.965117,0.261067,0.001239,0.0058909999999999,0.010494
1772,-0.019659,0.965124,0.261054,-0.005884,0.009287,0.003732
1773,-0.019506,0.965157,0.260943,-0.010737,0.008674,-0.002703
1774,-0.019393,0.965219,0.2607219999999999,-0.011658,0.0041719999999999,-0.000957
1775,-0.019375,0.965285,0.26048,-0.005893,-0.001372,0.011249
1776,-0.019469,0.96535,0.260232,6e-05,-6.3e-05,0.016806
1777,-0.019538,0.965391,0.2600719999999999,0.003424,0.004106,0.011366
1778,-0.019491,0.965406,0.26002,-0.004313,0.007753,0.0052689999999999
1779,-0.019409,0.96543,0.259939,-0.009811,0.0095909999999999,-0.0045369999999999
1780,-0.0193939999999999,0.965472,0.259784,-0.006454,0.0027129999999999,0.002866
1781,-0.019445,0.965525,0.259582,0.000356,-0.003047,0.016617
1782,-0.019516,0.965567,0.259422,0.003143,-0.003363,0.019372
1783,-0.019484,0.965548,0.259495,-0.004915,0.004438,0.012371
1784,-0.019358,0.965503,0.2596699999999999,-0.011648,0.008496,0.00153
1785,-0.019281,0.965484,0.259747,-0.008749,0.006714,-0.004574
1786,-0.01934,0.965532,0.259563,-0.003045,0.001875,0.005742
1787,-0.019437,0.965596,0.259319,0.004514,0.000468,0.021245
1788,-0.019487,0.965618,0.259235,0.007219,-0.003322,0.023235
1789,-0.01945,0.965563,0.259441,-0.000249,0.00044,0.012089
1790,-0.019322,0.965473,0.259787,-0.007717,0.003918,-0.0025239999999999
1791,-0.019241,0.965402,0.260053,-0.0077519999999999,0.009115,-0.004072
1792,-0.019268,0.965398,0.2600699999999999,-0.002888,0.005702,0.00554
1793,-0.019412,0.965427,0.259949,0.004504,0.001522,0.0133669999999999
1794,-0.019542,0.965438,0.259901,0.0043289999999999,0.000261,0.015719
1795,-0.019551,0.965396,0.260057,0.0010119999999999,0.001188,0.011016
1796,-0.019484,0.965339,0.260273,-0.007845,0.006295,0.002514
1797,-0.019493,0.965315,0.26036,-0.003425,0.005068,-0.0008849999999999
1798,-0.019548,0.965327,0.260309,-0.00125,0.005422,0.003042
1799,-0.019614,0.965335,0.260275,0.001578,0.005642,0.014749
1800,-0.019699,0.965328,0.260294,0.001266,0.003025,0.011984
1801,-0.019755,0.965324,0.260307,-0.003942,0.005059,0.00602
1802,-0.019774,0.96531,0.260356,-0.003785,0.0021739999999999,0.0076489999999999
