,gravity.x,gravity.y,gravity.z,userAcceleration.x,userAcceleration.y,userAcceleration.z
0,0.20704,0.971416,-0.116041,0.0309209999999999,0.04868,-0.051882
1,0.2106849999999999,0.969752,-0.123177,0.052499,0.0291339999999999,-0.054252
2,0.21372,0.96829,-0.129301,0.04867,0.018908,-0.052035
3,0.216203,0.967083,-0.134119,0.042464,0.018787,-0.049246
4,0.217952,0.966213,-0.137514,0.0141039999999999,0.005924,-0.047728
5,0.218763,0.965728,-0.139618,-0.008742,0.012116,-0.046692
6,0.21885,0.965533,-0.14082,-0.019815,0.021878,-0.042621
7,0.2188469999999999,0.965368,-0.141953,-0.019506,0.0165039999999999,-0.01007
8,0.21844,0.965325,-0.14287,-0.024898,0.004203,0.009966
9,0.2176699999999999,0.965495,-0.142901,-0.031543,-0.001216,0.01636
10,0.216465,0.965928,-0.141798,-0.051059,-0.011278,0.00572
11,0.214721,0.966607,-0.139812,-0.054473,0.018959,0.01675
12,0.212587,0.967407,-0.137514,-0.052339,0.018158,0.014452
13,0.20985,0.968405,-0.134665,-0.035976,0.025675,-0.001504
14,0.207456,0.969305,-0.131872,-0.027844,0.043558,-0.005381
15,0.205852,0.96993,-0.129774,-0.026241,0.042933,-0.007479
16,0.204236,0.970402,-0.128793,0.0009939999999999,0.030163,-0.004599
17,0.2036089999999999,0.970479,-0.129202,0.000218,-0.000966,0.011953
18,0.204224,0.970155,-0.130657,-0.000397,-0.000642,0.013408
19,0.2056329999999999,0.969556,-0.132872,-0.01824,-0.003065,0.017881
20,0.207968,0.968684,-0.135578,-0.039404,0.014455,0.018024
21,0.21086,0.967618,-0.13868,-0.042296,0.015521,0.021127
22,0.213747,0.966572,-0.14153,-0.027651,0.013119,0.020894
23,0.2163449999999999,0.965653,-0.14384,0.007578,0.020599,0.004497
24,0.2187309999999999,0.964828,-0.145754,0.011845,0.019593,-0.000502
25,0.220503,0.964223,-0.14708,0.014421,0.0121409999999999,-0.005966
26,0.221715,0.963849,-0.1477089999999999,0.0161849999999999,0.006259,-0.0065879999999999
27,0.222619,0.963612,-0.147897,0.0165319999999999,0.006176,-0.001166
28,0.222798,0.96362,-0.147574,0.01858,0.007373,0.003912
29,0.222408,0.963808,-0.146929,0.015766,0.0069409999999999,0.006121
30,0.221754,0.964071,-0.146192,0.003283,0.006617,0.010923
31,0.221237,0.964327,-0.145281,-0.010666,0.007566,0.021562
32,0.220863,0.964561,-0.144297,-0.006416,0.014947,0.031016
33,0.220482,0.964777,-0.143427,-0.003486,0.010976,0.033914
34,0.219992,0.964997,-0.1427,-0.000509,0.018829,0.0271459999999999
35,0.219303,0.965232,-0.142169,-0.001667,0.0244379999999999,0.024539
36,0.218534,0.965504,-0.141503,-0.000898,0.021557,0.019951
37,0.217914,0.965772,-0.140623,0.00575,0.00783,0.0038439999999999
38,0.2173989999999999,0.965954,-0.140166,0.0077909999999999,0.002491,0.004363
39,0.216909,0.966128,-0.13973,0.0037329999999999,0.001219,-0.000285
40,0.2164469999999999,0.966264,-0.139506,0.000884,0.007018,0.0068909999999999
41,0.215928,0.966368,-0.139589,0.004821,0.007967,0.011644
42,0.215481,0.966444,-0.139757,0.003514,0.009341,0.015123
43,0.2151699999999999,0.966469,-0.140061,-0.004294,0.011604,0.017411
44,0.214894,0.966466,-0.140501,-0.012609,0.021174,0.017058
45,0.2145989999999999,0.96646,-0.140992,-0.017166,0.024918,0.016419
46,0.214294,0.966457,-0.141478,-0.016998,0.017277,0.018477
47,0.2140099999999999,0.966452,-0.141938,-0.013876,0.012948,0.0177009999999999
48,0.213676,0.966457,-0.142406,-0.015739,0.004627,0.018032
49,0.213234,0.966486,-0.142872,-0.019218,0.010778,0.012165
50,0.212945,0.966472,-0.143397,-0.015863,0.0221449999999999,0.013178
51,0.212678,0.966431,-0.144073,-0.0205389999999999,0.0106349999999999,0.0138699999999999
52,0.212498,0.966376,-0.144698,-0.020146,0.020303,0.01097
53,0.212565,0.966257,-0.145397,-0.023585,0.020239,0.0017809999999999
54,0.212823,0.966052,-0.1463819999999999,-0.029306,0.03288,0.007084
55,0.213071,0.965796,-0.147705,-0.019162,0.032282,0.008758
56,0.2133159999999999,0.965488,-0.149348,-0.014784,0.018475,0.0066939999999999
57,0.213953,0.965058,-0.1512089999999999,-0.015421,0.018905,0.008554
58,0.2144239999999999,0.964662,-0.153056,-0.012596,0.013884,0.001857
59,0.214957,0.964286,-0.154669,-0.011603,0.018472,-0.001719
60,0.215358,0.963981,-0.156006,-0.012157,0.016427,0.0066989999999999
61,0.215507,0.963762,-0.157155,-0.011176,0.0075819999999999,0.001805
62,0.215513,0.963625,-0.1579809999999999,-0.012617,0.003538,0.002402
63,0.21522,0.963608,-0.158488,-0.006617,-0.0017239999999999,0.006266
64,0.214715,0.9637,-0.158617,-0.009423,0.000229,0.002901
65,0.214189,0.963839,-0.158485,-0.006548,0.002317,0.002769
66,0.213702,0.963987,-0.158241,-0.000491,-0.00366,0.008812
67,0.2134039999999999,0.964122,-0.157825,0.007634,-0.00503,0.007022
68,0.213339,0.964215,-0.15734,0.01005,0.000659,0.005256
69,0.213436,0.964267,-0.156892,0.007923,0.01524,0.000917
70,0.213662,0.964271,-0.156556,0.008048,0.017311,0.002656
71,0.213994,0.964202,-0.156526,0.0081129999999999,0.014725,0.002183
72,0.2143679999999999,0.964077,-0.1567859999999999,0.006823,0.015324,0.002367
73,0.2149719999999999,0.963869,-0.1572319999999999,0.003549,0.024534,0.004293
74,0.215782,0.963576,-0.157915,0.0050729999999999,0.0235,0.0004599999999999
75,0.216719,0.963205,-0.158893,0.004213,0.023017,0.000873
76,0.2176929999999999,0.962785,-0.160099,0.007344,0.022368,0.00475
77,0.21863,0.962359,-0.161377,0.010725,0.013181,0.000321
78,0.219369,0.962007,-0.16247,0.009497,-1e-06,-0.00118
79,0.219863,0.961737,-0.163398,0.004563,-0.002035,-0.004571
80,0.220005,0.961545,-0.1643359999999999,0.005047,-0.0009279999999999,0.003188
81,0.219819,0.961444,-0.16517,0.00389,-0.0020329999999999,0.006753
82,0.2195079999999999,0.961439,-0.165613,-0.000865,0.012026,0.005121
83,0.219134,0.961531,-0.165576,-0.001605,0.006502,0.001971
84,0.218704,0.961695,-0.165193,-0.005645,0.013647,-0.000899
85,0.218059,0.96194,-0.164618,0.0023539999999999,-0.002727,-0.008753
86,0.217522,0.962169,-0.163992,0.002647,-0.012965,-0.009942
87,0.217467,0.962303,-0.163278,0.005388,-0.0152509999999999,-0.014731
88,0.21773,0.962359,-0.162589,0.003934,-0.0087459999999999,-0.0150689999999999
89,0.218185,0.962413,-0.161657,0.001007,-0.003947,-0.019419
90,0.218705,0.9625,-0.160435,0.006057,0.000544,-0.0196949999999999
91,0.219278,0.962575,-0.1592,0.016242,0.001628,-0.023128
92,0.220248,0.962524,-0.158165,0.020474,-0.000915,-0.0263139999999999
93,0.2217039999999999,0.962306,-0.1574569999999999,0.010794,-0.003901,-0.023268
94,0.22341,0.961999,-0.15692,0.002313,-0.000603,-0.023958
95,0.225155,0.961717,-0.1561519999999999,-0.0023,0.001678,-0.020225
96,0.226854,0.961475,-0.155176,-0.004534,-8e-05,-0.021597
97,0.228578,0.961218,-0.1542359999999999,-0.010179,0.000665,-0.020324
98,0.230341,0.960954,-0.153258,-0.019968,0.000334,-0.023408
99,0.2320719999999999,0.960698,-0.152252,-0.031083,0.003353,-0.018815
100,0.2335449999999999,0.960532,-0.151041,-0.03483,0.001504,-0.019186
101,0.234702,0.9605,-0.149443,-0.030447,-0.006826,-0.019731
102,0.235373,0.960692,-0.147141,-0.030905,-0.013396,-0.019775
103,0.235451,0.961186,-0.143749,-0.035423,0.0143539999999999,-0.008366
104,0.23485,0.961968,-0.1394359999999999,-0.050676,0.050438,-0.002364
105,0.233363,0.963046,-0.134404,-0.0525919999999999,0.074934,-0.002117
106,0.2309739999999999,0.964335,-0.129185,-0.051454,0.1056119999999999,0.003895
107,0.227933,0.965721,-0.124129,-0.047391,0.113075,0.011015
108,0.2245219999999999,0.96712,-0.119362,-0.032216,0.112897,0.026222
109,0.221319,0.968449,-0.114468,-0.020208,0.070309,0.024197
110,0.218585,0.969642,-0.109509,-0.028857,0.01635,0.008053
111,0.215811,0.970763,-0.10499,-0.048757,-0.015334,-0.004492
112,0.2127679999999999,0.971851,-0.10106,-0.049865,-0.029407,-0.0011279999999999
113,0.209986,0.972774,-0.09795,-0.022059,-0.014903,0.0320019999999999
114,0.208083,0.973442,-0.095342,-0.007964,-0.007987,0.036397
115,0.207089,0.973969,-0.092067,0.001621,0.010574,0.029552
116,0.2065489999999999,0.974429,-0.08834,-0.0161949999999999,0.0137759999999999,0.027732
117,0.2060699999999999,0.974856,-0.084673,-0.017669,0.007673,0.025835
118,0.2055219999999999,0.975206,-0.081929,-0.040147,-0.0291,0.049276
119,0.204769,0.975583,-0.0792799999999999,-0.028393,-0.0149349999999999,0.0359149999999999
120,0.20426,0.975878,-0.07693,-0.018713,-0.018267,0.031429
121,0.2038839999999999,0.976146,-0.074489,-0.00233,-0.024363,0.033047
122,0.203801,0.97638,-0.071582,0.023097,-0.031541,0.038135
123,0.204235,0.976515,-0.06844,0.024204,-0.012465,0.041234
124,0.204843,0.97661,-0.065189,0.016181,-0.008364,0.045367
125,0.205771,0.976626,-0.061942,0.013285,0.0035369999999999,0.04528
126,0.206851,0.976574,-0.0591029999999999,0.00253,0.009892,0.038428
127,0.208069,0.976516,-0.055679,0.005783,0.005631,0.030212
128,0.209259,0.976431,-0.052624,0.008454,0.005548,0.02615
129,0.210509,0.976315,-0.04971,0.023255,0.000156,0.029813
130,0.2117699999999999,0.976181,-0.046916,0.03826,0.00473,0.039088
131,0.21304,0.976022,-0.044396,0.04314,0.008017,0.0403829999999999
132,0.214342,0.975855,-0.041734,0.038893,0.003851,0.042344
133,0.215721,0.975668,-0.038895,0.027458,0.007044,0.043717
134,0.216889,0.975509,-0.036298,0.025894,0.0068819999999999,0.04701
135,0.217865,0.97537,-0.034126,0.0269009999999999,0.0104549999999999,0.036659
136,0.2190389999999999,0.975147,-0.032951,0.024628,0.025555,0.024116
137,0.220048,0.974913,-0.033147,0.033492,0.0119189999999999,0.029485
138,0.221017,0.974659,-0.0341389999999999,0.0385649999999999,0.005474,0.0265709999999999
139,0.222051,0.974368,-0.035701,0.046061,0.003903,0.015162
140,0.223219,0.974023,-0.037773,0.047014,0.005942,0.014121
141,0.224634,0.973613,-0.03988,0.044897,0.003987,0.007517
142,0.22646,0.973113,-0.041723,0.037715,0.0052049999999999,0.01383
143,0.228446,0.97258,-0.0432839999999999,0.035531,0.001083,0.017512
144,0.230528,0.972044,-0.0442829999999999,0.031786,0.004611,0.019778
145,0.232765,0.97149,-0.044715,0.0260399999999999,0.0026609999999999,0.01464
146,0.234952,0.970957,-0.044837,0.033679,0.009267,0.015815
147,0.236911,0.970484,-0.044762,0.034161,0.007192,0.0167159999999999
148,0.23876,0.970046,-0.0444279999999999,0.031824,0.000458,0.016825
149,0.2401739999999999,0.969717,-0.044005,0.030166,-0.003133,0.0179889999999999
150,0.241306,0.969461,-0.04344,0.0303769999999999,-0.004693,0.015638
151,0.242055,0.969299,-0.042877,0.027598,-0.000167,0.012055
152,0.242426,0.969225,-0.042424,0.025716,-0.000964,0.011068
153,0.2423789999999999,0.969253,-0.042062,0.026237,1.6e-05,0.01571
154,0.241885,0.969397,-0.041594,0.027799,-0.004278,0.019576
155,0.241081,0.969628,-0.040871,0.0250169999999999,0.006584,0.018517
156,0.24034,0.969852,-0.039906,0.0178849999999999,0.024761,0.027211
157,0.24004,0.969968,-0.038876,-0.000538,0.025393,0.044705
158,0.240065,0.969995,-0.0380459999999999,-0.003188,0.019293,0.047018
159,0.2401869999999999,0.969988,-0.037459,-0.004912,0.013838,0.044112
160,0.2401599999999999,0.970005,-0.0372,0.005949,0.007794,0.033752
161,0.239938,0.970054,-0.037348,0.011039,0.0135729999999999,0.02328
162,0.239725,0.97009,-0.0377819999999999,0.010733,0.017428,0.0204479999999999
163,0.239463,0.970135,-0.038264,0.000771,0.012561,0.012522
164,0.239193,0.970181,-0.038791,0.012287,-0.001797,0.009921
165,0.2389119999999999,0.970227,-0.0393639999999999,0.012568,-0.001843,0.010495
166,0.238759,0.970254,-0.039633,0.014232,0.011482,0.01496
167,0.2386719999999999,0.970272,-0.039701,0.019415,0.0067329999999999,0.017668
168,0.2386329999999999,0.9703,-0.039262,0.018798,0.002921,0.015824
169,0.238457,0.970378,-0.038386,0.020866,0.004415,0.016047
170,0.238059,0.970513,-0.03742,0.0177699999999999,0.008781,0.014746
171,0.237628,0.970655,-0.036452,0.018201,0.008639,0.013778
172,0.2374949999999999,0.970721,-0.035556,0.006356,0.011289,0.012088
173,0.237512,0.970737,-0.034988,0.0085659999999999,0.006299,0.01091
174,0.2375199999999999,0.970748,-0.034618,0.008558,0.006287,0.010539
175,0.237509,0.970761,-0.034342,0.0225919999999999,0.003925,0.009729
176,0.237271,0.970832,-0.033973,0.0228,0.004876,0.005363
177,0.236945,0.970933,-0.033336,0.023126,0.004775,0.004726
178,0.236517,0.971067,-0.032435,0.01124,0.000154,0.010447
179,0.235986,0.971227,-0.0314889999999999,0.005683,0.005427,0.008661
180,0.235213,0.971445,-0.030539,0.004121,0.006247,0.005163
181,0.234434,0.971662,-0.029611,0.002291,0.010211,0.002862
182,0.233719,0.971857,-0.0288089999999999,-0.001359,0.008535,0.005051
183,0.232922,0.972069,-0.028129,-0.003338,0.005257,0.003929
184,0.232034,0.972301,-0.027441,-0.001184,0.0083349999999999,0.004263
185,0.2310809999999999,0.972547,-0.026756,0.0026379999999999,0.0076159999999999,0.006737
186,0.2301099999999999,0.972799,-0.025974,0.0015789999999999,0.005518,0.003849
187,0.229091,0.973062,-0.025111,-0.003872,0.006445,0.009669
188,0.227929,0.97336,-0.02412,-0.002068,0.007276,0.007762
189,0.226586,0.973701,-0.023027,-0.001534,0.005624,0.0117349999999999
190,0.2251449999999999,0.97406,-0.021937,-0.002123,0.013306,0.013072
191,0.223685,0.974419,-0.02093,-0.006919,0.017418,0.018473
192,0.222309,0.974755,-0.01991,-0.008305,0.019599,0.018613
193,0.2210489999999999,0.975063,-0.018862,-0.016581,0.011845,0.019045
194,0.219888,0.975344,-0.017894,-0.005197,0.011717,0.021861
195,0.218771,0.975612,-0.016952,-0.0010279999999999,0.007512,0.020324
196,0.217728,0.975863,-0.015927,4.5e-05,0.008284,0.01878
197,0.216756,0.976096,-0.014881,-0.006628,0.014291,0.025471
198,0.215952,0.976288,-0.013906,-0.009302,0.0128469999999999,0.0235949999999999
199,0.2153219999999999,0.976441,-0.0129539999999999,-0.011236,0.010345,0.023315
200,0.2148719999999999,0.976549,-0.012319,-0.0138229999999999,0.012679,0.017446
201,0.214638,0.976605,-0.011974,-0.015678,0.012012,0.016033
202,0.214518,0.976632,-0.011911,-0.010798,0.014609,0.0104459999999999
203,0.214505,0.976632,-0.012112,-0.004254,0.008628,0.01286
204,0.214502,0.976629,-0.01241,-0.00332,0.0081879999999999,0.018315
205,0.21439,0.976653,-0.012448,-0.009571,0.002259,0.037351
206,0.214338,0.976674,-0.011717,-0.021345,-0.007298,0.023359
207,0.2140429999999999,0.976757,-0.0100959999999999,-0.021217,-0.004894,0.017176
208,0.213234,0.976954,-0.007768,-0.00872,0.0072069999999999,0.008302
209,0.211929,0.977256,-0.005067,0.014725,0.000665,-0.008666
210,0.2103219999999999,0.977613,-0.002319,0.016332,0.000308,-0.011414
211,0.2086059999999999,0.977983,0.000446,0.012906,0.008406,-0.022129
212,0.207379,0.97824,0.002811,0.012179,0.009186,-0.027652
213,0.206613,0.978396,0.004582,0.012946,0.009031,-0.029423
214,0.206411,0.978433,0.005554,0.019785,0.010412,-0.0292209999999999
215,0.206523,0.978408,0.005949,0.015111,0.010011,-0.026487
216,0.207044,0.978298,0.005882,0.0143,0.011814,-0.0165319999999999
217,0.207837,0.978132,0.005552,0.010776,0.01163,-0.015333
218,0.208842,0.97792,0.005069,0.009786,0.009598,-0.009738
219,0.21006,0.977662,0.004479,0.002877,0.0134569999999999,-0.000343
220,0.211444,0.977366,0.003904,-0.001544,0.011144,0.011584
221,0.212848,0.977063,0.00347,-0.009372,0.01517,0.024088
222,0.2141429999999999,0.976782,0.00303,-0.012345,0.001322,0.03115
223,0.215408,0.976504,0.0026579999999999,-0.013961,0.015286,0.036954
224,0.216711,0.976217,0.002486,-0.017217,0.008845,0.028398
225,0.2180119999999999,0.975928,0.002111,-0.018733,0.013101,0.026911
226,0.2194019999999999,0.975618,0.001635,-0.023571,0.015853,0.022093
227,0.22078,0.975308,0.001105,-0.035691,0.008244,0.033578
228,0.222185,0.974989,0.000305,-0.031603,0.010653,0.033799
229,0.223465,0.974696,-0.000859,-0.030594,0.020269,0.032933
230,0.224598,0.974433,-0.002521,-0.033298,0.021646,0.03284
231,0.225779,0.974152,-0.00464,-0.034755,0.020828,0.034989
232,0.226737,0.973915,-0.007083,-0.0305089999999999,0.023369,0.031711
233,0.2276369999999999,0.973677,-0.010172,-0.028998,0.022264,0.034602
234,0.228239,0.973494,-0.0135789999999999,-0.025328,0.016526,0.03453
235,0.228551,0.973366,-0.017134,-0.022069,0.002159,0.033522
236,0.228744,0.973251,-0.02071,-0.018616,-0.001007,0.032704
237,0.228631,0.973203,-0.023967,-0.010995,0.0076319999999999,0.020549
238,0.22839,0.973181,-0.0269529999999999,-0.009549,0.006097,0.020071
239,0.228001,0.973202,-0.029394,-0.010762,0.007862,0.021276
240,0.227535,0.973259,-0.031093,-0.014843,0.007988,0.018443
241,0.2271239999999999,0.973321,-0.032103,-0.0131659999999999,0.012442,0.016372
242,0.227008,0.973338,-0.0324189999999999,-0.01163,0.016026,0.015558
243,0.227056,0.973337,-0.032119,-0.00794,0.028738,0.018371
244,0.227319,0.973299,-0.031388,-0.007684,0.01901,0.015717
245,0.227843,0.973208,-0.030427,-0.001067,0.007093,0.014497
246,0.22871,0.97304,-0.0292529999999999,0.003346,0.003202,0.01433
247,0.229798,0.972825,-0.027829,0.003967,-0.003496,0.015881
248,0.230928,0.972601,-0.026279,0.007765,0.00387,0.015979
249,0.231895,0.972413,-0.024673,0.005929,0.005935,0.016982
250,0.232726,0.972254,-0.023073,-0.001387,0.012747,0.0214409999999999
251,0.2333869999999999,0.972125,-0.021781,0.000729,0.012158,0.019553
252,0.233986,0.972004,-0.020759,0.003792,0.006436,0.014259
253,0.2345489999999999,0.971883,-0.0200289999999999,0.002908,0.006831,0.010325
254,0.23508,0.97176,-0.019777,0.000989,0.007885,0.008562
255,0.235767,0.971591,-0.019897,-0.002613,0.007153,0.008713
256,0.236618,0.971376,-0.0203,-0.001495,0.012984,0.009145
257,0.237511,0.971143,-0.021019,0.002555,0.013324,0.004036
258,0.2384349999999999,0.970894,-0.022042,0.000838,0.012749,0.003656
259,0.239338,0.970645,-0.023207,0.004085,0.007672,0.005385
260,0.2402139999999999,0.970402,-0.024278,0.005666,0.008525,0.00461
261,0.241026,0.970177,-0.025244,0.0072349999999999,0.009575,0.007238
262,0.241757,0.96997,-0.026166,0.009646,0.003144,0.011395
263,0.242448,0.969773,-0.027098,0.011504,0.011566,0.018233
264,0.243084,0.969587,-0.028033,0.009236,0.011309,0.018542
265,0.2436849999999999,0.969411,-0.028876,0.011701,0.000392,0.025931
266,0.244375,0.969216,-0.029588,0.017329,0.010459,0.027589
267,0.2450889999999999,0.969021,-0.03009,0.016615,0.010654,0.028092
268,0.245773,0.968848,-0.030095,0.0162819999999999,0.00332,0.030156
269,0.246387,0.968707,-0.0295889999999999,0.019405,0.005017,0.025667
270,0.246769,0.968639,-0.028623,0.024151,0.004017,0.0209169999999999
271,0.2469559999999999,0.968632,-0.027199,0.019416,-0.001408,0.018471
272,0.247081,0.968648,-0.02543,0.021214,-0.001073,0.01481
273,0.247082,0.968691,-0.02369,0.020114,-0.002948,0.011559
274,0.2470679999999999,0.968733,-0.022119,0.026187,0.0003529999999999,0.005227
275,0.2470909999999999,0.968753,-0.02093,0.023554,0.00137,0.001536
276,0.247146,0.968753,-0.02029,0.0258639999999999,0.002118,0.001522
277,0.247455,0.968678,-0.020089,0.019803,0.00642,0.002953
278,0.247856,0.96857,-0.020344,0.019677,0.009335,0.004979
279,0.248322,0.968437,-0.020977,0.019195,0.011879,0.00401
280,0.248865,0.968278,-0.021856,0.0136479999999999,0.009764,0.01113
281,0.249356,0.968129,-0.022844,0.012469,0.011318,0.01523
282,0.249901,0.967962,-0.023936,0.015221,0.0124,0.021296
283,0.250454,0.967791,-0.025029,0.002811,0.011549,0.025686
284,0.251001,0.96762,-0.026126,0.001303,0.013962,0.024814
285,0.251478,0.967463,-0.027325,-0.005414,0.0135699999999999,0.03233
286,0.251906,0.967316,-0.028548,-0.007369,0.014571,0.0297839999999999
287,0.2523,0.967176,-0.0297899999999999,-0.006114,0.011385,0.031255
288,0.252628,0.967059,-0.030774,-0.005954,0.007367,0.023221
289,0.2528289999999999,0.966988,-0.031363,0.00091,0.0066599999999999,0.016959
290,0.25275,0.967009,-0.031352,0.007397,0.001375,0.006816
291,0.252335,0.967136,-0.030754,0.008102,0.003857,0.005104
292,0.25174,0.96732,-0.029805,0.007019,0.0069989999999999,0.004307
293,0.251205,0.967493,-0.028678,0.0064849999999999,0.009634,0.00228
294,0.250793,0.967631,-0.027617,0.002076,0.006567,0.003508
295,0.250576,0.967708,-0.02684,0.002476,0.0117069999999999,0.005081
296,0.25062,0.967709,-0.0263829999999999,0.0065209999999999,0.012408,0.0024579999999999
297,0.250823,0.967662,-0.026205,0.009981,0.012258,0.004476
298,0.251133,0.96758,-0.026273,0.012417,0.010249,0.008725
299,0.25156,0.967462,-0.026523,0.007122,0.013022,0.0170169999999999
300,0.252053,0.96732,-0.026997,-0.0024649999999999,0.0143699999999999,0.022663
301,0.2525989999999999,0.96716,-0.027601,-0.008962,0.009967,0.022809
302,0.2530929999999999,0.967013,-0.028221,-0.010646,0.007719,0.024605
303,0.253402,0.966911,-0.028911,-0.010955,0.00782,0.025294
304,0.253521,0.966864,-0.0294199999999999,-0.016277,0.006127,0.020875
305,0.253477,0.966865,-0.029775,-0.014051,0.00631,0.017797
306,0.25331,0.966905,-0.029891,-0.013884,0.00627,0.017913
307,0.252837,0.967039,-0.029601,-0.001402,0.005496,0.008681
308,0.252285,0.967196,-0.02916,0.002155,0.0065739999999999,0.0064099999999999
309,0.251742,0.967356,-0.028557,0.002866,0.011587,0.002862
310,0.251271,0.967494,-0.027998,-0.001256,0.011906,0.009336
311,0.250975,0.967584,-0.027548,-4.4e-05,0.012076,0.0062619999999999
312,0.250884,0.967615,-0.0272889999999999,4.7e-05,0.012045,0.006003
313,0.250897,0.967614,-0.0272199999999999,0.009158,0.006034,0.011504
314,0.250992,0.967592,-0.027125,0.007522,0.005705,0.006007
315,0.251138,0.967559,-0.026957,0.00524,0.004808,0.00976
316,0.251216,0.967545,-0.02671,0.001393,0.007186,0.0114209999999999
317,0.251318,0.967528,-0.026378,0.002008,0.010911,0.0140949999999999
318,0.251338,0.967532,-0.02603,-0.001368,0.0116239999999999,0.016143
319,0.251365,0.967532,-0.025768,-0.000694,0.010923,0.014599
320,0.251477,0.967508,-0.025561,0.0002009999999999,0.007162,0.011096
321,0.2516,0.96748,-0.025439,0.004564,0.008106,0.011965
322,0.251738,0.967447,-0.025309,0.004136,0.00762,0.012659
323,0.251891,0.967412,-0.025153,0.004533,0.009898,0.0138
324,0.251986,0.967391,-0.025009,0.004957,0.013353,0.0140069999999999
325,0.252057,0.967375,-0.024918,0.004626,0.008593,0.014237
326,0.252089,0.967368,-0.024838,0.004396,0.0066159999999999,0.012768
327,0.252135,0.967358,-0.024776,0.002611,0.006565,0.01504
328,0.252195,0.967343,-0.0247569999999999,0.004428,0.009662,0.0145189999999999
329,0.25221,0.967339,-0.024773,0.005663,0.0075299999999999,0.015725
330,0.252175,0.967347,-0.024815,0.004143,0.010131,0.015721
331,0.252078,0.96737,-0.0248819999999999,0.002912,0.009986,0.0189
332,0.252005,0.967387,-0.024966,-0.001609,0.013982,0.023944
333,0.252044,0.967374,-0.025065,0.003053,0.019671,0.025019
334,0.252181,0.967335,-0.025221,-0.002043,0.011715,0.024703
335,0.252361,0.967282,-0.025426,0.001438,0.009967,0.022816
336,0.252576,0.967219,-0.025685,0.00133,0.009084,0.022755
337,0.252714,0.967177,-0.025939,0.002718,0.0077069999999999,0.021469
338,0.252793,0.967148,-0.026231,0.001769,0.009262,0.021333
339,0.252845,0.967125,-0.026601,0.000955,0.008629,0.020559
340,0.252862,0.967109,-0.027009,0.000159,0.0104,0.02115
341,0.252843,0.967103,-0.0273959999999999,0.003993,0.00917,0.017401
342,0.252748,0.967117,-0.027795,0.0098409999999999,0.00879,0.019509
343,0.252614,0.967141,-0.028156,0.003199,0.005134,0.017795
344,0.252507,0.96716,-0.028448,0.0045579999999999,0.00957,0.016424
345,0.252353,0.967193,-0.0287029999999999,-0.00069,0.009003,0.0183879999999999
346,0.25224,0.967216,-0.028937,-0.0009279999999999,0.005578,0.014136
347,0.25215,0.96723,-0.029251,-0.000197,0.0076849999999999,0.014679
348,0.252051,0.967245,-0.029591,0.002466,0.011041,0.009602
349,0.251938,0.967261,-0.030035,0.001877,0.009027,0.0132199999999999
350,0.25188,0.96726,-0.030561,0.0038729999999999,0.009806,0.0122659999999999
351,0.251952,0.967223,-0.031114,0.0046549999999999,0.0106819999999999,0.011537
352,0.252079,0.967173,-0.031659,0.004086,0.009603,0.009641
353,0.252208,0.967119,-0.0322649999999999,0.000768,0.009153,0.011422
354,0.252351,0.96706,-0.032922,-1.7e-05,0.0105709999999999,0.013772
355,0.252488,0.967002,-0.033556,-0.002411,0.007943,0.013628
356,0.252594,0.966952,-0.0342079999999999,-0.001389,0.0073069999999999,0.015912
357,0.25268,0.966907,-0.034825,0.000936,0.007778,0.015065
358,0.25276,0.966868,-0.03535,0.000139,0.0099849999999999,0.01324
359,0.252772,0.966848,-0.035806,0.000722,0.010615,0.01426
360,0.252759,0.966837,-0.03619,0.001895,0.0065209999999999,0.016491
361,0.25268,0.966846,-0.0364899999999999,-0.001108,0.009823,0.017158
362,0.252603,0.966855,-0.0367899999999999,0.000724,0.00809,0.017945
363,0.252533,0.966861,-0.037103,0.000793,0.008084,0.018259
364,0.252512,0.966857,-0.0373649999999999,0.000982,0.008134,0.0152699999999999
365,0.252475,0.966854,-0.037672,0.006375,0.014972,0.015287
366,0.252463,0.966844,-0.038013,0.0063869999999999,0.014983,0.015629
367,0.2524679999999999,0.966832,-0.038293,6.500000000000001e-05,0.008464,0.014336
368,0.2524889999999999,0.966813,-0.038635,0.001036,0.009002,0.013732
369,0.252511,0.966792,-0.039012,0.000159,0.008596,0.019008
370,0.2525409999999999,0.966766,-0.039468,-0.0029219999999999,0.009538,0.017266
371,0.252579,0.966735,-0.039963,-0.0014039999999999,0.0112459999999999,0.013458
372,0.25263,0.966697,-0.040556,0.0075629999999999,0.014321,0.019224
373,0.252678,0.966656,-0.041232,0.003914,0.007755,0.0142849999999999
374,0.25281,0.966592,-0.041921,0.0062689999999999,0.0076359999999999,0.012731
375,0.2529909999999999,0.966513,-0.042648,0.0044859999999999,0.006998,0.009613
376,0.253274,0.966406,-0.043388,0.005332,0.0066319999999999,0.009681
377,0.253586,0.966289,-0.044179,0.0113379999999999,0.014379,0.008305
378,0.2538849999999999,0.966165,-0.045157,0.0085659999999999,0.014853,0.014609
379,0.254141,0.966048,-0.046209,0.0040219999999999,0.013826,0.017202
380,0.254313,0.965954,-0.047218,0.00205,0.00449,0.017677
381,0.254385,0.965895,-0.048047,0.004878,0.003786,0.019559
382,0.254342,0.965876,-0.048634,0.012473,0.005285,0.020467
383,0.254223,0.965887,-0.049047,0.013996,0.001093,0.019582
384,0.254015,0.96593,-0.0492839999999999,0.012037,-0.002505,0.016996
385,0.25368,0.966022,-0.049201,0.004499,0.0035979999999999,0.00611
386,0.253184,0.966163,-0.048996,0.005559,0.00541,0.005127
387,0.252616,0.966329,-0.048645,0.004983,0.005412,0.003159
388,0.251898,0.966539,-0.0481959999999999,0.002558,0.009398,0.007623
389,0.251152,0.966765,-0.047554,0.005532,0.005372,0.005943
390,0.250513,0.966977,-0.046618,0.011817,0.007404,0.003252
391,0.24993,0.967178,-0.045554,0.007639,0.007523,0.007437
392,0.249489,0.967339,-0.044549,0.002128,0.00869,0.0104
393,0.249283,0.967428,-0.0437629999999999,-0.00203,0.0100349999999999,0.014222
394,0.249226,0.967465,-0.043273,0.003032,0.009937,0.011474
395,0.249263,0.967463,-0.043098,0.006917,0.0093739999999999,0.005318
396,0.249282,0.967459,-0.043081,0.005922,0.006601,0.007528
397,0.249182,0.967485,-0.043074,0.0046479999999999,0.0072159999999999,0.012495
398,0.249022,0.967526,-0.043075,-0.000304,0.011143,0.0164939999999999
399,0.248934,0.967546,-0.043139,-0.002657,0.010588,0.0167259999999999
400,0.248934,0.967539,-0.043294,-3.2e-05,0.009695,0.0136009999999999
401,0.24886,0.967547,-0.043537,0.003734,0.007261,0.010318
402,0.248727,0.967571,-0.043779,0.0074069999999999,0.008519,0.009904
403,0.248527,0.96761,-0.044043,0.010308,0.005275,0.011221
404,0.248359,0.967644,-0.044253,0.003899,0.009209,0.011706
405,0.248212,0.967673,-0.044449,0.000872,0.010614,0.017243
406,0.2481539999999999,0.967676,-0.044688,0.002807,0.011144,0.017787
407,0.248217,0.967649,-0.044941,0.006604,0.010638,0.017612
408,0.248175,0.967645,-0.045255,0.007135,0.009025,0.018903
409,0.248087,0.96765,-0.045631,0.0070709999999999,0.009264,0.023475
410,0.248026,0.967652,-0.045915,0.005743,0.004241,0.022661
411,0.247968,0.967656,-0.046147,0.005099,0.007396,0.0235639999999999
412,0.247858,0.967675,-0.046336,0.00466,0.008994,0.023875
413,0.2476809999999999,0.967714,-0.046463,0.006134,0.00984,0.022796
414,0.247417,0.967774,-0.0466339999999999,0.007848,0.010803,0.021106
415,0.247063,0.967856,-0.0468019999999999,0.010506,0.006174,0.021503
416,0.24663,0.967962,-0.046898,0.010481,0.005671,0.019554
417,0.2461469999999999,0.968084,-0.046912,0.011894,0.003199,0.022452
418,0.2455929999999999,0.968226,-0.046894,0.012128,0.00849,0.018848
419,0.244851,0.968413,-0.046904,0.011955,0.011064,0.0205979999999999
420,0.2440119999999999,0.968618,-0.047061,0.017646,0.008555,0.024402
421,0.243508,0.968735,-0.0472529999999999,0.01345,0.014053,0.0264399999999999
422,0.24341,0.968752,-0.047418,0.003645,0.0155319999999999,0.0303279999999999
423,0.243421,0.96873,-0.047797,0.008197,0.0062,0.034873
424,0.2434059999999999,0.968701,-0.048468,0.016162,0.011127,0.022512
425,0.243446,0.968637,-0.049535,0.016228,0.009818,0.018453
426,0.2436019999999999,0.968532,-0.050792,0.018849,0.007023,0.021144
427,0.243826,0.968422,-0.051811,0.021554,0.001992,0.022087
428,0.243992,0.968344,-0.052486,0.012051,0.004679,0.020397
429,0.243907,0.968348,-0.052801,0.007604,0.005224,0.021643
430,0.243443,0.968461,-0.052872,0.012661,0.006774,0.021195
431,0.242549,0.968691,-0.052764,0.0268899999999999,-0.00075,0.012222
432,0.241219,0.969034,-0.052568,0.042595,-0.005319,0.018006
433,0.239499,0.969476,-0.052277,0.052127,-0.0125519999999999,0.009034
434,0.2375679999999999,0.96998,-0.051734,0.057858,-0.011393,0.01139
435,0.235487,0.970523,-0.051071,0.072924,-0.001742,0.0075689999999999
436,0.2330239999999999,0.971147,-0.050496,0.070275,0.000288,0.01125
437,0.230207,0.971842,-0.050051,0.0647,-0.0031379999999999,0.018725
438,0.227246,0.972558,-0.049672,0.063205,-0.002526,0.02303
439,0.22428,0.973258,-0.049442,0.060785,0.0044329999999999,0.014194
440,0.221291,0.973954,-0.049206,0.050682,-0.002152,0.021649
441,0.217976,0.974715,-0.048927,0.054165,-0.006286,0.02433
442,0.214785,0.975444,-0.048518,0.0587139999999999,-0.000759,0.040889
443,0.211359,0.976221,-0.047934,0.055853,0.001943,0.041205
444,0.2079659999999999,0.977003,-0.046836,0.046185,0.006029,0.0379399999999999
445,0.204809,0.977751,-0.045122,0.025919,0.008699,0.042345
446,0.201659,0.978486,-0.043344,0.031449,0.010863,0.047921
447,0.198659,0.979171,-0.041691,0.04217,0.0088349999999999,0.0500069999999999
448,0.196355,0.979705,-0.0400279999999999,0.049204,0.0038759999999999,0.045078
449,0.194536,0.980132,-0.038421,0.038236,0.003328,0.041107
450,0.193134,0.980465,-0.036973,0.0260889999999999,-0.000133,0.03418
451,0.192141,0.980707,-0.035719,-0.0064719999999999,-0.0038689999999999,0.021833
452,0.191079,0.98095,-0.03471,-0.016335,0.0016699999999999,0.01469
453,0.189611,0.981265,-0.033836,-0.018331,0.0071379999999999,0.014793
454,0.187687,0.981665,-0.032947,-0.008686,0.005914,0.017292
455,0.185411,0.982133,-0.03188,0.00421,1.4e-05,0.0149729999999999
456,0.182828,0.982654,-0.030722,0.019351,0.003812,0.0145169999999999
457,0.180009,0.983209,-0.029577,0.0193169999999999,0.0016079999999999,0.0160879999999999
458,0.17719,0.983753,-0.028512,0.008647,0.001507,0.017373
459,0.174587,0.984237,-0.027837,-0.01083,0.008042,0.021124
460,0.172312,0.984645,-0.0275699999999999,-0.024942,0.007802,0.023725
461,0.170346,0.984979,-0.0278529999999999,-0.039701,0.005454,0.012625
462,0.168548,0.985269,-0.028511,-0.041549,0.006552,0.012642
463,0.166674,0.985563,-0.029373,-0.023013,0.0013449999999999,0.013153
464,0.16459,0.985894,-0.030007,-0.006036,0.007209,0.005745
465,0.1625869999999999,0.986214,-0.030391,-0.000767,0.01725,0.010356
466,0.160544,0.986536,-0.03081,-0.004737,0.016623,0.014346
467,0.158552,0.98684,-0.031385,-0.010206,-0.001137,0.022947
468,0.156829,0.987096,-0.031966,-0.01126,-0.001669,0.020827
469,0.155387,0.987306,-0.032548,-0.01084,0.00273,0.021058
470,0.154105,0.987479,-0.03337,-0.014243,0.010995,0.0131669999999999
471,0.153005,0.987609,-0.034564,-0.0127459999999999,0.015,0.0152919999999999
472,0.152025,0.987699,-0.036272,-0.020632,0.0299709999999999,0.020311
473,0.151273,0.987718,-0.03882,-0.02049,0.026473,0.02376
474,0.151051,0.98762,-0.04203,-0.020848,0.019368,0.0205909999999999
475,0.151625,0.987351,-0.046104,-0.016371,0.018097,0.010749
476,0.153116,0.98686,-0.051382,-0.017999,-0.008589,-0.001718
477,0.15572,0.986104,-0.057683,-0.019184,-0.006948,-0.006343
478,0.159051,0.985133,-0.064751,-0.0202259999999999,-0.005748,-0.014763
479,0.163063,0.98392,-0.072734,-0.020637,-0.0044729999999999,-0.005315
480,0.167602,0.982456,-0.081661,-0.020538,-0.003833,-0.00095
481,0.172509,0.980773,-0.091126,-0.007333,-0.01483,-0.004837
482,0.177821,0.978905,-0.100518,0.003987,-0.0165629999999999,-0.018393
483,0.183443,0.976889,-0.109609,-0.003481,0.00155,-0.02003
484,0.18888,0.974784,-0.118737,0.0104459999999999,0.04847,-0.045036
485,0.193921,0.972642,-0.127834,0.014118,0.069106,-0.052464
486,0.197983,0.970668,-0.136329,0.0150599999999999,0.071828,-0.051064
487,0.200698,0.969052,-0.1436599999999999,0.035874,0.044941,-0.057328
488,0.202315,0.967803,-0.14968,0.025086,0.027466,-0.061166
489,0.203025,0.966879,-0.154612,0.018594,0.0213259999999999,-0.059576
490,0.203046,0.966214,-0.158687,-0.005247,-0.01315,-0.0540059999999999
491,0.202432,0.965784,-0.1620579999999999,-0.0077599999999999,-0.025323,-0.040411
492,0.201292,0.965574,-0.164705,-0.008467,-0.023649,-0.034468
493,0.199851,0.965562,-0.166516,-0.011741,-0.019227,-0.0223419999999999
494,0.1981359999999999,0.965746,-0.167498,0.005004,-0.006349,-0.012526
495,0.196024,0.96612,-0.167824,0.006094,-0.002802,-0.005531
496,0.1937829999999999,0.966657,-0.16733,-0.001049,0.007647,0.006075
497,0.19167,0.967348,-0.165769,-0.015919,0.019728,-0.003467
498,0.189653,0.968098,-0.163698,-0.028704,0.023831,-0.018141
499,0.187572,0.96884,-0.161695,-0.0282399999999999,0.028078,-0.02431
500,0.185248,0.969529,-0.160236,-0.019385,0.033859,-0.024106
501,0.182731,0.970124,-0.159521,-0.013526,0.030837,-0.018885
502,0.180165,0.970594,-0.15958,-0.018162,0.025698,-0.011028
503,0.1776849999999999,0.970989,-0.15996,-0.034787,0.016499,-0.0235569999999999
504,0.1753819999999999,0.97136,-0.160251,-0.0304079999999999,0.014678,-0.02786
505,0.172988,0.971741,-0.160538,-0.016403,0.002746,-0.018524
506,0.1706109999999999,0.972102,-0.160901,-0.014055,-0.016825,-0.006778
507,0.168509,0.9724,-0.1613109999999999,-0.0140449999999999,-0.0177039999999999,-0.008183
508,0.166732,0.972635,-0.161743,-0.011718,-0.0046479999999999,0.001419
509,0.165299,0.97284,-0.1619789999999999,-0.008851,-0.010804,0.001258
510,0.1641099999999999,0.973054,-0.161898,-0.009325,-0.009492,0.00487
511,0.16319,0.973262,-0.161581,-0.008145,-0.0145979999999999,0.008306
512,0.162418,0.97347,-0.161102,-0.007633,-0.010823,0.008118
513,0.16167,0.973684,-0.160556,-0.008776,-0.004553,0.008594
514,0.160829,0.97393,-0.15991,-0.008287,0.004357,0.011884
515,0.159878,0.974223,-0.159075,-0.007199,0.017934,0.012103
516,0.15883,0.974545,-0.158149,-0.010423,0.004458,0.014625
517,0.1578,0.974889,-0.1570619999999999,-0.007073,0.007121,0.016269
518,0.156766,0.975279,-0.155666,-0.0121739999999999,0.022722,0.012905
519,0.155848,0.975662,-0.1541789999999999,-0.010904,0.026795,0.016026
520,0.155113,0.975976,-0.152928,-0.010933,0.025718,0.017369
521,0.154542,0.976195,-0.152101,-0.017457,0.01288,0.02643
522,0.154338,0.976296,-0.15166,-0.023326,0.01075,0.019274
523,0.154566,0.976327,-0.151228,-0.03657,0.019218,0.020354
524,0.155303,0.976283,-0.150756,-0.021941,0.020467,0.021041
525,0.156123,0.976202,-0.1504329999999999,-0.013408,0.018686,0.026532
526,0.156608,0.976168,-0.150153,-0.007651,0.014921,0.01786
527,0.156969,0.976168,-0.149771,-0.009432,0.01254,0.015112
528,0.157305,0.976186,-0.149302,-0.007556,0.013484,-0.0002189999999999
529,0.157903,0.976131,-0.149031,0.0069689999999999,0.009465,0.000426
530,0.158763,0.975986,-0.149068,0.010854,0.0070459999999999,0.000494
531,0.15952,0.975841,-0.149207,0.0144,0.007984,0.0025399999999999
532,0.159918,0.975761,-0.149309,0.016947,0.00779,0.005464
533,0.160157,0.975719,-0.149325,0.0074909999999999,0.007756,-0.001401
534,0.160373,0.975703,-0.149199,0.004803,0.009222,0.00128
535,0.160767,0.975681,-0.148917,0.008804,0.007687,0.004141
536,0.161154,0.975675,-0.148536,0.008173,0.0090049999999999,0.003303
537,0.161476,0.975679,-0.148162,0.0086439999999999,0.006453,0.003539
538,0.16176,0.975693,-0.147757,0.004638,0.010497,0.003897
539,0.16209,0.975692,-0.147402,0.008275,0.010498,0.006228
540,0.162639,0.975659,-0.147017,0.0068709999999999,0.011127,0.005674
541,0.163487,0.975559,-0.146742,0.006603,0.013318,0.0036149999999999
542,0.164525,0.97538,-0.146767,0.005885,0.014274,0.001366
543,0.165647,0.975139,-0.147108,0.005084,0.0165909999999999,0.001662
544,0.1668619999999999,0.97484,-0.147713,0.001977,0.014281,0.005868
545,0.168181,0.974493,-0.148505,0.009447,0.01002,0.012763
546,0.169542,0.974133,-0.149316,0.0137159999999999,0.006245,0.010156
547,0.170852,0.973778,-0.150131,0.016053,0.012214,0.002228
548,0.171965,0.973439,-0.151057,0.021852,0.007823,0.002558
549,0.172957,0.973125,-0.151951,0.022524,0.000615,-0.000179
550,0.17406,0.972805,-0.1527349999999999,0.014676,0.001468,0.001185
551,0.175278,0.972465,-0.153506,0.0093379999999999,0.005685,0.008013
552,0.176446,0.972126,-0.154308,0.0055299999999999,-0.000233,0.013347
553,0.177653,0.971796,-0.154998,-0.0122329999999999,0.01087,0.018127
554,0.17882,0.971493,-0.155555,-0.01137,0.01453,0.018653
555,0.180124,0.971166,-0.1560869999999999,-0.015283,0.016184,0.018956
556,0.181553,0.970833,-0.156503,-0.013935,0.007408,0.005624
557,0.182996,0.970483,-0.156993,-0.010358,0.012641,0.006404
558,0.184264,0.970134,-0.157666,-0.008239,0.014775,0.009473
559,0.185329,0.969806,-0.158436,-0.003994,0.006009,0.00504
560,0.186241,0.969513,-0.159156,0.003578,0.018005,0.00585
561,0.1870609999999999,0.969261,-0.159727,0.008664,0.0182419999999999,0.0083299999999999
562,0.187721,0.96907,-0.1601119999999999,0.007728,0.010849,0.001757
563,0.187986,0.968968,-0.160424,0.007387,0.00729,0.0024649999999999
564,0.1877619999999999,0.968976,-0.160637,0.000684,0.006137,0.004189
565,0.18722,0.969087,-0.160598,-0.0042829999999999,0.007552,-0.001481
566,0.186699,0.969221,-0.160396,-0.013894,0.023851,-0.014821
567,0.186332,0.969319,-0.1602299999999999,-0.013572,0.02888,-0.022418
568,0.186017,0.969339,-0.160474,-0.003904,0.017172,-0.0221889999999999
569,0.1857089999999999,0.969235,-0.161456,0.0104269999999999,0.01047,-0.026532
570,0.18563,0.96901,-0.162894,0.018914,0.022765,-0.029229
571,0.18591,0.968698,-0.164424,0.022632,0.037894,-0.030782
572,0.186596,0.968277,-0.166115,0.02518,0.031921,-0.032799
573,0.18749,0.96779,-0.167937,0.026239,0.017394,-0.031938
574,0.188222,0.967383,-0.169457,0.021907,0.0021449999999999,-0.0270149999999999
575,0.1886789999999999,0.967144,-0.170315,0.013393,-0.034038,-0.0224949999999999
576,0.188997,0.967064,-0.170413,0.005492,-0.0277639999999999,-0.021817
577,0.189059,0.967155,-0.169828,-0.004351,-0.032554,-0.0322449999999999
578,0.188951,0.96734,-0.16889,-0.006181,-0.028925,-0.030055
579,0.188372,0.967662,-0.16769,-0.0004759999999999,-0.023875,-0.019062
580,0.187663,0.968164,-0.165572,-0.006541,-0.031473,-0.004639
581,0.187038,0.968848,-0.162246,-0.032177,-0.004676,0.012389
582,0.186438,0.969696,-0.157809,-0.039663,0.016495,0.008456
583,0.185513,0.970653,-0.152941,-0.056134,0.034871,0.001589
584,0.18406,0.971647,-0.148312,-0.040246,0.050783,0.0020559999999999
585,0.182376,0.97262,-0.143952,-0.028796,0.057516,0.001755
586,0.180784,0.973502,-0.139941,-0.0216349999999999,0.041864,-0.0035369999999999
587,0.179611,0.974224,-0.136383,-0.016021,0.030933,-0.0137639999999999
588,0.178611,0.974864,-0.1330869999999999,-0.018211,0.023427,-0.023102
589,0.1776309999999999,0.975468,-0.129934,-0.01369,0.010646,-0.022379
590,0.176508,0.976069,-0.12692,-0.012506,0.006414,-0.029345
591,0.175236,0.976645,-0.124216,-0.018895,-0.000266,-0.019858
592,0.173752,0.977234,-0.121645,-0.0180509999999999,-0.001297,-0.0157
593,0.172339,0.97781,-0.118997,-0.0157229999999999,0.002109,-0.007987
594,0.171456,0.978308,-0.116149,-0.012933,0.007914,-0.0153509999999999
595,0.171097,0.978724,-0.1131359999999999,-0.002823,0.027288,-0.0260089999999999
596,0.171052,0.979074,-0.110135,0.002776,0.033591,-0.027331
597,0.170846,0.979447,-0.107094,0.010001,0.033005,-0.0295029999999999
598,0.170175,0.979914,-0.10384,0.018729,0.018866,-0.01794
599,0.168918,0.980492,-0.100372,0.021207,0.01786,-0.022369
600,0.167329,0.98114,-0.0966419999999999,0.022109,0.017869,-0.017616
601,0.165576,0.981833,-0.092534,0.021177,0.003977,-0.018474
602,0.163602,0.982574,-0.0880669999999999,0.02106,-0.000992,-0.02111
603,0.161392,0.983337,-0.083508,0.0152129999999999,-0.017105,-0.00455
604,0.159067,0.98411,-0.078724,0.016242,-0.031534,0.002919
605,0.156756,0.984869,-0.073709,0.015989,-0.0210169999999999,0.011468
606,0.154489,0.985593,-0.068638,0.0094209999999999,-0.02046,0.018604
607,0.152351,0.986266,-0.063563,0.016136,-0.0181729999999999,0.026118
608,0.150504,0.986869,-0.0584019999999999,0.013406,-0.0035159999999999,0.017051
609,0.148968,0.987385,-0.053387,0.019306,-0.0018809999999999,0.022046
610,0.148197,0.987754,-0.048498,0.025646,-0.00437,0.019933
611,0.148226,0.987983,-0.043474,0.032529,-0.002921,0.021791
612,0.148571,0.988145,-0.038293,0.034794,-0.012361,0.006097
613,0.147871,0.988398,-0.03427,0.042101,0.046942,-0.006944
614,0.1477619999999999,0.988538,-0.030507,0.043675,0.010043,0.012212
615,0.148305,0.988559,-0.0269699999999999,0.040034,0.000805,0.021858
616,0.149309,0.988502,-0.023297,0.02519,-0.004157,0.023938
617,0.150245,0.988439,-0.019638,0.024559,0.010477,0.0137939999999999
618,0.1509599999999999,0.988388,-0.016511,0.022227,0.012085,0.01259
619,0.151671,0.988316,-0.014081,0.0225229999999999,0.011348,0.016934
620,0.152515,0.988215,-0.011899,0.025097,0.0076799999999999,0.021299
621,0.153349,0.988109,-0.009723,0.020112,0.005436,0.0181759999999999
622,0.154139,0.988005,-0.007692,0.017828,0.008135,0.016954
623,0.154916,0.987894,-0.006024,0.018866,0.01267,0.021665
624,0.155825,0.987759,-0.004607,0.019803,0.012104,0.018172
625,0.156808,0.987608,-0.003257,0.019309,0.011934,0.017539
626,0.157657,0.987476,-0.002012,0.025037,0.0086629999999999,0.0190259999999999
627,0.158358,0.987365,-0.000947,0.026975,0.0117349999999999,0.018632
628,0.159122,0.987242,2e-06,0.024838,0.009385,0.018126
629,0.159977,0.987104,0.000893,0.026104,-0.005475,0.015586
630,0.160944,0.986945,0.001697,0.025015,0.006768,0.014157
631,0.161903,0.986787,0.002436,0.027306,0.00685,0.012334
632,0.162747,0.986646,0.003187,0.024707,0.002673,0.012453
633,0.163567,0.986507,0.004091,0.021095,0.0089769999999999,0.014997
634,0.164258,0.986387,0.005116,0.007708,0.000963,0.017146
635,0.164879,0.986277,0.00617,0.002235,0.00205,0.016749
636,0.165446,0.986175,0.007187,-4.1e-05,0.002732,0.017197
637,0.165856,0.9861,0.007956,-0.006142,0.018722,0.021005
638,0.166034,0.986066,0.008452,-0.004504,0.022723,0.021577
639,0.166176,0.98604,0.008728,-0.001442,0.018431,0.026092
640,0.16633,0.986011,0.0089769999999999,0.007468,0.013531,0.0303139999999999
641,0.1663859999999999,0.986,0.009168,0.013774,0.004799,0.020266
642,0.166358,0.986004,0.009294,0.016991,0.001652,0.01805
643,0.166445,0.985988,0.009391,0.021254,0.0015609999999999,0.013574
644,0.166891,0.985913,0.009396,0.019846,0.006809,0.010258
645,0.167548,0.985803,0.009214,0.0224389999999999,0.010825,0.0087
646,0.168274,0.985682,0.008892,0.024567,0.006917,0.0089
647,0.168941,0.985573,0.0083579999999999,0.025501,0.005958,0.000507
648,0.1695019999999999,0.985482,0.007768,0.0257029999999999,0.010261,0.001235
649,0.1701119999999999,0.98538,0.007316,0.025979,0.003877,0.008416
650,0.170743,0.985273,0.007095,0.0172,0.000414,0.00763
651,0.171189,0.985196,0.006986,0.012191,0.000674,0.006579
652,0.171514,0.98514,0.006947,-0.00208,0.000349,0.0012619999999999
653,0.171524,0.985138,0.0070019999999999,-0.012283,0.016708,0.00075
654,0.171222,0.98519,0.0070519999999999,-0.019992,0.02012,0.003324
655,0.170602,0.985299,0.007015,-0.016747,0.019783,0.005696
656,0.169739,0.985447,0.0069689999999999,-0.0038299999999999,0.010173,-0.0014609999999999
657,0.168877,0.985596,0.006869,0.023887,0.008178,-0.000124
658,0.168295,0.985697,0.0067239999999999,0.043726,0.001883,-0.002802
659,0.168089,0.985732,0.006653,0.049119,-0.007644,-0.005127
660,0.168164,0.98572,0.006628,0.042804,0.001967,-0.006185
661,0.168413,0.985677,0.006566,0.02455,4.1e-05,-0.008779
662,0.168819,0.98561,0.006268,0.014378,0.006379,-0.006787
663,0.169324,0.985527,0.0056799999999999,0.004,0.015084,-0.0020329999999999
664,0.169839,0.985442,0.004918,0.000571,0.015565,0.001704
665,0.170236,0.985378,0.004186,-0.003076,0.002888,0.003703
666,0.170455,0.985342,0.003656,-0.000869,0.001307,0.004752
667,0.170595,0.985319,0.003378,0.001158,0.005755,0.009256
668,0.170644,0.98531,0.003359,4.1e-05,0.007548,0.003065
669,0.170623,0.985314,0.003428,0.002152,0.0076209999999999,0.004431
670,0.1705549999999999,0.985326,0.003388,-0.002037,0.003611,0.005584
671,0.170625,0.985315,0.0031579999999999,0.002517,0.005912,0.001878
672,0.170737,0.985296,0.002848,0.002344,0.008112,0.001516
673,0.170872,0.985274,0.002513,0.007823,0.014146,0.001302
674,0.1709359999999999,0.985263,0.0023469999999999,0.006662,0.005093,-0.001523
675,0.1708569999999999,0.985277,0.002391,0.0037799999999999,0.0054,-0.004238
676,0.170586,0.985323,0.002623,0.007423,0.003172,-0.0074909999999999
677,0.170198,0.98539,0.0028989999999999,0.007537,0.003486,-0.002884
678,0.169814,0.985455,0.003167,0.0130169999999999,0.00452,-0.008416
679,0.1695279999999999,0.985504,0.003348,0.017636,0.006241,-0.011649
680,0.169378,0.98553,0.003375,0.025568,0.00327,-0.014133
681,0.169354,0.985535,0.003247,0.030964,0.003311,-0.021161
682,0.169414,0.985525,0.002949,0.033299,0.010263,-0.018483
683,0.169633,0.985489,0.00248,0.031356,0.005371,-0.014077
684,0.17008,0.985413,0.0019809999999999,0.0290019999999999,0.005447,-0.016065
685,0.17065,0.985316,0.001393,0.022206,0.004445,-0.009968
686,0.171086,0.985241,0.000737,0.01826,0.004841,-0.005605
687,0.171426,0.985182,0.000143,0.01702,0.001634,-0.006155
688,0.171794,0.985118,-0.000362,0.015676,0.0042159999999999,-0.001743
689,0.1721079999999999,0.985063,-0.000785,0.0156199999999999,0.0107099999999999,0.000511
690,0.172302,0.985029,-0.001156,0.0182039999999999,0.011492,0.002133
691,0.172465,0.985,-0.001452,0.018728,0.001648,-0.0019809999999999
692,0.172531,0.984989,-0.001478,0.017121,0.0010949999999999,-0.002963
693,0.172472,0.985,-0.001308,0.011717,0.002595,-0.006093
694,0.172404,0.985012,-0.00106,0.001501,0.009389,-0.002938
695,0.172348,0.985021,-0.000795,-0.005249,0.0105379999999999,-0.006498
696,0.172279,0.985034,-0.000523,-0.011604,0.011029,-0.011959
697,0.172391,0.985015,-0.000441,-0.0121129999999999,0.0113379999999999,-0.00879
698,0.172744,0.984953,-0.000612,-0.012725,0.013658,-0.006697
699,0.173334,0.984849,-0.000988,-0.013315,0.013762,-0.006321
700,0.173913,0.984747,-0.001542,-0.008019,0.006663,-0.008026
701,0.174325,0.984672,-0.002241,0.001288,0.002938,-0.003664
702,0.174581,0.984624,-0.002907,0.001032,0.002986,-0.002998
703,0.174696,0.984602,-0.003332,0.002764,0.004442,0.002126
704,0.174819,0.98458,-0.003432,0.003708,0.00335,0.007201
705,0.174995,0.984549,-0.0033369999999999,0.000604,0.001214,0.010921
706,0.175174,0.984518,-0.003244,-0.0052369999999999,0.008875,0.013543
707,0.175311,0.984493,-0.00332,-0.008624,0.0178259999999999,0.007944
708,0.175391,0.984478,-0.003509,-0.005408,0.015293,0.0082849999999999
709,0.175549,0.984449,-0.0037649999999999,0.005527,0.017779,0.000927
710,0.175758,0.98441,-0.004019,0.019433,0.0059159999999999,-0.011438
711,0.175867,0.98439,-0.00415,0.024221,-0.0009,-0.0128479999999999
712,0.175776,0.984407,-0.003984,0.03475,-0.005037,-0.02159
713,0.175616,0.984436,-0.0035689999999999,0.046598,-0.002152,-0.035753
714,0.175615,0.984438,-0.003019,0.044416,-0.001574,-0.032107
715,0.175774,0.984411,-0.002513,0.042198,-0.003088,-0.036321
716,0.176031,0.984367,-0.002126,0.032801,0.001748,-0.031779
717,0.176298,0.984319,-0.001887,0.026079,0.005626,-0.0298519999999999
718,0.176859,0.984218,-0.001966,0.01438,0.011097,-0.023379
719,0.177713,0.984064,-0.002285,0.003012,0.012091,-0.016971
720,0.178601,0.983902,-0.002699,0.003162,0.005966,-0.0088519999999999
721,0.179484,0.98374,-0.003098,0.006566,-0.0028899999999999,-0.006104
722,0.180384,0.983574,-0.003266,0.0058649999999999,-0.001717,-0.003692
723,0.181343,0.983398,-0.003188,0.008202,0.00412,-0.000214
724,0.182359,0.983212,-0.002777,-0.005815,0.003986,0.000122
725,0.183424,0.983015,-0.002182,-0.0144789999999999,0.007418,-0.000443
726,0.184414,0.982831,-0.001638,-0.026226,0.007159,-0.000956
727,0.1853759999999999,0.98265,-0.00113,-0.025602,0.00589,-0.001937
728,0.186321,0.982472,-0.000735,-0.023678,0.008709,-0.000882
729,0.187237,0.982298,-0.000504,-0.013257,0.013018,-0.003189
730,0.188145,0.982125,-0.000318,-0.006016,0.016182,-0.0031149999999999
731,0.188912,0.981977,-0.000134,-0.0035789999999999,0.005847,-0.010181
732,0.189617,0.981841,8e-05,0.0067329999999999,0.002564,-0.010975
733,0.190368,0.981696,0.000388,0.015976,0.005883,-0.0115269999999999
734,0.191227,0.981529,0.000769,0.019711,0.005974,-0.011893
735,0.192122,0.981354,0.001169,0.021516,0.0061189999999999,-0.014047
736,0.192998,0.981181,0.0016239999999999,0.021235,0.003896,-0.017112
737,0.193868,0.981008,0.002103,0.024149,0.001703,-0.017255
738,0.194826,0.980817,0.00252,0.0274029999999999,0.006381,-0.014331
739,0.195941,0.980594,0.0028469999999999,0.032605,0.004468,-0.017434
740,0.197169,0.980346,0.003096,0.032201,0.007523,-0.018003
741,0.198485,0.980081,0.003114,0.030824,0.010978,-0.019868
742,0.199969,0.97978,0.002841,0.034818,0.007372,-0.011783
743,0.201724,0.979421,0.002418,0.037031,0.0069069999999999,-0.011634
744,0.203696,0.979015,0.0017289999999999,0.033502,0.011464,-0.004155
745,0.205756,0.978585,0.0008039999999999,0.026025,0.004646,0.002293
746,0.207823,0.978148,-0.000258,0.019655,0.011445,0.000655
747,0.2097119999999999,0.977744,-0.001548,0.014791,0.012796,0.005867
748,0.21143,0.97737,-0.00331,0.023083,0.006151,0.015211
749,0.213054,0.977008,-0.005379,0.0220229999999999,0.00604,0.0105519999999999
750,0.214675,0.976639,-0.007566,0.020051,0.01236,0.012312
751,0.216221,0.976277,-0.009888,0.031887,0.005031,0.019638
752,0.2176719999999999,0.975928,-0.012201,0.039469,0.001367,-0.000265
753,0.219139,0.975571,-0.0142639999999999,0.0357899999999999,0.00566,-0.0016359999999999
754,0.220753,0.975182,-0.015907,0.025234,0.005912,-0.00158
755,0.222517,0.974761,-0.017119,0.016145,0.007417,0.001372
756,0.224375,0.974319,-0.018014,0.018347,0.004319,0.004693
757,0.2263219999999999,0.973856,-0.018668,0.033825,0.004065,0.002479
758,0.228312,0.973385,-0.0189569999999999,0.046498,-0.014279,0.002035
759,0.2300719999999999,0.972972,-0.0188699999999999,0.0596159999999999,-0.0129349999999999,0.000941
760,0.231506,0.972642,-0.0183669999999999,0.063538,-0.0085,-0.003285
761,0.232364,0.972451,-0.01762,0.060239,-0.004235,0.001705
762,0.232503,0.972431,-0.016884,0.061335,-0.002247,0.002037
763,0.232242,0.972504,-0.016258,0.062314,0.004089,0.000648
764,0.231789,0.972619,-0.0158759999999999,0.045554,0.005668,-0.001657
765,0.231111,0.972783,-0.015718,0.039839,0.00146,-0.004195
766,0.230356,0.972961,-0.015754,0.039892,-0.005493,0.0001899999999999
767,0.229604,0.973136,-0.015915,0.047694,-0.008033,0.003143
768,0.228541,0.973383,-0.016058,0.049642,0.001242,0.007315
769,0.227129,0.973711,-0.016191,0.044554,0.008467,0.013612
770,0.225448,0.974102,-0.016091,0.021531,0.008365,0.021126
771,0.2236159999999999,0.974534,-0.015508,0.017106,0.0072019999999999,0.02387
772,0.221738,0.974981,-0.014302,0.015948,0.004679,0.019887
773,0.219696,0.975468,-0.012449,0.019027,-0.001973,0.011289
774,0.217389,0.976013,-0.010031,0.028385,-0.003677,0.007376
775,0.215027,0.976562,-0.0070989999999999,0.048218,-0.004241,0.001621
776,0.212721,0.977085,-0.003864,0.053728,0.001766,0.000782
777,0.210668,0.977537,-0.0006889999999999,0.029474,0.012712,0.010515
778,0.208929,0.977908,0.002143,0.003381,0.018231,0.013437
779,0.20739,0.978228,0.004451,-0.02575,0.0215889999999999,0.0092819999999999
780,0.205775,0.978559,0.006178,-0.0341589999999999,0.017656,0.003999
781,0.2038,0.978966,0.007173,-0.035511,0.009987,-0.005784
782,0.201149,0.979513,0.007317,-0.016625,0.002421,-0.011132
783,0.198079,0.980141,0.0069099999999999,-0.002523,-0.003472,-0.012601
784,0.194765,0.980809,0.006252,0.032148,-0.003164,-0.013653
785,0.191341,0.981487,0.005599,0.034504,-0.006405,-0.00981
786,0.187727,0.982187,0.0051649999999999,0.039141,-0.008555,-0.00576
787,0.184,0.982893,0.004956,0.025991,0.005037,0.008487
788,0.180401,0.983561,0.004888,0.018802,0.007437,0.020304
789,0.1769869999999999,0.984181,0.004809,0.0154259999999999,0.011821,0.021192
790,0.174104,0.984696,0.004562,0.003814,0.02925,0.031983
791,0.17182,0.985099,0.004204,0.003793,0.036996,0.030388
792,0.17008,0.985402,0.003915,0.0042049999999999,0.030086,0.02584
793,0.168688,0.985643,0.0035619999999999,0.000425,0.008391,0.004785
794,0.167322,0.985878,0.002884,0.001975,-0.003121,-0.005448
795,0.165823,0.986134,0.001808,0.004602,-0.009556,-0.0123819999999999
796,0.164181,0.98641,0.000389,0.013568,-0.011389,-0.020912
797,0.162614,0.986669,-0.001187,0.013625,-0.002813,-0.023242
798,0.161149,0.986906,-0.002821,0.017058,0.008653,-0.0202509999999999
799,0.159649,0.987144,-0.00451,0.018955,0.010522,-0.01435
800,0.1580069999999999,0.987399,-0.006135,0.018644,0.009854,-0.008254
801,0.15622,0.987673,-0.00765,0.018401,0.000837,0.004736
802,0.154465,0.987938,-0.0089629999999999,0.023468,-0.0019,0.010398
803,0.152943,0.988165,-0.010024,0.0246389999999999,0.011072,-0.001359
804,0.151605,0.988362,-0.010903,0.019781,0.0152389999999999,-0.006554
805,0.150515,0.988517,-0.011935,0.00282,0.023568,-0.010084
806,0.149565,0.988638,-0.013673,0.002763,0.024072,0.005128
807,0.148874,0.988705,-0.016205,0.001685,0.0124549999999999,0.006958
808,0.148521,0.988705,-0.019126,-0.001289,-0.00758,0.005927
809,0.148424,0.988656,-0.022192,0.010558,-0.0001,-0.009776
810,0.148396,0.988581,-0.025475,0.015697,0.005758,-0.014183
811,0.1482619999999999,0.988505,-0.028944,0.0250939999999999,0.010579,-0.015719
812,0.148055,0.988426,-0.032491,0.030137,0.009438,-0.0133009999999999
813,0.147801,0.988337,-0.036144,0.033016,0.0055899999999999,-0.0054659999999999
814,0.1475769999999999,0.988234,-0.039711,0.0273649999999999,-0.005034,0.001336
815,0.1476839999999999,0.988086,-0.042874,0.0226199999999999,-0.009891,-0.004123
816,0.147965,0.987912,-0.045799,0.0178979999999999,-0.009473,-0.0061119999999999
817,0.148425,0.987707,-0.048642,0.011411,0.000772,-0.007312
818,0.1489369999999999,0.987484,-0.051525,0.017125,0.012318,-0.021854
819,0.149322,0.98726,-0.054615,0.013824,0.0136099999999999,-0.022884
820,0.149678,0.98702,-0.0578809999999999,0.01971,-0.014211,-0.024211
821,0.150164,0.986755,-0.061057,0.025373,-0.02095,-0.021127
822,0.150867,0.986463,-0.063958,0.024975,-0.031462,-0.017783
823,0.151879,0.986116,-0.066856,0.021217,-0.0155199999999999,-0.030022
824,0.153253,0.985664,-0.070295,0.021445,-0.020576,-0.0294819999999999
825,0.154816,0.98508,-0.074913,0.024368,0.002851,-0.035088
826,0.156755,0.984326,-0.080565,0.029799,-0.027814,-0.01587
827,0.158684,0.983606,-0.0854429999999999,0.024086,-0.028268,-0.012213
828,0.160227,0.983034,-0.089069,0.026282,-0.026506,-0.013775
829,0.161413,0.982564,-0.092064,0.010584,-0.007375,-0.032997
830,0.162093,0.982163,-0.095104,0.01111,0.024307,-0.018299
831,0.162692,0.981788,-0.0979059999999999,0.015729,0.040612,-0.0106909999999999
832,0.163647,0.981417,-0.100011,0.0104409999999999,0.038007,-0.007594
833,0.1647539999999999,0.981088,-0.101417,-0.006124,0.035422,-0.010217
834,0.16554,0.980809,-0.102822,-0.013013,0.03207,-0.012489
835,0.165989,0.980542,-0.104629,-0.011249,0.012638,-0.005127
836,0.166352,0.980266,-0.106616,-0.008286,0.001042,-0.001493
837,0.166789,0.979987,-0.1084789999999999,-0.000972,0.00448,-0.005397
838,0.167407,0.979691,-0.11018,0.004972,-0.000794,-0.0118599999999999
839,0.168117,0.979388,-0.1117809999999999,0.0088849999999999,-0.003253,-0.017369
840,0.168785,0.979095,-0.113329,0.00573,0.00148,-0.0169199999999999
841,0.169579,0.978772,-0.114927,-0.001656,-0.004803,-0.016207
842,0.170715,0.978365,-0.11669,-0.004211,0.0137919999999999,-0.015527
843,0.172272,0.977845,-0.118738,0.0008089999999999,0.010268,-0.007468
844,0.174182,0.977278,-0.120604,-0.001621,0.008653,-0.016802
845,0.176377,0.976677,-0.122274,-0.003433,0.011254,-0.02186
846,0.17858,0.976049,-0.124071,0.000787,0.019144,-0.022017
847,0.18061,0.975444,-0.125876,0.010262,0.013203,-0.022684
848,0.182444,0.974834,-0.12794,0.0125329999999999,0.015156,-0.023381
849,0.183921,0.97428,-0.13003,0.003731,0.008081,-0.023474
850,0.184976,0.973816,-0.131993,0.005454,0.007156,-0.028301
851,0.185646,0.973452,-0.133722,0.019509,-0.003573,-0.042212
852,0.186169,0.973157,-0.1351349999999999,0.020527,-0.007779,-0.044232
853,0.186606,0.97291,-0.1363049999999999,0.022622,-0.005335,-0.052904
854,0.186906,0.972724,-0.137226,0.027099,0.0038689999999999,-0.058667
855,0.187019,0.972615,-0.137838,0.027947,0.007686,-0.058085
856,0.186923,0.972576,-0.138243,0.02084,0.016392,-0.045854
857,0.186571,0.972623,-0.138389,0.009474,0.008533,-0.022545
858,0.186107,0.972757,-0.138074,0.008076,0.007499,-0.019213
859,0.185803,0.972888,-0.137553,0.0052829999999999,0.006115,-0.019811
860,0.185721,0.97297,-0.137087,-0.006934,0.003028,-0.028975
861,0.185772,0.972995,-0.1368359999999999,-0.015026,0.002469,-0.03536
862,0.185856,0.972942,-0.137104,-0.02718,0.0019579999999999,-0.0293389999999999
863,0.185934,0.972862,-0.137566,-0.026358,-0.0067209999999999,-0.023628
864,0.186093,0.972825,-0.1376119999999999,-0.0267449999999999,-0.007127,-0.0226199999999999
865,0.186382,0.972877,-0.136849,-0.025615,-0.003257,-0.024238
866,0.186827,0.973005,-0.135322,-0.0230849999999999,0.000857,-0.021554
867,0.187386,0.973242,-0.13282,-0.008355,0.002054,-0.033562
868,0.1877,0.973575,-0.129898,-0.0049,0.037686,-0.044128
869,0.187517,0.973912,-0.1276119999999999,0.002135,0.053584,-0.036619
870,0.186572,0.974281,-0.126173,0.005475,0.062737,-0.0256519999999999
871,0.18485,0.974766,-0.124958,-0.002904,0.050091,-0.029858
872,0.182697,0.975308,-0.123883,-0.003544,0.036502,-0.026538
873,0.18068,0.97581,-0.1228829999999999,-0.005876,0.0241289999999999,-0.030605
874,0.17901,0.976222,-0.122054,-0.010294,-0.010539,-0.016267
875,0.177468,0.976627,-0.121056,0.000129,-0.000675,-0.010749
876,0.175893,0.977077,-0.119715,0.00619,-0.006862,-0.00347
877,0.17423,0.977562,-0.11818,0.000941,-0.000816,0.00409
878,0.1724349999999999,0.978105,-0.116302,-0.0032,-0.000932,0.02417
879,0.1706369999999999,0.978688,-0.114024,-0.003706,-0.000798,0.023326
880,0.169065,0.979252,-0.1115039999999999,-0.014158,0.002087,0.031044
881,0.1675029999999999,0.979811,-0.108917,-0.017799,0.007631,0.029388
882,0.165885,0.980387,-0.1061759999999999,-0.015632,0.007681,0.0243889999999999
883,0.164414,0.98097,-0.103029,-0.005036,-0.005338,0.012148
884,0.163192,0.98153,-0.099584,0.007188,-0.0037619999999999,0.0035909999999999
885,0.1620859999999999,0.982061,-0.096095,0.013131,-0.003179,-0.001592
886,0.160917,0.982588,-0.092606,0.021991,0.0047009999999999,-0.00325
887,0.159667,0.983112,-0.089144,0.021332,0.001797,-0.00894
888,0.158281,0.983644,-0.085682,0.0236949999999999,0.003508,-0.0143699999999999
889,0.15679,0.98414,-0.0826799999999999,0.029169,0.008765,-0.006065
890,0.155376,0.984561,-0.080295,0.031011,0.004285,0.004993
891,0.15414,0.984918,-0.078273,0.024724,0.005256,0.008068
892,0.153113,0.98522,-0.076457,0.026086,-0.000524,0.0134539999999999
893,0.152421,0.985465,-0.074649,0.0316759999999999,-0.006629,0.01813
894,0.152114,0.985661,-0.07266,0.032486,-0.00626,0.007352
895,0.1520359999999999,0.985828,-0.070521,0.03322,-0.002002,0.002054
896,0.152027,0.985987,-0.068281,0.032589,0.000235,-0.005328
897,0.1519609999999999,0.986153,-0.06597,0.038301,-0.001382,-0.014718
898,0.151873,0.986297,-0.0640029999999999,0.038084,0.003678,-0.008735
899,0.152052,0.986375,-0.062339,0.018083,0.0008529999999999,-0.009819
900,0.152411,0.986401,-0.061042,0.015787,0.002384,-0.007714
901,0.153216,0.986321,-0.060312,0.020246,0.01287,0.000696
902,0.154635,0.986113,-0.0601,0.021284,0.006426,-0.004734
903,0.156333,0.985836,-0.06025,0.027017,0.009709,-0.009178
904,0.158243,0.985507,-0.060626,0.0393279999999999,0.013623,-0.020048
905,0.160128,0.98516,-0.061307,0.059995,-0.005256,-0.026675
906,0.1620869999999999,0.984766,-0.062473,0.064079,-0.001292,-0.023099
907,0.1642809999999999,0.984304,-0.064006,0.059902,-0.000295,-0.023075
908,0.166552,0.983798,-0.065881,0.052702,-0.00629,-0.02767
909,0.168759,0.983286,-0.067872,0.047458,-0.0106909999999999,-0.023407
910,0.170856,0.98278,-0.069936,0.0323149999999999,-0.000831,-0.015987
911,0.172782,0.982315,-0.071714,0.013101,-0.0031739999999999,0.003522
912,0.174642,0.9819,-0.072888,0.003917,-0.000271,0.010358
913,0.176271,0.981562,-0.073509,-0.019396,0.0160419999999999,0.0182419999999999
914,0.177527,0.981313,-0.073812,-0.024572,0.012324,0.0182699999999999
915,0.178559,0.98113,-0.073754,-0.014146,0.00883,0.020684
916,0.179163,0.981065,-0.073153,0.04148,-0.003739,0.000231
917,0.1794079999999999,0.981097,-0.072114,0.046895,-0.005023,-0.007705
918,0.179312,0.981206,-0.070863,0.05047,0.002665,-0.013747
919,0.179021,0.981354,-0.069533,0.046824,0.007354,-0.013505
920,0.178914,0.981464,-0.068253,0.040462,0.008938,-0.014633
921,0.179058,0.981507,-0.067253,0.03548,0.006927,-0.013084
922,0.179489,0.981473,-0.066595,0.021179,0.008425,-0.017374
923,0.179863,0.981413,-0.066484,0.010811,0.016329,-0.007338
924,0.179966,0.98134,-0.067271,0.003918,0.019865,-0.000874
925,0.180277,0.981177,-0.068794,-0.014505,0.027642,0.022758
926,0.180944,0.980939,-0.07042,-0.002492,-0.0050479999999999,0.020631
927,0.181826,0.980688,-0.071633,0.034468,-0.019293,-0.014518
928,0.182385,0.98054,-0.072248,0.079883,-0.01182,-0.030001
929,0.182241,0.980533,-0.0727039999999999,0.099696,-0.014255,-0.034367
930,0.181791,0.980624,-0.072596,0.111285,-0.007495,-0.027532
931,0.181446,0.980746,-0.07181,0.10992,-0.012027,-0.0272199999999999
932,0.181474,0.980826,-0.070636,0.095794,-0.0190639999999999,-0.022244
933,0.181668,0.980849,-0.069816,0.0766169999999999,-0.0130139999999999,-0.013863
934,0.181866,0.980834,-0.069511,0.0588259999999999,-0.006148,0.002525
935,0.182178,0.980775,-0.069522,0.041439,-0.002519,0.017948
936,0.182774,0.98065,-0.069712,0.024837,0.006593,0.023462
937,0.183501,0.980481,-0.070181,0.012147,0.019961,0.031454
938,0.184283,0.980282,-0.070912,0.00311,0.007648,0.03452
939,0.185094,0.980072,-0.071697,0.0036729999999999,0.001617,0.03181
940,0.185807,0.979894,-0.072284,0.016113,0.000483,0.024356
941,0.186318,0.979788,-0.072397,0.0291519999999999,-0.0064,0.0141389999999999
942,0.186727,0.97973,-0.072135,0.028743,-0.0063409999999999,0.013877
943,0.186978,0.979732,-0.071453,0.030688,-0.006099,0.004864
944,0.186891,0.979807,-0.070644,0.0204759999999999,0.007666,0.003658
945,0.186374,0.979967,-0.0697899999999999,-0.00072,0.0177139999999999,0.008618
946,0.185579,0.980173,-0.069006,-0.018099,0.0215199999999999,0.0062619999999999
947,0.184704,0.980379,-0.068433,-0.028469,0.027785,0.0029579999999999
948,0.183903,0.980548,-0.0681669999999999,-0.022297,0.012189,-0.004297
949,0.183355,0.980662,-0.068004,0.004908,0.012212,-0.01595
950,0.182752,0.980772,-0.068044,0.0634639999999999,-0.000364,-0.0257519999999999
951,0.1820099999999999,0.980885,-0.068398,0.078168,-0.005757,-0.024909
952,0.181229,0.981,-0.0688309999999999,0.086746,-0.020551,-0.02762
953,0.180756,0.981075,-0.069004,0.089965,-0.0161389999999999,-0.027859
954,0.180571,0.981113,-0.068936,0.083452,-0.017567,-0.024784
955,0.180515,0.981135,-0.068769,0.069439,-0.000651,-0.021609
956,0.180558,0.981148,-0.068477,0.035507,-0.002953,-0.019154
957,0.180577,0.981192,-0.06779,0.0284069999999999,-0.001746,-0.0181169999999999
958,0.180578,0.981256,-0.066855,0.006815,0.004813,-0.012796
959,0.18047,0.981348,-0.065788,-0.022573,0.012213,0.002098
960,0.180057,0.981499,-0.0646549999999999,-0.024051,0.014778,0.006046
961,0.1794349999999999,0.981681,-0.063623,-0.023612,0.010904,0.007287
962,0.178545,0.981902,-0.062699,-0.00934,0.016328,0.01204
963,0.177554,0.982133,-0.061894,-0.001239,0.018493,0.010182
964,0.176584,0.982362,-0.0610289999999999,0.003225,0.008483,0.00036
965,0.175707,0.982574,-0.060139,0.011533,0.002686,-0.009426
966,0.174804,0.982764,-0.059662,0.018311,0.001443,-0.012451
967,0.1740799999999999,0.982905,-0.05946,0.018074,0.005789,-0.010624
968,0.173675,0.982976,-0.059471,0.020905,0.0081739999999999,-0.013618
969,0.173298,0.983032,-0.059633,0.028758,0.00682,-0.01808
970,0.172792,0.983106,-0.059885,0.031859,0.002673,-0.020803
971,0.172195,0.983194,-0.0601649999999999,0.038513,0.003211,-0.018768
972,0.171498,0.983304,-0.060351,-0.001775,0.033588,-0.020902
973,0.171444,0.983331,-0.0600669999999999,0.0282019999999999,0.0041719999999999,-0.01876
974,0.171595,0.983327,-0.059699,0.034429,-0.023183,-0.015115
975,0.170618,0.983509,-0.0594909999999999,0.046057,0.001186,-0.014697
976,0.168904,0.983816,-0.059311,0.052577,0.009058,-0.008408
977,0.167682,0.98406,-0.058726,0.0538149999999999,-0.006414,-0.008794
978,0.166907,0.984241,-0.057913,0.034265,-0.0007509999999999,-0.007486
979,0.166424,0.984365,-0.05719,0.014912,-0.000905,-0.009918
980,0.166091,0.984461,-0.056483,0.026552,0.00237,-0.007833
981,0.165537,0.984588,-0.055894,0.058385,-0.006499,-0.0006389999999999
982,0.164874,0.984723,-0.0554539999999999,0.062009,-0.003659,0.004215
983,0.164382,0.984831,-0.054995,0.048555,0.0097209999999999,-0.004576
984,0.1640599999999999,0.984921,-0.0543429999999999,0.0302,0.006076,-0.0205629999999999
985,0.16377,0.985019,-0.053421,0.021075,-0.003848,-0.024398
986,0.163367,0.985143,-0.0523519999999999,0.020166,-0.008489,-0.017243
987,0.162973,0.98527,-0.051188,0.0163789999999999,-0.000376,-0.0079099999999999
988,0.1625319999999999,0.985399,-0.050071,0.0134479999999999,0.007734,-0.013955
989,0.161938,0.985553,-0.048949,0.013614,0.014599,-0.010896
990,0.161158,0.985736,-0.047822,0.014745,0.005017,-0.007293
991,0.160303,0.985923,-0.046819,0.015066,-0.001227,-0.004267
992,0.159479,0.986101,-0.045866,0.012472,0.00157,-0.006548
993,0.15859,0.98629,-0.044875,0.010066,0.000237,-0.0099049999999999
994,0.157558,0.986501,-0.043841,0.0113569999999999,0.003352,-0.014753
995,0.156454,0.986722,-0.042805,0.011714,0.0079069999999999,-0.005489
996,0.15509,0.986979,-0.041815,0.010819,0.003224,-0.006997
997,0.153569,0.98727,-0.040538,0.012828,0.002262,-0.0083209999999999
998,0.151819,0.987608,-0.03887,0.019369,0.0088519999999999,-0.001063
999,0.149869,0.98798,-0.036931,0.019931,0.016124,-0.00146
1000,0.148074,0.988327,-0.034839,0.015622,0.022736,0.002689
1001,0.146612,0.988612,-0.032864,0.001306,0.017873,0.005901
1002,0.145353,0.98886,-0.030956,0.002566,0.017625,0.003994
1003,0.144269,0.989072,-0.029206,-0.004423,0.02048,0.006592
1004,0.143271,0.98926,-0.027717,-0.003104,0.008161,0.000617
1005,0.142281,0.989434,-0.02656,0.00016,0.01081,-0.000723
1006,0.1413299999999999,0.989592,-0.0257319999999999,0.000881,0.001695,-0.008433
1007,0.140567,0.989717,-0.0251039999999999,0.003827,0.001738,-0.011975
1008,0.140066,0.989801,-0.024595,0.006983,0.010504,-0.0134759999999999
1009,0.139729,0.989855,-0.0243409999999999,0.007381,0.0036299999999999,-0.008985
1010,0.139506,0.989887,-0.024296,0.011648,0.00848,-0.00468
1011,0.139241,0.98992,-0.024481,0.011729,0.0070129999999999,-0.0057009999999999
1012,0.13894,0.989955,-0.024797,0.0128539999999999,0.014974,-0.011138
1013,0.138731,0.989977,-0.025069,0.011065,0.015974,-0.010987
1014,0.138604,0.989988,-0.025332,0.005912,0.0220199999999999,-0.008436
1015,0.138658,0.989969,-0.025774,7.5e-05,0.010473,-0.001875
1016,0.138817,0.98993,-0.026427,0.0025399999999999,0.00241,-4.7e-05
1017,0.139074,0.989874,-0.027144,0.001826,-0.004157,-0.0015119999999999
1018,0.139488,0.989799,-0.027763,0.014214,0.0012289999999999,-0.010934
1019,0.13988,0.989729,-0.028234,0.023587,-0.00305,-0.012751
1020,0.140207,0.989673,-0.028586,0.02828,0.006726,-0.013802
1021,0.14043,0.989633,-0.028867,0.029949,0.001379,-0.012896
1022,0.140549,0.989612,-0.029013,0.034668,0.000347,-0.01269
1023,0.140587,0.989603,-0.029146,0.038674,0.001333,-0.005232
1024,0.140668,0.989589,-0.029243,0.0377529999999999,-0.003963,-0.003273
1025,0.140718,0.989583,-0.029213,0.035949,0.005595,-0.003746
1026,0.1408309999999999,0.989569,-0.0291269999999999,0.0289839999999999,0.002572,-0.00049
1027,0.141058,0.989542,-0.02896,0.020822,0.006537,0.0028829999999999
1028,0.141311,0.989506,-0.028959,0.022004,0.003979,0.007337
1029,0.141596,0.989463,-0.0290399999999999,0.021627,0.003274,-0.001233
1030,0.142005,0.989403,-0.029097,0.018747,0.00367,-0.004457
1031,0.142501,0.989329,-0.029169,0.0165419999999999,0.005193,-0.008749
1032,0.143003,0.98925,-0.029405,0.020037,0.004448,-0.002486
1033,0.1434869999999999,0.989169,-0.029758,0.018363,0.002118,0.001316
1034,0.143971,0.989088,-0.030126,0.016399,0.006365,0.003332
1035,0.14443,0.989009,-0.030501,0.012369,0.0077709999999999,0.002135
1036,0.144903,0.98893,-0.030815,0.013178,0.003333,-9.9e-05
1037,0.145358,0.988852,-0.031181,0.014768,0.015558,0.0007099999999999
1038,0.145811,0.98877,-0.031677,0.014803,0.009414,0.004318
1039,0.146179,0.988698,-0.032214,0.018341,0.0034289999999999,0.002902
1040,0.146468,0.988638,-0.032713,0.021409,0.004892,-0.0015119999999999
1041,0.14682,0.988571,-0.033161,0.021744,0.005326,-0.004971
1042,0.1471869999999999,0.9885,-0.033628,0.02362,0.002482,-0.0069299999999999
1043,0.14751,0.988432,-0.034211,0.0281949999999999,0.001375,-0.005813
1044,0.147816,0.98836,-0.034945,0.02563,0.005994,-0.006055
1045,0.148135,0.988284,-0.035722,0.022488,0.0045439999999999,-0.003371
1046,0.14848,0.988203,-0.036514,0.025013,0.009126,-0.005753
1047,0.148847,0.988115,-0.037375,0.023639,0.007231,-0.007043
1048,0.14934,0.988005,-0.0383089999999999,0.024824,0.00223,-0.007986
1049,0.149965,0.987881,-0.03904,0.041624,0.002186,-0.013755
1050,0.15054,0.987769,-0.039656,0.050113,0.003213,-0.013765
1051,0.151079,0.987666,-0.0401829999999999,0.051832,-0.002665,-0.016122
1052,0.151622,0.987567,-0.040554,0.040348,-0.001056,-0.010105
1053,0.152191,0.98747,-0.040799,0.038468,-0.001325,-0.008212
1054,0.152836,0.987358,-0.0410899999999999,0.029751,0.000755,-0.004808
1055,0.153463,0.987241,-0.041558,0.03065,0.005877,-0.002296
1056,0.154095,0.987114,-0.042218,0.033039,0.0094989999999999,-0.000567
1057,0.154809,0.986976,-0.042819,0.024894,0.001977,0.0044729999999999
1058,0.1554549999999999,0.986856,-0.0432209999999999,0.023759,0.006476,0.007104
1059,0.155966,0.986766,-0.0434439999999999,0.021417,0.004033,0.005388
1060,0.156269,0.986719,-0.043419,0.014766,0.005529,0.002647
1061,0.15642,0.9867,-0.043308,0.019896,0.004953,-0.000606
1062,0.156538,0.986685,-0.043237,0.018465,0.006754,0.001062
1063,0.156625,0.986675,-0.0431579999999999,0.0138,0.006337,-0.000956
1064,0.156565,0.986688,-0.043059,0.01679,0.004492,-0.000871
1065,0.156478,0.986704,-0.043013,0.018632,0.006185,-7.8e-05
1066,0.156493,0.986707,-0.042903,0.014894,0.004642,-0.0017289999999999
1067,0.156527,0.986709,-0.042729,0.018278,0.002625,-0.001323
1068,0.156576,0.986714,-0.042411,0.021555,0.002299,-0.006448
1069,0.156615,0.986723,-0.042065,0.034532,-7.5e-05,-0.005451
1070,0.156576,0.986747,-0.041645,0.0288639999999999,0.001809,-0.003689
1071,0.156547,0.986774,-0.04112,0.035866,-0.003589,-0.003252
1072,0.156544,0.986801,-0.040487,0.03738,-0.001251,-0.003855
1073,0.156533,0.98683,-0.0398139999999999,0.035255,0.007005,0.001148
1074,0.156527,0.986862,-0.0390379999999999,0.028181,0.001999,-0.001123
1075,0.156525,0.986894,-0.038217,0.028687,0.0016469999999999,0.00242
1076,0.1565339999999999,0.986916,-0.037598,0.028204,0.0067519999999999,0.004258
1077,0.156683,0.986914,-0.03702,0.026255,0.009562,0.0027949999999999
1078,0.156836,0.986913,-0.036387,0.024057,0.001811,-0.001516
1079,0.156798,0.986943,-0.035742,0.02701,0.002544,-0.002146
1080,0.156612,0.986989,-0.0352769999999999,0.029865,0.003261,0.0009289999999999
1081,0.156466,0.987025,-0.034907,0.029005,0.001531,0.003245
1082,0.156365,0.987057,-0.0344709999999999,0.029289,0.001286,0.002626
1083,0.156182,0.987106,-0.033904,0.029289,0.0034799999999999,-0.002015
1084,0.155878,0.987174,-0.0333199999999999,0.0304009999999999,0.004388,-0.00324
1085,0.1554849999999999,0.987255,-0.032733,0.0306269999999999,0.006565,-0.001218
1086,0.155104,0.987332,-0.0322089999999999,0.029008,0.001895,-0.002597
1087,0.1547599999999999,0.9874,-0.031766,0.02717,0.004605,-0.00336
1088,0.154389,0.987466,-0.031484,0.0220479999999999,0.008536,0.004231
1089,0.154046,0.987528,-0.031225,0.022132,0.006887,0.000524
1090,0.153775,0.987577,-0.030987,0.018558,0.004076,0.005734
1091,0.153545,0.987618,-0.030839,0.004047,0.00164,0.01146
1092,0.153254,0.98767,-0.030591,0.002797,0.009568,0.00758
1093,0.152838,0.987753,-0.0300149999999999,0.0015199999999999,0.0041909999999999,0.002503
1094,0.1522599999999999,0.987865,-0.029231,0.009285,0.009602,0.000697
1095,0.1514319999999999,0.988015,-0.0284649999999999,0.010295,0.004584,-0.00132
1096,0.150456,0.988186,-0.027705,0.008464,0.008442,0.000423
1097,0.149427,0.988363,-0.026913,0.0199449999999999,0.007044,-0.009906
1098,0.148442,0.98853,-0.026235,0.024836,0.003703,-0.005839
1099,0.14743,0.988697,-0.025674,0.0399329999999999,0.001492,-0.012412
1100,0.146403,0.98886,-0.025254,0.050955,-0.000701,-0.011351
1101,0.145442,0.989011,-0.024916,0.048512,-0.002301,-0.010103
1102,0.14455,0.989153,-0.024454,0.040005,0.006437,-0.008872
1103,0.143663,0.989296,-0.023897,0.0391829999999999,0.009423,-0.0127549999999999
1104,0.142779,0.989435,-0.0234,0.041867,0.012777,-0.012565
1105,0.141975,0.989557,-0.023117,0.032768,0.004797,-0.008423
1106,0.141166,0.989676,-0.022955,0.030236,0.002938,-0.007868
1107,0.1404109999999999,0.989785,-0.022872,0.030121,0.000296,-0.0117349999999999
1108,0.13975,0.989881,-0.022772,0.037557,-0.001462,-0.014032
1109,0.139261,0.989955,-0.022537,0.025213,0.011007,-0.0144199999999999
1110,0.139153,0.989978,-0.022169,0.023994,0.007962,-0.019381
1111,0.139175,0.989979,-0.022025,0.037766,-0.000172,-0.020715
1112,0.138853,0.990029,-0.021812,0.053744,-0.006173,-0.021828
1113,0.138148,0.99013,-0.0217009999999999,0.061559,-0.001193,-0.0186889999999999
1114,0.137342,0.990243,-0.021679,0.062869,-0.005257,-0.018818
1115,0.1369369999999999,0.9903,-0.021623,0.051036,-0.001728,-0.017134
1116,0.136955,0.990296,-0.021685,0.04873,0.003036,-0.012449
1117,0.137191,0.990262,-0.0217419999999999,0.032212,0.00217,-0.009814
1118,0.137341,0.990245,-0.0215789999999999,0.0289339999999999,0.003972,-0.010251
1119,0.137242,0.990264,-0.021314,0.024623,0.003754,-0.009387
1120,0.137174,0.990273,-0.021329,0.016909,0.0066599999999999,-0.0046409999999999
1121,0.137113,0.990275,-0.0216419999999999,0.01343,0.010534,0.002065
1122,0.137121,0.990264,-0.022076,0.01594,0.011201,0.005749
1123,0.137178,0.990249,-0.022424,0.01515,0.004258,0.001168
1124,0.13722,0.990237,-0.022687,0.015413,0.00926,5.8e-05
1125,0.137256,0.990226,-0.022938,0.014844,0.009698,-0.0066489999999999
1126,0.137315,0.99021,-0.023259,0.016387,0.008111,-0.0027719999999999
1127,0.137422,0.990184,-0.023768,0.018065,0.0094349999999999,-0.000722
1128,0.137588,0.990147,-0.024339,0.013031,0.007839,-0.004103
1129,0.1378079999999999,0.990101,-0.024931,0.008524,0.007167,-0.007127
1130,0.138054,0.99005,-0.025594,0.006187,0.006181,-0.0106
1131,0.138298,0.989997,-0.0263319999999999,0.0066,0.006279,-0.005787
1132,0.138522,0.989945,-0.027098,0.00897,0.008712,-0.003786
1133,0.138715,0.989898,-0.027794,0.011172,0.0056159999999999,-0.002357
1134,0.1388329999999999,0.989866,-0.028319,0.010413,0.006426,-0.004366
1135,0.138868,0.98985,-0.028704,0.012362,0.006793,-0.005399
1136,0.1388329999999999,0.989842,-0.029113,0.019599,0.013011,-0.002167
1137,0.138796,0.989829,-0.029733,0.021207,0.012185,0.00039
1138,0.1388059999999999,0.989804,-0.030486,0.0217009999999999,0.004947,-0.001191
1139,0.138818,0.989778,-0.031273,0.022712,0.000319,-0.003029
1140,0.138825,0.989755,-0.031949,0.025436,0.001944,-0.00339
1141,0.138808,0.989738,-0.032529,0.025438,-0.000236,-0.0018329999999999
1142,0.138786,0.989726,-0.032986,0.024895,0.004796,-0.00951
1143,0.138752,0.989717,-0.033381,0.02795,0.00746,-0.004857
1144,0.13867,0.989714,-0.033805,0.036578,0.002367,-0.005684
1145,0.138573,0.989716,-0.0341389999999999,0.034263,0.000488,-0.0076549999999999
1146,0.138481,0.989724,-0.034276,0.0342019999999999,0.003364,-0.004771
1147,0.138389,0.989731,-0.0344379999999999,0.034417,0.004364,-0.006501
1148,0.138322,0.989734,-0.034641,0.035049,0.004407,-0.004254
1149,0.1383049999999999,0.989728,-0.034864,0.03415,0.004321,-0.004595
1150,0.138328,0.989717,-0.035094,0.032448,0.004042,-0.00377
1151,0.138416,0.989693,-0.035406,0.031612,0.006049,-0.005411
1152,0.138541,0.989665,-0.035702,0.032922,0.009526,-0.006855
1153,0.138576,0.989648,-0.036036,0.033131,0.003943,-0.000662
1154,0.138504,0.989646,-0.036358,0.033875,-0.000328,-0.000522
1155,0.138374,0.989658,-0.036537,0.027627,-0.001728,0.001564
1156,0.1381079999999999,0.989697,-0.036476,0.0262899999999999,0.003757,-0.006768
1157,0.137712,0.989757,-0.0363459999999999,0.025022,0.010258,-0.007584
1158,0.137298,0.989817,-0.036298,0.028702,0.008017,-0.0049619999999999
1159,0.136906,0.989873,-0.036231,0.0211599999999999,0.000468,0.005225
1160,0.136465,0.989942,-0.036012,0.020227,0.000719,0.002763
1161,0.135936,0.990031,-0.03557,0.017506,0.002248,0.001985
1162,0.135409,0.990121,-0.035079,0.017973,0.006522,-0.003007
1163,0.134936,0.990199,-0.034692,0.0184,0.007512,-0.0044469999999999
1164,0.134597,0.990254,-0.034422,0.020371,0.005702,-0.003328
1165,0.134474,0.990275,-0.0343,0.025469,0.0083819999999999,-0.0015429999999999
1166,0.134389,0.990289,-0.034235,0.023524,0.002554,-0.0041259999999999
1167,0.1343349999999999,0.990297,-0.034212,0.0246,0.000532,-0.0029579999999999
1168,0.134392,0.990286,-0.034319,0.021553,0.005579,-0.0048049999999999
1169,0.134644,0.990246,-0.034487,0.020935,0.0037119999999999,0.0006129999999999
1170,0.135008,0.990191,-0.0346519999999999,0.023118,0.003675,0.004241
1171,0.135366,0.990139,-0.034726,0.0214639999999999,-0.001446,-0.003467
1172,0.135722,0.990093,-0.034647,0.02242,1.9e-05,-0.008444
1173,0.1360819999999999,0.990045,-0.034592,0.0258899999999999,0.000967,-0.001892
1174,0.136491,0.989989,-0.034586,0.026916,0.001878,-0.001882
1175,0.136917,0.989933,-0.034518,0.024704,0.006222,-0.00337
1176,0.137321,0.98988,-0.034417,0.021233,0.009036,0.00094
1177,0.137738,0.989828,-0.034261,0.02103,0.008326,0.0045369999999999
1178,0.1382,0.989771,-0.034048,0.0206139999999999,0.003699,-0.000498
1179,0.138719,0.989705,-0.033836,0.019697,0.003596,0.001457
1180,0.139236,0.98964,-0.03362,0.022187,0.003692,0.000188
1181,0.139747,0.989579,-0.0333,0.02395,0.004653,0.000616
1182,0.140235,0.989522,-0.0329319999999999,0.0219819999999999,0.003321,0.000645
1183,0.140792,0.989455,-0.03256,0.0209509999999999,0.006501,0.000303
1184,0.141417,0.989378,-0.0322029999999999,0.024431,0.004381,-0.00245
1185,0.141965,0.98931,-0.031865,0.026354,0.000619,-0.001963
1186,0.142563,0.989236,-0.031487,0.029968,0.000571,-0.004753
1187,0.1431849999999999,0.989161,-0.031034,0.029941,0.002431,-0.004564
1188,0.143744,0.989097,-0.0304769999999999,0.030664,0.002068,-0.007914
1189,0.144286,0.989037,-0.029866,0.032624,0.001655,-0.004482
1190,0.144951,0.988955,-0.029361,0.029198,0.005109,-0.001797
1191,0.145725,0.988855,-0.02889,0.028576,0.005331,-0.00503
1192,0.146609,0.988739,-0.0284029999999999,0.024137,0.004731,-0.001336
1193,0.147494,0.98862,-0.027963,0.027525,0.0036899999999999,-0.0009519999999999
1194,0.148392,0.988497,-0.027551,0.026687,-0.000414,-0.0026149999999999
1195,0.149348,0.988367,-0.0270569999999999,0.0265399999999999,0.004096,-0.001645
1196,0.150285,0.988239,-0.0265279999999999,0.029143,0.003735,-0.0061719999999999
1197,0.1511809999999999,0.988116,-0.026006,0.032108,0.007276,0.001577
1198,0.152134,0.987984,-0.025438,0.024593,0.004386,0.000886
1199,0.153069,0.987855,-0.024821,0.019462,0.0007469999999999,-0.000936
1200,0.154034,0.987718,-0.024291,0.019199,0.005019,0.0006389999999999
1201,0.1550349999999999,0.98757,-0.023899,0.019556,0.0067379999999999,0.002155
1202,0.156106,0.987408,-0.023644,0.0187139999999999,0.006977,-0.000541
1203,0.157246,0.987231,-0.023456,0.017009,0.0062229999999999,0.001605
1204,0.158434,0.987044,-0.023304,0.015333,0.005967,-0.0016899999999999
1205,0.159584,0.986859,-0.02328,0.017891,0.010699,-0.001318
1206,0.160748,0.986666,-0.023445,0.016651,0.004758,0.000206
1207,0.162042,0.986451,-0.023592,0.018912,0.005736,0.00226
1208,0.163443,0.98622,-0.023591,0.014688,0.003709,0.000184
1209,0.164934,0.985975,-0.023486,0.012983,0.003786,-0.0025
1210,0.1664119999999999,0.98573,-0.0233729999999999,0.017274,0.001514,0.000347
1211,0.167857,0.985489,-0.023204,0.02149,0.000656,0.001582
1212,0.169277,0.985252,-0.022936,0.022724,0.000374,-8.9e-05
1213,0.170664,0.985024,-0.022449,0.026312,0.0025239999999999,0.0034969999999999
1214,0.171987,0.984811,-0.021698,0.0257519999999999,-0.001443,0.004456
1215,0.173417,0.984583,-0.020656,0.02597,0.003119,0.004436
1216,0.174813,0.98436,-0.019445,0.026756,0.01004,0.006429
1217,0.1761,0.984152,-0.018335,0.028185,0.007486,0.005838
1218,0.177469,0.983922,-0.017478,0.028906,0.008693,0.00785
1219,0.178992,0.983657,-0.0168,0.024804,0.007783,0.008561
1220,0.1806029999999999,0.983366,-0.016529,0.026886,0.004838,0.004581
1221,0.182233,0.983061,-0.016758,0.027957,0.005449,4e-06
1222,0.183989,0.982721,-0.01749,0.0504779999999999,-0.001276,0.0018809999999999
1223,0.185782,0.982364,-0.018557,0.051965,-0.00159,-0.000883
1224,0.187601,0.981995,-0.019729,0.055411,0.000106,-0.000459
1225,0.189273,0.981648,-0.021015,0.051252,-0.006367,0.002171
1226,0.19074,0.981333,-0.02242,0.0548049999999999,-0.005777,0.005315
1227,0.191948,0.981063,-0.023863,0.052315,-0.006347,0.00746
1228,0.193056,0.98081,-0.025276,0.042936,0.0001159999999999,0.011253
1229,0.194188,0.980551,-0.026629,0.036876,0.004572,0.013583
1230,0.195188,0.980316,-0.027956,0.034091,0.004441,0.014482
1231,0.196115,0.980094,-0.029206,0.039847,0.005273,0.014893
1232,0.197237,0.979839,-0.030188,0.038114,0.00507,0.012213
1233,0.198614,0.97954,-0.030843,0.038538,0.006788,0.011724
1234,0.200216,0.979204,-0.031177,0.047892,0.004286,0.009036
1235,0.201895,0.978857,-0.031236,0.062189,0.00831,0.009202
1236,0.203463,0.978536,-0.031092,0.064496,0.002878,0.006861
1237,0.2048829999999999,0.978249,-0.0308,0.0685539999999999,-0.007881,0.002709
1238,0.206159,0.977992,-0.030441,0.063739,-0.0178639999999999,-0.003235
1239,0.2071,0.977807,-0.029997,0.060035,-0.018212,-0.007479
1240,0.2076869999999999,0.977696,-0.029554,0.0529179999999999,-0.006306,-0.004458
1241,0.207773,0.97769,-0.029143,0.050436,-0.004637,-0.005052
1242,0.207528,0.977757,-0.0286589999999999,0.0378029999999999,-0.0027199999999999,-0.000455
1243,0.207251,0.977835,-0.027967,0.033502,0.006662,0.002333
1244,0.207116,0.977884,-0.027235,0.031928,0.013678,0.00218
1245,0.2070719999999999,0.977914,-0.02651,0.032232,0.01287,0.015828
1246,0.207315,0.977884,-0.025715,0.037283,0.009879,0.016971
1247,0.2078199999999999,0.977799,-0.024858,0.036564,-0.002427,0.016191
1248,0.208309,0.977712,-0.024181,0.038411,-0.0015609999999999,0.013561
1249,0.2086469999999999,0.977649,-0.023796,0.048357,-0.002247,0.0051649999999999
1250,0.208928,0.977593,-0.023639,0.044002,-0.008004,-0.000805
1251,0.209202,0.977535,-0.023628,0.043179,-0.000301,-0.00074
1252,0.2093989999999999,0.97749,-0.023749,0.041043,-0.001568,-0.005884
1253,0.209501,0.977466,-0.023821,0.040697,-0.001072,-0.012464
1254,0.2095199999999999,0.97746,-0.023905,0.032606,-0.000303,-0.001989
1255,0.209475,0.977471,-0.0238759999999999,0.035932,0.004646,0.005443
1256,0.209515,0.977467,-0.023674,0.035114,0.004772,0.008125
1257,0.209657,0.977445,-0.02334,0.031966,0.005115,0.010568
1258,0.2098739999999999,0.977406,-0.022981,0.033061,0.001536,0.009172
1259,0.210101,0.977367,-0.022588,0.029447,0.001896,0.007589
1260,0.210314,0.97733,-0.022183,0.028806,0.0010789999999999,0.0055969999999999
1261,0.210546,0.977289,-0.02179,0.0271709999999999,0.002112,0.004746
1262,0.210774,0.977247,-0.021454,0.027004,9.3e-05,0.0061649999999999
1263,0.211046,0.977195,-0.021152,0.027464,0.0009699999999999,0.004245
1264,0.21131,0.977144,-0.0208639999999999,0.02804,0.002928,0.007238
1265,0.211483,0.977111,-0.020646,0.028324,0.003052,0.0069739999999999
1266,0.2115639999999999,0.977098,-0.020474,0.02748,0.00244,0.004925
1267,0.211592,0.977094,-0.020352,0.023744,0.0006889999999999,0.003125
1268,0.211565,0.977101,-0.020312,0.023084,0.000774,0.00165
1269,0.2115699999999999,0.977099,-0.020356,0.025185,0.0048189999999999,-0.0005639999999999
1270,0.211576,0.977095,-0.020479,0.026568,0.004442,0.002443
1271,0.211598,0.977087,-0.020641,0.026195,0.0057929999999999,0.002483
1272,0.211632,0.977075,-0.020838,0.025856,0.005957,0.00271
1273,0.211736,0.977048,-0.021044,0.025996,0.006609,0.0021079999999999
1274,0.211892,0.97701,-0.021269,0.0269079999999999,0.0040079999999999,0.003584
1275,0.212055,0.976969,-0.0215199999999999,0.027981,0.001669,0.000646
1276,0.2122659999999999,0.976917,-0.021789,0.027938,0.001431,-0.000412
1277,0.212469,0.976867,-0.022053,0.028742,0.001282,-0.000683
1278,0.212673,0.976817,-0.022298,0.030751,0.001866,-0.0009109999999999
1279,0.212869,0.97677,-0.0225,0.028876,0.001959,-0.000236
1280,0.21304,0.976728,-0.022696,0.030169,0.001101,-0.000131
1281,0.213186,0.976692,-0.022881,0.029077,0.0001909999999999,-0.0001139999999999
1282,0.213327,0.976658,-0.023032,0.030402,7.3e-05,0.0001899999999999
1283,0.213461,0.976624,-0.023199,0.030451,0.003463,0.0010279999999999
1284,0.2135909999999999,0.976592,-0.023357,0.030016,0.001023,0.000439
1285,0.213694,0.976566,-0.023503,0.033056,-0.000675,-0.000789
1286,0.213754,0.976549,-0.023672,0.031257,0.001097,0.0032409999999999
1287,0.213797,0.976534,-0.023878,0.0271089999999999,0.0015689999999999,-0.000231
1288,0.213848,0.976519,-0.0240669999999999,0.029972,0.001646,0.001224
1289,0.2139849999999999,0.976483,-0.0242919999999999,0.0301399999999999,0.003116,0.006852
1290,0.2141539999999999,0.976441,-0.024505,0.029575,0.00151,0.0043939999999999
1291,0.2143219999999999,0.976399,-0.024704,0.030643,-0.0002029999999999,0.004044
1292,0.214551,0.976347,-0.024789,0.031527,0.000155,0.0040219999999999
1293,0.214755,0.976301,-0.024824,0.031888,-0.002653,0.005155
1294,0.214939,0.976261,-0.0248229999999999,0.0323149999999999,-0.002201,0.003964
1295,0.215107,0.976224,-0.024791,0.036419,0.001437,0.00407
1296,0.215202,0.976205,-0.024731,0.037239,9.8e-05,0.002407
1297,0.215256,0.976195,-0.024644,0.037444,-0.001525,0.002611
1298,0.215319,0.976183,-0.0245699999999999,0.03346,0.003675,0.00069
1299,0.215367,0.976173,-0.0245629999999999,0.03181,0.001305,0.0023309999999999
1300,0.215391,0.976164,-0.024687,0.030962,0.002077,0.001067
1301,0.21543,0.976149,-0.024943,0.036874,0.0007639999999999,0.001139
1302,0.215421,0.976143,-0.025262,0.035617,0.001076,-2.2e-05
1303,0.215394,0.976141,-0.0255889999999999,0.0418689999999999,0.001124,-0.000458
1304,0.215367,0.97614,-0.025843,0.040599,0.001994,0.000742
1305,0.215307,0.976148,-0.026029,0.041377,-0.000242,0.000699
1306,0.215259,0.976157,-0.0260959999999999,0.035992,-0.001929,0.001514
1307,0.215196,0.976172,-0.026075,0.038314,0.00181,0.001798
1308,0.215119,0.976191,-0.0260129999999999,0.039108,0.000814,0.00166
1309,0.215112,0.976195,-0.025898,0.0374209999999999,0.001115,9.6e-05
1310,0.215152,0.97619,-0.025758,0.035443,0.0017,-0.0002279999999999
1311,0.215176,0.976188,-0.025631,0.035693,0.002679,0.000637
1312,0.215219,0.976182,-0.025526,0.0366579999999999,-0.000397,-0.000491
1313,0.215244,0.976179,-0.025426,0.035916,-0.001585,-0.00088
1314,0.2152079999999999,0.976188,-0.025368,0.037844,-3.8e-05,0.004677
1315,0.21518,0.976195,-0.025332,0.036072,0.002046,0.002901
1316,0.215148,0.976203,-0.025319,0.034822,0.0024809999999999,0.000783
1317,0.2151179999999999,0.976209,-0.02532,0.037522,0.000582,-0.000437
1318,0.215125,0.976208,-0.025331,0.034981,0.001637,-0.000258
1319,0.2151179999999999,0.976209,-0.025329,0.034989,7.8e-05,0.002089
1320,0.2150929999999999,0.976215,-0.025333,0.035227,0.00079,0.000828
1321,0.215083,0.976217,-0.02533,0.03481,0.0008789999999999,0.002763
1322,0.215026,0.97623,-0.025328,0.034577,-0.0004,0.003385
1323,0.214937,0.97625,-0.025303,0.034453,-0.000573,0.002461
1324,0.214844,0.976273,-0.0252389999999999,0.033264,0.001373,0.004197
1325,0.21474,0.976298,-0.025143,0.035108,0.001348,0.006024
1326,0.214629,0.976325,-0.025026,0.032014,0.0007099999999999,0.00316
1327,0.2145389999999999,0.976348,-0.0249199999999999,0.03305,0.0038159999999999,0.004259
1328,0.2144619999999999,0.976365,-0.024903,0.033752,0.0029289999999999,0.006012
1329,0.2144329999999999,0.976372,-0.024877,0.0307,0.002616,0.002371
1330,0.214413,0.976377,-0.024872,0.031665,0.000888,0.0035549999999999
1331,0.2143739999999999,0.976386,-0.024842,0.034512,-0.000373,0.0039369999999999
1332,0.214309,0.976402,-0.024794,0.034714,-0.00106,0.0043619999999999
1333,0.21423,0.976422,-0.024689,0.029545,0.0012699999999999,0.0019079999999999
1334,0.214171,0.976436,-0.02464,0.02881,0.005421,0.005978
1335,0.214083,0.976456,-0.024621,0.029646,0.002762,0.003656
1336,0.214017,0.97647,-0.02463,0.031405,0.000459,0.0046409999999999
1337,0.2139889999999999,0.976475,-0.024649,0.03096,0.001491,0.002493
1338,0.213937,0.976485,-0.024707,0.027625,0.002747,0.004367
1339,0.213833,0.976507,-0.024762,0.0274699999999999,0.001963,0.006101
1340,0.213726,0.976529,-0.024808,0.029011,0.0037869999999999,0.005323
1341,0.2135409999999999,0.976567,-0.024896,0.030279,0.002971,0.004632
1342,0.213299,0.976617,-0.025004,0.0289339999999999,-0.000391,0.006144
1343,0.213128,0.976652,-0.025121,0.028724,0.002077,0.005757
1344,0.212994,0.976678,-0.025246,0.031284,0.003013,0.005913
1345,0.2129219999999999,0.97669,-0.0253949999999999,0.029708,0.000407,0.004277
1346,0.212883,0.976695,-0.025504,0.031395,0.001973,0.003821
1347,0.212808,0.976711,-0.025529,0.0307529999999999,0.0017739999999999,0.005067
1348,0.212705,0.976734,-0.025514,0.0321829999999999,0.001233,0.0047009999999999
1349,0.212585,0.976763,-0.025426,0.029969,0.001967,0.007131
1350,0.212538,0.976777,-0.025273,0.029192,6e-05,0.003789
1351,0.2124579999999999,0.976798,-0.025127,0.0335899999999999,-0.000632,0.005748
1352,0.212354,0.976824,-0.024957,0.032396,0.002057,0.004633
1353,0.2122349999999999,0.976855,-0.024776,0.035018,0.000135,0.0045119999999999
1354,0.212085,0.976892,-0.024596,0.034818,0.000342,0.002547
1355,0.21194,0.976929,-0.024395,0.033406,0.001877,0.003872
1356,0.211801,0.976963,-0.0242229999999999,0.034537,0.004314,0.005241
1357,0.211669,0.976995,-0.024092,0.034837,0.001338,0.002867
1358,0.211544,0.977024,-0.023997,0.033466,-0.0001409999999999,0.004054
1359,0.211452,0.977046,-0.0239349999999999,0.034748,0.001256,0.000849
1360,0.211423,0.977054,-0.023858,0.035663,0.0001189999999999,-0.000404
1361,0.211338,0.977074,-0.023776,0.034542,0.004493,0.0016809999999999
1362,0.211229,0.9771,-0.023711,0.033446,0.001721,0.001906
1363,0.21118,0.977113,-0.023609,0.033647,0.001693,0.000202
1364,0.21111,0.977129,-0.023543,0.0360819999999999,0.006208,0.0059039999999999
1365,0.211021,0.977149,-0.023548,0.036126,0.003198,0.003406
1366,0.211028,0.977149,-0.023497,0.0332649999999999,0.0004969999999999,0.001249
1367,0.2109489999999999,0.977168,-0.023424,0.031971,0.001943,0.003634
1368,0.210869,0.977187,-0.023348,0.032082,0.001298,0.003374
1369,0.210844,0.977195,-0.023229,0.032533,0.0012439999999999,0.00385
1370,0.210786,0.977209,-0.023153,0.031386,-0.000723,0.001714
1371,0.2106869999999999,0.977231,-0.023137,0.031836,0.002856,0.001882
1372,0.210609,0.977247,-0.023168,0.0342639999999999,0.002107,0.002737
1373,0.210546,0.977259,-0.02325,0.034143,0.002538,0.000408
1374,0.210507,0.977264,-0.023405,0.034183,0.0025329999999999,0.000562
1375,0.210565,0.977247,-0.023576,0.032507,0.001574,0.001497
1376,0.210602,0.977235,-0.023758,0.0328069999999999,0.00183,0.00505
1377,0.210607,0.977229,-0.023961,0.034388,-0.00059,0.004598
1378,0.210602,0.977225,-0.024178,0.0345,-0.0009519999999999,0.005654
1379,0.210577,0.977225,-0.0243789999999999,0.032099,0.0016719999999999,0.0063729999999999
1380,0.210548,0.977227,-0.024555,0.030724,0.0018679999999999,0.005207
1381,0.21053,0.977227,-0.024723,0.032954,0.000679,0.006016
1382,0.210532,0.977223,-0.024837,0.030496,0.001018,0.003688
1383,0.210501,0.977228,-0.024894,0.0328,0.001775,0.004539
1384,0.2104469999999999,0.97724,-0.024896,0.033754,-0.00173,0.001199
1385,0.2104099999999999,0.977249,-0.024867,0.032448,0.0017399999999999,0.002329
1386,0.210331,0.977268,-0.02481,0.031978,0.001767,0.000487
1387,0.2102679999999999,0.977283,-0.02476,0.034193,0.000287,0.001475
1388,0.21024,0.977289,-0.02474,0.03265,0.001959,3.7e-05
1389,0.210211,0.977296,-0.0247289999999999,0.034418,0.001022,-0.0007379999999999
1390,0.210208,0.977296,-0.024748,0.033505,-0.000459,-0.000307
1391,0.210238,0.977288,-0.0247949999999999,0.035291,0.00138,0.000472
1392,0.210276,0.977278,-0.024875,0.034643,0.002855,0.002566
1393,0.210334,0.977263,-0.0249759999999999,0.036843,-0.00186,0.003247
1394,0.21039,0.977248,-0.025079,0.035628,-0.001266,0.00216
1395,0.210404,0.977243,-0.025166,0.038375,0.0015019999999999,0.0023239999999999
1396,0.210392,0.977244,-0.025219,0.035671,-0.0004379999999999,0.0032619999999999
1397,0.2103739999999999,0.977248,-0.025211,0.037368,0.000398,0.0042759999999999
1398,0.210352,0.977254,-0.025153,0.036306,0.0052899999999999,0.00318
1399,0.210304,0.977266,-0.025116,0.033837,-0.0015119999999999,0.0052179999999999
1400,0.210276,0.977274,-0.025033,0.032873,-0.001138,-9.8e-05
1401,0.210287,0.977273,-0.024953,0.038675,0.003134,0.005162
1402,0.2102909999999999,0.977274,-0.024918,0.038549,0.00231,0.004059
1403,0.2103179999999999,0.977269,-0.024866,0.038477,-0.001363,0.00178
1404,0.2103239999999999,0.97727,-0.02477,0.036502,-0.000494,0.0033619999999999
1405,0.2102929999999999,0.977281,-0.024619,0.0376769999999999,0.000655,0.004463
1406,0.210228,0.977299,-0.024458,0.038322,-0.001911,0.003599
1407,0.210204,0.977308,-0.024287,0.0375529999999999,0.001268,0.003993
1408,0.2101599999999999,0.977321,-0.024168,0.033417,0.002263,0.003095
1409,0.210111,0.977332,-0.024127,0.038348,0.0035329999999999,0.004626
1410,0.210109,0.977333,-0.024107,0.037587,0.000755,0.004438
1411,0.210198,0.977315,-0.02409,0.038109,0.001094,0.00227
1412,0.210247,0.977304,-0.024085,0.037754,-0.001916,0.003607
1413,0.210281,0.977298,-0.02405,0.0336,0.000242,0.004504
1414,0.210357,0.977282,-0.024018,0.033402,-0.000247,0.005845
1415,0.210391,0.977276,-0.023994,0.036954,0.004292,0.004707
1416,0.210383,0.977278,-0.023964,0.034475,-0.004134,0.003944
1417,0.2104,0.977275,-0.023918,0.036029,-0.00082,0.007682
1418,0.210426,0.977272,-0.023829,0.035943,0.001778,0.004847
1419,0.210436,0.977272,-0.0237229999999999,0.037137,-0.000252,0.006984
1420,0.210436,0.977275,-0.023607,0.038129,9.6e-05,0.004564
1421,0.210402,0.977285,-0.023515,0.032472,-0.002554,0.0047009999999999
1422,0.2103409999999999,0.977299,-0.023466,0.035753,0.0008349999999999,0.004987
1423,0.210306,0.977307,-0.02344,0.035117,-0.000882,0.004229
1424,0.210288,0.977312,-0.023412,0.036507,0.002409,0.0063219999999999
1425,0.210256,0.97732,-0.023378,0.036418,0.001074,0.005251
1426,0.210198,0.977332,-0.023392,0.034843,0.002267,0.006806
1427,0.2101489999999999,0.977342,-0.023392,0.036494,-0.00078,0.005768
1428,0.210121,0.977349,-0.023369,0.034325,-0.000695,0.0051049999999999
1429,0.210082,0.977357,-0.02337,0.038423,0.005034,0.005472
1430,0.210027,0.977369,-0.02337,0.036113,-0.001112,0.007623
1431,0.209994,0.977377,-0.023352,0.035276,0.000361,0.005072
1432,0.20994,0.977388,-0.023341,0.037176,0.001478,0.006282
1433,0.2098949999999999,0.977398,-0.02336,0.036931,0.0030859999999999,0.0077959999999999
1434,0.209835,0.977409,-0.023406,0.037143,0.005074,0.008467
1435,0.2097929999999999,0.977417,-0.023437,0.035278,-0.0008089999999999,0.005828
1436,0.2097429999999999,0.977428,-0.023461,0.033757,0.001332,0.006661
1437,0.209654,0.977446,-0.023493,0.03232,-0.000563,0.00561
1438,0.209537,0.977469,-0.023571,0.0379759999999999,0.002969,0.003704
1439,0.2094469999999999,0.977487,-0.023653,0.036189,-0.000131,0.007417
1440,0.20934,0.977508,-0.02374,0.033565,-0.000152,0.004712
1441,0.2092369999999999,0.977528,-0.023816,0.040489,0.004802,0.00993
1442,0.20913,0.977547,-0.023967,0.040077,0.001258,0.0085709999999999
1443,0.2090679999999999,0.977558,-0.024055,0.036538,-0.001057,0.0066599999999999
1444,0.208936,0.977585,-0.0241009999999999,0.0347779999999999,-0.001084,0.006065
1445,0.208769,0.977621,-0.02409,0.038301,-0.001547,0.00729
1446,0.208619,0.977655,-0.0240319999999999,0.037627,0.002448,0.006393
1447,0.2084659999999999,0.977688,-0.023994,0.036117,-0.0011099999999999,0.006522
1448,0.208314,0.977719,-0.024046,0.0357959999999999,0.001635,0.007094
1449,0.2081889999999999,0.977744,-0.024135,0.0379959999999999,0.00303,0.007045
1450,0.208117,0.977756,-0.024279,0.039442,0.003461,0.005389
1451,0.208075,0.977761,-0.0244479999999999,0.035822,-0.001442,0.00626
1452,0.208026,0.977767,-0.024604,0.0374269999999999,-0.001037,0.005378
1453,0.208006,0.977767,-0.024793,0.034517,-0.002577,0.008008
1454,0.207975,0.977768,-0.024995,0.037768,0.00357,0.007143
1455,0.20792,0.977775,-0.025203,0.036251,-0.0041259999999999,0.005474
1456,0.207855,0.977783,-0.025398,0.034836,0.002487,0.00457
1457,0.207755,0.977801,-0.0255449999999999,0.038293,0.003309,0.005418
1458,0.207625,0.977826,-0.025647,0.036988,0.0004,0.005139
1459,0.207529,0.977844,-0.025723,0.038153,0.000793,0.005856
1460,0.207512,0.977845,-0.025838,0.035454,0.001861,0.007375
1461,0.2075949999999999,0.977822,-0.026056,0.035889,-3.8e-05,0.009333
1462,0.207701,0.97779,-0.0264009999999999,0.037249,0.001504,0.008366
1463,0.207767,0.977765,-0.026787,0.0393639999999999,0.000216,0.004479
1464,0.207744,0.97776,-0.0271399999999999,0.03864,-0.003853,0.004465
1465,0.207616,0.977781,-0.027361,0.0393779999999999,-0.0022719999999999,0.002595
1466,0.207427,0.97782,-0.027447,0.038301,0.0002379999999999,0.004574
1467,0.207211,0.977864,-0.027507,0.036106,0.002071,0.006664
1468,0.207056,0.977894,-0.027607,0.035483,0.002774,0.004979
1469,0.2070199999999999,0.977896,-0.027798,0.0366779999999999,0.0049689999999999,0.005138
1470,0.207051,0.977882,-0.0280339999999999,0.035075,0.004372,0.005542
1471,0.2071309999999999,0.977857,-0.028342,0.035545,0.001315,0.004676
1472,0.207296,0.977811,-0.02871,0.034373,0.002627,0.006416
1473,0.20747,0.977762,-0.029125,0.035389,0.001761,0.008877
1474,0.207637,0.977713,-0.029567,0.033162,-0.003668,0.009608
1475,0.207827,0.977659,-0.030036,0.033308,0.001299,0.0074069999999999
1476,0.208006,0.977605,-0.03053,0.032442,0.001063,0.0121129999999999
1477,0.2082,0.977548,-0.03106,0.034201,0.000266,0.007927
1478,0.208367,0.977495,-0.031589,0.036827,0.000837,0.006168
1479,0.2084929999999999,0.977451,-0.032124,0.034916,-0.0005679999999999,0.005208
1480,0.208576,0.977417,-0.0326129999999999,0.038861,-7.7e-05,0.002858
1481,0.208678,0.97738,-0.033073,0.038743,0.000647,0.003334
1482,0.2087679999999999,0.977346,-0.033524,0.035785,0.000483,0.0017699999999999
1483,0.208892,0.977305,-0.033936,0.036881,0.001302,0.000656
1484,0.209015,0.977265,-0.034355,0.040817,0.000534,0.003136
1485,0.209115,0.977229,-0.034769,0.037574,-0.001795,0.001734
1486,0.209259,0.977185,-0.035127,0.036209,-0.002133,0.003496
1487,0.209332,0.97716,-0.0353949999999999,0.035297,-0.001009,0.003321
1488,0.209436,0.977132,-0.035563,0.039603,0.000529,0.002909
1489,0.209553,0.977102,-0.035694,0.035015,0.002085,0.0018809999999999
1490,0.2096449999999999,0.977077,-0.03585,0.035976,0.002995,0.002983
1491,0.209742,0.977048,-0.036066,0.035619,0.001514,0.005228
1492,0.209877,0.977009,-0.036328,0.037666,0.001003,0.00131
1493,0.210015,0.97697,-0.036592,0.037788,-0.000713,0.000597
1494,0.210166,0.976928,-0.036828,0.035531,0.0008089999999999,-7.000000000000001e-06
1495,0.2102969999999999,0.976892,-0.037064,0.039215,-0.0001,0.0028079999999999
1496,0.210421,0.976856,-0.037312,0.038343,0.001431,0.004018
1497,0.210559,0.976816,-0.037571,0.038449,-0.000482,0.003117
1498,0.210671,0.976781,-0.0378509999999999,0.038566,0.001124,0.003809
1499,0.210746,0.976754,-0.038131,0.0374839999999999,0.000495,0.00537
1500,0.210781,0.976738,-0.038353,0.03841,-0.001534,0.00541
1501,0.210823,0.976724,-0.038494,0.039299,-0.0021449999999999,0.005581
1502,0.210846,0.976715,-0.038595,0.039185,0.00084,0.004873
1503,0.21083,0.976715,-0.038679,0.036225,0.000412,0.005201
1504,0.210869,0.976702,-0.0387949999999999,0.036888,0.001539,0.006904
1505,0.210954,0.976678,-0.038916,0.03871,0.000342,0.004644
1506,0.211044,0.976654,-0.039035,0.039017,0.000946,0.006182
1507,0.21114,0.976628,-0.039169,0.040173,-0.0001419999999999,0.006043
1508,0.211232,0.976603,-0.039305,0.040843,-0.001001,0.006484
1509,0.211308,0.976582,-0.039409,0.040859,-0.000935,0.004711
1510,0.211331,0.976576,-0.039448,0.039615,-0.001127,0.006031
1511,0.2113159999999999,0.976579,-0.039452,0.04079,-0.000169,0.006142
1512,0.211299,0.976584,-0.039421,0.040974,0.000528,0.005317
1513,0.2112699999999999,0.976593,-0.03935,0.0362269999999999,0.001343,0.004057
1514,0.2112389999999999,0.976602,-0.039291,0.041645,0.0009369999999999,0.003677
1515,0.211203,0.97661,-0.039298,0.039636,-0.001222,0.003012
1516,0.211217,0.976605,-0.039336,0.041667,-0.000531,0.006484
1517,0.211243,0.976598,-0.039374,0.039352,-0.000325,0.004645
1518,0.211203,0.976606,-0.039395,0.038675,-0.000623,0.005506
1519,0.2111489999999999,0.976617,-0.039411,0.037005,-0.0006799999999999,0.005552
1520,0.211125,0.976623,-0.0394,0.036708,-0.000243,0.00403
1521,0.211042,0.976644,-0.039331,0.035388,-0.000966,0.0063729999999999
1522,0.210963,0.976663,-0.039281,0.035191,0.001395,0.004872
1523,0.210918,0.976673,-0.03927,0.035039,0.002254,0.007059
1524,0.2108969999999999,0.976677,-0.039291,0.034418,0.002373,0.006561
1525,0.210955,0.976663,-0.0393279999999999,0.035169,0.002814,0.003043
1526,0.211081,0.976634,-0.039369,0.033502,0.003499,0.003938
1527,0.211162,0.976613,-0.039465,0.034733,0.004085,0.008917
1528,0.2112409999999999,0.976592,-0.039556,0.035982,0.000978,0.006826
1529,0.2113199999999999,0.976574,-0.039582,0.031996,-0.0010949999999999,0.004364
1530,0.211358,0.976566,-0.039575,0.0331329999999999,-0.002155,0.00329
1531,0.211412,0.976557,-0.039514,0.033522,-0.0020239999999999,0.005487
1532,0.211452,0.976551,-0.039447,0.032811,0.000408,0.00452
1533,0.211535,0.976532,-0.039456,0.0307899999999999,0.003372,0.007916
1534,0.2116199999999999,0.97651,-0.039547,0.028904,0.003669,0.004605
1535,0.2117119999999999,0.976485,-0.039675,0.030918,0.002992,0.007189
1536,0.211837,0.976452,-0.0398209999999999,0.0350199999999999,0.00188,0.00407
1537,0.211973,0.976418,-0.039938,0.032442,0.001961,0.003317
1538,0.212086,0.976389,-0.040038,0.0315509999999999,0.0026609999999999,0.004668
1539,0.212195,0.976359,-0.04018,0.031427,0.00031,0.006504
1540,0.2123139999999999,0.976328,-0.040318,0.0330779999999999,0.001501,0.006993
1541,0.212388,0.976307,-0.040438,0.032103,0.00108,0.005953
1542,0.212414,0.976297,-0.04053,0.032734,0.001242,0.002902
1543,0.2124869999999999,0.976276,-0.0406459999999999,0.038718,0.001812,0.004055
1544,0.212621,0.976242,-0.040768,0.038127,0.002914,0.001644
1545,0.212786,0.976201,-0.040905,0.038862,0.002055,0.0034289999999999
1546,0.212939,0.97616,-0.041083,0.042172,0.002722,0.002234
1547,0.213026,0.976132,-0.041288,0.04027,-0.0019199999999999,0.003172
1548,0.213048,0.976119,-0.041476,0.039179,-0.002365,0.0017109999999999
1549,0.213069,0.97611,-0.041591,0.042866,-0.000188,0.004055
1550,0.213111,0.976097,-0.041671,0.0415279999999999,0.000923,0.002059
1551,0.213154,0.976086,-0.041724,0.04118,0.003421,0.004889
1552,0.213223,0.976068,-0.041795,0.041904,0.000601,0.004823
1553,0.213331,0.976042,-0.041859,0.042956,-0.001219,0.001499
1554,0.213437,0.976015,-0.041956,0.04285,-0.001192,0.001596
1555,0.2135969999999999,0.975977,-0.042007,0.043376,-0.00178,0.003097
1556,0.2137219999999999,0.975948,-0.042048,0.0430829999999999,0.000126,0.00416
1557,0.213815,0.975927,-0.042065,0.04299,0.000147,0.004177
1558,0.21391,0.975905,-0.042098,0.041095,-0.001509,0.0031579999999999
1559,0.2140099999999999,0.975881,-0.0421459999999999,0.041102,0.001566,0.004685
1560,0.21415,0.975847,-0.04221,0.04029,0.001356,0.0052829999999999
1561,0.2142619999999999,0.975819,-0.042308,0.038775,-0.000843,0.007762
1562,0.214377,0.975789,-0.042401,0.038903,0.0014449999999999,0.006925
1563,0.214466,0.975764,-0.0425399999999999,0.039258,0.003209,0.009428
1564,0.214557,0.975737,-0.042695,0.0352139999999999,-0.00067,0.006455
1565,0.214638,0.975713,-0.042832,0.038139,0.002864,0.005234
1566,0.2146829999999999,0.975692,-0.043077,0.037209,0.001892,0.010881
1567,0.214715,0.975675,-0.043315,0.03498,-0.002668,0.003352
1568,0.2147659999999999,0.975658,-0.043441,0.036104,0.00124,0.006225
1569,0.21474,0.975661,-0.043499,0.037457,0.001099,0.0075489999999999
1570,0.2147099999999999,0.975672,-0.043417,0.038921,-0.000131,0.00469
1571,0.214685,0.975683,-0.043289,0.038153,0.001292,0.004929
1572,0.214614,0.975702,-0.043202,0.037079,0.000448,0.006917
1573,0.214546,0.975719,-0.043162,0.036064,0.001805,0.006068
1574,0.214506,0.975728,-0.0431449999999999,0.039263,0.000361,0.006325
1575,0.21447,0.975735,-0.043161,0.037147,-0.0004089999999999,0.004084
1576,0.2144579999999999,0.975737,-0.043182,0.038303,-0.000151,0.002655
1577,0.214453,0.975737,-0.043195,0.035669,0.001359,0.005353
1578,0.214476,0.975728,-0.043288,0.037462,-0.000249,0.005004
1579,0.214492,0.975717,-0.043458,0.040894,0.009253,0.005006
1580,0.214551,0.975692,-0.043735,0.034716,6.2e-05,0.005954
1581,0.2146469999999999,0.975655,-0.044097,0.035826,0.0003129999999999,0.0037979999999999
1582,0.2148159999999999,0.975599,-0.044498,0.039182,0.000277,0.0023079999999999
1583,0.21505,0.97553,-0.044879,0.039008,-0.000386,0.001971
1584,0.215246,0.975474,-0.045144,0.037638,-0.006282,0.0004509999999999
1585,0.215363,0.975442,-0.045284,0.038619,-0.001321,0.003322
1586,0.215411,0.97543,-0.045308,0.037549,-0.001767,0.0040479999999999
1587,0.215414,0.975432,-0.045251,0.033884,-0.002715,0.004235
1588,0.2153429999999999,0.975453,-0.04514,0.033924,-0.001301,0.001698
1589,0.2152469999999999,0.97548,-0.04502,0.036157,-0.000642,0.002143
1590,0.215223,0.975492,-0.044871,0.037813,0.000933,0.002833
1591,0.215194,0.975505,-0.044724,0.038026,0.001652,0.001084
1592,0.2151719999999999,0.975517,-0.044575,0.038948,0.002342,0.0002029999999999
1593,0.215128,0.975533,-0.044443,0.037833,-0.001992,-0.000784
1594,0.215112,0.975545,-0.044269,0.039848,-0.003987,0.000781
1595,0.215098,0.975558,-0.044029,0.040701,0.002072,5.3e-05
1596,0.215052,0.97558,-0.04378,0.039693,-0.00126,0.001071
1597,0.215032,0.975596,-0.043505,0.039317,-0.003749,7.900000000000001e-05
1598,0.214961,0.975626,-0.0432009999999999,0.03861,-0.001321,0.001102
1599,0.214884,0.975658,-0.0428529999999999,0.040212,-0.0033829999999999,-0.000283
1600,0.214788,0.975695,-0.0424709999999999,0.040187,0.002134,0.002234
1601,0.214652,0.975744,-0.042041,0.035653,-0.0003109999999999,0.004169
1602,0.214519,0.975791,-0.041627,0.035618,-0.001258,0.004578
1603,0.214451,0.975821,-0.041269,0.037853,0.003442,0.007242
1604,0.2143969999999999,0.975845,-0.040985,0.040715,0.002014,0.005249
1605,0.214371,0.975864,-0.040671,0.039688,0.00047,0.0035
1606,0.214348,0.975884,-0.040323,0.036873,-0.000939,0.006265
1607,0.2143179999999999,0.975907,-0.0399029999999999,0.036292,-0.002107,0.005525
1608,0.214297,0.97593,-0.039443,0.038602,-0.0019309999999999,0.007095
1609,0.214259,0.975957,-0.038993,0.03864,0.000682,0.006919
1610,0.214194,0.975986,-0.0386279999999999,0.036646,0.0019039999999999,0.0070569999999999
1611,0.214171,0.976002,-0.038342,0.036943,0.002437,0.0069849999999999
1612,0.214131,0.976019,-0.038136,0.040202,0.004816,0.008961
1613,0.21415,0.976021,-0.037972,0.037452,0.002937,0.005684
1614,0.21418,0.976018,-0.037887,0.035393,0.0012619999999999,0.00685
1615,0.214246,0.976004,-0.037854,0.03702,0.001245,0.011303
1616,0.214321,0.975987,-0.037866,0.0359839999999999,-0.001531,0.01069
1617,0.214356,0.975979,-0.037873,0.0361779999999999,-0.001156,0.008744
1618,0.2143969999999999,0.975973,-0.037805,0.035084,0.001994,0.008417
1619,0.2143949999999999,0.975978,-0.037692,0.036261,-0.000331,0.009692
1620,0.2143,0.976004,-0.037561,0.036341,0.00036,0.009592
1621,0.214228,0.976025,-0.037417,0.036154,0.001026,0.009081
1622,0.214169,0.976043,-0.037285,0.035876,0.002473,0.009148
1623,0.214109,0.97606,-0.037196,0.0357839999999999,0.0025629999999999,0.010448
1624,0.214115,0.97606,-0.0371509999999999,0.034939,0.00273,0.0100209999999999
1625,0.214175,0.976049,-0.037101,0.033902,0.002848,0.007286
1626,0.214217,0.976043,-0.03702,0.0331589999999999,0.003358,0.0073269999999999
1627,0.214245,0.97604,-0.036929,0.033802,0.003178,0.0073269999999999
1628,0.21431,0.97603,-0.036813,0.037811,0.005659,0.008554
1629,0.214331,0.97603,-0.036693,0.0346319999999999,0.001082,0.007915
1630,0.214371,0.976024,-0.0366,0.0350339999999999,0.002705,0.0039
1631,0.214394,0.976021,-0.036557,0.035805,0.000526,0.00517
1632,0.2143949999999999,0.97602,-0.03657,0.034476,-0.000343,0.003153
1633,0.2144039999999999,0.976017,-0.036612,0.038038,0.0026969999999999,0.001837
1634,0.214317,0.976032,-0.036703,0.035653,-0.0010869999999999,0.003134
1635,0.214252,0.976042,-0.03683,0.04083,-0.0004559999999999,0.002391
1636,0.214178,0.976053,-0.036976,0.046854,-0.003717,0.00597
1637,0.214083,0.976072,-0.037013,0.046797,-0.002653,0.007442
1638,0.2139619999999999,0.976101,-0.036946,0.051877,-0.001141,0.008123
1639,0.213925,0.976118,-0.036715,0.051273,0.001482,0.007281
1640,0.213942,0.976122,-0.036508,0.056276,0.0073219999999999,0.015787
1641,0.213934,0.976124,-0.036513,0.058298,0.005749,0.016295
1642,0.2140139999999999,0.976097,-0.036756,0.043692,0.006676,0.005934
1643,0.214216,0.976038,-0.037149,0.031862,0.000815,0.004251
1644,0.214426,0.97597,-0.0377129999999999,0.043799,-0.0052369999999999,0.0006799999999999
1645,0.214705,0.97588,-0.038446,0.0617539999999999,-0.005879,-0.000769
1646,0.2149739999999999,0.975787,-0.039307,0.069678,-0.001818,-0.00029
1647,0.2151199999999999,0.975713,-0.0403209999999999,0.057249,0.003031,0.004478
1648,0.215056,0.975677,-0.041518,0.045686,0.0044859999999999,0.006774
1649,0.214929,0.97565,-0.042809,0.039908,0.002729,0.015008
1650,0.214884,0.975602,-0.04412,0.039968,-0.000153,0.019675
1651,0.214812,0.975562,-0.045332,0.036668,-0.000388,0.020384
1652,0.2145949999999999,0.975559,-0.046417,0.038915,0.00314,0.022994
1653,0.214144,0.975622,-0.047165,0.039106,-0.001302,0.019699
1654,0.213411,0.975773,-0.047353,0.048155,-0.004658,0.0177669999999999
1655,0.21228,0.976042,-0.046895,0.061157,-0.00604,0.0140889999999999
1656,0.210912,0.976385,-0.045913,0.057704,-0.008199,0.013274
1657,0.20933,0.976783,-0.044661,0.0657399999999999,-0.011283,0.009016
1658,0.207467,0.977238,-0.04339,0.071601,-0.0090829999999999,0.0067069999999999
1659,0.205488,0.977706,-0.042246,0.077318,-0.009368,0.00979
1660,0.203604,0.978136,-0.041385,0.082147,-0.004626,0.00925
1661,0.20178,0.978535,-0.040891,0.0822929999999999,0.000454,0.012022
1662,0.200001,0.978907,-0.040724,0.081768,0.001791,0.010329
1663,0.198193,0.979267,-0.040882,0.06795,0.002254,0.0107
1664,0.1962549999999999,0.979644,-0.041216,0.061694,-0.001387,0.016848
1665,0.194189,0.980033,-0.041731,0.0615029999999999,-0.007316,0.0196819999999999
1666,0.191988,0.980444,-0.042276,0.056502,-0.0033469999999999,0.022989
1667,0.189541,0.980896,-0.04282,0.0528909999999999,-0.004151,0.019596
1668,0.186777,0.9814,-0.043419,0.0599429999999999,-0.009522,0.025291
1669,0.183823,0.981933,-0.043965,0.074463,-0.006134,0.030049
1670,0.180639,0.982505,-0.044383,0.093501,-0.005958,0.029994
1671,0.177137,0.983126,-0.0447399999999999,0.101306,-0.005862,0.022691
1672,0.173429,0.98378,-0.044905,0.095401,-0.010147,0.019224
1673,0.169643,0.984445,-0.044793,0.08202,-0.005746,0.02575
1674,0.166024,0.985073,-0.044552,0.079002,-0.002514,0.031018
1675,0.162864,0.985617,-0.044191,0.069253,-0.006811,0.031938
1676,0.159963,0.986107,-0.043849,0.077418,0.004142,0.033824
1677,0.157021,0.98659,-0.04363,0.079811,-0.001513,0.035146
1678,0.15417,0.987062,-0.0431029999999999,0.062718,-0.005189,0.029599
1679,0.151483,0.987518,-0.042172,0.050544,0.001999,0.028393
1680,0.148793,0.987977,-0.040975,0.053173,0.003753,0.027044
1681,0.14619,0.988426,-0.039485,0.060109,-0.0025399999999999,0.026652
1682,0.143851,0.988838,-0.037709,0.0609679999999999,-0.0019,0.031758
1683,0.1418589999999999,0.9892,-0.035698,0.060045,-0.0004309999999999,0.029671
1684,0.140303,0.989496,-0.033589,0.024965,0.0004179999999999,0.016682
1685,0.139022,0.989739,-0.031679,0.016587,0.001044,0.011553
1686,0.137877,0.989947,-0.030159,0.014223,-0.007205,0.006829
1687,0.136649,0.990153,-0.028954,0.029657,-0.0042829999999999,0.003442
1688,0.135196,0.990378,-0.0280699999999999,0.033047,-0.002006,0.004418
1689,0.133441,0.990636,-0.027389,0.040342,-0.002888,0.003692
1690,0.131367,0.990925,-0.026954,0.043254,-0.0076019999999999,0.006171
1691,0.12919,0.991216,-0.02677,0.047507,-0.010823,0.001669
1692,0.127173,0.991473,-0.02691,0.033776,-0.002398,-0.001227
1693,0.12539,0.991688,-0.027363,0.022575,0.003704,-0.005382
1694,0.1238529999999999,0.991862,-0.028054,0.012026,0.008947,-0.006096
1695,0.1225349999999999,0.992001,-0.028918,0.006188,0.010471,-0.002027
1696,0.121228,0.992135,-0.029822,0.005374,-0.001397,-0.002649
1697,0.119649,0.992297,-0.030792,0.015742,-0.004229,-0.001755
1698,0.117794,0.992488,-0.03177,0.022633,0.001088,-0.001189
1699,0.115896,0.992673,-0.032948,0.0208229999999999,0.018725,0.008442
1700,0.114271,0.992816,-0.034281,0.01169,0.011105,0.015421
1701,0.112888,0.992926,-0.0356649999999999,0.0177879999999999,0.004572,0.018255
1702,0.111799,0.993001,-0.036979,0.024493,0.0056409999999999,0.017417
1703,0.110929,0.993051,-0.038243,0.023425,0.013068,0.011632
1704,0.1102099999999999,0.993076,-0.039649,0.015064,0.0087099999999999,0.01078
1705,0.109742,0.993056,-0.041399,0.004897,0.0030989999999999,0.002337
1706,0.1095869999999999,0.99297,-0.043813,0.001893,0.006908,0.004018
1707,0.109678,0.992801,-0.047273,0.001147,0.013516,0.0049
1708,0.109864,0.992543,-0.052024,-0.014359,0.032329,0.021445
1709,0.110328,0.992172,-0.05781,-0.019843,0.026398,0.01565
1710,0.111221,0.991695,-0.063954,-0.017044,0.023946,0.016179
1711,0.112489,0.991151,-0.0699,-0.004411,0.008559,0.005981
1712,0.114149,0.990532,-0.075739,0.0034649999999999,0.0114209999999999,-0.0048579999999999
1713,0.116147,0.989814,-0.08184,0.003619,0.010781,-0.004281
1714,0.1182579999999999,0.989031,-0.088054,0.009352,0.007353,-0.002202
1715,0.120475,0.988184,-0.094334,0.029717,-0.007029,0.000935
1716,0.122898,0.987279,-0.100491,0.029873,-0.007954,0.00607
1717,0.125572,0.986317,-0.106455,0.027367,-0.009892,0.006846
1718,0.128545,0.985295,-0.112215,0.024806,-0.01418,0.003618
1719,0.13165,0.98424,-0.117743,0.0195949999999999,-0.007205,0.001059
1720,0.134573,0.983216,-0.122884,0.028742,0.000762,0.001302
1721,0.137048,0.982304,-0.127359,0.049826,0.002849,-0.008582
1722,0.139089,0.98151,-0.131213,0.0492509999999999,0.005246,-0.008862
1723,0.140977,0.980792,-0.134527,0.046507,-0.002398,-0.010706
1724,0.14268,0.98014,-0.137449,0.0449269999999999,-0.008171,-0.005877
1725,0.14394,0.979619,-0.139828,0.049266,-0.016378,0.000272
1726,0.14479,0.979231,-0.141657,0.052613,-0.017134,0.002177
1727,0.145346,0.978943,-0.143073,0.0449769999999999,0.007553,0.000724
1728,0.145554,0.978762,-0.144093,0.038421,0.019941,0.001423
1729,0.145465,0.978684,-0.1447109999999999,0.0339939999999999,0.013458,0.001324
1730,0.1452,0.978661,-0.1451309999999999,0.032519,-0.002495,-0.006053
1731,0.144879,0.978635,-0.145628,0.035755,0.003803,-0.003176
1732,0.144587,0.978617,-0.146029,0.030706,0.004186,-0.010068
1733,0.144119,0.978622,-0.1464609999999999,0.026794,0.004517,-0.0064629999999999
1734,0.143512,0.978624,-0.147046,0.033841,0.009551,-0.001117
1735,0.142974,0.978583,-0.147841,0.034669,0.006875,0.0041189999999999
1736,0.142892,0.978463,-0.1487079999999999,0.033484,8.3e-05,0.010631
1737,0.143247,0.978292,-0.14949,0.029299,0.008066,0.000137
1738,0.143716,0.978036,-0.1507089999999999,0.015341,0.0276399999999999,-0.026476
1739,0.143621,0.977651,-0.153275,0.019083,0.041621,-0.014511
1740,0.14286,0.977143,-0.1571789999999999,0.020089,0.039229,0.010863
1741,0.141721,0.976657,-0.16118,0.02225,0.019772,0.038423
1742,0.140481,0.976281,-0.164509,0.020057,0.017508,0.017414
1743,0.139274,0.975992,-0.16723,0.020958,0.036795,-0.014426
1744,0.138175,0.975444,-0.171287,0.023766,0.03838,-0.040246
1745,0.136962,0.974314,-0.178545,0.027604,0.0393279999999999,-0.0230389999999999
1746,0.135914,0.97257,-0.188573,0.0317649999999999,0.0171,0.033208
1747,0.135934,0.970642,-0.198248,0.026969,-0.007736,0.0378779999999999
1748,0.13695,0.968858,-0.206117,0.012372,-0.000932,0.010973
1749,0.137852,0.967278,-0.212833,0.0190539999999999,0.00547,-0.01846
1750,0.137791,0.965806,-0.219454,0.023601,0.0092459999999999,0.002245
1751,0.136797,0.964549,-0.2255239999999999,0.036222,0.001516,0.030166
1752,0.135686,0.963647,-0.230006,0.038066,-0.0063869999999999,0.040431
1753,0.135054,0.963127,-0.232541,0.033388,-0.010811,0.022275
1754,0.134521,0.962925,-0.233685,0.0254819999999999,-0.010868,-0.007144
1755,0.1335319999999999,0.962904,-0.234337,0.027585,-0.005522,-0.005989
1756,0.132065,0.963017,-0.234704,0.0325769999999999,-0.008518,0.0031829999999999
1757,0.1305329999999999,0.96328,-0.234481,0.043509,-0.01078,0.006301
1758,0.129233,0.963666,-0.233612,0.042489,-0.017667,0.007431
1759,0.128158,0.964226,-0.231888,0.0471959999999999,-0.013405,0.003113
1760,0.1274279999999999,0.964983,-0.229125,0.043821,-0.013704,-0.012636
1761,0.127043,0.965833,-0.22573,0.037218,-0.010572,-0.021233
1762,0.126652,0.966686,-0.222273,0.0446579999999999,-0.017452,-0.010103
1763,0.126306,0.967617,-0.218381,0.046301,-0.028149,-0.007526
1764,0.126315,0.968622,-0.213873,0.041608,-0.02688,-0.002253
1765,0.126699,0.969679,-0.2087929999999999,0.0382029999999999,-0.030074,0.000145
1766,0.127445,0.970796,-0.203074,0.031521,0.010665,0.019617
1767,0.128103,0.972058,-0.196513,0.053736,-0.042142,0.028636
1768,0.128882,0.973414,-0.189152,0.062737,0.028356,0.0395709999999999
1769,0.129582,0.974887,-0.1809079999999999,0.049526,0.054532,0.028686
1770,0.130066,0.976392,-0.172233,0.031982,0.055514,0.01522
1771,0.129908,0.977843,-0.163917,0.022481,0.017427,-0.005578
1772,0.129604,0.979111,-0.156411,0.029408,-0.031052,-0.0302649999999999
1773,0.129264,0.980137,-0.150137,0.03547,-0.019612,-0.033579
1774,0.129771,0.980785,-0.145395,0.0517629999999999,-0.020885,-0.026343
1775,0.131044,0.981155,-0.141708,0.051466,-0.016265,-0.013626
1776,0.132619,0.981407,-0.138461,0.047343,-0.003028,-0.012494
1777,0.133998,0.981681,-0.135149,0.0548289999999999,0.007943,-0.012053
1778,0.134814,0.982057,-0.131552,0.060651,0.007536,0.000235
1779,0.135012,0.982495,-0.12803,0.060072,0.011569,0.002862
1780,0.135265,0.982859,-0.1249319999999999,0.048161,0.018866,0.005883
1781,0.135966,0.983117,-0.122101,0.035756,0.018637,0.00029
1782,0.136787,0.983305,-0.119647,0.02137,0.014925,-0.006101
1783,0.13705,0.98356,-0.117221,0.018422,0.0004639999999999,-0.0017519999999999
1784,0.136668,0.983936,-0.114478,0.033025,-0.002048,-0.007669
1785,0.136453,0.984279,-0.111752,0.041297,-0.002987,-0.009342
1786,0.136863,0.984494,-0.10933,0.040093,-0.00398,-0.00093
1787,0.137761,0.984625,-0.106999,0.037105,0.002664,-0.001644
1788,0.138623,0.984767,-0.104557,0.037449,0.003942,-0.00584
1789,0.139261,0.984934,-0.102102,0.033698,0.021978,-0.01475
1790,0.139492,0.985099,-0.10017,0.033863,0.0460589999999999,-0.006306
1791,0.139458,0.985213,-0.099092,0.035972,0.055238,-0.002852
1792,0.1393859999999999,0.985284,-0.098487,0.0406529999999999,0.038123,0.020484
1793,0.1393039999999999,0.985377,-0.097662,0.040139,0.030889,0.021948
1794,0.139013,0.985539,-0.096436,0.034068,0.028011,0.020814
1795,0.1384,0.985767,-0.094969,0.021619,0.0034289999999999,0.015105
1796,0.137317,0.986073,-0.09336,0.020841,-0.005161,0.014716
1797,0.135669,0.986453,-0.091732,0.0212979999999999,-0.004672,0.017818
1798,0.133724,0.986863,-0.09017,0.024968,-0.001832,0.034186
1799,0.131922,0.987229,-0.088801,0.0283709999999999,0.010558,0.040645
1800,0.130373,0.98756,-0.0874009999999999,0.028502,0.012791,0.036131
1801,0.12932,0.98782,-0.086016,0.038603,0.020329,0.037066
1802,0.128496,0.988022,-0.084926,0.047988,0.019135,0.0311839999999999
1803,0.127753,0.9882,-0.083965,0.043664,0.016454,0.0260269999999999
1804,0.127098,0.988374,-0.082902,0.041984,0.003524,0.027085
1805,0.126413,0.988553,-0.0818059999999999,0.04537,-0.004208,0.026157
1806,0.1255609999999999,0.988745,-0.080786,0.045612,-0.011129,0.027395
1807,0.124671,0.988931,-0.0798779999999999,0.043588,-0.0004969999999999,0.029005
1808,0.1238869999999999,0.989087,-0.079163,0.044051,-0.00195,0.0344089999999999
1809,0.123378,0.989192,-0.078637,0.044148,0.0029649999999999,0.036569
1810,0.12295,0.989271,-0.078318,0.042135,0.008227,0.041911
1811,0.122582,0.989341,-0.078008,0.039024,0.009256,0.039602
1812,0.122215,0.989409,-0.077712,0.040291,0.009294,0.038848
