,gravity.x,gravity.y,gravity.z,userAcceleration.x,userAcceleration.y,userAcceleration.z
0,0.185901,0.981323,0.049441,-0.050953,-0.01596,0.056272
1,0.186014,0.981387,0.0477029999999999,-0.0155889999999999,-0.01192,0.04063
2,0.185302,0.981596,0.046162,-0.005096,-0.0121129999999999,0.03825
3,0.184267,0.98181,0.045734,0.001417,-0.021758,0.024487
4,0.183313,0.981948,0.04659,0.017966,-0.0165699999999999,0.005855
5,0.182772,0.981934,0.04895,0.024961,-0.00029,0.003998
6,0.182561,0.981812,0.052072,0.0323279999999999,0.016982,0.006735
7,0.182623,0.981629,0.055212,0.019769,0.0282279999999999,0.001276
8,0.183069,0.981397,0.057795,0.008322,0.02936,-0.007227
9,0.18375,0.981173,0.059421,-0.005985,0.0307139999999999,-0.011967
10,0.18429,0.981036,0.0600039999999999,-0.008173,0.022459,0.003915
11,0.184702,0.981,0.059313,-0.0074099999999999,0.020861,0.009977
12,0.1850349999999999,0.981053,0.057369,-0.009544,0.01678,0.016468
13,0.185282,0.981152,0.054827,-0.011851,0.006046,0.04344
14,0.185396,0.981251,0.052611,-0.0095079999999999,-0.003682,0.060823
15,0.185492,0.981341,0.050539,0.009378,-0.013537,0.06146
16,0.185267,0.981493,0.048385,0.007604,0.090437,0.116532
17,0.183872,0.981836,0.046704,-0.150562,0.0062619999999999,0.0363649999999999
18,0.184223,0.981801,0.046056,-0.164524,-0.043599,-0.034703
19,0.185074,0.981498,0.049004,-0.004196,-0.0280829999999999,-0.041283
20,0.184335,0.981417,0.053239,0.127616,-0.08983,-0.042878
21,0.183278,0.981512,0.055102,0.173732,-0.041219,0.010114
22,0.1817079999999999,0.981857,0.054147,-0.067282,0.110444,0.072333
23,0.181256,0.981912,0.054661,-0.115873,0.082526,0.041607
24,0.181055,0.981868,0.056101,-0.061274,0.042577,0.036261
25,0.1804319999999999,0.981972,0.056283,0.029056,-0.027443,-0.022561
26,0.178953,0.982299,0.055297,0.023516,-0.027404,-0.04605
27,0.17707,0.982694,0.0543159999999999,0.0258259999999999,-0.026807,-0.040217
28,0.174967,0.983087,0.054025,0.025259,-0.005044,-0.0169759999999999
29,0.173487,0.983331,0.05434,0.016531,0.012503,-0.001254
30,0.17218,0.98351,0.055263,0.010255,0.01942,0.007847
31,0.171185,0.983625,0.0562919999999999,0.004901,0.029101,0.035123
32,0.1702509999999999,0.983728,0.057324,-0.0035789999999999,0.0205139999999999,0.0231509999999999
33,0.169398,0.983829,0.058108,-0.017145,0.01434,0.004987
34,0.168517,0.983943,0.058725,-0.029082,0.01508,-0.005182
35,0.1675829999999999,0.984076,0.059186,-0.026562,0.011759,-0.011853
36,0.166591,0.984256,0.058983,-0.015056,0.008816,-0.0070569999999999
37,0.1655559999999999,0.98448,0.058168,-0.002546,0.012789,-0.009248
38,0.1645339999999999,0.984725,0.056913,0.006639,0.0114,-0.006986
39,0.163645,0.984947,0.055612,0.015691,0.003914,-0.0040219999999999
40,0.163048,0.985108,0.054507,0.0234139999999999,0.001067,-0.012469
41,0.162821,0.985185,0.053795,0.0297899999999999,-0.003602,-0.014428
42,0.1627809999999999,0.9852,0.053647,0.0314329999999999,-0.005845,-0.0146
43,0.162911,0.985157,0.054038,0.034797,-0.000813,-0.0131449999999999
44,0.1633,0.985051,0.054791,0.032333,0.008296,-0.019757
45,0.163868,0.984912,0.055595,0.028072,0.008633,-0.0274269999999999
46,0.164486,0.984769,0.056311,0.0280339999999999,0.01192,-0.02268
47,0.165151,0.984627,0.056835,0.0228979999999999,0.011772,-0.021465
48,0.16583,0.984515,0.056798,0.008456,0.0126769999999999,-0.016332
49,0.166524,0.984431,0.056233,0.012461,0.008443,-0.010106
50,0.167283,0.984347,0.055448,0.011214,0.002134,0.009463
51,0.167868,0.984261,0.055211,0.005716,0.003227,0.016886
52,0.168402,0.984162,0.055362,0.003778,0.005569,0.017422
53,0.168968,0.98405,0.055622,-0.0031969999999999,0.006108,0.011425
54,0.169541,0.983917,0.0562309999999999,-0.0014199999999999,0.010651,0.007963
55,0.170183,0.983749,0.057221,0.002607,0.012833,0.007309
56,0.17094,0.983557,0.058261,3.4e-05,0.00889,0.008573
57,0.1716069999999999,0.983379,0.059288,-0.0028899999999999,0.0068239999999999,-0.0002819999999999
58,0.172087,0.983258,0.059916,0.002123,0.015125,-0.001734
59,0.1726369999999999,0.983156,0.06,0.007539,0.019468,0.005277
60,0.173377,0.983063,0.059385,-0.021827,0.026168,0.046649
61,0.174225,0.98301,0.057762,-0.056351,0.01934,0.062584
62,0.174528,0.98308,0.055622,-0.076246,0.000807,0.067868
63,0.174035,0.98329,0.053417,-0.05111,-0.0086959999999999,0.054707
64,0.1728039999999999,0.983589,0.051889,-0.017378,-0.01432,0.0426389999999999
65,0.171454,0.983862,0.051176,-0.016028,-0.014593,0.043352
66,0.169928,0.984084,0.051996,0.021753,-0.008849,0.013479
67,0.1688619999999999,0.984147,0.0542309999999999,0.037955,0.002014,-0.015428
68,0.168706,0.984005,0.0572059999999999,0.039729,0.021168,-0.023728
69,0.169217,0.983757,0.059896,0.033648,0.0281899999999999,-0.029317
70,0.170202,0.983485,0.0615429999999999,0.008005,0.029729,-0.031727
71,0.171298,0.983311,0.061285,-0.0002319999999999,0.0209759999999999,-0.030416
72,0.172099,0.983271,0.059669,-0.00677,0.011312,-0.0240389999999999
73,0.172657,0.983322,0.0571669999999999,-0.017505,0.014191,0.004509
74,0.172874,0.983475,0.0537659999999999,-0.020225,0.010024,0.037497
75,0.17279,0.983695,0.049867,-0.021469,0.007363,0.054671
76,0.172256,0.983979,0.045967,-0.0199729999999999,-0.008118,0.090767
77,0.171227,0.984298,0.04286,-0.032891,-0.008819,0.068819
78,0.169916,0.984609,0.040891,-0.030496,-0.009176,0.061434
79,0.1683619999999999,0.984896,0.040425,-0.008556,-0.014559,0.027462
80,0.166731,0.985134,0.041375,0.013201,-0.014766,-0.004586
81,0.165074,0.985318,0.04358,0.024501,-0.008832,-0.026871
82,0.163902,0.985359,0.046957,0.035713,-0.0008,-0.042135
83,0.163694,0.985194,0.050966,0.037005,0.021612,-0.046938
84,0.164317,0.984888,0.054727,0.024403,0.034582,-0.04815
85,0.165353,0.984585,0.057002,0.004432,0.040576,-0.05131
86,0.166419,0.984394,0.0572159999999999,-0.005302,0.047467,-0.047816
87,0.167429,0.984329,0.0553559999999999,0.001807,0.037034,-0.04083
88,0.168381,0.984344,0.052105,-0.004761,0.0244759999999999,-0.0240139999999999
89,0.169087,0.984411,0.048419,-0.0276839999999999,0.0114849999999999,0.0053219999999999
90,0.169515,0.984519,0.044584,-0.019887,0.001138,0.040148
91,0.1698589999999999,0.984603,0.041287,-0.010603,-0.008941,0.060184
92,0.170195,0.984641,0.03893,-0.0060869999999999,-0.02172,0.0693309999999999
93,0.170443,0.984641,0.037828,-0.010485,-0.022056,0.073729
94,0.170343,0.984646,0.038141,-0.018182,-0.013363,0.07067
95,0.169878,0.984671,0.03955,-0.011736,-0.002951,0.03528
96,0.16917,0.98472,0.041323,-0.004711,-0.005594,0.023801
97,0.1682789999999999,0.984758,0.043956,0.0091349999999999,-0.0047009999999999,0.005422
98,0.167389,0.984763,0.047124,0.01146,0.01748,-0.013585
99,0.166773,0.984722,0.050064,0.013143,0.019321,-0.020737
100,0.166346,0.984655,0.052736,0.015538,0.026118,-0.0441149999999999
101,0.166118,0.984593,0.0545779999999999,0.015981,0.025081,-0.053372
102,0.166157,0.98455,0.055233,0.020076,0.029931,-0.064877
103,0.1663369999999999,0.984549,0.054706,0.028838,0.0219819999999999,-0.047016
104,0.166748,0.984546,0.0534899999999999,0.02443,0.017758,-0.034966
105,0.167381,0.984522,0.051949,0.024467,0.001349,0.001197
106,0.1680839999999999,0.984469,0.050667,0.023261,-0.002581,0.017967
107,0.168883,0.984382,0.049671,0.018739,-0.000923,0.022427
108,0.169719,0.984283,0.04877,0.009724,-0.001343,0.024457
109,0.170592,0.984166,0.04809,0.004807,0.004344,0.032248
110,0.171457,0.984033,0.047731,-0.001718,0.002218,0.046019
111,0.172128,0.983915,0.047755,-0.014459,0.002703,0.046605
112,0.17242,0.983849,0.048049,-0.021099,0.005622,0.033769
113,0.172345,0.983844,0.048437,-0.016187,0.0067569999999999,0.019221
114,0.172038,0.983877,0.048843,-0.006922,0.011301,0.005219
115,0.1716099999999999,0.983929,0.049305,0.005667,0.011585,-0.001423
116,0.171168,0.983976,0.049893,0.013616,0.007159,-0.005261
117,0.170838,0.984004,0.0504709999999999,0.016235,0.005299,-0.00564
118,0.1706609999999999,0.98401,0.050962,0.016045,0.008681,-0.007963
119,0.1706329999999999,0.983997,0.05131,0.017432,0.010373,-0.011362
120,0.170712,0.98398,0.051375,0.014377,0.011793,-0.014006
121,0.170944,0.983947,0.051229,0.009583,0.0077519999999999,-0.00617
122,0.171272,0.983898,0.0510899999999999,-0.001777,0.008564,0.0096099999999999
123,0.171613,0.983842,0.051016,-0.006085,0.008559,0.008722
124,0.171988,0.983783,0.0509019999999999,-0.007819,0.010037,0.012727
125,0.172349,0.983732,0.050662,-0.015352,0.007982,0.0260889999999999
126,0.1726099999999999,0.983697,0.050444,-0.015078,0.007758,0.027025
127,0.1727,0.983678,0.050508,-0.012956,0.000468,0.021849
128,0.172762,0.983641,0.051009,-0.0144219999999999,4.8e-05,0.0186169999999999
129,0.172742,0.983607,0.051711,-0.016034,0.005162,0.014161
130,0.172605,0.983595,0.052394,-0.009901,0.005816,0.013677
131,0.172325,0.983604,0.053131,-0.0035329999999999,0.001305,0.003342
132,0.172144,0.983572,0.0543019999999999,0.004492,0.00889,0.001286
133,0.172168,0.983502,0.0554789999999999,0.009259,0.012638,0.012468
134,0.172313,0.983438,0.056158,0.005497,0.01821,0.011972
135,0.172479,0.983406,0.056204,-0.007883,0.017006,0.0070129999999999
136,0.172758,0.983385,0.0557169999999999,-0.029417,0.009764,0.020898
137,0.172972,0.983372,0.055277,-0.024702,0.01054,0.033681
138,0.173012,0.983379,0.055037,-0.017937,0.009602,0.0307019999999999
139,0.172873,0.983408,0.054952,0.005548,0.010168,0.026164
140,0.172611,0.983455,0.054928,0.025112,0.006153,0.00977
141,0.1726609999999999,0.983451,0.054853,0.021294,0.002862,0.007387
142,0.172772,0.983431,0.054857,0.001682,-0.004671,0.0128919999999999
143,0.1729369999999999,0.98339,0.055076,0.002112,-0.002341,0.026024
144,0.173127,0.983335,0.055462,0.006972,0.005374,0.031208
145,0.173407,0.983244,0.056198,-0.000495,0.011308,0.0135199999999999
146,0.173879,0.983124,0.056843,0.006282,0.01355,0.007717
147,0.174594,0.982973,0.057257,0.008221,0.013975,0.002039
148,0.1753819999999999,0.982816,0.057552,0.018359,0.0064569999999999,-0.012203
149,0.176058,0.982707,0.057346,0.021421,0.0059409999999999,-0.008457
150,0.176459,0.982655,0.05699,0.021188,0.0024219999999999,-0.002318
151,0.176761,0.982599,0.0570049999999999,0.017483,0.001425,-0.003889
152,0.177152,0.982502,0.057474,0.023196,0.010647,-0.013605
153,0.177746,0.982348,0.0582679999999999,0.0356019999999999,0.010771,-0.005305
154,0.178488,0.982162,0.059137,0.038782,0.008897,0.000449
155,0.179365,0.981947,0.060035,0.020037,0.005968,-0.008751
156,0.1801569999999999,0.981763,0.060676,0.010151,0.004366,-0.01638
157,0.180814,0.981638,0.0607549999999999,0.0094939999999999,0.002859,0.014288
158,0.1812109999999999,0.981578,0.060535,0.0060149999999999,0.002278,0.024044
159,0.181413,0.981527,0.060763,0.006301,0.001063,0.029554
160,0.181639,0.981419,0.061817,-0.016203,0.004726,0.024868
161,0.1817369999999999,0.98132,0.063086,-0.018666,0.009677,0.010034
162,0.181678,0.981298,0.063588,-0.018943,0.01211,0.0102189999999999
163,0.181576,0.981323,0.0635049999999999,-0.008053,0.005692,0.0332509999999999
164,0.181389,0.981349,0.063639,-0.003303,0.002584,0.035009
165,0.181104,0.981367,0.064173,-0.001111,0.005023,0.033513
166,0.180836,0.981372,0.064837,-0.0023539999999999,0.004239,0.024961
167,0.180842,0.981313,0.065712,-0.016108,0.014796,0.005913
168,0.180866,0.981242,0.066684,-0.021214,0.021245,-0.001422
169,0.180819,0.981244,0.066794,-0.011752,0.016651,0.003244
170,0.18077,0.981255,0.066762,0.002183,0.007744,0.023143
171,0.18094,0.981184,0.067345,-0.0018789999999999,0.008745,0.0257029999999999
172,0.18134,0.981066,0.067987,-0.011479,0.016737,0.019614
173,0.181848,0.980946,0.06836,-0.02096,0.0165979999999999,0.013046
174,0.182384,0.980845,0.068373,-0.012325,0.009298,0.00667
175,0.182829,0.980776,0.068174,0.009493,0.003797,0.011294
176,0.183215,0.980721,0.067934,0.032193,0.003059,0.01808
177,0.183479,0.980664,0.068037,0.034554,0.004535,0.0280319999999999
178,0.1839,0.980543,0.068651,0.0285779999999999,-0.005567,0.014372
179,0.184547,0.980362,0.06949,0.032494,-0.016174,0.000288
180,0.185155,0.980176,0.070494,0.04977,-0.013852,0.000139
181,0.185655,0.980016,0.071397,0.064162,-0.010655,0.001219
182,0.1860619999999999,0.979884,0.072135,0.0698429999999999,-0.001186,0.009256
183,0.186417,0.979753,0.072998,0.065902,-9.3e-05,0.012177
184,0.187202,0.97953,0.073984,0.041253,-0.004417,0.017615
185,0.1882599999999999,0.979262,0.074839,0.036929,-0.002348,0.024358
186,0.189167,0.979025,0.075643,0.034039,-0.003531,0.027705
187,0.189962,0.978796,0.076613,0.022349,-0.001517,0.018419
188,0.190629,0.97858,0.077706,0.021056,-0.000233,0.015373
189,0.191298,0.978378,0.078609,0.024766,-0.002731,0.023991
190,0.192074,0.978132,0.0797679999999999,0.026249,-0.002577,0.035345
191,0.1930599999999999,0.977787,0.081594,0.011515,0.0117299999999999,0.055048
192,0.193863,0.977343,0.08494,-0.042526,0.032392,-0.001505
193,0.193964,0.977056,0.087965,-0.090937,0.021022,-0.038145
194,0.194908,0.976806,0.088647,-0.050407,0.022614,0.0026309999999999
195,0.195659,0.976638,0.088841,0.022175,-0.014831,0.092937
196,0.195722,0.976442,0.090838,-0.024076,0.009275,0.045606
197,0.195469,0.976283,0.093068,-0.108952,0.042485,0.029735
198,0.1955589999999999,0.976161,0.094159,-0.122118,0.053319,0.006885
199,0.1960329999999999,0.97608,0.094009,-0.068439,0.024408,0.027817
200,0.1960339999999999,0.97616,0.093166,-0.0148669999999999,0.015112,0.0260509999999999
201,0.1960869999999999,0.976246,0.092153,-0.015743,0.0154069999999999,0.016413
202,0.196104,0.976312,0.091415,-0.05055,0.0094819999999999,0.020753
203,0.196269,0.976376,0.090375,-0.044856,0.003498,0.030963
204,0.196434,0.976439,0.089332,-0.040428,0.006975,0.019372
205,0.196483,0.976423,0.089395,-0.046169,0.0122239999999999,0.02323
206,0.1961359999999999,0.976563,0.088626,-0.030593,0.009704,0.033414
207,0.195663,0.976754,0.087559,-0.024474,0.0128849999999999,0.038357
208,0.19497,0.976865,0.087863,-0.063424,0.022997,0.0386009999999999
209,0.194071,0.977033,0.087985,-0.067972,0.029498,0.021756
210,0.1931109999999999,0.977248,0.087702,-0.060604,0.0339519999999999,0.0182699999999999
211,0.192162,0.97747,0.087315,-0.067803,0.02723,0.01942
212,0.1910869999999999,0.97783,0.08563,-0.049394,0.023071,0.030871
213,0.189689,0.978298,0.0833629999999999,-0.043037,0.012791,0.036785
214,0.188199,0.978719,0.081784,-0.048031,0.010753,0.040683
215,0.18669,0.979116,0.080478,-0.0572649999999999,0.025431,0.037564
216,0.185092,0.979516,0.079291,-0.066409,0.027869,0.0158169999999999
217,0.183661,0.979897,0.077899,-0.053183,0.021171,0.02995
218,0.181742,0.980488,0.074909,-0.0389959999999999,0.022747,0.034176
219,0.179627,0.98118,0.070842,-0.033356,0.019034,0.028432
220,0.177525,0.981854,0.066678,-0.023274,0.018817,0.064029
221,0.175051,0.982591,0.06221,-0.0289329999999999,0.005614,0.047836
222,0.172573,0.983265,0.058364,-0.019237,0.003917,0.044312
223,0.170453,0.983819,0.055175,-0.0029879999999999,0.006629,0.059189
224,0.168702,0.984286,0.052145,0.000441,0.0072,0.057413
225,0.167351,0.984666,0.04924,0.004356,0.014983,0.035217
226,0.166313,0.984992,0.046144,0.019264,0.015939,0.004408
227,0.165134,0.985356,0.042462,0.044095,0.008205,0.019015
228,0.1637839999999999,0.98575,0.038353,0.055561,0.008498,0.017891
229,0.162699,0.986066,0.034656,0.065954,-0.005139,-0.004078
230,0.162092,0.986281,0.031199,0.05765,-0.018889,0.0083209999999999
231,0.161802,0.986441,0.027426,0.054598,-0.027273,0.022577
232,0.161624,0.986569,0.023611,0.043637,-0.040906,-0.011358
233,0.161423,0.986681,0.02005,0.0594779999999999,-0.044039,0.002503
234,0.161969,0.98665,0.016918,0.054874,-0.035417,0.002522
235,0.162679,0.986572,0.014465,0.044749,-0.022506,-0.008178
236,0.163681,0.986423,0.013286,0.042663,-0.015826,0.001759
237,0.164842,0.986235,0.012842,0.030211,0.016069,0.015265
238,0.166169,0.986019,0.0123769999999999,0.022994,0.0154919999999999,-0.01285
239,0.167286,0.985836,0.011869,0.020657,0.010761,-0.0167669999999999
240,0.168205,0.985689,0.011086,0.026894,-0.000703,0.006156
241,0.168822,0.985592,0.010284,0.032701,0.012104,-0.015625
242,0.1693599999999999,0.985505,0.0097489999999999,0.031248,0.012374,-0.005522
243,0.169765,0.985441,0.009177,0.02657,0.021563,0.01629
244,0.169883,0.985427,0.008398,0.027963,0.020676,-0.007422
245,0.170233,0.985373,0.007682,0.021067,0.018091,0.0035789999999999
246,0.1706109999999999,0.985316,0.006585,0.007291,-0.003367,0.0305399999999999
247,0.170746,0.985299,0.005469,0.009857,0.0033179999999999,-0.024557
248,0.170816,0.985292,0.004406,0.019263,0.005003,-0.023312
249,0.171036,0.985258,0.003227,0.026611,-0.001952,0.006493
250,0.171244,0.985224,0.002334,0.023916,-0.008311,0.008347
251,0.171429,0.985193,0.002139,0.016712,0.000815,0.012189
252,0.171565,0.985169,0.002296,0.020635,0.0044399999999999,-0.010292
253,0.171717,0.985141,0.0029579999999999,0.028265,0.005613,-0.016096
254,0.171797,0.985123,0.003858,0.019411,-0.0008699999999999,-0.006956
255,0.171753,0.985129,0.004382,0.020798,0.003549,-0.02553
256,0.171811,0.985117,0.0047539999999999,0.026385,0.005895,-0.035074
257,0.171981,0.985087,0.004974,0.023758,0.001562,-0.024124
258,0.17218,0.985051,0.005139,0.023041,0.000484,-0.03053
259,0.172579,0.984979,0.005546,0.015028,0.008475,-0.01789
260,0.173043,0.984896,0.00594,0.006828,0.007826,-0.007816
261,0.173399,0.98483,0.0064329999999999,-0.004637,0.0063659999999999,-0.019937
262,0.1738309999999999,0.984751,0.006806,-0.0065489999999999,-0.002787,-0.008088
263,0.174145,0.984693,0.0072549999999999,-0.004696,0.001025,-0.010627
264,0.1744,0.984644,0.007803,-0.004723,8.2e-05,0.019007
265,0.174729,0.984585,0.0079239999999999,-0.029206,0.0142099999999999,0.088817
266,0.175141,0.984508,0.008242,-0.047776,0.011845,0.0688759999999999
267,0.1753019999999999,0.984477,0.008556,-0.049066,0.013234,0.063512
268,0.174981,0.984528,0.00919,-0.04194,0.007156,0.064174
269,0.174249,0.984632,0.011622,-0.027292,0.003512,0.008047
270,0.173286,0.984759,0.014853,-0.00344,0.0023469999999999,0.004999
271,0.17242,0.984841,0.018933,0.006917,0.0025859999999999,-0.0240139999999999
272,0.172009,0.984821,0.02325,0.008762,0.019726,-0.024975
273,0.1719619999999999,0.984728,0.02719,0.003239,0.028913,-0.023864
274,0.172245,0.984585,0.030405,-0.0223879999999999,0.018116,-0.021036
275,0.172718,0.984464,0.031604,-0.02367,0.0151849999999999,0.016736
276,0.173105,0.984426,0.030649,-0.018396,0.0193419999999999,0.043875
277,0.173291,0.984447,0.028887,-0.018979,0.014988,0.026212
278,0.173093,0.984535,0.0270019999999999,-0.0078099999999999,0.008324,0.043463
279,0.17273,0.984634,0.025673,-0.005524,-0.003143,0.039436
280,0.172158,0.984726,0.02601,0.0154639999999999,-0.000183,0.019705
281,0.171597,0.98478,0.027612,0.021655,-0.008309,0.021461
282,0.1711099999999999,0.984783,0.030388,0.016222,-0.012768,0.0041119999999999
283,0.170679,0.984745,0.033848,0.021261,0.005321,-0.003163
284,0.170487,0.98466,0.037143,0.001785,0.02123,-0.001956
285,0.170394,0.984559,0.040135,-0.006088,0.022735,-0.002888
286,0.170326,0.984476,0.042391,-0.00695,0.0246949999999999,-0.018175
287,0.170181,0.984442,0.043731,0.005371,0.014749,0.011322
288,0.16994,0.984466,0.044121,0.007001,0.011917,0.012
289,0.1697789999999999,0.98449,0.044203,0.006872,0.016044,-0.003904
290,0.169626,0.984535,0.043806,-0.021723,0.002969,0.044573
291,0.169398,0.984599,0.04322,-0.027598,-0.0036729999999999,0.051903
292,0.169048,0.98466,0.043195,-0.030147,-0.0012619999999999,0.0450459999999999
293,0.168743,0.984695,0.043593,-0.017269,0.007539,0.039674
294,0.168668,0.984675,0.044304,-0.016187,0.015248,0.045646
295,0.168538,0.984641,0.045545,-0.008961,0.011209,0.040942
296,0.168521,0.984573,0.047042,-0.027087,-0.002594,0.055192
297,0.168504,0.984499,0.048625,-0.031694,0.0002569999999999,0.042623
298,0.168471,0.98442,0.050324,-0.0344379999999999,0.014787,0.029738
299,0.168388,0.98435,0.051947,-0.032142,0.017573,0.033517
300,0.1681119999999999,0.984321,0.053362,-0.049719,0.0237509999999999,0.031919
301,0.167674,0.98434,0.054389,-0.050593,0.028462,0.026422
302,0.166965,0.984432,0.054908,-0.044742,0.024281,0.022286
303,0.165855,0.984611,0.055058,-0.023048,0.003884,0.0066489999999999
304,0.1645849999999999,0.984832,0.054907,0.003292,0.005249,-0.006217
305,0.163237,0.985085,0.054402,0.019349,0.005088,-0.010045
306,0.161883,0.985324,0.054125,0.047117,0.002209,-0.0070209999999999
307,0.160665,0.985521,0.054174,0.036403,0.0016309999999999,-0.001425
308,0.159839,0.985635,0.054533,0.037472,0.002418,-0.012846
309,0.159391,0.985677,0.055088,0.0336029999999999,0.00439,-0.014485
310,0.159473,0.985633,0.055636,0.008617,0.026025,0.0006389999999999
311,0.1597849999999999,0.985572,0.055822,-0.007609,0.021066,0.014246
312,0.1600329999999999,0.985558,0.055359,-0.016081,0.0177219999999999,0.0152129999999999
313,0.160093,0.985624,0.0539889999999999,-0.024214,0.00989,0.00819
314,0.159878,0.985763,0.052046,-0.011059,0.00232,-0.00218
315,0.159724,0.985887,0.05014,-0.007564,-0.001496,3.1e-05
316,0.159543,0.985977,0.048924,-0.006116,0.003907,0.016124
317,0.159479,0.985999,0.048684,0.001425,-0.0018679999999999,0.028281
318,0.159542,0.985986,0.048735,0.009281,-0.002679,0.030413
319,0.159662,0.985952,0.049026,0.014273,0.0071049999999999,0.010697
320,0.159826,0.985923,0.0490769999999999,0.004618,0.017159,0.003109
321,0.160089,0.985902,0.048649,-0.000726,0.016174,0.003521
322,0.160401,0.985886,0.047932,-0.009003,0.011077,0.009807
323,0.1604789999999999,0.985892,0.047545,-0.007159,0.0157409999999999,0.007798
324,0.160471,0.985911,0.047174,0.0041259999999999,0.004522,0.01116
325,0.1605859999999999,0.985916,0.0466769999999999,0.0128449999999999,0.00235,0.0128479999999999
326,0.16079,0.98593,0.04567,0.002907,0.0094159999999999,0.004074
327,0.160996,0.985972,0.044005,0.003127,0.007161,0.006868
328,0.161224,0.986011,0.042262,0.001023,0.005719,0.021138
329,0.161351,0.986041,0.0410639999999999,-0.002797,0.00929,0.029249
330,0.161274,0.986061,0.0408759999999999,-0.006443,0.01223,0.034732
331,0.161168,0.986069,0.041105,-0.010228,0.007888,0.033541
332,0.16122,0.986061,0.041098,-0.010204,0.008629,0.023492
333,0.161175,0.986099,0.040354,-0.013547,0.006638,0.013571
334,0.160885,0.986207,0.038851,-0.014828,0.005263,0.014387
335,0.1603369999999999,0.986352,0.037423,-0.012388,0.004829,0.015525
336,0.159815,0.986463,0.036738,-0.007456,0.008075,0.015874
337,0.15941,0.986528,0.03675,-0.003068,0.007949,0.019982
338,0.159133,0.986559,0.037103,0.008088,0.013197,0.0184389999999999
339,0.1590329999999999,0.986569,0.037274,0.0063869999999999,0.011768,0.013019
340,0.159131,0.98656,0.03709,-0.00015,0.008969,0.012943
341,0.159374,0.986544,0.0364699999999999,-0.012722,0.0030039999999999,0.007308
342,0.159699,0.986524,0.035593,-0.012574,0.003268,0.008017
343,0.1600589999999999,0.986496,0.03474,-0.0072569999999999,0.005325,0.008442
344,0.160391,0.986468,0.034011,-0.006841,0.0078409999999999,0.008759
345,0.160713,0.986438,0.033351,-0.011253,0.009031,0.0055439999999999
346,0.161118,0.986393,0.03272,-0.003678,0.008404,0.006663
347,0.161655,0.986324,0.032154,-0.0020629999999999,0.006306,0.005856
348,0.162294,0.986232,0.031726,0.0093969999999999,0.0057729999999999,0.006344
349,0.163124,0.986101,0.031524,0.009895,0.011351,0.011689
350,0.164094,0.985947,0.03128,0.00804,0.013763,0.007676
351,0.165147,0.985797,0.030475,-0.003815,0.019437,0.0144919999999999
352,0.166225,0.985652,0.029274,-0.008876,0.012929,0.017846
353,0.167206,0.985526,0.027885,-0.010742,0.011056,0.020241
354,0.168,0.985432,0.0263699999999999,-0.009278,0.011455,0.022352
355,0.168568,0.985372,0.024967,-0.013249,0.009685,0.02702
356,0.16893,0.985337,0.023892,-0.007217,0.0091849999999999,0.025562
357,0.169247,0.985304,0.022993,-0.0081599999999999,0.006823,0.025942
358,0.16942,0.985288,0.022394,-0.0126819999999999,0.003619,0.029074
359,0.169464,0.985291,0.021909,-0.010483,0.00328,0.029956
360,0.169345,0.985321,0.021504,-0.00542,0.011002,0.0236159999999999
361,0.169145,0.985365,0.021051,-0.001923,0.010393,0.008994
362,0.168946,0.98541,0.020556,0.002456,0.007129,0.012693
363,0.168767,0.985453,0.01995,0.000926,0.0045829999999999,0.011651
364,0.168614,0.985491,0.019356,-0.009038,0.006972,0.014549
365,0.168416,0.985531,0.019017,-0.015324,0.013661,0.03123
366,0.16817,0.985573,0.018991,-0.010715,0.015037,0.020743
367,0.1680289999999999,0.985597,0.019014,-0.001053,0.0135789999999999,-3.2e-05
368,0.167932,0.985623,0.018507,0.020255,0.004779,0.009004
369,0.167882,0.985651,0.0174,0.011943,0.005483,0.005946
370,0.16785,0.98567,0.016623,-0.004154,0.0038929999999999,-0.005957
371,0.167952,0.985658,0.016298,-0.02101,0.011351,-0.006151
372,0.168439,0.985574,0.016349,-0.019528,0.014228,0.008477
373,0.169127,0.98545,0.016685,-0.004714,0.002297,0.010689
374,0.1695289999999999,0.985383,0.016602,-0.003162,7.5e-05,0.004668
375,0.169452,0.985407,0.0159419999999999,-0.0083349999999999,0.011633,-0.007351
376,0.169246,0.985455,0.015135,0.002767,0.021915,0.005983
377,0.169322,0.98545,0.014603,-0.004344,0.007821,0.020034
378,0.169576,0.98541,0.014305,-0.004674,0.004855,0.022743
379,0.16979,0.985378,0.0139669999999999,-0.00472,0.006458,0.036463
380,0.169934,0.985357,0.013751,-0.004193,0.005869,0.048596
381,0.170038,0.985339,0.013765,-0.010721,0.004621,0.037382
382,0.170119,0.985325,0.013739,-0.011153,0.008938,0.016732
383,0.170125,0.985325,0.013654,-0.004796,0.010388,0.004443
384,0.170178,0.985317,0.013528,-0.006833,0.012745,0.010337
385,0.170284,0.985297,0.013655,-0.001446,0.0163509999999999,0.0164349999999999
386,0.170486,0.985257,0.014041,0.005418,0.016605,0.019436
387,0.170866,0.985182,0.014655,-0.000258,0.013521,0.014398
388,0.171282,0.985102,0.015181,-0.007205,0.017385,0.005785
389,0.171568,0.985052,0.015231,-0.011656,0.005961,0.005964
390,0.171742,0.985026,0.01494,-0.016133,-0.004924,0.017943
391,0.171802,0.985022,0.014491,-0.012531,0.006998,0.030858
392,0.171732,0.985043,0.013911,-0.008555,0.012806,0.023641
393,0.171577,0.985079,0.013228,-0.009223,0.017438,0.014284
394,0.17147,0.985106,0.012624,-0.000846,0.0067,0.012736
395,0.171429,0.985117,0.0123629999999999,-0.001217,0.0026609999999999,0.013744
396,0.171408,0.985118,0.012565,0.001276,0.001287,0.019356
397,0.171407,0.985114,0.01287,-0.009389,0.006677,0.010003
398,0.171348,0.985122,0.0130699999999999,-0.012504,0.008546,0.003074
399,0.171231,0.985142,0.013085,-0.008619,0.012478,0.001091
400,0.171124,0.985162,0.013036,-0.011197,0.006293,0.0038399999999999
401,0.170977,0.985187,0.013094,-0.009936,0.009412,0.01129
402,0.170725,0.98523,0.013141,-0.0064189999999999,0.011764,0.016583
403,0.170483,0.985273,0.013031,-0.007123,0.008043,0.012115
404,0.170261,0.985314,0.01284,-0.004627,0.011863,0.011147
405,0.170078,0.98535,0.0125379999999999,5.7e-05,0.011873,0.009939
406,0.1698859999999999,0.985386,0.012291,-0.000727,0.004146,0.010765
407,0.169683,0.985422,0.012236,-0.003575,0.006186,0.012666
408,0.169601,0.985433,0.012497,-0.000198,0.005259,0.010102
409,0.1696,0.985428,0.0128849999999999,0.003435,0.004761,0.004281
410,0.169675,0.98541,0.013237,-0.00047,0.007128,0.001289
411,0.169816,0.985382,0.01353,-0.003846,0.014068,-0.001811
412,0.169977,0.985351,0.013763,-0.0100489999999999,0.0146639999999999,0.0041659999999999
413,0.1700569999999999,0.985336,0.013862,-0.008085,0.014084,0.008477
414,0.170047,0.985339,0.013805,-0.0069459999999999,0.008268,0.016408
415,0.16996,0.985354,0.013791,-0.005043,0.008176,0.014056
416,0.169849,0.985373,0.013872,-0.0027949999999999,0.006403,0.007536
417,0.169733,0.98539,0.0140159999999999,9.8e-05,0.00669,0.002876
418,0.169672,0.985397,0.01432,0.001348,0.00734,0.004357
419,0.169691,0.985386,0.01483,0.0004599999999999,0.007259,0.016024
420,0.169757,0.985367,0.0153199999999999,-0.002444,0.004471,0.014907
421,0.169797,0.985354,0.015705,-0.00282,0.008924,0.021755
422,0.169819,0.985347,0.015883,-0.006016,0.009053,0.025987
423,0.169775,0.985356,0.0158199999999999,-0.0035909999999999,0.007427,0.0265079999999999
424,0.169721,0.985369,0.015578,-0.000837,0.0091069999999999,0.027406
425,0.169688,0.985378,0.015349,-0.0046479999999999,0.010227,0.027971
426,0.169677,0.985382,0.015203,-0.005447,0.0050659999999999,0.024455
427,0.16967,0.985385,0.015103,-0.001197,0.008222,0.011432
428,0.169645,0.985387,0.015258,-0.004164,0.009837,0.003007
429,0.169606,0.985386,0.015739,-0.011418,0.008495,0.004815
430,0.169606,0.985375,0.016398,-0.0118,0.009162,0.009405
431,0.1696599999999999,0.985359,0.016799,-0.007368,0.010171,0.019731
432,0.169727,0.985344,0.016961,-0.007281,0.014412,0.0160289999999999
433,0.16969,0.985354,0.016725,-0.009687,0.015409,0.0164169999999999
434,0.169524,0.985391,0.01622,-0.0130139999999999,0.010245,0.0203099999999999
435,0.1693569999999999,0.98543,0.015557,-0.0115959999999999,0.011091,0.019371
436,0.1691339999999999,0.98548,0.014834,-0.00411,0.008157,0.022016
437,0.168932,0.985524,0.014209,-0.0034659999999999,0.007045,0.018628
438,0.168794,0.985553,0.0138889999999999,-0.005418,0.003812,0.011959
439,0.168738,0.985562,0.013876,-0.007392,0.0073269999999999,0.009378
440,0.168695,0.98557,0.013876,-0.0086909999999999,0.004054,0.010844
441,0.168647,0.985577,0.013921,-0.009132,0.005603,0.012416
442,0.1685819999999999,0.985585,0.014176,-0.005603,0.010967,0.016952
443,0.168533,0.985589,0.014494,-0.00331,0.009696,0.017961
444,0.168519,0.985586,0.01483,-0.003999,0.008509,0.020891
445,0.16849,0.985586,0.01514,-0.005037,0.01005,0.00964
446,0.168464,0.985589,0.015283,-0.0085209999999999,0.008018,0.003928
447,0.168489,0.985584,0.015305,-0.009233,0.010052,0.002273
448,0.168477,0.985588,0.015216,-0.012623,0.010262,0.012753
449,0.168451,0.985594,0.015071,-0.009942,0.008027,0.019124
450,0.168388,0.985606,0.014966,-0.008308,0.007741,0.015384
451,0.168275,0.985626,0.014959,-0.0065629999999999,0.007447,0.011103
452,0.168183,0.98564,0.015074,-0.004258,0.006242,0.0155199999999999
453,0.1681369999999999,0.985643,0.0153669999999999,-0.003053,0.007506,0.016066
454,0.168147,0.985636,0.015718,-0.005717,0.009023,0.018065
455,0.16814,0.985632,0.016022,-0.00867,0.011545,0.0144199999999999
456,0.168141,0.985629,0.016225,-0.00652,0.009916,0.009593
457,0.168107,0.985633,0.016325,-0.0063479999999999,0.011468,0.009524
458,0.168073,0.985637,0.016421,-0.0067569999999999,0.006291,0.01608
459,0.168068,0.985637,0.01651,-0.007972,0.0072829999999999,0.020172
460,0.168089,0.98563,0.016681,-0.006529,0.008877,0.01814
461,0.1681109999999999,0.985624,0.0168199999999999,-0.009816,0.011766,0.0156819999999999
462,0.168157,0.985614,0.016978,-0.010075,0.010709,0.010351
463,0.168173,0.985607,0.017178,-0.007513,0.011021,0.011524
464,0.168171,0.985603,0.017432,-0.007908,0.006768,0.012597
465,0.16818,0.985597,0.0176699999999999,-0.006361,0.0081319999999999,0.0179439999999999
466,0.168171,0.985596,0.017833,-0.004413,0.013229,0.013432
467,0.168131,0.9856,0.017949,-0.006739,0.0138199999999999,0.011287
468,0.168063,0.98561,0.018049,-0.010501,0.007111,0.010485
469,0.1680559999999999,0.985607,0.018275,-0.0075489999999999,0.007542,0.0144699999999999
470,0.168049,0.985601,0.018686,-0.001865,0.0031079999999999,0.016836
471,0.1680549999999999,0.985589,0.019252,-0.003596,0.006324,0.016118
472,0.168099,0.985571,0.019762,-0.007806,0.012033,0.006895
473,0.16816,0.985552,0.020162,-0.009422,0.012662,0.008906
474,0.168237,0.985533,0.0204659999999999,-0.005257,0.008699,0.015133
475,0.168315,0.985514,0.020705,-0.007518,0.009038,0.019212
476,0.168355,0.985502,0.020945,-0.00887,0.008104,0.021077
477,0.1683869999999999,0.985493,0.021116,-0.004477,0.011318,0.021594
478,0.168419,0.985485,0.02126,-0.006889,0.007481,0.014278
479,0.168481,0.985471,0.021387,-0.0056229999999999,0.0064719999999999,0.01563
480,0.168569,0.98545,0.021672,-0.001119,0.004632,0.015635
481,0.168642,0.985429,0.0220479999999999,-0.000414,0.005431,0.016313
482,0.16869,0.985409,0.022583,-0.002445,0.005284,0.018311
483,0.168725,0.985387,0.023246,-0.003731,0.00793,0.018685
484,0.168774,0.985364,0.023879,0.00124,0.011432,0.01172
485,0.168827,0.985341,0.024411,0.0033689999999999,0.0122329999999999,0.009585
486,0.168879,0.98532,0.024885,-0.001292,0.01059,0.0038469999999999
487,0.1689369999999999,0.985301,0.025245,5.5e-05,0.009343,0.011972
488,0.168985,0.985285,0.025568,-0.003244,0.0103209999999999,0.0195669999999999
489,0.168995,0.985274,0.025898,-0.0067329999999999,0.010636,0.022487
490,0.168975,0.985272,0.026106,-0.009581,0.0117069999999999,0.0107599999999999
491,0.168903,0.985285,0.026077,-0.009205,0.012151,0.008378
492,0.1688049999999999,0.985309,0.0258209999999999,-0.010968,0.009778,0.00755
493,0.168644,0.985344,0.025526,-0.01012,0.006218,0.019533
494,0.168481,0.985373,0.025469,-0.0067069999999999,0.009164,0.0266399999999999
495,0.16835,0.98539,0.0256899999999999,-0.008071,0.010368,0.021994
496,0.168217,0.985402,0.0261089999999999,-0.010502,0.00851,0.012786
497,0.168116,0.985409,0.026488,-0.004954,0.01334,0.014786
498,0.167999,0.985423,0.0266959999999999,-0.002274,0.012135,0.016212
499,0.167831,0.985446,0.0269029999999999,-0.011276,0.006467,0.018141
500,0.167697,0.98546,0.027201,-0.011051,0.0065439999999999,0.0211389999999999
501,0.1675829999999999,0.98547,0.027554,-0.007961,0.008137,0.018284
502,0.167443,0.985486,0.027842,-0.007515,0.009891,0.004628
503,0.167327,0.985501,0.0280009999999999,-0.0071709999999999,0.0084409999999999,0.004469
504,0.167291,0.985501,0.028212,-0.00329,0.009601,0.0093239999999999
505,0.167302,0.985488,0.028617,-0.002858,0.008302,0.021203
506,0.167353,0.985463,0.02914,-0.007456,0.0066939999999999,0.018086
507,0.167388,0.985445,0.029568,-0.0092,0.010008,0.008655
508,0.167396,0.985434,0.0298589999999999,-0.0086129999999999,0.010034,0.008059
509,0.1673869999999999,0.985427,0.030164,-0.003675,0.008394,0.010333
510,0.167354,0.985422,0.03051,-0.003413,0.004691,0.013909
511,0.167347,0.985412,0.030858,-0.005985,0.005753,0.018947
512,0.167388,0.985394,0.031211,-0.007323,0.009021,0.02166
513,0.167467,0.985368,0.031623,-0.009309,0.0102989999999999,0.013741
514,0.167519,0.985348,0.031967,-0.008843,0.012669,0.008149
515,0.1675559999999999,0.985334,0.032179,-0.007476,0.008043,0.011523
516,0.167571,0.985327,0.032341,-0.006362,0.006144,0.020363
517,0.167606,0.985316,0.032492,-0.007145,0.00591,0.02308
518,0.167681,0.985298,0.032666,-0.009555,0.007821,0.017719
519,0.167764,0.985277,0.032875,-0.008508,0.008116,0.014274
520,0.167827,0.985261,0.033035,-0.007854,0.008758,0.009659
521,0.16785,0.985253,0.033158,-0.0054659999999999,0.0067209999999999,0.0173639999999999
522,0.167932,0.985234,0.033311,-0.006371,0.008907,0.0212389999999999
523,0.168009,0.985211,0.033592,-0.01208,0.008426,0.023263
524,0.168081,0.985186,0.033956,-0.011495,0.007871,0.0179539999999999
525,0.168146,0.985164,0.03427,-0.0105989999999999,0.009281,0.019228
526,0.168132,0.985157,0.034532,-0.007503,0.007076,0.020781
527,0.16813,0.985155,0.034619,-0.0051049999999999,0.010283,0.024738
528,0.168197,0.985144,0.03461,-0.0017239999999999,0.012262,0.021664
529,0.1683049999999999,0.985122,0.034691,-0.00914,0.009537,0.019691
530,0.168366,0.985107,0.0348259999999999,-0.013092,0.0082709999999999,0.015925
531,0.168405,0.985101,0.034811,-0.012979,0.009025,0.0134069999999999
532,0.168415,0.985099,0.034804,-0.0023539999999999,0.004815,0.013353
533,0.168464,0.98509,0.034812,-0.003974,0.010011,0.016763
534,0.168605,0.985064,0.034883,-0.007076,0.008375,0.0140669999999999
535,0.168717,0.985039,0.035029,-0.009613,0.009742,0.010533
536,0.168796,0.985024,0.035084,-0.006,0.010841,0.0144919999999999
537,0.168869,0.985016,0.034955,-0.0056,0.012268,0.016482
538,0.168963,0.985004,0.03483,-0.01401,0.011517,0.01911
539,0.169073,0.984987,0.034772,-0.013769,0.0096569999999999,0.024509
540,0.169172,0.984971,0.034758,-0.013624,0.008254,0.022173
541,0.169197,0.984969,0.03469,-0.009529,0.0073709999999999,0.012536
542,0.169205,0.984971,0.034584,-0.009094,0.0075819999999999,0.0147479999999999
543,0.16923,0.984969,0.034532,-0.006312,0.009065,0.015486
544,0.169319,0.984949,0.034662,-0.006187,0.008276,0.01795
545,0.169436,0.984921,0.034886,-0.007723,0.010395,0.01588
546,0.169518,0.984901,0.035054,-0.007576,0.010491,0.014842
547,0.16955,0.984893,0.035106,-0.005899,0.009705,0.01238
548,0.169577,0.984892,0.0350199999999999,-0.004996,0.012056,0.015853
549,0.169655,0.984883,0.034881,-0.004631,0.0067239999999999,0.017929
550,0.169753,0.98487,0.034775,-0.005493,0.010613,0.018295
551,0.1698339999999999,0.984857,0.03475,-0.003574,0.007986,0.013285
552,0.169938,0.984841,0.034702,-0.0037549999999999,0.007926,0.011212
553,0.170058,0.98482,0.034713,0.000703,0.007108,0.009904
554,0.170225,0.98479,0.034744,0.00165,0.009518,0.014343
555,0.170438,0.984751,0.034811,-0.003629,0.008184,0.014872
556,0.170733,0.984699,0.0348459999999999,-0.003329,0.012265,0.012686
557,0.171071,0.984641,0.034811,-0.005208,0.0139699999999999,0.008463
558,0.171453,0.984578,0.034743,-0.007939,0.009548,0.012178
559,0.171827,0.984517,0.034617,-0.009046,0.010768,0.0138599999999999
560,0.172243,0.98445,0.034441,-0.006303,0.014237,0.02046
561,0.172575,0.9844,0.034226,-0.006758,0.009741,0.019927
562,0.172959,0.984342,0.033969,-0.0101319999999999,0.007068,0.013318
563,0.173419,0.984272,0.033648,-0.006488,0.0068629999999999,0.016111
564,0.1738309999999999,0.984208,0.0333829999999999,-0.002032,0.00717,0.023777
565,0.174254,0.984141,0.033178,-0.009627,0.009557,0.028849
566,0.174692,0.984072,0.032926,-0.016229,0.015623,0.0299709999999999
567,0.175074,0.984017,0.032539,-0.022029,0.012596,0.0315779999999999
568,0.175331,0.98399,0.03197,-0.017341,0.00745,0.0261959999999999
569,0.175415,0.983996,0.031292,-0.011642,0.005078,0.022678
570,0.175438,0.984014,0.030592,-0.009331,0.006327,0.026019
571,0.1753559999999999,0.984045,0.03007,-0.007388,0.005823,0.0295759999999999
572,0.175318,0.984067,0.0295779999999999,-0.006235,0.0065489999999999,0.026574
573,0.175279,0.984086,0.029168,-0.00699,0.006926,0.025993
574,0.175189,0.984112,0.028856,-0.005435,0.0067329999999999,0.015608
575,0.175076,0.984142,0.028519,-0.006481,0.006672,0.019515
576,0.174947,0.984173,0.0282259999999999,-0.0074819999999999,0.0079069999999999,0.017993
577,0.174786,0.984211,0.027892,-0.007397,0.008587,0.016237
578,0.174627,0.984249,0.027537,-0.007772,0.007801,0.012167
579,0.174496,0.984283,0.027154,-0.008297,0.007599,0.014472
580,0.174314,0.984325,0.026815,-0.004697,0.007451,0.0167949999999999
581,0.17411,0.98437,0.0264839999999999,-0.003913,0.008611,0.01888
582,0.1738839999999999,0.98442,0.0261,-0.001826,0.010712,0.013817
583,0.173677,0.984468,0.0256449999999999,-0.00223,0.009398,0.013906
584,0.173546,0.984504,0.025177,-0.005531,0.010308,0.014206
585,0.173463,0.984529,0.024733,-0.006608,0.007979,0.01169
586,0.1733829999999999,0.984554,0.024304,-0.00903,0.01006,0.009327
587,0.173302,0.984579,0.023857,-0.01011,0.007517,0.0142289999999999
588,0.173199,0.984607,0.02344,-0.007824,0.011609,0.017133
589,0.17313,0.98463,0.023012,-0.006718,0.0090689999999999,0.017133
590,0.1731069999999999,0.984642,0.02264,-0.009792,0.006203,0.013691
591,0.173087,0.984654,0.022256,-0.0102,0.013103,0.013327
592,0.17305,0.984672,0.02175,-0.009751,0.0133599999999999,0.0133759999999999
593,0.172965,0.984699,0.021203,-0.007835,0.005429,0.019874
594,0.1728839999999999,0.984726,0.02059,-0.0080439999999999,0.006637,0.022364
595,0.172801,0.98475,0.020128,-0.007259,0.004477,0.022414
596,0.172672,0.984779,0.019823,-0.009677,0.006371,0.020094
597,0.172537,0.984807,0.019638,-0.0079099999999999,0.0120959999999999,0.015106
598,0.172438,0.984827,0.019487,-0.006712,0.010824,0.007994
599,0.172376,0.98484,0.019353,-0.003141,0.009239,0.007442
600,0.172364,0.984844,0.019266,-0.0015869999999999,0.010319,0.01267
601,0.172367,0.984846,0.019166,-0.006245,0.007784,0.016982
602,0.172365,0.98485,0.0189419999999999,-0.009447,0.0097629999999999,0.017206
603,0.17234,0.984861,0.018608,-0.007652,0.0102099999999999,0.019722
604,0.172272,0.984881,0.018209,-0.012878,0.0097019999999999,0.013728
605,0.172175,0.984906,0.017771,-0.011775,0.011066,0.009755
606,0.172044,0.984937,0.017307,-0.007234,0.0072349999999999,0.009884
607,0.171935,0.984962,0.016971,-0.005004,0.005944,0.0130889999999999
608,0.171822,0.984984,0.016861,-0.0078049999999999,0.007204,0.02124
609,0.1717119999999999,0.985002,0.016906,-0.010716,0.006926,0.027375
610,0.171612,0.985018,0.016971,-0.010067,0.008588,0.020871
611,0.171521,0.985033,0.017044,-0.010891,0.01129,0.010818
612,0.17143,0.985049,0.017026,-0.008604,0.012479,0.011645
613,0.171336,0.985067,0.016965,-0.009944,0.007823,0.016544
614,0.17119,0.985093,0.016881,-0.008714,0.0102069999999999,0.018489
615,0.171002,0.985129,0.016699,-0.00964,0.009469,0.020456
616,0.170815,0.985164,0.016581,-0.010247,0.00652,0.01325
617,0.170668,0.985191,0.016485,-0.007613,0.0073939999999999,0.0124459999999999
618,0.170538,0.985213,0.0165039999999999,-0.005576,0.004579,0.013129
619,0.170432,0.98523,0.016567,-0.005759,0.0059039999999999,0.018497
620,0.1703589999999999,0.98524,0.016725,-0.004801,0.010731,0.021712
621,0.1702779999999999,0.98525,0.016984,-0.011572,0.0050149999999999,0.024337
622,0.170262,0.98525,0.017126,-0.011601,0.013087,0.017236
623,0.170287,0.985245,0.0171599999999999,-0.010131,0.0143889999999999,0.015631
624,0.170257,0.985249,0.017206,-0.009796,0.01176,0.01705
625,0.17015,0.985269,0.0171139999999999,-0.010543,0.005896,0.0176449999999999
626,0.170074,0.985285,0.017001,-0.0074,0.00376,0.02046
627,0.169986,0.9853,0.016977,-0.00687,0.005743,0.0210479999999999
628,0.169949,0.985303,0.017177,-0.005719,0.008059,0.0154919999999999
629,0.170024,0.985284,0.0175449999999999,-0.007945,0.012214,0.012179
630,0.170128,0.98526,0.017887,-0.010246,0.009217,0.012646
631,0.170205,0.985243,0.018052,-0.008675,0.010408,0.0158379999999999
632,0.170287,0.985227,0.018161,-0.011092,0.011904,0.017285
633,0.170355,0.985215,0.01819,-0.012793,0.0102069999999999,0.022322
634,0.170388,0.985209,0.018198,-0.01426,0.008687,0.025733
635,0.170328,0.98522,0.018139,-0.007975,0.0101409999999999,0.021351
636,0.170228,0.985239,0.018078,-0.005983,0.007254,0.018909
637,0.170152,0.985251,0.0181069999999999,-0.002534,0.005547,0.014455
638,0.170129,0.985251,0.018366,-0.00628,0.006937,0.022634
639,0.170191,0.985232,0.018796,-0.009394,0.008634,0.021426
640,0.17023,0.985215,0.019323,-0.00957,0.008331,0.018824
641,0.170229,0.985207,0.019722,-0.007555,0.014488,0.0124739999999999
642,0.170197,0.98521,0.019834,-0.004425,0.016346,0.013323
643,0.170181,0.985214,0.019761,-0.0063479999999999,0.013169,0.017852
644,0.170202,0.985212,0.019698,-0.008947,0.008318,0.021668
645,0.170213,0.985208,0.019784,-0.009035,0.00794,0.023063
646,0.170172,0.985211,0.019986,-0.01055,0.007922,0.02756
647,0.170106,0.985219,0.020182,-0.008867,0.009746,0.022161
648,0.170066,0.985222,0.020391,-0.006903,0.011193,0.018763
649,0.170102,0.985209,0.020659,-0.004025,0.011998,0.016572
650,0.170184,0.985187,0.021054,-0.008197,0.010647,0.017322
651,0.170284,0.985162,0.021388,-0.0097159999999999,0.010336,0.018636
652,0.170321,0.98515,0.021658,-0.010623,0.016208,0.023996
653,0.170296,0.985153,0.021748,-0.01049,0.00879,0.02232
654,0.1702779999999999,0.985155,0.021756,-0.008306,0.009687,0.018421
655,0.170315,0.985147,0.0218259999999999,-0.004818,0.011419,0.0235389999999999
656,0.170319,0.985142,0.0220409999999999,-0.007859,0.009472,0.031716
657,0.170328,0.985135,0.022266,-0.010813,0.008929,0.025844
658,0.170351,0.985126,0.022477,-0.009218,0.010159,0.019073
659,0.170394,0.985115,0.0226229999999999,-0.004455,0.007988,0.019522
660,0.17045,0.985101,0.022836,-0.004831,0.010047,0.02085
661,0.170505,0.985083,0.0231719999999999,-0.009144,0.012643,0.021078
662,0.170592,0.985061,0.023486,-0.008315,0.013246,0.019666
663,0.170648,0.985046,0.023712,-0.00773,0.012971,0.018494
664,0.170681,0.985036,0.023854,-0.00732,0.015147,0.015224
665,0.170741,0.985024,0.023939,-0.007686,0.013206,0.01526
666,0.170797,0.985012,0.024017,-0.007162,0.012424,0.020585
667,0.1708329999999999,0.985003,0.024134,-0.007534,0.010892,0.02352
668,0.170878,0.984993,0.0242259999999999,-0.010721,0.011085,0.021932
669,0.1708619999999999,0.984993,0.024345,-0.011712,0.010948,0.02015
670,0.170816,0.984998,0.024452,-0.007715,0.011737,0.019661
671,0.1707769999999999,0.985002,0.024555,-0.00821,0.009444,0.0205349999999999
672,0.17074,0.985004,0.024727,-0.007715,0.008221,0.023506
673,0.17069,0.985008,0.024885,-0.0074819999999999,0.0085069999999999,0.0219439999999999
674,0.170599,0.985021,0.024986,-0.007864,0.011515,0.022774
675,0.170449,0.985047,0.025002,-0.009698,0.008544,0.020515
676,0.170336,0.985067,0.024997,-0.006822,0.008281,0.022396
677,0.170203,0.985089,0.0250169999999999,-0.003104,0.006778,0.026619
678,0.170094,0.985106,0.025089,-0.007054,0.009294,0.024319
679,0.170023,0.985116,0.025161,-0.00799,0.0084599999999999,0.015122
680,0.169958,0.985126,0.025192,-0.008825,0.008236,0.017319
681,0.169881,0.98514,0.025209,-0.007298,0.009764,0.020613
682,0.169791,0.985154,0.025231,-0.0110689999999999,0.008376,0.0261449999999999
683,0.169702,0.98517,0.025224,-0.014291,0.0087879999999999,0.020553
684,0.169593,0.98519,0.025167,-0.0100159999999999,0.0133599999999999,0.017909
685,0.169483,0.985211,0.0251,-0.0083349999999999,0.005939,0.020112
686,0.1693579999999999,0.985234,0.025011,-0.006195,0.0088609999999999,0.015806
687,0.169285,0.98525,0.0249,-0.0036049999999999,0.008647,0.01845
688,0.169203,0.985264,0.024885,-0.004683,0.0100209999999999,0.025988
689,0.169091,0.985283,0.02489,-0.009317,0.004082,0.02084
690,0.169035,0.985293,0.02488,-0.009459,0.004804,0.0174479999999999
691,0.168977,0.985302,0.0249099999999999,-0.003221,0.005924,0.012978
692,0.1689369999999999,0.985307,0.0249889999999999,-0.002632,0.00804,0.015294
693,0.168948,0.985304,0.0250479999999999,-0.006381,0.010424,0.012977
694,0.169005,0.985294,0.025051,-0.006911,0.0108609999999999,0.015202
695,0.169064,0.985285,0.024994,-0.005764,0.008291,0.019943
696,0.16912,0.985279,0.024844,-0.010764,0.009517,0.016279
697,0.169153,0.985279,0.024612,-0.010965,0.008999,0.016419
698,0.169149,0.985286,0.024371,-0.005224,0.008397,0.02464
699,0.169149,0.985292,0.0241259999999999,-0.007421,0.0064379999999999,0.022795
700,0.1691369999999999,0.985297,0.024005,-0.007088,0.007684,0.025052
701,0.169128,0.985299,0.0239699999999999,-0.005737,0.00759,0.019671
702,0.169142,0.985297,0.023952,-0.004882,0.0091939999999999,0.0150949999999999
703,0.169163,0.985293,0.023988,-0.005604,0.007963,0.012786
704,0.169223,0.985281,0.024044,-0.00687,0.008478,0.016178
705,0.169275,0.985272,0.024041,-0.008752,0.006839,0.020148
706,0.169262,0.985275,0.023998,-0.008984,0.0106349999999999,0.020618
707,0.169284,0.985276,0.023803,-0.009555,0.011184,0.017945
708,0.169295,0.98528,0.023574,-0.007369,0.010112,0.016953
709,0.169297,0.985284,0.023395,-0.006501,0.008887,0.021405
710,0.169324,0.985282,0.023273,-0.008039,0.008981,0.024228
711,0.169408,0.985269,0.023181,-0.009237,0.008917,0.020932
712,0.169468,0.98526,0.023162,-0.012302,0.009064,0.020676
713,0.169492,0.985256,0.023117,-0.0112129999999999,0.0083349999999999,0.021301
714,0.169469,0.985261,0.0230639999999999,-0.009984,0.009292,0.021004
715,0.1694109999999999,0.985272,0.023002,-0.008065,0.008228,0.02044
716,0.1693869999999999,0.985279,0.022904,-0.008331,0.008481,0.021041
717,0.1693839999999999,0.98528,0.02284,-0.008037,0.01414,0.0228449999999999
718,0.169382,0.985281,0.022808,-0.013041,0.007623,0.0187419999999999
719,0.169402,0.985279,0.022751,-0.009169,0.013744,0.0148469999999999
720,0.169413,0.985281,0.022598,-0.007045,0.014765,0.0159
721,0.1693569999999999,0.985293,0.022468,-0.010529,0.006406,0.019509
722,0.169302,0.985307,0.022283,-0.01145,0.005004,0.021418
723,0.169254,0.985319,0.022106,-0.003559,0.005175,0.019871
724,0.169231,0.985324,0.022043,-0.00491,0.006833,0.0237639999999999
725,0.16922,0.985325,0.0221139999999999,-0.006225,0.009182,0.023617
726,0.169242,0.985318,0.022233,-0.01316,0.012912,0.019316
727,0.169277,0.985312,0.022252,-0.0081739999999999,0.008738,0.013224
728,0.169292,0.985312,0.022102,-0.007228,0.008508,0.010064
729,0.169231,0.985327,0.02193,-0.00793,0.008158,0.014417
730,0.169141,0.985346,0.021746,-0.006879,0.0076349999999999,0.02046
731,0.16906,0.985363,0.02161,-0.004188,0.007068,0.024762
732,0.168976,0.985379,0.021511,-0.005646,0.007495,0.020161
733,0.168924,0.98539,0.021411,-0.004572,0.006187,0.017591
734,0.16889,0.985398,0.021317,-0.004843,0.0073849999999999,0.0129389999999999
735,0.168853,0.985405,0.021271,-0.0064379999999999,0.008201,0.0150759999999999
736,0.1688,0.985415,0.021225,-0.00724,0.009077,0.019196
737,0.16875,0.985424,0.02122,-0.007297,0.0080299999999999,0.020086
738,0.168703,0.985431,0.021226,-0.0068379999999999,0.008954,0.022567
739,0.168657,0.985439,0.021209,-0.007951,0.008717,0.017533
740,0.16862,0.985447,0.021128,-0.008357,0.009548,0.016775
741,0.168572,0.985458,0.020972,-0.008965,0.006439,0.0154349999999999
742,0.168514,0.985471,0.020834,-0.006786,0.0071129999999999,0.0200289999999999
743,0.168444,0.985486,0.020713,-0.007692,0.0076939999999999,0.0216
744,0.168337,0.985505,0.020643,-0.0088069999999999,0.007995,0.021837
745,0.168243,0.985521,0.020626,-0.007614,0.0067269999999999,0.018574
746,0.168168,0.985534,0.020643,-0.00734,0.0088659999999999,0.020204
747,0.16807,0.985549,0.020699,-0.008631,0.008302,0.016502
748,0.167974,0.985564,0.020743,-0.0108849999999999,0.008943,0.0151449999999999
749,0.16787,0.985581,0.020791,-0.00927,0.009155,0.02024
750,0.167764,0.985598,0.020804,-0.01098,0.007245,0.022073
751,0.167604,0.985624,0.0208889999999999,-0.015108,0.0078,0.028336
752,0.16741,0.985654,0.021036,-0.009909,0.008975,0.018256
753,0.167216,0.985684,0.021154,-0.003993,0.009647,0.011561
754,0.167048,0.985711,0.021177,-0.006678,0.004828,0.0189389999999999
755,0.1668849999999999,0.98574,0.021126,-0.014053,0.008019,0.031898
756,0.16668,0.985776,0.021089,-0.013375,0.004627,0.036376
757,0.166348,0.985831,0.021113,-0.0066799999999999,0.00335,0.026129
758,0.165963,0.985894,0.02124,-0.005441,0.00515,0.017181
759,0.165581,0.985952,0.021531,-0.007347,0.010859,0.016738
760,0.165169,0.986012,0.021919,-0.004814,0.007946,0.015892
761,0.164805,0.986062,0.022378,-0.004542,0.0073459999999999,0.016929
762,0.164452,0.986107,0.0229949999999999,-0.007896,0.008339,0.0158379999999999
763,0.164115,0.986147,0.02368,-0.010444,0.009336,0.014757
764,0.16373,0.986197,0.024274,-0.010059,0.0110569999999999,0.007098
765,0.163328,0.986254,0.024651,-0.00897,0.01396,0.0022199999999999
766,0.162909,0.98632,0.0247639999999999,-0.005744,0.007317,0.003312
767,0.162518,0.986382,0.024886,-0.003445,0.008369,0.008195
768,0.162155,0.986434,0.025189,1.5e-05,0.006867,0.0155979999999999
769,0.161885,0.986464,0.025754,-0.00066,0.005174,0.017047
770,0.161768,0.986463,0.026522,-0.005319,0.0090049999999999,0.0105569999999999
771,0.161728,0.986448,0.027313,-0.003204,0.009219,0.006134
772,0.161727,0.986429,0.0280079999999999,-0.00125,0.01084,0.00869
773,0.161805,0.986401,0.028535,-0.004593,0.013309,0.012725
774,0.161919,0.986367,0.029047,-0.014977,0.007575,0.019675
775,0.162063,0.986326,0.029642,-0.010589,0.009554,0.017249
776,0.1622029999999999,0.986283,0.030288,-0.0083629999999999,0.011962,0.008607
777,0.162367,0.98624,0.030822,-0.003355,0.0108,0.008698
778,0.162645,0.98618,0.031274,-0.0021219999999999,0.010128,0.009696
779,0.163048,0.986097,0.031788,-0.001015,0.009417,0.0130879999999999
780,0.1635599999999999,0.985993,0.03238,-0.008195,0.008453,0.024566
781,0.164179,0.985872,0.032921,-0.010493,0.006667,0.024116
782,0.164764,0.98576,0.033337,-0.011261,0.008151,0.027104
783,0.165277,0.985666,0.033599,-0.011636,0.011695,0.03299
784,0.16567,0.985596,0.0337019999999999,-0.012075,0.005996,0.039235
785,0.166048,0.985529,0.033804,-0.015108,0.001883,0.040552
786,0.166391,0.985469,0.033875,-0.0200139999999999,0.004369,0.039886
787,0.166539,0.985434,0.034151,-0.034444,0.006647,0.043455
788,0.166468,0.985434,0.03448,-0.0295199999999999,0.008767,0.045476
789,0.166195,0.98547,0.034765,-0.022991,0.008914,0.042414
790,0.165696,0.985541,0.035136,-0.009568,0.002725,0.040059
791,0.165144,0.985612,0.0357269999999999,-0.009077,0.000822,0.032144
792,0.164548,0.985677,0.036679,-0.003979,0.002894,0.017353
793,0.164015,0.985724,0.0378,0.005037,0.005258,0.004986
794,0.163593,0.985748,0.038972,0.0081599999999999,0.01329,-0.0052049999999999
795,0.163445,0.985731,0.040011,0.005745,0.013719,-0.002627
796,0.163549,0.985683,0.0407649999999999,0.000194,0.019703,0.001547
797,0.16382,0.985625,0.0410839999999999,-0.00548,0.0165419999999999,0.006966
798,0.164123,0.98558,0.040955,-0.013382,0.013474,0.001769
799,0.164403,0.985552,0.040498,-0.012319,0.011182,-0.001023
800,0.164685,0.985524,0.040044,-0.0042229999999999,0.006938,0.012919
801,0.165089,0.985462,0.039904,-0.0003549999999999,0.0059479999999999,0.013655
802,0.165683,0.985355,0.040068,0.00279,0.005154,0.015031
803,0.166509,0.985198,0.040523,0.00178,0.007875,0.012333
804,0.167502,0.985005,0.041103,-0.000403,0.009853,0.0190159999999999
805,0.16849,0.984811,0.041706,-0.009127,0.0103209999999999,0.0260129999999999
806,0.169389,0.984641,0.042079,-0.019593,0.005746,0.032888
807,0.170289,0.984495,0.041868,-0.019456,0.004381,0.03789
808,0.171049,0.98439,0.041236,-0.022611,0.010361,0.0472649999999999
809,0.171539,0.984349,0.040171,-0.028137,0.011913,0.063497
810,0.1715539999999999,0.984397,0.038908,-0.028335,0.005608,0.064913
811,0.171126,0.984514,0.037829,-0.026579,-0.002825,0.056928
812,0.170294,0.984678,0.037322,-0.018759,-0.006711,0.04709
813,0.169298,0.984839,0.037587,-0.001192,-0.009803,0.0279339999999999
814,0.1684119999999999,0.984945,0.038772,0.0143729999999999,0.002894,0.009995
815,0.1677809999999999,0.984985,0.040438,0.018392,0.007278,-0.006197
816,0.167493,0.984957,0.042269,0.012531,0.017256,-0.019533
817,0.167525,0.984882,0.043841,0.00467,0.016293,-0.015353
818,0.167743,0.984804,0.044765,0.000592,0.018507,-0.0130419999999999
819,0.168018,0.984747,0.044965,-0.00571,0.024423,-0.00662
820,0.168261,0.984738,0.044257,-0.004443,0.019458,-0.004187
821,0.168514,0.98475,0.043014,-0.006831,0.012351,-0.000915
822,0.168794,0.984757,0.041726,-0.0057079999999999,0.0014789999999999,0.009314
823,0.169194,0.984735,0.04063,0.006481,-0.001321,0.027852
824,0.169825,0.98465,0.040061,0.0080769999999999,0.000915,0.031106
825,0.17075,0.984482,0.040255,0.003841,0.005203,0.0284709999999999
826,0.171845,0.984263,0.040931,-0.004334,0.01064,0.027596
827,0.173045,0.984022,0.041672,-0.007624,0.010287,0.027267
828,0.174257,0.983781,0.042301,-0.0118269999999999,0.012465,0.028729
829,0.175433,0.983558,0.04261,-0.021274,0.00512,0.0225
830,0.176561,0.983358,0.042558,-0.024828,0.005136,0.02812
831,0.177594,0.983191,0.042116,-0.027844,0.011911,0.037123
832,0.178503,0.98307,0.041068,-0.03266,0.022011,0.061822
833,0.17923,0.982999,0.039582,-0.034622,0.020038,0.065506
834,0.179539,0.983003,0.03804,-0.0411259999999999,0.008101,0.070694
835,0.179229,0.983109,0.036745,-0.048843,-0.002549,0.066008
836,0.1784329999999999,0.983288,0.035828,-0.043378,-0.003628,0.056426
837,0.177197,0.983524,0.035486,-0.021542,-0.012195,0.041754
838,0.175862,0.983737,0.036235,0.016429,-0.003069,0.023869
839,0.174866,0.983842,0.038122,0.024291,0.006728,0.005884
840,0.1743309999999999,0.983838,0.040607,0.024232,0.017185,-0.008151
841,0.174308,0.983736,0.043082,0.01455,0.023802,-0.022712
842,0.174543,0.983615,0.044847,0.010027,0.024701,-0.027818
843,0.174929,0.983525,0.0453379999999999,-0.000582,0.026592,-0.029194
844,0.175288,0.9835,0.044481,-0.007808,0.025289,-0.019105
845,0.1756589999999999,0.983519,0.042541,-0.009704,0.020006,-0.003631
846,0.176054,0.983543,0.040295,-0.007704,0.005196,0.015903
847,0.176534,0.983543,0.038126,-0.0063219999999999,-0.004723,0.040335
848,0.177097,0.983502,0.0365529999999999,-0.004688,0.001072,0.053382
849,0.17776,0.983419,0.035556,-0.014094,0.008784,0.0537529999999999
850,0.178375,0.983331,0.034892,-0.0311889999999999,0.0114349999999999,0.053701
851,0.178669,0.983304,0.034155,-0.039768,0.004398,0.066354
852,0.178458,0.983362,0.033563,-0.032889,-0.007517,0.073172
853,0.177718,0.983501,0.033431,-0.022826,-0.004756,0.059235
854,0.17675,0.983663,0.033795,-0.008354,-0.001332,0.034533
855,0.175876,0.98379,0.034647,0.010495,0.004201,0.019765
856,0.175139,0.983871,0.0360529999999999,0.020555,0.010849,0.000202
857,0.174781,0.983879,0.03756,0.0197229999999999,0.015618,-0.010766
858,0.174717,0.983843,0.038778,0.014187,0.021361,-0.022542
859,0.174741,0.98381,0.039487,0.009646,0.020798,-0.0264259999999999
860,0.174851,0.983786,0.039622,0.002807,0.01832,-0.026088
861,0.175031,0.98377,0.039216,-0.00845,0.0187169999999999,-0.010422
862,0.175238,0.983765,0.0383839999999999,-0.0103209999999999,0.009979,0.004493
863,0.175498,0.983764,0.037207,-0.012916,0.00583,0.015131
864,0.175765,0.983767,0.035827,-0.015319,0.00868,0.047486
865,0.175943,0.983784,0.034466,-0.014825,0.007411,0.05669
866,0.17594,0.983831,0.033123,-0.023063,0.0057009999999999,0.067874
867,0.1756619999999999,0.98392,0.031958,-0.026523,-0.00165,0.067881
868,0.175074,0.984049,0.0311819999999999,-0.01594,-0.006434,0.060935
869,0.174287,0.984191,0.031147,-0.008057,-0.00804,0.053646
870,0.173509,0.984301,0.031984,0.005263,-0.002734,0.026518
871,0.172868,0.984367,0.033416,0.016113,0.01043,-0.001204
872,0.172466,0.984381,0.035026,0.0165139999999999,0.010416,-0.002815
873,0.172446,0.984327,0.036632,0.0205319999999999,0.017596,-0.0159419999999999
874,0.172811,0.984213,0.037937,0.0076849999999999,0.021967,-0.01714
875,0.173314,0.984096,0.03868,-0.003545,0.023976,-0.0212699999999999
876,0.173892,0.983996,0.038632,-0.0083959999999999,0.021329,-0.0222139999999999
877,0.174602,0.983899,0.037877,-0.004909,0.0180689999999999,-0.015981
878,0.175545,0.983768,0.036897,-0.004082,0.009503,0.003432
879,0.176845,0.983567,0.0360459999999999,-0.011227,0.001891,0.013682
880,0.178255,0.983342,0.03524,-0.0415209999999999,0.017848,0.059349
881,0.179456,0.983159,0.034222,-0.053952,0.024638,0.070102
882,0.180001,0.983116,0.032548,-0.066643,0.015053,0.080688
883,0.179634,0.983247,0.0305529999999999,-0.049888,0.002349,0.087351
884,0.17854,0.983493,0.029001,-0.030056,-0.0087459999999999,0.0763
885,0.177047,0.983774,0.02864,-0.013991,-0.020028,0.049638
886,0.175489,0.984017,0.02983,0.014269,-0.025429,0.020524
887,0.174296,0.984148,0.032396,0.039418,0.016615,-0.009768
888,0.173783,0.984132,0.035482,0.039932,0.016631,-0.012853
889,0.173943,0.983995,0.038391,0.0269389999999999,0.019912,-0.020858
890,0.174527,0.983802,0.040608,0.004855,0.026223,-0.019475
891,0.175151,0.983655,0.041467,-0.01353,0.033297,-0.020242
892,0.1756589999999999,0.983597,0.040685,-0.013565,0.024719,-0.019704
893,0.176063,0.983597,0.0389129999999999,-0.008475,0.013886,-0.005222
894,0.176545,0.983589,0.03686,-0.0093239999999999,0.005089,0.016622
895,0.177234,0.983525,0.035207,-0.014057,0.001597,0.032191
896,0.1781049999999999,0.983404,0.034194,-0.019795,0.0021,0.045396
897,0.178988,0.983263,0.03365,-0.022005,0.009504,0.049495
898,0.179726,0.983141,0.033256,-0.0268629999999999,0.017347,0.060936
899,0.180067,0.983092,0.032829,-0.039534,0.009309,0.07084
900,0.179861,0.983146,0.032347,-0.041739,0.002557,0.070848
901,0.179193,0.983274,0.032157,-0.0287569999999999,0.000597,0.062249
902,0.178245,0.983438,0.032404,-0.014641,-0.00242,0.048925
903,0.1772119999999999,0.983605,0.033002,-0.0033229999999999,0.000221,0.03963
904,0.176229,0.983751,0.033913,0.004298,0.009566,0.025184
905,0.175514,0.983844,0.0349149999999999,0.003746,0.012128,0.018644
906,0.175095,0.983877,0.036058,-0.004014,0.017283,0.011443
907,0.174847,0.983889,0.036922,-0.003552,0.018552,0.005528
908,0.174618,0.983922,0.03715,-0.004925,0.017452,0.004918
909,0.174405,0.983973,0.036798,-0.0082519999999999,0.013983,0.005088
910,0.174229,0.984033,0.036011,-0.0066879999999999,0.011039,0.007095
911,0.174122,0.984089,0.034979,-0.006581,0.009625,0.007242
912,0.174141,0.984123,0.033885,-0.0014269999999999,0.006065,0.0178569999999999
913,0.174287,0.98413,0.032891,-1e-06,0.0053869999999999,0.027137
914,0.174466,0.984119,0.032271,-0.002072,0.004513,0.030732
915,0.174624,0.9841,0.032004,-0.001009,0.005585,0.026407
916,0.174807,0.984069,0.031948,-0.010653,0.009248,0.021488
917,0.175081,0.984018,0.032001,-0.014329,0.009634,0.021054
918,0.175415,0.983953,0.032179,-0.022293,0.015742,0.023043
919,0.175736,0.983892,0.0322779999999999,-0.023819,0.017054,0.024363
920,0.175957,0.983858,0.03211,-0.0262069999999999,0.012526,0.0250349999999999
921,0.176083,0.983851,0.031639,-0.0282709999999999,0.013983,0.030266
922,0.176149,0.98386,0.0309839999999999,-0.020647,0.014431,0.034262
923,0.176121,0.983889,0.030173,-0.0152629999999999,0.009458,0.037835
924,0.175998,0.983934,0.0294329999999999,-0.017093,0.003737,0.037736
925,0.175805,0.983985,0.028873,-0.012109,-0.001823,0.033489
926,0.175492,0.98405,0.028564,-0.006196,-0.001033,0.027558
927,0.17514,0.984109,0.028699,0.004639,0.005012,0.017276
928,0.174895,0.984138,0.029169,0.004503,0.011483,0.018515
929,0.174838,0.984131,0.02974,0.001584,0.011505,0.017897
930,0.1748839999999999,0.984105,0.030287,-0.0005679999999999,0.010142,0.009691
931,0.17492,0.984087,0.030676,-0.0019309999999999,0.0111209999999999,0.005884
932,0.174922,0.984084,0.0307829999999999,-2.6e-05,0.010621,0.0065239999999999
933,0.175021,0.984072,0.0306089999999999,-0.004855,0.01222,0.005661
934,0.175155,0.984061,0.030199,-0.005645,0.0113,0.0112129999999999
935,0.175287,0.984052,0.029707,-0.002023,0.008593,0.016298
936,0.175421,0.984042,0.029274,-0.003607,0.0081,0.022484
937,0.175558,0.984029,0.0288839999999999,-0.001547,0.005336,0.024995
938,0.175696,0.984013,0.028584,-0.002707,0.006512,0.028682
939,0.175827,0.983995,0.028408,-0.0009,0.006209,0.0300329999999999
940,0.175978,0.983971,0.028305,-0.009886,0.008232,0.027527
941,0.176164,0.98394,0.028197,-0.012315,0.0071489999999999,0.02913
942,0.17631,0.983916,0.02812,-0.012462,0.008622,0.027208
943,0.17638,0.983904,0.028107,-0.0142849999999999,0.009504,0.028945
944,0.176349,0.983913,0.027984,-0.014087,0.007908,0.0266269999999999
945,0.176281,0.98393,0.027814,-0.008709,0.0068379999999999,0.015674
946,0.176236,0.983945,0.027587,-0.006132,0.008853,0.0167389999999999
947,0.176251,0.983947,0.0274139999999999,-0.010098,0.0085,0.021155
948,0.176313,0.98394,0.027259,-0.013807,0.010277,0.024529
949,0.176364,0.983936,0.027065,-0.016772,0.010387,0.026996
950,0.176391,0.983939,0.026773,-0.020125,0.008492,0.025107
951,0.176417,0.983942,0.026498,-0.022501,0.011709,0.021262
952,0.1764339999999999,0.983946,0.026257,-0.018704,0.009951,0.024539
953,0.17648,0.983942,0.026099,-0.014447,0.008597,0.027566
954,0.176549,0.983931,0.02605,-0.014149,0.007174,0.026486
955,0.176591,0.983923,0.0260649999999999,-0.007783,0.009363,0.028241
956,0.176702,0.983903,0.026037,-0.00118,0.012908,0.025934
957,0.176797,0.983892,0.025832,-0.000298,0.0161539999999999,0.027955
958,0.176803,0.983899,0.025495,-0.008468,0.005542,0.023592
959,0.176812,0.983907,0.025147,-0.001626,0.000133,0.0226889999999999
960,0.176835,0.983907,0.024985,0.001357,0.002421,0.029336
961,0.17683,0.983908,0.02497,-0.001873,0.005533,0.03077
962,0.176778,0.983918,0.0249509999999999,-0.01,0.0113829999999999,0.020582
963,0.176728,0.983928,0.0249199999999999,-0.010392,0.012456,0.015378
964,0.17665,0.983943,0.0248539999999999,-0.00981,0.0099379999999999,0.0195639999999999
965,0.176565,0.983962,0.024734,-0.013739,0.009019,0.027024
966,0.176489,0.98398,0.024561,-0.015921,0.010955,0.027074
967,0.176391,0.984002,0.02435,-0.012497,0.011252,0.023425
968,0.176349,0.984018,0.024026,-0.013202,0.008811,0.021186
969,0.176377,0.984024,0.0235669999999999,-0.015031,0.008118,0.01696
970,0.176491,0.984012,0.023183,-0.015694,0.008175,0.0267589999999999
971,0.176699,0.98398,0.022983,-0.014315,0.0064069999999999,0.03349
972,0.176893,0.983947,0.022889,-0.015883,0.006654,0.036529
973,0.176996,0.983931,0.022781,-0.012582,0.013353,0.023819
974,0.17711,0.983916,0.022546,-0.012681,0.014985,0.021002
975,0.177208,0.983905,0.02223,-0.01313,0.01199,0.019305
976,0.177299,0.983896,0.021915,-0.010383,0.003485,0.034436
977,0.1773549999999999,0.983892,0.021656,-0.008944,0.0028179999999999,0.039135
978,0.1774069999999999,0.983886,0.021493,-0.0113,0.006989,0.038672
979,0.177402,0.98389,0.021366,-0.016086,0.011075,0.0265769999999999
980,0.177398,0.983895,0.021166,-0.017485,0.013374,0.017668
981,0.177386,0.983904,0.020814,-0.015109,0.012037,0.0158379999999999
982,0.177415,0.983906,0.02051,-0.013063,0.007443,0.028638
983,0.1774359999999999,0.983907,0.020279,-0.013999,0.006908,0.036987
984,0.177445,0.983908,0.020148,-0.015,0.007227,0.035882
985,0.177389,0.983921,0.020005,-0.01795,0.008587,0.026595
986,0.1773,0.983941,0.019799,-0.010003,0.014381,0.014624
987,0.177218,0.983962,0.01949,-0.005221,0.010393,0.018627
988,0.177173,0.983976,0.019165,-0.005482,0.005831,0.029389
989,0.177207,0.983975,0.018915,-0.006767,0.008289,0.030691
990,0.177263,0.983968,0.018725,-0.0089129999999999,0.0124459999999999,0.027067
991,0.177333,0.983958,0.0185819999999999,-0.015132,0.011144,0.022708
992,0.177341,0.983961,0.018358,-0.01781,0.00725,0.016112
993,0.177353,0.983966,0.018012,-0.0111849999999999,0.006009,0.021936
994,0.177341,0.983976,0.017597,-0.006518,0.003756,0.023891
995,0.177314,0.983986,0.017285,-0.009131,0.00547,0.029651
996,0.177315,0.983991,0.01701,-0.0130689999999999,0.008548,0.027957
997,0.177267,0.984004,0.016732,-0.0117849999999999,0.010411,0.027152
998,0.17715,0.984029,0.016492,-0.005412,0.006709,0.026736
999,0.177008,0.984059,0.01625,-0.005637,0.003963,0.024018
1000,0.176858,0.984088,0.016145,-0.001656,0.006345,0.02545
1001,0.176778,0.984101,0.016235,-0.0062299999999999,0.007019,0.025253
1002,0.176732,0.984105,0.016422,-0.0079849999999999,0.00883,0.020505
1003,0.176677,0.984114,0.016529,-0.009379,0.010317,0.013546
1004,0.176592,0.98413,0.016477,-0.0088519999999999,0.010606,0.011736
1005,0.176511,0.984148,0.016263,-0.006909,0.010786,0.012637
1006,0.176484,0.984157,0.016007,-0.008988,0.010609,0.016998
1007,0.176507,0.984156,0.015795,-0.012659,0.008611,0.024626
1008,0.176541,0.984152,0.015685,-0.011654,0.008555,0.026948
1009,0.176539,0.984154,0.015577,-0.010264,0.008171,0.026125
1010,0.176521,0.984157,0.015518,-0.009285,0.010487,0.0207669999999999
1011,0.176554,0.984153,0.015452,-0.011576,0.01069,0.019476
1012,0.176587,0.984148,0.015381,-0.012051,0.009565,0.021865
1013,0.176668,0.984134,0.015358,-0.014421,0.009381,0.024742
1014,0.176707,0.984128,0.015308,-0.019725,0.0069459999999999,0.030576
1015,0.176628,0.984144,0.015186,-0.01931,0.00844,0.033612
1016,0.1764619999999999,0.984176,0.0149889999999999,-0.015528,0.0107879999999999,0.035288
1017,0.176246,0.984217,0.0148449999999999,-0.017311,0.007101,0.028856
1018,0.175979,0.984265,0.0148469999999999,-0.013855,0.006625,0.022384
1019,0.175703,0.984313,0.014957,-0.011397,0.00612,0.0198479999999999
1020,0.1754089999999999,0.984362,0.0151919999999999,-0.00709,0.0088019999999999,0.02326
1021,0.1751309999999999,0.984406,0.015506,-0.008978,0.0068349999999999,0.026379
1022,0.1749339999999999,0.984435,0.015901,-0.007316,0.013368,0.016798
1023,0.1748549999999999,0.984441,0.016347,-0.009679,0.016383,0.0109959999999999
1024,0.174826,0.984441,0.016686,-0.011908,0.016734,0.003943
1025,0.174787,0.984446,0.016774,-0.011274,0.009908,0.011836
1026,0.174806,0.984445,0.016676,-0.016496,0.007681,0.014085
1027,0.174914,0.984426,0.016625,-0.021609,0.009165,0.026542
1028,0.175044,0.984404,0.016599,-0.023066,0.009447,0.0291769999999999
1029,0.175118,0.984393,0.016464,-0.021005,0.01518,0.034012
1030,0.175142,0.984393,0.016205,-0.023347,0.0132719999999999,0.038376
1031,0.175088,0.984407,0.015964,-0.020837,0.00717,0.04054
1032,0.174834,0.98445,0.016073,-0.019438,0.000184,0.047892
1033,0.174456,0.984508,0.016644,-0.014224,0.001149,0.03223
1034,0.174045,0.984566,0.017471,-0.011356,0.005333,0.0249479999999999
1035,0.173642,0.984619,0.018459,0.000842,0.010315,0.014088
1036,0.173361,0.984649,0.019461,0.0012,0.010743,0.016474
1037,0.173224,0.984655,0.020361,-0.004599,0.010142,0.013605
1038,0.173172,0.984648,0.0211319999999999,-0.007598,0.01172,0.0152909999999999
1039,0.173116,0.984645,0.021733,-0.011419,0.014425,0.009639
1040,0.173072,0.984644,0.022104,-0.01226,0.012304,0.0108849999999999
1041,0.173024,0.984646,0.022386,-0.006352,0.00861,0.0130139999999999
1042,0.172944,0.984655,0.0226169999999999,-0.001039,0.008784,0.0191919999999999
1043,0.172934,0.98465,0.022883,-0.007758,0.0111989999999999,0.0256399999999999
1044,0.1729369999999999,0.984638,0.023369,-0.016321,0.005627,0.030006
1045,0.172951,0.98462,0.024006,-0.012551,0.006514,0.028668
1046,0.172932,0.984608,0.024659,-0.009007,0.008267,0.025512
1047,0.172921,0.984593,0.025302,-0.014153,0.0081129999999999,0.020994
1048,0.172914,0.984577,0.025957,-0.015627,0.009136,0.020597
1049,0.172892,0.984561,0.026694,-0.012293,0.010296,0.022363
1050,0.172842,0.984551,0.027397,-0.014426,0.010048,0.030358
1051,0.1728039999999999,0.984541,0.02798,-0.015303,0.013308,0.0265399999999999
1052,0.172775,0.984535,0.028375,-0.014679,0.011468,0.025275
1053,0.172778,0.984524,0.028734,-0.01012,0.012165,0.023284
1054,0.17278,0.984512,0.029135,-0.007284,0.008103,0.021814
1055,0.172863,0.984483,0.0296209999999999,-0.007458,0.003203,0.0286519999999999
1056,0.172984,0.984443,0.0302399999999999,-0.002193,0.006555,0.025515
1057,0.173194,0.984385,0.030904,-0.000358,0.013097,0.027904
1058,0.173405,0.984326,0.031611,-0.006519,0.012302,0.028387
1059,0.173618,0.984271,0.032133,-0.01218,0.0099,0.026522
1060,0.173816,0.984227,0.032402,-0.009616,0.00793,0.02021
1061,0.174002,0.984191,0.032504,-0.006842,0.009019,0.030347
1062,0.174215,0.984149,0.032632,-0.0108849999999999,0.006253,0.034827
1063,0.174447,0.984098,0.032934,-0.0138789999999999,0.007617,0.035029
1064,0.174615,0.984054,0.033368,-0.018258,0.008729,0.0379209999999999
1065,0.174727,0.984022,0.033699,-0.015364,0.009172,0.032905
1066,0.174778,0.984005,0.03394,-0.011432,0.006595,0.025829
1067,0.174843,0.983985,0.034182,-0.009636,0.0082329999999999,0.025876
1068,0.174948,0.983951,0.034623,-0.010641,0.0073209999999999,0.034591
1069,0.175067,0.98391,0.035194,-0.01247,0.010353,0.032646
1070,0.175181,0.983871,0.035715,-0.01594,0.013734,0.026068
1071,0.175262,0.983842,0.0360959999999999,-0.012451,0.013197,0.0189879999999999
1072,0.1753289999999999,0.983823,0.0362899999999999,-0.00913,0.01311,0.0229289999999999
1073,0.175427,0.9838,0.036436,-0.010297,0.011332,0.025622
1074,0.175507,0.983778,0.036663,-0.014756,0.0070209999999999,0.033696
1075,0.175561,0.98376,0.036882,-0.014031,0.009999,0.030516
1076,0.175626,0.983742,0.037041,-0.011197,0.008643,0.0260089999999999
1077,0.175722,0.98372,0.037186,-0.007326,0.010925,0.028793
1078,0.175842,0.983692,0.037355,-0.008666,0.007809,0.031782
1079,0.17599,0.98366,0.037508,-0.013468,0.008986,0.028303
1080,0.176095,0.983639,0.037566,-0.016488,0.009678,0.028321
1081,0.176143,0.983631,0.037536,-0.0136979999999999,0.0090599999999999,0.031541
1082,0.176174,0.98363,0.0374139999999999,-0.013729,0.009061,0.031663
1083,0.176142,0.983635,0.037437,-0.0102329999999999,0.006279,0.0327379999999999
1084,0.1760789999999999,0.98364,0.037584,-0.008003,0.006258,0.03282
1085,0.176041,0.983641,0.037731,-0.009476,0.006486,0.0266149999999999
1086,0.176017,0.983638,0.037935,-0.0067519999999999,0.008962,0.022383
1087,0.176047,0.983626,0.038102,-0.0090099999999999,0.009797,0.024261
1088,0.176088,0.983615,0.038191,-0.010851,0.005978,0.022753
1089,0.176093,0.983617,0.038124,-0.010214,0.009318,0.026131
1090,0.176065,0.983629,0.037939,-0.0035039999999999,0.009855,0.0281459999999999
1091,0.176019,0.983642,0.037832,-0.008676,0.008836,0.028422
1092,0.175981,0.983649,0.037817,-0.011079,0.0039759999999999,0.024775
1093,0.175989,0.983645,0.037873,-0.0074709999999999,0.004209,0.026001
1094,0.176022,0.983635,0.037997,-0.005886,0.0091019999999999,0.024656
1095,0.176087,0.98362,0.038085,-0.007203,0.010704,0.026994
1096,0.17615,0.983611,0.038022,-0.013125,0.011354,0.023165
1097,0.176225,0.983605,0.03782,-0.014131,0.009589,0.023246
1098,0.176231,0.983616,0.037502,-0.011405,0.00851,0.028706
1099,0.176206,0.983633,0.037176,-0.009976,0.006144,0.0326329999999999
1100,0.176165,0.98365,0.036905,-0.013308,0.007652,0.03272
1101,0.1761319999999999,0.983664,0.036687,-0.011353,0.008111,0.02798
1102,0.176085,0.983677,0.036563,-0.010039,0.0091659999999999,0.024824
1103,0.176081,0.983681,0.036481,-0.009989,0.0078049999999999,0.020846
1104,0.176084,0.983685,0.036361,-0.009992,0.006962,0.026719
1105,0.176124,0.983683,0.03621,-0.012672,0.011937,0.025954
1106,0.1761349999999999,0.983691,0.035947,-0.015796,0.0107549999999999,0.028781
1107,0.176126,0.983703,0.035675,-0.013955,0.009538,0.026092
1108,0.176108,0.983716,0.035399,-0.011999,0.009662,0.021592
1109,0.1761039999999999,0.983726,0.035117,-0.00809,0.008675,0.023431
1110,0.176144,0.983729,0.034847,-0.0072599999999999,0.008245,0.023549
1111,0.176208,0.983724,0.034642,-0.010589,0.009104,0.026729
1112,0.176279,0.983719,0.034425,-0.013269,0.008346,0.027145
1113,0.1763279999999999,0.983718,0.034211,-0.011411,0.007767,0.024276
1114,0.176349,0.983725,0.033915,-0.0104549999999999,0.0070129999999999,0.027318
1115,0.1763549999999999,0.983733,0.033629,-0.012171,0.009461,0.028947
1116,0.1763829999999999,0.983737,0.033373,-0.013038,0.008908,0.03082
1117,0.176405,0.983738,0.033219,-0.0152729999999999,0.008281,0.028076
1118,0.17643,0.983738,0.033095,-0.013894,0.007717,0.027055
1119,0.176482,0.983731,0.033017,-0.014205,0.010119,0.025805
1120,0.176473,0.983734,0.033003,-0.013021,0.0075689999999999,0.0290089999999999
1121,0.176443,0.98374,0.032954,-0.0146229999999999,0.003839,0.029424
1122,0.176416,0.983747,0.032899,-0.012705,0.008456,0.0258779999999999
1123,0.17639,0.983754,0.032823,-0.008803,0.014613,0.025542
1124,0.176325,0.983769,0.03271,-0.009744,0.011607,0.02387
1125,0.176206,0.983798,0.032485,-0.01785,0.006238,0.022858
1126,0.176124,0.983823,0.032175,-0.009056,0.006992,0.026587
1127,0.17606,0.983842,0.031942,-0.009419,0.006271,0.027049
1128,0.176018,0.983852,0.031838,-0.011269,0.007893,0.026664
1129,0.176,0.983857,0.031798,-0.013127,0.011047,0.024385
1130,0.176003,0.983858,0.031731,-0.013375,0.0095959999999999,0.025657
1131,0.17597,0.98387,0.031562,-0.011617,0.009615,0.020241
1132,0.1759119999999999,0.98389,0.0312529999999999,-0.012337,0.010342,0.0219539999999999
1133,0.175848,0.983913,0.030887,-0.011572,0.007908,0.022061
1134,0.175811,0.983932,0.030475,-0.012298,0.0078739999999999,0.02377
1135,0.175753,0.983957,0.030031,-0.0089129999999999,0.007926,0.026686
1136,0.175719,0.983974,0.02965,-0.009505,0.0071,0.0286839999999999
1137,0.175703,0.983983,0.029462,-0.009535,0.007778,0.027225
1138,0.175708,0.983985,0.029365,-0.014286,0.010782,0.021782
1139,0.175722,0.983984,0.029297,-0.013597,0.011164,0.020874
1140,0.175735,0.983984,0.029218,-0.012024,0.009806,0.025637
1141,0.175742,0.983984,0.0291649999999999,-0.010947,0.009027,0.028926
1142,0.175714,0.983992,0.029087,-0.012139,0.009981,0.027676
1143,0.17567,0.984005,0.028916,-0.01176,0.010273,0.018859
1144,0.17559,0.984028,0.028587,-0.008278,0.0081739999999999,0.016335
1145,0.175542,0.984046,0.0282639999999999,-0.0047659999999999,0.006051,0.021236
1146,0.175551,0.98405,0.0281029999999999,-0.009673,0.007528,0.028263
1147,0.175586,0.984044,0.0280839999999999,-0.012424,0.008891,0.0311819999999999
1148,0.175608,0.98404,0.028082,-0.012843,0.011016,0.024363
1149,0.175653,0.984033,0.028041,-0.010964,0.008643,0.020909
1150,0.175709,0.984024,0.028017,-0.012119,0.008393,0.021497
1151,0.175761,0.984015,0.0279959999999999,-0.0138039999999999,0.011728,0.0219
1152,0.175774,0.984015,0.027902,-0.013116,0.01069,0.025458
1153,0.175787,0.984018,0.027745,-0.011587,0.007376,0.022685
1154,0.175812,0.98402,0.027524,-0.011612,0.0113879999999999,0.024921
1155,0.1758809999999999,0.984012,0.027361,-0.013756,0.008618,0.0306839999999999
1156,0.1759119999999999,0.984007,0.027341,-0.013315,0.010378,0.02721
1157,0.175879,0.984013,0.0273339999999999,-0.008933,0.004604,0.024821
1158,0.175886,0.984011,0.027364,-0.004835,0.0064069999999999,0.025401
1159,0.175931,0.983999,0.027491,-0.008176,0.006861,0.025778
1160,0.176037,0.983975,0.02769,-0.01289,0.011844,0.022404
1161,0.176171,0.983946,0.027854,-0.018197,0.012438,0.019662
1162,0.176259,0.983931,0.027841,-0.009633,0.00934,0.023108
1163,0.176292,0.983929,0.027686,-0.008506,0.009235,0.028542
1164,0.176324,0.983928,0.02754,-0.013986,0.006718,0.033679
1165,0.176364,0.983923,0.027461,-0.0143,0.008264,0.032781
1166,0.176464,0.983905,0.0274459999999999,-0.010739,0.008938,0.025715
1167,0.176544,0.983891,0.02744,-0.009643,0.00619,0.0231889999999999
1168,0.1766329999999999,0.983874,0.027491,-0.011655,0.008329,0.02976
1169,0.176714,0.983858,0.027529,-0.01317,0.009168,0.031675
1170,0.176773,0.983846,0.027565,-0.013061,0.008891,0.029518
1171,0.176827,0.983836,0.0276,-0.012169,0.009649,0.025882
1172,0.176925,0.983817,0.0276259999999999,-0.009689,0.010812,0.022438
1173,0.176995,0.983804,0.0276529999999999,-0.0109489999999999,0.009101,0.0245169999999999
1174,0.177079,0.983788,0.0276589999999999,-0.0092319999999999,0.007834,0.027578
1175,0.1771569999999999,0.983775,0.027644,-0.01079,0.006856,0.027197
1176,0.177225,0.983761,0.027707,-0.011789,0.008518,0.032763
1177,0.177297,0.983745,0.027799,-0.013021,0.008534,0.028979
1178,0.1773549999999999,0.983732,0.027891,-0.010104,0.010195,0.020128
1179,0.177417,0.983721,0.027888,-0.010333,0.008482,0.0221759999999999
1180,0.177475,0.983711,0.027854,-0.009034,0.006615,0.0279779999999999
1181,0.177537,0.983701,0.027819,-0.012513,0.008868,0.030927
1182,0.177575,0.983693,0.027839,-0.016793,0.0076549999999999,0.03399
1183,0.1776049999999999,0.983687,0.02787,-0.013268,0.009828,0.029
1184,0.177627,0.983682,0.027895,-0.011566,0.010886,0.022963
1185,0.1776309999999999,0.983681,0.0279029999999999,-0.010716,0.004585,0.023214
1186,0.1776599999999999,0.983678,0.027839,-0.012087,0.00851,0.030694
1187,0.177717,0.983671,0.027718,-0.010587,0.014147,0.033211
1188,0.177787,0.98366,0.027644,-0.01464,0.010877,0.034719
1189,0.177771,0.983664,0.027625,-0.019004,0.003855,0.034311
1190,0.177719,0.983673,0.02761,-0.010437,0.004806,0.0307089999999999
1191,0.177672,0.983681,0.027631,-0.007476,0.007606,0.0284449999999999
1192,0.177617,0.983686,0.027793,-0.00826,0.008333,0.026849
1193,0.1776319999999999,0.98368,0.0279089999999999,-0.012074,0.011452,0.0193169999999999
1194,0.177677,0.98367,0.027962,-0.010166,0.009631,0.022392
1195,0.177728,0.983663,0.027895,-0.009698,0.009394,0.0284399999999999
1196,0.17773,0.983666,0.027768,-0.01495,0.007667,0.028186
1197,0.177675,0.983682,0.027569,-0.0109579999999999,0.007484,0.025211
1198,0.177609,0.9837,0.027357,-0.007794,0.010731,0.02495
1199,0.177613,0.983705,0.027148,-0.00879,0.006408,0.029294
1200,0.177669,0.983698,0.0270029999999999,-0.010204,0.007436,0.03362
1201,0.177731,0.983688,0.026973,-0.013775,0.007706,0.027043
1202,0.177769,0.983681,0.0269519999999999,-0.010915,0.008811,0.026667
1203,0.177777,0.983682,0.026889,-0.01019,0.009452,0.029081
1204,0.177804,0.983679,0.026792,-0.010034,0.009256,0.0285209999999999
1205,0.177866,0.983669,0.026767,-0.01185,0.009205,0.027494
1206,0.1779609999999999,0.983653,0.026724,-0.011945,0.009221,0.027537
1207,0.178024,0.983643,0.026657,-0.014022,0.01039,0.026504
1208,0.178019,0.983648,0.026506,-0.012065,0.0105989999999999,0.029097
1209,0.178036,0.983649,0.026369,-0.009518,0.009317,0.0298899999999999
1210,0.178064,0.983647,0.026281,-0.010065,0.007229,0.02865
1211,0.178094,0.983643,0.026219,-0.0128259999999999,0.006531,0.02856
1212,0.178115,0.983641,0.026151,-0.013778,0.008608,0.0277129999999999
1213,0.178111,0.983644,0.026049,-0.01353,0.010222,0.030195
1214,0.178116,0.983646,0.025948,-0.013428,0.010388,0.028572
1215,0.178134,0.983647,0.025769,-0.0128199999999999,0.010356,0.030017
1216,0.17815,0.983648,0.0256269999999999,-0.0153689999999999,0.008311,0.0290449999999999
1217,0.178164,0.983648,0.025533,-0.012743,0.009272,0.031947
1218,0.178165,0.98365,0.025445,-0.014606,0.006981,0.032539
1219,0.178139,0.983658,0.025329,-0.01429,0.006455,0.0288399999999999
1220,0.178078,0.983672,0.025215,-0.009438,0.014863,0.024803
1221,0.178073,0.983676,0.025075,-0.009814,0.011517,0.027323
1222,0.17805,0.983685,0.024886,-0.014277,0.005405,0.0274519999999999
1223,0.178023,0.983695,0.024683,-0.010833,0.0048,0.027395
1224,0.1779859999999999,0.983707,0.024456,-0.005821,0.005383,0.030567
1225,0.177942,0.983719,0.024287,-0.009302,0.010452,0.029927
1226,0.177965,0.983718,0.024168,-0.013506,0.011018,0.0248889999999999
1227,0.178042,0.983706,0.0240699999999999,-0.0143449999999999,0.0111209999999999,0.021996
1228,0.178125,0.983694,0.023946,-0.0111019999999999,0.008661,0.024562
1229,0.178162,0.983691,0.023799,-0.009247,0.008542,0.0246009999999999
1230,0.178123,0.983702,0.023633,-0.010139,0.008027,0.028964
1231,0.178051,0.983721,0.023423,-0.008495,0.009978,0.0300129999999999
1232,0.177996,0.983735,0.023213,-0.007311,0.010832,0.022991
1233,0.177976,0.983744,0.023006,-0.009046,0.00675,0.021671
1234,0.177995,0.983745,0.022819,-0.009767,0.0071,0.025979
1235,0.178006,0.983746,0.022675,-0.011838,0.00655,0.0303029999999999
1236,0.177994,0.98375,0.0225819999999999,-0.011368,0.006942,0.0318009999999999
1237,0.1779609999999999,0.983758,0.022517,-0.0112129999999999,0.007956,0.025716
1238,0.177916,0.983766,0.0225259999999999,-0.010084,0.009108,0.026302
1239,0.177874,0.983773,0.022571,-0.009127,0.009254,0.019833
1240,0.1778269999999999,0.983781,0.022594,-0.008073,0.0093379999999999,0.022328
1241,0.177776,0.98379,0.02259,-0.008938,0.008519,0.022393
1242,0.1776859999999999,0.983808,0.02252,-0.01103,0.008273,0.028444
1243,0.177581,0.983829,0.022446,-0.011047,0.009183,0.030731
1244,0.177492,0.983846,0.0223879999999999,-0.00905,0.00976,0.026715
1245,0.1774079999999999,0.983862,0.022352,-0.009577,0.009058,0.024401
1246,0.177326,0.983879,0.022247,-0.008411,0.007683,0.024918
1247,0.177239,0.983899,0.022085,-0.010659,0.007114,0.030588
1248,0.177171,0.983915,0.021909,-0.01735,0.007937,0.030673
1249,0.17708,0.983932,0.021846,-0.01523,0.007706,0.029973
1250,0.176952,0.983954,0.021918,-0.01556,0.008081,0.027154
1251,0.176781,0.983982,0.022064,-0.013909,0.009091,0.0256959999999999
1252,0.176565,0.984017,0.022226,-0.009603,0.005501,0.0250759999999999
1253,0.176371,0.984048,0.022391,-0.0066319999999999,0.009101,0.023233
1254,0.176222,0.984071,0.022531,-0.009352,0.014159,0.023398
1255,0.176082,0.984092,0.022734,-0.0135,0.009011,0.026781
1256,0.175831,0.984132,0.022955,-0.013355,0.006454,0.027093
1257,0.175537,0.984181,0.02306,-0.008286,0.0056409999999999,0.022716
1258,0.175239,0.984235,0.023053,-0.00106,0.0065489999999999,0.018405
1259,0.174977,0.984282,0.023048,-0.006138,0.008714,0.023888
1260,0.174873,0.984299,0.023112,-0.012733,0.0101319999999999,0.024816
1261,0.1748019999999999,0.984307,0.023321,-0.020658,0.009803,0.026514
1262,0.174651,0.984331,0.023437,-0.015624,0.011473,0.022736
1263,0.174444,0.984369,0.023378,-0.0132199999999999,0.010077,0.017195
1264,0.174223,0.984413,0.0231819999999999,-0.011152,0.007912,0.01852
1265,0.174016,0.984451,0.0231129999999999,-0.0103959999999999,0.006531,0.028172
1266,0.17387,0.984473,0.023293,-0.013256,0.00506,0.033394
1267,0.173733,0.984488,0.023661,-0.013837,0.007882,0.026387
1268,0.173605,0.984502,0.02402,-0.012457,0.008616,0.025998
1269,0.173424,0.984525,0.024405,-0.0086129999999999,0.008914,0.02186
1270,0.173282,0.984541,0.0247469999999999,-0.0099519999999999,0.009676,0.0207389999999999
1271,0.1731869999999999,0.984552,0.025001,-0.010558,0.007499,0.021294
1272,0.1730809999999999,0.984564,0.0252599999999999,-0.014084,0.009852,0.022347
1273,0.172973,0.984576,0.025519,-0.015105,0.013013,0.027017
1274,0.172822,0.984597,0.025699,-0.012406,0.008536,0.02583
1275,0.1726599999999999,0.984622,0.025849,-0.011787,0.007657,0.023818
1276,0.172476,0.984649,0.02605,-0.007162,0.006745,0.026867
1277,0.172352,0.984664,0.026309,-0.007542,0.006883,0.029615
1278,0.172276,0.984666,0.026706,-0.009526,0.005278,0.030057
1279,0.172221,0.984659,0.0273069999999999,-0.013027,0.00672,0.031668
1280,0.172138,0.984658,0.027886,-0.013324,0.008903,0.027823
1281,0.172019,0.984665,0.028374,-0.014868,0.009613,0.0271529999999999
1282,0.171891,0.984675,0.02877,-0.013429,0.0080769999999999,0.023385
1283,0.171787,0.984682,0.029155,-0.014698,0.009718,0.023305
1284,0.171704,0.984686,0.0295019999999999,-0.013821,0.011026,0.025842
1285,0.171537,0.984708,0.0297519999999999,-0.014341,0.007418,0.024752
1286,0.1713859999999999,0.984732,0.029827,-0.014465,0.0066319999999999,0.0293769999999999
1287,0.171301,0.984745,0.029872,-0.008368,0.011028,0.0305529999999999
1288,0.171249,0.984747,0.030116,-0.005417,0.009318,0.031682
1289,0.171138,0.984753,0.030548,-0.0034289999999999,0.0030399999999999,0.025314
1290,0.170993,0.984766,0.030917,-0.005481,0.004644,0.018476
1291,0.170898,0.984774,0.0312,0.002091,0.0043619999999999,0.0214889999999999
1292,0.17085,0.98477,0.031573,-0.000135,0.0058,0.025205
1293,0.17087,0.984749,0.03211,-0.010698,0.0085209999999999,0.023799
1294,0.170895,0.984727,0.032656,-0.011715,0.011886,0.018308
1295,0.170914,0.984712,0.033011,-0.009598,0.011504,0.015191
1296,0.170957,0.984698,0.033199,-0.012891,0.010541,0.02126
1297,0.1710279999999999,0.984682,0.033311,-0.014961,0.01045,0.030822
1298,0.171128,0.984657,0.033532,-0.020234,0.008095,0.0342779999999999
1299,0.17124,0.98463,0.033767,-0.019842,0.011403,0.03209
1300,0.171273,0.984622,0.033839,-0.017754,0.009427,0.0289509999999999
1301,0.171303,0.984617,0.033813,-0.016808,0.007372,0.029847
1302,0.171339,0.984611,0.033826,-0.018278,0.0064319999999999,0.037143
1303,0.17137,0.984599,0.034024,-0.018782,0.00797,0.040485
1304,0.1713849999999999,0.984586,0.034303,-0.019606,0.007968,0.037795
1305,0.1713599999999999,0.98458,0.034605,-0.01865,0.007943,0.033739
1306,0.171255,0.984589,0.034858,-0.0141509999999999,0.00856,0.033837
1307,0.17114,0.9846,0.0351029999999999,-0.012692,0.007862,0.034095
1308,0.171031,0.984609,0.035371,-0.011042,0.00947,0.034072
1309,0.170938,0.984612,0.035745,-0.0138639999999999,0.007545,0.032416
1310,0.170801,0.984619,0.036194,-0.009821,0.0077209999999999,0.0247949999999999
1311,0.170626,0.984636,0.036556,-0.005922,0.006483,0.018544
1312,0.170406,0.984663,0.036867,-0.004268,0.009966,0.013868
1313,0.17018,0.984691,0.037166,-0.002531,0.008687,0.021962
1314,0.170059,0.984701,0.037461,-0.002655,0.0125069999999999,0.022491
1315,0.170036,0.984691,0.037812,-0.004996,0.010365,0.025405
1316,0.170026,0.98468,0.038148,-0.009321,0.00853,0.015441
1317,0.16998,0.98468,0.038339,-0.0061,0.011062,0.016501
1318,0.169923,0.984691,0.038331,-0.005357,0.011266,0.015853
1319,0.169904,0.984695,0.038299,-0.003812,0.010742,0.025574
1320,0.169925,0.984693,0.038261,-0.010699,0.00545,0.0259329999999999
1321,0.170013,0.984678,0.038258,-0.008758,0.013262,0.021709
1322,0.170064,0.984669,0.038261,-0.007986,0.013622,0.024911
1323,0.170016,0.984677,0.038274,-0.006793,0.0008269999999999,0.0305279999999999
1324,0.169947,0.984686,0.03835,-0.004206,0.002451,0.03326
1325,0.169949,0.984679,0.038505,-0.004345,0.005677,0.034096
1326,0.16998,0.984664,0.038769,-0.006833,0.006273,0.032169
1327,0.170099,0.984628,0.039141,-0.014536,0.009085,0.024015
1328,0.170207,0.984596,0.0394889999999999,-0.0125379999999999,0.009468,0.02588
1329,0.170273,0.984576,0.039715,-0.010956,0.0086489999999999,0.029362
1330,0.170363,0.98456,0.039711,-0.01155,0.009489,0.033531
1331,0.170465,0.984548,0.03957,-0.01333,0.009257,0.031093
1332,0.170606,0.984527,0.039513,-0.012738,0.011003,0.027931
1333,0.170736,0.984504,0.039519,-0.004873,0.007455,0.022905
1334,0.1708859999999999,0.984481,0.0394529999999999,-0.003177,0.006166,0.025122
1335,0.1711369999999999,0.984442,0.039326,-0.002955,0.007898,0.0296139999999999
1336,0.171489,0.984386,0.0392029999999999,-0.006603,0.007573,0.033032
1337,0.1718569999999999,0.984324,0.039159,-0.014783,0.006704,0.032908
1338,0.172165,0.984277,0.0389959999999999,-0.01828,0.009818,0.029974
1339,0.172474,0.984234,0.038699,-0.018239,0.006977,0.035855
1340,0.172736,0.984204,0.038296,-0.022925,0.010348,0.049046
1341,0.17299,0.984182,0.037705,-0.028657,0.011301,0.06105
1342,0.173119,0.984191,0.036866,-0.032479,0.009018,0.066421
1343,0.172929,0.984257,0.036002,-0.037293,0.005611,0.066034
1344,0.172276,0.9844,0.035229,-0.032993,0.000754,0.0599559999999999
1345,0.17122,0.984598,0.034832,-0.019379,-0.0006349999999999,0.045002
1346,0.169959,0.984815,0.034883,-0.001303,0.000293,0.025008
1347,0.168829,0.98499,0.035423,0.007212,0.001399,0.011376
1348,0.168018,0.98509,0.036483,0.022488,0.0102099999999999,-0.011672
1349,0.167651,0.985107,0.037687,0.01988,0.019318,-0.01335
1350,0.16764,0.985075,0.038579,0.001656,0.022097,-0.010519
1351,0.167789,0.985038,0.0388839999999999,-0.010014,0.0216,-0.010823
1352,0.167944,0.985035,0.038286,-0.00826,0.021511,-0.01285
1353,0.168092,0.985059,0.036978,-0.005159,0.015627,-0.000906
1354,0.168323,0.985076,0.035447,-0.004337,0.0073709999999999,0.01448
1355,0.16866,0.985065,0.034117,-0.006962,0.00375,0.0325639999999999
1356,0.169106,0.985017,0.033262,-0.009789,0.004591,0.0433529999999999
1357,0.169565,0.984949,0.032938,-0.019739,0.0026,0.044897
1358,0.170019,0.984875,0.032813,-0.033468,0.006748,0.0517059999999999
1359,0.170497,0.9848,0.032598,-0.036219,0.016589,0.057398
1360,0.170839,0.984762,0.031957,-0.039323,0.0181379999999999,0.069239
1361,0.170795,0.984796,0.031117,-0.060032,0.006811,0.072903
1362,0.170078,0.984945,0.0303339999999999,-0.046283,0.002665,0.064087
1363,0.168857,0.985163,0.0300709999999999,-0.016544,-0.002497,0.047429
1364,0.167572,0.985371,0.030412,0.008881,-0.003194,0.0137159999999999
1365,0.166474,0.985526,0.031418,0.0430899999999999,-0.004157,-0.0143439999999999
1366,0.1660049999999999,0.985561,0.032782,0.0461079999999999,0.019566,-0.024451
1367,0.16627,0.985468,0.034194,0.036229,0.023443,-0.02394
1368,0.166973,0.985324,0.034935,0.016163,0.023252,-0.016701
1369,0.167877,0.985184,0.0345399999999999,-0.013184,0.021591,-0.004876
1370,0.168578,0.98512,0.032899,-0.017455,0.017581,-4.7e-05
1371,0.169153,0.985088,0.030848,-0.017512,0.0140419999999999,0.014471
1372,0.169666,0.985055,0.02903,-0.020374,0.002463,0.038994
1373,0.170216,0.984995,0.027807,-0.0199169999999999,-0.002329,0.051951
1374,0.170816,0.984902,0.0274339999999999,-0.027063,-0.006676,0.054674
1375,0.171317,0.984811,0.027594,-0.03472,0.010764,0.061135
1376,0.171628,0.984755,0.027655,-0.039395,0.0205389999999999,0.066553
1377,0.171594,0.984766,0.0274649999999999,-0.040261,0.018026,0.069993
1378,0.171165,0.984842,0.027416,-0.0292589999999999,0.006429,0.051198
1379,0.1704369999999999,0.984964,0.027616,-0.01881,0.001731,0.026537
1380,0.169574,0.9851,0.028036,-0.010013,0.0008609999999999,0.016153
1381,0.168774,0.985224,0.028501,0.013706,0.005986,-0.010847
1382,0.168341,0.985286,0.0289529999999999,0.021951,0.019964,-0.019096
1383,0.168419,0.985258,0.029425,0.013588,0.020036,-0.008062
1384,0.168852,0.985178,0.029636,-0.0043619999999999,0.015875,0.006603
1385,0.169382,0.985096,0.029322,-0.017115,0.013103,0.012105
1386,0.169881,0.985039,0.028368,-0.01534,0.015297,0.017516
1387,0.170316,0.984995,0.027245,-0.0154389999999999,0.009252,0.021949
1388,0.170764,0.984947,0.026187,-0.015552,0.002251,0.028638
1389,0.17126,0.984881,0.025393,-0.017726,0.0036439999999999,0.037351
1390,0.17179,0.984802,0.024896,-0.0205449999999999,0.008652,0.049628
1391,0.172247,0.984727,0.024678,-0.028494,0.011839,0.053096
1392,0.172488,0.984688,0.024554,-0.037951,0.011787,0.052778
1393,0.1725,0.98469,0.024408,-0.029967,0.007543,0.046087
1394,0.172276,0.98473,0.024361,-0.015111,0.003642,0.037636
1395,0.171971,0.984778,0.024593,-0.008061,0.002877,0.03008
1396,0.171702,0.984814,0.025029,-0.002925,0.006,0.026194
1397,0.171541,0.984831,0.025485,-0.003054,0.009829,0.026608
1398,0.171501,0.984832,0.02571,-0.0037619999999999,0.016847,0.01729
1399,0.171545,0.984827,0.02561,-0.009359,0.0175379999999999,0.0100349999999999
1400,0.171621,0.984823,0.025234,-0.014074,0.007517,0.0165139999999999
1401,0.171697,0.984823,0.024702,-0.0138909999999999,0.005899,0.02408
1402,0.171737,0.984831,0.024094,-0.0152729999999999,0.0054789999999999,0.027068
1403,0.171769,0.98484,0.023524,-0.009476,0.006768,0.029379
1404,0.171843,0.984837,0.023086,-0.008406,0.008403,0.02324
1405,0.171986,0.984818,0.022835,-0.007222,0.006683,0.024589
1406,0.172178,0.984785,0.022843,-0.00546,0.006991,0.036239
1407,0.172426,0.984736,0.023051,-0.012071,0.008565,0.038441
1408,0.172668,0.984689,0.023259,-0.012573,0.008856,0.033992
1409,0.172872,0.984653,0.023286,-0.017568,0.011731,0.024382
1410,0.172991,0.984638,0.023004,-0.0161,0.011928,0.018438
1411,0.173036,0.98464,0.0225919999999999,-0.0127879999999999,0.007761,0.030967
1412,0.173077,0.984641,0.022226,-0.012143,0.006662,0.032813
1413,0.1731089999999999,0.984638,0.0221,-0.011992,0.006878,0.036036
1414,0.1731599999999999,0.984629,0.022122,-0.009937,0.00849,0.018696
1415,0.173224,0.984618,0.0221139999999999,-0.0096189999999999,0.009065,0.0130419999999999
1416,0.173287,0.984608,0.022049,-0.007866,0.012065,0.01831
1417,0.173378,0.984593,0.022003,-0.007454,0.0070599999999999,0.030304
1418,0.173516,0.984567,0.022057,-0.011224,0.009039,0.033516
1419,0.173651,0.98454,0.022228,-0.01679,0.0087459999999999,0.0279579999999999
1420,0.173769,0.984515,0.022385,-0.014787,0.01286,0.017699
1421,0.173825,0.984506,0.022372,-0.011914,0.013633,0.016798
1422,0.1738829999999999,0.984498,0.02225,-0.006906,0.008055,0.020826
1423,0.174002,0.984478,0.022209,-0.008276,0.010456,0.033379
1424,0.174168,0.984446,0.022363,-0.013035,0.008459,0.0403209999999999
1425,0.174287,0.984418,0.022659,-0.017274,0.007144,0.028687
1426,0.174328,0.984405,0.022874,-0.013302,0.007767,0.01744
1427,0.174346,0.984401,0.022933,-0.0098409999999999,0.008763,0.0155039999999999
1428,0.1743849999999999,0.984392,0.023012,-0.004982,0.0057659999999999,0.024656
1429,0.174505,0.984365,0.023241,-0.007497,0.00886,0.032514
1430,0.174657,0.98433,0.023578,-0.012395,0.0066209999999999,0.030575
1431,0.174807,0.984297,0.023872,-0.01671,0.0117819999999999,0.024468
1432,0.174897,0.984277,0.024016,-0.014695,0.010672,0.018755
1433,0.174945,0.984269,0.0240219999999999,-0.009188,0.01152,0.020503
1434,0.175022,0.984256,0.023964,-0.007984,0.01199,0.027779
1435,0.17514,0.984235,0.023994,-0.011917,0.007465,0.031425
1436,0.175258,0.984211,0.024099,-0.01533,0.006267,0.026317
1437,0.175324,0.9842,0.024088,-0.016297,0.009514,0.022375
1438,0.1754089999999999,0.984187,0.023999,-0.010766,0.009633,0.028018
1439,0.175506,0.984169,0.024008,-0.01303,0.00486,0.031183
1440,0.1756569999999999,0.984139,0.024154,-0.0137919999999999,0.006676,0.031617
1441,0.175804,0.984105,0.024453,-0.0130689999999999,0.006755,0.030326
1442,0.175938,0.984074,0.024732,-0.012898,0.0133169999999999,0.0289339999999999
1443,0.176081,0.984044,0.024911,-0.014735,0.013118,0.026556
1444,0.176226,0.984017,0.024942,-0.015352,0.0129,0.02616
1445,0.17635,0.983997,0.024883,-0.013493,0.008664,0.024189
1446,0.1764859999999999,0.983973,0.024859,-0.014346,0.007604,0.031766
1447,0.176644,0.983944,0.024871,-0.015267,0.007679,0.032976
1448,0.176768,0.98392,0.024957,-0.017497,0.008451,0.0355889999999999
1449,0.176931,0.983887,0.025083,-0.015646,0.009018,0.030871
1450,0.177116,0.983851,0.025184,-0.016685,0.012167,0.027413
1451,0.177284,0.983817,0.025297,-0.012764,0.009011,0.029391
1452,0.177454,0.983783,0.025433,-0.014597,0.007184,0.032047
1453,0.177625,0.98375,0.025536,-0.015073,0.00885,0.031226
1454,0.177745,0.983727,0.025563,-0.015163,0.012626,0.0305439999999999
1455,0.177846,0.983711,0.0254639999999999,-0.013341,0.0095599999999999,0.028186
1456,0.177975,0.983693,0.025281,-0.011837,0.007213,0.029223
1457,0.178121,0.98367,0.025126,-0.011434,0.0102569999999999,0.031011
1458,0.178255,0.983648,0.0250659999999999,-0.010622,0.011943,0.036885
1459,0.178333,0.983634,0.025042,-0.014606,0.00657,0.031949
1460,0.178444,0.983617,0.024946,-0.013359,0.004451,0.028063
1461,0.178555,0.983598,0.0248819999999999,-0.009228,0.007735,0.0242819999999999
1462,0.178652,0.983581,0.0248539999999999,-0.0105,0.010071,0.024798
1463,0.178751,0.983563,0.024868,-0.013422,0.008472,0.025226
1464,0.178833,0.98355,0.024804,-0.008072,0.0084549999999999,0.032585
1465,0.178894,0.983543,0.02465,-0.003861,0.004769,0.036095
1466,0.17893,0.983543,0.0244069999999999,-0.004797,0.006295,0.0342019999999999
1467,0.178915,0.983555,0.0240009999999999,-0.00849,0.0124319999999999,0.0280319999999999
1468,0.178883,0.983574,0.023465,-0.008839,0.010322,0.025745
1469,0.178885,0.983585,0.023021,-0.007178,0.008084,0.030568
1470,0.1789069999999999,0.983587,0.022744,-0.004469,0.005518,0.031806
1471,0.178953,0.98358,0.022688,-0.009855,0.003832,0.0332509999999999
1472,0.1789089999999999,0.983589,0.022624,-0.0128169999999999,0.009071,0.023137
1473,0.178784,0.983619,0.0223319999999999,-0.011685,0.010186,0.01673
1474,0.178601,0.983662,0.021876,-0.004696,0.012569,0.010183
1475,0.178415,0.983709,0.021299,-0.002343,0.014277,0.018695
1476,0.178271,0.983748,0.020696,-0.005313,0.011018,0.022654
1477,0.1781839999999999,0.983776,0.020093,-0.0121079999999999,0.0077709999999999,0.029574
1478,0.178122,0.983798,0.0195569999999999,-0.013053,0.007764,0.027181
1479,0.178016,0.983828,0.0190229999999999,-0.014716,0.008283,0.022389
1480,0.177853,0.983868,0.018491,-0.01376,0.0090829999999999,0.021899
1481,0.177674,0.983907,0.018097,-0.010804,0.0071049999999999,0.022949
1482,0.177524,0.983937,0.0179819999999999,-0.012042,0.0076709999999999,0.024193
1483,0.1774339999999999,0.98395,0.018113,-0.012166,0.006666,0.01686
1484,0.177357,0.983959,0.018355,-0.01151,0.0075569999999999,0.017717
1485,0.177288,0.983968,0.018567,-0.013653,0.011348,0.024416
1486,0.177173,0.983986,0.0186689999999999,-0.016163,0.010551,0.022194
1487,0.177004,0.984016,0.018709,-0.014772,0.011147,0.011656
1488,0.176844,0.984045,0.018705,-0.015025,0.011256,0.015978
1489,0.176681,0.984074,0.0186759999999999,-0.012222,0.009593,0.02417
1490,0.176532,0.984099,0.018796,-0.012194,0.006151,0.034213
1491,0.176399,0.984119,0.019004,-0.0075599999999999,0.011395,0.028329
1492,0.17627,0.984137,0.019267,-0.007065,0.011682,0.020436
1493,0.176122,0.984158,0.019517,-0.006185,0.008029,0.011871
1494,0.175919,0.984192,0.01964,-0.003114,0.006179,0.012739
1495,0.175747,0.984221,0.019769,-0.002819,0.004381,0.024069
1496,0.175627,0.984236,0.020076,-0.0107099999999999,0.006304,0.0319259999999999
1497,0.175502,0.984249,0.020501,-0.016811,0.010944,0.028938
1498,0.175327,0.984272,0.0208789999999999,-0.019321,0.0134539999999999,0.023066
1499,0.175093,0.984308,0.021175,-0.019758,0.012457,0.02422
1500,0.174859,0.984345,0.021377,-0.020272,0.015075,0.0266579999999999
1501,0.174567,0.984393,0.021556,-0.016471,0.007718,0.0311019999999999
1502,0.174263,0.984443,0.0217419999999999,-0.015632,0.010797,0.031175
1503,0.173998,0.984482,0.022067,-0.016314,0.011032,0.033826
1504,0.173708,0.984525,0.022421,-0.016588,0.008426,0.022211
1505,0.173439,0.984565,0.022715,-0.016243,0.008797,0.017782
1506,0.173197,0.984601,0.023013,-0.011973,0.00867,0.01521
1507,0.172965,0.984634,0.0233419999999999,-0.007743,0.011261,0.020344
1508,0.172788,0.984658,0.023658,-0.0076879999999999,0.009193,0.024071
1509,0.172698,0.984666,0.023974,-0.010314,0.011764,0.023954
1510,0.172677,0.984662,0.024305,-0.013757,0.00864,0.0222039999999999
1511,0.172656,0.984658,0.024621,-0.010745,0.005867,0.021583
1512,0.172594,0.984664,0.024805,-0.010439,0.010713,0.0252289999999999
1513,0.172547,0.98467,0.0248639999999999,-0.012116,0.0066319999999999,0.0298389999999999
1514,0.172493,0.984676,0.024993,-0.012764,0.005192,0.028702
1515,0.172433,0.984681,0.02519,-0.0138639999999999,0.007628,0.026476
1516,0.1724,0.984681,0.025427,-0.015219,0.00952,0.027368
1517,0.172341,0.984685,0.025684,-0.011758,0.00941,0.028484
1518,0.172255,0.984693,0.025941,-0.009001,0.008105,0.034651
1519,0.17215,0.984704,0.0262269999999999,-0.012802,0.0074069999999999,0.035128
1520,0.172039,0.984714,0.02658,-0.015133,0.006802,0.0266889999999999
1521,0.171889,0.98473,0.0269389999999999,-0.012191,0.006282,0.021431
1522,0.171706,0.984753,0.027291,-0.007903,0.009495,0.014641
1523,0.171522,0.984776,0.027597,-0.005568,0.009441,0.022147
1524,0.171404,0.98479,0.027847,-0.004549,0.0069549999999999,0.024551
1525,0.171374,0.984791,0.027998,-0.008502,0.009854,0.025026
1526,0.171392,0.984782,0.028199,-0.0128379999999999,0.012823,0.0264279999999999
1527,0.171396,0.984774,0.0284269999999999,-0.014231,0.008726,0.027817
1528,0.171321,0.984782,0.028613,-0.0140629999999999,0.00649,0.021527
1529,0.171227,0.984796,0.028685,-0.003502,0.006277,0.021211
1530,0.171197,0.984799,0.02876,-0.00477,0.0064269999999999,0.025058
1531,0.171272,0.984781,0.0289399999999999,-0.008705,0.007849,0.025077
1532,0.171399,0.984751,0.029199,-0.017727,0.0132199999999999,0.0260529999999999
1533,0.171488,0.984728,0.029441,-0.016581,0.011488,0.0295649999999999
1534,0.171526,0.984717,0.029597,-0.0141319999999999,0.009744,0.030232
1535,0.171537,0.984711,0.0297139999999999,-0.018857,0.011886,0.028133
1536,0.171584,0.984701,0.029788,-0.018188,0.01295,0.0284089999999999
1537,0.171673,0.984682,0.029875,-0.019757,0.0128759999999999,0.027238
1538,0.171765,0.984661,0.03005,-0.018033,0.008915,0.023173
1539,0.1718859999999999,0.984635,0.0302209999999999,-0.017238,0.0095819999999999,0.022437
1540,0.172031,0.984603,0.0304209999999999,-0.014011,0.0098269999999999,0.022481
1541,0.17223,0.984562,0.030646,-0.006565,0.0146449999999999,0.021066
1542,0.172611,0.984487,0.030893,-0.008319,0.010997,0.020117
1543,0.173122,0.984389,0.031162,-0.014477,0.009432,0.0177879999999999
1544,0.1737,0.984283,0.031283,-0.02395,0.008698,0.0392589999999999
1545,0.17418,0.984217,0.030685,-0.029298,0.012823,0.057266
1546,0.174292,0.984241,0.029267,-0.034171,0.012311,0.068771
1547,0.1738549999999999,0.984365,0.027665,-0.036327,0.009242,0.07408
1548,0.172923,0.984554,0.026749,-0.020198,0.0004309999999999,0.062499
1549,0.171651,0.984764,0.027221,0.008479,-0.0058509999999999,0.0371709999999999
1550,0.170459,0.984927,0.028744,0.029584,-0.015094,-0.000958
1551,0.16965,0.984988,0.0313019999999999,0.050443,0.000256,-0.037833
1552,0.169659,0.984895,0.034058,0.054264,0.006377,-0.0522309999999999
1553,0.170463,0.984671,0.036437,0.036019,0.020868,-0.049468
1554,0.171781,0.9844,0.0375459999999999,-0.006971,0.028647,-0.026667
1555,0.173338,0.984159,0.036686,-0.040815,0.049472,0.013683
1556,0.174769,0.983996,0.034205,-0.050791,0.049299,0.038595
1557,0.175536,0.983975,0.030704,-0.069274,0.020832,0.068051
1558,0.175337,0.984128,0.026686,-0.063719,-0.00253,0.089281
1559,0.17434,0.984394,0.023205,-0.050118,-0.005664,0.090625
1560,0.173027,0.984667,0.021353,-0.014579,-0.017336,0.071451
1561,0.171743,0.98488,0.021892,0.022181,-0.0358589999999999,0.030461
1562,0.1708059999999999,0.98498,0.024544,0.037705,-0.018122,0.019233
1563,0.170423,0.984946,0.028298,0.038806,0.0081269999999999,0.008887
1564,0.1707,0.984787,0.03193,0.020905,0.031403,0.000755
1565,0.171446,0.984572,0.034462,0.004167,0.03763,-0.001336
1566,0.172282,0.984396,0.03531,-0.049281,0.052622,0.005278
1567,0.17269,0.98436,0.034291,-0.05828,0.033966,0.00584
1568,0.172523,0.98447,0.031889,-0.051613,0.012371,-0.0036299999999999
1569,0.171981,0.984655,0.02899,-0.028731,-0.0002189999999999,0.0112629999999999
1570,0.171315,0.984835,0.026742,-0.009053,-0.009142,0.031104
1571,0.170771,0.984953,0.025849,0.009099,-0.009764,0.044403
1572,0.170574,0.984976,0.026281,0.0144389999999999,-0.006811,0.0415139999999999
1573,0.170616,0.984939,0.027395,0.015328,0.005876,0.029398
1574,0.170873,0.984857,0.028696,-0.000951,0.015356,0.032431
1575,0.171204,0.984763,0.029932,-0.026993,0.01806,0.0283709999999999
1576,0.171422,0.984706,0.030568,-0.037404,0.015767,0.019267
1577,0.171467,0.984699,0.030541,-0.032551,0.015728,0.012688
1578,0.1713829999999999,0.984728,0.030061,-0.0211909999999999,0.012434,0.007812
1579,0.171247,0.984773,0.029358,-0.006529,0.00891,0.0123439999999999
1580,0.171131,0.984813,0.0286829999999999,0.003017,0.006169,0.018025
1581,0.1711329999999999,0.984821,0.028381,-0.000723,0.006298,0.025452
1582,0.171261,0.984793,0.028595,-0.003292,0.0068909999999999,0.027389
1583,0.171372,0.984761,0.029047,-0.007706,0.008342,0.028768
1584,0.171503,0.984724,0.0295089999999999,-0.013162,0.006273,0.0239729999999999
1585,0.171571,0.984702,0.0298519999999999,-0.014924,0.007684,0.019206
1586,0.171578,0.984695,0.030044,-0.014244,0.010026,0.027451
1587,0.171589,0.984692,0.030075,-0.013905,0.010761,0.02417
1588,0.171638,0.984686,0.029994,-0.014778,0.013956,0.0240219999999999
1589,0.171651,0.984687,0.0298949999999999,-0.010747,0.013009,0.015744
1590,0.171655,0.984689,0.029804,-0.010614,0.00695,0.019589
1591,0.171642,0.984692,0.029771,-0.009396,0.004673,0.023055
1592,0.1716339999999999,0.984689,0.029914,-0.003574,0.008292,0.02607
1593,0.171727,0.984665,0.0301579999999999,-0.0037579999999999,0.01155,0.024148
1594,0.171774,0.98465,0.030394,-0.0047659999999999,0.010162,0.022829
1595,0.1717769999999999,0.984647,0.030476,-0.012292,0.005954,0.025707
1596,0.171786,0.984646,0.030451,-0.011111,0.006901,0.028432
1597,0.171773,0.984648,0.030445,-0.008489,0.009599,0.028637
1598,0.1718039999999999,0.984642,0.030487,-0.0114799999999999,0.00837,0.021775
1599,0.171867,0.984628,0.030568,-0.015419,0.007392,0.018321
1600,0.171926,0.984613,0.030718,-0.01206,0.009878,0.025983
1601,0.1719369999999999,0.984608,0.0308339999999999,-0.010666,0.008267,0.0258529999999999
1602,0.1719109999999999,0.98461,0.0309029999999999,-0.008901,0.008203,0.023327
1603,0.171901,0.984611,0.030912,-0.00886,0.013603,0.023333
1604,0.171953,0.984605,0.030816,-0.010469,0.011366,0.023566
1605,0.172005,0.984598,0.030748,-0.01104,0.009512,0.023528
1606,0.172041,0.984594,0.030691,-0.017973,0.010295,0.025507
1607,0.1720829999999999,0.984587,0.0306579999999999,-0.019434,0.0091569999999999,0.023892
1608,0.1720819999999999,0.984589,0.030625,-0.015725,0.01294,0.023666
1609,0.1721089999999999,0.984584,0.030608,-0.0123959999999999,0.009068,0.024675
1610,0.1721859999999999,0.984568,0.030673,-0.013434,0.008138,0.023694
1611,0.172282,0.98455,0.030723,-0.015284,0.009163,0.020501
1612,0.172364,0.984536,0.030726,-0.017365,0.012168,0.024602
1613,0.172423,0.984528,0.030637,-0.015288,0.012512,0.025058
1614,0.172452,0.984527,0.030517,-0.0144009999999999,0.010301,0.026764
1615,0.172501,0.984523,0.030373,-0.016724,0.0094349999999999,0.0269699999999999
1616,0.172546,0.984517,0.0303029999999999,-0.013335,0.0073799999999999,0.023011
1617,0.172599,0.984509,0.030281,-0.009894,0.008091,0.019631
1618,0.172644,0.9845,0.030313,-0.010199,0.009687,0.022529
1619,0.172695,0.984491,0.03031,-0.009945,0.011542,0.026026
1620,0.17276,0.984481,0.030272,-0.011994,0.01143,0.028474
1621,0.172839,0.98447,0.0301759999999999,-0.011432,0.009732,0.018179
1622,0.172921,0.98446,0.0300279999999999,-0.0126579999999999,0.010123,0.020006
1623,0.172988,0.984454,0.0298529999999999,-0.012175,0.008726,0.021676
1624,0.173044,0.984448,0.029702,-0.013452,0.004977,0.026023
1625,0.173113,0.98444,0.029577,-0.010775,0.012859,0.025019
1626,0.173229,0.984422,0.029508,-0.009976,0.013137,0.026019
1627,0.173364,0.984398,0.029499,-0.009759,0.0138319999999999,0.022473
1628,0.173458,0.984382,0.029491,-0.012936,0.0057,0.02306
1629,0.17357,0.984366,0.029363,-0.0130479999999999,0.005716,0.023188
1630,0.1736619999999999,0.984353,0.0292459999999999,-0.008882,0.0084599999999999,0.020696
1631,0.173756,0.984339,0.029164,-0.014668,0.010412,0.023235
1632,0.17387,0.98432,0.029098,-0.016293,0.011743,0.021882
1633,0.173967,0.984305,0.029024,-0.016588,0.010339,0.021056
1634,0.174025,0.984298,0.028935,-0.010191,0.011109,0.022411
1635,0.174054,0.984297,0.028786,-0.011807,0.008562,0.02137
1636,0.174078,0.984297,0.028649,-0.011694,0.007662,0.020332
1637,0.174082,0.984298,0.028572,-0.011805,0.0088349999999999,0.029061
1638,0.174104,0.984296,0.0285089999999999,-0.011445,0.009021,0.025919
1639,0.174137,0.984294,0.028399,-0.010136,0.008306,0.012998
1640,0.174156,0.984295,0.028221,-0.007363,0.010822,0.014793
1641,0.174192,0.984296,0.027985,-0.0097629999999999,0.0084409999999999,0.021972
1642,0.174248,0.984292,0.027774,-0.011467,0.00933,0.025296
1643,0.174319,0.984284,0.027622,-0.013628,0.0089719999999999,0.02496
1644,0.1743849999999999,0.984274,0.027558,-0.011681,0.010309,0.021468
1645,0.1744369999999999,0.984267,0.027481,-0.011153,0.008333,0.0168919999999999
1646,0.17446,0.984265,0.027381,-0.010412,0.009082,0.017205
1647,0.174466,0.984266,0.027297,-0.008939,0.005739,0.026338
1648,0.174464,0.984266,0.0273209999999999,-0.011623,0.006609,0.0320509999999999
1649,0.1744619999999999,0.984266,0.027366,-0.0131759999999999,0.0096,0.025613
1650,0.1744609999999999,0.984266,0.027379,-0.011054,0.010592,0.014521
1651,0.174439,0.984269,0.02738,-0.008454,0.011946,0.013819
1652,0.174431,0.984272,0.027356,-0.009392,0.009396,0.020862
1653,0.174397,0.984278,0.0273449999999999,-0.008748,0.008245,0.025557
1654,0.174381,0.984279,0.027392,-0.0129129999999999,0.009648,0.028166
1655,0.1743579999999999,0.984282,0.027458,-0.013347,0.012453,0.01725
1656,0.174305,0.98429,0.027509,-0.0137819999999999,0.009698,0.010974
1657,0.174222,0.984304,0.027533,-0.010144,0.005168,0.017496
1658,0.174141,0.984318,0.027549,-0.004692,0.007488,0.024773
1659,0.174084,0.984323,0.0277,-0.006069,0.0134949999999999,0.028529
1660,0.174069,0.98432,0.027901,-0.015393,0.0120629999999999,0.026848
1661,0.173975,0.984334,0.028006,-0.016778,0.00941,0.022211
1662,0.173839,0.984358,0.028018,-0.016429,0.007403,0.011548
1663,0.173698,0.984382,0.02805,-0.002097,0.005242,0.017619
1664,0.173562,0.9844,0.028231,-0.006311,0.007467,0.026899
1665,0.173481,0.984408,0.028468,-0.009464,0.010297,0.025563
1666,0.173413,0.984413,0.028712,-0.011578,0.012612,0.018712
1667,0.173381,0.984414,0.02886,-0.010325,0.012565,0.0156949999999999
1668,0.173336,0.984419,0.0289399999999999,-0.010891,0.008241,0.0138
1669,0.173244,0.984433,0.029032,-0.014079,0.007435,0.021703
1670,0.173131,0.98445,0.029095,-0.011983,0.00847,0.027073
1671,0.173027,0.984467,0.029162,-0.0109629999999999,0.011551,0.024946
1672,0.172963,0.984477,0.029179,-0.015722,0.010243,0.020366
1673,0.172902,0.984487,0.029222,-0.014256,0.0132699999999999,0.018477
1674,0.172835,0.984497,0.029289,-0.0130599999999999,0.008606,0.014534
1675,0.172766,0.984507,0.0293779999999999,-0.011023,0.008184,0.019496
1676,0.172732,0.984511,0.029438,-0.012897,0.008425,0.0260269999999999
1677,0.172728,0.98451,0.029483,-0.013319,0.008898,0.030179
1678,0.17275,0.984502,0.029624,-0.01711,0.010768,0.0243
1679,0.172745,0.984499,0.029755,-0.015595,0.008512,0.023605
1680,0.172711,0.984502,0.029867,-0.014736,0.009029,0.019037
1681,0.17264,0.984512,0.0299329999999999,-0.010424,0.011887,0.021046
1682,0.172622,0.984513,0.029998,-0.0106349999999999,0.009292,0.023072
1683,0.172671,0.984499,0.030172,-0.016253,0.010923,0.026179
1684,0.172693,0.98449,0.030355,-0.013482,0.009437,0.021586
1685,0.172695,0.984486,0.030443,-0.013912,0.01115,0.019835
1686,0.172716,0.984484,0.0304209999999999,-0.012911,0.010801,0.019353
1687,0.172768,0.984475,0.030409,-0.013238,0.008338,0.026186
1688,0.172874,0.984454,0.030474,-0.016502,0.006345,0.028181
1689,0.172948,0.984436,0.030619,-0.01711,0.013565,0.029577
1690,0.172978,0.984428,0.030694,-0.017995,0.008659,0.022177
1691,0.172975,0.984429,0.030698,-0.0120109999999999,0.008278,0.01781
1692,0.173035,0.984417,0.030726,-0.006043,0.01128,0.0194599999999999
1693,0.173149,0.984395,0.030791,-0.008736,0.011729,0.029146
1694,0.173209,0.984381,0.030912,-0.016287,0.005045,0.027316
1695,0.173246,0.984373,0.03094,-0.014753,0.004808,0.02065
1696,0.173275,0.984371,0.03086,-0.0091659999999999,0.007176,0.017281
1697,0.1733569999999999,0.984356,0.030888,-0.008012,0.010319,0.02264
1698,0.173509,0.984327,0.030963,-0.009889,0.009341,0.0227169999999999
1699,0.173656,0.984299,0.031017,-0.013927,0.009704,0.024677
1700,0.173756,0.984283,0.030968,-0.011051,0.010575,0.023078
1701,0.173826,0.984273,0.030897,-0.0128919999999999,0.0086319999999999,0.021044
1702,0.173872,0.984266,0.030851,-0.0132729999999999,0.009112,0.024462
1703,0.173943,0.984253,0.03083,-0.007439,0.009231,0.023903
1704,0.174049,0.984237,0.030763,-0.008735,0.007783,0.022704
1705,0.174154,0.984221,0.030668,-0.014974,0.009691,0.018374
1706,0.174231,0.98421,0.030561,-0.015189,0.009442,0.020922
1707,0.174245,0.984212,0.0304259999999999,-0.0134479999999999,0.00767,0.021377
1708,0.174228,0.98422,0.0302649999999999,-0.009601,0.008593,0.019662
1709,0.174256,0.984219,0.030148,-0.009552,0.006962,0.021015
1710,0.174313,0.984209,0.030114,-0.012738,0.010587,0.023506
1711,0.174373,0.984199,0.0301089999999999,-0.0152699999999999,0.00834,0.018109
1712,0.1744339999999999,0.98419,0.030039,-0.013637,0.011019,0.014913
1713,0.174473,0.984186,0.0299459999999999,-0.010135,0.006643,0.018547
1714,0.174479,0.984187,0.029873,-0.008326,0.006887,0.024449
1715,0.174481,0.984185,0.029925,-0.0096099999999999,0.0077129999999999,0.028349
1716,0.174499,0.984177,0.030076,-0.010161,0.008621,0.017516
1717,0.174544,0.984165,0.0301899999999999,-0.010909,0.009945,0.008567
1718,0.174603,0.984154,0.030213,-0.007824,0.00843,0.009964
1719,0.174643,0.984149,0.030166,-0.010489,0.009854,0.017579
1720,0.1746589999999999,0.984146,0.030159,-0.012473,0.005417,0.02993
1721,0.174666,0.984141,0.0302779999999999,-0.014738,0.008153,0.028377
1722,0.174643,0.98414,0.030442,-0.012152,0.010367,0.019454
1723,0.174588,0.984144,0.030625,-0.006909,0.005388,0.007354
1724,0.174515,0.984149,0.0308899999999999,0.00621,0.002362,-0.0016539999999999
1725,0.174548,0.984121,0.031585,0.010526,0.016382,0.007386
1726,0.175104,0.983982,0.032818,0.001669,0.0294149999999999,0.00896
1727,0.17597,0.983791,0.033891,-0.0014089999999999,0.038792,0.040206
1728,0.176963,0.983608,0.03404,-0.0166389999999999,0.02393,0.034365
1729,0.1781589999999999,0.983405,0.033665,-0.0686919999999999,-0.002204,0.0245629999999999
1730,0.178767,0.983336,0.032434,-0.015162,-0.064452,0.029501
1731,0.178055,0.983539,0.030092,0.014358,-0.004642,0.065901
1732,0.177035,0.983768,0.028613,-0.045779,0.008145,0.055326
1733,0.176325,0.983898,0.028518,-0.045755,0.018391,0.027757
1734,0.17645,0.983828,0.030121,0.0161919999999999,0.031981,0.000824
1735,0.177642,0.983528,0.0327589999999999,0.058625,0.023872,-0.03224
1736,0.179031,0.983211,0.0346519999999999,0.0370029999999999,0.002079,-0.03366
1737,0.18022,0.982981,0.035036,-0.018569,0.003424,-0.013491
1738,0.1812079999999999,0.982834,0.034046,-0.075007,0.0201259999999999,0.029965
1739,0.181667,0.982825,0.031776,-0.088344,0.032342,0.053444
1740,0.181837,0.982884,0.028857,-0.065153,0.025615,0.060453
1741,0.182078,0.982917,0.026088,-0.035349,0.0149169999999999,0.067739
1742,0.182475,0.982901,0.023794,-0.016627,0.011881,0.075022
1743,0.183063,0.98283,0.022149,-0.015811,0.008625,0.073874
1744,0.183704,0.982731,0.021206,-0.010562,0.00642,0.059269
1745,0.184413,0.982614,0.020486,-0.009746,0.006278,0.0595309999999999
1746,0.184964,0.982524,0.019813,-0.002042,0.004399,0.032082
1747,0.18522,0.982485,0.019381,0.0141669999999999,-0.005861,0.013472
1748,0.185256,0.98248,0.019316,0.013261,-0.0135919999999999,0.0089129999999999
1749,0.185139,0.982502,0.019292,0.018703,-0.003895,-0.005468
1750,0.185163,0.982498,0.019255,0.022478,0.008453,-0.021086
1751,0.185545,0.982421,0.019538,0.014665,0.023332,-0.024283
1752,0.186158,0.982302,0.0196539999999999,0.000487,0.027662,-0.034272
1753,0.186877,0.982174,0.019277,-0.008868,0.018071,-0.023412
1754,0.187438,0.982086,0.018238,-0.009658,0.011795,-0.012501
1755,0.187743,0.982054,0.016752,0.003495,0.000566,-0.006086
1756,0.187855,0.982055,0.01539,0.0092269999999999,-0.002212,-0.001535
1757,0.1879299999999999,0.982055,0.014455,0.009137,0.008958,0.007639
1758,0.188195,0.982011,0.013955,-0.007928,0.010237,0.022666
1759,0.188681,0.981918,0.013969,-0.021215,0.011429,0.022835
1760,0.189288,0.981796,0.0143439999999999,-0.023563,0.011643,0.02748
1761,0.1898,0.981695,0.014528,-0.021999,0.007838,0.036269
1762,0.190142,0.98163,0.014388,-0.017687,0.004927,0.03267
1763,0.19042,0.981579,0.0141919999999999,-0.014425,0.009281,0.031173
1764,0.190701,0.981529,0.0138919999999999,-0.015027,0.005822,0.028557
1765,0.19105,0.981465,0.013624,-0.017894,0.0074569999999999,0.03609
1766,0.191425,0.981391,0.013673,-0.024403,0.009118,0.024855
1767,0.191712,0.98133,0.014032,-0.025071,0.016168,0.013312
1768,0.191904,0.981285,0.014511,-0.013956,0.014183,0.0083769999999999
1769,0.1920079999999999,0.981256,0.0151139999999999,0.001748,0.003043,-0.000878
1770,0.192039,0.981241,0.015714,0.013771,0.007209,-0.001401
1771,0.191994,0.981244,0.016059,0.011116,0.007999,0.005898
1772,0.191929,0.981254,0.0161919999999999,0.0042229999999999,0.011116,0.006025
1773,0.191934,0.981252,0.016222,-0.004572,0.00854,0.016188
1774,0.1919,0.98126,0.0161259999999999,-0.021399,0.016558,0.036288
1775,0.191814,0.981283,0.015786,-0.027462,0.0149639999999999,0.041053
1776,0.191702,0.981311,0.015409,-0.031347,0.013593,0.036181
1777,0.191554,0.981348,0.014898,-0.0315509999999999,0.0141509999999999,0.035075
1778,0.191433,0.981382,0.014136,-0.031063,0.013216,0.033884
1779,0.191343,0.981408,0.013549,-0.024869,0.006415,0.037385
1780,0.19119,0.981441,0.013266,-0.021665,0.005039,0.032114
1781,0.190827,0.981512,0.013246,-0.008134,0.002695,0.012511
1782,0.190387,0.981598,0.0132419999999999,-0.001102,0.00351,0.00548
1783,0.190078,0.981658,0.013261,0.006532,0.006547,-0.002625
1784,0.189937,0.981686,0.013193,0.002034,0.009495,-0.002496
1785,0.189782,0.981718,0.01303,-0.002923,0.011858,-0.001281
1786,0.189621,0.981752,0.012784,-0.007812,0.015929,0.001514
1787,0.189447,0.981789,0.012489,-0.011423,0.013877,0.006127
1788,0.1893109999999999,0.981819,0.012211,-0.011714,0.013359,0.010693
1789,0.189274,0.981829,0.0120159999999999,-0.013844,0.014417,0.017388
1790,0.189405,0.981803,0.01204,-0.036329,0.017937,0.036772
1791,0.1895859999999999,0.981766,0.01218,-0.041729,0.0146169999999999,0.037411
1792,0.189638,0.981759,0.012015,-0.042345,0.013054,0.034234
1793,0.189506,0.981793,0.011221,-0.011711,0.019153,0.026743
1794,0.189329,0.981841,0.009988,0.018084,0.00139,0.022132
1795,0.189108,0.981896,0.008674,0.02955,-0.009942,0.026833
1796,0.188895,0.981946,0.0076489999999999,0.013437,-0.011792,0.039913
1797,0.188834,0.981964,0.006815,0.004479,-0.009002,0.03533
1798,0.188914,0.98195,0.006679,-0.005625,0.021041,0.030751
1799,0.189066,0.981915,0.007458,-0.0071049999999999,0.0285069999999999,0.0272399999999999
1800,0.189282,0.981864,0.008662,0.003544,0.024011,0.016927
1801,0.189488,0.981811,0.010029,0.009518,-0.001434,0.011653
1802,0.189746,0.981747,0.011285,0.001859,-0.008145,0.007392
1803,0.1898119999999999,0.981721,0.012351,-0.007942,0.008314,-0.0094819999999999
1804,0.189667,0.981737,0.013297,0.002258,0.027861,-0.010184
1805,0.189488,0.981763,0.0138819999999999,0.0064959999999999,0.027285,-0.011974
1806,0.189475,0.981765,0.013912,0.0126579999999999,0.022614,-0.0059159999999999
1807,0.189518,0.981766,0.013287,-0.004459,0.003204,0.00777
1808,0.189439,0.981798,0.011934,-0.008531,-0.0108659999999999,0.02777
1809,0.189173,0.981867,0.010444,-0.00091,-0.004984,0.0396959999999999
1810,0.188715,0.981965,0.009476,0.008505,0.002151,0.038574
1811,0.188166,0.982072,0.0093049999999999,0.006826,-0.0070659999999999,0.023395
1812,0.187655,0.982163,0.009885,-0.008929,0.0018149999999999,0.031573
1813,0.18721,0.982234,0.011184,-0.0299079999999999,0.011815,0.036927
1814,0.1867359999999999,0.982299,0.0132,-0.040618,0.008637,0.016677
1815,0.186278,0.982359,0.015056,-0.043288,0.00728,0.014546
1816,0.185779,0.982433,0.016298,-0.035892,0.0098459999999999,0.019209
1817,0.185172,0.982531,0.01729,-0.026725,0.016554,0.0258459999999999
1818,0.184471,0.982649,0.0180479999999999,-0.0291209999999999,0.021379,0.018359
1819,0.183797,0.98276,0.018872,-0.029408,0.020215,0.0007509999999999
1820,0.183141,0.982867,0.019639,-0.0092819999999999,0.012051,-0.003709
1821,0.182475,0.982988,0.019788,0.01151,0.009489,0.000231
1822,0.18195,0.983089,0.019625,0.011867,0.0122569999999999,0.000196
1823,0.181503,0.983179,0.019222,-0.001999,0.002752,0.002339
1824,0.181227,0.983243,0.01857,-0.007643,0.000781,0.004761
1825,0.180995,0.983289,0.018403,-0.014781,0.004474,0.012129
1826,0.180626,0.983349,0.018831,-0.010598,0.010105,0.0284709999999999
1827,0.180101,0.98343,0.019602,-0.0088519999999999,0.007354,0.011007
1828,0.17947,0.983532,0.020232,-0.005459,0.010761,0.004808
1829,0.178839,0.983643,0.020428,-0.0026309999999999,0.0077819999999999,0.001224
1830,0.178504,0.983696,0.020779,-0.009696,0.012276,0.013644
1831,0.178247,0.983724,0.02164,-0.0184569999999999,0.011667,0.023114
1832,0.177924,0.983762,0.022573,-0.01911,0.007098,0.019068
1833,0.177477,0.983823,0.023429,-0.006381,0.006534,0.008065
1834,0.1769109999999999,0.983911,0.024002,-0.002732,0.007849,0.004501
1835,0.176165,0.984035,0.024394,-0.002596,0.006962,0.014119
1836,0.1753299999999999,0.984172,0.024884,-0.002021,0.007527,0.018283
1837,0.174482,0.984303,0.025649,0.001925,0.0088,0.017991
