,gravity.x,gravity.y,gravity.z,userAcceleration.x,userAcceleration.y,userAcceleration.z
0,0.112217,0.992284,-0.052726,-0.023121,0.007396,0.013908
1,0.1127259999999999,0.992245,-0.052363,-0.026224,-0.0052759999999999,0.008036
2,0.113178,0.992213,-0.051974,-0.017369,0.002415,0.010943
3,0.113638,0.992187,-0.051458,-0.01499,0.023758,0.0150509999999999
4,0.113954,0.992174,-0.051006,-0.007814,0.013456,0.012646
5,0.114145,0.992183,-0.050387,-0.005518,0.0139969999999999,0.019122
6,0.11438,0.992195,-0.049615,-0.004319,0.0148849999999999,0.021081
7,0.114525,0.992224,-0.048695,-0.005226,0.003931,0.009724
8,0.114659,0.992251,-0.047827,-0.006367,-0.0003529999999999,0.0016539999999999
9,0.114667,0.992291,-0.046969,-0.002179,0.000644,-0.001997
10,0.114435,0.992363,-0.046008,0.017096,-0.0008619999999999,-0.006513
11,0.114186,0.992432,-0.045119,0.018032,0.002166,-0.010926
12,0.114018,0.992483,-0.0444279999999999,0.018306,0.0080209999999999,-0.009802
13,0.1140019999999999,0.992506,-0.043951,0.0154389999999999,0.009524,-0.007349
14,0.1142059999999999,0.992497,-0.043625,0.006369,0.00407,-0.004593
15,0.11447,0.992475,-0.043433,0.0028539999999999,0.004519,-0.0105519999999999
16,0.114663,0.992458,-0.043311,0.000785,0.00626,-0.006829
17,0.114925,0.992434,-0.043181,0.002217,0.00308,-0.006288
18,0.115129,0.992418,-0.042988,0.00183,0.003431,-0.006405
19,0.115238,0.992415,-0.042769,0.001522,0.001725,-0.0002299999999999
20,0.1153039999999999,0.992423,-0.0424029999999999,-0.002939,0.0069209999999999,0.004028
21,0.115295,0.992445,-0.041916,-0.007034,0.009783,0.004425
22,0.115273,0.99246,-0.041637,-0.0066599999999999,0.008272,0.004589
23,0.11537,0.992454,-0.041506,0.005327,0.003777,0.002611
24,0.115541,0.992433,-0.041538,0.011,0.010542,0.006565
25,0.115781,0.992404,-0.041572,0.011432,0.005628,0.004218
26,0.116097,0.992372,-0.04146,0.006828,0.0059039999999999,0.012987
27,0.11632,0.99235,-0.041364,-9.4e-05,0.00176,0.01045
28,0.116465,0.992342,-0.041143,0.003271,0.0071239999999999,0.012517
29,0.116622,0.992325,-0.041104,0.000336,0.008087,0.016644
30,0.116876,0.992298,-0.041022,-0.003793,0.0002399999999999,0.0133419999999999
31,0.117019,0.992287,-0.0408759999999999,-0.006667,0.012534,0.016584
32,0.11699,0.992289,-0.040914,-0.003633,0.014608,0.022772
33,0.116919,0.99229,-0.041089,-0.0100159999999999,0.010639,0.018857
34,0.116826,0.992295,-0.041242,-0.019353,0.007125,0.017484
35,0.116713,0.992305,-0.0413269999999999,-0.024687,0.011067,0.012824
36,0.116591,0.992315,-0.041434,-0.025481,0.007166,0.016425
37,0.116394,0.992337,-0.041458,-0.0383,0.021442,0.018265
38,0.116212,0.992357,-0.041475,-0.040208,0.0197129999999999,0.018358
39,0.1159859999999999,0.992383,-0.041493,-0.039464,0.018893,0.020406
40,0.115788,0.992407,-0.041464,-0.0433389999999999,0.008737,0.01261
41,0.115672,0.992412,-0.041689,-0.034525,0.0014089999999999,0.003435
42,0.115784,0.992365,-0.042477,-0.028442,0.0054979999999999,0.0052759999999999
43,0.1158589999999999,0.992328,-0.0431449999999999,-0.030929,0.004727,-0.0008759999999999
44,0.11624,0.992243,-0.044057,-0.033247,0.013082,0.002934
45,0.1169119999999999,0.992111,-0.045238,-0.037429,0.010025,0.003887
46,0.1177049999999999,0.99196,-0.046488,-0.025206,-0.001405,0.010478
47,0.118543,0.991798,-0.047784,-0.028318,0.00515,0.0040219999999999
48,0.119547,0.991602,-0.049323,-0.00474,0.004034,0.010291
49,0.120464,0.991445,-0.050241,-0.006343,-0.000875,0.019021
50,0.121529,0.991283,-0.050862,-0.011819,0.003026,0.01659
51,0.122609,0.991135,-0.051149,-0.016499,0.008453,0.019976
52,0.123749,0.99099,-0.0512139999999999,-0.025284,0.006233,0.024557
53,0.124877,0.990846,-0.0512769999999999,-0.02777,0.011642,0.020347
54,0.126005,0.990694,-0.05145,-0.0266089999999999,0.016447,0.015546
55,0.1272059999999999,0.990525,-0.051736,-0.018624,0.008041,0.017953
56,0.128379,0.990354,-0.052107,-0.017646,6.3e-05,0.012236
57,0.129368,0.990206,-0.052475,-0.008304,0.004591,0.006684
58,0.130149,0.990093,-0.0526679999999999,0.002236,0.003025,0.010431
59,0.130966,0.989977,-0.0528159999999999,-0.001389,-0.0015429999999999,0.003073
60,0.131905,0.989846,-0.0529309999999999,-0.021675,-0.011345,-0.002077
61,0.133162,0.989648,-0.0534759999999999,-0.002073,0.001105,-0.012747
62,0.134273,0.989495,-0.053523,0.000569,0.000999,0.00265
63,0.135367,0.989331,-0.053791,-0.002997,0.005374,-0.002728
64,0.136537,0.989142,-0.054297,0.0026379999999999,0.0077909999999999,-0.003488
65,0.137842,0.988922,-0.054988,0.014868,0.02417,0.006038
66,0.139464,0.988633,-0.056087,0.013505,-0.003693,-0.002995
67,0.140782,0.988411,-0.0567,0.003871,0.005089,0.008726
68,0.1419099999999999,0.988184,-0.0578299999999999,-0.005375,0.014013,0.007812
69,0.142981,0.987927,-0.059542,-0.007193,0.006793,0.003939
70,0.144209,0.987604,-0.061901,-0.023573,0.059073,0.006572
71,0.147536,0.986851,-0.065932,0.025377,-0.021443,-0.016877
72,0.148529,0.986531,-0.0684429999999999,-0.0068049999999999,0.004497,0.010887
73,0.148114,0.98645,-0.070476,0.002338,-0.01384,0.01942
74,0.147584,0.986331,-0.073203,0.028929,0.0304389999999999,0.022406
75,0.147948,0.986055,-0.07612,0.016862,0.002226,0.019647
76,0.148653,0.985794,-0.078097,0.0293259999999999,0.004639,0.031481
77,0.149783,0.985517,-0.079427,0.038068,0.008303,0.029989
78,0.151054,0.985274,-0.080032,0.041787,0.016069,0.03302
79,0.1525359999999999,0.985043,-0.080066,0.035421,0.017597,0.027363
80,0.154169,0.984812,-0.079777,0.038779,0.007421,0.0252419999999999
81,0.155907,0.984574,-0.079338,0.043067,0.003433,0.033928
82,0.157843,0.984299,-0.078908,0.034143,-0.005524,0.026281
83,0.159729,0.984015,-0.0786549999999999,0.033722,-0.003486,0.014858
84,0.16134,0.983763,-0.078527,0.040869,0.0066849999999999,0.021993
85,0.1627829999999999,0.983527,-0.07851,0.012235,0.010629,0.020755
86,0.164012,0.983309,-0.078681,0.0058189999999999,0.003111,0.026679
87,0.16505,0.98311,-0.078987,0.002979,0.003614,0.024025
88,0.16613,0.982908,-0.079247,0.012367,0.013827,0.028298
89,0.166937,0.982741,-0.0796289999999999,0.006723,0.009783,0.028268
90,0.1675869999999999,0.982589,-0.080132,0.003082,0.009812,0.03547
91,0.168292,0.982421,-0.080711,0.001675,0.025666,0.034812
92,0.16926,0.982181,-0.0816009999999999,0.002462,0.0097159999999999,0.038449
93,0.1703599999999999,0.981917,-0.082491,0.002217,0.016374,0.041994
94,0.171419,0.981671,-0.083226,0.002455,0.004535,0.03069
95,0.172204,0.981488,-0.083766,0.004859,-0.007626,0.027034
96,0.172729,0.981379,-0.083949,0.0133669999999999,0.001393,0.019328
97,0.173139,0.981319,-0.083812,0.015383,0.004994,0.010249
98,0.173631,0.981252,-0.083574,0.008849,0.009181,0.001756
99,0.174196,0.981181,-0.083225,0.008055,0.009175,0.00037
100,0.174864,0.981083,-0.082982,0.001131,0.0087239999999999,-0.002666
101,0.175546,0.980975,-0.082811,0.0041719999999999,0.015332,-0.002714
102,0.176277,0.980827,-0.08301,0.010338,0.011986,-0.0016
103,0.177279,0.98059,-0.083665,0.0113049999999999,0.000733,-0.002288
104,0.178397,0.98031,-0.084558,0.01272,0.004599,-0.000616
105,0.179443,0.980021,-0.085682,0.009843,0.002431,0.003681
106,0.180307,0.979749,-0.086976,0.0050409999999999,0.005603,0.005219
107,0.180843,0.979529,-0.088325,0.001545,0.012887,0.019828
108,0.181249,0.979316,-0.089844,-0.010228,0.01043,0.02655
109,0.181509,0.979125,-0.0913809999999999,-0.020453,0.011323,0.033275
110,0.181599,0.978952,-0.09305,-0.0187419999999999,0.017051,0.036989
111,0.181562,0.978787,-0.09483,-0.0121129999999999,0.022754,0.03996
112,0.1815,0.978624,-0.096617,-0.015271,0.011977,0.037978
113,0.181193,0.97853,-0.098131,-0.007395,0.0070659999999999,0.031206
114,0.180723,0.97847,-0.099587,-0.00633,0.0082849999999999,0.031105
115,0.180097,0.978488,-0.100545,-0.011426,0.002302,0.021825
116,0.179395,0.978545,-0.10124,-0.007459,0.00435,0.0197129999999999
117,0.178403,0.978698,-0.101516,-0.003278,0.006135,0.017852
118,0.177168,0.978939,-0.101357,-0.004103,0.006962,0.006356
119,0.1759069999999999,0.9792,-0.101033,-0.004993,0.0056479999999999,0.005315
120,0.17473,0.979467,-0.100488,-0.005235,0.011805,0.004541
121,0.173729,0.979697,-0.099975,0.001534,0.009408,-0.004044
122,0.1728839999999999,0.979882,-0.099632,0.003675,0.007774,-0.0035479999999999
123,0.172115,0.980034,-0.099464,0.009693,0.005013,-0.006936
124,0.171406,0.980168,-0.099368,0.009945,0.0011099999999999,-0.011503
125,0.170773,0.980287,-0.0992789999999999,0.0125,0.000395,-0.010844
126,0.170142,0.980409,-0.099155,0.013269,-0.001268,-0.0097629999999999
127,0.169569,0.980512,-0.099123,0.004,0.008059,-0.003202
128,0.168923,0.980618,-0.099175,-0.003304,0.006305,-0.004661
129,0.168275,0.980709,-0.09938,-0.004106,0.011006,-0.002839
130,0.167542,0.9808,-0.099717,-0.0014349999999999,0.011326,-0.006912
131,0.166729,0.980891,-0.100182,-0.002453,0.016073,0.004585
132,0.16592,0.980956,-0.100886,-0.007686,0.013338,0.004817
133,0.165173,0.981004,-0.101636,-0.006161,0.004164,0.006604
134,0.164536,0.981038,-0.102341,-0.002503,0.005504,0.012802
135,0.164003,0.981066,-0.102934,-0.001893,0.00392,0.014402
136,0.163471,0.981096,-0.103491,-0.000599,0.003539,0.015447
137,0.162869,0.981147,-0.103951,0.003879,0.010186,0.016259
138,0.162158,0.981238,-0.1042049999999999,0.012067,0.008661,0.020632
139,0.161304,0.981368,-0.104306,0.006055,0.0010539999999999,0.014599
140,0.160294,0.981564,-0.1040099999999999,-0.0069879999999999,0.00719,0.021307
141,0.15924,0.981803,-0.103365,-0.023437,0.007714,0.0235
142,0.15837,0.982048,-0.102375,-0.026656,0.007927,0.020893
143,0.157575,0.982306,-0.101119,-0.025022,0.005136,0.022154
144,0.156722,0.982581,-0.099764,-0.019805,0.0104,0.0147879999999999
145,0.155748,0.982877,-0.098359,-0.0096,0.007754,0.0093239999999999
146,0.154691,0.983195,-0.09684,-0.010023,0.000966,0.002296
147,0.153659,0.983536,-0.095013,-0.014041,0.0072019999999999,0.002392
148,0.152663,0.983868,-0.093159,-0.015212,0.009098,0.005375
149,0.151751,0.984171,-0.091435,-0.015704,0.012655,0.006154
150,0.150857,0.984445,-0.089947,-0.022317,0.013403,0.006665
151,0.150103,0.984661,-0.088845,-0.0173669999999999,0.007862,0.006692
152,0.149531,0.984813,-0.088124,-0.006541,0.007268,0.004262
153,0.149034,0.98493,-0.0876639999999999,-0.005525,0.010768,0.004565
154,0.148529,0.985032,-0.087369,-0.004287,0.0126489999999999,0.006009
155,0.1478819999999999,0.985139,-0.087262,-0.008463,0.008483,0.010281
156,0.147279,0.985213,-0.087448,-0.003831,0.00754,0.01242
157,0.1467109999999999,0.98526,-0.087862,-0.011564,0.009475,0.013277
158,0.146297,0.985282,-0.088315,-0.013409,0.008004,0.014966
159,0.14587,0.985295,-0.088879,-0.013302,0.014171,0.016293
160,0.1453549999999999,0.985316,-0.089485,-0.013443,0.006383,0.028343
161,0.144943,0.985306,-0.090266,-0.018418,0.010651,0.026362
162,0.144365,0.98533,-0.090931,-0.01996,0.014091,0.032444
163,0.143749,0.985354,-0.09164,-0.022854,0.003797,0.0383709999999999
164,0.143279,0.985363,-0.092286,-0.023406,0.002491,0.036424
165,0.14268,0.985429,-0.0925049999999999,-0.012751,0.006758,0.037299
166,0.141786,0.985573,-0.0923529999999999,-0.012651,0.002052,0.028129
167,0.140681,0.985774,-0.09189,-0.025156,0.008046,0.022951
168,0.13945,0.986032,-0.091001,-0.041061,0.017462,0.033856
169,0.1383609999999999,0.986234,-0.0904669999999999,-0.042886,0.01314,0.028654
170,0.137438,0.986395,-0.090124,-0.028444,0.007853,0.021414
171,0.136474,0.986528,-0.090128,-0.025375,0.016768,0.016352
172,0.135645,0.986608,-0.090504,-0.005914,0.00802,0.011021
173,0.135038,0.986624,-0.091241,-0.040846,0.022333,0.041314
174,0.135867,0.986294,-0.093545,0.030194,-0.005749,-0.041053
175,0.135246,0.986335,-0.0940179999999999,0.005028,-0.000327,0.012505
176,0.1345849999999999,0.986383,-0.094457,0.004698,0.00086,-0.017893
177,0.133882,0.986456,-0.09469,0.003843,0.005914,-0.0075739999999999
178,0.133518,0.986472,-0.095039,-0.003757,0.0082329999999999,-0.007347
179,0.133173,0.986489,-0.095347,-0.004588,0.004188,-0.00411
180,0.132937,0.986469,-0.095886,-0.011599,0.005246,-0.004303
181,0.132764,0.98642,-0.0966279999999999,0.0037869999999999,0.006027,-0.008749
182,0.132691,0.986341,-0.097524,0.011352,0.005343,-0.006114
183,0.132796,0.986217,-0.098639,0.017381,0.002446,-0.009561
184,0.1330039999999999,0.986081,-0.099708,0.01197,0.005618,-0.00837
185,0.1332009999999999,0.985968,-0.10056,0.004021,-0.003073,-0.00941
186,0.133332,0.985879,-0.101248,-0.0032049999999999,0.000739,-0.006357
187,0.133412,0.985807,-0.10185,-0.005711,-0.000974,-0.0058
188,0.133419,0.985776,-0.102136,0.004108,0.004977,-0.000128
189,0.133327,0.985795,-0.102077,0.0004469999999999,0.005706,0.009441
190,0.133302,0.985783,-0.10222,0.001662,0.0059159999999999,-0.00273
191,0.133214,0.985803,-0.102145,-0.0065049999999999,0.011389,0.0072349999999999
192,0.133108,0.985827,-0.102057,0.0016879999999999,0.008085,0.006155
193,0.133052,0.98584,-0.101996,-0.006022,0.006256,0.0076359999999999
194,0.133042,0.985855,-0.101864,-0.0131069999999999,0.007187,0.007946
195,0.133043,0.985892,-0.101505,-0.004884,0.007837,0.018787
196,0.132962,0.985927,-0.101272,0.005878,0.012837,0.028671
197,0.132749,0.985971,-0.10112,-0.027402,0.0007379999999999,0.0195009999999999
198,0.132717,0.986026,-0.100631,-0.0359769999999999,-0.0023829999999999,0.0079189999999999
199,0.132713,0.986157,-0.099337,-0.026344,0.021808,0.012362
200,0.132354,0.986353,-0.097868,-0.02362,0.03208,0.029158
201,0.131557,0.986538,-0.097074,-0.028362,0.033176,0.033323
202,0.130293,0.986706,-0.097069,-0.04521,0.021549,0.04493
203,0.128946,0.986818,-0.097724,-0.054071,0.0086349999999999,0.040961
204,0.127894,0.986854,-0.098743,-0.0397589999999999,0.0075769999999999,0.0377529999999999
205,0.1272309999999999,0.986874,-0.099394,-0.026843,0.015384,0.032636
206,0.1269829999999999,0.986907,-0.099383,-0.029708,0.011506,0.033816
207,0.126657,0.986967,-0.099209,-0.029031,0.010699,0.036618
208,0.126162,0.987015,-0.099356,-0.023425,0.014541,0.023291
209,0.125742,0.987009,-0.099949,-0.023142,0.009573,0.020862
210,0.12532,0.987006,-0.100513,-0.017547,0.0039,0.017688
211,0.124905,0.987028,-0.100814,-0.018536,0.0088069999999999,0.015777
212,0.124591,0.987034,-0.10114,-0.016162,0.007229,0.017628
213,0.124165,0.987047,-0.101537,-0.0159039999999999,0.006453,0.021138
214,0.1236829999999999,0.987049,-0.102103,-0.005733,0.006924,0.009955
215,0.123348,0.987018,-0.102807,0.001256,0.003918,0.009393
216,0.123122,0.986979,-0.10345,0.0076459999999999,0.0045369999999999,0.013179
217,0.1230069999999999,0.986933,-0.104022,0.009775,0.007314,0.0094019999999999
218,0.1230059999999999,0.98688,-0.104528,0.009425,0.006345,0.004018
219,0.122965,0.986859,-0.104777,0.009207,0.014133,0.002681
220,0.122965,0.986815,-0.105192,0.012152,-0.002516,0.010099
221,0.122963,0.98675,-0.105799,0.003257,-0.0010019999999999,0.006831
222,0.122898,0.986701,-0.106332,0.0082659999999999,0.004312,0.001093
223,0.122886,0.986675,-0.1065849999999999,0.010781,-0.000713,-0.0041329999999999
224,0.1230589999999999,0.986622,-0.106876,0.01604,0.004451,-0.004117
225,0.123296,0.986564,-0.107136,0.015895,0.008095,-0.0055049999999999
226,0.123349,0.98654,-0.107296,0.013965,0.010118,-0.001576
227,0.1231049999999999,0.986562,-0.107371,0.021533,-0.008672,-0.002644
228,0.122774,0.986599,-0.1074109999999999,0.02899,-0.007382,-0.003887
229,0.122491,0.986651,-0.1072619999999999,0.030844,-0.000292,0.002342
230,0.122475,0.986703,-0.106795,0.034248,-0.0028469999999999,-0.004991
231,0.122726,0.986752,-0.106053,0.033768,-0.005963,-0.010402
232,0.123052,0.986789,-0.105327,0.033351,-0.001941,-0.0062299999999999
233,0.123424,0.986807,-0.104725,0.039646,-0.007559,-0.004421
234,0.12387,0.986826,-0.1040089999999999,0.045274,-0.006159,-0.002863
235,0.124347,0.986856,-0.103155,0.044446,-0.001352,-0.002711
236,0.124869,0.986894,-0.102162,0.045129,-0.002625,-0.000301
237,0.125397,0.986946,-0.101,0.041458,-0.003807,-0.003889
238,0.125842,0.987022,-0.099694,0.039883,-0.002052,0.002908
239,0.126436,0.987072,-0.098445,0.030455,0.005711,0.011851
240,0.127123,0.987099,-0.097289,0.0262279999999999,0.007591,0.014083
241,0.127969,0.987103,-0.09613,0.018134,0.018345,0.0229949999999999
242,0.128741,0.987106,-0.09506,0.0050479999999999,0.008927,0.021558
243,0.129459,0.987092,-0.0942269999999999,0.003949,0.003387,0.028691
244,0.130174,0.987073,-0.093439,0.0007769999999999,0.003436,0.038889
245,0.131063,0.987038,-0.09256,-0.005757,0.002326,0.036942
246,0.132133,0.986992,-0.091528,-0.012565,0.004967,0.02793
247,0.133259,0.986938,-0.090471,-0.008411,-0.001144,0.023561
248,0.134338,0.986891,-0.089378,0.006561,-0.008314,0.022071
249,0.135406,0.986874,-0.0879419999999999,0.014237,0.019809,0.024526
250,0.136213,0.986912,-0.086256,0.005739,0.037548,0.027861
251,0.137005,0.986948,-0.084574,-0.021999,-0.001597,0.033335
252,0.137728,0.98699,-0.082892,-0.031435,-0.0022789999999999,0.033972
253,0.138176,0.987079,-0.081065,-0.046257,0.010144,0.049677
254,0.138623,0.987156,-0.079346,-0.044354,0.012325,0.059632
255,0.139517,0.987168,-0.077606,-0.043524,0.006255,0.053909
256,0.140631,0.987158,-0.075699,-0.031668,0.022562,0.04741
257,0.141586,0.987145,-0.074067,-0.034851,0.016914,0.0486459999999999
258,0.142432,0.987122,-0.072742,-0.035697,0.016937,0.0473209999999999
259,0.142947,0.987147,-0.071378,-0.031909,0.023244,0.040692
260,0.143307,0.987194,-0.07,-0.025906,0.022541,0.050072
261,0.143418,0.987275,-0.068607,-0.044297,0.007079,0.0533779999999999
262,0.143703,0.987325,-0.067281,-0.043056,0.029307,0.061925
263,0.144095,0.987351,-0.066057,-0.048041,0.03305,0.0585039999999999
264,0.144532,0.987357,-0.064991,-0.062791,0.027093,0.05994
265,0.14475,0.987356,-0.064525,-0.063161,0.027491,0.0499379999999999
266,0.1448809999999999,0.987332,-0.064609,-0.051376,0.020435,0.040347
267,0.145142,0.987274,-0.064897,-0.035797,0.017196,0.041947
268,0.145625,0.987185,-0.065176,-0.029536,0.0075049999999999,0.042166
269,0.146057,0.98712,-0.065186,-0.024231,0.008073,0.043397
270,0.146285,0.987082,-0.065259,-0.022368,0.015802,0.05087
271,0.146563,0.987019,-0.06559,-0.0262629999999999,0.017254,0.049828
272,0.147033,0.986928,-0.065915,-0.027419,0.0133169999999999,0.050107
273,0.147336,0.986879,-0.06597,-0.024671,0.017928,0.048315
274,0.147533,0.986843,-0.066068,-0.0237229999999999,0.017995,0.0480019999999999
275,0.147624,0.98682,-0.066199,-0.028803,0.0155139999999999,0.038092
276,0.147663,0.986804,-0.06635,-0.033451,0.01492,0.041219
277,0.147653,0.986791,-0.066577,-0.021112,0.01298,0.035114
278,0.147826,0.986733,-0.0670559999999999,-0.01689,0.012855,0.0360959999999999
279,0.148119,0.986638,-0.0677919999999999,-0.016085,0.012355,0.039212
280,0.148243,0.986573,-0.068455,-0.014988,0.012862,0.039723
281,0.1482619999999999,0.986524,-0.069116,-0.0131139999999999,0.01018,0.032114
282,0.148281,0.986466,-0.0699,-0.013866,0.0075829999999999,0.031585
283,0.1482099999999999,0.986425,-0.07062,-0.006578,0.003809,0.03435
284,0.1481029999999999,0.986393,-0.0713,-0.001848,0.01051,0.0269879999999999
285,0.147998,0.986352,-0.072084,-0.003833,0.00724,0.029405
286,0.147894,0.986314,-0.072808,-0.008123,0.008055,0.030694
287,0.147771,0.986289,-0.073393,-0.004445,0.020486,0.0325149999999999
288,0.147584,0.986263,-0.074125,-0.002976,0.0145,0.031843
289,0.147465,0.986208,-0.0750909999999999,-0.003559,0.006117,0.028872
290,0.1473819999999999,0.98614,-0.076138,-0.001645,0.004155,0.0272329999999999
291,0.147322,0.98608,-0.077026,-0.0003799999999999,0.003742,0.028518
292,0.147191,0.986025,-0.077974,0.001948,0.013212,0.026414
293,0.147099,0.985965,-0.078908,-0.0129129999999999,0.006345,0.035604
294,0.147005,0.985917,-0.0796809999999999,-0.0151849999999999,0.008453,0.027526
295,0.146786,0.985887,-0.080455,-0.003567,0.012633,0.0286209999999999
296,0.146535,0.98584,-0.081484,0.001033,0.010315,0.026613
297,0.146351,0.985786,-0.082461,-0.004109,0.0003129999999999,0.013109
298,0.146112,0.985769,-0.083094,0.00376,0.0036409999999999,0.014612
299,0.145814,0.985767,-0.083638,0.009032,0.010876,0.021001
300,0.145471,0.985779,-0.084097,0.005468,0.0038759999999999,0.0133419999999999
301,0.14509,0.985809,-0.0844,-0.007899,0.002548,0.014011
302,0.144716,0.98583,-0.084795,-0.008272,0.008402,0.013323
303,0.144457,0.985829,-0.08525,-0.003359,0.012431,0.007048
304,0.144225,0.985811,-0.085854,-0.000381,0.009261,0.0139389999999999
305,0.144071,0.985761,-0.086677,-0.002866,0.00551,0.014931
306,0.143938,0.985707,-0.087516,-0.002596,0.002376,0.011329
307,0.1438569999999999,0.985661,-0.088162,-0.001462,0.005779,0.012707
308,0.143819,0.985614,-0.088749,0.000361,0.007642,0.013508
309,0.143777,0.985563,-0.089385,0.0048439999999999,0.005358,0.010756
310,0.143705,0.985514,-0.090033,0.002611,0.003912,0.01229
311,0.143663,0.985475,-0.090518,-0.003557,0.004729,0.009982
312,0.143708,0.985431,-0.0909259999999999,-0.0063939999999999,0.005536,0.0079189999999999
313,0.14381,0.985389,-0.091219,-0.006023,0.006036,0.017611
314,0.143863,0.985356,-0.091486,-0.010089,0.009258,0.020914
315,0.143838,0.985339,-0.0917019999999999,-0.011392,0.010053,0.026913
316,0.143652,0.985355,-0.091815,-0.0245419999999999,0.010281,0.030826
317,0.143398,0.985383,-0.091914,-0.026912,0.01065,0.030772
318,0.143089,0.98542,-0.092004,-0.024253,0.010048,0.02398
319,0.142702,0.985473,-0.092032,-0.011705,0.00618,0.024283
320,0.142237,0.985524,-0.092207,-0.011119,0.0082659999999999,0.024107
321,0.14169,0.985604,-0.092193,-0.01254,0.013511,0.02333
322,0.141097,0.985709,-0.091972,-0.0092909999999999,0.002892,0.012383
323,0.140596,0.985825,-0.091503,0.001982,-0.007217,-0.004093
324,0.140049,0.985962,-0.09086,0.004757,-0.005966,-0.012503
325,0.1393299999999999,0.986142,-0.090001,0.015638,0.001178,-0.021327
326,0.1385559999999999,0.986325,-0.089188,0.026712,0.010836,-0.024322
327,0.137869,0.986447,-0.088909,0.02981,0.011829,-0.013356
328,0.13757,0.986455,-0.08928,0.028293,0.005855,-0.005813
329,0.137751,0.98638,-0.089822,0.028234,0.000848,-0.004096
330,0.138353,0.986261,-0.090206,0.040251,-0.014078,-0.003956
331,0.139193,0.986166,-0.089949,0.039564,-0.019369,-0.004228
332,0.1398319999999999,0.986149,-0.089147,0.040054,-0.003238,0.003987
333,0.139969,0.986235,-0.087972,0.037964,-0.000319,0.010747
334,0.1401359999999999,0.986351,-0.086388,0.034776,3.8e-05,0.018472
335,0.140465,0.986452,-0.084691,0.0271529999999999,-0.001115,0.0180099999999999
336,0.140775,0.986551,-0.083001,0.021197,0.00527,0.031213
337,0.14112,0.986646,-0.081269,0.01304,0.010836,0.041993
338,0.141573,0.986712,-0.079666,-0.007372,0.019986,0.048614
339,0.142063,0.986737,-0.0784779999999999,-0.03336,0.027225,0.055697
340,0.142549,0.986737,-0.0775899999999999,-0.051042,0.026599,0.061385
341,0.143064,0.986724,-0.076794,-0.0525799999999999,0.019578,0.054669
342,0.143475,0.986714,-0.076155,-0.046139,0.011287,0.052854
343,0.143704,0.986739,-0.0754,-0.04765,0.005845,0.052573
344,0.143589,0.986821,-0.074546,-0.047214,0.0256759999999999,0.053794
345,0.143439,0.98689,-0.073918,-0.045402,0.0256069999999999,0.054616
346,0.143271,0.986943,-0.073527,-0.0374209999999999,0.0223949999999999,0.041408
347,0.143276,0.986958,-0.0733289999999999,-0.028286,0.01347,0.030467
348,0.143238,0.986963,-0.073323,-0.02338,0.005407,0.029316
349,0.143092,0.986985,-0.073314,-0.019328,0.007018,0.022044
350,0.142986,0.987003,-0.07329,-0.018382,0.007458,0.023836
351,0.142862,0.987032,-0.073133,-0.005899,0.014127,0.0155919999999999
352,0.142776,0.987044,-0.073148,0.005539,0.002595,0.011106
353,0.142722,0.987034,-0.073388,0.005289,0.00581,0.011926
354,0.142707,0.987021,-0.073598,0.00779,0.014261,0.023107
355,0.142843,0.986976,-0.073931,-0.006445,0.003152,0.030626
356,0.143168,0.986891,-0.074435,-0.0202889999999999,0.006426,0.032672
357,0.143551,0.986787,-0.075076,-0.023968,0.013549,0.038532
358,0.144027,0.986668,-0.075728,-0.003738,0.008205,0.040679
359,0.144353,0.986596,-0.076037,-0.007176,0.005591,0.047076
360,0.1443809999999999,0.986588,-0.076086,-0.008319,0.0083299999999999,0.047125
361,0.144123,0.986639,-0.075915,-0.003849,0.013925,0.047274
362,0.143945,0.986667,-0.075898,-0.003198,0.010449,0.0384829999999999
363,0.143823,0.986686,-0.0758809999999999,-0.005273,0.006356,0.041274
364,0.143763,0.986693,-0.075895,-0.0069069999999999,0.010575,0.033597
365,0.143718,0.986683,-0.076111,-0.003826,0.010692,0.033814
366,0.14371,0.986666,-0.076357,0.000974,0.018446,0.036196
367,0.143754,0.986646,-0.076535,-0.0006259999999999,0.011447,0.034101
368,0.143719,0.986633,-0.0767679999999999,-0.006512,0.005402,0.037538
369,0.143592,0.986634,-0.076996,-0.015846,0.0054009999999999,0.0415339999999999
370,0.143459,0.986644,-0.077115,-0.020107,0.013143,0.040066
371,0.1433579999999999,0.986644,-0.077294,-0.021639,0.022984,0.041344
372,0.14328,0.986624,-0.077703,-0.019135,0.018793,0.046118
373,0.143223,0.98658,-0.078363,-0.01955,0.0135419999999999,0.0427339999999999
374,0.14321,0.986521,-0.0791289999999999,-0.023428,0.01705,0.049832
375,0.143195,0.986461,-0.079897,-0.027992,0.017887,0.047991
376,0.1431359999999999,0.986413,-0.0805879999999999,-0.022928,0.00376,0.038047
377,0.142959,0.986393,-0.0811429999999999,-0.01622,-0.0059549999999999,0.01405
378,0.142639,0.986421,-0.08137,-0.0056,-0.002275,-0.002706
379,0.142249,0.986485,-0.08127,0.001351,-0.0015609999999999,-0.014311
380,0.141934,0.986544,-0.081114,0.005985,0.008879,-0.013216
381,0.141681,0.986571,-0.081219,0.004392,0.01706,-0.00452
382,0.141576,0.986548,-0.081686,0.000834,0.012628,0.002402
383,0.14155,0.986485,-0.082493,-0.00326,-0.000492,0.020512
384,0.141615,0.986389,-0.083522,-0.001814,-0.000198,0.028224
385,0.141784,0.986271,-0.084627,-0.008529,0.005306,0.0387589999999999
386,0.142045,0.986153,-0.08556,-0.024461,0.009041,0.048558
387,0.142256,0.986049,-0.086397,-0.0283339999999999,0.018605,0.043489
388,0.1422759999999999,0.985994,-0.086991,-0.02785,0.008467,0.040467
389,0.1421329999999999,0.985971,-0.08749,-0.023816,0.006629,0.038769
390,0.14182,0.986,-0.087675,-0.023244,0.0129319999999999,0.039701
391,0.141439,0.986048,-0.087742,-0.022253,0.012289,0.042377
392,0.140924,0.986119,-0.087775,-0.0264839999999999,0.0118819999999999,0.044836
393,0.140241,0.986218,-0.087749,-0.02635,0.012469,0.041973
394,0.139538,0.986318,-0.087755,-0.024701,0.01324,0.040483
395,0.138908,0.986392,-0.087915,-0.028862,0.008115,0.036355
396,0.1383579999999999,0.986463,-0.087983,-0.027275,0.008364,0.028306
397,0.137753,0.986555,-0.08791,-0.015744,0.009524,0.029927
398,0.137077,0.98665,-0.087896,-0.0104599999999999,0.009795,0.0315149999999999
399,0.13621,0.986777,-0.087815,0.001913,0.014398,0.027147
400,0.135406,0.986885,-0.087853,-0.005035,0.007393,0.023965
401,0.1348339999999999,0.986952,-0.087979,-0.0047979999999999,0.010881,0.026242
402,0.134474,0.986982,-0.088194,-0.002317,0.0112319999999999,0.02513
403,0.134277,0.98698,-0.088516,0.00264,0.004978,0.026535
404,0.13418,0.986951,-0.088985,0.009542,0.005496,0.022152
405,0.134126,0.986907,-0.089548,0.010008,0.009553,0.023341
406,0.134141,0.986863,-0.090014,0.00566,0.0112909999999999,0.0312529999999999
407,0.134289,0.986802,-0.090462,-0.0080069999999999,0.0061329999999999,0.031945
408,0.134427,0.986742,-0.090904,-0.008008,0.010648,0.035377
409,0.134602,0.986671,-0.091415,-0.021549,0.013527,0.036285
410,0.134975,0.986553,-0.092135,-0.027538,0.072345,0.054598
411,0.1358079999999999,0.986259,-0.094045,-0.016103,0.06878,0.084875
412,0.136968,0.98565,-0.098635,-0.016515,0.010765,0.093996
413,0.138284,0.984934,-0.1038099999999999,-0.017159,0.002432,0.090123
414,0.139664,0.984295,-0.1079359999999999,-0.009812,0.014758,0.077602
415,0.141244,0.98372,-0.1110839999999999,0.010489,-0.0043799999999999,0.061509
416,0.142498,0.983348,-0.112755,0.007084,-0.0144919999999999,0.049157
417,0.1429119999999999,0.983277,-0.112853,0.006792,-0.008088,0.043227
418,0.142515,0.98343,-0.112024,0.004564,-0.00995,0.021631
419,0.141731,0.98368,-0.110819,0.005303,-0.005546,0.017359
420,0.140869,0.983934,-0.109654,-0.003067,0.002577,0.013371
421,0.140174,0.984141,-0.1086839999999999,-0.0067209999999999,0.018193,0.011913
422,0.139615,0.98429,-0.108057,-0.010724,0.02041,0.014581
423,0.139196,0.984362,-0.107939,-0.01383,0.022077,0.012648
424,0.138894,0.984381,-0.108163,-0.020257,0.019358,0.005868
425,0.138717,0.984333,-0.108822,-0.015777,0.01347,0.000774
426,0.138691,0.984233,-0.109747,-0.018605,0.0077709999999999,-0.000208
427,0.138708,0.984109,-0.110832,-0.019735,0.002722,-0.009026
428,0.13865,0.984008,-0.111799,-0.021921,0.001603,-0.003557
429,0.138536,0.983908,-0.112814,-0.020952,0.005838,0.008093
430,0.138453,0.983797,-0.1138869999999999,-0.0132699999999999,-0.000108,0.011089
431,0.138297,0.983722,-0.114723,-0.012152,0.003293,0.0133889999999999
432,0.138051,0.983692,-0.115277,-0.019826,0.009976,0.016446
433,0.138024,0.983631,-0.115823,-0.032601,0.001888,0.014551
434,0.138211,0.983558,-0.116223,-0.027462,-0.0071629999999999,0.012952
435,0.137999,0.983574,-0.116341,-0.016982,0.003456,0.000283
436,0.13745,0.983654,-0.1163119999999999,-0.025313,0.023548,0.000193
437,0.137143,0.983665,-0.1165829999999999,-0.027799,0.018197,-0.003442
438,0.136972,0.983627,-0.117105,-0.019358,-0.003997,-0.004462
439,0.136965,0.983558,-0.117693,-0.014421,-0.013053,-0.011549
440,0.137116,0.983479,-0.118176,0.0103,-0.004689,-0.024616
441,0.137407,0.983414,-0.118375,0.028319,0.01181,-0.0147889999999999
442,0.137916,0.983317,-0.118591,0.036782,0.007864,-0.014053
443,0.138537,0.983208,-0.118775,0.020811,-0.002205,-0.002456
444,0.138967,0.983129,-0.118925,0.0037329999999999,-0.005574,0.0040869999999999
445,0.139152,0.983101,-0.118939,0.00103,0.003822,0.002285
446,0.139242,0.983144,-0.118477,0.000681,0.00355,0.010796
447,0.139424,0.983238,-0.1174809999999999,-0.012028,0.0071489999999999,0.034976
448,0.139419,0.9834,-0.116115,-0.032958,0.023726,0.040844
449,0.139373,0.983532,-0.115053,-0.03836,0.018955,0.0404529999999999
450,0.13946,0.983615,-0.1142339999999999,-0.024912,0.014188,0.051536
451,0.139543,0.983617,-0.114117,-0.0265819999999999,0.018992,0.0451019999999999
452,0.139685,0.983592,-0.1141609999999999,-0.011359,0.010793,0.026499
453,0.139853,0.983557,-0.1142599999999999,0.0149169999999999,0.002512,0.026919
454,0.140014,0.983549,-0.114131,0.023438,0.004229,0.024623
455,0.140042,0.98359,-0.113745,-0.010281,0.007926,0.023489
456,0.140341,0.983627,-0.113053,-0.016531,0.010361,0.020722
457,0.141047,0.983642,-0.112039,-0.013346,0.012376,0.0292899999999999
458,0.141994,0.983614,-0.111079,-0.0133169999999999,0.005964,0.033183
459,0.142776,0.983607,-0.110139,-0.021956,0.003286,0.040147
460,0.143209,0.983656,-0.1091289999999999,-0.035116,0.007677,0.04283
461,0.143528,0.983724,-0.108096,-0.045917,0.026683,0.052631
462,0.144003,0.983736,-0.10735,-0.061957,0.022261,0.04041
463,0.144722,0.983713,-0.106588,-0.062935,0.012274,0.03362
464,0.145524,0.983686,-0.105745,-0.061387,0.024188,0.0413069999999999
465,0.146335,0.983645,-0.104998,-0.050739,0.026898,0.0423
466,0.147029,0.983608,-0.1043829999999999,-0.038356,0.008275,0.030713
467,0.147467,0.983593,-0.103902,-0.010428,0.010975,0.028783
468,0.1478,0.983585,-0.1035069999999999,0.0110599999999999,0.00636,0.022819
469,0.148032,0.983603,-0.103,0.017618,0.003778,0.020862
470,0.148198,0.983625,-0.102549,0.013103,0.009417,0.018595
471,0.148619,0.983601,-0.102162,0.017488,0.018977,0.0255169999999999
472,0.1492099999999999,0.983536,-0.101936,0.026785,0.00972,0.035942
473,0.14998,0.983426,-0.101868,0.0250069999999999,-0.000592,0.043854
474,0.150897,0.983283,-0.101891,0.011975,0.014794,0.051278
475,0.152124,0.983071,-0.102109,-0.025965,0.009742,0.060147
476,0.153455,0.982861,-0.102139,-0.033872,0.009098,0.066235
477,0.154859,0.982674,-0.1018169999999999,-0.055097,0.024177,0.073848
478,0.155894,0.982542,-0.101517,-0.05482,0.019152,0.07193
479,0.156449,0.98246,-0.1014559999999999,-0.043687,0.0255969999999999,0.078186
480,0.15656,0.982437,-0.101506,-0.020452,0.021698,0.103322
481,0.1567049999999999,0.982395,-0.1016929999999999,-0.030393,0.019681,0.091073
482,0.1570089999999999,0.982305,-0.102092,-0.053982,0.022899,0.079021
483,0.15755,0.982174,-0.1025089999999999,-0.0598929999999999,0.024799,0.074646
484,0.158065,0.982082,-0.102596,-0.066909,0.033207,0.068737
485,0.158329,0.981998,-0.102999,-0.070789,0.033398,0.072283
486,0.158374,0.981908,-0.1037829999999999,-0.057071,0.032054,0.074516
487,0.158277,0.9818,-0.104944,-0.04321,0.031292,0.071741
488,0.158113,0.981698,-0.106143,-0.031267,0.013908,0.0729549999999999
489,0.157839,0.981638,-0.1071039999999999,-0.031298,0.005423,0.063784
490,0.157276,0.981683,-0.107519,-0.036395,-0.001962,0.0472319999999999
491,0.156252,0.981829,-0.107681,-0.015063,0.003629,0.047226
492,0.154949,0.982068,-0.1073819999999999,0.0119519999999999,0.009616,0.036764
493,0.153616,0.982375,-0.106485,0.030329,0.010056,0.03666
494,0.152303,0.98271,-0.105273,0.022685,0.005678,0.028994
495,0.151216,0.983023,-0.103914,0.019484,-0.000601,0.028307
496,0.150394,0.983286,-0.1026079999999999,0.022076,-0.001078,0.021202
497,0.149801,0.983487,-0.101549,0.042444,0.002964,0.012269
498,0.149257,0.983636,-0.100896,0.061238,0.009253,0.002141
499,0.148849,0.983718,-0.1007049999999999,0.073228,0.005296,-0.001773
500,0.148627,0.983752,-0.100696,0.065057,-0.001559,0.0070069999999999
501,0.148644,0.983742,-0.100775,0.047004,-0.011635,-0.000345
502,0.14884,0.983718,-0.100717,0.032862,-0.006164,-0.00611
503,0.149149,0.983701,-0.100427,0.0297449999999999,0.005893,-0.00582
504,0.149288,0.983703,-0.100195,0.025807,0.003708,-0.004861
505,0.149573,0.983674,-0.10006,0.022469,-0.0010539999999999,-0.005027
506,0.149818,0.983651,-0.0999159999999999,0.014763,0.013953,0.009873
507,0.150109,0.983597,-0.100009,0.004233,0.008727,0.02283
508,0.15049,0.98351,-0.100294,-0.003075,0.002513,0.0276019999999999
509,0.151002,0.98339,-0.100701,-6.3e-05,0.003198,0.031823
510,0.151659,0.983245,-0.10113,-0.002855,0.007722,0.0398209999999999
511,0.152394,0.983111,-0.101328,-0.015995,0.014372,0.039637
512,0.153048,0.983016,-0.101262,-0.035617,0.019532,0.044545
513,0.1534849999999999,0.982966,-0.101089,-0.042309,0.014379,0.047073
514,0.15369,0.982942,-0.101004,-0.039081,0.014372,0.053549
515,0.153633,0.982938,-0.101136,-0.029991,0.017444,0.0512549999999999
516,0.153467,0.982942,-0.101344,-0.026941,0.018171,0.055461
517,0.153394,0.982916,-0.101714,-0.03378,0.0202889999999999,0.057311
518,0.153564,0.982852,-0.102072,-0.035522,0.01164,0.05039
519,0.153844,0.982786,-0.102284,-0.0267379999999999,0.007388,0.043004
520,0.1539309999999999,0.982752,-0.102472,-0.014497,0.015722,0.05047
521,0.153911,0.982728,-0.1027339999999999,-0.018321,0.011962,0.048214
522,0.1537,0.982755,-0.1027849999999999,-0.029905,0.016406,0.047853
523,0.153583,0.982764,-0.102867,-0.035205,0.014718,0.043388
524,0.153573,0.982758,-0.102943,-0.037454,0.019195,0.036766
525,0.153532,0.98275,-0.1030789999999999,-0.0318279999999999,0.014396,0.033377
526,0.153434,0.982736,-0.1033549999999999,-0.022422,0.0130979999999999,0.033592
527,0.153362,0.982702,-0.1037829999999999,-0.021755,0.010584,0.028985
528,0.153134,0.982689,-0.104247,-0.02055,0.013191,0.028518
529,0.1529599999999999,0.982655,-0.104822,-0.020346,0.013927,0.034128
530,0.15298,0.982586,-0.105442,-0.017329,0.013798,0.035831
531,0.153107,0.982494,-0.106108,-0.0174409999999999,0.011875,0.036787
532,0.153184,0.982417,-0.106707,-0.0102099999999999,0.006749,0.033114
533,0.153105,0.982374,-0.107213,-0.0054909999999999,0.009569,0.032232
534,0.152975,0.98235,-0.107619,-0.00173,0.010737,0.033095
535,0.152712,0.98237,-0.107814,-0.00342,0.003134,0.028057
536,0.152368,0.982421,-0.107833,-0.009409,0.002152,0.032943
537,0.1519839999999999,0.982499,-0.107668,-0.012183,0.005065,0.032534
538,0.151651,0.982588,-0.107326,-0.0081879999999999,0.0098739999999999,0.044567
539,0.151411,0.982674,-0.106874,-0.013502,0.016304,0.039125
540,0.151142,0.982748,-0.106575,-0.017872,0.016199,0.041588
541,0.150886,0.982778,-0.1066609999999999,-0.01673,0.014048,0.02852
542,0.150688,0.982805,-0.106692,-0.017921,-0.004045,0.027743
543,0.1506019999999999,0.982825,-0.1066299999999999,-0.008466,0.005532,0.0251629999999999
544,0.150532,0.98284,-0.106596,-0.000797,0.012689,0.034544
545,0.150456,0.982841,-0.106689,-0.022511,0.012184,0.033325
546,0.150388,0.982826,-0.106925,-0.026425,0.011406,0.033866
547,0.150115,0.982833,-0.107247,-0.026091,0.014405,0.0364149999999999
548,0.14985,0.982821,-0.1077279999999999,-0.024377,0.021375,0.030565
549,0.149755,0.982772,-0.108305,-0.019811,0.012513,0.0264259999999999
550,0.149835,0.982692,-0.108911,-0.010583,0.011082,0.029993
551,0.150022,0.982558,-0.109856,-0.001248,0.009019,0.029854
552,0.150194,0.982394,-0.111082,-0.004397,0.004255,0.026441
553,0.150376,0.982236,-0.112219,-0.0018629999999999,0.008715,0.028082
554,0.150613,0.982084,-0.113231,0.003684,0.010393,0.026958
555,0.150859,0.981947,-0.114089,0.003148,0.007204,0.031386
556,0.15098,0.981834,-0.114899,3.6e-05,0.01133,0.033264
557,0.1509859999999999,0.981759,-0.11553,-0.015228,0.0089629999999999,0.040792
558,0.150976,0.981699,-0.1160549999999999,-0.016988,0.015005,0.047085
559,0.150953,0.981634,-0.1166339999999999,-0.015837,0.019724,0.050762
560,0.151024,0.981543,-0.1173039999999999,-0.016411,0.011819,0.056696
561,0.151078,0.981443,-0.118066,-0.015977,0.007998,0.058556
562,0.151095,0.981361,-0.118729,-0.008761,0.014733,0.052445
563,0.151162,0.981274,-0.119365,-0.006997,0.007923,0.050823
564,0.151165,0.981214,-0.119847,-0.013836,0.011339,0.045185
565,0.151105,0.981173,-0.1202589999999999,-0.021528,0.01605,0.044392
566,0.150941,0.981154,-0.120621,-0.02292,0.0146039999999999,0.044098
567,0.15074,0.98116,-0.120824,-0.028166,0.01176,0.04006
568,0.150448,0.981198,-0.120879,-0.022915,0.010272,0.036238
569,0.150103,0.981261,-0.120799,-0.02048,0.010637,0.037852
570,0.1497339999999999,0.98134,-0.120617,-0.012878,0.004866,0.037594
571,0.14925,0.981462,-0.120226,-0.00951,0.011962,0.032503
572,0.148744,0.981584,-0.119852,-0.007905,0.013991,0.033884
573,0.148249,0.981703,-0.119492,-0.010187,0.009493,0.02887
574,0.147824,0.981821,-0.119044,-0.0160949999999999,0.007192,0.031459
575,0.147348,0.981952,-0.118551,-0.015055,0.009899,0.031332
576,0.14686,0.982081,-0.118089,-0.015451,0.011739,0.032045
577,0.146393,0.982204,-0.117644,-0.009476,0.012058,0.031447
578,0.146017,0.9823,-0.117314,-0.009618,0.010941,0.030369
579,0.145725,0.982393,-0.116896,-0.008793,0.012297,0.030501
580,0.145446,0.982484,-0.116478,-0.010421,0.010116,0.0284199999999999
581,0.145149,0.982568,-0.1161329999999999,-0.009926,0.010519,0.0274029999999999
582,0.144868,0.982646,-0.115826,-0.009186,0.010213,0.023144
583,0.144597,0.982717,-0.1155609999999999,-0.008366,0.010294,0.025107
584,0.144343,0.982778,-0.115363,-0.007914,0.010493,0.025519
585,0.144149,0.98283,-0.115167,-0.006378,0.01125,0.02659
586,0.143976,0.982867,-0.115067,-0.010767,0.011045,0.026673
587,0.143851,0.982897,-0.114967,-0.012686,0.0101,0.0267399999999999
588,0.143731,0.982924,-0.1148849999999999,-0.010262,0.011843,0.0257279999999999
589,0.143594,0.982941,-0.114909,-0.01217,0.013611,0.02444
590,0.143501,0.982939,-0.115044,-0.014412,0.008944,0.027673
591,0.143474,0.982915,-0.115288,-0.010173,0.007564,0.026436
592,0.143431,0.982886,-0.1155829999999999,-0.004072,0.00863,0.028821
593,0.143416,0.982852,-0.115894,-0.001219,0.011777,0.028294
594,0.143354,0.982837,-0.116099,-0.004331,0.006543,0.026255
595,0.143176,0.982849,-0.116211,-0.007755,0.008789,0.030167
596,0.1430809999999999,0.982852,-0.1163109999999999,-0.010787,0.01074,0.029473
597,0.143008,0.982864,-0.116294,-0.008319,0.011002,0.031135
598,0.142873,0.982882,-0.1163059999999999,-0.006825,0.011594,0.032489
599,0.1426869999999999,0.982897,-0.1164099999999999,-0.00963,0.010237,0.034104
600,0.142528,0.98289,-0.116658,-0.010646,0.007329,0.028813
601,0.1423869999999999,0.982879,-0.1169289999999999,-0.010429,0.009477,0.031923
602,0.142317,0.982856,-0.1172079999999999,-0.004668,0.016183,0.0388839999999999
603,0.142353,0.982823,-0.117439,-0.004292,0.013423,0.036308
604,0.142293,0.982818,-0.117558,-0.009862,0.006074,0.0321399999999999
605,0.1421079999999999,0.982835,-0.117639,-0.0097989999999999,0.003692,0.032342
606,0.141942,0.982858,-0.117644,-0.007024,0.004035,0.030517
607,0.141789,0.982886,-0.117594,-0.010029,0.013986,0.030389
608,0.141627,0.982912,-0.117574,-0.008402,0.016569,0.032567
609,0.141405,0.982939,-0.117614,-0.006669,0.011995,0.037307
610,0.141237,0.982943,-0.117782,-0.011125,0.00842,0.033264
611,0.141115,0.982942,-0.1179369999999999,-0.008577,0.011641,0.0364709999999999
612,0.141071,0.982937,-0.1180349999999999,-0.008045,0.010166,0.034585
613,0.141006,0.982945,-0.118046,-0.009093,0.011196,0.033649
614,0.140841,0.982982,-0.1179279999999999,-0.013659,0.010166,0.036278
615,0.140615,0.983029,-0.1178099999999999,-0.012319,0.004413,0.031873
616,0.140435,0.983082,-0.117578,-0.0094849999999999,0.006587,0.037042
617,0.140245,0.983157,-0.1171799999999999,-0.000673,0.01138,0.035759
618,0.139959,0.983269,-0.1165809999999999,-0.0026449999999999,0.014396,0.041935
619,0.139547,0.983392,-0.116042,-0.007772,0.010978,0.030806
620,0.139096,0.983534,-0.11538,-0.017667,0.00815,0.028481
621,0.138791,0.983656,-0.114698,-0.0133789999999999,0.007661,0.025465
622,0.138593,0.983771,-0.113953,-7.4e-05,0.005685,0.026047
623,0.138376,0.983879,-0.113283,0.00141,0.009483,0.014818
624,0.138122,0.983983,-0.112688,0.004518,0.0094709999999999,0.013246
625,0.1378849999999999,0.984075,-0.112177,0.012887,0.008235,0.021478
626,0.137727,0.984143,-0.111771,0.0148,0.006305,0.0220789999999999
627,0.137591,0.984203,-0.1114049999999999,0.011152,0.007587,0.030823
628,0.137549,0.984219,-0.111323,-0.004584,0.0131569999999999,0.037074
629,0.137654,0.984169,-0.1116359999999999,-0.0092819999999999,0.0169449999999999,0.045336
630,0.137928,0.984076,-0.1121119999999999,-0.015675,0.023019,0.057699
631,0.138286,0.983929,-0.1129569999999999,-0.031459,0.033313,0.071164
632,0.1386339999999999,0.98374,-0.114172,-0.033089,0.010248,0.0871789999999999
633,0.139228,0.983528,-0.115265,-0.015678,0.006447,0.087433
634,0.139771,0.983331,-0.1162869999999999,-0.011002,0.016394,0.074249
635,0.139992,0.983217,-0.116988,-0.014321,0.015151,0.066008
636,0.140291,0.983087,-0.117713,-0.015475,0.018088,0.064796
637,0.140514,0.982982,-0.118323,-0.016735,0.016026,0.053915
638,0.140373,0.982949,-0.118765,-0.012458,0.0145639999999999,0.050009
639,0.139977,0.982926,-0.119425,-0.008401,0.010269,0.051524
640,0.139524,0.982935,-0.1198819999999999,0.000873,0.005896,0.039697
641,0.139094,0.982956,-0.120202,0.005193,0.003646,0.037637
642,0.1388,0.982957,-0.1205349999999999,0.007929,0.009078,0.034476
643,0.138468,0.982973,-0.120792,0.013296,0.012328,0.033267
644,0.137976,0.982996,-0.121165,0.018183,0.011389,0.036708
645,0.137461,0.982994,-0.1217559999999999,0.017705,0.010399,0.037955
646,0.1370569999999999,0.982977,-0.1223539999999999,0.009564,0.010615,0.041696
647,0.136759,0.982939,-0.122993,0.008764,0.006518,0.044105
648,0.136541,0.982892,-0.123607,0.0136669999999999,0.003253,0.0411329999999999
649,0.1363609999999999,0.982853,-0.124121,0.0184849999999999,0.008175,0.040975
650,0.136099,0.982815,-0.124704,0.016977,0.011386,0.0438319999999999
651,0.135849,0.982773,-0.125309,0.016556,0.0127409999999999,0.038685
652,0.135576,0.982721,-0.1260089999999999,0.021421,0.007651,0.039279
653,0.135267,0.982632,-0.127029,0.021715,0.008213,0.04216
654,0.1351349999999999,0.982504,-0.128153,0.022336,0.006784,0.0405209999999999
655,0.135043,0.982345,-0.12946,0.015699,0.0091709999999999,0.048664
656,0.135027,0.982159,-0.130883,0.0149819999999999,0.008198,0.05375
657,0.135099,0.981959,-0.132298,0.018328,0.005056,0.047368
658,0.135051,0.981769,-0.133746,0.016011,0.004284,0.051196
659,0.1350309999999999,0.981548,-0.135379,0.008478,0.007877,0.0463439999999999
660,0.135141,0.981293,-0.1371089999999999,-0.008371,0.010376,0.04255
661,0.135501,0.980989,-0.138914,-0.028567,0.0150889999999999,0.0534799999999999
662,0.1362799999999999,0.980561,-0.141156,-0.035893,0.020965,0.068661
663,0.137657,0.979937,-0.144125,-0.0709,0.0204449999999999,0.101232
664,0.139367,0.97905,-0.148442,-0.070932,0.022155,0.1181079999999999
665,0.141372,0.977911,-0.153952,-0.065948,0.025202,0.1214359999999999
666,0.1437,0.976678,-0.159525,-0.0450519999999999,0.003043,0.100565
667,0.146148,0.975294,-0.165652,-0.026443,-0.021818,0.099872
668,0.148717,0.97381,-0.171974,-0.028768,-0.026804,0.101265
669,0.151613,0.972345,-0.177645,-0.029238,-0.070489,0.098864
670,0.1555619999999999,0.970802,-0.182599,-0.02632,-0.095665,0.067944
671,0.160176,0.969573,-0.185125,-0.004384,-0.061995,0.03304
672,0.164509,0.968823,-0.185249,0.005673,-0.029736,0.028114
673,0.168327,0.968148,-0.185353,0.025216,0.0382459999999999,0.026554
674,0.171916,0.967482,-0.18553,0.006307,0.101823,0.015761
675,0.1750519999999999,0.966866,-0.185813,-0.009128,0.102302,0.010337
676,0.177534,0.966341,-0.186185,-0.023497,0.1160559999999999,0.0023469999999999
677,0.179278,0.965926,-0.186669,-0.020221,0.1196599999999999,-0.006232
678,0.180742,0.965514,-0.187389,-0.01262,0.1061109999999999,-0.004079
679,0.182027,0.965005,-0.1887619999999999,-0.009511,0.086249,0.003078
680,0.184545,0.964088,-0.190991,0.039713,-0.044868,-0.003573
681,0.184872,0.96378,-0.192226,-0.01318,0.008388,0.0155139999999999
682,0.184136,0.963773,-0.192965,-0.022408,0.005251,0.016329
683,0.182568,0.964096,-0.19284,-0.026944,0.000122,0.029861
684,0.1806,0.964618,-0.1920849999999999,-0.026043,-0.009311,0.036445
685,0.178402,0.965287,-0.19077,-0.031201,-0.007386,0.036702
686,0.176124,0.966016,-0.189191,-0.040229,0.010729,0.048185
687,0.174172,0.966674,-0.187632,-0.04194,0.017396,0.04986
688,0.172767,0.967106,-0.186703,-0.045768,0.028698,0.048366
689,0.172191,0.967175,-0.186875,-0.055339,0.031101,0.061509
690,0.172495,0.966898,-0.188025,-0.053858,0.020712,0.064459
691,0.173905,0.966281,-0.189887,-0.053162,0.0182,0.068488
692,0.17593,0.965488,-0.192044,-0.077404,0.025051,0.055386
693,0.1784339999999999,0.964617,-0.194102,-0.096617,0.026594,0.052515
694,0.180804,0.963765,-0.19613,-0.086962,0.0520889999999999,0.0433589999999999
695,0.18258,0.962879,-0.198818,0.002753,0.050763,0.039654
696,0.183482,0.961865,-0.202852,0.011617,0.012286,0.096041
697,0.18484,0.961018,-0.205613,-0.046535,0.016643,0.051332
698,0.183614,0.961689,-0.203566,-0.054295,0.05685,-0.006593
699,0.1798789999999999,0.962895,-0.2011869999999999,0.0029519999999999,0.078121,0.010025
700,0.177163,0.963318,-0.201572,-0.0074239999999999,0.0426029999999999,0.044589
701,0.176674,0.962905,-0.203957,-0.055153,0.000779,0.082757
702,0.1768549999999999,0.962235,-0.206942,-0.09606,-0.008225,0.1157859999999999
703,0.176967,0.961657,-0.2095159999999999,-0.122539,0.028165,0.116438
704,0.177265,0.96116,-0.211535,-0.1316109999999999,0.050177,0.110843
705,0.1779599999999999,0.960547,-0.213725,-0.1155819999999999,0.056588,0.123057
706,0.180504,0.959342,-0.216982,-0.078697,0.049798,0.120104
707,0.182806,0.958279,-0.219734,-0.058431,0.010288,0.102211
708,0.185041,0.95733,-0.221989,-0.054807,0.02439,0.0600169999999999
709,0.187542,0.956279,-0.224405,0.030949,-0.005,0.0234009999999999
710,0.191046,0.954895,-0.227321,0.049371,-0.015732,0.001552
711,0.194107,0.953668,-0.229866,0.051315,-0.009668,-0.034828
712,0.196719,0.952738,-0.2314969999999999,0.053586,-0.004984,-0.019266
713,0.1991369999999999,0.951952,-0.232659,0.058859,-0.010912,-0.014763
714,0.201045,0.95135,-0.233483,0.012273,-0.003107,-0.012886
715,0.20238,0.951054,-0.233535,-0.0133389999999999,0.007168,-0.008607
716,0.203455,0.95113,-0.232286,0.000936,0.00233,0.007265
717,0.204313,0.951635,-0.229448,0.01697,-0.004614,0.007783
718,0.204907,0.952552,-0.2250719999999999,0.018925,-0.009742,0.008687
719,0.204979,0.953835,-0.219506,0.01313,-0.003563,0.0071189999999999
720,0.204604,0.955383,-0.213028,-0.029113,0.008042,0.011963
721,0.204402,0.956859,-0.206496,-0.059489,0.018498,0.002914
722,0.204362,0.958226,-0.200098,-0.058976,-0.001179,0.02476
723,0.204344,0.959577,-0.1935349999999999,-0.0552799999999999,-0.01608,0.0278399999999999
724,0.2046369999999999,0.960932,-0.186368,-0.0524149999999999,0.003759,0.0355959999999999
725,0.205044,0.962308,-0.178663,-0.05505,0.019183,0.048567
726,0.204827,0.963842,-0.170452,-0.050987,0.039499,0.040782
727,0.203785,0.965649,-0.161226,-0.048695,0.057789,0.035219
728,0.2018569999999999,0.967647,-0.151369,-0.07881,0.087102,0.071031
729,0.19879,0.969512,-0.143281,-0.077986,0.072252,0.083588
730,0.194434,0.971413,-0.136205,-0.06095,0.0882179999999999,0.086172
731,0.189625,0.973325,-0.12915,-0.074757,0.07625,0.062057
732,0.185502,0.974868,-0.123371,-0.05356,0.054108,0.0150949999999999
733,0.1824849999999999,0.975792,-0.1205339999999999,-0.024084,0.055687,0.004704
734,0.18114,0.976208,-0.1191859999999999,0.034787,-0.006787,0.030761
735,0.180623,0.976587,-0.116844,0.049526,-0.068873,0.030663
736,0.180508,0.976955,-0.113914,0.049992,-0.076503,0.023383
737,0.180397,0.977202,-0.1119569999999999,0.023262,0.002962,0.012958
738,0.180252,0.977411,-0.110347,-0.0056,0.018774,0.030726
739,0.180134,0.977539,-0.109403,-0.013096,0.018402,0.032682
740,0.180798,0.977469,-0.108929,-0.003003,-0.010703,0.036098
741,0.181589,0.977364,-0.108556,0.010092,-0.00895,0.037084
742,0.182313,0.977283,-0.108074,0.0153949999999999,-0.017581,0.029216
743,0.182807,0.977301,-0.107065,0.026879,0.007379,0.032083
744,0.183151,0.977299,-0.106497,0.040131,-0.002782,0.031287
745,0.183464,0.977339,-0.105589,0.045281,-0.008849,0.029966
746,0.183714,0.977509,-0.1035619999999999,0.038317,-0.013444,0.025162
747,0.183097,0.977884,-0.101082,0.017449,0.001577,0.035149
748,0.1827079999999999,0.978149,-0.099204,0.034135,-0.027313,0.029517
749,0.1824309999999999,0.97845,-0.09672,0.029467,-0.022853,0.067881
750,0.181981,0.978878,-0.093173,-0.009114,0.0129889999999999,0.065585
751,0.181855,0.979206,-0.0899129999999999,0.0043479999999999,0.0091209999999999,0.048561
752,0.181742,0.979455,-0.087394,0.008901,0.01052,0.063957
753,0.181845,0.979556,-0.086039,0.006372,0.019803,0.06602
754,0.182507,0.979483,-0.085462,0.0050079999999999,0.031671,0.059736
755,0.183602,0.979248,-0.085816,0.001182,0.0112769999999999,0.054672
756,0.184936,0.978916,-0.086732,0.008728,0.020581,0.04532
757,0.186122,0.978558,-0.088221,0.01508,0.004261,0.041788
758,0.187039,0.978232,-0.0898809999999999,0.015156,0.004663,0.038963
759,0.187677,0.977957,-0.091524,0.009802,0.001047,0.0385449999999999
760,0.188315,0.977694,-0.093014,0.024423,-0.0134,0.020413
761,0.188896,0.977491,-0.093962,0.037118,0.004717,0.02516
762,0.189448,0.977316,-0.094672,0.038655,0.006662,0.024238
763,0.189997,0.977139,-0.095395,0.026617,0.014118,0.029111
764,0.190662,0.976949,-0.096008,0.010037,0.019419,0.039581
765,0.191399,0.976729,-0.096773,-0.000283,0.012727,0.038866
766,0.1921,0.976482,-0.0978779999999999,0.005562,0.008061,0.018196
767,0.1927829999999999,0.976245,-0.098886,0.01141,0.008481,0.020761
768,0.193606,0.975979,-0.099912,0.034818,-0.005199,0.017804
769,0.194484,0.975707,-0.100853,0.038822,-0.004607,0.017449
770,0.195465,0.975455,-0.101393,0.029205,0.007165,0.031005
771,0.196374,0.97523,-0.101806,0.01319,0.008337,0.039367
772,0.197117,0.975017,-0.102403,-0.003773,0.020481,0.029939
773,0.197956,0.974765,-0.103184,-0.0045509999999999,0.010907,0.027225
774,0.198995,0.974459,-0.104068,0.000193,0.0025,0.046298
775,0.200405,0.974241,-0.103399,0.0204659999999999,-0.019514,0.082921
776,0.201972,0.974076,-0.101899,-0.018424,0.020507,0.073349
777,0.203207,0.974034,-0.099823,-0.024008,0.038585,0.068253
778,0.204004,0.974233,-0.096194,-0.002008,0.033763,0.061252
779,0.204419,0.974559,-0.091913,-0.006879,0.02239,0.063181
780,0.2041849999999999,0.975064,-0.086934,-0.058112,0.006213,0.067387
781,0.203546,0.975561,-0.082762,-0.082589,0.046671,0.080077
782,0.204177,0.975681,-0.079738,-0.066237,0.031277,0.075709
783,0.205953,0.975535,-0.076897,-0.038458,0.010137,0.058495
784,0.2075409999999999,0.975415,-0.074103,-0.002982,-0.001019,0.049048
785,0.2080489999999999,0.975462,-0.072029,0.03423,0.001147,0.021858
786,0.207846,0.975604,-0.0706779999999999,0.046991,0.004697,0.026213
787,0.207651,0.975727,-0.069538,0.034597,0.00729,0.030873
788,0.207655,0.975803,-0.068462,0.0161,0.01402,0.025372
789,0.207796,0.975823,-0.06774,0.012388,-0.001137,0.026022
790,0.208021,0.97578,-0.067658,0.021197,0.004063,0.012161
791,0.208388,0.975666,-0.0681789999999999,0.027375,0.008511,0.000582
792,0.2087449999999999,0.97554,-0.06888,0.04005,-0.011414,0.010714
793,0.208884,0.975491,-0.069157,0.0359279999999999,-0.018383,0.02422
794,0.208517,0.975578,-0.069037,0.019099,0.00898,0.049674
795,0.2077119999999999,0.97572,-0.069453,0.006247,0.038562,0.034983
796,0.207065,0.97579,-0.070399,0.002652,0.009714,0.022639
797,0.206354,0.975866,-0.071427,0.028082,-0.029104,0.0293279999999999
798,0.204894,0.976166,-0.071524,0.073594,-0.040848,0.030035
799,0.202518,0.976717,-0.07077,0.075436,0.007749,0.037872
800,0.200511,0.977216,-0.069598,0.043081,0.027972,0.056262
801,0.1998349999999999,0.977466,-0.068012,-0.00376,0.0296139999999999,0.041782
802,0.199905,0.977558,-0.066463,-0.018356,0.0199699999999999,0.039135
803,0.199592,0.977689,-0.0654759999999999,-0.008903,-0.002362,0.038498
804,0.198619,0.97793,-0.064821,0.000677,-0.011393,0.032533
805,0.1973329999999999,0.978208,-0.064566,0.016824,0.009891,0.018179
806,0.196369,0.978414,-0.064373,0.0531429999999999,-0.003194,0.000713
807,0.195827,0.97855,-0.063962,0.0672649999999999,-0.0075569999999999,-0.00545
808,0.195278,0.978714,-0.063126,0.072392,-0.000717,0.022111
809,0.19411,0.979022,-0.0619299999999999,0.053265,-0.004062,0.0262089999999999
810,0.192709,0.979374,-0.060724,-0.018408,0.049007,0.055459
811,0.191444,0.979647,-0.060325,-0.050865,0.053312,0.036674
812,0.190841,0.97973,-0.060889,-0.037124,0.01789,0.039145
813,0.190902,0.979634,-0.062232,0.008728,-0.023808,0.057807
814,0.190835,0.979576,-0.06334,0.02143,-0.023109,0.040665
815,0.190169,0.979678,-0.063762,0.00789,0.007154,0.031444
816,0.189013,0.979868,-0.064277,-6.4e-05,0.0094349999999999,0.038962
817,0.187656,0.980079,-0.065032,0.004513,-0.0022199999999999,0.043898
818,0.186432,0.980282,-0.065495,0.010604,-0.0062829999999999,0.036397
819,0.185249,0.980482,-0.065859,0.006569,-0.006925,0.030016
820,0.183978,0.980681,-0.066458,0.0009429999999999,0.006044,0.027884
821,0.182845,0.980849,-0.067096,-0.0145259999999999,0.012544,0.034717
822,0.181793,0.980984,-0.067974,-0.038757,0.019108,0.038418
823,0.180884,0.98107,-0.069148,-0.042837,0.021875,0.0330149999999999
824,0.180082,0.981121,-0.070505,-0.016233,0.006687,0.028512
825,0.179561,0.98108,-0.072381,-0.004146,-0.001679,0.036127
826,0.179277,0.980963,-0.074635,-0.009172,-0.007162,0.037159
827,0.17906,0.980823,-0.076951,-0.012221,0.0023309999999999,0.032395
828,0.178924,0.980638,-0.07958,-0.019393,0.007094,0.036245
829,0.179257,0.980357,-0.082241,-0.023266,0.015767,0.041684
830,0.180077,0.979966,-0.0850669999999999,-0.032402,0.005615,0.0484
831,0.181087,0.979528,-0.087917,-0.039119,0.005381,0.049114
832,0.182176,0.979051,-0.090928,-0.037721,0.00656,0.047349
833,0.183541,0.978482,-0.094253,-0.040261,0.002475,0.034454
834,0.185143,0.977859,-0.097524,-0.024513,0.026215,0.013479
835,0.186569,0.977315,-0.100227,-0.001235,0.015025,0.030616
836,0.187319,0.976935,-0.102502,0.000379,-0.0022489999999999,0.034555
837,0.187215,0.976803,-0.103938,0.002894,-0.0005769999999999,0.05015
838,0.18664,0.97681,-0.104906,-0.008157,0.010998,0.052537
839,0.185865,0.97684,-0.105994,-0.038557,0.00108,0.070426
840,0.1852099999999999,0.976783,-0.107653,-0.063995,0.021187,0.047518
841,0.184579,0.976649,-0.1099319999999999,-0.0587549999999999,0.048223,0.056099
842,0.184679,0.976328,-0.1125839999999999,-0.052782,0.029547,0.068669
843,0.18524,0.975923,-0.115141,-0.048247,0.007155,0.0711649999999999
844,0.185755,0.975512,-0.117764,-0.0471139999999999,0.005338,0.074689
845,0.186024,0.975137,-0.120422,-0.049824,0.004005,0.072784
846,0.186297,0.974763,-0.122999,-0.057437,0.008437,0.0608649999999999
847,0.186776,0.974308,-0.12584,-0.06205,0.013759,0.063661
848,0.187544,0.973729,-0.129132,-0.068938,0.010997,0.059461
849,0.188623,0.973083,-0.13239,-0.060999,0.003922,0.049168
850,0.190044,0.972389,-0.135425,-0.05711,0.019478,0.043185
851,0.1917829999999999,0.971631,-0.13838,-0.04272,0.035632,0.033689
852,0.193651,0.970876,-0.141057,-0.030031,0.035243,0.02535
853,0.195535,0.970097,-0.143786,-0.019693,0.0233419999999999,0.018527
854,0.19759,0.969223,-0.146837,-0.019795,0.0188139999999999,0.0178849999999999
855,0.199552,0.96833,-0.150039,-0.021161,0.014153,0.013534
856,0.201453,0.967378,-0.153603,-0.030631,0.02188,0.001946
857,0.2033859999999999,0.966303,-0.157763,-0.027895,0.024435,0.002825
858,0.205517,0.965083,-0.162404,-0.0296899999999999,0.011602,0.00176
859,0.2078,0.963797,-0.167068,-0.038153,-0.003317,-0.00026
860,0.210058,0.962518,-0.1715549999999999,-0.038534,0.00199,-0.002166
861,0.211923,0.961396,-0.175512,-0.041254,0.005111,0.006917
862,0.2135909999999999,0.960424,-0.178779,-0.025344,0.007136,-0.009377
863,0.2144449999999999,0.959824,-0.180966,-0.023298,0.026443,-0.0032229999999999
864,0.214642,0.959415,-0.182889,-0.017865,0.039746,-0.0098599999999999
865,0.214346,0.959078,-0.18499,-0.021018,0.054182,-0.0053939999999999
866,0.213741,0.958752,-0.187363,-0.023708,0.05112,-0.017913
867,0.2130929999999999,0.958342,-0.19018,-0.040378,0.054522,-0.009268
868,0.212028,0.957841,-0.193858,-0.042656,0.040969,0.0182139999999999
869,0.211052,0.957257,-0.197766,-0.039406,0.038196,0.027371
870,0.2120179999999999,0.956275,-0.201452,-0.047284,-0.0030269999999999,0.035192
871,0.212553,0.955292,-0.205509,-0.0771159999999999,0.009201,0.034367
872,0.213015,0.954369,-0.209285,-0.051409,0.001457,0.040736
873,0.213691,0.953587,-0.212142,-0.0149139999999999,-0.0059549999999999,0.046356
874,0.21477,0.952797,-0.2145889999999999,-0.008242,0.005364,0.036733
875,0.2155369999999999,0.952103,-0.216888,-0.005194,0.010818,0.039261
876,0.21544,0.951683,-0.21882,-0.002198,0.0229879999999999,0.046182
877,0.214758,0.951346,-0.2209429999999999,-0.0139979999999999,0.02395,0.0396069999999999
878,0.213746,0.951016,-0.223333,-0.034745,0.029407,0.031744
879,0.212671,0.950705,-0.225673,-0.040766,0.026636,0.039241
880,0.211666,0.950495,-0.2274929999999999,-0.027721,0.019827,0.04065
881,0.210781,0.950419,-0.22863,-0.018612,0.014639,0.0399399999999999
882,0.209886,0.950362,-0.229688,-0.016221,0.017137,0.0286839999999999
883,0.208723,0.950259,-0.2311679999999999,-0.0274029999999999,0.024534,0.030713
884,0.2073289999999999,0.950133,-0.232932,-0.039635,0.016999,0.04325
885,0.205911,0.950047,-0.234537,-0.039468,0.021129,0.0471899999999999
886,0.204684,0.950037,-0.23565,-0.023913,0.011877,0.051919
887,0.2036329999999999,0.950018,-0.236636,-0.021947,0.012019,0.0584429999999999
888,0.202835,0.949849,-0.2379929999999999,-0.0391699999999999,0.025157,0.0509509999999999
889,0.2023589999999999,0.949588,-0.239436,-0.0544549999999999,0.034512,0.0489459999999999
890,0.202271,0.949314,-0.240596,-0.0392,0.021511,0.049007
891,0.20201,0.949054,-0.241835,-0.038939,0.021771,0.050245
892,0.201748,0.948885,-0.242718,-0.025845,0.01129,0.0475579999999999
893,0.20162,0.948714,-0.24349,-0.025015,0.028962,0.046606
894,0.202509,0.948395,-0.243995,-0.027201,0.03923,0.040641
895,0.202959,0.948248,-0.244191,-0.0263529999999999,0.008752,0.059636
896,0.202741,0.948243,-0.244394,-0.039961,0.0241849999999999,0.053461
897,0.202228,0.948413,-0.24416,-0.035541,0.024335,0.0576519999999999
898,0.201642,0.948675,-0.243625,-0.0405089999999999,0.02244,0.054294
899,0.200973,0.949019,-0.242839,-0.040359,0.023927,0.05479
900,0.200051,0.949466,-0.241851,-0.0430529999999999,0.025525,0.057647
901,0.199036,0.949971,-0.240702,-0.047318,0.023052,0.058161
902,0.197959,0.950574,-0.239203,-0.049354,0.020587,0.055197
903,0.196732,0.951266,-0.237459,-0.048768,0.0411959999999999,0.065645
904,0.195544,0.951925,-0.2357949999999999,-0.049807,0.045054,0.0663
905,0.194626,0.952459,-0.234393,-0.053635,0.033259,0.064273
906,0.1939519999999999,0.952913,-0.2331,-0.050168,0.024672,0.068122
907,0.19352,0.953315,-0.23181,-0.043679,0.029229,0.069975
908,0.193289,0.95367,-0.23054,-0.035726,0.024479,0.070109
909,0.19316,0.953972,-0.229396,-0.035812,0.022392,0.06541
910,0.193042,0.954226,-0.228436,-0.038944,0.025785,0.0581179999999999
911,0.19304,0.954363,-0.227867,-0.0337839999999999,0.029188,0.054116
912,0.193108,0.954402,-0.227644,-0.0304949999999999,0.0291029999999999,0.051497
913,0.1931109999999999,0.954405,-0.227632,-0.028636,0.017626,0.054887
914,0.193176,0.954339,-0.227854,-0.027908,0.016257,0.049067
915,0.19336,0.954202,-0.228271,-0.03035,0.020713,0.041793
916,0.193759,0.954002,-0.228764,-0.032275,0.023094,0.038579
917,0.194373,0.953736,-0.229354,-0.029868,0.0214229999999999,0.0371839999999999
918,0.19498,0.953496,-0.2298349999999999,-0.018131,0.015055,0.038215
919,0.195475,0.953322,-0.230136,-0.004359,0.015244,0.0411399999999999
920,0.19594,0.953208,-0.230215,-0.013247,0.018716,0.044759
921,0.1964119999999999,0.953077,-0.230352,-0.0189979999999999,0.026064,0.042043
922,0.196921,0.952936,-0.230504,-0.023459,0.030875,0.043614
923,0.197466,0.952754,-0.230787,-0.026537,0.030537,0.049268
924,0.197943,0.952539,-0.2312659999999999,-0.030386,0.025214,0.055394
925,0.1982799999999999,0.952275,-0.232064,-0.028999,0.030635,0.049309
926,0.198633,0.951995,-0.232909,-0.034174,0.0264899999999999,0.051436
927,0.199026,0.951667,-0.233913,-0.037099,0.031701,0.052943
928,0.199679,0.951308,-0.234812,-0.038851,0.019318,0.052851
929,0.200302,0.950936,-0.235785,-0.035599,0.0241,0.042075
930,0.200797,0.950595,-0.2367369999999999,-0.041007,0.025219,0.0431029999999999
931,0.200913,0.950374,-0.237526,-0.030243,0.026371,0.044427
932,0.200866,0.950211,-0.238219,-0.0205979999999999,0.02655,0.047469
933,0.201093,0.949993,-0.2388969999999999,-0.026807,0.029591,0.041539
934,0.201553,0.949695,-0.23969,-0.03154,0.018292,0.034932
935,0.202234,0.949378,-0.240371,-0.056513,0.092843,0.051086
936,0.2041319999999999,0.948789,-0.241094,-0.006744,-0.0022559999999999,0.0207569999999999
937,0.204988,0.948464,-0.2416449999999999,0.005446,-0.013497,0.043525
938,0.205173,0.948326,-0.242029,-0.027041,0.022072,0.033609
939,0.205169,0.948259,-0.242294,-0.0227659999999999,0.02632,0.0347279999999999
940,0.205249,0.948131,-0.2427239999999999,-0.024524,0.016194,0.037204
941,0.205626,0.94787,-0.243425,-0.031813,0.014868,0.03528
942,0.206126,0.94757,-0.244167,-0.036067,0.015885,0.027767
943,0.2067929999999999,0.947231,-0.244919,-0.02822,0.010777,0.024338
944,0.207736,0.946865,-0.245536,-0.012927,0.036808,0.016777
945,0.209842,0.946227,-0.246206,0.00195,0.005143,0.006811
946,0.211659,0.945583,-0.2471239999999999,-0.011463,0.02126,0.010902
947,0.21286,0.944944,-0.248529,-0.02803,0.020418,0.0018859999999999
948,0.213771,0.944376,-0.249904,-0.018168,0.01296,-0.000584
949,0.214414,0.943942,-0.25099,-0.00958,0.015104,0.00598
950,0.214881,0.943637,-0.251736,-0.019706,0.020307,0.0165979999999999
951,0.215045,0.943544,-0.251943,-0.035816,0.025831,0.0316829999999999
952,0.214832,0.943622,-0.251833,-0.046024,0.02496,0.03908
953,0.2144239999999999,0.943677,-0.251976,-0.071876,0.02518,0.046531
954,0.2141829999999999,0.943682,-0.252159,-0.085338,0.024671,0.0570149999999999
955,0.214082,0.943666,-0.252307,-0.062684,0.054121,0.049304
956,0.214126,0.943762,-0.2519099999999999,-0.060561,0.0935,-0.00636
957,0.215353,0.943731,-0.250977,-0.003485,-0.035452,-0.06044
958,0.215772,0.943884,-0.2500429999999999,0.032809,-0.035436,-0.062549
959,0.2152329999999999,0.944342,-0.248775,0.064842,-0.0293029999999999,-0.091313
960,0.2135659999999999,0.945199,-0.24695,0.064083,0.001014,-0.094817
961,0.2113969999999999,0.946172,-0.24508,0.058562,0.019282,-0.092323
962,0.209182,0.94719,-0.2430389999999999,0.047867,0.010451,-0.085986
963,0.207445,0.948138,-0.2408219999999999,0.013731,-0.022311,-0.090446
964,0.2065929999999999,0.948649,-0.2395409999999999,-0.013188,-0.033991,-0.075416
965,0.206353,0.948851,-0.238945,-0.0257339999999999,-0.048216,-0.040947
966,0.205551,0.949624,-0.2365519999999999,-0.046554,-0.052621,-0.016149
967,0.2043599999999999,0.95091,-0.232383,-0.104293,-0.039197,0.014168
968,0.203695,0.952514,-0.226318,-0.11083,0.008576,0.016433
969,0.202718,0.954139,-0.22027,-0.117116,0.067895,0.036478
970,0.199504,0.955897,-0.215531,-0.135799,0.199712,0.089951
971,0.194494,0.957826,-0.211507,-0.138235,0.159865,0.072926
972,0.1897599999999999,0.959223,-0.209471,-0.122851,0.130514,0.07559
973,0.187644,0.959705,-0.209165,-0.085379,0.075725,0.073759
974,0.188408,0.959569,-0.209105,-0.018212,-0.095692,0.071425
975,0.189794,0.959407,-0.208594,-0.003607,-0.139415,0.080466
976,0.188127,0.95995,-0.207602,-0.0054789999999999,-0.088155,0.0926429999999999
977,0.184846,0.960933,-0.205996,0.036849,0.091298,0.083605
978,0.182856,0.961937,-0.203065,0.036413,0.063529,0.069474
979,0.181265,0.963013,-0.1993619999999999,0.0200289999999999,0.006836,0.064672
980,0.179597,0.964179,-0.195191,-0.007844,-0.058661,0.065598
981,0.17728,0.965569,-0.190377,0.008511,-0.040596,0.053826
982,0.175315,0.966948,-0.185123,-0.001349,0.005113,0.037479
983,0.174155,0.968177,-0.179714,0.038888,-0.010475,0.004162
984,0.173517,0.969229,-0.174589,0.0418,-0.01525,0.01634
985,0.172813,0.970214,-0.169749,0.020577,0.0035409999999999,0.002956
986,0.171865,0.971012,-0.1661089999999999,0.009852,0.01231,-0.008406
987,0.170881,0.971633,-0.163473,-0.037641,0.03296,0.002508
988,0.170951,0.971918,-0.161693,-0.0524059999999999,0.019888,0.030223
989,0.1718329999999999,0.972014,-0.160175,-0.0582769999999999,-0.005736,0.063282
990,0.172942,0.972104,-0.158426,-0.111785,0.031085,0.091486
991,0.174025,0.972243,-0.156377,-0.129683,0.02617,0.089544
992,0.174582,0.972448,-0.154466,-0.113318,0.012186,0.076815
993,0.174601,0.972737,-0.152616,-0.070689,0.014919,0.0780309999999999
994,0.1741609999999999,0.973094,-0.150829,-0.018354,0.025823,0.083446
995,0.174979,0.973373,-0.148057,0.0281769999999999,0.019532,0.075532
996,0.175761,0.973771,-0.144468,0.037938,0.023329,0.075285
997,0.17551,0.974428,-0.140283,0.071667,-0.061541,0.0588929999999999
998,0.173354,0.97547,-0.135649,0.055955,0.033014,0.060088
999,0.171802,0.976508,-0.13004,0.058484,0.016275,0.054372
1000,0.170991,0.977538,-0.1231859999999999,0.0525039999999999,-0.016204,0.065706
1001,0.170566,0.978418,-0.116617,0.025677,0.005667,0.056665
1002,0.170773,0.979005,-0.111269,-0.011304,0.043167,0.0240039999999999
1003,0.17132,0.979343,-0.1073799999999999,-0.001902,0.036618,0.006093
1004,0.172431,0.979414,-0.104932,0.037988,-0.0072299999999999,0.014661
1005,0.173975,0.979299,-0.103445,0.079855,-0.0098319999999999,0.024252
1006,0.176053,0.978992,-0.102828,0.02991,0.043072,0.049803
1007,0.1789319999999999,0.97842,-0.103305,0.0305399999999999,0.0045509999999999,0.06026
1008,0.182112,0.977766,-0.103934,0.004945,0.023851,0.07096
1009,0.185084,0.977124,-0.104723,-0.023036,0.034213,0.080782
1010,0.1869549999999999,0.976644,-0.105872,-0.06519,0.044566,0.102866
1011,0.189215,0.976007,-0.1077089999999999,-0.053488,0.0155539999999999,0.124402
1012,0.191261,0.975416,-0.109445,-0.069999,0.0340899999999999,0.1234369999999999
1013,0.193597,0.97476,-0.1111619999999999,-0.0671929999999999,0.04355,0.100573
1014,0.196088,0.974148,-0.1121549999999999,-0.048566,0.014468,0.089404
1015,0.197934,0.97381,-0.111852,-0.029187,0.0032409999999999,0.06481
1016,0.1983319999999999,0.973903,-0.110329,-0.000974,-0.010646,0.073845
1017,0.1983359999999999,0.974144,-0.108175,0.005353,-0.001442,0.06011
1018,0.1982819999999999,0.974413,-0.105824,0.005103,0.003996,0.04485
1019,0.198671,0.974572,-0.1036,0.017179,0.0073,0.056526
1020,0.199331,0.974615,-0.10192,0.012369,0.0322519999999999,0.05831
1021,0.200013,0.974587,-0.100849,-0.010346,0.030876,0.054936
1022,0.2005,0.974504,-0.100687,-0.018737,0.028869,0.066705
1023,0.20132,0.974223,-0.101753,-0.0045119999999999,0.029408,0.057227
1024,0.202625,0.973782,-0.103375,-0.002583,0.016208,0.0602539999999999
1025,0.204373,0.973231,-0.10511,-0.014203,0.019475,0.074959
1026,0.206168,0.972667,-0.106813,-0.02558,0.0266,0.0786299999999999
1027,0.2080699999999999,0.972002,-0.109155,-0.046129,0.039381,0.087716
1028,0.209775,0.971364,-0.111551,-0.022656,0.010173,0.096277
1029,0.2108449999999999,0.970914,-0.1134299999999999,0.005815,-0.012693,0.0673179999999999
1030,0.211036,0.970787,-0.1141549999999999,0.019799,-0.022209,0.050358
1031,0.2104199999999999,0.970982,-0.113638,0.036726,-0.025913,0.023168
1032,0.209366,0.971466,-0.111426,0.047333,-0.011474,0.021765
1033,0.207896,0.972184,-0.1078539999999999,0.051717,-0.011842,0.030386
1034,0.206171,0.973034,-0.103419,0.040869,-0.002575,0.005259
1035,0.204246,0.973885,-0.099136,0.045281,0.030006,-0.011292
1036,0.202478,0.974573,-0.095954,0.063971,0.043219,0.0074069999999999
1037,0.201294,0.974986,-0.094238,0.056244,0.015127,0.0335079999999999
1038,0.201092,0.975094,-0.093546,0.027485,0.010258,0.023631
1039,0.201695,0.974982,-0.0934059999999999,0.009914,0.022271,0.018073
1040,0.202706,0.974712,-0.094041,0.0032119999999999,0.025594,0.013444
1041,0.203938,0.974321,-0.095414,0.0208539999999999,0.015227,0.008393
1042,0.205386,0.973844,-0.097163,0.033537,-0.006177,0.007319
1043,0.2067099999999999,0.973413,-0.098664,0.039445,-0.014367,0.03566
1044,0.207542,0.973145,-0.099549,0.043999,-0.023759,0.034104
1045,0.207786,0.973109,-0.099399,0.042977,-0.016077,0.022098
1046,0.2073739999999999,0.973262,-0.098754,0.03698,0.0007059999999999,0.029448
1047,0.206869,0.973463,-0.097835,0.023523,0.001498,0.018672
1048,0.2064489999999999,0.973662,-0.096728,0.025149,0.001756,0.029757
1049,0.205832,0.97386,-0.096051,0.043115,0.009844,0.043912
1050,0.20578,0.973887,-0.095885,0.056351,0.008886,0.032897
1051,0.2059619999999999,0.973858,-0.095794,0.071946,-0.008526,0.0453019999999999
1052,0.20584,0.973882,-0.095813,0.040361,-0.001531,0.046741
1053,0.206102,0.973845,-0.095623,0.055433,-0.004347,0.0513879999999999
1054,0.20595,0.973894,-0.09545,0.0259839999999999,0.005796,0.047934
1055,0.20595,0.973931,-0.095075,0.0345899999999999,-0.000603,0.059842
1056,0.205391,0.974102,-0.094532,0.041374,0.002217,0.063389
1057,0.204483,0.974344,-0.093997,-0.012833,0.017004,0.063174
1058,0.204032,0.974512,-0.093236,-0.016547,0.004629,0.078008
1059,0.203565,0.974711,-0.092171,-0.006742,0.000585,0.082864
1060,0.202298,0.975098,-0.090858,-0.0586059999999999,0.0341949999999999,0.076103
1061,0.201856,0.975309,-0.089574,-0.040082,0.024005,0.0772289999999999
1062,0.201426,0.975504,-0.08841,-0.039454,0.020773,0.083787
1063,0.200222,0.975832,-0.087521,-0.0583299999999999,0.024702,0.081264
1064,0.199757,0.975967,-0.0870659999999999,-0.063588,0.0303649999999999,0.073898
1065,0.199394,0.976103,-0.086374,-0.0733559999999999,0.0280009999999999,0.086374
1066,0.198224,0.97638,-0.085941,-0.082715,0.037262,0.088688
1067,0.19634,0.976762,-0.085919,-0.138295,0.050124,0.100919
1068,0.195271,0.976937,-0.086369,-0.097447,0.029914,0.097493
1069,0.194251,0.977116,-0.086643,-0.076911,0.028774,0.109974
1070,0.193466,0.977265,-0.086722,-0.057983,0.015197,0.107901
1071,0.192384,0.97749,-0.086594,-0.04886,0.021625,0.097764
1072,0.190995,0.977793,-0.086251,-0.022019,0.015066,0.094995
1073,0.189999,0.978027,-0.085795,-0.018124,0.0176699999999999,0.090297
1074,0.18892,0.978292,-0.085154,-0.018525,0.0181379999999999,0.096064
1075,0.187821,0.978557,-0.0845289999999999,-0.013932,0.025318,0.100826
1076,0.1865119999999999,0.978817,-0.08442,-0.020862,0.02039,0.09945
1077,0.185065,0.979065,-0.084732,-0.033942,0.0148169999999999,0.092971
1078,0.183606,0.979363,-0.084463,-0.042447,0.0109629999999999,0.089895
1079,0.1821019999999999,0.9797,-0.083809,-0.04105,0.017386,0.09037
1080,0.180455,0.980065,-0.083093,-0.024174,0.023505,0.085687
1081,0.178858,0.980395,-0.0826529999999999,-0.004267,0.015149,0.07719
1082,0.177293,0.980706,-0.082342,0.00714,0.011406,0.066992
1083,0.1758,0.981006,-0.081969,0.010616,0.0066349999999999,0.050231
1084,0.174416,0.981294,-0.081467,0.015144,0.004408,0.0370949999999999
1085,0.17294,0.981587,-0.081089,0.014957,0.00613,0.0418889999999999
1086,0.171447,0.981864,-0.080903,0.0067909999999999,0.001107,0.047761
1087,0.169978,0.982143,-0.0806149999999999,-0.005092,0.004933,0.048648
1088,0.168646,0.98238,-0.080523,-0.012014,0.009655,0.052294
1089,0.1675,0.982568,-0.080616,-0.019444,0.013541,0.055134
1090,0.166368,0.982744,-0.080819,-0.022493,0.019316,0.059243
1091,0.164984,0.982938,-0.081298,-0.020697,0.018573,0.062911
1092,0.16339,0.983162,-0.081801,-0.0193169999999999,0.0120159999999999,0.064009
1093,0.161631,0.983413,-0.0822799999999999,-0.018381,0.018036,0.064092
1094,0.1600359999999999,0.983632,-0.082786,-0.0261709999999999,0.02087,0.059013
1095,0.158756,0.983794,-0.0833179999999999,-0.031437,0.010438,0.052572
1096,0.1578099999999999,0.983894,-0.0839289999999999,-0.016163,0.004799,0.0520529999999999
1097,0.156725,0.98401,-0.084605,-0.004442,0.008971,0.054484
1098,0.155413,0.984153,-0.085358,-0.002718,0.010171,0.055664
1099,0.153911,0.984341,-0.0859149999999999,-0.007243,0.010395,0.052697
1100,0.152519,0.984507,-0.086491,-0.00872,0.010702,0.050251
1101,0.151315,0.984637,-0.087117,-0.003336,0.010587,0.040624
1102,0.150285,0.984734,-0.0878029999999999,0.001281,0.012656,0.037067
1103,0.1494349999999999,0.984779,-0.088746,0.014688,0.0025559999999999,0.036973
1104,0.148592,0.984822,-0.089682,0.012144,-0.001973,0.036917
1105,0.1479069999999999,0.984852,-0.090486,-0.000126,-0.003803,0.036119
1106,0.147597,0.984824,-0.09129,0.011705,-0.0022649999999999,0.034405
1107,0.146681,0.984901,-0.091936,0.012086,0.006966,0.03406
1108,0.145861,0.984956,-0.092645,0.021375,0.01042,0.030969
1109,0.145098,0.985007,-0.093305,0.017515,0.006555,0.032346
1110,0.144444,0.985051,-0.093856,0.006801,-0.003453,0.032043
1111,0.143474,0.985176,-0.094034,0.001058,-0.004829,0.036081
1112,0.142289,0.985347,-0.094043,-0.0112769999999999,0.0118,0.028491
1113,0.141123,0.985505,-0.094139,-0.001398,0.013686,0.0259779999999999
1114,0.140174,0.985616,-0.0943919999999999,-0.0074069999999999,0.012629,0.02791
1115,0.139586,0.985675,-0.094649,-0.014403,0.007444,0.027389
1116,0.139113,0.985722,-0.094856,-0.020781,0.004772,0.0352699999999999
1117,0.138725,0.985768,-0.094942,-0.007194,0.003917,0.037127
1118,0.138117,0.985848,-0.095,-0.009669,0.008369,0.033675
1119,0.1373839999999999,0.985929,-0.095216,-0.015924,0.026201,0.0279089999999999
1120,0.1371079999999999,0.985904,-0.095873,-0.02285,0.016461,0.029176
1121,0.137092,0.985852,-0.096428,0.0250479999999999,-0.0263339999999999,0.016701
1122,0.136722,0.985856,-0.09691,-0.009479,0.005965,0.007875
1123,0.136276,0.985889,-0.09721,0.016571,-0.011768,0.021603
1124,0.135777,0.985957,-0.097213,0.0156509999999999,-0.002849,0.021728
1125,0.135345,0.986044,-0.096936,-0.000625,0.01214,0.024655
1126,0.13513,0.986081,-0.0968639999999999,-0.010985,0.005115,0.024049
1127,0.135165,0.986054,-0.097091,-0.0103629999999999,0.00357,0.032302
1128,0.135185,0.986004,-0.097567,-0.015327,0.012333,0.0454269999999999
1129,0.135242,0.985942,-0.098112,-0.0306579999999999,0.013325,0.0569289999999999
1130,0.135343,0.985894,-0.098455,-0.031049,0.0149139999999999,0.055044
1131,0.135402,0.985865,-0.0986679999999999,-0.031185,0.013784,0.0514419999999999
1132,0.1355029999999999,0.985842,-0.09876,-0.031041,0.0113049999999999,0.050497
1133,0.135716,0.98582,-0.098688,-0.031911,0.009221,0.055353
1134,0.135866,0.985835,-0.098334,-0.032579,0.026219,0.070853
1135,0.135702,0.985918,-0.097728,-0.03945,0.03784,0.06036
1136,0.135066,0.986058,-0.097201,-0.040569,0.037136,0.06122
1137,0.134257,0.986167,-0.097208,-0.038478,0.017098,0.061151
1138,0.133644,0.986194,-0.097769,-0.031135,0.006924,0.063391
1139,0.133144,0.986203,-0.098367,-0.018932,-0.002057,0.0661549999999999
1140,0.132576,0.986262,-0.0985419999999999,-0.0054399999999999,-0.009562,0.064317
1141,0.13195,0.986355,-0.098453,8.4e-05,0.008121,0.072773
1142,0.131324,0.986441,-0.098426,-0.006003,0.034143,0.069709
1143,0.1308869999999999,0.986496,-0.098453,-0.010404,0.0213159999999999,0.062885
1144,0.130494,0.98656,-0.098336,-0.004457,0.002759,0.066277
1145,0.129941,0.986666,-0.098006,0.0031609999999999,0.002592,0.0685419999999999
1146,0.129301,0.986766,-0.097842,0.000795,0.014698,0.074526
1147,0.128781,0.986802,-0.09817,-0.009503,0.021743,0.072368
1148,0.128462,0.986757,-0.09904,-0.011885,0.017424,0.065883
1149,0.128477,0.98663,-0.10027,-0.009214,0.011493,0.074406
1150,0.1284829999999999,0.986497,-0.101572,-0.0033299999999999,0.008453,0.0805299999999999
1151,0.128347,0.986389,-0.1027849999999999,-0.007513,0.013306,0.0918139999999999
1152,0.12824,0.98627,-0.104043,-0.023596,0.021374,0.093637
1153,0.128206,0.986124,-0.105469,-0.02588,0.012061,0.089172
1154,0.128218,0.986008,-0.106531,-0.038222,-0.003738,0.0478149999999999
1155,0.128403,0.985938,-0.106949,-0.046311,-0.0018989999999999,0.006744
1156,0.128444,0.985968,-0.1066309999999999,-0.042201,0.011545,-0.007917
1157,0.127903,0.986118,-0.1058829999999999,-0.025241,0.020794,0.003665
1158,0.127082,0.986263,-0.10553,-0.022682,0.0172009999999999,0.006775
1159,0.1261509999999999,0.986363,-0.105706,-0.020728,0.012721,0.021508
1160,0.125126,0.986412,-0.1064609999999999,-0.012104,-0.007927,0.031952
1161,0.1242289999999999,0.986418,-0.1074529999999999,0.000618,0.0224469999999999,0.033555
1162,0.123471,0.98638,-0.108667,-0.001324,0.024484,0.056726
1163,0.122886,0.986297,-0.110069,-0.002402,0.010361,0.077538
1164,0.122542,0.986192,-0.1113859999999999,-0.011458,0.016158,0.08006
1165,0.1224799999999999,0.986055,-0.11266,-0.017912,0.018889,0.0862769999999999
1166,0.122709,0.985855,-0.1141549999999999,-0.0153789999999999,0.009247,0.096561
1167,0.1231369999999999,0.985598,-0.1159,-0.014388,0.0070019999999999,0.097513
1168,0.123547,0.985342,-0.117626,-0.010815,0.002558,0.085369
1169,0.1238119999999999,0.985136,-0.119066,0.0007,0.005327,0.056383
1170,0.1239869999999999,0.984927,-0.1206049999999999,0.01795,0.013791,0.047164
1171,0.124118,0.984712,-0.122214,0.03616,0.003722,0.018241
1172,0.124199,0.984475,-0.1240319999999999,0.044639,-0.0142289999999999,0.011911
1173,0.124234,0.984222,-0.125986,0.048266,-0.015411,0.015375
1174,0.1243869999999999,0.983937,-0.128045,0.041567,-0.002339,0.03283
1175,0.124639,0.98362,-0.130215,0.003245,0.016883,0.043423
1176,0.125305,0.983257,-0.132301,-0.039092,0.01424,0.056129
1177,0.126611,0.982736,-0.134903,-0.0640039999999999,-0.003351,0.063294
1178,0.128569,0.981937,-0.138817,-0.081953,-0.019183,0.089027
1179,0.131305,0.980811,-0.144112,-0.0992919999999999,-0.008429,0.112053
1180,0.134922,0.979275,-0.151053,-0.115253,-0.003155,0.110052
1181,0.139671,0.977295,-0.159328,-0.16265,0.032119,0.070369
1182,0.145476,0.975191,-0.166851,-0.146773,0.149474,0.06129
1183,0.152292,0.972872,-0.174147,-0.068231,0.031569,0.020201
1184,0.158802,0.970566,-0.18106,-0.01427,0.016174,0.014647
1185,0.163107,0.96891,-0.1860349999999999,-0.026648,0.085289,0.061752
1186,0.1673619999999999,0.96735,-0.190325,-0.055103,0.105572,0.054125
1187,0.17227,0.965485,-0.195347,-0.06436,0.071243,0.009541
1188,0.176915,0.96393,-0.198846,-0.041524,0.008116,-0.02761
1189,0.180322,0.962821,-0.201143,-0.00358,-0.0566929999999999,-0.051558
1190,0.183492,0.961955,-0.202418,0.0166569999999999,-0.101893,-0.047063
1191,0.187404,0.960951,-0.203596,0.063786,-0.060057,-0.067858
1192,0.191989,0.959905,-0.204261,0.04971,-0.044011,-0.038781
1193,0.1960609999999999,0.959139,-0.203988,0.012924,0.005628,-0.068717
1194,0.198383,0.958946,-0.202646,-0.010593,0.011116,-0.0536559999999999
1195,0.199984,0.959128,-0.2002,-0.044313,0.014032,-0.0293529999999999
1196,0.20273,0.959336,-0.196401,-0.038866,0.002227,0.018468
1197,0.205905,0.959644,-0.1915339999999999,-0.0573759999999999,0.04768,0.071722
1198,0.207652,0.960173,-0.186939,-0.079799,0.118913,0.078571
1199,0.205957,0.961257,-0.1832089999999999,-0.121484,0.184281,0.045376
1200,0.200365,0.9625,-0.182887,-0.103639,0.099695,0.102427
1201,0.194909,0.963151,-0.185336,-0.09176,-0.005937,0.190249
1202,0.193045,0.963536,-0.185283,-0.064566,0.019175,0.1154289999999999
1203,0.193363,0.964218,-0.181367,-0.053913,0.055268,0.074891
1204,0.193082,0.964786,-0.178623,-0.039869,-0.0665309999999999,0.009433
1205,0.190889,0.965323,-0.178076,-0.05147,-0.166541,0.033301
1206,0.186385,0.966278,-0.177667,-0.026504,-0.0856929999999999,0.0966429999999999
1207,0.182084,0.967699,-0.174366,0.009033,0.030257,0.104526
1208,0.180254,0.969076,-0.16852,-0.0282459999999999,0.092783,0.053835
1209,0.180483,0.969909,-0.163402,-0.048449,0.06337,0.057689
1210,0.180706,0.970323,-0.160678,-0.070003,0.035186,0.071307
1211,0.180937,0.970624,-0.158582,-0.092054,0.014269,0.099988
1212,0.180755,0.970884,-0.157192,-0.094452,0.066637,0.096584
1213,0.181103,0.970886,-0.156781,0.005222,0.04007,0.068357
1214,0.181946,0.970695,-0.1569849999999999,0.019333,0.000389,0.058169
1215,0.182898,0.970356,-0.157969,0.014947,0.012783,0.034755
1216,0.184248,0.96985,-0.1595,0.013521,0.0116099999999999,0.022613
1217,0.1857859999999999,0.969272,-0.161223,0.007329,0.005337,0.0153949999999999
1218,0.187104,0.968826,-0.162372,0.018844,-0.0026089999999999,0.031391
1219,0.188079,0.968598,-0.1626109999999999,0.013779,0.0026089999999999,0.061979
1220,0.188694,0.96854,-0.162239,0.003261,0.007122,0.068199
1221,0.188818,0.968605,-0.161704,-0.0203,0.022789,0.075034
1222,0.188846,0.968706,-0.161065,-0.0280649999999999,0.022443,0.078271
1223,0.189114,0.968775,-0.160341,-0.024685,0.0203,0.079515
1224,0.18972,0.968745,-0.159807,-0.026268,0.014974,0.085909
1225,0.190344,0.968693,-0.159375,-0.028891,0.020717,0.088849
1226,0.190911,0.96867,-0.1588369999999999,-0.025246,0.02956,0.074501
1227,0.191414,0.968591,-0.158716,-0.021126,0.0444699999999999,0.07461
1228,0.191799,0.968369,-0.1596,-0.017498,0.031051,0.073235
1229,0.192297,0.968109,-0.160577,-0.014852,0.008041,0.078607
1230,0.192774,0.967914,-0.161179,-0.018168,0.018307,0.073884
1231,0.193175,0.967727,-0.161824,-0.024855,0.021882,0.075307
1232,0.193407,0.967499,-0.162905,-0.0214409999999999,0.026398,0.076403
1233,0.193641,0.967199,-0.1644,-0.018303,0.0167639999999999,0.077592
1234,0.1939779999999999,0.966877,-0.165889,-0.009117,0.0159419999999999,0.073345
1235,0.194243,0.966615,-0.167103,-0.008772,0.023406,0.069569
1236,0.1942569999999999,0.966447,-0.168054,-0.009518,0.016234,0.0734799999999999
1237,0.1938079999999999,0.966386,-0.16892,-0.0132199999999999,0.012587,0.06458
1238,0.193039,0.966418,-0.169618,-0.012619,0.016737,0.0606549999999999
1239,0.192188,0.966424,-0.170547,-0.011981,0.020057,0.061492
1240,0.191593,0.966317,-0.171813,-0.0158729999999999,0.02323,0.068313
1241,0.1912869999999999,0.96605,-0.17365,-0.013049,0.02565,0.066991
1242,0.19111,0.965652,-0.176041,-0.014292,0.028824,0.065598
1243,0.191099,0.965164,-0.178707,-0.015608,0.012451,0.075374
1244,0.1912319999999999,0.964577,-0.1817099999999999,-0.021677,0.002754,0.072686
1245,0.191553,0.963908,-0.184891,-0.041483,0.005177,0.050247
1246,0.192168,0.963332,-0.187239,-0.037078,-0.007979,0.049025
1247,0.192866,0.962706,-0.189727,-0.03889,0.013353,0.031493
1248,0.194242,0.961877,-0.1925089999999999,-0.040036,0.012,0.032918
1249,0.196215,0.960902,-0.195355,-0.03084,0.0414779999999999,0.004941
1250,0.199071,0.959785,-0.19794,0.018397,-0.01876,0.017596
1251,0.201062,0.958884,-0.200282,0.016437,-0.002432,0.022074
1252,0.203206,0.958008,-0.202299,0.012508,0.0031579999999999,0.030119
1253,0.206146,0.957013,-0.204023,-0.00473,-0.007581,0.031004
1254,0.209105,0.956118,-0.205208,-0.017088,-0.001848,0.0409319999999999
1255,0.211701,0.955309,-0.206311,-0.018586,-0.015612,0.041333
1256,0.2144489999999999,0.954491,-0.207255,-0.0347009999999999,-0.016671,0.050212
1257,0.217716,0.953507,-0.208375,-0.0538059999999999,-0.027375,0.037721
1258,0.221828,0.95232,-0.209463,-0.066982,-0.032276,0.011801
1259,0.226351,0.951059,-0.2103539999999999,-0.036913,0.021689,-0.010243
1260,0.2299659999999999,0.949789,-0.212165,-0.011323,0.035914,-0.016335
1261,0.2321619999999999,0.948659,-0.214812,0.0102849999999999,0.057887,-0.016374
1262,0.233879,0.947578,-0.2177,0.056953,0.1003039999999999,-0.032254
1263,0.236065,0.946455,-0.220209,0.060627,0.086885,-0.036337
1264,0.2383219999999999,0.94559,-0.221492,0.063696,0.06416,-0.04041
1265,0.2408969999999999,0.944744,-0.2223119999999999,0.03695,0.005878,-0.058816
1266,0.243412,0.943891,-0.223198,0.021572,0.0064269999999999,-0.05201
1267,0.245106,0.943285,-0.223901,-0.031636,0.0086489999999999,-0.021414
1268,0.245103,0.943035,-0.224958,-0.034791,0.019612,-0.041842
1269,0.2441219999999999,0.943031,-0.226037,-0.025707,0.011818,-0.0429149999999999
1270,0.2423809999999999,0.943222,-0.227111,-0.045649,0.0093379999999999,-0.027894
1271,0.239942,0.943427,-0.228844,-0.043211,0.009134,-0.026161
1272,0.236992,0.944054,-0.22933,-0.062462,0.0142889999999999,0.0075739999999999
1273,0.2335949999999999,0.945274,-0.227785,-0.097151,0.019158,0.019594
1274,0.230183,0.946873,-0.224595,-0.098332,0.046291,0.002045
1275,0.227894,0.948406,-0.2204219999999999,-0.085423,0.012974,-0.031134
1276,0.2260309999999999,0.949476,-0.217718,-0.06711,0.005754,0.026647
1277,0.223137,0.95048,-0.216321,-0.067207,0.010549,0.064496
1278,0.218781,0.952247,-0.212971,-0.065095,0.017953,0.081761
1279,0.215229,0.954346,-0.207117,-0.075474,0.03421,0.07406
1280,0.2138739999999999,0.956045,-0.2005809999999999,-0.0594549999999999,-0.00794,0.044498
1281,0.21341,0.957287,-0.195073,-0.022965,-0.009991,0.013524
1282,0.212315,0.958199,-0.191762,0.020641,-0.008812,0.033346
1283,0.210011,0.959188,-0.189339,0.011562,0.043772,0.042626
1284,0.206459,0.960614,-0.1859839999999999,-0.003975,0.131762,0.050318
1285,0.201663,0.962342,-0.182277,-0.007358,0.146483,0.071361
1286,0.197149,0.964008,-0.17837,-0.033712,0.04562,0.075785
1287,0.194339,0.965283,-0.174516,-0.061694,-0.049786,0.090501
1288,0.192446,0.966322,-0.170827,-0.063448,-0.0609419999999999,0.08991
1289,0.190615,0.96735,-0.167016,-0.029071,-0.034962,0.095269
1290,0.188708,0.968463,-0.16268,0.009489,-0.008685,0.084113
1291,0.186879,0.969529,-0.158381,0.0135909999999999,0.001723,0.083262
1292,0.185275,0.97041,-0.154833,0.002119,0.005863,0.061999
1293,0.183919,0.971123,-0.151948,0.003474,0.00515,0.059114
1294,0.182785,0.971748,-0.149301,0.016769,0.009911,0.071298
1295,0.182419,0.972361,-0.145713,0.016815,-0.010981,0.076377
1296,0.182424,0.973136,-0.1404369999999999,0.002757,-0.018775,0.088069
1297,0.182202,0.973992,-0.134672,-0.002393,-0.004693,0.0919929999999999
1298,0.181766,0.974807,-0.1292599999999999,-0.0141789999999999,0.018189,0.098437
1299,0.181347,0.975483,-0.124671,-0.019177,0.031826,0.107321
1300,0.181122,0.976022,-0.120719,-0.0289149999999999,0.031272,0.105262
1301,0.181372,0.976432,-0.116967,-0.034552,0.024972,0.0987789999999999
1302,0.1817599999999999,0.976753,-0.113632,-0.040708,0.030357,0.090622
1303,0.182173,0.977004,-0.110779,-0.0279519999999999,0.0293589999999999,0.094604
1304,0.182829,0.977183,-0.1080849999999999,-0.011976,0.01444,0.103615
1305,0.183579,0.977336,-0.105393,-0.001862,0.023686,0.1036069999999999
1306,0.184158,0.977502,-0.102814,-0.008545,0.045951,0.101395
1307,0.184779,0.977622,-0.100534,-0.0336259999999999,0.023233,0.108713
1308,0.185642,0.977662,-0.0985299999999999,-0.037143,0.0164169999999999,0.107564
1309,0.186433,0.977702,-0.096617,-0.034425,0.021718,0.105848
1310,0.187063,0.977787,-0.094516,-0.025458,0.003643,0.088916
1311,0.18746,0.977913,-0.092405,-0.025838,0.0109629999999999,0.076948
1312,0.187642,0.978052,-0.090552,-0.015615,0.019141,0.064856
1313,0.187923,0.978123,-0.089196,0.005528,0.0193139999999999,0.057519
1314,0.188582,0.978072,-0.088347,0.011857,0.021348,0.060515
1315,0.1895,0.977951,-0.087724,0.006957,0.008225,0.067491
1316,0.190372,0.977821,-0.087284,-0.007511,0.007928,0.063435
1317,0.190978,0.97775,-0.086755,-0.035567,0.023334,0.057886
1318,0.191395,0.97771,-0.0862769999999999,-0.039494,0.029965,0.064197
1319,0.191663,0.977676,-0.086073,-0.026853,0.015153,0.073088
1320,0.19194,0.977624,-0.086042,-0.033157,0.010077,0.070463
1321,0.191989,0.977648,-0.085659,-0.051272,0.021284,0.080258
1322,0.191685,0.977729,-0.085412,-0.05016,0.020089,0.083612
1323,0.191367,0.977776,-0.085591,-0.043769,0.021217,0.079075
1324,0.191107,0.977803,-0.08587,-0.024924,0.016704,0.066018
1325,0.191011,0.977797,-0.086143,-0.016237,0.013261,0.070197
1326,0.191005,0.977783,-0.086325,-0.013896,0.00972,0.071402
1327,0.190648,0.977862,-0.086219,-0.017079,0.032575,0.077567
1328,0.190048,0.977957,-0.086457,-0.011352,0.026621,0.068559
1329,0.189593,0.977985,-0.087138,-0.0034509999999999,0.014111,0.061763
1330,0.189413,0.977926,-0.088193,0.006769,8.6e-05,0.059201
1331,0.189376,0.977825,-0.089384,0.003083,0.009647,0.049497
1332,0.189299,0.977748,-0.090384,-0.001357,0.023061,0.057746
1333,0.189217,0.977658,-0.091517,-0.002708,0.004947,0.073909
1334,0.189097,0.977581,-0.092581,-0.0072739999999999,0.009205,0.0758419999999999
1335,0.1887579999999999,0.977563,-0.093464,-0.019172,0.027808,0.070759
1336,0.188356,0.977552,-0.094377,-0.026872,0.020403,0.0699019999999999
1337,0.188127,0.977485,-0.095527,-0.018312,0.016763,0.068321
1338,0.188038,0.977359,-0.09698,-0.01157,0.016614,0.068919
1339,0.188016,0.977219,-0.098423,-0.004361,0.012192,0.07021
1340,0.187754,0.977121,-0.099884,-0.005945,0.009345,0.072174
1341,0.187249,0.977074,-0.101275,-0.009011,0.01815,0.062915
1342,0.186774,0.977036,-0.102518,-0.010947,0.020416,0.071116
1343,0.186437,0.976968,-0.103772,-0.006734,0.013755,0.0742309999999999
1344,0.186053,0.976912,-0.104977,-0.010562,0.006883,0.078
1345,0.185538,0.976896,-0.1060339999999999,-0.023535,0.0181139999999999,0.083008
1346,0.184976,0.976885,-0.107108,-0.028421,0.023176,0.078483
1347,0.184608,0.976833,-0.108219,-0.027412,0.026967,0.075611
1348,0.184388,0.976763,-0.109221,-0.00345,0.017103,0.065856
1349,0.183964,0.976735,-0.110176,0.008709,0.010844,0.071556
1350,0.18322,0.976769,-0.1111099999999999,-0.000252,0.012168,0.077709
1351,0.182233,0.976858,-0.111955,-0.017026,0.013331,0.070725
1352,0.181349,0.976927,-0.1127809999999999,-0.025038,0.016496,0.076358
1353,0.180598,0.976945,-0.1138329999999999,-0.018504,0.016158,0.075351
1354,0.179859,0.976962,-0.114849,-0.0135389999999999,0.013211,0.067715
1355,0.179122,0.976987,-0.1157849999999999,0.0078739999999999,0.008929,0.067674
1356,0.178143,0.977074,-0.116558,-0.0026829999999999,0.008003,0.066402
1357,0.176927,0.977219,-0.117194,-0.008379,0.0115959999999999,0.067008
1358,0.175652,0.977369,-0.117865,-0.021813,0.011096,0.058676
1359,0.174516,0.977466,-0.118741,-0.012727,0.015332,0.059507
1360,0.173535,0.977529,-0.119657,-0.0137449999999999,0.015971,0.0541669999999999
1361,0.1728589999999999,0.977524,-0.120671,-0.007194,0.011063,0.045354
1362,0.172391,0.977494,-0.12158,-0.0290199999999999,0.017623,0.052565
1363,0.171631,0.977538,-0.1223,0.007812,0.000184,0.0540779999999999
1364,0.170416,0.977665,-0.122983,-0.015478,0.0128289999999999,0.045911
1365,0.169223,0.977779,-0.123718,-0.01546,0.010365,0.0449829999999999
1366,0.1680859999999999,0.977906,-0.124265,-0.014903,0.011901,0.043424
1367,0.167005,0.97802,-0.12482,-0.012235,0.010124,0.03429
1368,0.1662,0.978071,-0.125494,-0.010896,0.002764,0.032782
1369,0.165597,0.978076,-0.126253,-0.0057,0.000898,0.032228
1370,0.1650859999999999,0.978077,-0.126912,0.006072,0.020092,0.017934
1371,0.164542,0.978082,-0.127572,0.004113,0.009711,0.015954
1372,0.163996,0.978089,-0.128222,-0.0046939999999999,-0.00258,0.0147879999999999
1373,0.163392,0.978103,-0.128885,-0.006242,0.002976,0.016031
1374,0.162821,0.978112,-0.129544,-0.001932,0.005363,0.017544
1375,0.162443,0.978091,-0.130169,0.0001699999999999,0.002972,0.010433
1376,0.162193,0.978066,-0.130671,0.003624,0.001228,0.009929
1377,0.161923,0.978054,-0.131089,0.001178,0.012516,0.013825
1378,0.1615599999999999,0.978048,-0.1315849999999999,-0.003967,0.007609,0.007409
1379,0.160997,0.978096,-0.13192,-0.007112,0.004463,0.009819
1380,0.1603359999999999,0.978178,-0.132117,-0.0134849999999999,0.005099,0.016471
1381,0.15974,0.978267,-0.132177,-0.015468,0.005619,0.02181
1382,0.159188,0.978351,-0.132224,-0.018807,0.0136389999999999,0.02085
1383,0.1586119999999999,0.978425,-0.132364,-0.018796,0.013061,0.02334
1384,0.1580099999999999,0.978481,-0.132674,-0.031789,0.019093,0.019424
1385,0.157492,0.978515,-0.133039,-0.0357269999999999,0.012208,0.019208
1386,0.157094,0.978516,-0.133503,-0.030522,0.009476,0.020069
1387,0.156726,0.978492,-0.1341089999999999,-0.01984,0.00863,0.025024
1388,0.15635,0.978461,-0.134768,-0.009988,0.005593,0.015352
1389,0.155912,0.978474,-0.135184,-0.007231,0.0060079999999999,0.013068
1390,0.155416,0.978523,-0.135401,-0.004049,0.007591,0.0227449999999999
1391,0.1548759999999999,0.978591,-0.135525,-0.00685,0.008896,0.0289579999999999
1392,0.15435,0.978683,-0.13546,-0.022667,0.0064239999999999,0.0315779999999999
1393,0.153938,0.978801,-0.1350819999999999,-0.03373,0.009771,0.028942
1394,0.153572,0.978934,-0.1345299999999999,-0.030479,0.011468,0.029962
1395,0.153254,0.979038,-0.13414,-0.017359,0.0142479999999999,0.029297
1396,0.1529869999999999,0.979115,-0.133879,-0.012911,0.009883,0.033583
1397,0.152768,0.979163,-0.1337819999999999,-0.0117159999999999,0.00895,0.04081
1398,0.152545,0.979198,-0.133777,-0.011493,0.008915,0.040806
1399,0.152282,0.979251,-0.133688,-0.011062,0.0126769999999999,0.037405
1400,0.152159,0.979302,-0.133458,-0.021651,0.012367,0.037648
1401,0.152149,0.979327,-0.1332839999999999,-0.023884,0.013456,0.039809
1402,0.152098,0.979348,-0.133188,-0.025023,0.00965,0.0442139999999999
1403,0.152084,0.979375,-0.133002,-0.020233,0.002573,0.044806
1404,0.152017,0.979429,-0.132682,-0.017144,0.007845,0.050453
1405,0.151976,0.97947,-0.132426,-0.012419,0.016578,0.050761
1406,0.151949,0.979532,-0.131993,-0.020831,0.0148069999999999,0.053746
1407,0.151929,0.979608,-0.131453,-0.031583,0.015356,0.0536639999999999
1408,0.151858,0.979697,-0.130872,-0.032504,0.012414,0.0559659999999999
1409,0.151665,0.979814,-0.13022,-0.0276259999999999,0.0135639999999999,0.055498
1410,0.151412,0.979923,-0.129695,-0.024733,0.013852,0.057811
1411,0.151205,0.98001,-0.129274,-0.026068,0.015244,0.0574659999999999
1412,0.151013,0.980109,-0.128754,-0.039593,0.020853,0.069886
1413,0.150838,0.98022,-0.128115,-0.0401199999999999,0.023412,0.067537
1414,0.1506289999999999,0.980357,-0.127306,-0.049845,0.019017,0.065416
1415,0.150447,0.980484,-0.126533,-0.049647,0.014633,0.078483
1416,0.150351,0.980596,-0.1257849999999999,-0.043509,0.0152539999999999,0.073341
1417,0.150107,0.98075,-0.124868,-0.046835,0.017037,0.0651149999999999
1418,0.1499079999999999,0.980901,-0.123917,-0.047567,0.017908,0.067963
1419,0.149693,0.98106,-0.122921,-0.048908,0.018055,0.065166
1420,0.149419,0.981228,-0.1219099999999999,-0.047368,0.018864,0.064354
1421,0.149009,0.981432,-0.120763,-0.044059,0.02159,0.06397
1422,0.148517,0.981643,-0.119646,-0.0513179999999999,0.0223699999999999,0.065599
1423,0.148092,0.981811,-0.11879,-0.044668,0.021103,0.065552
1424,0.147639,0.981957,-0.118142,-0.046336,0.021644,0.066216
1425,0.1472109999999999,0.982074,-0.1177069999999999,-0.049189,0.02078,0.065171
1426,0.146874,0.982154,-0.1174559999999999,-0.050225,0.022103,0.06231
1427,0.146575,0.982218,-0.117293,-0.047256,0.019903,0.0610649999999999
1428,0.146276,0.982256,-0.117353,-0.044027,0.02017,0.06059
1429,0.1460779999999999,0.982248,-0.1176619999999999,-0.03266,0.020804,0.062822
1430,0.145764,0.98222,-0.118281,-0.028698,0.0052369999999999,0.063273
1431,0.1454359999999999,0.982188,-0.118948,-0.030706,0.011647,0.06185
1432,0.1452099999999999,0.982163,-0.119431,-0.030861,0.0252979999999999,0.072877
1433,0.144956,0.982133,-0.119993,-0.032667,0.022949,0.069899
1434,0.144753,0.982083,-0.120639,-0.03489,0.0167569999999999,0.065494
1435,0.144535,0.982003,-0.121553,-0.031468,0.028572,0.074419
1436,0.144396,0.981852,-0.122931,-0.025988,0.0271819999999999,0.076361
1437,0.144432,0.981634,-0.124617,-0.0254129999999999,0.0121409999999999,0.074934
1438,0.144654,0.981336,-0.126689,-0.024598,0.015216,0.071925
1439,0.145067,0.980955,-0.12914,-0.0145889999999999,0.011461,0.068868
1440,0.145705,0.980482,-0.131983,-0.013686,0.011736,0.068782
1441,0.146392,0.979972,-0.134979,-0.004866,0.010614,0.066207
1442,0.1471039999999999,0.979423,-0.138154,0.005758,0.012719,0.070969
1443,0.147963,0.978802,-0.141594,0.00197,0.014378,0.077247
1444,0.148753,0.9782,-0.144886,-0.009562,0.008464,0.07993
1445,0.149438,0.977609,-0.148135,-0.020959,0.001258,0.088946
1446,0.150272,0.976935,-0.151691,-0.024066,0.00129,0.088535
1447,0.151518,0.976137,-0.155542,-0.0208719999999999,0.010985,0.079859
1448,0.152981,0.97523,-0.159745,-0.016522,0.029577,0.077424
1449,0.154795,0.974149,-0.164521,-0.011912,0.018267,0.099061
1450,0.157103,0.972872,-0.169803,-0.0103439999999999,-0.002963,0.108142
1451,0.1595059999999999,0.971549,-0.175058,-0.016287,-0.0137849999999999,0.115641
1452,0.162077,0.970156,-0.180342,-0.030333,-0.029131,0.120619
1453,0.165288,0.968637,-0.185518,-0.0523419999999999,-0.035822,0.1166089999999999
1454,0.169351,0.966986,-0.190404,-0.064813,-0.031744,0.096104
1455,0.1741619999999999,0.965255,-0.194797,-0.073607,0.020631,0.072253
1456,0.179056,0.963602,-0.198505,-0.028574,0.010671,0.06168
1457,0.183646,0.962051,-0.20181,-0.016684,0.049317,0.042569
1458,0.18816,0.960496,-0.205033,-0.020572,0.084518,0.031723
1459,0.1915059999999999,0.959055,-0.2086469999999999,-0.027841,0.10285,0.037077
1460,0.193437,0.957876,-0.212252,-0.029024,0.092692,0.034518
1461,0.194514,0.956891,-0.215679,-0.037485,0.09331,0.038891
1462,0.195346,0.956002,-0.218848,-0.055393,0.0758279999999999,0.027533
1463,0.1957559999999999,0.955233,-0.221819,-0.0538649999999999,0.0391209999999999,0.027911
1464,0.195788,0.95448,-0.22501,-0.040972,0.021366,0.034947
1465,0.195842,0.953703,-0.228235,-0.036174,0.0067769999999999,0.040475
1466,0.195717,0.953014,-0.2311969999999999,-0.035683,-0.005367,0.051647
1467,0.194914,0.952536,-0.233832,-0.040831,0.0056549999999999,0.068869
1468,0.193866,0.952246,-0.235877,-0.056598,0.012705,0.07476
1469,0.192891,0.952069,-0.237388,-0.0631,0.0292699999999999,0.074028
1470,0.192098,0.951917,-0.238636,-0.064718,0.0395839999999999,0.066166
1471,0.191247,0.951805,-0.2397639999999999,-0.066522,0.052864,0.073733
1472,0.19016,0.951735,-0.240903,-0.054388,0.05771,0.0835549999999999
1473,0.188815,0.95174,-0.241941,-0.048068,0.05412,0.084608
1474,0.187366,0.951799,-0.242833,-0.049747,0.04637,0.08582
1475,0.185998,0.951881,-0.243559,-0.0544669999999999,0.037804,0.084273
1476,0.1847339999999999,0.952036,-0.243917,-0.059611,0.0286459999999999,0.080297
1477,0.183238,0.952224,-0.24431,-0.062541,0.030014,0.070344
1478,0.181507,0.952491,-0.2445639999999999,-0.062732,0.0239039999999999,0.076107
1479,0.179551,0.952822,-0.244718,-0.055573,0.022352,0.064649
1480,0.177491,0.953288,-0.2444059999999999,-0.051576,0.018178,0.062613
1481,0.175618,0.953786,-0.243812,-0.047506,0.012614,0.049918
1482,0.1743019999999999,0.954254,-0.242925,-0.062211,0.052689,0.043599
1483,0.174521,0.954618,-0.241335,-0.020987,-0.039609,0.032091
1484,0.174197,0.955046,-0.239867,-0.016772,-0.004897,0.011138
1485,0.1738589999999999,0.955391,-0.238738,-0.0126959999999999,-0.002128,-0.0014199999999999
1486,0.173568,0.955693,-0.23774,-0.008087,0.00053,-0.012291
1487,0.1732119999999999,0.955953,-0.236952,-0.012933,-0.005132,-0.009615
1488,0.173033,0.956182,-0.236159,-0.0127549999999999,-0.005361,-0.010408
1489,0.173402,0.956269,-0.235535,-0.009736,0.00682,-0.010772
1490,0.17443,0.956172,-0.235168,-0.006919,-0.004817,-0.005997
1491,0.175582,0.956121,-0.2345179999999999,-0.0026079999999999,-0.0044909999999999,0.002813
1492,0.176957,0.956203,-0.233148,-0.000123,-0.001536,0.009027
1493,0.178469,0.956409,-0.231142,-0.006548,0.005139,-0.003645
1494,0.179766,0.956818,-0.228427,-0.012896,0.011947,-0.006009
1495,0.180893,0.957242,-0.225748,-0.020462,0.022403,0.003229
1496,0.181983,0.957561,-0.2235059999999999,-0.0239169999999999,0.023015,0.016444
1497,0.182748,0.957837,-0.221691,-0.042673,0.0265079999999999,0.033122
1498,0.183135,0.958268,-0.219496,-0.054351,0.0220479999999999,0.040282
1499,0.18344,0.958848,-0.216687,-0.0551899999999999,0.0163099999999999,0.044598
1500,0.184031,0.959401,-0.21372,-0.056895,0.018108,0.0434769999999999
1501,0.1846549999999999,0.959969,-0.21061,-0.054452,0.019676,0.048348
1502,0.185029,0.960558,-0.2075739999999999,-0.0512549999999999,0.027007,0.048562
1503,0.185303,0.961083,-0.20488,-0.048676,0.030067,0.0390779999999999
1504,0.185265,0.961636,-0.202301,-0.046776,0.0291319999999999,0.044235
1505,0.184657,0.962357,-0.199409,-0.0530659999999999,0.004089,0.066032
1506,0.184323,0.963184,-0.195692,-0.045788,0.001767,0.041395
1507,0.184075,0.964054,-0.191595,-0.054589,0.030605,0.029363
1508,0.18402,0.964864,-0.187526,-0.04428,0.031138,0.027385
1509,0.18389,0.965657,-0.183535,-0.036231,0.020915,0.045595
1510,0.183596,0.96647,-0.179504,-0.044191,0.018775,0.041091
1511,0.183333,0.967238,-0.175591,-0.045012,0.02147,0.036492
1512,0.183221,0.967882,-0.172129,-0.045633,0.029494,0.0510199999999999
1513,0.1834859999999999,0.96835,-0.169189,-0.044372,0.040638,0.056838
1514,0.183906,0.968711,-0.166642,-0.0449139999999999,0.042611,0.067033
1515,0.183989,0.969032,-0.164675,-0.052046,0.060174,0.073458
1516,0.183807,0.96917,-0.1640609999999999,-0.0740659999999999,0.070533,0.053725
1517,0.183314,0.969056,-0.1652829999999999,-0.078181,0.101562,0.048935
1518,0.182812,0.968682,-0.168009,-0.06387,0.066383,0.019769
1519,0.182317,0.968172,-0.17145,-0.024984,0.011518,0.028292
1520,0.182389,0.967555,-0.174823,-0.005051,-0.013469,0.040226
1521,0.183123,0.966928,-0.177503,0.001478,-0.00181,0.0262279999999999
1522,0.184174,0.966322,-0.179701,-0.009736,-0.000242,0.003935
1523,0.185137,0.965725,-0.18191,-0.019472,-0.0066489999999999,0.018596
1524,0.185961,0.96511,-0.184316,-0.02669,-0.011253,0.055684
1525,0.186641,0.964537,-0.186616,-0.049892,-0.00865,0.05301
1526,0.1872349999999999,0.96402,-0.188683,-0.054514,0.0127409999999999,0.043907
1527,0.18789,0.963443,-0.190965,-0.041177,0.030607,0.0345629999999999
1528,0.188769,0.962721,-0.193718,-0.032214,0.019029,0.0315779999999999
1529,0.189958,0.96183,-0.196956,-0.004716,0.017449,0.026271
1530,0.191548,0.960883,-0.200013,0.00262,0.0217219999999999,0.0252389999999999
1531,0.193478,0.959957,-0.202585,0.003879,0.022098,0.030161
1532,0.195265,0.959175,-0.204565,-0.0134569999999999,0.006508,0.0335139999999999
1533,0.196603,0.958617,-0.205898,-0.038232,0.0147419999999999,0.044887
1534,0.197742,0.958164,-0.206914,-0.043155,0.0206419999999999,0.045629
1535,0.198945,0.957677,-0.208012,-0.027619,0.0217389999999999,0.040836
1536,0.200173,0.957113,-0.209426,-0.0243919999999999,0.017664,0.051116
1537,0.201477,0.956586,-0.210581,-0.018021,0.007556,0.0549259999999999
1538,0.202792,0.956143,-0.211332,-0.013537,0.00893,0.04878
1539,0.204055,0.955695,-0.212136,-0.017196,0.015786,0.041222
1540,0.2050929999999999,0.955235,-0.213204,-0.024291,0.024547,0.044411
1541,0.206156,0.954751,-0.2143469999999999,-0.034082,0.0269079999999999,0.044898
1542,0.207457,0.954174,-0.215657,-0.033934,0.0218849999999999,0.053334
1543,0.208948,0.953502,-0.217182,-0.034906,0.021214,0.0519289999999999
1544,0.210366,0.952856,-0.218644,-0.0346459999999999,0.0522399999999999,0.048097
1545,0.211553,0.952243,-0.220167,-0.0290279999999999,0.053998,0.0531289999999999
1546,0.212557,0.951596,-0.221989,-0.01958,0.042972,0.064046
1547,0.213192,0.95098,-0.224012,-0.030117,0.029687,0.067823
1548,0.2135119999999999,0.95044,-0.225987,-0.043087,0.0309139999999999,0.06696
1549,0.213463,0.949964,-0.228026,-0.041604,0.039339,0.060958
1550,0.2130699999999999,0.949521,-0.230231,-0.04063,0.037174,0.068412
1551,0.212497,0.949097,-0.232498,-0.039889,0.032104,0.067947
1552,0.211655,0.948828,-0.234355,-0.042924,0.020547,0.060572
1553,0.2106469999999999,0.948685,-0.235837,-0.0384829999999999,0.037002,0.054318
1554,0.20936,0.948678,-0.237011,-0.03248,0.039817,0.05006
1555,0.2076579999999999,0.948828,-0.237905,-0.028597,0.041223,0.0497639999999999
1556,0.205632,0.949094,-0.238603,-0.031086,0.031924,0.051729
1557,0.203307,0.949487,-0.239031,-0.031813,0.022345,0.05147
1558,0.200851,0.949964,-0.2392139999999999,-0.047684,0.012439,0.056398
1559,0.198426,0.950425,-0.239404,-0.056458,0.025573,0.0539799999999999
1560,0.196194,0.950839,-0.2396,-0.054562,0.026151,0.048881
1561,0.194231,0.951205,-0.2397449999999999,-0.02878,0.024655,0.054839
1562,0.192643,0.951437,-0.240107,-0.012482,0.014368,0.0622809999999999
1563,0.191468,0.951621,-0.2403179999999999,-0.020325,0.011956,0.063896
1564,0.190702,0.951784,-0.240284,-0.034619,0.0153789999999999,0.051914
1565,0.19008,0.951928,-0.240203,-0.044344,0.025428,0.050781
1566,0.1893109999999999,0.952063,-0.240278,-0.043071,0.021616,0.047574
1567,0.188403,0.952263,-0.2402,-0.039858,0.015358,0.04269
1568,0.187526,0.952444,-0.240168,-0.0328629999999999,0.01565,0.050593
1569,0.186896,0.952565,-0.240179,-0.0259769999999999,0.015285,0.063269
1570,0.186615,0.952724,-0.2397639999999999,-0.03598,0.018604,0.058124
1571,0.186584,0.952943,-0.238918,-0.042252,0.022643,0.048809
1572,0.186676,0.953153,-0.238008,-0.041855,0.0280029999999999,0.045457
1573,0.186831,0.953349,-0.2370989999999999,-0.044574,0.029088,0.042916
1574,0.187047,0.953505,-0.2363,-0.042836,0.020464,0.0398279999999999
1575,0.187331,0.953593,-0.2357199999999999,-0.0406329999999999,0.020635,0.043504
1576,0.1876799999999999,0.95374,-0.234848,-0.0415769999999999,0.019436,0.040558
1577,0.187978,0.954018,-0.233473,-0.0334519999999999,0.029075,0.042678
1578,0.1884559999999999,0.954312,-0.231881,-0.03393,0.028781,0.041086
1579,0.18897,0.954624,-0.230174,-0.0356649999999999,0.03204,0.042842
1580,0.189569,0.954925,-0.228426,-0.048822,0.024705,0.045595
1581,0.190188,0.955266,-0.2264789999999999,-0.049624,0.021907,0.041863
1582,0.190742,0.955628,-0.224476,-0.0505899999999999,0.023483,0.040607
1583,0.191228,0.956014,-0.222408,-0.037114,0.026835,0.04948
1584,0.191727,0.956457,-0.2200619999999999,-0.03981,0.014368,0.049774
1585,0.191999,0.956933,-0.217743,-0.035841,0.0399389999999999,0.025848
1586,0.19227,0.957376,-0.215544,-0.028925,0.041495,0.039458
1587,0.192355,0.957783,-0.213652,-0.027041,0.031124,0.04518
1588,0.191916,0.958214,-0.212111,-0.023428,0.060173,0.047163
1589,0.191157,0.95873,-0.210459,-0.023234,0.057628,0.054957
1590,0.1900089999999999,0.95944,-0.208247,-0.03498,0.056688,0.058863
1591,0.188028,0.960352,-0.205831,-0.052087,0.067969,0.054937
1592,0.185138,0.961349,-0.203786,-0.055819,0.053452,0.060521
1593,0.179955,0.962672,-0.202177,-0.068474,0.06487,0.063719
1594,0.174642,0.963924,-0.200865,-0.068258,0.053013,0.079756
1595,0.170092,0.965089,-0.199169,-0.068346,0.03546,0.075543
1596,0.166328,0.966268,-0.196618,-0.078635,0.010783,0.063317
1597,0.162715,0.967439,-0.19386,-0.036754,0.002745,0.110089
1598,0.159372,0.968554,-0.191048,-0.018045,-0.0408959999999999,0.116768
1599,0.157267,0.969612,-0.187391,-0.000757,-0.080544,0.121885
1600,0.156585,0.970683,-0.182349,-0.000793,0.001348,0.097251
1601,0.156103,0.971841,-0.176499,0.00889,0.029517,0.10228
1602,0.1552849999999999,0.972926,-0.171166,0.003621,0.05956,0.093193
1603,0.154107,0.973747,-0.167523,-0.0129629999999999,0.026284,0.108761
1604,0.152777,0.974385,-0.16501,-0.019263,-0.041631,0.113344
1605,0.151282,0.975035,-0.1625309999999999,-0.024679,-0.009687,0.110438
1606,0.150678,0.97568,-0.159184,-0.024229,-0.012118,0.106083
1607,0.150764,0.976331,-0.1550609999999999,-0.014854,0.0156889999999999,0.105516
1608,0.1508779999999999,0.976934,-0.1511,-0.019911,0.025919,0.092704
1609,0.151042,0.977501,-0.14722,-0.019908,0.0123209999999999,0.098041
1610,0.151132,0.978095,-0.143129,-0.024453,0.011163,0.080568
1611,0.150857,0.978594,-0.13997,-0.020791,0.032621,0.084779
1612,0.150365,0.979015,-0.137535,-0.023076,0.019413,0.100532
1613,0.150397,0.979372,-0.134931,-0.042395,0.021421,0.107618
1614,0.150759,0.979647,-0.13251,-0.075335,0.048048,0.116916
1615,0.151015,0.979849,-0.130712,-0.088149,0.0926,0.099675
1616,0.150673,0.979943,-0.130401,-0.096977,0.0588299999999999,0.11772
1617,0.150259,0.979832,-0.131706,-0.096105,0.02,0.1065599999999999
1618,0.150127,0.979635,-0.133313,-0.0760919999999999,0.009272,0.092557
1619,0.150832,0.97934,-0.134677,-0.0297839999999999,0.000229,0.084979
1620,0.152469,0.978949,-0.135676,-0.005252,-0.002768,0.072322
1621,0.154113,0.978589,-0.136409,0.007112,0.000247,0.080363
1622,0.155133,0.978326,-0.137141,0.01102,0.0104739999999999,0.077861
1623,0.155791,0.97814,-0.137713,0.00847,0.017145,0.0718559999999999
1624,0.156563,0.977924,-0.138376,0.0123209999999999,0.006512,0.074533
1625,0.157581,0.977648,-0.139168,0.023556,0.015989,0.067284
1626,0.158875,0.977318,-0.140015,0.024307,0.018914,0.064987
1627,0.160182,0.976972,-0.1409359999999999,0.013829,0.014606,0.0817929999999999
1628,0.161356,0.976653,-0.141802,-0.005762,0.001679,0.079607
1629,0.162381,0.976353,-0.142694,-0.005414,0.006633,0.078745
1630,0.16353,0.976015,-0.14369,0.0086959999999999,0.009733,0.07762
1631,0.164949,0.975628,-0.144694,0.029188,0.008686,0.074076
1632,0.166473,0.975274,-0.14533,0.04805,0.002967,0.066671
1633,0.167935,0.974971,-0.1456829999999999,0.04903,0.0130509999999999,0.06237
1634,0.1691359999999999,0.974668,-0.146321,0.0387189999999999,0.025088,0.062535
1635,0.170149,0.974389,-0.147002,0.013475,0.019385,0.065428
1636,0.171042,0.97414,-0.147615,0.0067069999999999,0.012218,0.064958
1637,0.171744,0.973925,-0.148215,0.01098,0.0081,0.060096
1638,0.172314,0.973743,-0.14875,0.023777,0.0106319999999999,0.0554429999999999
1639,0.172777,0.973599,-0.1491559999999999,0.019667,0.00452,0.052583
1640,0.173309,0.973438,-0.14959,0.023133,0.0052299999999999,0.054802
1641,0.173925,0.973273,-0.149947,0.0308779999999999,0.019464,0.044601
1642,0.174879,0.973047,-0.150307,0.039187,0.007514,0.039925
1643,0.175571,0.972875,-0.150614,0.028607,0.000957,0.043009
1644,0.175782,0.972795,-0.150884,0.0273279999999999,0.003371,0.045843
1645,0.175621,0.972803,-0.151018,0.018196,0.00112,0.040239
1646,0.175777,0.97279,-0.150919,0.01418,0.0114019999999999,0.027155
1647,0.176054,0.972785,-0.1506289999999999,0.0129259999999999,0.009576,0.039927
1648,0.176224,0.972778,-0.150476,0.017623,0.015106,0.029046
1649,0.1761309999999999,0.972803,-0.150427,0.00731,0.0133879999999999,0.024237
1650,0.176044,0.972796,-0.150568,0.010022,0.005124,0.030649
1651,0.176139,0.972765,-0.150662,0.020013,0.005568,0.028118
1652,0.176308,0.972757,-0.150516,0.026055,0.012641,0.027302
1653,0.176365,0.972791,-0.150227,0.0193139999999999,0.013675,0.028431
1654,0.176327,0.97284,-0.149954,0.010776,0.008331,0.03356
1655,0.1762369999999999,0.97291,-0.1496029999999999,0.009341,0.0104879999999999,0.036291
1656,0.176087,0.97301,-0.1491289999999999,0.01065,0.01048,0.0363519999999999
1657,0.175913,0.973124,-0.148593,0.005392,0.004934,0.03583
1658,0.17565,0.973272,-0.147929,-0.001181,0.010477,0.037715
1659,0.175196,0.973466,-0.147196,-0.003,0.012054,0.044459
1660,0.174727,0.97366,-0.1464619999999999,-0.001326,0.008762,0.049767
1661,0.174267,0.973879,-0.145553,-0.002087,0.00987,0.046615
1662,0.173792,0.974114,-0.144544,-0.001978,0.012626,0.043866
1663,0.173281,0.974349,-0.143571,0.003019,0.00905,0.045853
1664,0.172777,0.974588,-0.142551,0.006377,0.008231,0.0451079999999999
1665,0.172257,0.97485,-0.1413849999999999,0.002456,0.012135,0.046918
1666,0.171704,0.975116,-0.140217,0.002887,0.012159,0.048405
1667,0.171202,0.975387,-0.13894,-0.005522,0.008546,0.051736
1668,0.170697,0.975665,-0.137604,-0.002255,0.010053,0.054352
1669,0.170021,0.975981,-0.136189,-0.000541,0.014299,0.05576
1670,0.1693319999999999,0.976292,-0.134811,0.005839,0.008159,0.059341
1671,0.168706,0.976571,-0.133568,0.012065,0.001594,0.058602
1672,0.167763,0.976928,-0.132139,0.016243,-0.001266,0.050413
1673,0.16719,0.97723,-0.130623,0.011003,0.010029,0.052986
1674,0.1668859999999999,0.977494,-0.129027,0.00891,0.008986,0.056837
1675,0.166572,0.977736,-0.127592,0.003182,0.0076,0.057462
1676,0.16612,0.977989,-0.126239,-0.0153479999999999,0.011178,0.071063
1677,0.165315,0.978267,-0.125129,-0.003206,0.016453,0.069526
1678,0.165304,0.978448,-0.123723,0.016413,0.003776,0.068989
1679,0.165184,0.97867,-0.122117,0.01577,0.008192,0.072373
1680,0.165118,0.978897,-0.120374,0.006207,0.012513,0.076887
1681,0.164655,0.979207,-0.118469,0.015597,-0.011281,0.090377
1682,0.163732,0.979568,-0.11675,-0.026647,0.0334319999999999,0.09226
1683,0.163695,0.97979,-0.114927,-0.010878,0.006324,0.090238
1684,0.163606,0.980045,-0.112866,-0.0088519999999999,0.011441,0.089626
1685,0.16289,0.980418,-0.1106359999999999,0.008405,-0.0024519999999999,0.090724
1686,0.162553,0.980704,-0.108574,-0.015123,0.0196159999999999,0.094231
1687,0.162453,0.980945,-0.106531,-0.016854,0.014203,0.090113
1688,0.16217,0.981196,-0.104639,-0.017974,0.006781,0.096307
1689,0.161879,0.981448,-0.1027039999999999,-0.018325,0.002424,0.1013309999999999
1690,0.161649,0.981689,-0.100742,-0.036222,0.014252,0.10387
1691,0.160605,0.982071,-0.098669,-0.0444699999999999,0.028183,0.104543
1692,0.160218,0.98232,-0.096797,-0.041093,0.03393,0.091365
1693,0.159801,0.982573,-0.0949059999999999,-0.029873,0.004945,0.09724
1694,0.159394,0.982812,-0.093097,-0.035004,0.004996,0.095996
1695,0.158925,0.983076,-0.091087,-0.057439,0.028413,0.095177
1696,0.15845,0.983353,-0.088898,-0.043002,0.011108,0.110062
1697,0.1572859999999999,0.983743,-0.086628,-0.059325,0.022498,0.1029089999999999
1698,0.156739,0.984035,-0.084266,-0.040223,0.013188,0.086189
1699,0.155961,0.984367,-0.081791,-0.032563,0.015343,0.090503
1700,0.155106,0.984713,-0.0792139999999999,-0.031113,0.015912,0.093374
1701,0.153518,0.985185,-0.076394,-0.050705,0.022399,0.0995409999999999
1702,0.152471,0.985545,-0.073806,-0.037602,0.014761,0.096679
1703,0.151785,0.985811,-0.071629,-0.034613,0.011244,0.094044
1704,0.151402,0.985989,-0.069969,-0.0273939999999999,0.0238379999999999,0.073326
1705,0.151358,0.986074,-0.06886,-0.011526,0.0209759999999999,0.066449
1706,0.151531,0.986096,-0.068157,-0.008754,0.006656,0.067302
1707,0.151571,0.986152,-0.06725,-0.013433,0.0076989999999999,0.076908
1708,0.1515109999999999,0.986237,-0.066122,-0.021308,0.003021,0.083959
1709,0.151591,0.986289,-0.0651549999999999,-0.034358,0.014138,0.079026
1710,0.151767,0.986296,-0.064636,-0.025287,0.032655,0.073715
1711,0.1519589999999999,0.986272,-0.064561,-0.017574,0.002361,0.084749
1712,0.151738,0.986312,-0.06446,-0.032476,0.016755,0.0926429999999999
1713,0.151526,0.986373,-0.064021,-0.031318,0.041733,0.107509
1714,0.150998,0.986474,-0.063718,-0.05206,0.044563,0.106565
1715,0.150592,0.986495,-0.064344,-0.055575,0.033463,0.093336
1716,0.150604,0.98637,-0.066215,-0.0445399999999999,0.035084,0.09629
1717,0.1507079999999999,0.986177,-0.0687919999999999,-0.0081,0.047606,0.083044
1718,0.150517,0.986022,-0.071388,-0.001057,-0.014266,0.059349
1719,0.150083,0.985891,-0.074062,-0.004438,-0.022177,0.0714679999999999
1720,0.1496299999999999,0.985751,-0.076805,-0.009661,-0.0202509999999999,0.078285
1721,0.149254,0.985608,-0.079331,-0.018609,-0.0137139999999999,0.0740059999999999
1722,0.149135,0.985455,-0.081424,-0.0134539999999999,-0.003979,0.076038
1723,0.149394,0.985309,-0.0827059999999999,-0.008555,0.008924,0.080585
1724,0.1497359999999999,0.985154,-0.0839159999999999,-0.02144,0.00917,0.1050339999999999
1725,0.149693,0.98508,-0.084861,-0.033466,0.0097019999999999,0.1194829999999999
1726,0.149383,0.985081,-0.085388,-0.041656,0.020183,0.125625
1727,0.149065,0.985082,-0.08594,-0.045153,0.022517,0.094348
1728,0.149055,0.98497,-0.087226,-0.0374829999999999,0.027405,0.08956
1729,0.149318,0.984753,-0.089208,-0.028942,0.027683,0.090505
1730,0.149187,0.984621,-0.0908679999999999,-0.010424,-0.006182,0.0899679999999999
1731,0.148797,0.984589,-0.091848,-0.018594,-0.0003819999999999,0.090917
1732,0.148128,0.98462,-0.092592,-0.035564,0.017852,0.096804
1733,0.147509,0.984598,-0.093809,-0.022951,0.024756,0.081923
1734,0.1471039999999999,0.98448,-0.095672,-0.011667,0.033205,0.075485
1735,0.147086,0.984281,-0.097726,-0.0040659999999999,0.022525,0.0832909999999999
1736,0.147214,0.984041,-0.099923,-0.017956,0.004927,0.08735
1737,0.147038,0.983897,-0.10159,-0.039372,-0.00033,0.097974
1738,0.146669,0.983844,-0.10263,-0.048219,0.026242,0.099121
1739,0.146309,0.983769,-0.103854,-0.039757,0.034236,0.08095
1740,0.145954,0.983658,-0.105397,-0.040424,0.028549,0.079426
1741,0.145558,0.983543,-0.106999,-0.026494,0.006859,0.083012
1742,0.145414,0.983387,-0.108619,-0.025907,0.005199,0.083091
1743,0.145163,0.983284,-0.109878,-0.031027,0.010109,0.086746
1744,0.144838,0.983192,-0.111126,-0.0246289999999999,0.025109,0.08482
1745,0.144398,0.983094,-0.112552,-0.0225259999999999,0.0279069999999999,0.077395
1746,0.144147,0.982944,-0.114175,-0.026349,0.0165979999999999,0.075082
1747,0.144154,0.98274,-0.1159099999999999,-0.024403,0.009264,0.075932
1748,0.144146,0.98255,-0.117519,-0.027249,0.006784,0.07748
1749,0.144031,0.982409,-0.118833,-0.030445,0.0110599999999999,0.0824559999999999
1750,0.14379,0.982321,-0.11985,-0.031638,0.016886,0.086769
1751,0.143514,0.982245,-0.120803,-0.029699,0.01745,0.082137
1752,0.1433289999999999,0.982153,-0.121764,-0.037433,0.020273,0.076155
1753,0.1433029999999999,0.982047,-0.122647,-0.027443,0.011026,0.082196
1754,0.143099,0.981963,-0.123553,-0.028719,0.015581,0.077563
1755,0.142804,0.981927,-0.124181,-0.0261959999999999,0.012183,0.07314
1756,0.1424609999999999,0.981929,-0.1245579999999999,-0.0255789999999999,0.008855,0.071412
1757,0.142221,0.981911,-0.124972,-0.028543,0.02729,0.0758539999999999
1758,0.1428019999999999,0.981759,-0.125502,-0.013499,0.006614,0.075164
1759,0.142542,0.981733,-0.126003,-0.03567,0.018634,0.069775
1760,0.142184,0.98172,-0.1265069999999999,-0.024645,0.007141,0.069622
1761,0.141998,0.981673,-0.12708,-0.022659,0.00464,0.072133
1762,0.1419349999999999,0.981631,-0.127474,-0.014417,0.0131659999999999,0.063966
1763,0.142206,0.981529,-0.12795,0.003393,0.008522,0.059652
1764,0.143305,0.981329,-0.128263,0.002294,0.008722,0.0599639999999999
1765,0.143485,0.981232,-0.128806,-0.008933,0.015381,0.054923
1766,0.143747,0.981132,-0.129271,0.00141,0.011009,0.05142
1767,0.144196,0.98099,-0.12985,-0.001023,0.00517,0.054258
1768,0.145509,0.980731,-0.130339,-0.010423,0.0137759999999999,0.050199
1769,0.14635,0.980577,-0.130563,0.010373,-0.005082,0.055291
1770,0.146671,0.980467,-0.131025,0.000393,0.014253,0.049405
1771,0.14718,0.980332,-0.131466,-0.006082,0.01712,0.0554929999999999
1772,0.14784,0.98017,-0.13193,-0.011502,0.012033,0.053576
1773,0.148777,0.979965,-0.132397,-0.016499,0.025619,0.055645
1774,0.150472,0.97967,-0.132665,0.005122,-0.012294,0.064107
1775,0.151076,0.979546,-0.132892,-0.007323,0.012107,0.054049
1776,0.1514599999999999,0.97947,-0.13302,0.003081,0.0099099999999999,0.048944
1777,0.151797,0.979401,-0.133145,0.000242,0.011612,0.05296
1778,0.152238,0.979362,-0.132925,-0.008745,0.008034,0.059851
1779,0.152455,0.979411,-0.132313,-0.018453,0.010243,0.053394
1780,0.152547,0.979502,-0.131539,-0.021138,0.012365,0.056496
1781,0.152569,0.97961,-0.1307019999999999,-0.020107,0.00919,0.0529279999999999
1782,0.1524579999999999,0.979742,-0.12984,-0.009956,0.0134669999999999,0.048083
1783,0.152312,0.979852,-0.129182,-0.026305,0.052176,0.0454269999999999
1784,0.153626,0.979742,-0.128459,0.019744,-0.011434,0.034526
1785,0.1539319999999999,0.979738,-0.128117,0.005507,0.012785,0.035542
1786,0.1539859999999999,0.979744,-0.1280109999999999,0.009436,0.0270459999999999,0.039189
1787,0.154292,0.979673,-0.128188,0.000295,0.026766,0.041731
1788,0.154863,0.979516,-0.128691,-0.011553,0.012641,0.042921
1789,0.15564,0.979257,-0.129723,-0.033905,0.032737,0.042565
1790,0.157889,0.978745,-0.130863,0.011849,-0.025391,0.047138
1791,0.1593109999999999,0.978357,-0.1320309999999999,-0.001932,0.003043,0.03825
1792,0.160523,0.978046,-0.132866,-0.000794,0.005383,0.043495
1793,0.161601,0.977762,-0.133652,-0.010142,0.008856,0.050324
1794,0.162529,0.977517,-0.134319,-0.021308,0.008827,0.0523789999999999
1795,0.163379,0.977292,-0.134922,-0.024936,0.0077239999999999,0.0523559999999999
1796,0.164314,0.977072,-0.135374,-0.022591,0.008295,0.060759
1797,0.165423,0.976844,-0.135664,-0.0236539999999999,0.024331,0.063536
1798,0.166388,0.976622,-0.136081,-0.0263879999999999,0.0296649999999999,0.061313
1799,0.1670859999999999,0.976428,-0.136617,-0.03078,0.0290649999999999,0.0635429999999999
1800,0.167645,0.976212,-0.137474,-0.031094,0.010742,0.063743
1801,0.168291,0.975976,-0.138355,-0.0307029999999999,0.00196,0.06757
1802,0.169201,0.975727,-0.139005,-0.025128,0.017636,0.064252
1803,0.170176,0.975489,-0.139479,-0.024271,0.023671,0.063902
1804,0.171051,0.975256,-0.140041,-0.024781,0.021952,0.063823
1805,0.171751,0.975051,-0.1406089999999999,-0.026213,0.009949,0.0572649999999999
1806,0.172401,0.974844,-0.141248,-0.0256269999999999,0.01185,0.058591
1807,0.1731319999999999,0.974602,-0.142025,-0.019766,0.015297,0.0586659999999999
