,gravity.x,gravity.y,gravity.z,userAcceleration.x,userAcceleration.y,userAcceleration.z
0,-0.138376,0.974822,-0.17485,-0.851096,0.755418,0.545379
1,-0.103916,0.971362,-0.213671,-0.332683,0.453061,0.1065079999999999
2,-0.071609,0.96606,-0.24819,-0.327393,0.3880349999999999,0.350729
3,-0.033,0.959532,-0.279656,-0.366002,0.394563,0.382195
4,-0.003788,0.952529,-0.304421,-0.137035,-0.114868,0.699303
5,0.03293,0.945763,-0.323183,-0.057451,-0.286522,0.5966670000000001
6,0.070907,0.935213,-0.346911,-0.389709,-0.4742909999999999,0.268297
7,0.091598,0.921457,-0.377525,-0.356795,-0.553354,0.4735789999999999
8,0.098923,0.905663,-0.4122949999999999,-0.288025,-0.652932,0.518328
9,0.094286,0.890561,-0.444983,-0.362292,-0.6538510000000001,0.57775
10,0.077559,0.8774639999999999,-0.473329,-0.4299149999999999,-0.773323,0.806184
11,0.055799,0.870252,-0.489435,-0.4482859999999999,-0.809888,0.8827149999999999
12,0.032918,0.8715729999999999,-0.489159,-0.374242,-0.773169,0.79406
13,0.008148,0.882865,-0.469556,-0.199173,-0.680106,0.591824
14,-0.019749,0.902005,-0.431271,0.301029,-0.26843,-0.416492
15,-0.048982,0.92211,-0.383813,0.3991409999999999,0.084039,-0.925727
16,-0.055507,0.935109,-0.349984,0.429104,1.6997939999999998,-1.3587870000000002
17,-0.046754,0.938424,-0.342305,0.202531,0.704902,-0.044475
18,-0.0267579999999999,0.931396,-0.36302,0.0928129999999999,0.099274,-0.040544
19,-0.00292,0.92076,-0.3901159999999999,0.3170219999999999,-0.4327229999999999,-0.181783
20,0.007599,0.919282,-0.393523,0.212219,-0.06685,0.2939739999999999
21,0.007762,0.928173,-0.372065,0.27834,0.424702,0.762721
22,0.042158,0.927541,-0.3713329999999999,-0.90199,2.035563,-0.7897390000000001
23,0.063377,0.914206,-0.400261,-1.060203,-1.32868,0.7470479999999999
24,0.058154,0.914778,-0.399746,-1.041416,-1.459746,0.943524
25,0.055323,0.927921,-0.368645,-0.700006,-0.21973,1.120812
26,0.0363459999999999,0.945048,-0.3249,-0.808655,0.436192,0.409892
27,-0.017123,0.961358,-0.274762,-0.49513,0.420172,0.4858369999999999
28,-0.07437,0.969482,-0.233604,0.026243,0.775436,0.671104
29,-0.1094079999999999,0.970635,-0.2142329999999999,0.705858,0.49018,0.382445
30,-0.1337,0.967212,-0.215925,0.452456,0.023603,0.068128
31,-0.155326,0.966378,-0.204905,0.169516,-0.098702,0.121744
32,-0.175925,0.97007,-0.167369,0.003882,-0.166405,0.343013
33,-0.187533,0.975055,-0.1187309999999999,-0.021971,-0.261691,0.324053
34,-0.190669,0.979033,-0.07167,0.017238,-0.263213,0.03218
35,-0.1912299999999999,0.981205,-0.025792,0.017799,-0.265385,-0.0136969999999999
36,-0.195303,0.980619,0.0154919999999999,-0.2235199999999999,-0.311155,-0.172337
37,-0.2077889999999999,0.977294,0.041431,-0.165212,-0.235473,-0.233921
38,-0.229009,0.971756,0.056948,-0.131327,-0.1069789999999999,-0.303179
39,-0.253335,0.96416,0.078833,0.153893,-0.016635,0.0572909999999999
40,-0.276976,0.955429,0.102162,0.436202,0.035919,-0.079122
41,-0.299329,0.945838,0.125655,0.438351,0.029717,-0.3972
42,-0.318484,0.93665,0.14578,0.2898429999999999,0.175365,-0.323789
43,-0.339472,0.92831,0.151647,0.3250679999999999,0.3689159999999999,0.100673
44,-0.354651,0.921862,0.156173,0.325094,0.303373,-0.018874
45,-0.35879,0.918821,0.164421,0.2229409999999999,0.390765,-0.235481
46,-0.359683,0.919025,0.161301,0.431094,0.535779,-0.492096
47,-0.355325,0.924225,0.139818,0.484338,0.586105,-0.34865
48,-0.341086,0.934045,0.105914,0.478064,0.646827,-0.296618
49,-0.315137,0.947725,0.0500269999999999,0.194425,0.5360090000000001,-0.211206
50,-0.278893,0.960081,-0.021456,-0.424629,0.25049,0.317476
51,-0.236237,0.967695,-0.088061,-0.539077,0.504106,0.645358
52,-0.195242,0.969946,-0.145198,-0.736963,0.801493,0.922816
53,-0.158289,0.968008,-0.194685,-0.665396,0.6952,-0.045413
54,-0.125486,0.964618,-0.231867,-0.563433,0.569684,-0.086477
55,-0.090936,0.959682,-0.265967,-0.274878,0.569157,0.298804
56,-0.044924,0.954173,-0.29586,-0.155195,0.049581,0.482322
57,-0.003867,0.951563,-0.307424,-0.0504089999999999,-0.014399,0.743032
58,0.039746,0.944513,-0.326057,-0.010373,-0.174448,0.52404
59,0.072786,0.932105,-0.354797,-0.389451,-0.5424100000000001,0.40007
60,0.08999,0.917835,-0.386623,-0.361856,-0.609532,0.513836
61,0.09355,0.902354,-0.4207189999999999,-0.3235,-0.733683,0.556964
62,0.082077,0.887798,-0.4528529999999999,-0.366058,-0.842174,0.725833
63,0.0573039999999999,0.876659,-0.477685,-0.384971,-0.8776209999999999,0.8203520000000001
64,0.0269879999999999,0.871561,-0.489542,-0.39799,-0.8807159999999999,0.920313
65,-0.0031969999999999,0.874502,-0.485009,-0.216026,-0.752386,0.651941
66,-0.031564,0.887117,-0.460462,-0.128882,-0.7111069999999999,0.519575
67,-0.0612799999999999,0.907217,-0.416174,0.0232099999999999,-0.467092,-0.200205
68,-0.088612,0.924306,-0.371219,0.193638,1.471919,-1.182522
69,-0.086501,0.927851,-0.362778,0.316909,2.387258,-1.211258
70,-0.070614,0.924767,-0.373923,0.4404109999999999,0.964973,-0.3942199999999999
71,-0.0447339999999999,0.916461,-0.3976119999999999,0.083263,-0.379581,-0.192369
72,-0.0211449999999999,0.910263,-0.413487,0.100979,-0.386292,-0.167904
73,-0.015296,0.912891,-0.407914,0.146919,0.62756,0.689714
74,0.004203,0.915273,-0.40281,-0.553901,2.779734,-0.56565
75,0.031695,0.894648,-0.4456449999999999,-0.931017,2.034918,-0.6770970000000001
76,0.0210449999999999,0.8907940000000001,-0.453917,-1.042133,-1.6619580000000005,1.234282
77,0.018548,0.906971,-0.420782,-0.840707,-1.068165,1.385793
78,0.015177,0.928164,-0.3718579999999999,-0.749933,0.443784,0.618318
79,-0.023209,0.950498,-0.309859,-0.372192,0.576159,0.6385029999999999
80,-0.07501,0.965826,-0.248094,-0.034487,0.8250059999999999,0.650087
81,-0.1120369999999999,0.969503,-0.217964,0.422141,0.904352,0.701637
82,-0.132605,0.966026,-0.2218239999999999,0.574988,0.134132,0.163658
83,-0.156022,0.962796,-0.22063,0.066453,-0.1025359999999999,-0.007199
84,-0.173779,0.966351,-0.18964,0.100186,-0.099576,0.082019
85,-0.1900599999999999,0.971444,-0.142023,0.035794,-0.307732,0.2993409999999999
86,-0.197909,0.976267,-0.087931,0.0144669999999999,-0.326242,0.163324
87,-0.200019,0.978937,-0.040866,0.081001,-0.278589,0.080631
88,-0.200979,0.979588,0.00314,-0.050531,-0.330922,-0.0009429999999999
89,-0.207332,0.977492,0.038975,-0.16866,-0.2296429999999999,-0.188435
90,-0.2238239999999999,0.972656,0.061951,-0.203513,-0.1910859999999999,-0.386246
91,-0.246782,0.9653,0.08538,0.040697,-0.119566,-0.047751
92,-0.270437,0.95628,0.111296,0.352621,0.012576,0.0596029999999999
93,-0.295144,0.945767,0.135685,0.434792,0.0415839999999999,-0.086201
94,-0.316676,0.934581,0.162078,0.463801,0.080769,-0.504973
95,-0.336425,0.9258,0.1723559999999999,0.361053,0.374279,0.154777
96,-0.353387,0.919328,0.1730529999999999,0.3780139999999999,0.380751,0.15408
97,-0.358829,0.916038,0.179197,0.276721,0.317285,0.001574
98,-0.360168,0.915667,0.178402,0.162093,0.567884,-0.236279
99,-0.356875,0.919892,0.1625849999999999,0.384082,0.6553640000000001,-0.254001
100,-0.340032,0.930723,0.134644,0.5296529999999999,0.8409139999999999,-0.059037
101,-0.305984,0.947371,0.094122,0.110091,0.813707,-0.409506
102,-0.269379,0.962597,0.028939,-0.40358,0.173618,-0.054696
103,-0.230573,0.972119,-0.042637,-0.494509,0.203251,0.352283
104,-0.187664,0.976916,-0.102047,-0.5929449999999999,0.671628,0.662121
105,-0.150282,0.976724,-0.153045,-0.6533680000000001,0.672507,0.520736
106,-0.118183,0.97329,-0.196818,-0.609753,0.5180279999999999,0.0289709999999999
107,-0.088774,0.968561,-0.232393,-0.4608939999999999,0.423361,0.267412
108,-0.048898,0.963784,-0.26216,-0.455481,0.325676,0.468458
109,-0.0066099999999999,0.958674,-0.284425,-0.184751,0.059301,0.516054
110,0.030159,0.950882,-0.308078,-0.046775,-0.1981349999999999,0.424701
111,0.069872,0.938581,-0.337906,-0.283968,-0.331632,0.221238
112,0.093042,0.923774,-0.37146,-0.386087,-0.548118,0.366623
113,0.101628,0.907552,-0.407453,-0.2932329999999999,-0.624532,0.524641
114,0.0981929999999999,0.892442,-0.4403439999999999,-0.3276699999999999,-0.655,0.565344
115,0.083997,0.8793790000000001,-0.468652,-0.354963,-0.729187,0.810297
116,0.064014,0.870966,-0.4871529999999999,-0.397876,-0.7499640000000001,0.8804780000000001
117,0.041229,0.869784,-0.491706,-0.369171,-0.733172,0.82511
118,0.015512,0.8774489999999999,-0.479416,-0.199381,-0.675026,0.595398
119,-0.0111069999999999,0.89402,-0.4478859999999999,-0.043565,-0.64428,0.3607889999999999
120,-0.03639,0.915519,-0.400621,0.354017,0.1239099999999999,-0.76927
121,-0.048769,0.932815,-0.357035,0.524187,1.654495,-1.19071
122,-0.038044,0.937893,-0.344827,0.492069,1.462039,-0.641257
123,-0.02186,0.931123,-0.364046,0.387812,0.643721,-0.361388
124,-0.0045439999999999,0.919842,-0.39226,0.2552,-0.380367,-0.187268
125,0.004611,0.916693,-0.399562,0.079038,-0.323508,0.155451
126,0.017251,0.921348,-0.388353,-0.257348,1.91491,0.155977
127,0.052624,0.904821,-0.422525,-0.752514,0.759638,0.098047
128,0.051532,0.895493,-0.4420779999999999,-0.94115,-1.82274,0.993714
129,0.049716,0.907925,-0.416171,-0.83034,-1.239376,1.270709
130,0.050266,0.927473,-0.3704909999999999,-0.760196,0.250963,0.933388
131,0.019995,0.94935,-0.313577,-0.75295,0.597174,0.4286279999999999
132,-0.031647,0.965661,-0.257863,-0.327331,0.435187,0.420018
133,-0.083047,0.971782,-0.220767,0.4493649999999999,0.525105,0.571887
134,-0.114392,0.969642,-0.216111,0.51318,0.292336,0.37172
135,-0.142015,0.965138,-0.219854,0.4635479999999999,0.1307019999999999,0.206152
136,-0.15936,0.967573,-0.195968,0.273465,-0.041944,0.224761
137,-0.170123,0.974038,-0.149348,0.044223,-0.316979,0.2792
138,-0.174811,0.979797,-0.097132,-0.049859,-0.383575,0.177241
139,-0.174178,0.983735,-0.043842,-0.067506,-0.278199,0.0365329999999999
140,-0.17554,0.984459,0.00442,-0.193249,-0.377038,-0.040156
141,-0.183703,0.982123,0.041009,-0.201047,-0.402075,-0.102334
142,-0.20431,0.976633,0.066632,-0.228338,-0.324548,-0.355618
143,-0.2306369999999999,0.968788,0.09083,0.264725,-0.130592,0.164892
144,-0.2535929999999999,0.959933,0.119214,0.4252229999999999,0.017636,0.097872
145,-0.275538,0.949992,0.146927,0.423106,0.111196,-0.230896
146,-0.293963,0.939646,0.175055,0.235598,0.173849,-0.348441
147,-0.309845,0.932216,0.1869839999999999,0.135148,0.245671,-0.285373
148,-0.3254309999999999,0.926493,0.188943,0.2894199999999999,0.367971,0.156745
149,-0.332039,0.92346,0.192261,0.177895,0.352388,-0.16658
150,-0.332949,0.922549,0.195041,0.13637,0.476346,-0.382282
151,-0.332162,0.925859,0.1801309999999999,0.367669,0.628188,-0.545976
152,-0.3225719999999999,0.934795,0.1486589999999999,0.4539189999999999,0.8206979999999999,-0.380654
153,-0.2977599999999999,0.949552,0.09841,0.437622,0.75339,-0.294622
154,-0.260584,0.96506,0.027393,0.048227,0.201856,-0.091984
155,-0.218417,0.974981,-0.041232,-0.583615,0.467096,0.513767
156,-0.179882,0.978826,-0.097661,-0.658161,0.643046,0.685125
157,-0.148331,0.977105,-0.152507,-0.79692,0.80625,0.674663
158,-0.1154309999999999,0.972824,-0.20071,-0.554446,0.5946199999999999,-0.107929
159,-0.084098,0.966381,-0.242965,-0.497079,0.6545300000000001,0.0603779999999999
160,-0.048993,0.959066,-0.278907,-0.303836,0.318675,0.568824
161,-0.0050799999999999,0.951018,-0.309089,-0.3351139999999999,0.136034,0.648109
162,0.032609,0.944885,-0.325768,-0.208665,-0.036301,0.663201
163,0.071738,0.932688,-0.353473,-0.31333,-0.404475,0.371753
164,0.097896,0.917012,-0.386655,-0.367977,-0.579793,0.515821
165,0.108883,0.899609,-0.422902,-0.290753,-0.6674,0.613164
166,0.107666,0.8837440000000001,-0.455414,-0.417709,-0.8222360000000001,0.618592
167,0.089257,0.87098,-0.483141,-0.371987,-0.8472370000000001,0.8365799999999999
168,0.059697,0.864118,-0.499734,-0.3568159999999999,-0.8536809999999999,0.997979
169,0.025863,0.864383,-0.502166,-0.263885,-0.846301,0.922683
170,-0.005775,0.87487,-0.484321,-0.082116,-0.760536,0.544745
171,-0.0338689999999999,0.8952629999999999,-0.444245,0.119913,-0.466873,-0.141418
172,-0.056774,0.916879,-0.395104,0.248241,0.698142,-1.096732
173,-0.056857,0.927286,-0.370006,0.5733060000000001,1.931585,-0.920125
174,-0.041204,0.927475,-0.371604,0.288488,0.751541,-0.338631
175,-0.023427,0.91723,-0.397665,0.151296,-0.117227,-0.437418
176,-0.008638,0.907512,-0.419934,0.105485,-0.19775,-0.132449
177,-0.001282,0.906331,-0.422563,-0.032013,-0.033299,0.103502
178,0.009906,0.904394,-0.42658,-0.241306,2.262079,-0.398767
179,0.035054,0.882503,-0.468995,-0.36913,0.037449,0.806062
180,0.02292,0.879473,-0.475394,-0.929597,-1.726443,1.449713
181,0.024437,0.8986069999999999,-0.438071,-0.676445,-0.567643,1.481742
182,0.027948,0.920996,-0.388565,-0.810342,0.379618,0.95781
183,-0.002311,0.944344,-0.328948,-0.782678,0.6321939999999999,0.430937
184,-0.054433,0.95869,-0.27919,-0.369609,0.505788,0.418229
185,-0.104173,0.962357,-0.2510239999999999,0.421831,0.412963,0.539293
186,-0.135668,0.959379,-0.247352,0.546053,0.263644,0.4473029999999999
187,-0.160592,0.957234,-0.240643,0.314843,0.021251,0.106915
188,-0.176089,0.963481,-0.201722,0.182284,-0.064083,0.3647309999999999
189,-0.185316,0.971182,-0.149864,0.120146,-0.244894,0.24456
190,-0.186438,0.977591,-0.097738,0.004935,-0.327154,0.155172
191,-0.183969,0.981571,-0.0516649999999999,0.062662,-0.2712739999999999,0.061903
192,-0.182004,0.98329,-0.003009,0.043073,-0.367675,0.005038
193,-0.18586,0.981696,0.041512,-0.150337,-0.356132,-0.20945
194,-0.203145,0.976864,0.0668059999999999,-0.289058,-0.176876,-0.437579
195,-0.228035,0.970025,0.083936,-0.072319,-0.125604,-0.161542
196,-0.2507,0.961923,0.108844,0.363676,-0.069757,0.161206
197,-0.271232,0.953609,0.130605,0.3599159999999999,0.0947,-0.182394
198,-0.2913719999999999,0.944685,0.15056,0.4282729999999999,0.090228,-0.3749099999999999
199,-0.307976,0.936184,0.169423,0.231514,0.277256,-0.225987
200,-0.323899,0.929145,0.178251,0.345841,0.391488,0.198794
201,-0.3341469999999999,0.924842,0.181677,0.316233,0.378685,0.1887609999999999
202,-0.335715,0.923043,0.187832,0.151892,0.584525,-0.45953
203,-0.334517,0.92584,0.175819,0.299452,0.6145649999999999,-0.450981
204,-0.324112,0.934492,0.147206,0.4606939999999999,0.6782239999999999,-0.44109
205,-0.301484,0.948077,0.101253,0.356583,0.6635409999999999,-0.18832
206,-0.269993,0.962407,0.029514,0.081227,0.293163,-0.004307
207,-0.230934,0.972272,-0.036751,-0.220421,0.113848,0.190788
208,-0.191379,0.977612,-0.0874289999999999,-0.570431,0.882526,0.8326680000000001
209,-0.161921,0.976852,-0.139774,-0.622533,0.822541,0.443058
210,-0.140535,0.972069,-0.1879549999999999,-0.610975,0.68412,-0.073535
211,-0.1204539999999999,0.96553,-0.230734,-0.502791,0.581955,0.248098
212,-0.09134,0.957229,-0.274528,-0.440795,0.348694,0.470832
213,-0.051179,0.950888,-0.305268,-0.348738,0.0938659999999999,0.536363
214,-0.017227,0.945704,-0.3245659999999999,-0.131805,-0.1148329999999999,0.716259
215,0.018484,0.934425,-0.355675,-0.157782,-0.343437,0.434899
216,0.0459399999999999,0.920139,-0.388884,-0.294414,-0.526142,0.433455
217,0.0595,0.905425,-0.420311,-0.2154449999999999,-0.716933,0.550377
218,0.059173,0.890028,-0.452046,-0.253722,-0.779203,0.615117
219,0.047103,0.876336,-0.479389,-0.3253769999999999,-0.8238610000000001,0.750598
220,0.024881,0.867072,-0.4975569999999999,-0.323359,-0.8288190000000001,0.936217
221,-0.002401,0.8640100000000001,-0.503466,-0.310434,-0.8393370000000001,0.950273
222,-0.030367,0.8707590000000001,-0.4907689999999999,-0.123869,-0.803956,0.636506
223,-0.057864,0.8882399999999999,-0.455718,0.035892,-0.593226,0.042433
224,-0.086868,0.908367,-0.409048,0.071625,0.2457619999999999,-0.762796
225,-0.09328,0.916013,-0.3901469999999999,0.340091,1.803332,-1.28745
226,-0.081488,0.917197,-0.390007,0.352163,1.018014,-0.5206069999999999
227,-0.062927,0.912155,-0.40498,0.280548,-0.135926,-0.329807
228,-0.044567,0.905331,-0.422358,0.174206,-0.244732,-0.446111
229,-0.030404,0.905515,-0.42322,-0.168433,1.0484950000000002,0.556902
230,-0.003563,0.897753,-0.440482,-0.386742,3.105909,-0.348718
231,0.015901,0.867375,-0.497397,-0.534578,-0.942739,1.111426
232,0.001914,0.870123,-0.492827,-1.00672,-1.2733370000000002,1.482512
233,0.016459,0.895058,-0.445641,-0.7820229999999999,0.145896,1.630791
234,0.02339,0.922365,-0.385606,-0.901152,0.787734,0.682054
235,-0.009119,0.950799,-0.309668,-0.518423,0.743232,0.565863
236,-0.052163,0.967013,-0.249317,0.081124,0.773007,0.722889
237,-0.0911179999999999,0.969164,-0.2289409999999999,0.3539199999999999,0.707304,0.682493
238,-0.118788,0.965412,-0.232087,0.547331,0.224255,0.296677
239,-0.145781,0.964703,-0.219297,0.179869,-0.032269,0.041899
240,-0.167444,0.968092,-0.186426,0.140192,-0.041441,0.133189
241,-0.1801299999999999,0.973146,-0.143297,0.110428,-0.209444,0.3381369999999999
242,-0.181845,0.978214,-0.100121,-0.01748,-0.2691989999999999,0.2281719999999999
243,-0.177058,0.98261,-0.055875,0.025416,-0.248906,0.136747
244,-0.170927,0.985265,-0.005412,0.04489,-0.320608,0.015986
245,-0.169291,0.984724,0.040643,-0.34995,-0.255735,-0.346124
246,-0.181784,0.980636,0.072796,-0.448571,-0.20549,-0.551083
247,-0.206834,0.973645,0.096059,0.023515,-0.168728,0.169856
248,-0.232855,0.96457,0.123998,0.283056,-0.166474,0.276194
249,-0.256588,0.954671,0.150854,0.483654,0.078654,-0.394689
250,-0.277909,0.943625,0.179802,0.341629,0.169214,-0.535423
251,-0.298942,0.934019,0.195529,0.244698,0.3872239999999999,-0.16701
252,-0.315798,0.926916,0.202702,0.270708,0.407313,0.007289
253,-0.325078,0.922762,0.206942,0.277837,0.320494,-0.196062
254,-0.327875,0.922693,0.202795,0.192712,0.5300050000000001,-0.546514
255,-0.329277,0.92576,0.185838,0.2494739999999999,0.560797,-0.703599
256,-0.322846,0.934481,0.150024,0.673874,0.578642,-0.353896
257,-0.30088,0.948883,0.095304,0.509178,0.6449739999999999,-0.15019
258,-0.262321,0.964775,0.0196889999999999,0.32563,0.4082719999999999,0.051447
259,-0.2112099999999999,0.976153,-0.050084,-0.514849,0.517896,0.55367
260,-0.164414,0.980873,-0.1041609999999999,-0.7032010000000001,0.890389,0.8650559999999999
261,-0.130625,0.978349,-0.1605079999999999,-0.7925770000000001,1.048705,0.805237
262,-0.109647,0.971207,-0.211492,-0.669405,0.778809,-0.022349
263,-0.091123,0.964843,-0.246513,-0.521564,0.665437,0.282387
264,-0.047836,0.960805,-0.273055,-0.6095729999999999,0.566966,0.461837
265,-0.004685,0.957071,-0.289807,-0.112884,0.166053,0.7393460000000001
266,0.040358,0.944852,-0.324994,-0.469496,-0.250394,0.2458929999999999
267,0.072662,0.929313,-0.362066,-0.5018,-0.234855,0.282964
268,0.0908549999999999,0.913668,-0.396171,-0.359089,-0.658343,0.64585
269,0.093679,0.8961979999999999,-0.433645,-0.162099,-0.7157479999999999,0.71546
270,0.083703,0.8779680000000001,-0.47134,-0.1955039999999999,-0.7336199999999999,0.719615
271,0.0570059999999999,0.862014,-0.503664,-0.357986,-0.942383,0.8911459999999999
272,0.02123,0.853173,-0.521192,-0.366262,-1.015649,1.032468
273,-0.016272,0.8540780000000001,-0.519887,-0.204813,-0.97273,0.875233
274,-0.050004,0.8658950000000001,-0.497716,-0.055816,-0.846074,0.451313
275,-0.079038,0.8859379999999999,-0.457014,0.173704,-0.318632,-0.2128929999999999
276,-0.0967679999999999,0.9001399999999999,-0.42471,0.18208,1.00289,-1.001468
277,-0.092953,0.901655,-0.4223409999999999,0.440243,1.712541,-0.944144
278,-0.082414,0.897086,-0.434095,0.317918,0.612725,-0.247698
279,-0.066549,0.8846579999999999,-0.46146,0.183828,0.200699,-0.257442
280,-0.051507,0.875682,-0.480128,0.179239,-0.323146,-0.103597
281,-0.0413,0.8786959999999999,-0.4755859999999999,-0.760199,1.16325,0.241028
282,-0.034457,0.878167,-0.477106,-0.8766450000000001,1.911582,-0.39736
283,-0.03475,0.863176,-0.5037010000000001,-0.4669279999999999,0.731581,0.662652
284,-0.042886,0.865232,-0.49953,-0.886985,-1.480206,1.203311
285,-0.033312,0.884667,-0.465027,-0.543714,-0.473381,1.518479
286,-0.023579,0.908205,-0.417855,-0.587413,0.205244,0.867287
287,-0.044412,0.934037,-0.3543949999999999,-0.343207,0.340178,0.757837
288,-0.081868,0.95492,-0.285341,-0.2396199999999999,0.446097,0.699236
289,-0.1189809999999999,0.963684,-0.239059,0.083566,0.6966859999999999,0.812499
290,-0.144176,0.960841,-0.236623,0.368969,0.124578,0.26531
291,-0.1671119999999999,0.958489,-0.231007,0.398038,0.111121,0.02538
292,-0.190605,0.96092,-0.200735,0.213081,-0.009427,-0.2617739999999999
293,-0.208221,0.9659,-0.153855,0.2076719999999999,-0.2050969999999999,0.388657
294,-0.209988,0.972185,-0.10369,0.254056,-0.234835,0.494345
295,-0.199077,0.978646,-0.051094,0.1482349999999999,-0.39785,0.277748
296,-0.1854029999999999,0.982657,-1e-06,-0.072699,-0.4371859999999999,-0.08409
297,-0.179295,0.982808,0.043938,-0.2767139999999999,-0.3094679999999999,-0.298089
298,-0.1922839999999999,0.978837,0.069953,-0.404594,-0.235398,-0.4850069999999999
299,-0.216288,0.971951,0.092298,-0.057088,-0.149288,0.004809
300,-0.239253,0.96393,0.116549,0.362559,-0.017031,0.2119579999999999
301,-0.261279,0.955103,0.1396349999999999,0.5725279999999999,0.197622,-0.49132
302,-0.279261,0.94545,0.1677,0.32284,0.0605919999999999,-0.525015
303,-0.291286,0.93978,0.178752,0.127574,0.221597,-0.309275
304,-0.303382,0.935673,0.180171,0.263465,0.4270739999999999,0.1416369999999999
305,-0.308896,0.933385,0.18265,0.265271,0.5316420000000001,-0.189776
306,-0.307051,0.935667,0.173871,0.3185409999999999,0.675767,-0.26048
307,-0.292384,0.944362,0.150589,0.564646,0.814366,-0.179123
308,-0.261786,0.958767,0.110539,0.165641,0.96442,-0.359242
309,-0.230647,0.971676,0.0513169999999999,-0.353826,0.193012,-0.129702
310,-0.199905,0.979592,-0.0206289999999999,-0.378144,0.337028,0.309554
311,-0.167293,0.981804,-0.089792,-0.464039,0.567314,0.664651
312,-0.137932,0.978325,-0.154418,-0.4988479999999999,0.666024,1.067794
313,-0.120998,0.971198,-0.205242,-0.725376,0.695184,-0.387898
314,-0.122026,0.961495,-0.246226,-0.672194,0.547172,-0.009161
315,-0.113915,0.949006,-0.293942,-0.545906,0.339431,0.668103
316,-0.0725919999999999,0.936653,-0.342641,-0.389002,-0.10862,0.63622
317,-0.043112,0.923651,-0.380792,-0.2501469999999999,-0.328696,0.879403
318,-0.018853,0.910709,-0.412609,0.015984,-0.429233,0.722835
319,0.008672,0.892704,-0.450552,-0.008534,-0.507832,0.527197
320,0.02172,0.8722469999999999,-0.488577,0.001001,-0.632729,0.538443
321,0.019369,0.8510719999999999,-0.524686,-0.095419,-0.68501,0.659696
322,-0.000129,0.8303950000000001,-0.5571699999999999,-0.262673,-0.759625,0.910732
323,-0.030565,0.8159890000000001,-0.577254,-0.323362,-0.828334,1.064925
324,-0.061086,0.812064,-0.580358,-0.231883,-0.875769,1.023183
325,-0.084372,0.82273,-0.562131,0.068686,-0.8255680000000001,0.6229520000000001
326,-0.098663,0.8477620000000001,-0.521113,0.306534,-0.494018,-0.237615
327,-0.106857,0.874713,-0.472707,0.099396,0.549481,-1.235209
328,-0.105697,0.881927,-0.459377,0.082458,2.14885,-1.387242
329,-0.103471,0.874244,-0.474326,0.177094,0.538705,0.033805
330,-0.089198,0.8590969999999999,-0.503975,-0.097676,-0.083187,0.024803
331,-0.076128,0.849932,-0.521358,0.120867,-0.568179,-0.1844829999999999
332,-0.06232,0.8622879999999999,-0.502563,-0.644513,0.098604,1.25531
333,-0.044899,0.878453,-0.475708,-1.319648,1.024257,1.093063
334,-0.039115,0.8670049999999999,-0.496756,-1.6312799999999998,3.3107300000000004,-1.533457
335,-0.056119,0.859359,-0.508278,-0.130466,-1.449035,1.53724
336,-0.0500209999999999,0.872553,-0.485946,-0.313779,-1.046121,1.578384
337,-0.0338399999999999,0.8934209999999999,-0.447937,-0.354603,-0.234455,1.014251
338,-0.042661,0.919794,-0.390067,-0.5766319999999999,0.49494,0.664038
339,-0.092802,0.937362,-0.335757,-0.600008,0.903916,0.5844600000000001
340,-0.138327,0.940047,-0.311718,-0.03428,0.984803,0.749111
341,-0.160365,0.943073,-0.291354,0.690806,0.367077,0.023715
342,-0.184194,0.949804,-0.252854,0.586675,0.04661,-0.059524
343,-0.201141,0.956588,-0.210883,0.236816,-0.192413,0.326163
344,-0.19735,0.967536,-0.15785,0.146005,-0.283896,0.538251
345,-0.180176,0.979426,-0.09083,0.1297,-0.35908,0.260127
346,-0.160673,0.986716,-0.023728,-0.115893,-0.49221,-0.025268
347,-0.1520099999999999,0.988017,0.026517,-0.416456,-0.311183,-0.440763
348,-0.162527,0.985162,0.055028,-0.515162,-0.272882,-0.595983
349,-0.1869299999999999,0.979947,0.068908,-0.158468,-0.141477,-0.380507
350,-0.21172,0.973427,0.0871909999999999,0.2644849999999999,-0.129128,0.174268
351,-0.235701,0.966447,0.102043,0.334426,-0.128923,0.078285
352,-0.2600679999999999,0.956574,0.131599,0.4493529999999999,0.235061,-0.535026
353,-0.2773989999999999,0.948138,0.1551519999999999,0.195276,0.295011,-0.248505
354,-0.291309,0.944677,0.150702,0.166706,0.43426,0.052041
355,-0.2979239999999999,0.941451,0.157793,0.1731369999999999,0.444597,-0.045397
356,-0.301631,0.938823,0.166186,0.154307,0.508733,-0.300113
357,-0.304526,0.941058,0.147174,0.290046,0.624417,-0.781375
358,-0.298296,0.948514,0.1064359999999999,0.5385449999999999,0.755588,-0.292807
359,-0.276765,0.959735,0.047922,0.455796,0.647351,-0.06196
360,-0.2428239999999999,0.969555,-0.031441,0.2072099999999999,0.4167979999999999,0.125771
361,-0.205777,0.97354,-0.099317,-0.4600399999999999,0.5997020000000001,0.899366
362,-0.173763,0.971857,-0.159028,-0.616703,0.859884,1.07248
363,-0.145337,0.964565,-0.220186,-0.720249,0.976276,0.773806
364,-0.128768,0.953628,-0.272037,-0.64261,0.736909,-0.056271
365,-0.114336,0.940833,-0.318988,-0.56494,0.729608,0.478488
366,-0.069031,0.932155,-0.355408,-0.5540609999999999,0.481908,0.580765
367,-0.036299,0.923094,-0.382848,-0.129946,-0.129973,0.8229569999999999
368,-0.008459,0.906363,-0.422407,0.09194,-0.192939,0.68057
369,0.019608,0.887625,-0.460142,-0.222382,-0.511786,0.418912
370,0.027623,0.8688739999999999,-0.494255,-0.104039,-0.79197,0.762215
371,0.016261,0.8480979999999999,-0.5295850000000001,-0.100703,-0.860824,0.804136
372,-0.009092,0.829542,-0.558366,-0.175188,-0.837201,1.007432
373,-0.047576,0.814442,-0.578287,-0.294481,-0.8110850000000001,1.174021
374,-0.086208,0.8083600000000001,-0.582338,-0.2166949999999999,-0.812709,1.069902
375,-0.114553,0.816407,-0.565996,-0.11819,-0.812272,0.654497
376,-0.129418,0.840324,-0.526404,-0.010948,-0.46978,0.166846
377,-0.144842,0.8698309999999999,-0.471603,-0.023646,0.732571,-0.764054
378,-0.151392,0.880337,-0.449534,0.448831,2.322483,-1.244268
379,-0.136934,0.879259,-0.45623,0.48546,0.649275,-0.580559
380,-0.121471,0.8727739999999999,-0.472762,0.338817,-0.254915,-0.1863109999999999
381,-0.101488,0.8651530000000001,-0.491125,0.264436,-0.266642,-0.265009
382,-0.084564,0.8633719999999999,-0.497424,0.075134,0.024491,0.4387689999999999
383,-0.0732559999999999,0.873491,-0.4812899999999999,-0.508532,1.902937,0.414442
384,-0.0387029999999999,0.858519,-0.511312,-0.988534,3.035646,-0.625162
385,-0.045693,0.837424,-0.5446350000000001,-0.863273,-2.258963,1.7832830000000002
386,-0.045593,0.8516100000000001,-0.5221819999999999,-0.85083,-0.953676,1.523907
387,-0.016425,0.878116,-0.478159,-0.8357479999999999,0.282208,1.143854
388,-0.0202259999999999,0.906299,-0.422143,-0.558387,0.597805,0.4550109999999999
389,-0.0607679999999999,0.928742,-0.3657,-0.178673,0.779846,0.796044
390,-0.115945,0.939549,-0.3221739999999999,0.086938,0.992122,0.942047
391,-0.1502099999999999,0.938579,-0.310639,0.57355,0.455525,0.381302
392,-0.169465,0.940348,-0.294988,0.573121,0.05837,-0.091471
393,-0.196988,0.945536,-0.259128,0.404568,-0.068614,0.114231
394,-0.215657,0.95207,-0.2168989999999999,0.2571,-0.25218,0.4283399999999999
395,-0.212206,0.962709,-0.167778,0.134493,-0.293199,0.2244949999999999
396,-0.196028,0.97385,-0.114796,0.064909,-0.40015,0.176853
397,-0.176198,0.982491,-0.0604419999999999,-0.04095,-0.329522,-0.038741
398,-0.163935,0.986378,-0.013081,-0.509161,-0.3386119999999999,-0.393444
399,-0.17064,0.985142,0.019051,-0.664459,-0.314809,-0.604561
400,-0.196411,0.979776,0.038054,-0.1193849999999999,-0.150125,0.073472
401,-0.224629,0.972414,0.062761,0.4746899999999999,-0.0009019999999999,0.0269
402,-0.248103,0.964489,0.090504,0.603114,0.144443,-0.248784
403,-0.267131,0.95539,0.125921,0.652308,0.1401599999999999,-0.487905
404,-0.280916,0.949349,0.140742,0.105455,0.438881,0.006795
405,-0.295346,0.944695,0.142501,0.261121,0.4453649999999999,0.197419
406,-0.3034969999999999,0.94124,0.148125,0.225754,0.382185,-0.172676
407,-0.306119,0.939883,0.151315,0.186383,0.470258,-0.395486
408,-0.30582,0.942746,0.133003,0.535846,0.654941,-0.4125439999999999
409,-0.294064,0.950612,0.099247,0.610791,0.79327,-0.2314949999999999
410,-0.266094,0.9627,0.04888,0.372356,0.798301,-0.23403
411,-0.23412,0.971902,-0.024102,-0.316631,0.111716,0.2425469999999999
412,-0.197847,0.975675,-0.0943519999999999,-0.611128,0.643679,0.854621
413,-0.164298,0.973489,-0.159105,-0.587746,0.840827,0.944536
414,-0.135024,0.966206,-0.219554,-0.729875,0.729107,0.028377
415,-0.113528,0.958104,-0.262942,-0.6419199999999999,0.65533,-0.050581
416,-0.09882,0.948357,-0.301403,-0.609111,0.632545,0.247967
417,-0.057213,0.938189,-0.3413489999999999,-0.324104,0.2427349999999999,0.533717
418,-0.012318,0.928172,-0.3719369999999999,-0.339351,-0.034647,0.761616
419,0.016259,0.919772,-0.392105,0.047661,-0.2392909999999999,0.661118
420,0.054064,0.905842,-0.420141,-0.187715,-0.4508859999999999,0.432425
421,0.0718429999999999,0.886452,-0.4572029999999999,-0.1766859999999999,-0.6452100000000001,0.595082
422,0.0754389999999999,0.8665200000000001,-0.493402,-0.201141,-0.820484,0.632059
423,0.065184,0.847875,-0.526167,-0.32414,-0.8635149999999999,0.776579
424,0.0407089999999999,0.832993,-0.551779,-0.373167,-0.925568,0.97106
425,0.009618,0.82606,-0.563495,-0.229955,-0.878718,0.965899
426,-0.0212879999999999,0.8289030000000001,-0.558982,-0.129805,-0.821792,0.857383
427,-0.0482019999999999,0.8437020000000001,-0.5346380000000001,0.115722,-0.665784,0.367646
428,-0.067499,0.868598,-0.4908909999999999,0.159983,0.674309,-1.154083
429,-0.079275,0.8909219999999999,-0.447176,0.245535,1.760674,-1.652586
430,-0.074215,0.8944799999999999,-0.440896,0.465496,1.744436,-0.60369
431,-0.068239,0.883727,-0.4629939999999999,0.156145,0.189958,-0.046939
432,-0.0589779999999999,0.8645719999999999,-0.499029,-0.020474,-0.2813969999999999,-0.118754
433,-0.051156,0.854699,-0.516591,-0.070227,-0.253548,0.547383
434,-0.046908,0.8652299999999999,-0.499169,-0.5786720000000001,1.416233,0.448784
435,-0.021825,0.870584,-0.491529,-1.15298,2.696753,-0.469805
436,-0.013651,0.8553120000000001,-0.5179279999999999,-0.283895,0.004567,0.8328690000000001
437,-0.020555,0.8536299999999999,-0.520468,-0.677458,-0.8700180000000001,1.350531
438,-0.003868,0.874094,-0.485735,-0.545525,-0.351282,1.441058
439,0.008723,0.899532,-0.436759,-0.583277,0.357411,0.67855
440,-0.013947,0.926569,-0.375855,-0.501358,0.387685,0.733582
441,-0.0649039999999999,0.945255,-0.3198,-0.324745,0.758526,0.5832729999999999
442,-0.114201,0.950076,-0.290351,0.210209,0.74873,0.7381810000000001
443,-0.139256,0.949187,-0.282209,0.4951979999999999,0.009431,-0.117602
444,-0.163424,0.951543,-0.260476,0.32181,0.015498,-0.108939
445,-0.184636,0.95813,-0.218829,0.287572,-0.075912,0.298663
446,-0.193945,0.965999,-0.170941,0.245413,-0.273005,0.505154
447,-0.185089,0.975593,-0.118104,0.212982,-0.31388,0.498872
448,-0.169892,0.983428,-0.06319,-0.013549,-0.323638,-0.0379
449,-0.15709,0.987471,-0.014463,-0.2074119999999999,-0.350508,-0.176089
450,-0.157131,0.987389,0.0189419999999999,-0.518375,-0.255638,-0.535574
451,-0.175843,0.98361,0.039699,-0.04335,-0.158476,0.108464
452,-0.201064,0.977505,0.063578,0.224593,-0.1192589999999999,0.300344
453,-0.224475,0.970604,0.086736,0.342273,-0.087853,0.0581159999999999
454,-0.246119,0.962631,0.112921,0.457377,0.156632,-0.571448
455,-0.264961,0.954467,0.137012,0.153633,0.306183,-0.266865
456,-0.283439,0.948148,0.143743,0.214408,0.383364,-0.008276
457,-0.297989,0.943488,0.144977,0.322281,0.321451,0.119946
458,-0.300135,0.94121,0.155007,0.105967,0.470427,-0.392891
459,-0.300886,0.941073,0.15438,0.2377139999999999,0.564619,-0.625953
460,-0.300545,0.945047,0.128619,0.526817,0.5787260000000001,-0.44768
461,-0.291216,0.952637,0.08752,0.525881,0.656219,-0.357769
462,-0.268998,0.962884,0.021918,0.288392,0.3236,0.032632
463,-0.232459,0.970877,-0.057863,-0.4206939999999999,0.588083,0.7904680000000001
464,-0.191647,0.974055,-0.120318,-0.53635,0.8184100000000001,0.956774
465,-0.1567339999999999,0.971107,-0.17993,-0.6332899999999999,0.927026,1.119123
466,-0.126542,0.962907,-0.2383,-0.677688,0.753386,-0.082349
467,-0.101005,0.953303,-0.2846079999999999,-0.5682149999999999,0.7930510000000001,0.117113
468,-0.0731,0.942836,-0.325125,-0.536732,0.671177,0.342169
469,-0.02677,0.932569,-0.359985,-0.449746,0.251635,0.706314
470,0.000963,0.920905,-0.389776,0.134459,-0.214148,0.6537069999999999
471,0.034945,0.903112,-0.427971,-0.103213,-0.385809,0.486931
472,0.057191,0.883558,-0.464808,-0.290391,-0.582182,0.59138
473,0.059079,0.862131,-0.5032220000000001,-0.213803,-0.789438,0.729739
474,0.049563,0.8415219999999999,-0.5379390000000001,-0.254077,-0.8096770000000001,0.771505
475,0.02683,0.8230290000000001,-0.5673600000000001,-0.27419,-0.8401489999999999,0.917625
476,-0.006793,0.8108390000000001,-0.585224,-0.264279,-0.88605,1.056156
477,-0.041641,0.807947,-0.587777,-0.212281,-0.818064,1.024407
478,-0.071092,0.8163130000000001,-0.573213,-0.089553,-0.739607,0.760667
479,-0.092128,0.8369120000000001,-0.5395220000000001,0.127254,-0.567579,0.242219
480,-0.108554,0.865216,-0.4894989999999999,0.255771,0.07941,-0.79288
481,-0.110165,0.884574,-0.453193,0.195126,2.013986,-1.696404
482,-0.10056,0.888275,-0.448159,0.341526,2.381149,-1.364357
483,-0.082791,0.8783,-0.4708779999999999,0.171841,0.126033,0.06826
484,-0.05931,0.8604069999999999,-0.506138,0.11383,-0.2213679999999999,-0.191662
485,-0.05028,0.8541850000000001,-0.517524,0.406085,0.802797,0.520454
486,-0.032904,0.860303,-0.5087119999999999,0.167243,1.6634240000000002,0.199142
487,-0.002601,0.8374379999999999,-0.54652,-1.688592,-1.0926559999999998,1.132076
488,-0.016231,0.828967,-0.559055,-1.180165,-1.195773,1.318119
489,-0.013827,0.8498549999999999,-0.526829,-0.792127,-0.495012,1.381535
490,0.007736,0.874642,-0.484699,-0.511077,0.327903,1.310184
491,0.004123,0.902369,-0.430936,-0.103351,0.399572,0.8927579999999999
492,-0.02711,0.927105,-0.373807,-0.038915,0.343418,0.8885620000000001
493,-0.0642399999999999,0.943869,-0.323998,0.201813,0.7856390000000001,0.648308
494,-0.09872,0.948295,-0.301629,0.321712,0.6133810000000001,0.448067
495,-0.1238609999999999,0.948242,-0.292379,0.373266,0.185623,0.134404
496,-0.154842,0.950538,-0.26924,0.1333119999999999,-0.054497,0.190581
497,-0.185665,0.954382,-0.2338219999999999,0.141812,-0.167318,0.157863
498,-0.203875,0.96066,-0.1885599999999999,0.190264,-0.159696,0.423759
499,-0.205242,0.968894,-0.138227,0.229183,-0.275871,0.08531
500,-0.19664,0.976757,-0.085233,0.102355,-0.433377,0.018674
501,-0.185343,0.981885,-0.039176,-0.060598,-0.427412,0.0018989999999999
502,-0.180918,0.983456,-0.00823,-0.456121,-0.275906,-0.369944
503,-0.196039,0.980453,0.0163,-0.355169,-0.252716,-0.1124609999999999
504,-0.223491,0.97376,0.042763,-0.017476,-0.208119,0.216865
505,-0.250654,0.965609,0.068965,0.467253,0.0268839999999999,-0.123179
506,-0.27464,0.956477,0.098534,0.5725680000000001,0.155217,-0.392113
507,-0.292124,0.948101,0.125513,0.343103,0.136738,-0.4636939999999999
508,-0.309178,0.941332,0.135232,0.2520949999999999,0.4377729999999999,0.010459
509,-0.325098,0.935957,0.135202,0.391627,0.419268,0.142767
510,-0.332432,0.932203,0.143074,0.304188,0.396181,-0.087135
511,-0.334909,0.931313,0.143093,0.420969,0.498802,-0.582669
512,-0.331858,0.93571,0.1195809999999999,0.612498,0.544285,-0.390913
513,-0.318581,0.944387,0.081381,0.5040520000000001,0.597178,-0.386282
514,-0.29474,0.955305,0.022494,0.236528,0.368838,-0.04198
515,-0.259955,0.964217,-0.051907,-0.111291,0.2497719999999999,0.3906679999999999
516,-0.221208,0.968774,-0.111947,-0.496352,0.8755719999999999,1.052636
517,-0.186673,0.967257,-0.171913,-0.631854,1.097852,0.95005
518,-0.1554309999999999,0.961218,-0.227793,-0.68043,0.752283,-0.126134
519,-0.131654,0.952899,-0.273205,-0.509414,0.8121010000000001,0.004208
520,-0.108725,0.941298,-0.3195719999999999,-0.42486,0.525148,0.465233
521,-0.0594179999999999,0.931365,-0.359193,-0.130554,0.242143,0.624254
522,-0.0256089999999999,0.923736,-0.38216,-0.181895,-0.091003,0.907444
523,0.0094709999999999,0.908487,-0.4177949999999999,-0.1157339999999999,-0.316858,0.505076
524,0.0376079999999999,0.890408,-0.453599,-0.313319,-0.538601,0.556901
525,0.050722,0.8719450000000001,-0.486962,-0.228701,-0.6539119999999999,0.699745
526,0.046133,0.85165,-0.522069,-0.141943,-0.7278399999999999,0.7914939999999999
527,0.025524,0.831425,-0.555044,-0.207653,-0.814824,0.8631489999999999
528,-0.008951,0.816615,-0.577109,-0.28829,-0.8511299999999999,1.045614
529,-0.045397,0.811934,-0.581976,-0.27194,-0.811675,1.101904
530,-0.076142,0.818078,-0.5700390000000001,-0.1066579999999999,-0.718545,0.675249
531,-0.096623,0.8356530000000001,-0.540686,0.0606429999999999,-0.5968220000000001,0.305731
532,-0.109275,0.8600209999999999,-0.498414,0.289572,0.074687,-0.630447
533,-0.1091559999999999,0.875433,-0.470844,0.226313,1.868509,-1.398968
534,-0.1087099999999999,0.875674,-0.470499,0.4266569999999999,1.356107,-0.679266
535,-0.101814,0.866301,-0.489029,0.189979,0.015016,-0.206787
536,-0.0901039999999999,0.849875,-0.5192180000000001,0.165451,-0.1577059999999999,-0.295967
537,-0.081231,0.843578,-0.530821,0.169396,0.104298,-0.007906
538,-0.063926,0.8462620000000001,-0.5289119999999999,-0.0933,4.166601999999999,-0.190082
539,-0.024056,0.815401,-0.578391,-0.8542850000000001,-2.215441,2.740638
540,-0.031618,0.807017,-0.589677,-1.736525,-3.1339360000000003,1.6631479999999998
541,-0.0186889999999999,0.8409540000000001,-0.540778,-0.973682,0.077747,2.212485
542,0.010189,0.8697940000000001,-0.493304,-1.003337,0.663333,1.434023
543,-0.008782,0.903485,-0.428522,-0.165855,0.379276,0.917383
544,-0.046613,0.92934,-0.366258,0.19618,0.6697649999999999,0.90854
545,-0.08932,0.941029,-0.326308,0.372539,0.990184,0.918684
546,-0.1148049999999999,0.940381,-0.320146,0.605268,0.294161,-0.096862
547,-0.140476,0.940987,-0.307896,0.4151649999999999,0.117576,-0.09573
548,-0.173669,0.946074,-0.273446,0.3684929999999999,0.018602,0.079538
549,-0.199446,0.95332,-0.226698,0.2432389999999999,-0.259793,0.521742
550,-0.201243,0.96337,-0.17722,0.219324,-0.299094,0.249654
551,-0.188974,0.974005,-0.124858,0.179773,-0.474311,0.055125
552,-0.170665,0.982766,-0.070932,0.086589,-0.445107,0.079965
553,-0.159103,0.98689,-0.026849,-0.447755,-0.248807,-0.448187
554,-0.165142,0.986263,-0.000113,-0.391667,-0.1142079999999999,-0.2630699999999999
555,-0.186672,0.982127,0.0237919999999999,-0.250767,-0.0667519999999999,0.041943
556,-0.211536,0.976145,0.04877,0.322437,0.01087,0.084714
557,-0.23508,0.969096,0.074661,0.774845,0.177587,-0.4979699999999999
558,-0.252733,0.962112,0.102229,0.4284989999999999,0.113343,-0.402537
559,-0.262688,0.958614,0.109719,0.029778,0.40865,-0.0947809999999999
560,-0.274656,0.954239,0.118222,0.204451,0.460678,0.154849
561,-0.284085,0.950763,0.123817,0.247067,0.519254,-0.02999
562,-0.288956,0.949171,0.1247559999999999,0.270493,0.5051899999999999,-0.485596
563,-0.2901289999999999,0.950374,0.112244,0.472487,0.408543,-0.399002
564,-0.285616,0.954798,0.082282,0.412402,0.4715939999999999,-0.500418
565,-0.272296,0.961518,0.036389,0.503146,0.4357439999999999,-0.148678
566,-0.2472489999999999,0.968117,-0.040061,0.168346,0.251594,0.327857
567,-0.2094369999999999,0.971517,-0.110812,-0.36263,0.4715069999999999,0.7092470000000001
568,-0.17618,0.970433,-0.164956,-0.606322,0.831829,0.988259
569,-0.152215,0.962652,-0.223879,-0.723151,0.906947,0.622942
570,-0.133964,0.952156,-0.274667,-0.687203,0.7504350000000001,-0.092932
571,-0.121595,0.940661,-0.3168,-0.533435,0.6680119999999999,0.160306
572,-0.0841789999999999,0.92923,-0.359775,-0.156818,0.218414,0.59212
573,-0.043613,0.920858,-0.387441,-0.186322,0.08581,0.801
574,-0.005922,0.906867,-0.421365,0.064226,-0.098442,0.8951049999999999
575,0.032429,0.8875549999999999,-0.459552,-0.24239,-0.354886,0.519733
576,0.046283,0.8645309999999999,-0.500437,-0.238925,-0.553313,0.644205
577,0.041005,0.8386969999999999,-0.5430470000000001,-0.112645,-0.672941,0.670168
578,0.018533,0.811345,-0.5842689999999999,-0.216165,-0.722066,0.8333229999999999
579,-0.022225,0.787521,-0.615883,-0.276192,-0.813461,1.107719
580,-0.064252,0.774265,-0.629588,-0.191745,-0.8759030000000001,1.142802
581,-0.095408,0.7746649999999999,-0.625129,-0.106298,-0.855292,1.0128700000000002
582,-0.112324,0.7901100000000001,-0.602582,0.105,-0.750513,0.532636
583,-0.114042,0.818331,-0.563314,0.2721389999999999,0.028791,-0.6486149999999999
584,-0.108741,0.846225,-0.521606,0.136222,1.384473,-1.607453
585,-0.107441,0.8579620000000001,-0.502346,0.279271,1.802698,-1.226703
586,-0.10942,0.852758,-0.51071,0.151885,0.355753,-0.165896
587,-0.1075359999999999,0.8348129999999999,-0.5399229999999999,0.086662,-0.251836,-0.225763
588,-0.0985159999999999,0.822807,-0.559712,0.185964,-0.52758,-0.167659
589,-0.098941,0.8297209999999999,-0.549333,0.16492,-0.442209,1.303926
590,-0.079826,0.856534,-0.5098739999999999,-0.784538,0.568317,1.149064
591,-0.03741,0.865698,-0.4991609999999999,-1.628133,2.100916,-0.675354
592,-0.050207,0.853741,-0.518265,0.164968,-0.65614,1.979264
593,-0.050046,0.851325,-0.5222399999999999,-0.363696,-1.171775,1.333244
594,-0.030756,0.866928,-0.497477,-0.388418,-0.703018,1.497873
595,-0.016093,0.890616,-0.454462,-0.502675,0.340615,0.652964
596,-0.03712,0.918486,-0.3936969999999999,-0.468663,0.606996,0.6952109999999999
597,-0.093733,0.937346,-0.335539,-0.138719,1.083574,0.924406
598,-0.136186,0.940173,-0.312279,0.4093489999999999,0.405057,0.3845909999999999
599,-0.156851,0.939895,-0.303291,0.6154390000000001,0.079942,-0.2266929999999999
600,-0.178848,0.946462,-0.268723,0.26979,-0.003179,0.166535
601,-0.199116,0.954381,-0.222483,0.194645,-0.258138,0.378321
602,-0.205248,0.963234,-0.173326,0.157198,-0.250694,0.501512
603,-0.191969,0.974382,-0.1171099999999999,0.257063,-0.365114,0.240416
604,-0.173513,0.983184,-0.056828,-0.043634,-0.410414,0.03336
605,-0.160856,0.98693,-0.00895,-0.5011770000000001,-0.290565,-0.578712
606,-0.165078,0.986095,0.01873,-0.4747989999999999,-0.29803,-0.575783
607,-0.185906,0.981766,0.039498,0.0612259999999999,-0.1854859999999999,0.245963
608,-0.208092,0.976075,0.062928,0.263664,-0.015382,0.137542
609,-0.22962,0.969179,0.089168,0.491888,0.187056,-0.371502
610,-0.2489989999999999,0.961071,0.119689,0.235251,0.112751,-0.4734489999999999
611,-0.265816,0.955648,0.1267319999999999,0.098381,0.344538,-0.128014
612,-0.2835,0.950515,0.1270119999999999,0.529777,0.410966,0.204653
613,-0.290178,0.94734,0.135376,0.376284,0.432405,-0.21199
614,-0.291484,0.947246,0.133214,0.545421,0.699498,-0.637777
615,-0.286529,0.952035,0.107306,0.599776,0.62368,-0.455725
616,-0.269864,0.960483,0.068034,0.481168,0.734051,-0.403789
617,-0.245123,0.969481,0.002376,0.183966,0.562715,-0.028499
618,-0.212009,0.974119,-0.078288,-0.1393849999999999,0.3098619999999999,0.364527
619,-0.177966,0.973525,-0.143396,-0.513181,0.75998,1.113611
620,-0.147291,0.966542,-0.209971,-0.6676350000000001,1.003428,1.044596
621,-0.123288,0.955084,-0.269447,-0.7580140000000001,0.942178,0.494407
622,-0.111041,0.943354,-0.312636,-0.3644989999999999,0.64472,0.334609
623,-0.087084,0.928173,-0.361801,-0.453245,0.516727,0.542511
624,-0.037154,0.907966,-0.417382,-0.298967,0.161385,0.520699
625,-0.008459,0.894083,-0.447812,0.010763,-0.1970309999999999,0.888684
626,0.018162,0.886049,-0.463225,0.160961,-0.295534,0.731002
627,0.046648,0.868078,-0.494222,-0.20572,-0.3962,0.476583
628,0.048216,0.844908,-0.532726,-0.142684,-0.802321,0.7973439999999999
629,0.0354,0.821824,-0.568634,-0.205078,-0.952348,0.84288
630,0.006024,0.801044,-0.5985689999999999,-0.196224,-0.928089,0.97627
631,-0.0318569999999999,0.7881239999999999,-0.614686,-0.2179289999999999,-0.8148270000000001,1.115876
632,-0.068896,0.784932,-0.615734,-0.1388059999999999,-0.756444,1.023922
633,-0.09715,0.792596,-0.601952,-0.041247,-0.723382,0.878289
634,-0.110192,0.8125399999999999,-0.572389,0.188515,-0.253488,-0.302351
635,-0.116177,0.8382950000000001,-0.532688,0.091748,0.208428,-0.855541
636,-0.117924,0.8498700000000001,-0.513621,-0.022716,1.98033,-1.6792189999999998
637,-0.119153,0.844359,-0.522353,0.170316,0.4600689999999999,-0.067353
638,-0.118841,0.825559,-0.551654,-0.007593,-0.243329,-0.084165
639,-0.109415,0.810362,-0.575617,-0.0268,-0.2918679999999999,-0.0051329999999999
640,-0.1061329999999999,0.810282,-0.576343,-0.1605599999999999,1.442007,0.438389
641,-0.087226,0.81108,-0.578389,-0.346353,2.868608,0.101079
642,-0.061752,0.779542,-0.623294,-0.608963,1.260909,0.144824
643,-0.078502,0.78772,-0.611005,-1.309193,-1.649521,1.068052
644,-0.053506,0.822484,-0.56626,-0.49781,0.548061,1.643729
645,-0.01781,0.854972,-0.518361,-0.528425,0.964898,0.511311
646,-0.021306,0.891583,-0.452345,0.019292,0.538791,0.800902
647,-0.046421,0.916616,-0.397051,0.117603,0.59083,0.789324
648,-0.082508,0.926789,-0.366394,0.36678,0.695801,0.572616
649,-0.1110559999999999,0.929667,-0.351248,0.458285,0.295965,0.096411
650,-0.139218,0.934333,-0.328069,0.2888,0.084512,0.111104
651,-0.1706089999999999,0.940474,-0.2939179999999999,0.211365,-0.172149,0.234668
652,-0.1936109999999999,0.949076,-0.248509,0.1849589999999999,-0.256586,0.363179
653,-0.197454,0.959224,-0.202207,0.222234,-0.144389,0.193235
654,-0.185366,0.970647,-0.153193,0.205446,-0.232809,0.104365
655,-0.164383,0.981224,-0.1008039999999999,-0.035736,-0.421547,0.084721
656,-0.147003,0.987714,-0.0528559999999999,-0.252839,-0.391874,-0.050446
657,-0.144245,0.989404,-0.016003,-0.527996,-0.24653,-0.306689
658,-0.1655599999999999,0.986044,0.017012,-0.560956,-0.170645,-0.301405
659,-0.194552,0.979848,0.045042,0.249331,-0.130041,0.136491
660,-0.222671,0.972044,0.0743549999999999,0.675216,0.2144329999999999,-0.383986
661,-0.240942,0.964956,0.103861,0.591696,0.193216,-0.457545
662,-0.248376,0.962559,0.1084869999999999,0.0146259999999999,0.449901,-0.233563
663,-0.2590409999999999,0.959497,0.1106549999999999,0.2105639999999999,0.40319,0.241152
664,-0.266978,0.956446,0.117963,0.331187,0.612463,-0.088071
665,-0.269497,0.95575,0.117873,0.485485,0.62503,-0.6117090000000001
666,-0.2669829999999999,0.95914,0.093541,0.342178,0.605252,-0.500279
667,-0.257683,0.964712,0.0539529999999999,0.3859329999999999,0.603586,-0.349592
668,-0.238504,0.971042,-0.013235,0.3667539999999999,0.597256,-0.282404
669,-0.207582,0.97347,-0.096167,0.009569,0.213053,0.360434
670,-0.174609,0.971461,-0.160496,-0.509412,0.7677510000000001,1.043049
671,-0.149231,0.963285,-0.223153,-0.7064819999999999,0.975237,0.624276
672,-0.130647,0.949788,-0.284289,-0.721374,0.7297319999999999,0.153613
673,-0.1201,0.934824,-0.3341659999999999,-0.5340590000000001,0.739858,0.211775
674,-0.096578,0.919257,-0.381611,-0.297404,0.4177479999999999,0.457279
675,-0.052775,0.902635,-0.427146,-0.1567589999999999,0.279204,0.583076
676,-0.0299329999999999,0.887236,-0.4603319999999999,0.270823,-0.102293,0.871175
677,0.007825,0.8670450000000001,-0.498159,-0.1290859999999999,-0.393992,0.599294
678,0.034886,0.843716,-0.535647,-0.212193,-0.439602,0.628969
679,0.037936,0.817973,-0.573996,-0.086108,-0.596797,0.801612
680,0.022501,0.790441,-0.612118,-0.176005,-0.6525479999999999,0.893292
681,-0.009675,0.764977,-0.64398,-0.213942,-0.683327,1.0035379999999998
682,-0.049423,0.748758,-0.660993,-0.253204,-0.781183,1.189817
683,-0.080585,0.7457600000000001,-0.6613180000000001,-0.191388,-0.777162,1.154574
684,-0.099308,0.757529,-0.6451979999999999,-0.046948,-0.765388,0.892009
685,-0.107548,0.7831600000000001,-0.6124430000000001,0.300221,-0.466525,0.100633
686,-0.104251,0.818387,-0.565124,0.166645,0.2474239999999999,-0.8533940000000001
687,-0.096977,0.845558,-0.524992,-0.001504,1.664665,-1.507097
688,-0.100005,0.8514200000000001,-0.5148520000000001,0.34706,1.39623,-0.296305
689,-0.100582,0.840117,-0.532989,0.209728,0.200777,-0.1471559999999999
690,-0.097068,0.8203590000000001,-0.563541,0.202735,-0.299592,-0.190563
691,-0.093185,0.811372,-0.577047,0.338425,-0.595064,0.8488209999999999
692,-0.087336,0.829269,-0.551975,-0.045125,-0.252059,1.633899
693,-0.047619,0.855901,-0.514932,-1.269397,1.441752,0.069223
694,-0.020975,0.8471129999999999,-0.530989,-1.069418,3.033777,-1.630937
695,-0.041558,0.833457,-0.55101,-0.039649,-1.627112,2.051178
696,-0.0293779999999999,0.8448700000000001,-0.534155,-0.4486489999999999,-1.0173709999999998,1.417318
697,0.000127,0.869101,-0.4946239999999999,-0.56188,0.165521,1.153117
698,0.004364,0.8995059999999999,-0.436872,-0.649536,0.697967,0.64694
699,-0.033473,0.927979,-0.371108,-0.439077,0.854339,0.706069
700,-0.078826,0.941438,-0.32782,0.236007,0.834303,0.940475
701,-0.09907,0.944386,-0.313538,0.566249,0.2504389999999999,0.066758
702,-0.122443,0.948756,-0.291297,0.436148,0.066075,-0.209603
703,-0.147061,0.956913,-0.250347,0.280255,-0.022496,0.26437
704,-0.160927,0.966368,-0.200545,0.275017,-0.208082,0.422774
705,-0.157828,0.976134,-0.149109,0.181113,-0.297149,0.42511
706,-0.137188,0.985559,-0.09916,0.095669,-0.354639,0.198846
707,-0.116295,0.991902,-0.050836,-0.159141,-0.367894,-0.099402
708,-0.107253,0.994193,-0.00746,-0.444612,-0.26879,-0.511171
709,-0.117491,0.99283,0.0215099999999999,-0.192934,-0.22191,0.0307199999999999
710,-0.139043,0.989362,0.042515,0.040624,-0.125989,0.278469
711,-0.16195,0.984817,0.0623289999999999,0.23861,0.008805,0.0735659999999999
712,-0.185271,0.978179,0.0938919999999999,0.425551,0.006272,-0.5501149999999999
713,-0.202232,0.971596,0.122789,0.1731339999999999,0.157112,-0.426958
714,-0.217682,0.967885,0.125648,0.053986,0.358042,-0.006675
715,-0.230284,0.963927,0.133371,0.178679,0.403489,-0.119165
716,-0.238511,0.960584,0.142707,0.181306,0.495699,-0.321754
717,-0.2441809999999999,0.959994,0.136974,0.308085,0.578229,-0.590954
718,-0.242632,0.964151,0.107321,0.4768239999999999,0.5909479999999999,-0.2376309999999999
719,-0.227658,0.971367,0.067773,0.4418149999999999,0.631889,-0.361688
720,-0.2041619999999999,0.978914,0.0046939999999999,0.166916,0.6195350000000001,-0.222987
721,-0.1766579999999999,0.981369,-0.075411,-0.254784,0.269181,0.486864
722,-0.148648,0.978683,-0.141646,-0.352954,0.6854399999999999,1.062666
723,-0.125653,0.970802,-0.204298,-0.411837,0.8223959999999999,1.061751
724,-0.103309,0.957718,-0.268489,-0.467202,0.8539120000000001,-0.038258
725,-0.085711,0.944609,-0.316785,-0.40547,0.812593,0.081296
726,-0.064292,0.931098,-0.35904,-0.423257,0.481378,0.501847
727,-0.0313899999999999,0.917317,-0.396901,-0.364149,0.020213,0.79955
728,-0.006623,0.90264,-0.430331,-0.092971,-0.016349,0.847735
729,0.022046,0.881387,-0.471869,-0.149869,-0.325631,0.609275
730,0.050197,0.8611409999999999,-0.505872,-0.1943619999999999,-0.491832,0.619367
731,0.0577769999999999,0.8393459999999999,-0.54051,-0.1084519999999999,-0.654058,0.729795
732,0.047522,0.8161,-0.575946,-0.138007,-0.746474,0.8068270000000001
733,0.022151,0.794183,-0.607269,-0.1898,-0.772744,0.94287
734,-0.015912,0.776386,-0.630051,-0.2230099999999999,-0.767185,1.117569
735,-0.0550809999999999,0.766558,-0.6398020000000001,-0.198871,-0.753024,1.1421370000000002
736,-0.086713,0.768342,-0.634133,-0.071032,-0.685669,0.92347
737,-0.1068109999999999,0.7840010000000001,-0.611495,0.193069,-0.537235,0.216979
738,-0.114375,0.810171,-0.57492,0.227915,0.116038,-0.7792060000000001
739,-0.11903,0.829519,-0.545638,0.116756,1.7525580000000005,-1.702302
740,-0.125445,0.831058,-0.541845,0.287066,1.202755,-0.419824
741,-0.129652,0.8183010000000001,-0.559968,0.039366,0.099438,-0.041091
742,-0.127821,0.798637,-0.588075,-0.14702,-0.173957,-0.024184
743,-0.123188,0.791531,-0.5985779999999999,0.338719,-0.392971,-0.222727
744,-0.119861,0.803184,-0.583541,-0.234143,1.116875,0.852706
745,-0.096567,0.798025,-0.59483,-1.028173,2.227,-0.267474
746,-0.103794,0.783125,-0.613135,-0.56686,-0.875441,1.235266
747,-0.106178,0.796076,-0.595803,-0.518806,-1.401728,1.540475
748,-0.068075,0.8254040000000001,-0.560415,-0.141459,0.112523,1.576162
749,-0.035789,0.854935,-0.51749,-0.263528,0.519073,0.5603670000000001
750,-0.037641,0.885383,-0.463325,-0.152392,0.353005,0.680732
751,-0.069648,0.907978,-0.413174,-0.173378,0.688793,0.750622
752,-0.116819,0.916249,-0.383183,0.391477,0.525142,0.476643
753,-0.149147,0.918931,-0.365113,0.547463,0.272277,0.106263
754,-0.176673,0.925582,-0.334769,0.273109,-0.010986,0.1743839999999999
755,-0.203044,0.934631,-0.291931,0.244471,-0.1247559999999999,0.2315829999999999
756,-0.215879,0.946048,-0.241608,0.0956549999999999,-0.243426,0.478577
757,-0.206576,0.960224,-0.187831,0.145525,-0.284565,0.212398
758,-0.182,0.974745,-0.129345,0.105843,-0.334441,0.073436
759,-0.156926,0.984192,-0.081986,-0.150875,-0.381409,-0.0433029999999999
760,-0.147511,0.987958,-0.046467,-0.533047,-0.299863,-0.233929
761,-0.162075,0.986591,-0.018703,-0.52779,-0.263126,-0.212971
762,-0.188114,0.982109,0.007316,0.09415,-0.053215,0.309319
763,-0.212757,0.976593,0.031274,0.4746439999999999,0.018448,-0.132882
764,-0.236057,0.969659,0.0633809999999999,0.642185,0.122871,-0.378612
765,-0.248067,0.964301,0.092533,0.04511,0.364083,-0.394474
766,-0.258318,0.960787,0.1006789999999999,0.1159839999999999,0.507612,0.063612
767,-0.271223,0.956732,0.1052559999999999,0.308409,0.4979949999999999,0.093139
768,-0.278066,0.954452,0.1080599999999999,0.473027,0.7995,-0.034635
769,-0.273125,0.95735,0.094134,0.530083,0.7807029999999999,-0.291979
770,-0.252857,0.965036,0.0688889999999999,0.508396,0.746008,-0.166545
771,-0.229793,0.97282,0.028169,-0.307575,0.469334,-0.535432
772,-0.2170239999999999,0.975388,-0.038699,-0.257524,0.122985,0.050463
773,-0.1972809999999999,0.972312,-0.125185,-0.058945,0.339227,0.360583
774,-0.1695839999999999,0.966771,-0.191251,-0.1347529999999999,0.618861,1.1648690000000002
775,-0.147575,0.956263,-0.252519,-0.436989,0.6424310000000001,0.776231
776,-0.135315,0.942288,-0.306217,-0.540787,0.536304,0.2223239999999999
777,-0.1393619999999999,0.928836,-0.343259,-0.484005,0.510525,0.262921
778,-0.126621,0.911395,-0.391552,-0.5133939999999999,0.239972,0.53883
779,-0.097381,0.886015,-0.453301,-0.503724,0.118639,0.571435
780,-0.089554,0.8649479999999999,-0.493795,0.153961,-0.223408,1.0525870000000002
781,-0.068996,0.850982,-0.520633,0.146465,-0.387389,0.715091
782,-0.044271,0.8294870000000001,-0.556759,0.002905,-0.4828689999999999,0.611905
783,-0.041564,0.8040039999999999,-0.593162,0.006056,-0.618274,0.774513
784,-0.056736,0.780472,-0.622604,-0.079738,-0.703034,0.91278
785,-0.08499,0.759943,-0.644403,-0.235704,-0.722513,1.047312
786,-0.119968,0.745358,-0.655776,-0.168819,-0.721005,1.093291
787,-0.151277,0.741819,-0.653309,-0.0501389999999999,-0.711866,0.957401
788,-0.169686,0.7546729999999999,-0.633772,0.233529,-0.4230239999999999,0.0532669999999999
789,-0.17386,0.7847149999999999,-0.594967,0.170488,-0.235444,-0.352466
790,-0.167011,0.815805,-0.553678,-0.301861,1.117743,-1.388125
791,-0.168246,0.816233,-0.552674,0.051745,1.706228,-0.8827360000000001
792,-0.1736579999999999,0.804976,-0.5673159999999999,0.271146,0.376634,0.081888
793,-0.165817,0.787542,-0.593526,0.05484,-0.176916,-0.100825
794,-0.154676,0.7767850000000001,-0.6104689999999999,0.2988719999999999,-0.4214529999999999,-0.21877
795,-0.156197,0.785036,-0.599427,0.413918,-0.339907,-0.0948789999999999
796,-0.134078,0.798694,-0.5866020000000001,-0.201921,1.997876,0.459481
797,-0.100934,0.779626,-0.618051,-0.892566,1.694189,-0.525519
798,-0.114324,0.772227,-0.62497,-0.910243,-1.834514,1.685043
799,-0.102779,0.798605,-0.593007,-0.447972,-0.776999,1.268361
800,-0.060409,0.828369,-0.556908,-0.285844,0.417649,1.5180280000000002
801,-0.047031,0.861648,-0.505311,-0.347973,0.769501,0.617784
802,-0.066245,0.88992,-0.451268,-0.115075,0.522388,0.829716
803,-0.105557,0.903441,-0.415498,0.0893679999999999,0.76378,0.729539
804,-0.138976,0.90688,-0.397794,0.47029,0.577174,0.477826
805,-0.163884,0.910604,-0.379379,0.5537,0.217402,0.08255
806,-0.193455,0.917394,-0.347777,0.3660469999999999,0.0039159999999999,0.185515
807,-0.220334,0.927841,-0.300913,0.2351349999999999,-0.161911,0.353175
808,-0.2259489999999999,0.942829,-0.244956,0.104398,-0.244694,0.397574
809,-0.210785,0.960129,-0.183586,0.070038,-0.338257,0.23684
810,-0.181016,0.975466,-0.125222,-0.028395,-0.4214189999999999,0.081841
811,-0.157645,0.984034,-0.0825,-0.306695,-0.329401,-0.041448
812,-0.152969,0.98703,-0.048497,-0.390321,-0.370529,-0.110286
813,-0.173921,0.984594,-0.017472,-0.578596,-0.259176,-0.2766409999999999
814,-0.202697,0.979148,0.012731,0.366103,0.0302209999999999,0.079554
815,-0.2295219999999999,0.972405,0.041552,0.640472,0.19178,-0.391802
816,-0.251426,0.964826,0.0766299999999999,0.793342,0.319918,-0.550979
817,-0.260937,0.961343,0.087797,0.077725,0.3451909999999999,-0.1938609999999999
818,-0.27288,0.958088,0.087074,0.144294,0.40791,0.090919
819,-0.2827719999999999,0.954735,0.092181,0.366436,0.4466779999999999,0.212522
820,-0.285771,0.952551,0.104678,0.251164,0.532907,-0.4982479999999999
821,-0.286451,0.953653,0.092028,0.41052,0.572272,-0.514727
822,-0.284466,0.957045,0.055874,0.335995,0.6719229999999999,-0.445675
823,-0.275835,0.961182,0.00476,0.40526,0.541534,-0.129516
824,-0.257415,0.963495,-0.07345,0.231475,0.1940059999999999,0.2611949999999999
825,-0.228187,0.963038,-0.143074,-0.070534,0.589559,1.049492
826,-0.202172,0.957742,-0.20455,-0.362144,0.878287,1.177496
827,-0.181777,0.945492,-0.270161,-0.5426949999999999,0.936115,0.600422
828,-0.164143,0.929936,-0.329034,-0.497738,0.7377130000000001,0.132012
829,-0.138803,0.915501,-0.3775969999999999,-0.612158,0.588024,0.190174
830,-0.0952529999999999,0.901828,-0.421452,-0.42704,0.420056,0.487996
831,-0.069656,0.8914489999999999,-0.447722,-0.252777,0.06781,1.181029
832,-0.050142,0.86821,-0.493646,0.313875,-0.186936,0.742639
833,-0.019438,0.846648,-0.5317890000000001,-0.134554,-0.4490649999999999,0.547018
834,-0.015268,0.823627,-0.566919,-0.148642,-0.510425,0.689462
835,-0.034037,0.796984,-0.6030340000000001,-0.007437,-0.6642779999999999,0.8805
836,-0.067213,0.771839,-0.63225,-0.144945,-0.727588,0.977098
837,-0.112944,0.753005,-0.648243,-0.190004,-0.764922,1.109822
838,-0.155625,0.745613,-0.647947,-0.109008,-0.745826,1.195951
839,-0.181143,0.752463,-0.633229,-0.003992,-0.72312,0.664937
840,-0.1895599999999999,0.77453,-0.6034579999999999,0.045639,-0.677744,0.436893
841,-0.186434,0.808743,-0.557824,0.136096,-0.563077,0.086404
842,-0.179803,0.836859,-0.517037,-0.038978,1.159585,-1.075736
843,-0.179367,0.839211,-0.513363,0.409958,1.928977,-1.358798
844,-0.182313,0.8318959999999999,-0.524119,0.574769,0.481763,-0.146703
845,-0.174289,0.817878,-0.548353,0.313815,-0.1084349999999999,-0.275485
846,-0.167565,0.8090149999999999,-0.56339,0.446022,-0.4781579999999999,0.172994
847,-0.1637819999999999,0.8198479999999999,-0.5486489999999999,0.38299,-0.545617,0.3639719999999999
848,-0.124516,0.834367,-0.536953,-1.006054,1.941283,0.410732
849,-0.1202299999999999,0.810662,-0.57303,-1.17016,2.138435,-0.8650200000000001
850,-0.142598,0.804342,-0.5767939999999999,-0.301906,-1.429494,1.57391
851,-0.1205339999999999,0.825159,-0.551883,-0.212123,-0.179041,1.66199
852,-0.085409,0.851859,-0.51675,-0.359934,0.1177599999999999,1.231594
853,-0.086938,0.884199,-0.458937,-0.3941409999999999,0.8412350000000001,0.698851
854,-0.129794,0.908973,-0.3961159999999999,0.098132,1.228173,1.097624
855,-0.158764,0.91109,-0.38039,0.456814,0.66496,0.7537119999999999
856,-0.166467,0.913311,-0.371669,0.618661,0.155216,-0.167149
857,-0.182056,0.922456,-0.340466,0.391788,0.0281519999999999,0.07861
858,-0.195718,0.935834,-0.293078,0.327294,-0.107816,0.404269
859,-0.203051,0.951391,-0.231534,0.02518,-0.314917,0.446133
860,-0.1950869999999999,0.966606,-0.166119,0.001224,-0.376793,0.3719139999999999
861,-0.1753579999999999,0.978056,-0.1124119999999999,-0.13171,-0.3648659999999999,0.088486
862,-0.161068,0.983877,-0.077607,-0.162465,-0.272833,-0.128616
863,-0.159877,0.985923,-0.048723,-0.316594,-0.276389,-0.309554
864,-0.174569,0.984451,-0.018978,-0.287528,-0.277359,-0.227756
865,-0.1975869999999999,0.98025,0.006801,0.39171,-0.040324,0.134648
866,-0.220673,0.974898,0.029219,0.525406,0.1120309999999999,-0.1693859999999999
867,-0.241471,0.968538,0.060024,0.5241399999999999,0.138396,-0.436275
868,-0.252262,0.964357,0.079716,0.059452,0.298216,-0.25716
869,-0.26506,0.960855,0.080476,0.2317199999999999,0.4009,0.2062369999999999
870,-0.275397,0.957845,0.0816409999999999,0.3115449999999999,0.396861,0.034158
871,-0.277771,0.956218,0.09201,0.224731,0.593068,-0.550033
872,-0.278331,0.957093,0.0805029999999999,0.447185,0.627182,-0.570509
873,-0.273843,0.960703,0.045121,0.4082119999999999,0.6309560000000001,-0.4815069999999999
874,-0.261626,0.965121,-0.008421,0.42871,0.620222,-0.1247119999999999
875,-0.2404929999999999,0.966884,-0.085311,0.200545,0.239552,0.310576
876,-0.212944,0.965189,-0.151805,-0.251961,0.650167,0.948451
877,-0.191091,0.957924,-0.2141219999999999,-0.445231,0.84478,1.083537
878,-0.1734369999999999,0.94439,-0.27934,-0.624414,0.912147,0.424466
879,-0.158017,0.927664,-0.338312,-0.556948,0.7494149999999999,0.113383
880,-0.1337,0.912853,-0.385758,-0.454496,0.638523,0.377931
881,-0.09078,0.898857,-0.428722,-0.384836,0.3846969999999999,0.416209
882,-0.0671679999999999,0.887908,-0.455077,-0.245454,0.090821,1.209944
883,-0.0404529999999999,0.8699370000000001,-0.491489,0.33185,-0.189578,0.758167
884,-0.010607,0.849464,-0.52753,-0.066419,-0.338539,0.50722
885,-0.004414,0.8285020000000001,-0.55996,-0.136897,-0.451259,0.699562
886,-0.0154949999999999,0.8063859999999999,-0.591179,-0.030816,-0.665624,0.858192
887,-0.041511,0.784763,-0.618397,-0.181069,-0.7504149999999999,0.931477
888,-0.07875,0.7688010000000001,-0.634613,-0.169495,-0.74811,1.022751
889,-0.115616,0.763302,-0.635605,-0.172378,-0.757779,1.121689
890,-0.14224,0.7702680000000001,-0.6216470000000001,-0.046664,-0.6842239999999999,0.964284
891,-0.155883,0.7904479999999999,-0.592354,0.068496,-0.630886,0.578911
892,-0.158111,0.8219559999999999,-0.547154,0.209167,-0.250316,-0.151774
893,-0.154193,0.848606,-0.506043,0.045535,1.863033,-1.480651
894,-0.148498,0.85256,-0.5010760000000001,0.386047,1.830362,-1.260643
895,-0.142497,0.847092,-0.5119739999999999,0.43806,0.43576,-0.13364
896,-0.133645,0.8342,-0.535012,0.192209,-0.17972,-0.264396
897,-0.122802,0.8268190000000001,-0.5488890000000001,0.437652,-0.440863,0.221527
898,-0.117897,0.838,-0.53277,0.444252,-0.3715699999999999,0.191569
899,-0.0829429999999999,0.8458120000000001,-0.526983,-1.010105,2.967787,-0.955943
900,-0.077186,0.8232729999999999,-0.5623640000000001,-0.895165,1.842712,-0.470076
901,-0.097438,0.818453,-0.566241,-0.5073439999999999,-1.7531150000000002,1.720721
902,-0.079128,0.83893,-0.538446,-0.44675,-0.154069,1.6864259999999998
903,-0.049846,0.8625809999999999,-0.503446,-0.545903,0.190078,1.307188
904,-0.057309,0.88982,-0.452683,-0.392048,0.6557729999999999,0.685884
905,-0.09973,0.913845,-0.393608,-0.341462,0.717198,0.641838
906,-0.1386609999999999,0.922799,-0.359444,0.226383,0.988914,1.113595
907,-0.155098,0.923169,-0.351692,0.749169,0.140994,-0.045631
908,-0.1751619999999999,0.932282,-0.316469,0.735679,0.1064599999999999,-0.3180219999999999
909,-0.194375,0.945976,-0.25948,0.347878,-0.003868,0.278294
910,-0.198626,0.958761,-0.203236,0.107363,-0.332236,0.381764
911,-0.185092,0.971017,-0.151151,0.0741,-0.374185,0.286512
912,-0.162233,0.981694,-0.0996799999999999,0.073442,-0.436375,0.16958
913,-0.145741,0.987824,-0.054233,-0.316158,-0.4702149999999999,-0.151425
914,-0.146616,0.98901,-0.01844,-0.570699,-0.354702,-0.536659
915,-0.170097,0.985402,0.005158,0.050865,-0.154713,0.2289429999999999
916,-0.1932559999999999,0.980804,0.025506,0.4818149999999999,-0.051391,0.161902
917,-0.212767,0.975851,0.049184,0.444654,0.163645,-0.195912
918,-0.230888,0.9695,0.082059,0.45707,0.114988,-0.416684
919,-0.246006,0.963864,0.1020809999999999,0.15224,0.286548,-0.27211
920,-0.262869,0.958601,0.109345,0.4119319999999999,0.4847729999999999,0.15097
921,-0.272658,0.955152,0.1153869999999999,0.373427,0.412233,0.05487
922,-0.273334,0.954488,0.119218,0.28191,0.533305,-0.102159
923,-0.265974,0.958273,0.104613,0.4861729999999999,0.732035,-0.364852
924,-0.2467219999999999,0.966194,0.074646,0.502963,0.804986,-0.166321
925,-0.223492,0.974399,0.023927,-0.110599,0.640088,-0.31273
926,-0.202619,0.978042,-0.04854,-0.28493,0.098694,0.140138
927,-0.1791559999999999,0.976043,-0.123373,-0.263395,0.4936979999999999,0.934637
928,-0.157003,0.968454,-0.193461,-0.362223,0.734717,1.091501
929,-0.1418289999999999,0.95536,-0.25914,-0.56888,0.678154,0.357987
930,-0.136965,0.941053,-0.30926,-0.6175970000000001,0.571871,-0.0865679999999999
931,-0.132704,0.922731,-0.361858,-0.555086,0.511336,0.334453
932,-0.1111579999999999,0.900481,-0.420432,-0.4237229999999999,0.158296,0.788093
933,-0.082824,0.877076,-0.4731439999999999,-0.263139,-0.049241,0.949294
934,-0.069811,0.86319,-0.500017,0.2270989999999999,-0.162415,1.110659
935,-0.040747,0.84639,-0.530992,0.043143,-0.35527,0.542543
936,-0.02508,0.821519,-0.56962,-0.000509,-0.4632729999999999,0.601831
937,-0.026949,0.7961630000000001,-0.604474,-0.020658,-0.552358,0.70007
938,-0.049618,0.772054,-0.63361,-0.075352,-0.729284,0.933827
939,-0.087805,0.753566,-0.651476,-0.1507349999999999,-0.764827,1.158296
940,-0.12455,0.7465470000000001,-0.653565,-0.116646,-0.758433,1.203675
941,-0.1514609999999999,0.7539520000000001,-0.639224,0.056887,-0.760376,0.957156
942,-0.161929,0.7770229999999999,-0.60828,0.279819,-0.621109,0.339787
943,-0.153367,0.810654,-0.5650729999999999,0.356324,-0.499039,-0.142889
944,-0.143301,0.833466,-0.533655,0.014655,1.98233,-1.7530880000000002
945,-0.151607,0.834025,-0.530478,0.272273,1.591986,-0.847253
946,-0.158932,0.816293,-0.555334,0.173626,0.367408,-0.04069
947,-0.160083,0.795289,-0.584704,-0.047116,-0.303529,-0.084608
948,-0.160577,0.790569,-0.5909369999999999,0.014474,-0.4153239999999999,-0.214453
949,-0.148918,0.793705,-0.589785,-0.934685,2.501156,0.11397
950,-0.141715,0.764533,-0.628807,-0.03457,-0.389899,1.36811
951,-0.164008,0.7607729999999999,-0.627947,-0.155328,-1.762375,1.675127
952,-0.134156,0.78743,-0.6016199999999999,-0.09944,0.03392,1.617321
953,-0.078271,0.819136,-0.568224,-0.289679,0.461656,1.602099
954,-0.058869,0.8550770000000001,-0.515137,-0.223159,0.776759,0.4138189999999999
955,-0.068703,0.886392,-0.457795,-0.116905,0.538626,0.911973
956,-0.093844,0.906101,-0.412505,0.10335,0.73338,0.90332
957,-0.114789,0.914135,-0.388802,0.337582,0.42783,0.570778
958,-0.130877,0.918847,-0.372259,0.360644,0.167884,0.084157
959,-0.151524,0.927244,-0.342407,0.217335,0.048799,0.104171
960,-0.168103,0.941059,-0.293484,0.287808,-0.094776,0.368496
961,-0.1735539999999999,0.957558,-0.230096,0.051102,-0.3082809999999999,0.37626
962,-0.162373,0.973148,-0.163092,-0.000637,-0.363742,0.193259
963,-0.137477,0.98477,-0.1063349999999999,-0.062001,-0.349958,0.062725
964,-0.118851,0.990608,-0.067444,-0.263,-0.341285,-0.075424
965,-0.118902,0.992224,-0.0364699999999999,-0.477625,-0.350196,-0.391021
966,-0.1405,0.990062,-0.0036049999999999,-0.257372,-0.296672,0.127552
967,-0.167853,0.985454,0.0261,0.409933,-0.137523,0.094872
968,-0.19163,0.979563,0.060902,0.611079,0.164251,-0.3428989999999999
969,-0.206553,0.973491,0.098106,0.696421,0.29044,-0.4263229999999999
970,-0.2167099999999999,0.970314,0.107245,-0.1036329999999999,0.443428,-0.193106
971,-0.229305,0.967639,0.105198,0.224361,0.342999,0.087185
972,-0.235975,0.965548,0.109574,0.3553449999999999,0.391661,-0.112153
973,-0.236695,0.965258,0.110568,0.260163,0.65727,-0.572649
974,-0.235411,0.968157,0.085005,0.415908,0.644575,-0.3616769999999999
975,-0.2258239999999999,0.973189,0.043369,0.427851,0.719102,-0.3341409999999999
976,-0.206202,0.978199,-0.024124,0.484461,0.693783,-0.1695559999999999
977,-0.17993,0.978137,-0.1041609999999999,-0.276475,0.392453,0.664982
978,-0.155056,0.973037,-0.170693,-0.301349,0.397554,0.731514
979,-0.138518,0.961711,-0.2364409999999999,-0.492997,0.924489,1.062536
980,-0.1235859999999999,0.945832,-0.300182,-0.4895279999999999,0.653777,0.042248
981,-0.108295,0.926774,-0.359646,-0.440884,0.636626,0.0200009999999999
982,-0.086219,0.905136,-0.4162689999999999,-0.474221,0.6997220000000001,0.170968
983,-0.05237,0.89213,-0.448718,-0.422621,0.259421,0.982074
984,-0.033706,0.8813770000000001,-0.471196,-0.348176,0.021974,1.1857799999999998
985,-0.006241,0.8563569999999999,-0.516335,0.2668,-0.060412,0.796349
986,0.010129,0.829092,-0.55901,-0.110302,-0.4338439999999999,0.687413
987,0.004383,0.8012779999999999,-0.598268,-0.138447,-0.615258,0.875901
988,-0.0147789999999999,0.774003,-0.6330020000000001,-0.111732,-0.738542,0.927435
989,-0.047343,0.753414,-0.655834,-0.175741,-0.773433,0.974834
990,-0.087864,0.7427229999999999,-0.6638029999999999,-0.152706,-0.772706,1.0759729999999998
991,-0.126345,0.742746,-0.657538,-0.038847,-0.714792,1.046958
992,-0.153387,0.755677,-0.636722,0.0609799999999999,-0.719834,0.908542
993,-0.162294,0.78252,-0.601093,0.206071,-0.618259,0.397083
994,-0.159514,0.816749,-0.554495,-0.204927,0.444115,-0.742532
995,-0.158544,0.833016,-0.530035,-0.317179,1.499519,-1.435007
996,-0.16292,0.8266819999999999,-0.538556,0.347124,1.7106709999999998,-0.86272
997,-0.160752,0.810737,-0.562898,0.15828,-0.1973339999999999,-0.079238
998,-0.152757,0.795132,-0.586873,0.044924,-0.310696,-0.128261
999,-0.154149,0.793187,-0.589137,0.527532,-0.604649,0.0403699999999999
1000,-0.143907,0.813808,-0.563024,-0.387252,0.783085,1.483877
1001,-0.110873,0.817094,-0.565733,-1.253614,2.098464,0.278211
1002,-0.125968,0.799177,-0.5877399999999999,-0.207665,-0.6322909999999999,1.154772
1003,-0.132322,0.803388,-0.580559,-0.2103449999999999,-1.116147,1.574272
1004,-0.099902,0.8255,-0.555481,-0.201765,-0.671325,1.588654
1005,-0.0643799999999999,0.8509770000000001,-0.521231,-0.263837,0.342566,0.927435
1006,-0.071444,0.8841549999999999,-0.461685,-0.322675,0.853226,0.650619
1007,-0.119604,0.911932,-0.392505,-0.063441,0.9676,1.007358
1008,-0.150611,0.916307,-0.371055,0.431968,0.487501,0.774299
1009,-0.164942,0.914178,-0.370211,0.627024,0.11199,-0.1694
1010,-0.182004,0.926159,-0.330285,0.280546,0.136891,0.1252069999999999
1011,-0.187581,0.943692,-0.272471,0.3265889999999999,-0.087049,0.510005
1012,-0.180691,0.960716,-0.21061,0.13934,-0.370216,0.4702989999999999
1013,-0.162144,0.975831,-0.146432,-0.022136,-0.451326,0.216378
1014,-0.1355,0.98687,-0.087786,-0.121641,-0.373894,0.140521
1015,-0.120023,0.991555,-0.048895,-0.205951,-0.430596,-0.008417
1016,-0.12704,0.991667,-0.020842,-0.6612140000000001,-0.3160989999999999,-0.526293
1017,-0.149791,0.988705,0.001389,0.161769,-0.2100179999999999,0.2907409999999999
1018,-0.170963,0.984991,0.0232199999999999,0.414005,-0.094153,0.211353
1019,-0.1910349999999999,0.980247,0.050955,0.516933,0.111596,-0.35256
1020,-0.207665,0.974122,0.089087,0.4314659999999999,0.07904,-0.4813449999999999
1021,-0.220129,0.969455,0.108042,0.016363,0.2892119999999999,-0.309702
1022,-0.2346469999999999,0.966029,0.10818,0.406476,0.532934,0.149312
1023,-0.2389219999999999,0.964513,0.112264,0.335556,0.390742,0.007014
1024,-0.236953,0.964884,0.113245,0.202163,0.652242,-0.486048
1025,-0.231508,0.968812,0.088212,0.401674,0.697326,-0.56598
1026,-0.218937,0.974572,0.047449,0.368152,0.884742,-0.372506
1027,-0.202219,0.979073,-0.022349,0.1071109999999999,0.670966,-0.073583
1028,-0.182291,0.977491,-0.106115,-0.144965,0.192858,0.40383
1029,-0.15958,0.971663,-0.174317,-0.192501,0.690462,1.107132
1030,-0.1415819999999999,0.959446,-0.24372,-0.344639,0.8935049999999999,1.189551
1031,-0.134191,0.942671,-0.305529,-0.589549,0.896669,0.030672
1032,-0.132128,0.925453,-0.355054,-0.5005930000000001,0.68174,0.049588
1033,-0.11989,0.904567,-0.409109,-0.564986,0.525242,0.437002
1034,-0.089314,0.8832270000000001,-0.4603489999999999,-0.487545,0.319181,0.684287
1035,-0.075486,0.86631,-0.493758,-0.249267,-0.004143,1.1916639999999998
1036,-0.0557919999999999,0.8460690000000001,-0.5301359999999999,0.155142,-0.373413,0.6806180000000001
1037,-0.03745,0.81989,-0.571286,0.035787,-0.423253,0.701078
1038,-0.044254,0.790403,-0.610979,0.021549,-0.665586,0.866732
1039,-0.0661,0.764791,-0.6408729999999999,-0.0596019999999999,-0.742681,0.983784
1040,-0.105352,0.744351,-0.659421,-0.1071569999999999,-0.721295,1.162686
1041,-0.152045,0.7324890000000001,-0.6635770000000001,-0.088723,-0.686896,1.246615
1042,-0.19055,0.731813,-0.6543180000000001,0.0623919999999999,-0.712755,1.0800379999999998
1043,-0.208165,0.746322,-0.632189,0.12119,-0.702071,0.6208359999999999
1044,-0.2018299999999999,0.777461,-0.5956600000000001,0.138033,-0.3753309999999999,-0.146588
1045,-0.1915079999999999,0.814209,-0.548068,-0.359883,0.927262,-1.033093
1046,-0.191173,0.8217760000000001,-0.536774,0.117717,2.165727,-1.56874
1047,-0.200439,0.810072,-0.5509970000000001,0.370117,0.437151,-0.244809
1048,-0.200198,0.790607,-0.578663,0.164538,-0.1605869999999999,-0.039501
1049,-0.192268,0.776258,-0.6003729999999999,0.3845739999999999,-0.489545,-0.345611
1050,-0.185517,0.782569,-0.5942729999999999,-0.311523,0.908654,0.777439
1051,-0.16585,0.775667,-0.608955,-1.490141,3.370635,-0.2410659999999999
1052,-0.182438,0.746175,-0.640258,-0.110119,-1.287878,1.656616
1053,-0.196622,0.754588,-0.626042,-0.300936,-1.964137,1.694188
1054,-0.151782,0.784643,-0.601072,-0.134549,0.129083,1.847868
1055,-0.1037859999999999,0.813942,-0.571592,-0.275532,0.6469189999999999,0.7812479999999999
1056,-0.097457,0.8518899999999999,-0.514563,-0.143433,0.532678,0.958365
1057,-0.117459,0.887358,-0.445854,-0.140033,0.931047,0.96122
1058,-0.140714,0.899912,-0.412728,0.286359,0.752508,0.885308
1059,-0.152622,0.901017,-0.406031,0.512363,0.231857,0.225367
1060,-0.171398,0.90892,-0.380096,0.3700219999999999,0.130921,-0.094467
1061,-0.189269,0.924292,-0.33143,0.292082,-0.019385,0.272333
1062,-0.201479,0.940379,-0.274003,0.202516,-0.250727,0.275682
1063,-0.194195,0.95824,-0.209873,0.143597,-0.369373,0.470538
1064,-0.161211,0.975881,-0.1471329999999999,0.039842,-0.472905,0.223686
1065,-0.129205,0.986337,-0.102103,-0.1080839999999999,-0.4150779999999999,-0.045679
1066,-0.116371,0.991027,-0.065582,-0.446846,-0.331359,-0.411256
1067,-0.128133,0.991249,-0.031383,-0.101664,-0.155006,0.138225
1068,-0.1510369999999999,0.988498,-0.006101,0.214133,-0.135043,0.233945
1069,-0.17377,0.984658,0.0151069999999999,0.327167,-0.064492,0.088576
1070,-0.194003,0.979872,0.046801,0.430987,0.1837329999999999,-0.4602989999999999
1071,-0.203623,0.976794,0.066223,0.4406069999999999,0.18681,-0.479721
1072,-0.212854,0.97504,0.062965,0.164453,0.380825,0.201591
1073,-0.219382,0.973494,0.064461,0.2275449999999999,0.364213,0.139839
1074,-0.222073,0.971577,0.081832,0.205121,0.522991,-0.274734
1075,-0.224325,0.971831,0.0720919999999999,0.386648,0.643129,-0.526758
1076,-0.221043,0.974443,0.039697,0.420049,0.69084,-0.444039
1077,-0.211092,0.977415,-0.008739,0.403628,0.724291,-0.253941
1078,-0.198929,0.976829,-0.078809,0.075745,0.273934,0.0076269999999999
1079,-0.186409,0.971393,-0.147058,-0.132912,0.193539,0.667704
1080,-0.1728599999999999,0.961822,-0.2121289999999999,-0.160422,0.635102,1.179231
1081,-0.159356,0.946362,-0.281045,-0.349265,0.828052,0.90931
1082,-0.147859,0.927779,-0.342562,-0.443038,0.768343,0.226992
1083,-0.137906,0.907293,-0.3972239999999999,-0.452823,0.747294,0.163948
1084,-0.1201589999999999,0.887067,-0.445714,-0.532612,0.591052,0.531361
1085,-0.092888,0.8694059999999999,-0.485275,-0.447273,0.267389,0.716599
1086,-0.086965,0.853276,-0.514145,0.008061,-0.013783,1.151123
1087,-0.063913,0.8321799999999999,-0.5507989999999999,0.067621,-0.296078,0.5993069999999999
1088,-0.050164,0.806581,-0.588983,-0.04177,-0.368623,0.633126
1089,-0.059399,0.778565,-0.624739,-0.053119,-0.546219,0.911025
1090,-0.0836399999999999,0.753534,-0.6520600000000001,-0.063165,-0.782373,0.976538
1091,-0.120025,0.735661,-0.666624,-0.1272589999999999,-0.806584,1.0968
1092,-0.160968,0.727087,-0.667402,-0.064222,-0.729849,1.136061
1093,-0.1958859999999999,0.729715,-0.655085,0.02691,-0.663064,0.971598
1094,-0.2169239999999999,0.745269,-0.630483,0.171209,-0.591186,0.603215
1095,-0.218682,0.7749520000000001,-0.592973,0.171914,-0.301106,-0.150496
1096,-0.214004,0.809721,-0.546391,-0.275239,0.939791,-1.125026
1097,-0.21422,0.8156680000000001,-0.5373859999999999,0.131075,2.226568,-1.482832
1098,-0.219052,0.806235,-0.5495359999999999,0.390088,0.3966909999999999,-0.04455
1099,-0.212675,0.787713,-0.578158,0.021238,-0.169915,-0.022046
1100,-0.206228,0.773396,-0.599432,0.0127,-0.355931,-0.294199
1101,-0.2084329999999999,0.7782020000000001,-0.592407,-0.1524059999999999,0.863872,0.448364
1102,-0.177095,0.77155,-0.611015,-0.7720020000000001,2.4138900000000003,0.196098
1103,-0.178877,0.7482810000000001,-0.638803,-0.437746,-0.762625,1.447229
1104,-0.186838,0.761058,-0.6211869999999999,-0.282537,-1.7265119999999998,1.839784
1105,-0.134318,0.796225,-0.589893,-0.034338,0.100046,1.535648
1106,-0.086246,0.8284799999999999,-0.553327,-0.2455719999999999,0.636364,0.913847
1107,-0.082428,0.8626799999999999,-0.498975,-0.111221,0.577917,0.771299
1108,-0.103725,0.8950600000000001,-0.4337,-0.04334,0.681616,0.875442
1109,-0.125294,0.907648,-0.400577,0.406773,0.428839,0.563739
1110,-0.135357,0.908717,-0.394837,0.5018729999999999,0.203496,0.183671
1111,-0.154371,0.914961,-0.372827,0.354689,0.071001,-0.199393
1112,-0.17577,0.927415,-0.330136,0.277592,0.018386,0.312177
1113,-0.190883,0.941312,-0.278348,0.231121,-0.176541,0.359937
1114,-0.1833769999999999,0.958391,-0.218723,0.114072,-0.249987,0.4265319999999999
1115,-0.153294,0.975055,-0.160459,-0.075771,-0.410709,0.2111489999999999
1116,-0.1217829999999999,0.985873,-0.114896,-0.123883,-0.327945,0.051938
1117,-0.107015,0.990942,-0.080992,-0.433253,-0.33814,-0.253725
1118,-0.11877,0.991517,-0.052582,-0.5853470000000001,-0.325867,-0.1758569999999999
1119,-0.1444359999999999,0.989179,-0.0252949999999999,0.063458,-0.239423,0.476925
1120,-0.169752,0.985473,-0.00156,0.412993,0.019364,0.077152
1121,-0.192538,0.980498,0.039083,0.615908,0.196916,-0.449605
1122,-0.202281,0.976381,0.075745,0.3568989999999999,0.1852859999999999,-0.508378
1123,-0.211113,0.973855,0.083732,-0.032479,0.456046,-0.152824
1124,-0.2215349999999999,0.971552,0.083566,0.24363,0.443838,0.0972809999999999
1125,-0.225113,0.970231,0.089157,0.2540739999999999,0.503371,-0.155167
1126,-0.224234,0.971429,0.077583,0.408637,0.685294,-0.498818
1127,-0.216428,0.975349,0.042767,0.452542,0.640023,-0.467312
1128,-0.202352,0.979214,-0.013061,0.321401,0.7466470000000001,-0.2695619999999999
1129,-0.18762,0.977858,-0.092583,-0.0629909999999999,0.357531,0.1195
1130,-0.167023,0.971421,-0.168595,-0.088775,0.570129,1.106202
1131,-0.150631,0.961013,-0.2318329999999999,-0.134983,0.737123,1.25614
1132,-0.137929,0.943626,-0.300882,-0.508312,0.816033,0.365717
1133,-0.132472,0.922767,-0.361853,-0.480855,0.6370779999999999,-0.014216
1134,-0.123027,0.902242,-0.41329,-0.529988,0.584559,0.404348
1135,-0.09548,0.8816780000000001,-0.462075,-0.4327029999999999,0.361913,0.601052
1136,-0.069411,0.8659899999999999,-0.495208,-0.177308,0.18238,1.173156
1137,-0.058546,0.849514,-0.524297,0.392638,-0.171779,0.8434809999999999
1138,-0.026217,0.826807,-0.561865,-0.0583169999999999,-0.33346,0.5443020000000001
1139,-0.0151479999999999,0.804185,-0.594179,-0.127827,-0.506364,0.844957
1140,-0.027668,0.7791100000000001,-0.62627,-0.005047,-0.639675,0.988773
1141,-0.05629,0.75547,-0.652755,-0.103149,-0.755271,1.013305
1142,-0.096411,0.7394890000000001,-0.666223,-0.120919,-0.790331,1.120737
1143,-0.138699,0.7338060000000001,-0.665044,-0.076771,-0.725414,1.140218
1144,-0.173416,0.739193,-0.650778,0.064636,-0.6834979999999999,0.965445
1145,-0.1907859999999999,0.758369,-0.623272,0.185766,-0.6107100000000001,0.5135310000000001
1146,-0.187526,0.7910659999999999,-0.58227,0.1153059999999999,-0.2092949999999999,-0.278554
1147,-0.178781,0.818392,-0.546133,-0.4161899999999999,1.45619,-1.285257
1148,-0.17825,0.8142689999999999,-0.552434,-0.218921,2.319261,-1.753352
1149,-0.177121,0.8023399999999999,-0.569973,0.333355,0.242948,-0.054325
1150,-0.168091,0.784803,-0.596507,0.080521,-0.251508,-0.094716
1151,-0.166896,0.773856,-0.61097,0.359905,-0.422247,0.109322
1152,-0.169037,0.786371,-0.594169,0.1713869999999999,0.31484,0.60775
1153,-0.128644,0.791148,-0.597935,-0.94292,2.727971,0.117924
1154,-0.137711,0.771058,-0.621689,-0.757355,0.364532,0.928879
1155,-0.157251,0.774079,-0.613242,-0.545737,-1.468155,1.370261
1156,-0.128658,0.803963,-0.580587,-0.388203,-1.008034,1.251028
1157,-0.086322,0.833198,-0.546186,-0.169629,0.210778,1.32411
1158,-0.080565,0.868244,-0.48954,-0.199022,0.860088,0.836174
1159,-0.1055059999999999,0.901976,-0.418682,-0.05314,1.051088,0.8497889999999999
1160,-0.122264,0.909005,-0.398433,0.408854,0.590019,0.681239
1161,-0.133438,0.908524,-0.395934,0.604889,0.1643359999999999,-0.078171
1162,-0.1560349999999999,0.916567,-0.368161,0.303176,0.1166359999999999,0.1014679999999999
1163,-0.1737119999999999,0.930366,-0.322842,0.358985,-0.086449,0.4781609999999999
1164,-0.182023,0.947866,-0.261536,0.202424,-0.319799,0.6522680000000001
1165,-0.167416,0.967863,-0.187602,0.088436,-0.414625,0.39529
1166,-0.14094,0.982065,-0.12516,-0.189855,-0.310007,-0.097893
1167,-0.1212829999999999,0.988415,-0.091129,-0.1237119999999999,-0.2654849999999999,-0.2497219999999999
1168,-0.1191089999999999,0.990801,-0.064069,-0.258317,-0.224596,-0.418612
1169,-0.1335579999999999,0.990335,-0.03711,-0.276918,-0.226541,-0.033538
1170,-0.154567,0.98785,-0.015471,0.239986,-0.049419,0.252059
1171,-0.175288,0.984491,0.005461,0.325312,-0.022134,0.177797
1172,-0.190891,0.980727,0.041372,0.324085,0.054002,-0.4000599999999999
1173,-0.197036,0.97846,0.061397,0.038055,0.252833,-0.2209429999999999
1174,-0.2056199999999999,0.976848,0.05887,-0.0067519999999999,0.381871,-0.07773
1175,-0.209429,0.975737,0.06367,0.229525,0.376223,-0.0572299999999999
1176,-0.210588,0.974734,0.074307,0.224275,0.5180939999999999,-0.338131
1177,-0.209465,0.976277,0.0546179999999999,0.4628069999999999,0.7414350000000001,-0.400733
1178,-0.199988,0.979684,0.014127,0.297248,0.8820399999999999,-0.280728
1179,-0.18355,0.98174,-0.049741,0.119844,0.5208079999999999,-0.03641
1180,-0.165979,0.978173,-0.12493,-0.247138,0.197028,0.505317
1181,-0.1496569999999999,0.969988,-0.191593,-0.294511,0.6378159999999999,1.022037
1182,-0.138027,0.955406,-0.261017,-0.4161109999999999,0.8281930000000001,0.972885
1183,-0.128552,0.936888,-0.325114,-0.5326569999999999,0.734712,0.121699
1184,-0.120921,0.916682,-0.380865,-0.414495,0.6326039999999999,0.177924
1185,-0.103815,0.894934,-0.433939,-0.4223689999999999,0.617395,0.338541
1186,-0.060321,0.880023,-0.471071,-0.399686,0.553403,0.684298
1187,-0.038272,0.8636010000000001,-0.502709,-0.10246,0.122895,1.027612
1188,-0.018634,0.8378559999999999,-0.545563,0.139087,-0.179226,0.768463
1189,0.000953,0.810783,-0.585338,-0.148551,-0.4627449999999999,0.737896
1190,-0.002221,0.7824770000000001,-0.622668,-0.066367,-0.541938,0.949695
1191,-0.019832,0.75474,-0.655718,-0.038349,-0.657008,0.948489
1192,-0.054143,0.732395,-0.678719,-0.1220349999999999,-0.6937439999999999,1.044502
1193,-0.0991409999999999,0.7188180000000001,-0.688088,-0.127132,-0.714851,1.139229
1194,-0.14146,0.7161270000000001,-0.683479,-0.023701,-0.687105,1.1511
1195,-0.1681,0.72655,-0.666229,0.067804,-0.706637,0.928542
1196,-0.173261,0.752866,-0.634953,0.129621,-0.6428659999999999,0.420658
1197,-0.163649,0.79237,-0.587673,0.0434709999999999,-0.108456,-0.267323
1198,-0.157445,0.818291,-0.552812,-0.1743569999999999,0.4938729999999999,-0.672347
1199,-0.161022,0.814662,-0.557125,0.364742,1.6563310000000002,-0.9977
1200,-0.15986,0.8032020000000001,-0.5738479999999999,0.4405,0.8858090000000001,-0.431156
1201,-0.152466,0.789656,-0.5942970000000001,0.088578,-0.193465,-0.197329
1202,-0.153279,0.786473,-0.598295,-0.048686,0.208537,0.011182
1203,-0.136689,0.787439,-0.601039,-0.316817,2.591086,0.025141
1204,-0.126288,0.749301,-0.650071,-0.753199,1.705945,-0.110122
1205,-0.151056,0.742225,-0.652899,-0.728903,-2.649848,2.437719
1206,-0.125355,0.778115,-0.61548,-0.537624,-0.855858,0.900774
1207,-0.064426,0.814257,-0.57691,-0.315106,0.593137,2.03501
1208,-0.0453579999999999,0.85282,-0.5202220000000001,-0.235496,0.98327,0.601902
1209,-0.058397,0.891709,-0.448814,-0.025557,0.705765,0.828285
1210,-0.077994,0.907837,-0.411991,0.243002,0.922256,1.01479
1211,-0.096371,0.908074,-0.407556,0.499569,0.150321,0.106531
1212,-0.124093,0.910733,-0.393897,0.4298939999999999,0.0528909999999999,-0.164117
1213,-0.152015,0.921818,-0.356552,0.244071,0.043239,0.256912
1214,-0.172329,0.935693,-0.307842,0.314861,-0.21879,0.49583
1215,-0.175166,0.95345,-0.245428,0.233958,-0.276372,0.507009
1216,-0.152659,0.971575,-0.180886,0.168101,-0.31737,0.4021389999999999
1217,-0.119417,0.984101,-0.131402,-0.122832,-0.280534,-0.062491
1218,-0.0985019999999999,0.990951,-0.091075,-0.318368,-0.285065,-0.273488
1219,-0.102306,0.992849,-0.06136,-0.5889479999999999,-0.264471,-0.331004
1220,-0.123968,0.991544,-0.038117,0.1303609999999999,-0.131162,0.295197
1221,-0.147799,0.988815,-0.019503,0.312502,-0.027969,0.177508
1222,-0.171249,0.985207,0.0045899999999999,0.581497,0.135597,-0.274014
1223,-0.186884,0.981706,0.036144,0.308238,0.056334,-0.367198
1224,-0.1943089999999999,0.979594,0.051163,0.113239,0.2283369999999999,-0.256531
1225,-0.20401,0.977463,0.054067,0.270523,0.396835,0.239771
1226,-0.208413,0.975798,0.066038,0.173379,0.476274,-0.0546539999999999
1227,-0.209948,0.975033,0.072182,0.185564,0.552555,-0.308449
1228,-0.2063489999999999,0.977292,0.047945,0.451665,0.668048,-0.406572
1229,-0.193797,0.981,0.0077569999999999,0.363536,0.890307,-0.212026
1230,-0.177503,0.982578,-0.054897,-0.020037,0.496289,-0.025685
1231,-0.160821,0.978397,-0.129832,-0.21952,0.0158199999999999,0.4679359999999999
1232,-0.145978,0.969523,-0.196717,-0.2458679999999999,0.677724,1.148041
1233,-0.13255,0.953686,-0.269996,-0.348544,0.850727,1.035514
1234,-0.121247,0.933351,-0.3378469999999999,-0.51651,0.737319,0.186373
1235,-0.117894,0.912752,-0.3911139999999999,-0.487575,0.698133,0.066026
1236,-0.106296,0.891077,-0.441216,-0.5089229999999999,0.507239,0.451714
1237,-0.075133,0.868643,-0.489697,-0.404496,0.319895,0.762921
1238,-0.059372,0.8546389999999999,-0.515806,-0.004181,0.0575309999999999,1.148405
1239,-0.039068,0.836111,-0.5471590000000001,0.359518,-0.18514,0.766015
1240,-0.01383,0.8124640000000001,-0.582839,-0.095789,-0.363642,0.6483140000000001
1241,-0.014256,0.7873680000000001,-0.6163109999999999,-0.10162,-0.503616,0.8775719999999999
1242,-0.031339,0.7617649999999999,-0.647089,-0.035799,-0.56897,0.950144
1243,-0.0624179999999999,0.740158,-0.669525,-0.068716,-0.679229,1.013031
1244,-0.102211,0.726862,-0.67913,-0.082054,-0.73382,1.129875
1245,-0.139345,0.724427,-0.6751149999999999,-0.03105,-0.719438,1.157278
1246,-0.163832,0.735398,-0.6575270000000001,0.081237,-0.702805,0.95756
1247,-0.169419,0.7613979999999999,-0.625749,0.130234,-0.628738,0.464158
1248,-0.157637,0.798381,-0.581145,0.042448,-0.095347,-0.291261
1249,-0.145524,0.8192780000000001,-0.554614,-0.377838,1.5742459999999998,-1.360105
1250,-0.149455,0.813447,-0.562102,0.3960059999999999,1.6753080000000002,-1.043565
1251,-0.149859,0.8001729999999999,-0.580738,0.350985,0.213179,0.01038
1252,-0.142541,0.783716,-0.604535,0.0781029999999999,-0.285853,-0.107151
1253,-0.139626,0.776987,-0.613829,0.23481,-0.13064,-0.047853
1254,-0.130521,0.785551,-0.6048680000000001,-0.041079,1.353136,0.223032
1255,-0.102952,0.7583949999999999,-0.6436069999999999,-0.810027,3.237393,-0.43908
1256,-0.127091,0.740049,-0.660431,-0.5437310000000001,-1.951947,2.619705
1257,-0.118995,0.767696,-0.629663,-0.865029,-1.445079,1.047112
1258,-0.065398,0.804484,-0.590355,-0.273026,0.325337,1.938363
1259,-0.035492,0.8399459999999999,-0.5415,-0.25148,0.971776,0.6618149999999999
1260,-0.044996,0.878798,-0.475056,-0.138796,0.748109,0.7730600000000001
1261,-0.0693,0.8996860000000001,-0.430987,-0.053899,0.63608,0.8689450000000001
1262,-0.087569,0.901728,-0.423327,0.513411,0.2425739999999999,0.285204
1263,-0.109447,0.906327,-0.408143,0.4257,0.050842,-0.137206
1264,-0.133523,0.918862,-0.371283,0.265588,0.057884,0.385596
1265,-0.1494579999999999,0.93421,-0.323882,0.229475,-0.16947,0.37332
1266,-0.157174,0.950707,-0.267275,0.058572,-0.319833,0.377825
1267,-0.145896,0.967604,-0.206007,0.029212,-0.375151,0.237532
1268,-0.116002,0.981064,-0.155044,-0.050472,-0.362335,-0.001298
1269,-0.0892039999999999,0.989292,-0.1154289999999999,-0.1302019999999999,-0.3275639999999999,-0.01334
1270,-0.078804,0.993545,-0.081474,-0.475303,-0.392105,-0.25431
1271,-0.092459,0.994576,-0.047419,-0.393579,-0.267113,0.1085
1272,-0.119521,0.99257,-0.02234,0.245971,0.024673,0.07303
1273,-0.1479,0.988983,0.004046,0.52972,0.243881,-0.373446
1274,-0.166985,0.985096,0.04099,0.632683,0.1633109999999999,-0.373586
1275,-0.172818,0.983708,0.049297,0.076779,0.286831,-0.166973
1276,-0.178723,0.982818,0.0458779999999999,0.233075,0.359635,0.293035
1277,-0.183311,0.981803,0.049355,0.193153,0.364281,0.096
1278,-0.184382,0.980916,0.061512,0.16955,0.502574,-0.459049
1279,-0.184893,0.981751,0.0442339999999999,0.343432,0.581192,-0.470626
1280,-0.180835,0.983495,0.0036409999999999,0.375048,0.7445930000000001,-0.390314
1281,-0.169689,0.983911,-0.055712,0.277248,0.706626,-0.160963
1282,-0.155144,0.97896,-0.132468,0.011986,0.039899,0.358725
1283,-0.140183,0.969644,-0.200301,-0.25624,0.451162,1.097747
1284,-0.127846,0.954322,-0.270016,-0.311942,0.744286,1.124844
1285,-0.118199,0.9344,-0.336024,-0.442012,0.952762,0.8426
1286,-0.1143,0.91301,-0.39158,-0.431065,0.690079,0.310602
1287,-0.100933,0.8895040000000001,-0.445627,-0.444431,0.713585,0.364649
1288,-0.0640039999999999,0.8667370000000001,-0.494631,-0.549689,0.465905,0.526293
1289,-0.038031,0.849675,-0.525924,-0.211648,0.247509,1.055847
1290,-0.0286079999999999,0.8361280000000001,-0.547779,0.006971,0.2456739999999999,1.212803
1291,0.000408,0.8105100000000001,-0.585717,-0.001735,-0.269219,0.574639
1292,0.001545,0.782752,-0.622325,-0.087971,-0.422324,0.8453780000000001
1293,-0.016024,0.754713,-0.655854,-0.065046,-0.6476569999999999,0.98996
1294,-0.048639,0.7310949999999999,-0.680535,-0.146979,-0.749375,1.059044
1295,-0.088616,0.717409,-0.690988,-0.1783829999999999,-0.804918,1.146585
1296,-0.127993,0.715061,-0.68724,-0.0744,-0.7242770000000001,1.168792
1297,-0.1580609999999999,0.725643,-0.669666,0.043116,-0.700878,1.008106
1298,-0.171408,0.751306,-0.6373,0.113226,-0.686426,0.637269
1299,-0.1630349999999999,0.790243,-0.590701,0.057612,-0.385778,0.039172
1300,-0.151115,0.822149,-0.54884,-0.512413,0.882502,-0.827442
1301,-0.148499,0.817429,-0.556551,0.190995,2.431564,-1.645735
1302,-0.148475,0.800583,-0.5805279999999999,0.583335,0.5808260000000001,-0.3523179999999999
1303,-0.1447109999999999,0.778416,-0.610834,0.2200889999999999,-0.224583,-0.142263
1304,-0.141348,0.767634,-0.6251,0.4541229999999999,-0.486964,0.062677
1305,-0.139239,0.7815810000000001,-0.608058,0.223117,0.061299,0.75326
1306,-0.108339,0.78047,-0.6157279999999999,-1.064375,2.275911,0.163274
1307,-0.12752,0.754097,-0.644258,-0.5707220000000001,1.626198,0.377153
1308,-0.1436049999999999,0.7549859999999999,-0.6398159999999999,-0.452937,-1.6967279999999998,1.7297360000000002
1309,-0.112176,0.784455,-0.609949,-0.418555,-1.376298,1.3570799999999998
1310,-0.067092,0.814682,-0.576005,-0.257706,0.639099,1.008393
1311,-0.058513,0.8526229999999999,-0.51923,-0.197041,0.7550279999999999,0.784229
1312,-0.073087,0.887498,-0.454966,0.001294,0.8652799999999999,0.988978
1313,-0.084089,0.8950290000000001,-0.4379949999999999,0.309507,0.8738469999999999,0.93357
1314,-0.100767,0.8957959999999999,-0.432876,0.4401069999999999,0.233217,0.114471
1315,-0.130426,0.903582,-0.408063,0.162424,0.215955,0.289502
1316,-0.15616,0.917839,-0.364926,0.272859,-0.106728,0.460934
1317,-0.169148,0.937725,-0.303388,0.27892,-0.197918,0.489545
1318,-0.161738,0.958873,-0.233208,0.022502,-0.400386,0.2711719999999999
1319,-0.136896,0.975512,-0.172096,-0.046057,-0.468355,0.142845
1320,-0.10644,0.985856,-0.129375,-0.102086,-0.438233,0.105266
1321,-0.0879269999999999,0.991459,-0.096207,-0.294703,-0.288746,-0.260468
1322,-0.093001,0.993872,-0.059558,-0.4865279999999999,-0.339438,-0.1467109999999999
1323,-0.115148,0.992877,-0.030229,-0.01829,-0.184665,0.249009
1324,-0.141572,0.989881,-0.008383,0.260972,0.117342,-0.081019
1325,-0.167236,0.985476,0.029063,0.5100100000000001,0.214047,-0.444331
1326,-0.182138,0.981351,0.061245,0.47648,0.14223,-0.3039969999999999
1327,-0.188527,0.980071,0.062401,0.226217,0.413041,0.1191329999999999
1328,-0.190572,0.979784,0.06067,0.2208449999999999,0.416563,0.199935
1329,-0.189654,0.979242,0.071354,0.110903,0.4792079999999999,-0.12476
1330,-0.188887,0.979901,0.063964,0.335737,0.73154,-0.3314809999999999
1331,-0.181097,0.982952,0.031386,0.573476,0.8935129999999999,-0.2081889999999999
1332,-0.164238,0.986209,-0.019847,0.165855,0.98396,-0.220906
1333,-0.150698,0.984067,-0.094234,-0.298582,0.257357,0.0393639999999999
1334,-0.141449,0.975814,-0.166616,-0.218216,0.25992,0.8238120000000001
1335,-0.132527,0.96168,-0.239981,-0.19308,0.5937399999999999,1.096472
1336,-0.123549,0.942002,-0.312013,-0.355455,0.754303,0.788957
1337,-0.118494,0.920259,-0.372919,-0.470022,0.6780229999999999,0.179895
1338,-0.119321,0.898133,-0.423208,-0.488803,0.6965779999999999,0.0293029999999999
1339,-0.1045859999999999,0.879131,-0.46495,-0.596769,0.5386850000000001,0.57489
1340,-0.071505,0.86193,-0.501949,-0.100965,0.22239,0.920452
1341,-0.0553419999999999,0.836765,-0.544748,0.0411819999999999,0.2368429999999999,1.078714
1342,-0.030284,0.804723,-0.592869,-0.016561,-0.334493,0.684956
1343,-0.026405,0.7743899999999999,-0.632151,-0.063545,-0.4594479999999999,0.897501
1344,-0.036572,0.744291,-0.666848,0.016904,-0.538587,0.982567
1345,-0.06057,0.718379,-0.693004,0.017037,-0.626293,0.981304
1346,-0.102386,0.700071,-0.7066899999999999,-0.081223,-0.6172770000000001,1.114191
1347,-0.15103,0.692443,-0.7054819999999999,-0.042879,-0.5906060000000001,1.168648
1348,-0.187435,0.699696,-0.6894100000000001,0.132107,-0.645878,0.948977
1349,-0.200525,0.7240439999999999,-0.659956,0.225976,-0.629424,0.445601
1350,-0.185025,0.765315,-0.616482,0.184674,-0.5338390000000001,0.077496
1351,-0.163647,0.803491,-0.5723739999999999,-0.480534,1.473273,-1.263762
1352,-0.1663619999999999,0.804762,-0.5697989999999999,0.264476,1.884126,-1.044032
1353,-0.176011,0.79087,-0.586119,0.3990329999999999,1.0789879999999998,-0.396074
1354,-0.178929,0.769439,-0.613139,0.042302,-0.180785,-0.0877889999999999
1355,-0.181695,0.75425,-0.63094,-0.053595,0.2939219999999999,0.2832989999999999
1356,-0.183168,0.759953,-0.623628,-0.154921,1.379161,0.614183
1357,-0.153979,0.75158,-0.641413,-0.877775,2.758461,-0.279623
1358,-0.166034,0.7246819999999999,-0.668776,-0.728543,-1.595776,1.84062
1359,-0.181245,0.739808,-0.64794,-0.47267,-1.128923,1.2457790000000002
1360,-0.127895,0.776565,-0.616912,-0.005131,0.230713,1.80748
1361,-0.07505,0.809399,-0.582436,-0.262428,0.594471,1.02964
1362,-0.068138,0.848699,-0.524458,-0.073585,0.692972,0.813826
1363,-0.087457,0.8828520000000001,-0.4614229999999999,0.095422,1.055609,1.145215
1364,-0.105543,0.889942,-0.44368,0.4971899999999999,0.2284969999999999,0.296036
1365,-0.123213,0.8905870000000001,-0.437791,0.591368,0.159157,-0.152251
1366,-0.151197,0.9001879999999999,-0.4083969999999999,0.346723,0.075032,0.391964
1367,-0.173242,0.913404,-0.368329,0.261789,-0.2170389999999999,0.455914
1368,-0.1862349999999999,0.928542,-0.321109,0.2048199999999999,-0.278273,0.4684319999999999
1369,-0.1784869999999999,0.947708,-0.264527,0.044423,-0.325547,0.37143
1370,-0.147273,0.967653,-0.204794,-0.076085,-0.327852,0.118322
1371,-0.112169,0.981795,-0.153223,-0.120726,-0.3089739999999999,-0.089132
1372,-0.094794,0.988616,-0.116757,-0.529504,-0.308196,-0.367404
1373,-0.103241,0.990414,-0.091656,-0.382873,-0.142697,0.222546
1374,-0.126345,0.989572,-0.069017,0.010928,-0.062646,0.272356
1375,-0.151863,0.987044,-0.051576,0.404305,0.083604,-0.095122
1376,-0.176593,0.984057,-0.0206,0.612537,0.141904,-0.288864
1377,-0.190114,0.981612,0.016488,0.442891,0.103959,-0.379311
1378,-0.196141,0.980185,0.0272649999999999,0.292561,0.443613,0.156924
1379,-0.201462,0.979181,0.024404,0.215943,0.454459,0.052302
1380,-0.203784,0.978354,0.0356649999999999,0.224719,0.503839,-0.398229
1381,-0.205981,0.977946,0.0342149999999999,0.481951,0.679082,-0.4976399999999999
1382,-0.2049659999999999,0.978756,-0.001839,0.443201,0.793201,-0.339867
1383,-0.197591,0.978766,-0.054353,0.230016,0.624368,-0.066924
1384,-0.188221,0.973567,-0.129313,-0.098446,0.107793,0.4266
1385,-0.180224,0.963066,-0.200014,-0.233168,0.527107,1.152147
1386,-0.1715549999999999,0.947536,-0.269684,-0.250397,0.83141,1.1177979999999998
1387,-0.163856,0.92519,-0.342287,-0.394219,0.8544430000000001,0.5784779999999999
1388,-0.155042,0.901358,-0.404354,-0.367953,0.7594390000000001,0.106349
1389,-0.14326,0.8796149999999999,-0.453588,-0.451985,0.593591,0.337957
1390,-0.112197,0.856592,-0.503637,-0.328767,0.509466,0.633368
1391,-0.076485,0.8370190000000001,-0.5417930000000001,0.070702,0.251681,1.143417
1392,-0.062059,0.8212780000000001,-0.567134,0.418245,0.124568,1.022334
1393,-0.032994,0.7947609999999999,-0.606019,-0.143032,-0.29177,0.630997
1394,-0.028361,0.764725,-0.643727,-0.108617,-0.4637449999999999,0.939534
1395,-0.053021,0.730784,-0.680542,0.01289,-0.5360659999999999,1.040131
1396,-0.093693,0.7015359999999999,-0.706444,-0.149715,-0.781507,1.073936
1397,-0.14332,0.683087,-0.716133,-0.132727,-0.732083,1.1742780000000002
1398,-0.189972,0.676914,-0.71112,-0.073792,-0.591083,1.19815
1399,-0.221478,0.683258,-0.695773,0.044231,-0.522079,1.0622280000000002
1400,-0.2323619999999999,0.703425,-0.67171,0.06064,-0.526423,0.7114739999999999
1401,-0.222685,0.738007,-0.636985,0.189405,-0.3291929999999999,0.138389
1402,-0.201272,0.778796,-0.594102,-0.026465,0.490262,-0.6556390000000001
1403,-0.182215,0.797586,-0.575017,-0.106038,1.855673,-1.572001
1404,-0.179589,0.7960659999999999,-0.577943,0.512566,0.876099,-0.540343
1405,-0.176708,0.784602,-0.594277,0.451061,0.143514,-0.259163
1406,-0.181978,0.765552,-0.617095,0.198473,-0.252033,0.226684
1407,-0.192242,0.761412,-0.619102,-0.047473,-0.011427,0.544746
1408,-0.176668,0.771252,-0.6115149999999999,-0.092909,0.696735,0.481602
1409,-0.142197,0.74841,-0.647809,-1.222839,2.572345,-0.461643
1410,-0.1615069999999999,0.7283109999999999,-0.665937,-0.7208319999999999,-2.1334470000000003,2.035688
1411,-0.156498,0.749693,-0.643009,-0.49577,-0.936186,1.00298
1412,-0.106357,0.782153,-0.6139359999999999,-0.211407,0.42613,1.750945
1413,-0.070089,0.811661,-0.579902,-0.248453,0.653412,0.800346
1414,-0.076646,0.85162,-0.518517,0.118944,1.244236,1.217003
1415,-0.09919,0.87385,-0.475959,0.622323,0.655416,0.746513
1416,-0.110455,0.875864,-0.469735,0.6762050000000001,0.3819639999999999,0.17347
1417,-0.135007,0.8830620000000001,-0.449402,0.324262,0.2011359999999999,0.34874
1418,-0.158038,0.894495,-0.418199,0.269717,0.098348,0.472001
1419,-0.173039,0.910993,-0.374347,0.203481,-0.160169,0.466235
1420,-0.176276,0.933566,-0.312038,-0.027948,-0.340426,0.364086
1421,-0.166694,0.955965,-0.24151,-0.1153339999999999,-0.408983,0.2246949999999999
1422,-0.140001,0.972611,-0.1855,-0.020918,-0.374817,0.077071
1423,-0.109771,0.983052,-0.146766,-0.13942,-0.430791,0.033378
1424,-0.0960559999999999,0.98836,-0.11789,-0.316877,-0.4169029999999999,-0.214325
1425,-0.112048,0.9899,-0.086736,-0.236401,-0.306871,0.435781
1426,-0.140293,0.988453,-0.057083,0.336078,0.114178,-0.053788
1427,-0.169348,0.985325,-0.020866,0.633582,0.280667,-0.439629
1428,-0.186874,0.982195,0.018711,0.393737,0.102003,-0.319003
1429,-0.190685,0.981361,0.02342,0.092083,0.323754,0.041338
1430,-0.195501,0.980484,0.020232,0.269613,0.315949,0.297211
1431,-0.201693,0.979013,0.028818,0.238925,0.403265,-0.042337
1432,-0.204087,0.977969,0.043615,0.242219,0.6182529999999999,-0.454534
1433,-0.204684,0.978551,0.022789,0.395862,0.684077,-0.426216
1434,-0.199997,0.979645,-0.016607,0.273789,0.8722540000000001,-0.245265
1435,-0.192633,0.978181,-0.077678,-0.014658,0.519469,-0.015004
1436,-0.18627,0.970224,-0.1547609999999999,-0.161997,0.188529,0.564826
1437,-0.177191,0.957232,-0.228675,-0.103052,0.6032689999999999,1.147789
1438,-0.168087,0.938284,-0.302248,-0.259876,0.893244,0.974108
1439,-0.163265,0.914327,-0.370589,-0.391621,0.7487739999999999,0.2624039999999999
1440,-0.159505,0.8912209999999999,-0.4245819999999999,-0.409938,0.701125,0.245306
1441,-0.146223,0.8672540000000001,-0.475896,-0.510943,0.662058,0.508215
1442,-0.108774,0.845807,-0.522271,-0.3805139999999999,0.37778,0.734811
1443,-0.088119,0.830053,-0.550669,0.265427,0.23884,1.092661
1444,-0.071243,0.811949,-0.5793560000000001,0.371872,-0.186858,0.844141
1445,-0.047041,0.785,-0.6177,-0.089784,-0.475155,0.858926
1446,-0.050944,0.755548,-0.653103,0.003123,-0.504587,0.971615
1447,-0.073362,0.72748,-0.682191,0.0429509999999999,-0.608827,1.055451
1448,-0.108269,0.706933,-0.6989390000000001,-0.164253,-0.7435390000000001,1.141459
1449,-0.152428,0.696333,-0.701341,-0.096886,-0.701308,1.189713
1450,-0.193252,0.696824,-0.690712,-0.0505829999999999,-0.7032930000000001,1.176842
1451,-0.220079,0.709803,-0.669132,0.141969,-0.6038,0.741352
1452,-0.22578,0.7353609999999999,-0.638951,0.19775,-0.539805,0.417684
1453,-0.209767,0.770088,-0.602456,0.192677,-0.348473,0.020165
1454,-0.186978,0.791153,-0.582329,-0.042636,2.291641,-1.795845
1455,-0.189518,0.7860550000000001,-0.58838,0.297551,1.645464,-1.130492
1456,-0.1985309999999999,0.7723760000000001,-0.603333,0.499496,0.320046,0.0103
1457,-0.205763,0.748974,-0.629834,0.326765,-0.211025,0.021512
1458,-0.221051,0.74187,-0.633053,-0.057254,-0.575855,0.17706
1459,-0.223903,0.761129,-0.608721,-0.067006,0.841318,1.0276809999999998
1460,-0.185245,0.7543569999999999,-0.629778,-1.409909,2.992301,-0.36659
1461,-0.210076,0.730536,-0.649751,-0.286628,-0.808081,1.55977
1462,-0.2162099999999999,0.743243,-0.633115,0.014,-0.76839,1.170026
1463,-0.166398,0.776526,-0.607709,0.130341,0.260888,1.71333
1464,-0.1107549999999999,0.808026,-0.578634,-0.184732,0.6887850000000001,1.092565
1465,-0.0968059999999999,0.846018,-0.524282,-0.081508,0.95722,0.7608689999999999
1466,-0.1158299999999999,0.877758,-0.464879,0.350358,0.908421,0.882222
1467,-0.134021,0.8830180000000001,-0.4497819999999999,0.5632199999999999,0.181267,0.225265
1468,-0.155421,0.8824709999999999,-0.4439329999999999,0.4414619999999999,0.194876,0.01008
1469,-0.182245,0.890012,-0.417914,0.347711,0.062014,0.398841
1470,-0.202679,0.905733,-0.372231,0.33479,-0.136018,0.543709
1471,-0.21174,0.924306,-0.317505,0.182428,-0.316548,0.596176
1472,-0.198744,0.946122,-0.255612,0.101972,-0.29683,0.292492
1473,-0.170124,0.966115,-0.194069,-0.073895,-0.3397409999999999,0.014488
1474,-0.138171,0.979001,-0.149824,-0.0932279999999999,-0.190701,-0.088228
1475,-0.119102,0.985685,-0.119253,-0.436379,-0.285932,-0.31132
1476,-0.1232289999999999,0.987827,-0.094825,-0.364427,-0.221882,0.2199469999999999
1477,-0.143663,0.987058,-0.071113,0.18657,-0.066526,0.264992
1478,-0.167187,0.984632,-0.050282,0.435985,0.188296,-0.05772
1479,-0.189397,0.981816,-0.011978,0.6603289999999999,0.1126359999999999,-0.37323
1480,-0.198811,0.979701,0.025227,0.11472,0.157018,-0.347279
1481,-0.2063849999999999,0.977823,0.035271,0.1526279999999999,0.377402,0.032386
1482,-0.2157909999999999,0.975746,0.036467,0.321687,0.45147,0.1523
1483,-0.219437,0.974789,0.040119,0.291779,0.603428,-0.046771
1484,-0.217504,0.975653,0.027756,0.474218,0.772501,-0.27623
1485,-0.205915,0.978553,-0.003218,0.422956,0.9087,-0.150926
1486,-0.190271,0.980255,-0.0536309999999999,-0.203619,0.694809,-0.239506
1487,-0.182389,0.975245,-0.124947,-0.05957,0.244802,0.674767
1488,-0.174657,0.964882,-0.19616,0.03507,0.569633,1.202218
1489,-0.163279,0.94862,-0.271005,-0.03536,0.701329,1.281992
1490,-0.1527339999999999,0.926698,-0.343348,-0.4249479999999999,0.535903,0.088694
1491,-0.15074,0.904685,-0.398508,-0.426943,0.557916,0.143854
1492,-0.155852,0.884216,-0.440295,-0.6143810000000001,0.517563,0.365604
1493,-0.143112,0.859843,-0.490079,-0.139298,0.135168,0.792936
1494,-0.114441,0.833319,-0.540806,-0.167968,0.161691,0.8436629999999999
1495,-0.0919929999999999,0.8185720000000001,-0.5669810000000001,0.325773,-0.057845,1.006266
1496,-0.068162,0.795191,-0.602508,0.091585,-0.428233,0.796615
1497,-0.065448,0.765813,-0.639717,0.0493959999999999,-0.498296,0.832894
1498,-0.080443,0.738475,-0.669459,0.079497,-0.5277970000000001,0.8970290000000001
1499,-0.110391,0.7157020000000001,-0.689621,-0.062445,-0.715763,1.056198
1500,-0.150215,0.701823,-0.696328,-0.0236889999999999,-0.701014,1.120629
1501,-0.190269,0.698126,-0.690224,0.083885,-0.65087,1.153207
1502,-0.218283,0.707,-0.6726770000000001,0.240027,-0.610687,0.952112
1503,-0.2218619999999999,0.731316,-0.644938,0.262893,-0.529931,0.3612619999999999
1504,-0.199287,0.76926,-0.607054,0.099251,-0.015323,-0.382951
1505,-0.181086,0.79073,-0.5847600000000001,-0.401861,1.764888,-1.53078
1506,-0.192483,0.783433,-0.590909,0.315774,1.387358,-0.772479
1507,-0.205548,0.764827,-0.610557,0.218563,0.072621,-0.01516
1508,-0.2067659999999999,0.745877,-0.633173,0.026498,-0.261074,-0.047766
1509,-0.209705,0.740035,-0.639033,-0.032482,0.289048,-0.025411
1510,-0.1913349999999999,0.735989,-0.6493869999999999,-0.388743,2.930057,-0.1665
1511,-0.202259,0.697522,-0.687421,-0.491329,-2.252133,3.100904
1512,-0.218712,0.705713,-0.6738890000000001,-0.77578,-1.01275,0.608109
1513,-0.177852,0.741554,-0.646883,0.048213,0.646065,1.906847
1514,-0.1116619999999999,0.778304,-0.6178710000000001,-0.044695,0.8161930000000001,1.1720549999999998
1515,-0.085909,0.818,-0.568758,0.202638,0.7700739999999999,0.634111
1516,-0.094081,0.856692,-0.507165,0.295223,0.674848,1.032418
1517,-0.110251,0.8788360000000001,-0.464197,0.40499,0.529169,0.855051
1518,-0.1255079999999999,0.885117,-0.448111,0.365056,0.235062,0.374273
1519,-0.140871,0.8896370000000001,-0.434383,0.1774619999999999,0.0899929999999999,0.051495
1520,-0.158559,0.901087,-0.403594,0.169286,0.023031,0.236327
1521,-0.1803529999999999,0.917644,-0.3541,0.241892,-0.087841,0.346425
1522,-0.1960339999999999,0.934858,-0.295963,0.258138,-0.222776,0.5821270000000001
1523,-0.178927,0.955764,-0.2334139999999999,0.120089,-0.392715,0.431122
1524,-0.139256,0.973732,-0.180095,0.035313,-0.405159,0.141643
1525,-0.103844,0.984388,-0.142044,-0.294502,-0.2740309999999999,-0.204025
1526,-0.096596,0.989983,-0.102871,-0.56852,-0.262536,-0.392338
1527,-0.1191319999999999,0.990194,-0.0728169999999999,-0.207833,-0.323721,0.307909
1528,-0.144049,0.988293,-0.050051,0.305732,0.032276,0.076129
1529,-0.166596,0.985744,-0.023072,0.562226,0.127583,-0.254944
1530,-0.1822089999999999,0.983129,0.015306,0.630513,0.196437,-0.384493
1531,-0.186531,0.981776,0.036023,0.238929,0.287496,-0.386502
1532,-0.190891,0.980828,0.038885,0.108021,0.409598,-0.108801
1533,-0.193329,0.980138,0.043907,0.1104589999999999,0.410288,-0.113822
1534,-0.19393,0.980296,0.037235,0.4596,0.734975,-0.419163
1535,-0.188608,0.982041,-0.0001149999999999,0.5456479999999999,0.816086,-0.342842
1536,-0.176246,0.982612,-0.058208,0.412727,0.902855,-0.230748
1537,-0.163036,0.976814,-0.138682,-0.1059619999999999,0.217522,0.317912
1538,-0.1537619999999999,0.965585,-0.209725,-0.2438519999999999,0.462363,0.996483
1539,-0.149248,0.948044,-0.280927,-0.234648,0.8081510000000001,1.101956
1540,-0.150112,0.924119,-0.351361,-0.410282,0.8668959999999999,0.663449
1541,-0.15104,0.897774,-0.413733,-0.5052409999999999,0.6210859999999999,0.1799079999999999
1542,-0.1469109999999999,0.8737889999999999,-0.4635689999999999,-0.496567,0.733129,0.357033
1543,-0.121316,0.8559190000000001,-0.502666,-0.3458469999999999,0.5847399999999999,0.501293
1544,-0.096653,0.8432360000000001,-0.5287729999999999,0.051654,0.440089,1.004389
1545,-0.064664,0.816429,-0.573804,0.298963,0.057533,0.8582129999999999
1546,-0.044692,0.784938,-0.617953,0.009917,-0.361095,0.9368
1547,-0.048448,0.751776,-0.65763,0.03032,-0.396796,1.004111
1548,-0.064198,0.721815,-0.689096,0.046361,-0.507994,1.025125
1549,-0.095851,0.69611,-0.711503,-0.032018,-0.673984,1.091127
1550,-0.136622,0.680647,-0.719755,-0.09844,-0.764632,1.156523
1551,-0.178298,0.67584,-0.715152,-0.005738,-0.711332,1.199619
1552,-0.210559,0.682828,-0.699574,0.160159,-0.6918,1.027134
1553,-0.224419,0.705904,-0.671809,0.28379,-0.640001,0.357615
1554,-0.213303,0.7465189999999999,-0.6302399999999999,0.136857,-0.096617,-0.204691
1555,-0.193393,0.788503,-0.5838260000000001,-0.5257689999999999,1.82754,-1.460974
1556,-0.201994,0.7876350000000001,-0.582082,-0.1310589999999999,2.412469,-1.7078799999999998
1557,-0.213469,0.77288,-0.5975590000000001,0.407194,0.115975,-0.077856
1558,-0.21486,0.7543489999999999,-0.620309,0.064698,-0.270142,-0.168738
1559,-0.213238,0.741164,-0.636551,0.336712,-0.300734,0.089585
1560,-0.219324,0.748901,-0.625329,-0.032995,1.673386,0.540719
1561,-0.1744869999999999,0.741189,-0.648217,-1.446027,3.3210370000000005,-1.084541
1562,-0.2076599999999999,0.705577,-0.6775180000000001,-0.606808,-2.419673,2.6963470000000003
1563,-0.227635,0.7188829999999999,-0.656796,-0.214412,-0.904735,0.998806
1564,-0.167565,0.7577229999999999,-0.630689,0.133645,0.574674,2.015989
1565,-0.0986549999999999,0.794629,-0.599018,-0.011696,0.804218,1.016743
1566,-0.080928,0.837297,-0.540716,0.261302,0.7985680000000001,0.701132
1567,-0.077732,0.8759459999999999,-0.476092,0.447971,0.808563,1.098544
1568,-0.08122,0.8912329999999999,-0.4462,0.414502,0.317721,0.551867
1569,-0.093046,0.8967360000000001,-0.432658,0.206236,0.136757,0.202113
1570,-0.114764,0.9011,-0.4181319999999999,0.044527,0.062019,0.085643
1571,-0.142224,0.911282,-0.386422,0.151044,0.018497,0.27752
1572,-0.171246,0.925747,-0.337124,0.126354,-0.214046,0.441585
1573,-0.181054,0.941717,-0.283499,0.265343,-0.237173,0.5695859999999999
1574,-0.157144,0.960373,-0.230158,0.194543,-0.387268,0.346887
1575,-0.116526,0.976253,-0.182574,0.059016,-0.360194,0.225146
1576,-0.086739,0.985956,-0.142641,-0.128623,-0.38537,0.054262
1577,-0.08726,0.991227,-0.0991669999999999,-0.4003489999999999,-0.3421639999999999,0.202835
1578,-0.1119869999999999,0.991415,-0.06733,-0.375623,-0.342352,0.170998
1579,-0.13482,0.989936,-0.042754,0.168267,0.142999,0.028487
1580,-0.154313,0.987924,-0.0130949999999999,0.521088,0.1138069999999999,-0.377438
1581,-0.166451,0.985842,0.0196,0.630837,0.191617,-0.434029
1582,-0.170461,0.98477,0.033867,0.414541,0.298571,-0.317772
1583,-0.173918,0.984107,0.035523,0.0508259999999999,0.373987,-0.027711
1584,-0.175665,0.983672,0.038819,0.089819,0.408784,-0.228226
1585,-0.1762369999999999,0.983812,0.032083,0.155638,0.552305,-0.4288119999999999
1586,-0.17497,0.984552,-0.00449,0.3930949999999999,0.871466,-0.611293
1587,-0.169957,0.98343,-0.062922,0.388081,0.8725879999999999,-0.5528609999999999
1588,-0.159114,0.976213,-0.147214,0.281489,0.283568,0.274045
1589,-0.148747,0.964107,-0.2198969999999999,-0.112743,0.547887,1.111148
1590,-0.145701,0.945925,-0.289792,-0.198995,0.8999,1.162992
1591,-0.151576,0.918622,-0.3648889999999999,-0.441167,1.117633,0.612554
1592,-0.157791,0.8902899999999999,-0.427168,-0.55809,0.792022,0.116469
1593,-0.152061,0.870374,-0.46831,-0.5210199999999999,0.7408319999999999,0.329806
1594,-0.123045,0.857508,-0.4995279999999999,-0.3205429999999999,0.5705319999999999,0.853151
1595,-0.076611,0.841822,-0.53428,0.207196,0.35166,0.8897639999999999
1596,-0.054821,0.810982,-0.582489,0.185238,0.058037,0.947525
1597,-0.039522,0.776863,-0.628421,-0.0953659999999999,-0.319069,0.862765
1598,-0.0444769999999999,0.7435609999999999,-0.667181,-0.0277269999999999,-0.5272220000000001,0.992681
1599,-0.064987,0.71191,-0.6992520000000001,0.099899,-0.617672,1.064288
1600,-0.099441,0.6880470000000001,-0.718815,0.050673,-0.724409,1.1073959999999998
1601,-0.149263,0.674307,-0.723204,0.0490279999999999,-0.75315,1.27693
1602,-0.2021619999999999,0.6710050000000001,-0.7133550000000001,0.057875,-0.702972,1.289649
1603,-0.2440119999999999,0.679583,-0.691822,0.163354,-0.683779,1.10114
1604,-0.262606,0.7022430000000001,-0.661728,0.26964,-0.632724,0.583832
1605,-0.25529,0.738712,-0.623797,0.170176,-0.42377,-0.187085
1606,-0.240861,0.771516,-0.588846,-0.271606,0.729888,-1.138571
1607,-0.25153,0.7671640000000001,-0.59007,-0.215023,2.542635,-1.367084
1608,-0.269234,0.745683,-0.609476,0.347283,0.596801,-0.086127
1609,-0.275111,0.718375,-0.638939,0.008296,-0.059119,0.162163
1610,-0.278584,0.700652,-0.656863,-0.26968,-0.053146,-0.236554
1611,-0.2792929999999999,0.690075,-0.66767,-0.589512,2.037769,-0.388833
1612,-0.307632,0.649438,-0.695403,-0.150452,2.121069,0.41101
1613,-0.308194,0.659262,-0.685844,0.299496,-2.415076,2.97715
1614,-0.256371,0.6928,-0.674014,0.0386279999999999,0.6066239999999999,0.818164
1615,-0.183799,0.731842,-0.656215,-0.031426,0.837464,1.757869
1616,-0.132878,0.7701140000000001,-0.6239060000000001,0.268041,0.592801,0.581533
1617,-0.1130299999999999,0.804743,-0.582755,0.171899,0.207693,0.8598690000000001
1618,-0.112121,0.83741,-0.534941,0.1330859999999999,0.597603,1.026198
1619,-0.131457,0.854713,-0.5021680000000001,0.2215599999999999,0.8674850000000001,0.92177
1620,-0.153802,0.859016,-0.4882859999999999,0.312417,0.532265,0.659139
1621,-0.194686,0.8714,-0.4502739999999999,0.4570149999999999,0.081863,-0.151197
1622,-0.237603,0.8911040000000001,-0.386607,0.465325,-0.021429,0.2973429999999999
1623,-0.253054,0.911105,-0.325324,0.4797229999999999,-0.093142,0.42887
1624,-0.229436,0.933667,-0.274969,0.2796679999999999,-0.39227,0.310476
1625,-0.176696,0.957295,-0.228796,-0.037751,-0.432774,0.109518
1626,-0.122427,0.975162,-0.18453,-0.086084,-0.330112,0.110098
1627,-0.093454,0.984525,-0.148176,-0.538458,-0.237242,-0.387087
1628,-0.112344,0.986833,-0.11627,-0.500434,-0.234819,0.095015
1629,-0.145472,0.985122,-0.091389,-0.022085,-0.021911,0.2882429999999999
1630,-0.172408,0.982879,-0.064827,0.283263,0.151307,-0.231209
1631,-0.193691,0.980729,-0.025131,0.619106,0.13243,-0.301346
1632,-0.201871,0.979363,-0.008564,0.34448,0.145805,-0.355312
1633,-0.204909,0.978748,-0.006356,0.4236899999999999,0.462521,0.234398
1634,-0.208938,0.977916,-0.001125,0.351943,0.4709819999999999,0.075665
1635,-0.210646,0.977466,0.012862,0.411711,0.59831,-0.2354119999999999
1636,-0.210005,0.977687,-0.001268,0.513075,0.819218,-0.375975
1637,-0.203901,0.978021,-0.043312,0.366147,0.976111,-0.238838
1638,-0.199553,0.973786,-0.109081,-0.03592,0.710815,-0.077534
1639,-0.201775,0.960037,-0.193899,-0.101158,0.113144,0.4664819999999999
1640,-0.194885,0.942402,-0.27181,0.1781,0.628689,1.269963
1641,-0.190073,0.919541,-0.343948,-0.091696,1.010864,1.156937
1642,-0.192209,0.8896780000000001,-0.414143,-0.260916,0.762757,0.696461
1643,-0.188521,0.864397,-0.466117,-0.405641,0.756788,0.1322539999999999
1644,-0.169732,0.8479389999999999,-0.502174,-0.537772,0.7223890000000001,0.380012
1645,-0.128988,0.83055,-0.541791,-0.201502,0.491425,0.743329
1646,-0.110022,0.808092,-0.5786819999999999,0.1822109999999999,0.205336,1.0527879999999998
1647,-0.0955,0.778493,-0.6203380000000001,0.523143,0.04896,1.043632
1648,-0.0908409999999999,0.74664,-0.65899,0.105428,-0.354169,0.850366
1649,-0.1090859999999999,0.715246,-0.690301,0.0569919999999999,-0.5686399999999999,1.089227
1650,-0.141279,0.688459,-0.711378,0.098386,-0.588162,1.122709
1651,-0.185093,0.671181,-0.717809,0.040226,-0.697457,1.138555
1652,-0.233185,0.6636770000000001,-0.710739,-0.009307,-0.668682,1.240402
1653,-0.271158,0.668219,-0.6927840000000001,0.062692,-0.6367550000000001,1.157552
1654,-0.287078,0.688604,-0.6658850000000001,0.130645,-0.659582,0.8750979999999999
1655,-0.2777159999999999,0.7251770000000001,-0.630066,0.003546,-0.401142,0.306641
1656,-0.255138,0.770269,-0.584449,-0.023381,-0.035329,0.0570289999999999
1657,-0.240609,0.791034,-0.562461,-0.1241369999999999,0.543072,-0.301446
1658,-0.25334,0.780241,-0.571869,0.530149,0.8834709999999999,-0.635605
1659,-0.2408949999999999,0.7716890000000001,-0.588605,0.633107,0.418267,-0.023852
1660,-0.2240989999999999,0.7572,-0.61353,0.395226,0.108171,-0.4082909999999999
1661,-0.232038,0.751432,-0.617657,0.384351,-0.113813,0.104656
1662,-0.2218989999999999,0.765288,-0.604223,0.233038,0.588121,0.78594
1663,-0.1738569999999999,0.757105,-0.629728,-0.1759359999999999,2.745489,0.1034829999999999
1664,-0.181294,0.736015,-0.652231,-0.801784,0.321495,0.820734
1665,-0.189146,0.741869,-0.643309,-0.572191,-1.128679,1.185362
1666,-0.158771,0.773408,-0.613696,-0.0584679999999999,0.100371,1.5567959999999998
1667,-0.116571,0.807002,-0.578921,-0.091024,0.580831,1.28995
1668,-0.10437,0.8475959999999999,-0.520267,0.167877,1.100616,0.876682
1669,-0.107044,0.8749100000000001,-0.4722939999999999,0.604114,0.919356,0.8593790000000001
1670,-0.10854,0.882523,-0.457559,0.4692729999999999,0.2008049999999999,0.333947
1671,-0.124891,0.8845120000000001,-0.449476,0.372586,0.173426,0.318449
1672,-0.149559,0.8913270000000001,-0.427968,0.22953,0.0677799999999999,0.17809
1673,-0.177389,0.909584,-0.375734,0.250784,-0.091362,0.46802
1674,-0.201459,0.928416,-0.312155,0.166425,-0.182689,0.379111
1675,-0.197705,0.947947,-0.249582,0.099926,-0.333384,0.375269
1676,-0.1688859999999999,0.965088,-0.2001609999999999,0.139543,-0.445068,0.28886
1677,-0.131776,0.976768,-0.16894,0.09308,-0.450492,0.14126
1678,-0.105649,0.983867,-0.144304,-0.165591,-0.327343,-0.1857589999999999
1679,-0.106681,0.988032,-0.111316,-0.3284849999999999,-0.273082,0.096149
1680,-0.128995,0.988277,-0.081536,-0.220462,-0.259822,0.299249
1681,-0.156059,0.986158,-0.055834,0.300255,0.236086,-0.17198
1682,-0.1794329999999999,0.983756,0.00225,0.620794,0.250924,-0.612663
1683,-0.186663,0.98205,0.026676,0.620348,0.195074,-0.2254519999999999
1684,-0.188056,0.982073,0.0120019999999999,0.16912,0.400388,0.277565
1685,-0.18731,0.982281,0.004042,0.2446829999999999,0.314685,0.3047809999999999
1686,-0.188021,0.981976,0.018667,0.106218,0.522296,-0.130407
1687,-0.1882319999999999,0.981908,0.020087,0.259094,0.644054,-0.3426889999999999
1688,-0.1857089999999999,0.982463,-0.01599,0.491113,0.8873489999999999,-0.281648
1689,-0.174697,0.981925,-0.072683,0.425124,0.838692,-0.170679
1690,-0.163067,0.974768,-0.152373,0.013623,0.264978,0.2367699999999999
1691,-0.15611,0.962056,-0.223743,-0.120196,0.334468,0.805286
1692,-0.155135,0.941994,-0.297599,-0.090059,0.635841,1.15499
1693,-0.16423,0.915851,-0.366377,-0.312394,0.921261,0.895185
1694,-0.173468,0.889215,-0.423313,-0.4288119999999999,0.580649,0.2431829999999999
1695,-0.161722,0.867827,-0.4698,-0.575659,0.667482,0.241788
1696,-0.130617,0.8533350000000001,-0.504726,-0.389051,0.630827,0.511425
1697,-0.102289,0.837369,-0.5369729999999999,0.189737,0.429934,0.926134
1698,-0.086754,0.8019229999999999,-0.5910880000000001,0.33184,-0.012891,1.118676
1699,-0.071257,0.7656,-0.639352,-0.031923,-0.2993989999999999,0.790734
1700,-0.071043,0.733823,-0.675611,-0.059237,-0.4446229999999999,0.97711
1701,-0.089864,0.701715,-0.706763,0.10111,-0.4642729999999999,1.00141
1702,-0.124714,0.675277,-0.7269399999999999,0.072163,-0.539489,0.96458
1703,-0.173146,0.657572,-0.733222,0.033574,-0.552042,1.098655
1704,-0.21936,0.6504340000000001,-0.727194,0.081039,-0.548383,1.1862700000000002
1705,-0.247229,0.656985,-0.712209,0.178733,-0.5486479999999999,1.129934
1706,-0.251782,0.681275,-0.6873600000000001,0.229062,-0.549271,0.81706
1707,-0.230711,0.723217,-0.650939,0.2507769999999999,-0.518154,0.246551
1708,-0.194477,0.767674,-0.610613,0.046665,-0.010334,-0.445509
1709,-0.181478,0.784555,-0.592901,0.131322,1.921393,-1.483866
1710,-0.1915609999999999,0.7811670000000001,-0.5942,0.527666,1.62522,-0.889641
1711,-0.199296,0.7641359999999999,-0.6134890000000001,0.248323,-0.0136479999999999,-0.135244
1712,-0.203361,0.746687,-0.633321,-0.021706,-0.223478,0.043782
1713,-0.211024,0.748934,-0.628139,-0.077886,0.888669,0.359096
1714,-0.177779,0.744352,-0.643682,-0.155213,3.093554,-0.38888
1715,-0.191189,0.7096779999999999,-0.678083,-0.710133,-0.99781,2.047071
1716,-0.209458,0.715496,-0.6664720000000001,-0.6384270000000001,-1.640469,1.859481
1717,-0.1680569999999999,0.751436,-0.638039,0.1310079999999999,0.098646,0.840141
1718,-0.1030069999999999,0.78765,-0.607445,-0.127584,0.634469,1.858726
1719,-0.075414,0.8247049999999999,-0.560504,0.109914,0.972673,0.607577
1720,-0.073337,0.8625889999999999,-0.500551,0.41965,0.747793,0.690355
1721,-0.082822,0.8835700000000001,-0.460904,0.517423,0.480077,0.8745850000000001
1722,-0.100862,0.890914,-0.442816,0.405748,0.2462619999999999,0.595892
1723,-0.12933,0.8946629999999999,-0.427597,0.0556759999999999,0.073614,0.26564
1724,-0.159781,0.902726,-0.399428,0.122793,-0.074983,0.199767
1725,-0.193554,0.915771,-0.351975,0.193768,-0.125167,0.239426
