,gravity.x,gravity.y,gravity.z,userAcceleration.x,userAcceleration.y,userAcceleration.z
0,-0.1882869999999999,0.915277,0.356101,0.458429,0.503363,-0.488883
1,-0.198644,0.912703,0.35708,0.583394,0.532045,-0.537409
2,-0.20523,0.911772,0.355731,0.288787,0.588884,-0.6312439999999999
3,-0.214996,0.913559,0.345224,0.159866,0.46283,-0.402567
4,-0.228444,0.919059,0.32115,0.094594,0.334832,-0.22943
5,-0.23621,0.930896,0.278622,0.106526,0.224316,0.1675299999999999
6,-0.244525,0.946199,0.211916,-0.092694,0.6010270000000001,0.374632
7,-0.248634,0.958209,0.14146,-0.2621699999999999,0.631146,0.455067
8,-0.242256,0.966972,0.07919,-0.659463,0.6171800000000001,0.142673
9,-0.232729,0.972401,0.016375,-0.466566,0.775982,0.090803
10,-0.225291,0.973126,-0.0476,-0.365529,0.77071,0.112389
11,-0.225381,0.968982,-0.101359,0.0911039999999999,0.504895,0.004252
12,-0.2300289999999999,0.962961,-0.140673,0.569079,0.399359,0.131273
13,-0.231886,0.952293,-0.198404,0.67697,0.288003,0.15635
14,-0.220185,0.939192,-0.263504,0.428422,-0.226911,0.133804
15,-0.21194,0.931947,-0.294201,0.130351,-0.6421520000000001,0.536907
16,-0.210101,0.925482,-0.315178,0.022296,-0.8499209999999999,0.627663
17,-0.2147949999999999,0.916679,-0.336987,0.070783,-1.035621,0.664456
18,-0.227826,0.906833,-0.354608,0.18588,-0.978641,0.473062
19,-0.242369,0.8992760000000001,-0.364084,0.179198,-0.906585,0.446466
20,-0.258282,0.8955879999999999,-0.3622309999999999,0.195995,-0.808063,0.358416
21,-0.271211,0.897544,-0.347645,0.1236589999999999,-0.770133,0.202381
22,-0.274281,0.906507,-0.320957,0.0841259999999999,-0.7894869999999999,0.067783
23,-0.265171,0.921474,-0.283846,0.097523,-0.5549270000000001,-0.2482889999999999
24,-0.2440929999999999,0.93945,-0.240521,-0.241411,0.768818,-0.872165
25,-0.22618,0.944689,-0.2374949999999999,-0.368684,1.873152,-1.289193
26,-0.219833,0.928619,-0.2988949999999999,-0.545686,2.4565740000000003,-1.233011
27,-0.214547,0.9162,-0.338446,-0.2792429999999999,-0.90648,-0.483041
28,-0.22733,0.910858,-0.344467,-0.222026,-1.057189,-0.129043
29,-0.251164,0.908259,-0.334635,-0.137889,-0.205409,0.8881020000000001
30,-0.27524,0.900768,-0.335944,-0.13075,1.2083780000000002,0.347205
31,-0.292597,0.8948020000000001,-0.337215,-0.0221,1.213032,0.091412
32,-0.310674,0.8852979999999999,-0.346016,0.673132,0.268434,0.73275
33,-0.3042289999999999,0.8901290000000001,-0.339285,0.359954,-0.136192,0.545691
34,-0.290006,0.904188,-0.313591,0.3607309999999999,0.179553,0.082009
35,-0.274263,0.91642,-0.291466,0.5545979999999999,0.783028,0.029747
36,-0.242961,0.935359,-0.2570429999999999,0.370875,0.260869,0.2371
37,-0.2050699999999999,0.955251,-0.213165,0.236351,0.007869,0.1481319999999999
38,-0.173809,0.969455,-0.173044,0.146069,-0.155567,0.185175
39,-0.150138,0.980839,-0.124141,0.174613,-0.18697,0.138591
40,-0.1249329999999999,0.990176,-0.062776,0.030405,-0.3457969999999999,-0.0898279999999999
41,-0.099467,0.995039,0.000556,0.043376,-0.505522,0.065361
42,-0.080077,0.995259,0.055159,0.022917,-0.516362,0.068499
43,-0.076113,0.991922,0.101458,-0.0067269999999999,-0.549463,0.140501
44,-0.085009,0.984605,0.152714,-0.117215,-0.489763,0.241238
45,-0.1031349999999999,0.973937,0.202005,-0.112639,-0.35356,-0.074274
46,-0.125151,0.963157,0.238038,0.24153,-0.013328,-0.239625
47,-0.147202,0.953874,0.261635,0.447846,0.474105,-1.091164
48,-0.15849,0.943229,0.291883,0.7721979999999999,0.507134,-0.297803
49,-0.180978,0.933321,0.310089,0.123102,0.609938,-0.731323
50,-0.196143,0.928663,0.314816,0.409582,0.514971,-0.508053
51,-0.206681,0.927031,0.312879,0.706345,0.383058,-0.394727
52,-0.219869,0.925064,0.309696,0.88033,0.459977,-0.3860969999999999
53,-0.224951,0.923531,0.310618,0.308661,0.471671,-0.469813
54,-0.2265039999999999,0.92259,0.312283,0.085696,0.318438,-0.481182
55,-0.2358,0.92412,0.300662,0.1101289999999999,0.236784,-0.237521
56,-0.244561,0.929688,0.275438,0.0853049999999999,0.018722,-0.044573
57,-0.251644,0.941102,0.225828,0.1657819999999999,0.23239,0.17322
58,-0.254614,0.953625,0.160522,0.085012,0.529041,0.173966
59,-0.249245,0.963565,0.097041,-0.168098,0.618024,0.469564
60,-0.238808,0.970029,0.044853,-0.557762,0.627109,0.274315
61,-0.2264659999999999,0.97392,-0.0137669999999999,-0.5802970000000001,0.7931239999999999,0.108325
62,-0.2200659999999999,0.972427,-0.077158,-0.303814,0.761337,0.069269
63,-0.219484,0.969094,-0.1126109999999999,0.292009,0.482002,0.061173
64,-0.226878,0.963647,-0.141096,0.436427,0.360389,0.234251
65,-0.228715,0.951343,-0.206476,0.652818,0.198407,0.190393
66,-0.216858,0.938373,-0.269122,0.414948,-0.378085,0.231219
67,-0.211327,0.930395,-0.299507,0.288277,-0.579885,0.481727
68,-0.216655,0.922191,-0.320346,0.16357,-0.8377180000000001,0.599155
69,-0.2327199999999999,0.91182,-0.338266,0.172173,-0.982865,0.582086
70,-0.249507,0.90235,-0.351438,0.202113,-0.972784,0.5089090000000001
71,-0.265315,0.89625,-0.355446,0.202647,-0.902811,0.430931
72,-0.279893,0.8948299999999999,-0.34776,0.251695,-0.901543,0.360165
73,-0.287132,0.8997569999999999,-0.328617,0.181038,-0.846794,0.32877
74,-0.281255,0.911518,-0.300044,-0.0579929999999999,-0.729817,0.065227
75,-0.259328,0.929544,-0.2620949999999999,-0.133342,-0.340906,-0.193517
76,-0.2266239999999999,0.948698,-0.220478,-0.2447349999999999,0.008959,-0.4212909999999999
77,-0.2012509999999999,0.953823,-0.222971,-0.3830389999999999,2.914554,-1.397177
78,-0.2053739999999999,0.937531,-0.280809,-0.915445,0.796004,-1.248289
79,-0.216187,0.925577,-0.310753,-0.6840510000000001,-0.295145,-0.7714770000000001
80,-0.24213,0.914949,-0.32286,-0.507245,-0.80266,-0.163422
81,-0.269837,0.904913,-0.329117,0.296631,2.56109,0.605133
82,-0.311511,0.8851129999999999,-0.345737,0.401034,2.37801,0.235721
83,-0.31596,0.8803209999999999,-0.353837,0.2156179999999999,-1.548626,1.02852
84,-0.30863,0.88189,-0.3563909999999999,0.5401050000000001,-1.331933,0.882346
85,-0.29434,0.895143,-0.334784,0.4918189999999999,0.587629,0.1823789999999999
86,-0.294057,0.899907,-0.322017,0.624181,1.343883,-0.0320019999999999
87,-0.2605969999999999,0.921362,-0.288406,0.681175,0.94874,0.244721
88,-0.212941,0.949805,-0.22918,0.3512619999999999,0.430246,-0.183677
89,-0.179831,0.963904,-0.1963329999999999,0.166632,0.274347,-0.063265
90,-0.156698,0.974143,-0.162752,-0.056315,-0.460181,0.061114
91,-0.124213,0.985855,-0.1125039999999999,-0.065714,-0.708893,-0.0522759999999999
92,-0.086585,0.995193,-0.045718,0.002768,-0.5173180000000001,-0.095319
93,-0.0647659999999999,0.997725,0.018583,0.151131,-0.457762,0.1061119999999999
94,-0.05894,0.995649,0.072139,0.140391,-0.274992,0.022649
95,-0.066301,0.991638,0.110688,0.036394,-0.247101,-0.2574929999999999
96,-0.074922,0.986202,0.147605,0.234452,-0.375835,-0.316108
97,-0.0826809999999999,0.979196,0.18529,0.413171,-0.364633,-0.210696
98,-0.096928,0.972666,0.210997,0.382496,-0.241388,-0.092771
99,-0.117942,0.963841,0.238942,0.211493,0.178584,-0.361775
100,-0.137518,0.948826,0.2842719999999999,0.191031,0.5424760000000001,-0.931306
101,-0.151344,0.936979,0.314895,0.3940349999999999,0.284548,-0.7155
102,-0.1670569999999999,0.934459,0.3144369999999999,0.27425,0.380665,-0.443328
103,-0.184908,0.931843,0.312203,0.565508,0.374569,-0.292642
104,-0.199178,0.930715,0.306741,0.423299,0.4815319999999999,-0.342736
105,-0.206804,0.929501,0.305372,0.2389239999999999,0.561832,-0.41194
106,-0.218338,0.928633,0.299935,0.181778,0.352617,-0.363473
107,-0.231006,0.931214,0.281905,0.099094,0.3017579999999999,-0.1948079999999999
108,-0.240851,0.938085,0.248959,0.182257,0.34199,-0.00195
109,-0.248898,0.949394,0.191556,0.186031,0.511864,0.131793
110,-0.251421,0.960198,0.1216569999999999,-0.018125,0.691154,0.543428
111,-0.239695,0.969404,0.0528799999999999,-0.398993,0.747912,0.387214
112,-0.219515,0.97553,-0.0121959999999999,-0.6083350000000001,0.7788189999999999,0.114033
113,-0.199893,0.976766,-0.0772419999999999,-0.346707,0.662257,0.0302139999999999
114,-0.187913,0.975067,-0.118016,-0.100036,0.534988,0.189915
115,-0.186685,0.972164,-0.14157,0.219415,0.4132729999999999,0.457183
116,-0.203929,0.958404,-0.199677,0.463786,0.196213,0.4237829999999999
117,-0.216261,0.93505,-0.280909,0.408217,-0.29679,-0.058324
118,-0.214551,0.917948,-0.333671,0.171597,-0.579188,0.371834
119,-0.213261,0.907676,-0.361444,0.175618,-0.6804720000000001,0.629678
120,-0.223624,0.8963459999999999,-0.382823,0.255911,-0.862792,0.542582
121,-0.2410489999999999,0.8839459999999999,-0.4006639999999999,0.199774,-0.823735,0.493301
122,-0.260089,0.87313,-0.412304,0.255359,-0.739951,0.437039
123,-0.281776,0.8659899999999999,-0.41311,0.1708299999999999,-0.728173,0.4548279999999999
124,-0.3020989999999999,0.864188,-0.402383,0.067571,-0.823722,0.4252859999999999
125,-0.31513,0.869343,-0.380701,0.041204,-0.7661939999999999,0.298593
126,-0.312377,0.882917,-0.350537,-0.011354,-0.709317,0.079586
127,-0.289384,0.904279,-0.3139,-0.057356,-0.53346,-0.181141
128,-0.252387,0.928377,-0.27279,-0.168313,0.361632,-0.66767
129,-0.222271,0.939679,-0.259993,-0.0359079999999999,2.8177220000000003,-1.4061290000000002
130,-0.214751,0.927036,-0.307383,-0.760102,1.4945190000000002,-1.526724
131,-0.2111869999999999,0.915136,-0.3434,-0.320094,-0.655203,-0.777511
132,-0.2150389999999999,0.909946,-0.354617,-0.187243,-0.8674200000000001,-0.174664
133,-0.2282239999999999,0.909208,-0.348213,-0.081255,0.194567,0.460563
134,-0.245754,0.907168,-0.341537,0.290493,0.670133,0.803283
135,-0.251666,0.90638,-0.339318,0.1756309999999999,1.245628,0.4375239999999999
136,-0.240605,0.910298,-0.336844,0.546467,-0.228642,0.233404
137,-0.2254239999999999,0.914015,-0.337278,0.24961,-0.565932,0.931867
138,-0.20926,0.925033,-0.31705,0.0955049999999999,-0.4479979999999999,0.4912289999999999
139,-0.205109,0.931405,-0.300685,0.496857,0.569343,0.38708
140,-0.195011,0.94157,-0.274615,0.486759,0.559178,0.361011
141,-0.163245,0.959878,-0.227994,0.2479309999999999,-0.154046,0.1965309999999999
142,-0.135433,0.974034,-0.181412,0.260509,-0.058126,0.174118
143,-0.119122,0.982907,-0.140352,0.242794,-0.100766,0.1773539999999999
144,-0.100711,0.990535,-0.0932279999999999,0.06206,-0.2441969999999999,0.01489
145,-0.07553,0.996464,-0.03673,0.008833,-0.472645,0.0105
146,-0.051369,0.998547,0.016083,0.006447,-0.524105,-0.07196
147,-0.037299,0.996931,0.068782,0.0304779999999999,-0.510648,0.033955
148,-0.035511,0.991795,0.12278,0.02544,-0.401905,0.1059799999999999
149,-0.04912,0.98203,0.182198,0.102571,-0.301411,0.004478
150,-0.069933,0.970312,0.231505,0.218996,-0.024359,0.020646
151,-0.091759,0.960859,0.261382,0.229088,0.163744,-0.231505
152,-0.104459,0.956808,0.271289,0.388715,0.5156649999999999,-1.355045
153,-0.114513,0.946595,0.3013889999999999,0.410228,0.303985,-0.264173
154,-0.138206,0.937793,0.318488,0.287391,0.410993,-0.591483
155,-0.156193,0.936314,0.314501,0.6602819999999999,0.34959,-0.393282
156,-0.170248,0.93654,0.30643,0.6881,0.385664,-0.192996
157,-0.182348,0.938614,0.2928219999999999,0.4989979999999999,0.505325,-0.18479
158,-0.183881,0.940449,0.285894,-0.001986,0.434292,-0.308004
159,-0.182025,0.944506,0.273438,0.015872,0.3972,-0.164429
160,-0.1874,0.950642,0.2472909999999999,0.049582,0.289928,-0.083519
161,-0.195538,0.962181,0.189642,-0.142337,0.518684,0.048181
162,-0.205984,0.971767,0.115032,0.082739,0.42162,0.35062
163,-0.207226,0.977202,0.046119,-0.024433,0.540025,0.4018489999999999
164,-0.199523,0.979784,-0.014376,-0.152314,0.585615,0.322177
165,-0.190179,0.97942,-0.067538,-0.296073,0.666194,0.023166
166,-0.1847589999999999,0.976101,-0.114393,-0.0473569999999999,0.625462,0.460401
167,-0.195351,0.968038,-0.157271,0.281624,0.42512,0.296141
168,-0.224936,0.950559,-0.21409,0.495093,0.246889,0.1068819999999999
169,-0.2408269999999999,0.926997,-0.287529,0.533185,0.202901,-0.121116
170,-0.2375239999999999,0.914318,-0.328024,0.174002,-0.269512,0.371923
171,-0.232975,0.908388,-0.3472,0.158085,-0.629595,0.650835
172,-0.2363199999999999,0.89966,-0.367096,0.290215,-0.8921370000000001,0.614792
173,-0.248334,0.8885709999999999,-0.385702,0.282056,-0.8320069999999999,0.5203300000000001
174,-0.261937,0.878561,-0.399394,0.229115,-0.727056,0.482646
175,-0.2753219999999999,0.8714370000000001,-0.405945,0.181374,-0.763313,0.472901
176,-0.28665,0.869475,-0.4022949999999999,0.061568,-0.77545,0.444775
177,-0.292452,0.874697,-0.3864869999999999,-0.009382,-0.8293790000000001,0.331707
178,-0.287829,0.887534,-0.359767,-0.094495,-0.6920689999999999,-0.020101
179,-0.268006,0.908196,-0.321478,-0.171599,-0.502846,-0.120951
180,-0.2350969999999999,0.931545,-0.277394,-0.269359,-0.174069,-0.226375
181,-0.21039,0.941315,-0.263923,0.001726,2.541824,-1.228264
182,-0.209459,0.928866,-0.305498,-0.350233,2.603712,-1.455366
183,-0.211965,0.915163,-0.342844,-0.299021,-0.614046,-0.87113
184,-0.218904,0.909403,-0.35364,-0.109205,-0.7369939999999999,-0.390577
185,-0.236188,0.908472,-0.344801,-0.049808,0.339422,0.332884
186,-0.261254,0.904106,-0.338131,0.402642,0.866173,0.726727
187,-0.271945,0.899956,-0.340763,0.368075,1.006111,0.585072
188,-0.249298,0.906228,-0.341461,0.406052,-0.41015,0.5731189999999999
189,-0.223401,0.91393,-0.338848,0.069196,-0.6118060000000001,0.8203389999999999
190,-0.21001,0.924587,-0.317851,0.0934779999999999,0.082478,0.006083
191,-0.214448,0.930531,-0.296849,0.446031,0.849743,0.0114489999999999
192,-0.199456,0.944552,-0.260831,0.435189,0.1014679999999999,0.543607
193,-0.163988,0.964421,-0.207348,0.231203,-0.1866809999999999,0.2095909999999999
194,-0.138709,0.977321,-0.159993,0.2463449999999999,-0.00941,-0.030193
195,-0.126297,0.984719,-0.1198839999999999,0.170318,-0.274315,0.15852
196,-0.102896,0.991871,-0.0748149999999999,0.075247,-0.344715,0.040498
197,-0.072632,0.997056,-0.024416,-0.0282279999999999,-0.423127,-0.081709
198,-0.0513789999999999,0.998298,0.027456,0.052874,-0.535285,0.004679
199,-0.043439,0.996331,0.073681,0.101163,-0.477654,-0.0246389999999999
200,-0.0468639999999999,0.991058,0.124899,0.162343,-0.203017,0.051248
201,-0.061447,0.98303,0.172817,0.1292569999999999,-0.048094,-0.1796839999999999
202,-0.081447,0.974547,0.208842,0.262798,0.193879,-0.307628
203,-0.100186,0.966337,0.236953,0.441709,0.393542,-0.958144
204,-0.110742,0.956669,0.269279,0.584619,0.35783,-0.373802
205,-0.128991,0.948207,0.290265,0.280206,0.351048,-0.542096
206,-0.147245,0.945457,0.29055,0.381788,0.458672,-0.358574
207,-0.157631,0.944952,0.28672,0.558312,0.350809,-0.304176
208,-0.164313,0.944988,0.282823,0.372489,0.432347,-0.2214829999999999
209,-0.166873,0.946322,0.2767989999999999,0.074298,0.383939,-0.28484
210,-0.17112,0.949216,0.264002,-0.002098,0.52695,-0.253794
211,-0.176447,0.956574,0.232,0.170511,0.436432,-0.024877
212,-0.18256,0.967204,0.1765789999999999,-0.180004,0.337469,0.081447
213,-0.191622,0.97595,0.103893,-0.200667,0.215364,0.277928
214,-0.198035,0.979789,0.028054,-0.106774,0.434243,0.374976
215,-0.1972,0.979666,-0.036882,-0.140981,0.657008,0.1585859999999999
216,-0.192355,0.976363,-0.098525,-0.29266,0.784257,0.1458279999999999
217,-0.19478,0.968994,-0.152003,-0.0132889999999999,0.60846,0.172542
218,-0.209458,0.95947,-0.188516,0.2553559999999999,0.4295989999999999,0.324121
219,-0.235618,0.942408,-0.2373719999999999,0.490547,0.211919,0.244635
220,-0.246652,0.918295,-0.309665,0.53254,-0.084066,-0.152188
221,-0.247575,0.901512,-0.354933,0.255113,-0.438011,0.3365309999999999
222,-0.251307,0.8910950000000001,-0.377876,0.118342,-0.452679,0.5477069999999999
223,-0.2566219999999999,0.8803489999999999,-0.398905,0.2308349999999999,-0.688882,0.539103
224,-0.26779,0.868791,-0.416516,0.347242,-0.642778,0.521771
225,-0.2796119999999999,0.858483,-0.429906,0.334529,-0.624398,0.496709
226,-0.2887659999999999,0.8519530000000001,-0.436789,0.1016779999999999,-0.7474149999999999,0.415534
227,-0.296566,0.8513790000000001,-0.432663,0.1094779999999999,-0.746841,0.4114069999999999
228,-0.300829,0.857525,-0.417311,-0.008695,-0.785091,0.35565
229,-0.2958989999999999,0.870899,-0.392393,-0.105742,-0.621632,0.00215
230,-0.274776,0.892761,-0.35703,-0.126866,-0.643494,-0.033214
231,-0.241884,0.917923,-0.31449,-0.121626,0.467819,-0.5066930000000001
232,-0.215855,0.927363,-0.305611,-0.01176,2.368627,-1.372855
233,-0.211495,0.914424,-0.345097,-0.595787,1.132451,-1.4213360000000002
234,-0.21472,0.901459,-0.375847,-0.135729,-0.3844,-0.781273
235,-0.2273659999999999,0.8945360000000001,-0.384844,-0.2089889999999999,-0.446797,-0.2124619999999999
236,-0.2470389999999999,0.8906139999999999,-0.381803,0.085906,0.354488,0.6026739999999999
237,-0.266974,0.886857,-0.3771,0.337073,0.925674,0.8252959999999999
238,-0.266506,0.885386,-0.380868,0.2999679999999999,0.386892,0.581689
239,-0.2474739999999999,0.891023,-0.380564,0.304908,-0.447877,0.7040810000000001
240,-0.227344,0.8979600000000001,-0.376798,0.008227,-0.0547289999999999,0.309186
241,-0.2281619999999999,0.905581,-0.357575,0.108167,0.527922,0.098389
242,-0.23469,0.912154,-0.335989,0.404123,0.700883,0.241034
243,-0.2084219999999999,0.931993,-0.29655,0.311053,-0.0123159999999999,0.193827
244,-0.1746,0.95135,-0.253852,0.326272,-0.029597,0.033774
245,-0.154503,0.962646,-0.2223369999999999,0.308556,-0.029251,0.007859
246,-0.135141,0.97357,-0.184095,0.252695,-0.38928,0.136213
247,-0.111068,0.985851,-0.125513,0.153792,-0.366741,0.036905
248,-0.090528,0.993839,-0.063874,-0.000735,-0.375401,-0.026931
249,-0.074184,0.997123,-0.015283,0.010128,-0.4026099999999999,-0.186239
250,-0.064583,0.997574,0.025814,0.071083,-0.3931429999999999,-0.226818
251,-0.06297,0.995824,0.066025,0.248212,-0.286733,-0.09282
252,-0.070897,0.991562,0.108475,0.293889,-0.0914919999999999,0.1052849999999999
253,-0.08904,0.984287,0.152449,0.172902,0.097394,0.039873
254,-0.110814,0.975365,0.190716,0.157322,0.2426989999999999,-0.177991
255,-0.1248789999999999,0.967259,0.2209179999999999,0.393357,0.282085,-1.00145
256,-0.1283109999999999,0.959055,0.2524619999999999,0.525238,0.363867,-0.2329909999999999
257,-0.143616,0.953673,0.264328,0.183243,0.4410409999999999,-0.405456
258,-0.156225,0.95162,0.264576,0.2846579999999999,0.274988,-0.167606
259,-0.162128,0.951653,0.260882,0.474979,0.342201,-0.163287
260,-0.168007,0.951123,0.259087,0.287178,0.388659,-0.2847369999999999
261,-0.17511,0.950672,0.256021,0.1115569999999999,0.388744,-0.40371
262,-0.184166,0.953616,0.2380929999999999,0.046089,0.395734,-0.252482
263,-0.1932549999999999,0.958671,0.208782,0.222628,0.290367,-0.100841
264,-0.203141,0.96612,0.159171,0.138673,0.2759,0.099984
265,-0.211008,0.973017,0.093287,0.164927,0.476904,0.2958119999999999
266,-0.2132659999999999,0.976722,0.022821,0.15986,0.57563,0.559424
267,-0.205703,0.977702,-0.042129,-0.166764,0.716008,0.4393149999999999
268,-0.191075,0.976301,-0.101576,-0.328303,0.627367,0.150831
269,-0.181887,0.97047,-0.158417,-0.193342,0.5364720000000001,0.368882
270,-0.194273,0.960285,-0.200259,-0.003145,0.401516,0.641085
271,-0.233944,0.93727,-0.258436,0.400325,-0.0058119999999999,-0.252276
272,-0.266489,0.909951,-0.317753,0.438043,-0.126442,-0.255336
273,-0.264189,0.896481,-0.355697,0.350142,-0.103131,-0.060273
274,-0.25653,0.888331,-0.380859,0.2286679999999999,-0.343776,0.6444850000000001
275,-0.259587,0.877877,-0.402419,0.287892,-0.674096,0.659392
276,-0.26876,0.864836,-0.424055,0.317527,-0.711683,0.529401
277,-0.278411,0.85339,-0.440689,0.1824339999999999,-0.6520199999999999,0.370117
278,-0.28622,0.8458110000000001,-0.450196,0.190243,-0.6444409999999999,0.3796239999999999
279,-0.292386,0.8437899999999999,-0.450027,0.064374,-0.663736,0.399978
280,-0.296698,0.8478870000000001,-0.439378,0.012946,-0.712724,0.340074
281,-0.294857,0.859959,-0.416562,0.005443,-0.731511,0.182721
282,-0.282348,0.880024,-0.38188,-0.085878,-0.6669039999999999,0.022917
283,-0.256832,0.905296,-0.338336,-0.2200659999999999,-0.32595,-0.097791
284,-0.2257989999999999,0.928052,-0.29619,-0.03563,0.641422,-0.549666
285,-0.205661,0.934175,-0.291572,0.14252,2.714293,-1.15841
286,-0.203852,0.923122,-0.326013,-0.195761,-0.044018,-1.161902
287,-0.205436,0.910275,-0.35943,-0.05111,-0.5142329999999999,-0.973746
288,-0.214971,0.905002,-0.367088,-0.0148569999999999,-0.108966,-0.068627
289,-0.2368719999999999,0.902359,-0.36005,0.143671,0.208191,0.346805
290,-0.251864,0.905202,-0.3422989999999999,0.532504,0.678569,0.786406
291,-0.2458719999999999,0.909533,-0.335101,0.583808,-0.133471,0.761081
292,-0.220098,0.91643,-0.334228,0.51972,-0.6049979999999999,0.561263
293,-0.193942,0.921336,-0.33693,0.008212,-0.67274,0.8205110000000001
294,-0.195598,0.92997,-0.311275,0.1582599999999999,0.66201,-0.255101
295,-0.221977,0.932408,-0.285195,0.322425,0.396434,0.310128
296,-0.223534,0.942028,-0.25022,0.326378,0.061146,0.522513
297,-0.1945579999999999,0.959361,-0.204369,0.3148579999999999,-0.075588,0.1708299999999999
298,-0.1761599999999999,0.969391,-0.171004,0.139326,0.038941,-0.122575
299,-0.165964,0.975613,-0.143626,0.208017,-0.074688,0.1120859999999999
300,-0.14761,0.983254,-0.106844,0.136028,-0.295006,0.025072
301,-0.1274799999999999,0.989881,-0.062261,-0.0151139999999999,-0.350523,-0.131419
302,-0.113581,0.993326,-0.019882,0.054575,-0.3567599999999999,-0.1592869999999999
303,-0.1058289999999999,0.994232,0.017186,0.219599,-0.253158,-0.1350599999999999
304,-0.104318,0.993226,0.051113,0.274514,-0.175721,0.021763
305,-0.107606,0.990315,0.087686,0.108323,-0.0916179999999999,0.0620029999999999
306,-0.113073,0.985877,0.1235059999999999,-0.016215,-0.004508,-0.111619
307,-0.119176,0.98049,0.156298,0.090062,0.123972,-0.311801
308,-0.126245,0.972654,0.194932,0.294061,0.192553,-0.646089
309,-0.138098,0.963935,0.227484,0.282904,0.197182,-0.409796
310,-0.152421,0.957556,0.244632,0.298432,0.389886,-0.4110899999999999
311,-0.162358,0.953232,0.2549099999999999,0.5417529999999999,0.258713,-0.356046
312,-0.171064,0.949678,0.262374,0.6239600000000001,0.208632,-0.291549
313,-0.176597,0.946759,0.269171,0.273459,0.42255,-0.420446
314,-0.180618,0.946259,0.268256,0.161971,0.45761,-0.372488
315,-0.1862339999999999,0.948658,0.255648,0.251054,0.461971,-0.31914
316,-0.190965,0.954947,0.227157,0.069749,0.377542,0.0471959999999999
317,-0.194447,0.963799,0.18241,-0.012798,0.456276,0.183038
318,-0.200195,0.97224,0.121096,-0.099564,0.498174,0.283948
319,-0.199879,0.978199,0.05628,-0.28352,0.517574,0.266078
320,-0.193074,0.981179,0.001986,-0.321101,0.619606,0.215467
321,-0.187319,0.981217,-0.04602,-0.340589,0.698516,0.200957
322,-0.1892869999999999,0.977469,-0.093376,-0.1425,0.4420409999999999,0.252632
323,-0.198184,0.969735,-0.142587,-0.021481,0.381736,0.238778
324,-0.222148,0.956704,-0.188049,0.152553,0.2591469999999999,0.245177
325,-0.243507,0.938763,-0.243769,0.4870529999999999,-0.151348,0.16247
326,-0.255773,0.919302,-0.299097,0.472616,-0.2629599999999999,0.220606
327,-0.269307,0.902609,-0.335808,0.445439,-0.340231,0.3039469999999999
328,-0.2832909999999999,0.887899,-0.362461,0.32185,-0.663686,0.479603
329,-0.298386,0.874899,-0.3814619999999999,0.294144,-0.689017,0.417884
330,-0.313217,0.8633620000000001,-0.395597,0.208526,-0.648945,0.384885
331,-0.325272,0.856984,-0.399715,0.162277,-0.640767,0.371059
332,-0.334921,0.856632,-0.392436,0.089285,-0.69939,0.323161
333,-0.337602,0.8631049999999999,-0.375593,0.094301,-0.690833,0.217375
334,-0.329659,0.876949,-0.3496849999999999,0.0716789999999999,-0.699078,0.129363
335,-0.30527,0.898244,-0.31617,0.04729,-0.720372,0.095848
336,-0.265908,0.92359,-0.276169,-0.051993,0.203592,-0.530792
337,-0.227296,0.939694,-0.25555,-0.0493759999999999,1.96709,-1.5201
338,-0.212619,0.92956,-0.301175,-0.064054,1.977224,-1.474475
339,-0.21864,0.915308,-0.338235,-0.632312,-0.5012449999999999,-0.293189
340,-0.2406199999999999,0.903659,-0.354257,-0.448329,-0.925616,-0.18067
341,-0.2680639999999999,0.8971950000000001,-0.350968,-0.428179,0.237357,0.164093
342,-0.293433,0.8977700000000001,-0.328482,0.4861819999999999,1.695095,0.769126
343,-0.308732,0.892141,-0.329794,0.638551,0.4495189999999999,0.31777
344,-0.31269,0.888225,-0.336566,0.378409,-0.931087,0.242022
345,-0.311424,0.888806,-0.336205,0.46833,-0.302457,0.5770649999999999
346,-0.292547,0.901145,-0.319919,0.455236,0.520073,-0.063794
347,-0.277935,0.914269,-0.29472,0.5620069999999999,0.7044600000000001,0.279812
348,-0.2509349999999999,0.934157,-0.253725,0.284947,0.2276929999999999,0.1946119999999999
349,-0.208473,0.955965,-0.206554,0.173744,-0.032976,-0.07581
350,-0.1804349999999999,0.967708,-0.176005,0.035324,-0.08221,-0.040868
351,-0.164023,0.976128,-0.142355,-0.002405,-0.466042,0.1965849999999999
352,-0.137119,0.986904,-0.084922,0.1328619999999999,-0.372875,0.047844
353,-0.105072,0.994162,-0.0243889999999999,0.2928469999999999,-0.3392699999999999,0.029973
354,-0.0813789999999999,0.996462,0.0208,0.356525,-0.3381679999999999,-0.022463
355,-0.071171,0.995656,0.059965,0.1572609999999999,-0.310384,-0.0834029999999999
356,-0.069756,0.992043,0.104767,0.074547,-0.249016,0.0309139999999999
357,-0.0765049999999999,0.985032,0.154436,0.037824,-0.188126,0.158247
358,-0.090075,0.976859,0.193968,0.048006,-0.105002,0.017015
359,-0.105941,0.969408,0.2213929999999999,0.063872,-0.097552,-0.0104099999999999
360,-0.116355,0.959451,0.256721,0.312613,0.418753,-0.800361
361,-0.1262599999999999,0.949533,0.287116,0.3962489999999999,0.400275,-0.477317
362,-0.141767,0.946364,0.290323,0.265989,0.398759,-0.347497
363,-0.1552,0.945196,0.287242,0.514117,0.232401,-0.157405
364,-0.166167,0.944126,0.284614,0.56584,0.385067,-0.254798
365,-0.173092,0.942612,0.285502,0.349377,0.48616,-0.465677
366,-0.180921,0.943354,0.278104,0.112348,0.30895,-0.37048
367,-0.19593,0.946391,0.2568,0.167473,0.077855,-0.215326
368,-0.21083,0.952383,0.220246,0.299041,0.069437,-0.052979
369,-0.224569,0.961141,0.160523,0.294927,0.135264,0.178924
370,-0.235546,0.968563,0.079969,-0.183765,0.638951,0.482043
371,-0.230092,0.973162,0.002258,-0.415645,0.720853,0.4689939999999999
372,-0.2105119999999999,0.976385,-0.048468,-0.564528,0.792856,0.363944
373,-0.194237,0.977108,-0.086739,-0.0577769999999999,0.889331,0.138176
374,-0.189663,0.973778,-0.125611,0.102214,0.770149,0.095811
375,-0.200819,0.967121,-0.156021,0.39665,0.462262,0.132171
376,-0.214991,0.955347,-0.202692,0.481303,0.192373,0.2200869999999999
377,-0.2147489999999999,0.938753,-0.269482,0.447109,-0.176057,0.169842
378,-0.2073159999999999,0.924372,-0.320237,0.3114719999999999,-0.588816,0.531816
379,-0.202707,0.911319,-0.358332,0.2310579999999999,-0.751621,0.705958
380,-0.201047,0.8932899999999999,-0.402005,0.126645,-0.826701,0.6995359999999999
381,-0.213807,0.876345,-0.431627,0.161683,-0.718554,0.403811
382,-0.2335739999999999,0.864748,-0.444579,0.278008,-0.627962,0.350219
383,-0.254766,0.857244,-0.447463,0.265188,-0.609792,0.4127949999999999
384,-0.273773,0.85469,-0.4410779999999999,0.043625,-0.8109430000000001,0.453453
385,-0.285019,0.858557,-0.426193,-0.03038,-0.775366,0.379242
386,-0.278937,0.871792,-0.402703,-0.07879,-0.761989,0.185952
387,-0.254886,0.893007,-0.370901,-0.110302,-0.579164,-0.151942
388,-0.218421,0.918631,-0.329248,-0.150429,0.220849,-0.650824
389,-0.184242,0.93389,-0.30643,0.076835,1.97886,-1.598981
390,-0.178084,0.92292,-0.341321,-0.5149859999999999,1.36216,-1.1212799999999998
391,-0.193281,0.908159,-0.371328,-0.281405,-0.474962,-0.592218
392,-0.222705,0.8929739999999999,-0.391148,-0.302106,-0.4425949999999999,-0.398952
393,-0.248022,0.888526,-0.386009,-0.10502,0.879876,0.1456059999999999
394,-0.26674,0.8923200000000001,-0.364157,0.359971,2.607909,0.6059939999999999
395,-0.274591,0.887424,-0.370234,0.848184,-0.134495,0.558009
396,-0.256992,0.886275,-0.385314,0.3261449999999999,-1.515273,1.466247
397,-0.235531,0.8914350000000001,-0.3871239999999999,-0.15662,-1.269242,0.7719050000000001
398,-0.222201,0.904812,-0.363233,-0.144834,-0.4283409999999999,0.309705
399,-0.258904,0.898539,-0.354389,0.796288,1.223897,0.8307530000000001
400,-0.229593,0.923054,-0.308631,0.559076,0.336528,0.358085
401,-0.170577,0.953435,-0.248717,0.235167,0.095424,0.027815
402,-0.144071,0.964164,-0.222771,0.052884,-0.121192,-0.103721
403,-0.136407,0.972228,-0.190156,0.001626,-0.518142,0.122423
404,-0.1090589999999999,0.985525,-0.129773,0.1205789999999999,-0.512197,-0.081852
405,-0.074104,0.995116,-0.0651539999999999,0.327934,-0.4431449999999999,-0.036149
406,-0.052012,0.998582,-0.011062,0.4432779999999999,-0.382768,0.092803
407,-0.047706,0.998414,0.0297769999999999,0.438972,-0.3826,0.0519639999999999
408,-0.055623,0.996447,0.06318,0.1120039999999999,-0.156558,-0.1781859999999999
409,-0.061544,0.993065,0.100134,-0.127314,-0.160774,-0.108389
410,-0.06314,0.987398,0.14509,-0.065706,-0.132128,0.005942
411,-0.071388,0.979523,0.188236,0.0141979999999999,-0.060684,-0.0281709999999999
412,-0.083829,0.971638,0.221098,0.1164829999999999,0.2142599999999999,-0.492339
413,-0.094248,0.9615,0.258125,0.230845,0.421054,-1.030815
414,-0.105215,0.951975,0.287518,0.434484,0.369375,-0.309048
415,-0.1240589999999999,0.948997,0.28984,0.460546,0.329217,-0.260436
416,-0.136845,0.949523,0.282262,0.397603,0.356827,-0.269566
417,-0.142258,0.949723,0.278894,-0.0462029999999999,0.4330739999999999,-0.549676
418,-0.1464619999999999,0.950939,0.272501,0.082024,0.15012,-0.27424
419,-0.159889,0.956536,0.24386,0.041908,0.286735,-0.22819
420,-0.178291,0.965208,0.191254,0.113091,0.419145,-0.006989
421,-0.195794,0.973397,0.1189829999999999,0.184289,0.72425,0.442877
422,-0.2000569999999999,0.979003,0.039057,0.076445,0.735642,0.683142
423,-0.187728,0.981736,-0.030794,-0.4532479999999999,0.704086,0.289644
424,-0.169221,0.982111,-0.082567,-0.328536,0.719244,-0.016828
425,-0.163677,0.977329,-0.134291,-0.053791,0.759961,0.060362
426,-0.181448,0.967191,-0.177806,0.133962,0.583011,0.042018
427,-0.217484,0.953504,-0.208629,0.3740699999999999,0.31563,0.1772109999999999
428,-0.244756,0.929492,-0.275927,0.512258,0.031339,0.0669889999999999
429,-0.246074,0.902601,-0.353207,0.233425,-0.1630069999999999,0.130765
430,-0.244253,0.889482,-0.386212,0.151998,-0.4171,0.5928770000000001
431,-0.246883,0.878627,-0.40873,0.175945,-0.704677,0.532189
432,-0.250571,0.8690610000000001,-0.4265489999999999,0.314246,-0.7976810000000001,0.536107
433,-0.266766,0.8585790000000001,-0.4378069999999999,0.363004,-0.805463,0.532671
434,-0.285469,0.847369,-0.4477399999999999,0.241173,-0.785326,0.413026
435,-0.297552,0.8422379999999999,-0.44955,0.171697,-0.8459610000000001,0.426768
436,-0.3050239999999999,0.845258,-0.438743,0.078873,-0.883848,0.3914559999999999
437,-0.303375,0.857126,-0.416288,0.00029,-0.822031,0.253202
438,-0.283362,0.8786719999999999,-0.384237,-0.0326329999999999,-0.789698,0.002325
439,-0.244617,0.907573,-0.341278,-0.093777,-0.413066,-0.29895
440,-0.199904,0.933151,-0.298771,0.023024,0.8916930000000001,-1.182582
441,-0.172901,0.934832,-0.310145,-0.219829,2.74513,-1.249654
442,-0.176016,0.921571,-0.346009,-0.579996,0.931456,-0.8410489999999999
443,-0.191211,0.908221,-0.372249,-0.182202,-0.486026,-0.434041
444,-0.21936,0.896984,-0.383795,-0.368836,0.0925179999999999,0.100592
445,-0.2473989999999999,0.889669,-0.38377,0.51539,1.507715,0.55006
446,-0.262897,0.884476,-0.385467,0.501514,0.666275,0.578033
447,-0.243179,0.8870379999999999,-0.392462,0.587707,-0.676268,0.620901
448,-0.212002,0.894812,-0.392893,-0.1035799999999999,-0.997885,0.931116
449,-0.1912859999999999,0.908275,-0.372082,-0.190474,-0.5925239999999999,0.486599
450,-0.21729,0.907004,-0.36073,0.668248,1.084069,0.0593529999999999
451,-0.221579,0.921281,-0.319596,0.639533,0.2374869999999999,0.45485
452,-0.178361,0.948854,-0.2605,0.341019,-0.060472,0.098315
453,-0.14164,0.966663,-0.213301,0.280113,-0.014408,-0.0640429999999999
454,-0.116095,0.977903,-0.173847,0.2238369999999999,-0.331678,0.334354
455,-0.078624,0.989923,-0.117751,0.0748549999999999,-0.342508,0.1121809999999999
456,-0.045377,0.997805,-0.04819,-0.0744659999999999,-0.4102949999999999,0.054782
457,-0.0212289999999999,0.999647,0.01583,-0.2052719999999999,-0.382246,0.210274
458,-0.008108,0.998009,0.0625059999999999,-0.064463,-0.384255,0.0386139999999999
459,-0.007351,0.99428,0.106523,-0.0008119999999999,-0.345461,0.062026
460,-0.015567,0.98772,0.155439,0.059527,-0.381015,0.046343
461,-0.032788,0.980287,0.194825,0.111173,-0.30153,0.058868
462,-0.058163,0.973702,0.2202599999999999,0.238278,0.26142,-0.8791190000000001
463,-0.0800159999999999,0.967498,0.2398739999999999,0.469314,0.402909,-1.134695
464,-0.094384,0.960214,0.262818,0.644738,0.346411,-0.201782
465,-0.112956,0.955589,0.272185,0.3008679999999999,0.525917,-0.593123
466,-0.123618,0.954449,0.27155,0.449637,0.441242,-0.321767
467,-0.13319,0.954525,0.266712,0.44572,0.500675,-0.341541
468,-0.14034,0.954722,0.262305,0.210286,0.467275,-0.383322
469,-0.1471869999999999,0.955966,0.2538849999999999,0.1111,0.429654,-0.35264
470,-0.153808,0.959617,0.235523,-0.0370189999999999,0.299706,-0.198551
471,-0.161165,0.967034,0.197141,-0.0392589999999999,0.255668,0.089175
472,-0.174064,0.976078,0.1302589999999999,-0.129693,0.54678,0.101919
473,-0.183971,0.981818,0.046704,-0.027043,0.639504,0.446201
474,-0.179595,0.983318,-0.02872,-0.221528,0.7236670000000001,0.319171
475,-0.16535,0.98198,-0.0914809999999999,-0.411249,0.758864,0.21906
476,-0.155472,0.976382,-0.150002,-0.302063,0.61221,0.1791309999999999
477,-0.158357,0.967107,-0.1990549999999999,-0.112883,0.548091,0.278462
478,-0.185499,0.952844,-0.240155,0.294432,0.397742,0.038297
479,-0.226509,0.928222,-0.295114,0.382271,0.116806,-0.082678
480,-0.245109,0.903703,-0.351052,0.27787,-0.067476,0.115685
481,-0.246608,0.891481,-0.380056,0.13209,-0.281694,0.661626
482,-0.255117,0.880217,-0.40016,0.135168,-0.756514,0.8454879999999999
483,-0.269436,0.8642350000000001,-0.42485,0.2852739999999999,-0.8490530000000001,0.642135
484,-0.290995,0.8459530000000001,-0.446858,0.298792,-0.57839,0.42194
485,-0.311538,0.831269,-0.4603609999999999,0.300277,-0.529374,0.402652
486,-0.326904,0.8233209999999999,-0.463975,0.307998,-0.582812,0.427079
487,-0.339819,0.8223860000000001,-0.456289,0.112463,-0.721694,0.423697
488,-0.3483969999999999,0.829464,-0.4365819999999999,0.106958,-0.7455109999999999,0.369382
489,-0.345476,0.845334,-0.407494,0.0467389999999999,-0.7162149999999999,0.053063
490,-0.32554,0.8696709999999999,-0.371068,0.016641,-0.660717,-0.254069
491,-0.295668,0.896466,-0.3300369999999999,-0.198732,0.045444,-0.765651
492,-0.275577,0.906408,-0.3201199999999999,-0.169034,0.794321,-1.197977
493,-0.271608,0.898415,-0.345072,-0.843413,1.524757,-1.302832
494,-0.276845,0.8865719999999999,-0.3705969999999999,-0.818401,0.7321409999999999,-0.8150569999999999
495,-0.299194,0.875158,-0.380232,-0.589356,-0.1904809999999999,0.123259
496,-0.330842,0.863345,-0.3810159999999999,-0.149871,1.054593,0.638173
497,-0.363857,0.849576,-0.381869,0.403728,1.4173,0.394183
498,-0.3720239999999999,0.8456809999999999,-0.3826449999999999,0.521072,-0.7087939999999999,0.229737
499,-0.376909,0.845942,-0.377248,0.50844,-0.270259,0.406865
500,-0.368701,0.857748,-0.358221,0.528201,0.2858219999999999,0.284429
501,-0.359115,0.864117,-0.352609,0.7913359999999999,0.8896370000000001,0.288217
502,-0.3336119999999999,0.881208,-0.334917,0.446817,0.481203,0.3012559999999999
503,-0.295261,0.910162,-0.290551,0.26807,0.376261,-0.103568
504,-0.26175,0.929933,-0.258274,0.27089,0.251418,-0.0307579999999999
505,-0.235251,0.94453,-0.229156,0.295508,-0.083401,0.151627
506,-0.208825,0.959142,-0.190872,0.126839,-0.5098010000000001,0.163269
507,-0.180019,0.974062,-0.13707,0.004848,-0.495516,0.091736
508,-0.155951,0.985226,-0.07072,0.048544,-0.423992,0.031062
509,-0.138925,0.990199,-0.014068,0.157693,-0.309199,-0.127625
510,-0.129412,0.99115,0.029419,0.1036859999999999,-0.453858,-0.119919
511,-0.12475,0.98962,0.0712899999999999,0.122568,-0.536617,0.018828
512,-0.130519,0.984413,0.117849,0.172709,-0.479347,0.312418
513,-0.153148,0.976056,0.154439,0.10403,0.02106,-0.015965
514,-0.173313,0.968707,0.177655,0.16663,0.172589,-0.382062
515,-0.178098,0.961589,0.208852,0.364149,0.375096,-0.8531549999999999
516,-0.181427,0.95329,0.241483,0.5075529999999999,0.518253,-0.431608
517,-0.19839,0.950707,0.238303,0.398784,0.4702979999999999,-0.425987
518,-0.2147659999999999,0.950436,0.224809,0.456114,0.4146609999999999,-0.179078
519,-0.2261929999999999,0.95081,0.2116309999999999,0.4680899999999999,0.516749,-0.359565
520,-0.235233,0.950292,0.203969,0.415363,0.463771,-0.346715
521,-0.246204,0.950907,0.187491,0.278781,0.373083,-0.1533119999999999
522,-0.253804,0.954444,0.15689,0.394947,0.319513,0.017396
523,-0.259833,0.959123,0.11208,0.253623,0.4951609999999999,0.224788
524,-0.264814,0.962822,0.053288,0.023283,0.641624,0.414134
525,-0.261104,0.965111,-0.019459,-0.005085,0.529045,0.231739
526,-0.2449869999999999,0.965986,-0.082739,-0.067162,0.694308,0.312902
527,-0.227853,0.965411,-0.126723,-0.094626,0.7407050000000001,0.202345
528,-0.2151179999999999,0.964157,-0.155307,0.045898,0.680542,0.2847929999999999
529,-0.2077949999999999,0.964343,-0.1638869999999999,0.201768,0.601056,0.350761
530,-0.209377,0.961009,-0.180605,0.212108,0.443776,0.4177869999999999
531,-0.2178969999999999,0.953069,-0.210177,0.420717,0.009928,0.491595
532,-0.217745,0.942057,-0.255169,0.392916,-0.2801,0.460156
533,-0.2146679999999999,0.928196,-0.3039159999999999,0.340782,-0.720936,0.440863
534,-0.223095,0.912386,-0.343185,0.266689,-0.919115,0.668488
535,-0.228383,0.897281,-0.377787,0.091374,-0.77486,0.408915
536,-0.234012,0.886793,-0.398536,0.1024809999999999,-0.689024,0.267707
537,-0.245832,0.8819889999999999,-0.402067,0.153592,-0.5777439999999999,0.2260719999999999
538,-0.262611,0.8799319999999999,-0.395916,0.070991,-0.666812,0.358761
539,-0.276596,0.882674,-0.379967,0.0015869999999999,-0.712997,0.358528
540,-0.279951,0.891798,-0.355411,-0.076967,-0.765501,0.320423
541,-0.269638,0.90636,-0.325269,-0.144272,-0.715137,0.057294
542,-0.2459239999999999,0.92584,-0.286939,-0.133913,-0.558653,-0.024416
543,-0.216329,0.944078,-0.2488179999999999,0.052557,0.6482829999999999,-0.436638
544,-0.199966,0.947954,-0.247771,0.083358,2.458495,-1.2180959999999998
545,-0.208517,0.93598,-0.283647,-0.527338,0.928858,-1.341658
546,-0.217858,0.925098,-0.311007,-0.3347239999999999,-0.719074,-0.730299
547,-0.2359139999999999,0.917136,-0.321248,-0.175859,-0.447501,-0.338954
548,-0.259565,0.913958,-0.311931,0.2791869999999999,0.509458,0.338405
549,-0.2718489999999999,0.915224,-0.2974179999999999,1.084852,1.789626,0.829598
550,-0.260559,0.913044,-0.313773,0.779099,-0.02486,0.564826
551,-0.23365,0.916808,-0.323826,0.277794,-0.925536,1.097569
552,-0.219779,0.925886,-0.307287,-0.075097,0.029131,-0.321314
553,-0.237012,0.931419,-0.276183,0.586973,0.94912,0.268569
554,-0.257257,0.934408,-0.246361,0.678399,0.666117,0.513283
555,-0.223573,0.954074,-0.199374,0.425966,0.158902,0.279361
556,-0.191931,0.969195,-0.154327,0.32543,0.1257,0.153686
557,-0.1736599999999999,0.97794,-0.116051,0.014541,-0.136342,0.09922
558,-0.15145,0.98616,-0.06741,-0.092508,-0.31668,0.186765
559,-0.129365,0.991556,-0.0085209999999999,0.07628,-0.357965,0.0723029999999999
560,-0.114828,0.992757,0.035206,0.128271,-0.317677,-0.086766
561,-0.105776,0.991785,0.071868,0.1486839999999999,-0.342294,-0.118667
562,-0.101379,0.988942,0.108193,0.111404,-0.463551,-0.031121
563,-0.104549,0.983594,0.146971,0.112514,-0.477857,-2.9e-05
564,-0.115839,0.976296,0.182802,0.118753,-0.154778,-0.013628
565,-0.132022,0.968239,0.212299,0.2087429999999999,0.19802,-0.306659
566,-0.143697,0.959544,0.2421039999999999,0.328267,0.225133,-0.728294
567,-0.149404,0.949442,0.27609,0.34847,0.227209,-0.354337
568,-0.1638119999999999,0.943294,0.288703,0.210718,0.431096,-0.538978
569,-0.1789609999999999,0.941869,0.28433,0.508108,0.35435,-0.209028
570,-0.190107,0.941752,0.277397,0.5081760000000001,0.391545,-0.204216
571,-0.19955,0.941905,0.270152,0.271327,0.5808770000000001,-0.428538
572,-0.20334,0.943123,0.262982,0.224183,0.5252,-0.324246
573,-0.210463,0.946671,0.24394,0.233565,0.4873649999999999,-0.182584
574,-0.217111,0.953787,0.207706,0.193643,0.40896,0.020748
575,-0.223435,0.963238,0.149126,0.115769,0.412281,0.130445
576,-0.23141,0.969837,0.076517,-0.2163139999999999,0.393154,0.247992
577,-0.235451,0.971881,0.000661,-0.193138,0.480054,0.392573
578,-0.229563,0.970872,-0.0685549999999999,-0.064321,0.577605,0.304365
579,-0.222138,0.966857,-0.125829,-0.016387,0.603196,0.263418
580,-0.224726,0.958936,-0.173006,-0.005682,0.531664,0.204104
581,-0.244581,0.94639,-0.210992,0.075376,0.532217,0.193292
582,-0.269513,0.928689,-0.254741,0.435879,0.26052,-0.074437
583,-0.276412,0.912451,-0.301698,0.469329,0.037912,0.077837
584,-0.267856,0.903098,-0.335649,0.220402,-0.178214,0.463243
585,-0.263114,0.8957790000000001,-0.358252,0.196479,-0.302898,0.55007
586,-0.265158,0.887783,-0.376199,0.226843,-0.730587,0.511301
587,-0.269219,0.88074,-0.38963,0.240578,-0.728824,0.489087
588,-0.273624,0.8752969999999999,-0.398721,0.235782,-0.7035899999999999,0.46293
589,-0.275934,0.8724870000000001,-0.403262,0.226374,-0.6559649999999999,0.435993
590,-0.279175,0.8724940000000001,-0.401011,0.155198,-0.682125,0.396753
591,-0.279808,0.877423,-0.389654,0.095192,-0.698635,0.345114
592,-0.272042,0.8897780000000001,-0.3664449999999999,-0.042747,-0.7354649999999999,0.0302779999999999
593,-0.252577,0.908984,-0.331579,-0.071367,-0.721286,-0.091318
594,-0.223888,0.93156,-0.286466,-0.170002,-0.568263,-0.179553
595,-0.196854,0.948332,-0.24881,0.158676,2.133134,-0.934509
596,-0.186243,0.946109,-0.264922,-0.052939,2.8634,-1.153276
597,-0.188947,0.931668,-0.310301,-0.468265,-0.364789,-0.972048
598,-0.195983,0.919364,-0.341105,-0.169541,-0.755134,-0.444723
599,-0.215305,0.914946,-0.341337,-0.10191,-0.3382699999999999,-0.070132
600,-0.23654,0.912839,-0.332816,0.658445,0.824679,0.8681549999999999
601,-0.241848,0.917074,-0.316981,0.615582,0.906977,1.099146
602,-0.227618,0.917572,-0.32595,0.492877,-0.029831,0.692146
603,-0.199942,0.922505,-0.330152,-0.149515,-0.705022,0.851576
604,-0.179389,0.929858,-0.321212,-0.215463,-0.161578,-0.0861059999999999
605,-0.191132,0.932588,-0.306172,0.101029,0.7099449999999999,-0.434841
606,-0.210315,0.934616,-0.286798,0.435871,0.298599,0.3428739999999999
607,-0.189781,0.950907,-0.244438,0.438408,-0.172709,0.408577
608,-0.151497,0.968927,-0.195499,0.424004,0.023978,0.092823
609,-0.1337549999999999,0.979831,-0.1484319999999999,0.311367,-0.072055,0.127604
610,-0.1261779999999999,0.985953,-0.109395,0.171603,-0.287558,0.171529
611,-0.107768,0.992209,-0.062433,0.055019,-0.30213,0.037073
612,-0.088879,0.996002,-0.00835,0.0566679999999999,-0.273559,-0.065167
613,-0.074476,0.996411,0.040074,0.053572,-0.337186,-0.1049089999999999
614,-0.069867,0.993946,0.084723,0.1194119999999999,-0.350086,0.001764
615,-0.077152,0.988289,0.131605,0.147769,-0.214226,0.055452
616,-0.091095,0.980303,0.1752,0.16626,-0.1430529999999999,-0.043258
617,-0.105939,0.971784,0.210711,0.155118,0.009783,-0.174304
618,-0.120114,0.96186,0.245731,0.225492,0.248986,-0.8874700000000001
619,-0.131771,0.951518,0.277914,0.4140279999999999,0.265828,-0.478338
620,-0.1529039999999999,0.947286,0.281524,0.27763,0.371272,-0.475967
621,-0.169268,0.947274,0.272042,0.527712,0.248054,-0.130365
622,-0.17694,0.948287,0.263499,0.497176,0.28145,-0.173625
623,-0.1804599999999999,0.948854,0.259033,0.373148,0.4376819999999999,-0.259308
624,-0.183573,0.950375,0.25115,0.045328,0.467807,-0.327001
625,-0.189053,0.955226,0.227573,0.174267,0.4025309999999999,-0.056583
626,-0.193443,0.963186,0.18666,0.18064,0.412822,0.087464
627,-0.195655,0.972252,0.128191,-0.06585,0.49958,0.156599
628,-0.198693,0.977927,0.06457,-0.278251,0.436318,0.246557
629,-0.201892,0.979398,-0.003312,-0.227399,0.476245,0.297852
630,-0.202656,0.9768,-0.069163,-0.035519,0.5169279999999999,0.21377
631,-0.201877,0.970542,-0.131472,-0.153271,0.612877,0.173678
632,-0.210325,0.961011,-0.179479,-0.141665,0.532366,0.11498
633,-0.232376,0.949698,-0.209923,0.166138,0.270669,0.213829
634,-0.2597489999999999,0.932691,-0.250224,0.448897,0.008609,0.052119
635,-0.270738,0.915527,-0.2974989999999999,0.400163,-0.063125,0.117629
636,-0.266342,0.906208,-0.328394,0.290161,-0.166676,0.27157
637,-0.26115,0.8990530000000001,-0.351425,0.118801,-0.520238,0.6167600000000001
638,-0.2611219999999999,0.890459,-0.372684,0.22505,-0.62343,0.534122
639,-0.26561,0.8817879999999999,-0.389738,0.234955,-0.670027,0.5008520000000001
640,-0.270541,0.8746149999999999,-0.402306,0.130771,-0.652936,0.385873
641,-0.2715329999999999,0.871893,-0.407515,0.128696,-0.6749930000000001,0.365538
642,-0.270144,0.8744860000000001,-0.402855,0.058855,-0.670872,0.297951
643,-0.264682,0.883236,-0.387081,0.024906,-0.6651729999999999,0.167538
644,-0.250186,0.8991100000000001,-0.359169,0.018771,-0.743394,-0.0793529999999999
645,-0.226121,0.920581,-0.318424,-0.04901,-0.407215,-0.222165
646,-0.19649,0.943156,-0.2680349999999999,0.054858,0.625127,-0.619355
647,-0.176929,0.95137,-0.252161,0.005542,2.666916,-1.051688
648,-0.173723,0.939122,-0.296419,-0.699491,0.947551,-1.441847
649,-0.167647,0.924625,-0.34199,-0.353044,-0.868183,-0.7620140000000001
650,-0.175751,0.916006,-0.360609,0.066513,-1.067206,-0.072939
651,-0.1967549999999999,0.91678,-0.347557,0.121239,-0.528353,0.65908
652,-0.2161719999999999,0.919825,-0.327392,0.124681,-0.011973,1.069565
653,-0.208313,0.931444,-0.29835,0.267975,1.858473,0.933985
654,-0.198708,0.934462,-0.2954489999999999,0.476434,1.667543,-0.409401
655,-0.196369,0.935189,-0.294712,0.8562360000000001,-0.186531,0.8587379999999999
656,-0.171125,0.94156,-0.290128,-0.374896,-0.957567,0.8419620000000001
657,-0.147267,0.955837,-0.254324,-0.405681,-0.205563,-0.6658270000000001
658,-0.161993,0.959184,-0.231769,0.365331,0.514525,-0.037137
659,-0.16851,0.9647,-0.202366,0.668006,0.001075,0.558277
660,-0.118282,0.981194,-0.152508,0.5351670000000001,0.0452339999999999,0.5097470000000001
661,-0.077837,0.992389,-0.0953799999999999,0.14815,-0.0660429999999999,0.165998
662,-0.05864,0.996891,-0.052549,-0.167694,-0.103809,0.111372
663,-0.049062,0.998644,-0.017163,-0.1255599999999999,-0.3109909999999999,0.202405
664,-0.043581,0.99881,0.021666,0.141618,-0.251862,0.0035409999999999
665,-0.037498,0.997415,0.0612059999999999,0.150611,-0.261957,-0.100162
666,-0.034057,0.994123,0.1027059999999999,0.162291,-0.271283,-0.140899
667,-0.0368779999999999,0.988774,0.144754,0.142819,-0.2265059999999999,-0.218011
668,-0.045319,0.982604,0.18006,0.146302,-0.1371609999999999,-0.2248909999999999
669,-0.055285,0.975172,0.214407,0.1883119999999999,0.094912,-0.403738
670,-0.0658059999999999,0.965872,0.2504949999999999,0.251948,0.209482,-0.653632
671,-0.078804,0.956998,0.2791599999999999,0.257789,0.0821409999999999,-0.530091
672,-0.095877,0.95274,0.2882369999999999,0.322242,0.19408,-0.487196
673,-0.116683,0.951852,0.283459,0.484893,0.329703,-0.28706
674,-0.1329,0.951862,0.2761949999999999,0.448284,0.416394,-0.194393
675,-0.139881,0.952826,0.269339,0.2319369999999999,0.409006,-0.324652
676,-0.14153,0.954789,0.2614059999999999,0.097844,0.447905,-0.284066
677,-0.144508,0.960012,0.239753,0.18914,0.347285,-0.2238079999999999
678,-0.149953,0.96931,0.1947829999999999,0.0045829999999999,0.400289,0.043986
679,-0.155898,0.979511,0.12745,-0.035722,0.6002770000000001,0.132545
680,-0.158457,0.98595,0.05276,-0.089056,0.565045,0.381611
681,-0.155581,0.98768,-0.016558,-0.213452,0.600715,0.40967
682,-0.148145,0.98598,-0.076726,-0.219942,0.570233,0.2460679999999999
683,-0.143101,0.981184,-0.129583,-0.224987,0.575029,0.298925
684,-0.153831,0.97293,-0.17244,0.0530159999999999,0.486466,0.232407
685,-0.188538,0.956921,-0.220791,0.210785,0.288959,0.138042
686,-0.226008,0.933677,-0.277779,0.480952,0.099603,-0.0257029999999999
687,-0.2372969999999999,0.915481,-0.324928,0.333778,-0.080596,0.244576
688,-0.234012,0.906502,-0.351404,0.146732,-0.341988,0.607355
689,-0.233738,0.898073,-0.372591,0.186969,-0.646029,0.669604
690,-0.2394239999999999,0.886534,-0.395888,0.245054,-0.721205,0.542403
691,-0.248901,0.8749129999999999,-0.415415,0.21463,-0.694875,0.494349
692,-0.25437,0.867145,-0.4281939999999999,0.158698,-0.644519,0.428346
693,-0.257525,0.864284,-0.432076,0.128619,-0.691295,0.422768
694,-0.260386,0.8664540000000001,-0.425971,0.077357,-0.701216,0.336494
695,-0.2594079999999999,0.8752979999999999,-0.408112,0.021463,-0.7007680000000001,0.203873
696,-0.249525,0.8912909999999999,-0.378591,-0.040437,-0.6756850000000001,-0.0097
697,-0.2271889999999999,0.91423,-0.335502,-0.057982,-0.353195,-0.1088339999999999
698,-0.197987,0.937217,-0.287087,0.016316,0.75274,-0.6196510000000001
699,-0.17715,0.944231,-0.277559,-0.032948,2.838285,-1.216201
700,-0.171841,0.930462,-0.323583,-0.697925,0.776509,-1.397426
701,-0.170592,0.915661,-0.363948,-0.471376,-0.324154,-0.990575
702,-0.185651,0.907941,-0.375727,0.045576,-0.915494,0.021906
703,-0.210583,0.907205,-0.364181,0.091656,-0.0895929999999999,0.659957
704,-0.2319699999999999,0.910421,-0.342515,0.305411,0.403864,1.155214
705,-0.2292969999999999,0.918373,-0.322502,0.283359,1.7502830000000005,0.695839
706,-0.2216679999999999,0.918695,-0.326889,0.571293,0.474097,-0.148865
707,-0.209026,0.918818,-0.334776,0.4326899999999999,-0.557871,0.97383
708,-0.182897,0.930549,-0.317209,-0.192866,-0.325019,0.362681
709,-0.177052,0.941957,-0.2852429999999999,0.046208,0.5246109999999999,-0.380712
710,-0.189488,0.946783,-0.260175,0.354633,0.384501,0.213758
711,-0.173377,0.957891,-0.2288639999999999,0.373481,-0.236181,0.462705
712,-0.13047,0.974941,-0.18017,0.4250859999999999,-0.0769919999999999,0.4737939999999999
713,-0.096433,0.98702,-0.128397,0.363248,-0.052465,0.33407
714,-0.074037,0.993342,-0.088216,0.063859,-0.172313,0.111561
715,-0.057572,0.997049,-0.050707,-0.017775,-0.2493679999999999,0.08687
716,-0.045422,0.998945,-0.005985,-0.006199,-0.265928,0.1133609999999999
717,-0.038582,0.998548,0.037457,0.0547559999999999,-0.2284679999999999,0.076496
718,-0.038822,0.996124,0.078861,0.133991,-0.201355,0.02998
719,-0.044509,0.991951,0.118494,0.191711,-0.171547,-0.116755
720,-0.052465,0.987343,0.149637,0.23464,-0.087959,-0.261392
721,-0.06069,0.982431,0.176451,0.288367,0.087973,-0.655288
722,-0.065435,0.976669,0.20451,0.321782,0.135178,-0.66769
723,-0.073549,0.96952,0.233686,0.349229,0.1743549999999999,-0.5787640000000001
724,-0.093189,0.963117,0.252405,0.1078829999999999,0.2441429999999999,-0.5007729999999999
725,-0.112896,0.96005,0.256017,0.3240929999999999,0.2832969999999999,-0.399541
726,-0.127057,0.958677,0.2545219999999999,0.531705,0.2882099999999999,-0.253743
727,-0.13619,0.958248,0.251395,0.229818,0.37244,-0.189963
728,-0.140895,0.958364,0.248344,0.070949,0.3281199999999999,-0.291603
729,-0.143439,0.960562,0.2381889999999999,0.056937,0.276606,-0.355269
730,-0.15165,0.965612,0.2111469999999999,0.068184,0.238001,-0.1150619999999999
731,-0.16286,0.973509,0.160451,0.082309,0.292436,-0.052632
732,-0.171289,0.980931,0.09178,0.166055,0.555828,0.2398539999999999
733,-0.17087,0.985008,0.023503,0.069216,0.680535,0.482463
734,-0.160571,0.986418,-0.034443,-0.328962,0.548662,0.383945
735,-0.147189,0.985523,-0.084076,-0.287305,0.4154779999999999,0.228043
736,-0.1454619999999999,0.97959,-0.138685,-0.185501,0.34475,0.288771
737,-0.169568,0.967425,-0.18795,-0.010822,0.48718,0.3441849999999999
738,-0.217032,0.947199,-0.236013,0.3035489999999999,0.356436,-0.169428
739,-0.255138,0.924627,-0.2827739999999999,0.396785,0.109797,-0.108217
740,-0.258729,0.911398,-0.320006,0.343003,0.12832,0.1212299999999999
741,-0.252764,0.904303,-0.344005,0.210757,-0.352728,0.646098
742,-0.254512,0.895216,-0.365794,0.283763,-0.610288,0.623347
743,-0.264186,0.884232,-0.38514,0.3227489999999999,-0.6598970000000001,0.578408
744,-0.2712199999999999,0.8748290000000001,-0.401382,0.243434,-0.676388,0.403686
745,-0.275228,0.86854,-0.412166,0.202535,-0.661265,0.42091
746,-0.278424,0.866288,-0.414752,0.1246,-0.630174,0.398303
747,-0.27935,0.86959,-0.407149,0.167061,-0.717109,0.410261
748,-0.279394,0.877332,-0.390154,0.074469,-0.689756,0.268343
749,-0.273773,0.890634,-0.363061,0.006301,-0.688577,0.157479
750,-0.254185,0.91029,-0.326734,-0.1086839999999999,-0.444409,-0.106845
751,-0.221613,0.932101,-0.2864739999999999,-0.051778,0.28291,-0.4302319999999999
752,-0.195926,0.945052,-0.261689,0.0189389999999999,0.988129,-0.7497699999999999
753,-0.188748,0.937971,-0.2908219999999999,-0.509739,1.749514,-1.277385
754,-0.188194,0.923558,-0.3340909999999999,-0.333092,-0.546941,-0.907349
755,-0.199402,0.913771,-0.353913,-0.174393,-0.989607,-0.5316609999999999
756,-0.22315,0.910605,-0.3478449999999999,0.024373,-0.0306,0.326666
757,-0.2489429999999999,0.909707,-0.332345,0.554165,0.6028359999999999,1.038003
758,-0.257201,0.911241,-0.321684,0.441772,1.381758,0.8929729999999999
759,-0.238492,0.914195,-0.32766,0.5758489999999999,-0.129955,0.316216
760,-0.2154,0.917555,-0.3342,0.260398,-0.356321,0.646898
761,-0.2071,0.926152,-0.31519,-0.047325,0.0647539999999999,0.076619
762,-0.2205599999999999,0.931447,-0.289401,0.341227,0.624065,-0.175077
763,-0.227438,0.937759,-0.262437,0.347128,0.172013,0.300111
764,-0.1996089999999999,0.95339,-0.226263,0.356775,-0.12113,0.366705
765,-0.16748,0.968212,-0.1857619999999999,0.410781,0.096333,0.315859
766,-0.149439,0.977179,-0.1509319999999999,0.131327,0.051004,0.165046
767,-0.130162,0.984461,-0.11784,0.11205,0.043723,0.131955
768,-0.106942,0.991622,-0.072392,-0.074607,-0.362944,-0.004268
769,-0.087851,0.995913,-0.0207259999999999,-0.145227,-0.349169,-0.070781
770,-0.0777679999999999,0.996683,0.023752,-0.110739,-0.337076,-0.0992519999999999
771,-0.077196,0.995013,0.063091,0.162966,-0.348696,0.038975
772,-0.08409,0.991038,0.103736,0.2475429999999999,-0.258189,0.063271
773,-0.094565,0.98543,0.1413299999999999,0.269553,-0.075319,-0.0773809999999999
774,-0.106902,0.978696,0.175254,0.292891,-0.005949,-0.18119
775,-0.116128,0.970279,0.212276,0.242623,0.167538,-0.739086
776,-0.125748,0.962144,0.241776,0.310944,0.162673,-0.537537
777,-0.146728,0.957774,0.247242,0.25386,0.287862,-0.4236189999999999
778,-0.163495,0.956854,0.240184,0.590512,0.220881,-0.179622
779,-0.174073,0.956897,0.232455,0.545655,0.30206,-0.190387
780,-0.179476,0.956237,0.231055,0.365328,0.435486,-0.389136
781,-0.183137,0.957132,0.224378,0.14055,0.325903,-0.384519
782,-0.188828,0.961522,0.199515,0.163239,0.326686,-0.18093
783,-0.196954,0.967474,0.158713,0.163187,0.253259,-0.032324
784,-0.202512,0.974631,0.095249,0.098264,0.585901,0.256374
785,-0.1999369999999999,0.979472,0.025444,-0.135878,0.570912,0.351723
786,-0.189529,0.981037,-0.040437,-0.224518,0.642239,0.4745189999999999
787,-0.177181,0.979392,-0.096895,-0.247105,0.457406,0.201891
788,-0.168592,0.973702,-0.153205,-0.191683,0.554786,0.220405
789,-0.174819,0.964185,-0.199441,-0.0875259999999999,0.6161979999999999,0.128228
790,-0.2013069999999999,0.951807,-0.231368,0.309141,0.3281,0.1081839999999999
791,-0.234051,0.932536,-0.274935,0.379269,0.196813,0.064485
792,-0.243809,0.91622,-0.317949,0.293491,0.02154,0.213304
793,-0.234261,0.908885,-0.345026,0.12777,-0.210612,0.513651
794,-0.227394,0.902584,-0.365552,0.084053,-0.398692,0.640408
795,-0.2289769999999999,0.892961,-0.387536,0.248279,-0.759355,0.6143890000000001
796,-0.238315,0.881373,-0.4078989999999999,0.225681,-0.717707,0.472261
797,-0.246799,0.8722139999999999,-0.422288,0.203479,-0.676855,0.428849
798,-0.253618,0.867576,-0.4277649999999999,0.20772,-0.712593,0.388657
799,-0.2619059999999999,0.867926,-0.422022,0.079259,-0.7188329999999999,0.373438
800,-0.267686,0.874301,-0.40489,0.051805,-0.715975,0.255369
801,-0.2635929999999999,0.8879309999999999,-0.376948,-0.008212,-0.759544,0.03071
802,-0.2429619999999999,0.909644,-0.336912,-0.022358,-0.602835,-0.147021
803,-0.2074599999999999,0.935064,-0.287416,-0.069319,-0.286702,-0.244505
804,-0.176569,0.949237,-0.260315,0.018579,1.964368,-1.120835
805,-0.165135,0.939152,-0.30119,-0.750468,1.730587,-1.310932
806,-0.162638,0.925362,-0.342412,-0.268178,-0.517754,-0.7755989999999999
807,-0.1827079999999999,0.914607,-0.360699,-0.1791849999999999,-0.775768,-0.149616
808,-0.2108949999999999,0.909687,-0.357751,0.187519,0.351834,0.6909270000000001
809,-0.239425,0.909672,-0.33936,0.391601,1.481014,0.908726
810,-0.250812,0.904291,-0.345463,0.458331,0.6103729999999999,0.524051
811,-0.244832,0.903278,-0.352333,0.532796,-0.420307,0.752174
812,-0.2385449999999999,0.908091,-0.344179,0.184864,-0.279719,0.669588
813,-0.235292,0.918945,-0.316496,0.152604,0.297028,0.003859
814,-0.2409369999999999,0.925574,-0.291982,0.336244,0.715585,0.134923
815,-0.220913,0.938953,-0.263735,0.3763849999999999,0.4405479999999999,0.3739639999999999
816,-0.173867,0.958696,-0.2250849999999999,0.331551,0.038099,0.300051
817,-0.133537,0.973612,-0.1850359999999999,0.214531,-0.079874,0.33564
818,-0.100309,0.984175,-0.146046,0.086119,-0.176084,0.284382
819,-0.070873,0.992269,-0.101835,-0.015186,-0.251653,0.130246
820,-0.051849,0.997046,-0.056567,0.010376,-0.369925,0.0583669999999999
821,-0.042319,0.998988,-0.014881,0.0297459999999999,-0.363429,0.020924
822,-0.037034,0.998951,0.026723,0.071946,-0.331898,-0.02001
823,-0.039876,0.996509,0.073257,0.124776,-0.405277,0.044739
824,-0.0535799999999999,0.991776,0.1161809999999999,0.2122409999999999,-0.311081,-0.0262
825,-0.071569,0.985999,0.150569,0.252202,-0.14492,-0.0955
826,-0.084744,0.979014,0.185303,0.247799,0.2202199999999999,-0.850556
827,-0.091754,0.970763,0.221781,0.363132,0.2351849999999999,-0.714854
828,-0.105845,0.96589,0.236306,0.454462,0.2118449999999999,-0.500528
829,-0.12093,0.964473,0.234851,0.437122,0.338994,-0.180469
830,-0.129816,0.964483,0.230015,0.52717,0.297648,-0.16309
831,-0.1366369999999999,0.96414,0.227485,0.403773,0.434267,-0.262657
832,-0.139255,0.963922,0.2268219999999999,0.191379,0.485022,-0.437668
833,-0.147289,0.965915,0.212837,0.24821,0.436185,-0.201149
834,-0.155099,0.970779,0.183078,0.176141,0.322083,-0.069491
835,-0.162273,0.978225,0.129342,0.006206,0.28859,0.183646
836,-0.169824,0.9839,0.055557,-0.179557,0.463487,0.202454
837,-0.1698579999999999,0.985309,-0.017409,-0.236652,0.523511,0.419768
838,-0.16141,0.983559,-0.080912,-0.287076,0.634757,0.35406
839,-0.148845,0.979079,-0.138704,-0.260167,0.7004560000000001,0.297426
840,-0.142757,0.9711,-0.191245,-0.050023,0.629272,0.236701
841,-0.154238,0.961491,-0.227452,0.290774,0.442577,0.316716
842,-0.186689,0.944614,-0.269894,0.481459,0.06236,0.202694
843,-0.220594,0.919224,-0.3261239999999999,0.499845,-0.1116369999999999,0.028272
844,-0.232256,0.899109,-0.371015,0.219286,-0.18869,0.254438
845,-0.232007,0.8872610000000001,-0.398665,0.1273619999999999,-0.327049,0.568923
846,-0.235204,0.87623,-0.4205859999999999,0.108571,-0.617426,0.6663600000000001
847,-0.242065,0.864474,-0.4405479999999999,0.238571,-0.6400779999999999,0.546337
848,-0.250163,0.854477,-0.455281,0.2520699999999999,-0.5891569999999999,0.4457899999999999
849,-0.258104,0.8476790000000001,-0.463483,0.126604,-0.617576,0.4363829999999999
850,-0.268629,0.843979,-0.4642529999999999,0.039701,-0.637772,0.404698
851,-0.276814,0.846627,-0.454522,0.03278,-0.647073,0.38572
852,-0.278963,0.857035,-0.4332,-0.010725,-0.6639510000000001,0.202564
853,-0.268034,0.875765,-0.40148,-0.041323,-0.577944,0.017508
854,-0.240752,0.901795,-0.358883,-0.028779,-0.066254,-0.179554
855,-0.205585,0.92801,-0.310682,0.144245,1.264556,-0.870165
856,-0.182585,0.93664,-0.298931,0.080046,2.363302,-1.1549120000000002
857,-0.1763559999999999,0.924491,-0.337944,-0.364523,2.617363,-1.235817
858,-0.178677,0.910782,-0.372212,-0.035587,-0.97699,-0.556453
859,-0.194216,0.903449,-0.382167,0.002184,-0.542258,0.117214
860,-0.220046,0.902221,-0.370902,0.256102,0.247452,0.86608
861,-0.244255,0.905038,-0.348191,0.539207,1.3753879999999998,0.96135
862,-0.24844,0.910211,-0.331337,0.484493,0.8147340000000001,0.533317
863,-0.231903,0.913475,-0.334328,0.684647,-0.356819,0.693062
864,-0.207467,0.916006,-0.343339,0.012109,-0.486151,0.737107
865,-0.190589,0.928477,-0.318743,-0.210427,0.066839,-0.1212589999999999
866,-0.202432,0.935183,-0.290593,0.021616,0.5650609999999999,-0.048687
867,-0.217486,0.937765,-0.270715,0.230929,-0.014685,0.403329
868,-0.18961,0.953359,-0.234827,0.371571,-0.08077,0.365915
869,-0.151219,0.970511,-0.1877,0.442799,-0.030798,0.308153
870,-0.130742,0.980276,-0.148172,0.276509,-0.117254,0.152643
871,-0.115024,0.986419,-0.117195,0.106281,-0.2322989999999999,0.0877759999999999
872,-0.099156,0.991835,-0.080119,0.052266,-0.277892,-0.019857
873,-0.083739,0.995759,-0.037942,0.073119,-0.333024,-0.0521
874,-0.070491,0.997501,0.003231,0.077632,-0.281177,0.0070989999999999
875,-0.066657,0.99671,0.045975,0.091681,-0.267187,0.043686
876,-0.073267,0.993447,0.087636,0.1838779999999999,-0.140512,-0.0341389999999999
877,-0.083978,0.988765,0.1236029999999999,0.244744,0.049245,-0.107947
878,-0.09576,0.982529,0.1595359999999999,0.362682,0.160522,-0.4855859999999999
879,-0.104227,0.974816,0.197114,0.366388,0.223594,-0.620484
880,-0.1124599999999999,0.967227,0.2276159999999999,0.300433,0.237088,-0.379228
881,-0.129761,0.962183,0.239479,0.195404,0.292669,-0.4567029999999999
882,-0.144285,0.960594,0.23754,0.52812,0.235711,-0.250922
883,-0.152108,0.960503,0.232984,0.4665149999999999,0.303597,-0.170164
884,-0.1582589999999999,0.960668,0.228157,0.263911,0.335292,-0.347344
885,-0.164002,0.961508,0.220435,0.066116,0.377848,-0.2807679999999999
886,-0.1713859999999999,0.965807,0.194495,0.139922,0.259351,-0.02999
887,-0.180378,0.973062,0.143527,-0.006725,0.398002,0.148068
888,-0.189645,0.97927,0.071061,-0.1205349999999999,0.542702,0.222183
889,-0.191349,0.981502,-0.004991,-0.12257,0.588581,0.379228
890,-0.184399,0.980071,-0.073791,-0.114704,0.571824,0.401931
891,-0.171171,0.976026,-0.134391,-0.2054,0.591952,0.381233
892,-0.16247,0.967948,-0.191491,-0.000997,0.5544359999999999,0.33442
893,-0.173838,0.956624,-0.233753,0.0704289999999999,0.486033,0.37743
894,-0.2101219999999999,0.936503,-0.2807139999999999,0.2529079999999999,0.4245649999999999,0.2350449999999999
895,-0.248221,0.910699,-0.330159,0.400153,-0.062676,-0.00056
896,-0.250432,0.895392,-0.36817,0.286581,-0.032354,0.269384
897,-0.244784,0.886223,-0.393294,0.171588,-0.137368,0.5303329999999999
898,-0.250421,0.8742,-0.415998,0.2479039999999999,-0.565805,0.57475
899,-0.258217,0.8634200000000001,-0.433384,0.231712,-0.640383,0.5619850000000001
900,-0.264389,0.854626,-0.446883,0.232621,-0.620984,0.441527
901,-0.269611,0.849326,-0.453814,0.233692,-0.646033,0.44321
902,-0.278633,0.847406,-0.45195,0.080421,-0.698206,0.412018
903,-0.287129,0.850339,-0.4409899999999999,0.034352,-0.731305,0.332241
904,-0.290033,0.860599,-0.4186189999999999,-0.067145,-0.73711,0.135339
905,-0.2803179999999999,0.8785879999999999,-0.3866469999999999,-0.0576029999999999,-0.650347,-0.060161
906,-0.253137,0.904227,-0.343926,-0.027487,-0.096702,-0.180167
907,-0.2186,0.928687,-0.299575,0.0768,1.30372,-0.760224
908,-0.197821,0.935541,-0.292609,0.037405,2.37377,-0.959603
909,-0.1909,0.922551,-0.335333,-0.436481,0.146312,-1.237589
910,-0.192503,0.907173,-0.374127,-0.046709,-0.854469,-0.626484
911,-0.207875,0.900831,-0.38116,0.064717,-0.75012,-0.317662
912,-0.231756,0.899186,-0.37114,0.394124,0.375747,0.8082739999999999
913,-0.247423,0.903407,-0.350184,0.525011,1.44019,1.061701
914,-0.242912,0.904637,-0.350168,0.5540390000000001,0.486934,0.693537
915,-0.222759,0.909317,-0.351442,0.39291,-0.414628,0.7499100000000001
916,-0.19729,0.91282,-0.357531,-0.361273,-0.553475,0.4611689999999999
917,-0.195486,0.922879,-0.331771,-0.336954,-0.269665,-0.10582
918,-0.221794,0.922433,-0.3160949999999999,0.375588,0.551261,0.061685
919,-0.220058,0.930586,-0.292533,0.38853,-0.1201609999999999,0.522758
920,-0.175307,0.952439,-0.2492329999999999,0.466658,0.005385,0.363262
921,-0.143449,0.967833,-0.206668,0.410387,0.050356,0.032596
922,-0.129527,0.975847,-0.1758819999999999,0.077037,-0.233828,0.171594
923,-0.1105609999999999,0.983964,-0.139932,0.005031,-0.323426,0.0393
924,-0.087983,0.991858,-0.092013,0.018754,-0.405142,-0.056898
925,-0.070884,0.996639,-0.040928,-0.051949,-0.364208,-0.0861779999999999
926,-0.060925,0.998129,0.003671,-0.061908,-0.365698,-0.130776
927,-0.060937,0.996977,0.04807,0.140435,-0.247694,0.1057839999999999
928,-0.070033,0.993147,0.0934909999999999,0.164423,-0.139479,0.047973
929,-0.084284,0.987365,0.134139,0.19137,-0.059051,-0.041946
930,-0.102198,0.979424,0.173983,0.298198,0.160575,-0.534762
931,-0.116906,0.969908,0.213535,0.4148489999999999,0.195772,-0.5228619999999999
932,-0.132751,0.963127,0.233985,0.341598,0.348488,-0.435722
933,-0.146175,0.960339,0.237416,0.398158,0.30054,-0.325292
934,-0.154683,0.959468,0.235542,0.656514,0.191747,-0.2281719999999999
935,-0.161237,0.959255,0.231987,0.417477,0.4949229999999999,-0.4186319999999999
936,-0.165759,0.959613,0.2272719999999999,0.181414,0.3760199999999999,-0.372719
937,-0.173306,0.962997,0.206368,0.025921,0.32454,-0.067192
938,-0.18134,0.968813,0.168826,-0.00584,0.326032,0.109219
939,-0.187869,0.976345,0.106972,-0.256025,0.6404310000000001,0.312644
940,-0.1886,0.981485,0.033237,-0.3791489999999999,0.5012270000000001,0.2091039999999999
941,-0.1813789999999999,0.982667,-0.038148,-0.381976,0.5388930000000001,0.3955079999999999
942,-0.1720809999999999,0.979485,-0.104821,-0.355492,0.576195,0.354867
943,-0.160772,0.972762,-0.166965,-0.1740519999999999,0.603456,0.202762
944,-0.1579839999999999,0.964696,-0.210695,0.047419,0.52476,0.306245
945,-0.176058,0.954895,-0.239101,0.252871,0.449325,0.3287
946,-0.206168,0.935392,-0.287277,0.501135,0.121844,0.177612
947,-0.230369,0.910087,-0.344476,0.505088,-0.0558539999999999,0.125024
948,-0.236298,0.8928280000000001,-0.383424,0.392716,-0.088476,0.2864239999999999
949,-0.240125,0.8799370000000001,-0.4099319999999999,0.119138,-0.713372,0.704441
950,-0.249228,0.866186,-0.4331279999999999,0.171317,-0.739217,0.6832050000000001
951,-0.266108,0.852295,-0.4503029999999999,0.201121,-0.734955,0.63942
952,-0.279679,0.8420479999999999,-0.461226,0.231171,-0.566535,0.3813
953,-0.289564,0.837216,-0.463912,0.1713849999999999,-0.5762149999999999,0.390884
954,-0.29588,0.8385290000000001,-0.457512,0.105741,-0.676862,0.3669969999999999
955,-0.297486,0.8461069999999999,-0.4422649999999999,0.090745,-0.708503,0.290303
956,-0.2883989999999999,0.860925,-0.41908,0.021904,-0.71177,0.07707
957,-0.262268,0.883962,-0.3870659999999999,-0.001648,-0.667806,-0.141544
958,-0.220438,0.913279,-0.342521,-0.003744,0.040822,-0.413293
959,-0.1780119999999999,0.936328,-0.302644,0.100863,0.788877,-0.8542620000000001
960,-0.1625579999999999,0.931711,-0.324779,-0.648859,2.212866,-1.198842
961,-0.157528,0.917848,-0.364324,-0.6861,0.7950119999999999,-1.145457
962,-0.164936,0.906659,-0.388278,-0.08511,-0.941235,-0.310194
963,-0.1905099999999999,0.902778,-0.385605,-0.071972,-0.0081549999999999,0.403183
964,-0.221018,0.901793,-0.371367,0.2051329999999999,0.398027,1.554366
965,-0.232931,0.909771,-0.343586,0.126242,1.427997,0.991443
966,-0.228264,0.91161,-0.341841,0.709541,0.580608,-0.362383
967,-0.2286,0.912887,-0.33819,0.965599,-0.127227,0.742106
968,-0.2082409999999999,0.92163,-0.327455,0.077702,-0.253691,0.704133
969,-0.182692,0.938043,-0.294433,-0.181917,0.081381,-0.140168
970,-0.178001,0.945289,-0.273378,0.092155,0.213936,0.14438
971,-0.1630319999999999,0.952892,-0.255751,0.281211,-0.086025,0.439589
972,-0.1239779999999999,0.967871,-0.218739,0.297394,0.041773,0.369709
973,-0.089375,0.980965,-0.172367,0.135884,-0.19233,0.292591
974,-0.06202,0.989513,-0.130416,0.089043,-0.378917,0.3025199999999999
975,-0.0410839999999999,0.99551,-0.085223,0.015053,-0.407848,0.282931
976,-0.028102,0.999046,-0.033279,-0.025213,-0.22863,0.251693
977,-0.0226889999999999,0.9996,0.016595,0.020919,-0.181133,0.109885
978,-0.023523,0.997971,0.059072,0.1663609999999999,-0.18805,-0.235143
979,-0.0274519999999999,0.994877,0.097235,0.308046,-0.2281989999999999,-0.132971
980,-0.036662,0.990269,0.134209,0.322581,-0.147129,-0.116249
981,-0.048414,0.984475,0.168682,0.246488,0.2244789999999999,-0.430034
982,-0.0570139999999999,0.978045,0.200414,0.195,0.273207,-0.498784
983,-0.065322,0.971216,0.229042,0.211303,0.215323,-0.4874489999999999
984,-0.080153,0.967167,0.241146,0.286085,0.328823,-0.515591
985,-0.098184,0.965674,0.240461,0.725137,0.208826,-0.2267739999999999
986,-0.1127099999999999,0.965901,0.233064,0.712076,0.276851,-0.158387
987,-0.119398,0.966966,0.225186,0.544096,0.396254,-0.1703609999999999
988,-0.119176,0.967286,0.223925,-0.081126,0.346542,-0.2478199999999999
989,-0.123089,0.969663,0.211166,-0.183842,0.242389,-0.164382
990,-0.131318,0.975981,0.173795,-0.199263,0.081011,0.010058
991,-0.14417,0.983928,0.105305,-0.250849,0.664311,0.185421
992,-0.1531799999999999,0.987893,0.02436,-0.188479,0.592124,0.290673
993,-0.144269,0.988173,-0.051884,-0.103473,0.6041270000000001,0.413243
994,-0.126198,0.985381,-0.114413,-0.2805559999999999,0.5491189999999999,0.2183719999999999
995,-0.107483,0.981268,-0.159855,-0.29068,0.446925,0.198002
996,-0.105361,0.976773,-0.186564,0.203505,0.37392,0.493952
997,-0.129847,0.96375,-0.233062,0.3534489999999999,0.12591,0.16426
998,-0.1781839999999999,0.936136,-0.303141,0.432044,0.100852,0.081919
999,-0.207917,0.910506,-0.357411,0.328248,-0.044387,0.2924239999999999
1000,-0.201919,0.898058,-0.390788,0.20372,-0.19742,0.613093
1001,-0.207707,0.883519,-0.419818,0.2084239999999999,-0.4021949999999999,0.6012149999999999
1002,-0.222678,0.8683649999999999,-0.443116,0.180579,-0.571048,0.514679
1003,-0.234894,0.857569,-0.4575979999999999,0.208954,-0.615915,0.476442
1004,-0.243709,0.8511129999999999,-0.464981,0.229977,-0.620614,0.443985
1005,-0.251127,0.849109,-0.464699,0.1575599999999999,-0.717715,0.417442
1006,-0.259822,0.8516520000000001,-0.4551659999999999,0.077464,-0.7231270000000001,0.337551
1007,-0.263917,0.8615719999999999,-0.4336319999999999,0.071184,-0.751297,0.284721
1008,-0.254915,0.880041,-0.400677,-0.018858,-0.721456,0.057598
1009,-0.23055,0.905806,-0.355467,0.018331,-0.326613,-0.096361
1010,-0.199318,0.930975,-0.3058619999999999,0.063988,0.653666,-0.775025
1011,-0.177219,0.938369,-0.2967329999999999,-0.413129,2.798493,-1.216832
1012,-0.170192,0.925837,-0.337423,-0.659352,0.911275,-1.273569
1013,-0.174817,0.913744,-0.366751,-0.192721,-1.02141,-0.459727
1014,-0.195497,0.905878,-0.375712,-0.002287,-0.563761,0.07992
1015,-0.223031,0.902097,-0.369422,0.368462,0.222903,1.155219
1016,-0.2340269999999999,0.907577,-0.348611,0.409197,1.433533,1.2018209999999998
1017,-0.229238,0.910652,-0.3437409999999999,0.314351,1.174508,0.058066
1018,-0.226911,0.911396,-0.343312,1.021208,-0.142963,0.894216
1019,-0.207535,0.916729,-0.341366,0.005783,-0.5511590000000001,0.823421
1020,-0.1860109999999999,0.933664,-0.3060469999999999,-0.246102,-0.336313,0.2120679999999999
1021,-0.192793,0.940706,-0.279098,0.491347,0.118696,0.4855649999999999
1022,-0.171139,0.952108,-0.253369,0.469692,0.107295,0.459835
1023,-0.114698,0.972553,-0.202431,0.27551,0.090664,0.350929
1024,-0.073083,0.985892,-0.150558,0.058083,-0.15174,0.249069
1025,-0.049247,0.992776,-0.109377,-0.049279,-0.300454,0.2186449999999999
1026,-0.0395,0.996626,-0.071886,-0.082662,-0.451704,0.321108
1027,-0.035272,0.999077,-0.024334,0.035119,-0.218101,0.22424
1028,-0.032971,0.999201,0.022379,0.116879,-0.19021,0.055975
1029,-0.033109,0.997536,0.061765,0.24603,-0.169579,-0.2574889999999999
1030,-0.035305,0.994776,0.095719,0.316753,-0.14831,-0.310212
1031,-0.038855,0.991127,0.127069,0.321692,-0.034035,-0.281305
1032,-0.043532,0.986864,0.155539,0.2452679999999999,0.070112,-0.39733
1033,-0.047755,0.981598,0.18486,0.086832,0.173889,-0.442581
1034,-0.057589,0.97542,0.212667,0.05147,0.19644,-0.489461
1035,-0.074876,0.970465,0.2292969999999999,0.1751869999999999,0.2473389999999999,-0.524418
1036,-0.094871,0.968214,0.231404,0.7369760000000001,0.2219409999999999,-0.175862
1037,-0.111228,0.968039,0.224759,0.733725,0.23678,-0.15228
1038,-0.11737,0.968365,0.220182,0.32875,0.385257,-0.094572
1039,-0.116213,0.968481,0.2202889999999999,0.046327,0.409312,-0.216994
1040,-0.118291,0.970852,0.208426,-0.012584,0.303577,-0.164267
1041,-0.127001,0.977435,0.168763,0.087435,0.1289799999999999,0.22116
1042,-0.1348599999999999,0.98573,0.100687,-0.183133,0.5185270000000001,0.272238
1043,-0.135652,0.990439,0.024908,-0.403975,0.560297,0.229959
1044,-0.128825,0.990648,-0.044863,-0.341558,0.454222,0.502001
1045,-0.117779,0.987431,-0.1053549999999999,-0.2867619999999999,0.453105,0.146386
1046,-0.1100299999999999,0.97973,-0.167372,-0.260713,0.489386,0.064085
1047,-0.118294,0.968674,-0.218334,0.04052,0.5294800000000001,0.3702809999999999
1048,-0.149573,0.953426,-0.261914,0.38877,0.385288,0.207517
1049,-0.197302,0.927149,-0.318527,0.529684,0.331457,0.0607299999999999
1050,-0.2233409999999999,0.901787,-0.36999,0.375151,-0.0091019999999999,0.26118
1051,-0.2217309999999999,0.888323,-0.402132,0.204855,-0.156069,0.6093930000000001
1052,-0.222823,0.8765709999999999,-0.426577,0.146392,-0.338912,0.72748
1053,-0.2313619999999999,0.8628399999999999,-0.4494149999999999,0.170999,-0.6597149999999999,0.584531
1054,-0.242217,0.850749,-0.466424,0.201567,-0.606594,0.5053949999999999
1055,-0.251188,0.8433510000000001,-0.4750359999999999,0.218473,-0.537565,0.492904
1056,-0.2582239999999999,0.8408979999999999,-0.4756109999999999,0.146453,-0.620973,0.391642
1057,-0.263034,0.844226,-0.467001,0.181506,-0.783924,0.4389399999999999
1058,-0.269835,0.85175,-0.449117,0.000975,-0.750203,0.274281
1059,-0.2666409999999999,0.866826,-0.4213189999999999,-0.066183,-0.737507,0.060601
1060,-0.245914,0.890857,-0.381961,-0.0023769999999999,-0.523059,-0.142743
1061,-0.213468,0.918251,-0.333528,0.010968,0.322899,-0.4738
1062,-0.1854839999999999,0.932687,-0.30933,-0.097002,2.026695,-1.073117
1063,-0.171983,0.920936,-0.349703,-0.723342,1.614052,-1.024519
1064,-0.169436,0.905823,-0.388292,-0.081327,-0.543686,-0.611174
1065,-0.187915,0.895176,-0.404157,-0.130109,-0.795032,-0.142489
1066,-0.2165969999999999,0.8902620000000001,-0.400642,0.401686,0.615933,1.079704
1067,-0.23671,0.8945649999999999,-0.3790989999999999,0.506577,1.156064,1.213144
1068,-0.234735,0.897689,-0.372891,0.267129,1.117097,0.738217
1069,-0.229325,0.8990389999999999,-0.373007,0.5551,-0.1716059999999999,0.336904
1070,-0.223959,0.899251,-0.375745,0.4344689999999999,-0.443334,0.949521
1071,-0.213344,0.913308,-0.34691,0.019115,0.011161,-0.076765
1072,-0.218038,0.922081,-0.319719,0.486822,0.7832720000000001,-0.052626
1073,-0.205705,0.932965,-0.295389,0.506548,-0.039883,0.566629
1074,-0.150087,0.955226,-0.254968,0.205706,-0.055873,0.396127
1075,-0.1069799999999999,0.973036,-0.204322,0.077546,-0.042571,0.214423
1076,-0.08304,0.983307,-0.161872,-0.069609,-0.163498,0.188636
1077,-0.07087,0.989086,-0.129145,-0.048805,-0.409923,0.222757
1078,-0.065456,0.993877,-0.088974,0.14883,-0.297954,0.2072449999999999
1079,-0.061077,0.997128,-0.0446839999999999,0.268383,-0.191662,0.092231
1080,-0.059349,0.998221,-0.004839,0.207375,-0.197073,-0.024153
1081,-0.059556,0.99763,0.034335,0.162064,-0.262034,-0.070254
1082,-0.061475,0.99547,0.0724559999999999,0.09036,-0.1660029999999999,-0.141181
1083,-0.066774,0.991696,0.10987,0.069383,0.044086,-0.161963
1084,-0.073719,0.986125,0.148707,0.207554,0.177556,-0.715464
1085,-0.08082,0.98022,0.180625,0.330988,0.192936,-0.632957
1086,-0.092033,0.975961,0.1975309999999999,0.350959,0.312842,-0.413809
1087,-0.1076,0.973626,0.201154,0.555613,0.275687,-0.247632
1088,-0.120897,0.972053,0.201213,0.741807,0.24125,-0.177348
1089,-0.129338,0.97092,0.201434,0.279393,0.507062,-0.226107
1090,-0.129815,0.970772,0.201838,-0.178779,0.3892739999999999,-0.35467
1091,-0.133413,0.971786,0.19448,-0.131983,0.115998,-0.1529
1092,-0.145179,0.975168,0.167215,0.077278,-0.1062859999999999,0.072058
1093,-0.159067,0.98099,0.111115,0.038889,0.308775,0.127273
1094,-0.171988,0.984458,0.035404,0.0564789999999999,0.5640350000000001,0.234402
1095,-0.166911,0.985347,-0.034976,-0.052937,0.8670399999999999,0.563815
1096,-0.147367,0.984593,-0.094081,-0.470096,0.6082569999999999,0.468684
1097,-0.122196,0.982443,-0.140944,-0.6118279999999999,0.508798,0.264144
1098,-0.10246,0.978348,-0.179806,-0.135958,0.484436,0.351483
1099,-0.105843,0.972437,-0.2077429999999999,0.1717,0.311087,0.371973
1100,-0.1368859999999999,0.958207,-0.251187,0.246353,0.114013,0.332043
1101,-0.181113,0.932124,-0.313586,0.4264739999999999,-0.186839,0.447543
1102,-0.204591,0.8977959999999999,-0.389999,0.48221,-0.192383,0.154433
1103,-0.210276,0.873114,-0.439831,0.2429909999999999,-0.4147699999999999,0.408078
1104,-0.215888,0.8599389999999999,-0.462485,0.20571,-0.540466,0.677955
1105,-0.226911,0.8472350000000001,-0.480312,0.176084,-0.498953,0.5862390000000001
1106,-0.236688,0.8368040000000001,-0.4936939999999999,0.114481,-0.529522,0.5030319999999999
1107,-0.244918,0.830239,-0.5007149999999999,0.158401,-0.570412,0.44882
1108,-0.254778,0.828764,-0.498231,0.017733,-0.654814,0.428987
1109,-0.263196,0.8338469999999999,-0.4852039999999999,-0.041095,-0.681137,0.403859
1110,-0.260811,0.847398,-0.462483,-0.090798,-0.731324,0.162465
1111,-0.239846,0.8705620000000001,-0.429642,-0.018318,-0.676409,-0.050384
1112,-0.202034,0.901728,-0.382184,0.001396,-0.4630829999999999,-0.164401
1113,-0.163975,0.926595,-0.338422,0.1877329999999999,1.442866,-1.102405
1114,-0.15024,0.92317,-0.353809,-0.459272,2.709994,-1.350857
1115,-0.149578,0.907444,-0.3926429999999999,-0.561299,1.30975,-1.175778
1116,-0.16591,0.8924690000000001,-0.419485,-0.056136,-1.3029309999999998,-0.35499
1117,-0.197237,0.887338,-0.416802,0.146929,-0.317575,0.159584
1118,-0.222021,0.8955209999999999,-0.385673,0.551946,0.515138,1.310752
1119,-0.2195929999999999,0.910204,-0.351144,0.595188,1.854444,1.165154
1120,-0.211057,0.906586,-0.3654469999999999,0.495572,0.564941,-0.068436
1121,-0.212696,0.902535,-0.374415,0.3734929999999999,-0.57058,1.035197
1122,-0.195866,0.914476,-0.354069,-0.005611,-0.8477950000000001,1.000508
1123,-0.196622,0.927427,-0.318142,-0.185657,0.283282,-0.5588569999999999
1124,-0.219352,0.931125,-0.291352,0.467917,0.262235,0.220322
1125,-0.17959,0.949666,-0.256664,0.649683,-0.005894,0.536235
1126,-0.126297,0.969933,-0.2080219999999999,0.070129,0.010276,0.09764
1127,-0.09369,0.982435,-0.16136,-0.11531,-0.041593,0.122267
1128,-0.07591,0.989743,-0.120994,-0.110476,-0.13905,0.271599
1129,-0.070155,0.994384,-0.07919,0.038799,-0.322311,0.256681
1130,-0.064553,0.99737,-0.032845,0.023141,-0.288569,0.120201
1131,-0.058885,0.998124,0.016548,0.112748,-0.22049,-0.025154
1132,-0.058209,0.996284,0.06342,0.230328,-0.175727,-0.073017
1133,-0.062324,0.993483,0.0953929999999999,0.197151,-0.124129,-0.0538429999999999
1134,-0.066679,0.990148,0.123097,0.20056,0.000529,-0.27631
1135,-0.071837,0.985319,0.154846,0.221648,0.17824,-0.485504
1136,-0.077184,0.97914,0.187934,0.222554,0.184632,-0.463843
1137,-0.0848,0.974436,0.208027,0.189384,0.252065,-0.384907
1138,-0.095784,0.972135,0.213942,0.404317,0.267428,-0.2415449999999999
1139,-0.1057119999999999,0.971122,0.213867,0.514877,0.249703,-0.120331
1140,-0.115344,0.971112,0.208875,0.2056909999999999,0.436801,-0.223142
1141,-0.120819,0.971423,0.204285,-0.132752,0.393735,-0.345154
1142,-0.127972,0.973188,0.191102,-0.029102,0.152315,-0.076692
1143,-0.140484,0.978064,0.153778,0.0212979999999999,0.158594,0.1306
1144,-0.152633,0.984379,0.087712,-0.121903,0.4874989999999999,0.171123
1145,-0.161295,0.986867,0.008371,-0.078832,0.404963,0.30654
1146,-0.1580329999999999,0.985429,-0.06284,-0.1137109999999999,0.6043689999999999,0.501866
1147,-0.14398,0.981435,-0.126683,-0.293489,0.606517,0.3234
1148,-0.125528,0.974542,-0.185755,-0.212515,0.515433,0.09759
1149,-0.113544,0.964708,-0.2375739999999999,-0.034298,0.553618,0.25535
1150,-0.126522,0.954318,-0.270673,0.121669,0.302289,0.452421
1151,-0.159974,0.933149,-0.321926,0.3546,0.0659049999999999,0.29208
1152,-0.189071,0.901213,-0.389952,0.4678029999999999,-0.099059,-0.120653
1153,-0.194553,0.882185,-0.42883,0.168918,-0.156385,0.538877
1154,-0.192802,0.872451,-0.449058,0.084739,-0.397948,0.70214
1155,-0.195618,0.8609020000000001,-0.469657,0.0536049999999999,-0.560121,0.686942
1156,-0.2061719999999999,0.8493850000000001,-0.485833,0.143336,-0.6170859999999999,0.559228
1157,-0.214598,0.840306,-0.497826,0.133665,-0.5941810000000001,0.48771
1158,-0.218471,0.835989,-0.503378,0.114101,-0.582144,0.363638
1159,-0.221382,0.837791,-0.499092,0.0727,-0.703819,0.368309
1160,-0.225007,0.845974,-0.483421,0.038835,-0.718274,0.32331
1161,-0.2220469999999999,0.8617469999999999,-0.456162,-0.0108019999999999,-0.759452,0.1069799999999999
1162,-0.205823,0.885122,-0.417364,0.035138,-0.620031,-0.033839
1163,-0.1783269999999999,0.913018,-0.366869,0.028638,-0.370141,-0.124876
1164,-0.1550349999999999,0.930829,-0.330934,-0.051569,1.706836,-0.908034
1165,-0.139655,0.923347,-0.357661,-0.587304,2.161019,-1.35645
1166,-0.136406,0.908471,-0.395056,-0.1959769999999999,-0.292169,-1.011729
1167,-0.163803,0.8941020000000001,-0.416829,-0.0423889999999999,-0.5876899999999999,-0.27444
1168,-0.193765,0.890366,-0.411944,0.4622739999999999,0.732528,0.84946
1169,-0.206153,0.901104,-0.381454,0.599524,1.429538,1.695342
1170,-0.198068,0.898366,-0.39205,0.537485,-0.138051,0.482229
1171,-0.190144,0.8990530000000001,-0.39439,0.325978,-0.7537739999999999,0.662441
1172,-0.179738,0.908243,-0.377869,-0.145,-0.5649350000000001,0.9006040000000001
1173,-0.184285,0.920279,-0.345138,-0.160319,-0.162192,0.260863
1174,-0.198042,0.924504,-0.325679,0.5943430000000001,0.167461,0.496517
1175,-0.158242,0.944856,-0.286707,0.296578,-0.053071,0.462793
1176,-0.108368,0.965276,-0.237683,0.012481,-0.0195669999999999,0.022946
1177,-0.084106,0.976299,-0.199402,-0.156159,-0.279277,0.213028
1178,-0.079501,0.983097,-0.164905,0.034594,-0.301212,0.309268
1179,-0.077519,0.989098,-0.1251789999999999,0.094776,-0.25663,0.163707
1180,-0.070991,0.994336,-0.079057,0.1139299999999999,-0.224347,-0.004485
1181,-0.0641159999999999,0.997557,-0.027632,0.163115,-0.229353,-0.042376
1182,-0.062263,0.997834,0.021072,0.276344,-0.17981,-0.037384
1183,-0.063576,0.996055,0.061848,0.314751,-0.0529549999999999,0.068126
1184,-0.066326,0.993423,0.093293,0.20396,-0.029663,0.060653
1185,-0.069035,0.989703,0.125357,0.089574,0.0578129999999999,-0.523748
1186,-0.0720669999999999,0.984532,0.159666,0.158828,0.152125,-0.479475
1187,-0.079483,0.979158,0.186879,0.153305,0.150634,-0.401173
1188,-0.093239,0.97571,0.198212,0.243553,0.280165,-0.425491
1189,-0.107276,0.974339,0.197856,0.5315770000000001,0.183788,-0.195949
1190,-0.120371,0.974107,0.191358,0.490931,0.308471,0.063876
1191,-0.12909,0.974849,0.181649,0.013108,0.353948,-0.333291
1192,-0.132691,0.976872,0.167646,-0.084473,0.162013,-0.164838
1193,-0.142062,0.980662,0.13458,0.087848,0.094854,0.016849
1194,-0.1564549999999999,0.984987,0.072901,0.035574,0.355498,0.195318
1195,-0.170163,0.98539,-0.006656,0.021054,0.7001109999999999,0.398608
1196,-0.166078,0.982641,-0.082632,-0.1571789999999999,0.960703,0.536658
1197,-0.144157,0.978218,-0.149338,-0.310525,0.859505,0.551391
1198,-0.11747,0.972249,-0.202302,-0.202355,0.510157,0.080537
1199,-0.104581,0.96236,-0.25084,-0.215243,0.520047,0.129075
1200,-0.121674,0.95089,-0.284601,0.224595,0.4370949999999999,0.519876
1201,-0.16289,0.926401,-0.339474,0.5342279999999999,0.00672,-0.0507079999999999
1202,-0.202446,0.895382,-0.396613,0.573784,0.037739,0.006431
1203,-0.208283,0.877914,-0.431139,0.132554,-0.160751,0.354662
1204,-0.2051739999999999,0.869662,-0.448985,0.044773,-0.5753050000000001,0.649455
1205,-0.208812,0.860133,-0.465366,0.107432,-0.6574810000000001,0.665546
1206,-0.219599,0.8501610000000001,-0.478539,0.269633,-0.59891,0.6570819999999999
1207,-0.234478,0.840158,-0.48903,0.263546,-0.5924470000000001,0.566941
1208,-0.246906,0.8322959999999999,-0.496305,0.13718,-0.564244,0.474713
1209,-0.256761,0.8315969999999999,-0.49246,0.045,-0.643899,0.454038
1210,-0.263554,0.83886,-0.476288,0.0026899999999999,-0.70707,0.382843
1211,-0.260444,0.8544139999999999,-0.449602,-0.034967,-0.742827,0.2538019999999999
1212,-0.240165,0.877014,-0.4161289999999999,-0.011514,-0.6717529999999999,0.021812
1213,-0.205779,0.90514,-0.371984,0.03865,-0.134449,-0.171213
1214,-0.173511,0.926605,-0.333606,0.115558,1.39772,-0.812878
1215,-0.158487,0.921439,-0.354724,-0.317434,2.603662,-1.306882
1216,-0.148558,0.905392,-0.397735,-0.347856,0.105671,-1.267228
1217,-0.1623359999999999,0.8899459999999999,-0.426193,0.025083,-1.042549,-0.10086
1218,-0.1923119999999999,0.884383,-0.425299,0.044469,-0.474196,0.2067929999999999
1219,-0.216409,0.8902690000000001,-0.400731,0.41575,1.26386,1.428365
1220,-0.215828,0.9033,-0.370762,0.394204,2.247503,1.265659
1221,-0.205688,0.901826,-0.379997,0.806106,-0.2184,0.065895
1222,-0.198242,0.900445,-0.387163,-0.120728,-0.928643,1.204332
1223,-0.186063,0.910245,-0.369906,-0.450793,-0.469831,0.126803
1224,-0.19168,0.921928,-0.336605,0.150863,0.654061,-0.325413
1225,-0.219688,0.922046,-0.318692,0.8767159999999999,0.2318239999999999,0.66409
1226,-0.173213,0.942571,-0.285573,0.5597340000000001,0.129816,0.6205189999999999
1227,-0.109953,0.965784,-0.234875,0.155409,0.019827,0.161892
1228,-0.074421,0.978737,-0.19113,-0.177853,-0.147469,0.267897
1229,-0.057529,0.985476,-0.1597559999999999,-0.183087,-0.270541,0.2480119999999999
1230,-0.05574,0.990332,-0.1270109999999999,-0.048997,-0.242163,0.305691
1231,-0.05342,0.994856,-0.086038,0.097442,-0.188628,0.065011
1232,-0.047824,0.997979,-0.0417839999999999,0.155566,-0.198052,-0.014048
1233,-0.042671,0.999079,0.0039109999999999,0.14698,-0.350184,-0.031698
1234,-0.042628,0.998057,0.045386,0.194499,-0.187449,-0.092322
1235,-0.047949,0.995587,0.080639,0.238531,0.013614,-0.004299
1236,-0.0559559999999999,0.991836,0.114567,0.185701,0.042695,-0.365223
1237,-0.061586,0.987025,0.148268,0.260133,0.1209,-0.610152
1238,-0.067578,0.981741,0.177797,0.308911,0.120493,-0.370821
1239,-0.080063,0.97826,0.191291,0.207596,0.279751,-0.36486
1240,-0.09498,0.977087,0.190461,0.353312,0.326838,-0.252182
1241,-0.1064599999999999,0.976725,0.186196,0.4863119999999999,0.246297,-0.139061
1242,-0.115042,0.977126,0.178843,0.307517,0.351502,-0.202403
1243,-0.120553,0.978191,0.169126,0.13662,0.412678,-0.179914
1244,-0.127145,0.981329,0.144301,0.159997,0.270304,-0.023421
1245,-0.133305,0.986433,0.095778,0.1194799999999999,0.265077,0.198701
1246,-0.1388039999999999,0.990086,0.021425,-0.285284,0.548122,0.24919
1247,-0.1365309999999999,0.989106,-0.05499,-0.287556,0.5491020000000001,0.325605
1248,-0.1241109999999999,0.984823,-0.121313,-0.331791,0.593958,0.399343
1249,-0.1073869999999999,0.977876,-0.179509,-0.241582,0.511031,0.19608
1250,-0.097885,0.966544,-0.237081,-0.251083,0.522363,0.253652
1251,-0.1126559999999999,0.952913,-0.281536,0.217926,0.350172,0.260158
1252,-0.156308,0.930911,-0.330106,0.367658,0.183347,-0.056628
1253,-0.201685,0.900631,-0.384947,0.413034,0.213627,-0.001787
1254,-0.20968,0.879677,-0.4268479999999999,0.224359,-0.064522,0.423476
1255,-0.2075989999999999,0.8668110000000001,-0.453364,0.121982,-0.275793,0.714152
1256,-0.216167,0.853067,-0.474917,0.164089,-0.583521,0.728899
1257,-0.2312489999999999,0.838773,-0.492932,0.191241,-0.6280939999999999,0.653302
1258,-0.243679,0.8273389999999999,-0.506091,0.154522,-0.533516,0.5626399999999999
1259,-0.251055,0.8206319999999999,-0.513354,0.142778,-0.509795,0.5310090000000001
1260,-0.257232,0.818678,-0.513415,0.129348,-0.567549,0.485019
1261,-0.264553,0.821846,-0.504559,-0.000843,-0.61927,0.394817
1262,-0.265244,0.8324600000000001,-0.4864699999999999,-0.028656,-0.6105520000000001,0.329701
1263,-0.2523559999999999,0.8515860000000001,-0.4594729999999999,-0.081063,-0.620491,0.238419
1264,-0.22526,0.878498,-0.421303,-0.038854,-0.069813,-0.194954
1265,-0.192093,0.904978,-0.379621,0.062744,1.355276,-0.8473229999999999
1266,-0.169968,0.909162,-0.380175,-0.428436,2.198443,-1.248381
1267,-0.157626,0.896084,-0.414951,-0.3826719999999999,-0.005749,-1.099056
1268,-0.165439,0.880569,-0.444101,-0.221966,-0.658844,-0.6308199999999999
1269,-0.186696,0.8737959999999999,-0.449024,-0.156779,-0.157609,0.26099
1270,-0.217746,0.870257,-0.441855,0.2756989999999999,0.595517,0.965232
1271,-0.2438,0.874556,-0.419177,0.461589,1.542955,0.8819459999999999
1272,-0.247003,0.874735,-0.4169229999999999,0.619699,0.125936,0.488685
1273,-0.2291639999999999,0.879865,-0.416317,0.456001,-0.463452,0.8144640000000001
1274,-0.208069,0.88556,-0.415317,0.203888,-0.377686,0.818897
1275,-0.202938,0.896509,-0.393809,0.087628,0.552954,-0.095861
1276,-0.218338,0.901235,-0.374301,0.386048,0.482005,0.257663
1277,-0.204807,0.913686,-0.35104,0.337711,0.1610059999999999,0.525554
1278,-0.15238,0.938203,-0.31073,0.2797449999999999,0.018294,0.4454189999999999
1279,-0.112534,0.95748,-0.26564,0.231155,-0.0184389999999999,0.286682
1280,-0.08837,0.969266,-0.2295869999999999,0.127875,-0.081937,0.338275
1281,-0.065807,0.979404,-0.190875,0.02,-0.294193,0.1537349999999999
1282,-0.049164,0.987816,-0.147646,0.097336,-0.245308,0.097353
1283,-0.037992,0.993746,-0.1049809999999999,0.1285069999999999,-0.262087,0.041016
1284,-0.030889,0.997567,-0.0624539999999999,0.138753,-0.239846,0.107071
1285,-0.028187,0.999404,-0.019803,0.080952,-0.2353199999999999,0.12399
1286,-0.030975,0.999292,0.021263,0.077011,-0.214669,0.015419
1287,-0.038769,0.997684,0.055848,0.157543,-0.076938,-0.2233429999999999
1288,-0.045534,0.994836,0.090685,0.238283,0.105415,-0.5727869999999999
1289,-0.049684,0.990257,0.130069,0.257845,0.145791,-0.580066
1290,-0.05737,0.985738,0.158193,0.191571,0.169719,-0.331441
1291,-0.069824,0.983247,0.168357,0.265884,0.302062,-0.303672
1292,-0.079624,0.982494,0.168405,0.395954,0.255223,-0.211084
1293,-0.085438,0.982366,0.166286,0.258152,0.347178,-0.153148
1294,-0.090126,0.982802,0.16116,0.116295,0.345491,-0.232098
1295,-0.100202,0.984488,0.144004,0.162046,0.51748,-0.1635349999999999
1296,-0.109501,0.988371,0.1054799999999999,0.216648,0.340059,0.177341
1297,-0.116212,0.992281,0.0432139999999999,-0.183379,0.516813,0.28102
1298,-0.119422,0.992339,-0.031586,-0.380594,0.479066,0.305771
1299,-0.114515,0.988506,-0.098682,-0.31029,0.4471779999999999,0.4179569999999999
1300,-0.1084789999999999,0.981397,-0.158396,-0.299037,0.510257,0.342966
1301,-0.101578,0.970306,-0.219511,-0.238815,0.5295569999999999,0.209898
1302,-0.106098,0.955399,-0.275594,-0.030819,0.536575,0.238607
1303,-0.133359,0.940305,-0.31311,0.16316,0.5370659999999999,0.4349369999999999
1304,-0.17858,0.916656,-0.357558,0.422522,0.268845,0.240218
1305,-0.211167,0.887021,-0.410609,0.472367,0.059985,0.163126
1306,-0.218057,0.8672639999999999,-0.447551,0.245584,-0.070893,0.380306
1307,-0.215513,0.855389,-0.471022,0.006864,-0.280575,0.707106
1308,-0.2146809999999999,0.8434879999999999,-0.49238,0.050099,-0.572004,0.72558
1309,-0.22182,0.8311639999999999,-0.509864,0.203723,-0.621279,0.525489
1310,-0.229977,0.820852,-0.522792,0.202695,-0.589086,0.472346
1311,-0.234226,0.815728,-0.52889,0.186557,-0.5719989999999999,0.431127
1312,-0.235577,0.817261,-0.5259159999999999,0.079174,-0.6684720000000001,0.436133
1313,-0.236098,0.825681,-0.512354,0.079695,-0.6768930000000001,0.422571
1314,-0.229383,0.8422700000000001,-0.4878149999999999,0.028257,-0.7393649999999999,0.289192
1315,-0.2144829999999999,0.8653219999999999,-0.453006,-0.051798,-0.513179,0.012286
1316,-0.187408,0.8941959999999999,-0.406559,-0.078873,-0.542054,-0.034161
1317,-0.162769,0.91376,-0.372219,0.088321,1.082898,-0.696263
1318,-0.147622,0.905443,-0.397969,-0.351707,2.425642,-1.165309
1319,-0.14182,0.8876959999999999,-0.438042,-0.507045,0.312819,-1.223671
1320,-0.162795,0.8750020000000001,-0.455925,-0.089387,-0.8064899999999999,-0.108635
1321,-0.193092,0.872337,-0.449157,0.051063,0.188805,0.446212
1322,-0.224219,0.874333,-0.430426,0.296577,0.546566,0.868353
1323,-0.236895,0.879482,-0.412785,0.337145,1.582402,0.739125
1324,-0.228057,0.8780959999999999,-0.420639,0.759825,-0.316023,0.212051
1325,-0.213726,0.879912,-0.424353,0.538601,-0.54669,0.845252
1326,-0.199916,0.8933780000000001,-0.402379,-0.092397,-0.152243,0.18308
1327,-0.204139,0.903691,-0.37639,0.091559,0.402126,-0.207823
1328,-0.2176,0.908107,-0.357759,0.404688,0.536992,0.199815
1329,-0.179779,0.928552,-0.324761,0.298737,0.083731,0.533791
1330,-0.125386,0.951277,-0.281692,0.189701,0.086855,0.404983
1331,-0.089267,0.965353,-0.245203,0.020663,0.090113,0.208704
1332,-0.063442,0.975047,-0.2127389999999999,-0.070926,-0.146556,0.290925
1333,-0.047004,0.983324,-0.175681,-0.110528,-0.276567,0.2378
1334,-0.035863,0.989688,-0.138678,-0.091853,-0.305773,0.1121119999999999
1335,-0.024691,0.994867,-0.098132,0.113284,-0.40281,0.034823
1336,-0.014613,0.998378,-0.055009,0.137202,-0.406444,0.05008
1337,-0.010081,0.999911,-0.008615,0.091182,-0.382007,0.086114
1338,-0.0142479999999999,0.99921,0.037087,0.217953,-0.096744,0.055321
1339,-0.023993,0.996607,0.078729,0.320059,0.06156,-0.17196
1340,-0.030713,0.992529,0.1180789999999999,0.318601,0.092753,-0.445242
1341,-0.03257,0.986813,0.158551,0.204475,0.158832,-0.408353
1342,-0.040067,0.982897,0.179743,0.181348,0.2550489999999999,-0.532358
1343,-0.05217,0.982275,0.180039,0.237626,0.284403,-0.40915
1344,-0.062171,0.982526,0.1754339999999999,0.339408,0.372134,-0.17606
1345,-0.069248,0.983211,0.168818,0.186558,0.351383,-0.249599
1346,-0.076277,0.985104,0.154115,0.197126,0.5177189999999999,-0.174332
1347,-0.083655,0.988934,0.122517,0.183218,0.352725,0.083889
1348,-0.086245,0.994127,0.065371,-0.29173,0.465208,0.273649
1349,-0.088475,0.996023,-0.010529,-0.289501,0.463313,0.349549
1350,-0.084039,0.993092,-0.081893,-0.197394,0.404507,0.460326
1351,-0.075741,0.986965,-0.141996,-0.340579,0.588688,0.4792
1352,-0.063917,0.977796,-0.199574,-0.336809,0.6572140000000001,0.428379
1353,-0.065932,0.964984,-0.253888,-0.148805,0.645688,0.266111
1354,-0.095604,0.949343,-0.2993429999999999,0.169579,0.491529,0.393978
1355,-0.1499069999999999,0.921567,-0.358109,0.3088579999999999,0.34531,0.2983409999999999
1356,-0.1922859999999999,0.8833049999999999,-0.427548,0.4224189999999999,0.078975,0.042386
1357,-0.201724,0.858455,-0.471552,0.149875,-0.119853,0.563181
1358,-0.203528,0.844916,-0.494664,0.119376,-0.5172640000000001,0.733266
1359,-0.210769,0.8306690000000001,-0.515329,0.106582,-0.592129,0.6942689999999999
1360,-0.226023,0.815733,-0.5324399999999999,0.185663,-0.652754,0.563767
1361,-0.237971,0.803443,-0.545755,0.197596,-0.614951,0.515817
1362,-0.243596,0.7962359999999999,-0.553776,0.124135,-0.617159,0.468296
1363,-0.247835,0.795895,-0.552385,0.107072,-0.642788,0.465197
1364,-0.251876,0.803262,-0.5397489999999999,0.093489,-0.668603,0.42073
1365,-0.250928,0.8188449999999999,-0.516263,0.020734,-0.728757,0.198773
1366,-0.2390929999999999,0.84234,-0.483009,-0.018186,-0.650644,-0.021324
1367,-0.215988,0.871183,-0.440897,-0.1165619999999999,0.0523559999999999,-0.292319
1368,-0.196315,0.8905200000000001,-0.410408,0.097591,1.814955,-0.752831
1369,-0.1854819999999999,0.882971,-0.431229,-0.638004,1.919748,-1.15921
1370,-0.180452,0.8645219999999999,-0.4690829999999999,-0.711134,0.8812059999999999,-1.159625
1371,-0.187145,0.8522850000000001,-0.4884529999999999,-0.198978,-0.8781950000000001,-0.221905
1372,-0.215579,0.8493930000000001,-0.481722,-0.165357,-0.106885,0.33208
1373,-0.251442,0.847717,-0.467068,0.034584,0.337082,0.512188
1374,-0.275721,0.8488110000000001,-0.451107,0.390254,1.48203,0.725444
1375,-0.270443,0.848582,-0.454717,0.543942,0.171926,0.394155
1376,-0.251273,0.852096,-0.459122,0.57067,-0.290832,0.684006
1377,-0.2348989999999999,0.8633569999999999,-0.446583,0.156438,-0.144775,0.4818159999999999
1378,-0.234251,0.875286,-0.423083,0.27403,0.58678,-0.098478
1379,-0.2432099999999999,0.8834280000000001,-0.400503,0.40059,0.636256,0.092489
1380,-0.222805,0.903394,-0.366383,0.337124,0.0362269999999999,0.39011
1381,-0.181319,0.927526,-0.326832,0.287672,0.013057,0.31374
1382,-0.15133,0.944235,-0.292435,0.217798,-0.032385,0.190613
1383,-0.125608,0.957028,-0.261381,0.142896,-0.120968,0.298765
1384,-0.096784,0.969958,-0.2231909999999999,0.1187869999999999,-0.205202,0.2110449999999999
1385,-0.071147,0.981104,-0.179921,0.015727,-0.277354,0.108403
1386,-0.0527179999999999,0.988624,-0.140861,-0.095811,-0.316063,0.058021
1387,-0.039741,0.993861,-0.103246,0.06269,-0.3915659999999999,0.097356
1388,-0.032137,0.99749,-0.063083,0.055087,-0.3951949999999999,0.0571929999999999
1389,-0.029793,0.999424,-0.016189,0.202782,-0.208378,0.2296139999999999
1390,-0.035405,0.99892,0.030057,0.232121,0.042126,0.194888
1391,-0.044933,0.996525,0.07012,0.198513,0.106197,0.020548
1392,-0.048029,0.992827,0.109481,0.226877,0.269243,-0.390075
1393,-0.049557,0.98855,0.142518,0.208904,0.332327,-0.471344
1394,-0.056846,0.986332,0.154646,0.216194,0.334545,-0.483472
1395,-0.065576,0.98636,0.150969,0.404351,0.31053,-0.039519
1396,-0.075096,0.987046,0.141773,0.272453,0.410705,-0.195438
1397,-0.081039,0.987556,0.134775,0.187912,0.379021,-0.2887969999999999
1398,-0.088403,0.989342,0.115698,0.105553,0.344856,-0.2448179999999999
1399,-0.100404,0.992027,0.076154,0.02501,0.268669,-0.050061
1400,-0.1157369999999999,0.993226,0.010312,-0.006562,0.211227,0.085239
1401,-0.127338,0.989602,-0.066876,0.008045,0.3645239999999999,0.4215359999999999
1402,-0.1189079999999999,0.983583,-0.135737,-0.099216,0.838148,0.6035560000000001
1403,-0.096627,0.977067,-0.189744,-0.296607,0.8296190000000001,0.545747
1404,-0.076551,0.969279,-0.233748,-0.214937,0.717779,0.263732
1405,-0.0791149999999999,0.957379,-0.277788,-0.081759,0.6629520000000001,0.377337
1406,-0.111422,0.937607,-0.329361,0.2203239999999999,0.425598,0.495407
1407,-0.163037,0.905481,-0.391819,0.349194,-0.036768,0.076511
1408,-0.200669,0.8683290000000001,-0.453582,0.333878,-0.073926,0.027297
1409,-0.20869,0.847397,-0.488228,0.252178,-0.036591,0.222878
1410,-0.217804,0.8365239999999999,-0.502781,0.153046,-0.548575,0.767811
1411,-0.230796,0.8231799999999999,-0.518755,0.164695,-0.816497,0.680376
1412,-0.247878,0.808624,-0.533557,0.216277,-0.6997220000000001,0.680362
1413,-0.264434,0.7960149999999999,-0.544458,0.1819599999999999,-0.560633,0.5397890000000001
1414,-0.275023,0.786851,-0.552473,0.157927,-0.557832,0.543272
1415,-0.283074,0.784747,-0.551399,0.117974,-0.5730310000000001,0.5357890000000001
1416,-0.2883409999999999,0.792405,-0.5375439999999999,-0.022007,-0.610383,0.443717
1417,-0.283433,0.81099,-0.5118199999999999,-0.1201619999999999,-0.673005,0.259882
1418,-0.2610719999999999,0.839142,-0.477159,-0.113852,-0.454117,0.09569
1419,-0.2232289999999999,0.872884,-0.433868,-0.025748,0.344966,-0.2139739999999999
1420,-0.189444,0.8969229999999999,-0.399549,0.186163,2.06583,-0.990679
1421,-0.171664,0.888655,-0.4252329999999999,-0.107969,2.908449,-1.275786
1422,-0.1613079999999999,0.8705809999999999,-0.464831,-0.36863,-0.3250639999999999,-1.004682
1423,-0.179556,0.8542120000000001,-0.487935,-0.0718169999999999,-0.805247,-0.22848
1424,-0.2111179999999999,0.848513,-0.4852359999999999,-0.027666,-0.396761,0.147269
1425,-0.235896,0.8547610000000001,-0.462315,0.871058,1.147466,1.273625
1426,-0.235642,0.856359,-0.45948,0.58458,0.921092,0.8084640000000001
1427,-0.2192309999999999,0.8550129999999999,-0.4699899999999999,0.508171,-0.21808,0.6558729999999999
1428,-0.196777,0.857901,-0.4746399999999999,-0.054794,-0.553809,0.8359989999999999
1429,-0.195911,0.8733040000000001,-0.4460479999999999,-0.074994,0.075228,0.019443
1430,-0.2278329999999999,0.8782040000000001,-0.420534,0.122227,0.728104,-0.216108
1431,-0.236855,0.8885280000000001,-0.392958,0.458138,0.11843,0.52809
1432,-0.19677,0.915486,-0.350951,0.26896,0.026241,0.3700699999999999
1433,-0.158803,0.936476,-0.31272,0.2437639999999999,0.086046,0.212455
1434,-0.1317809999999999,0.951232,-0.27891,0.064063,-0.10649,0.281427
1435,-0.102539,0.965705,-0.238534,0.099075,-0.345069,0.2423949999999999
1436,-0.078956,0.977905,-0.193564,0.0754919999999999,-0.357269,0.197425
1437,-0.06408,0.986368,-0.151561,0.009819,-0.348307,0.062999
1438,-0.051625,0.992659,-0.109374,0.043538,-0.276091,0.072905
1439,-0.042626,0.996922,-0.065791,0.095742,-0.2943469999999999,0.0635169999999999
1440,-0.04099,0.99899,-0.018358,0.118764,-0.193677,0.177843
1441,-0.046305,0.998532,0.028075,0.1976109999999999,0.076404,0.0581529999999999
1442,-0.05729,0.996236,0.06504,0.208596,0.0787,0.021187
1443,-0.0645559999999999,0.992573,0.103101,0.193981,0.19685,-0.469114
1444,-0.066212,0.988582,0.13535,0.256337,0.239094,-0.351933
1445,-0.074991,0.987151,0.141096,0.265115,0.240526,-0.3576789999999999
1446,-0.086515,0.987103,0.134691,0.25427,0.281971,-0.210863
1447,-0.095646,0.987277,0.127026,0.334553,0.387006,-0.144208
1448,-0.10011,0.987736,0.119815,0.339017,0.386547,-0.136997
1449,-0.10262,0.989218,0.104475,0.111867,0.4925319999999999,-0.207853
1450,-0.106896,0.991811,0.069873,0.042062,0.359675,0.051984
1451,-0.114251,0.993381,0.011789,-0.006843,0.344113,0.214255
1452,-0.121922,0.990829,-0.058239,-0.13467,0.242173,0.440853
1453,-0.120854,0.984483,-0.127227,-0.0451769999999999,0.525573,0.532714
1454,-0.1064359999999999,0.975865,-0.1906769999999999,-0.160364,0.596843,0.590259
1455,-0.088364,0.964228,-0.249909,-0.258026,0.656698,0.322418
1456,-0.090653,0.947329,-0.307161,-0.094253,0.6004,0.568422
1457,-0.132,0.923041,-0.361346,0.095928,0.552103,0.4225029999999999
1458,-0.192185,0.889968,-0.413546,0.350525,0.009446,-0.008436
1459,-0.2177349999999999,0.8623569999999999,-0.457089,0.297066,0.024468,0.187467
1460,-0.210509,0.847726,-0.486874,0.14453,0.035789,0.412182
1461,-0.207506,0.834802,-0.509948,0.103243,-0.443368,0.756514
1462,-0.213153,0.8182010000000001,-0.53396,0.18703,-0.638727,0.576852
1463,-0.2193119999999999,0.804009,-0.5526939999999999,0.192411,-0.568444,0.540045
1464,-0.221511,0.7946310000000001,-0.565238,0.16867,-0.514083,0.518256
1465,-0.2255239999999999,0.7883760000000001,-0.572365,0.173598,-0.514954,0.526574
1466,-0.229255,0.786605,-0.5733189999999999,0.068488,-0.542632,0.497818
1467,-0.2371239999999999,0.791233,-0.563669,0.029101,-0.6950109999999999,0.4531189999999999
1468,-0.2402969999999999,0.803966,-0.543963,0.0058909999999999,-0.68185,0.282031
1469,-0.2310289999999999,0.826594,-0.513193,-0.0615429999999999,-0.7025399999999999,0.180872
1470,-0.206101,0.8590260000000001,-0.468612,-0.1034839999999999,-0.097383,-0.092332
1471,-0.179457,0.887329,-0.424785,0.182265,1.608703,-0.777425
1472,-0.163655,0.884239,-0.4374229999999999,-0.262111,2.621941,-1.426072
1473,-0.151778,0.8644879999999999,-0.479192,-0.239869,-0.7359479999999999,-0.650554
1474,-0.1735809999999999,0.846008,-0.504123,-0.20676,-0.572662,0.127673
1475,-0.210502,0.838614,-0.502409,-0.133019,-0.003912,0.4185319999999999
1476,-0.2359909999999999,0.8445819999999999,-0.480612,0.48149,1.498237,1.182318
1477,-0.234803,0.853661,-0.464897,0.5205850000000001,0.271995,0.549111
1478,-0.219315,0.8494229999999999,-0.47998,0.485825,-0.485547,0.470016
1479,-0.197981,0.850224,-0.4877729999999999,-0.02379,-0.4116399999999999,0.779047
1480,-0.187782,0.8657870000000001,-0.463842,0.228034,0.5046350000000001,-0.096522
1481,-0.202908,0.87385,-0.44183,0.423595,0.8749450000000001,-0.088168
1482,-0.207423,0.883936,-0.419084,0.217951,-0.125315,0.584504
1483,-0.1650329999999999,0.911113,-0.377672,0.135263,-0.053417,0.191133
1484,-0.127042,0.933513,-0.33528,0.142926,-0.037792,0.0850809999999999
1485,-0.106857,0.94806,-0.299602,0.128158,-0.285753,0.335933
1486,-0.081557,0.961168,-0.263634,0.050642,-0.301592,0.171929
1487,-0.052749,0.974294,-0.219014,0.0028989999999999,-0.311284,0.106969
1488,-0.030375,0.984602,-0.172145,0.057414,-0.331099,0.09254
1489,-0.014366,0.991722,-0.127592,0.121392,-0.282539,0.0699289999999999
1490,-0.004019,0.996262,-0.086272,0.11788,-0.260087,0.040191
1491,0.003032,0.999077,-0.0428259999999999,0.144917,-0.1499859999999999,0.174174
1492,0.002768,0.999985,0.004566,0.107385,0.082321,0.04945
1493,-0.0065049999999999,0.998966,0.044969,0.116658,0.08334,0.009047
1494,-0.01901,0.996651,0.079513,0.216901,0.2443,-0.715407
1495,-0.025097,0.992981,0.115569,0.421825,0.287933,-0.3221429999999999
1496,-0.030448,0.989897,0.138476,0.198737,0.282991,-0.229998
1497,-0.041507,0.989424,0.138979,0.286075,0.217256,-0.144533
1498,-0.050653,0.989468,0.135592,0.3513739999999999,0.286594,0.044813
1499,-0.057007,0.989602,0.132044,0.116867,0.349906,-0.396098
1500,-0.059463,0.990903,0.120719,0.037506,0.5201140000000001,-0.141532
1501,-0.066285,0.993364,0.093979,0.135117,0.510908,-0.0581669999999999
1502,-0.076495,0.996123,0.0434149999999999,0.058337,0.426774,0.240353
1503,-0.087381,0.995874,-0.02445,-0.00704,0.3189,0.446005
1504,-0.090349,0.991518,-0.093421,0.011614,0.4251689999999999,0.55062
1505,-0.081189,0.984619,-0.154697,-0.183414,0.708236,0.5473359999999999
1506,-0.0664299999999999,0.976365,-0.2056599999999999,-0.236198,0.774321,0.260027
1507,-0.0621809999999999,0.966525,-0.248921,-0.133726,0.73927,0.2052199999999999
1508,-0.08631,0.951662,-0.294767,0.134817,0.531644,0.487043
1509,-0.1300869999999999,0.930935,-0.341228,0.279486,0.085987,0.462413
1510,-0.175181,0.900209,-0.3986659999999999,0.404597,-0.165376,0.301727
1511,-0.199121,0.869291,-0.4524189999999999,0.308313,-0.198896,0.38908
1512,-0.215549,0.844989,-0.4894189999999999,0.139453,-0.41788,0.530465
1513,-0.229321,0.823816,-0.5183989999999999,0.1274539999999999,-0.6339819999999999,0.572125
1514,-0.24461,0.8053020000000001,-0.54005,0.191326,-0.598194,0.55978
1515,-0.260897,0.790818,-0.55366,0.1814599999999999,-0.601883,0.526331
1516,-0.27124,0.780842,-0.562774,0.125167,-0.582538,0.513274
1517,-0.277758,0.775936,-0.566368,0.085406,-0.598171,0.546028
1518,-0.283435,0.777699,-0.5611119999999999,0.093128,-0.5868270000000001,0.506379
1519,-0.28658,0.788129,-0.544724,0.0273939999999999,-0.669034,0.324783
1520,-0.278798,0.8084479999999999,-0.518346,-0.033275,-0.503288,0.154622
1521,-0.255382,0.839146,-0.480222,-0.029362,0.114925,-0.0547809999999999
1522,-0.222661,0.871137,-0.437654,0.0657389999999999,1.391055,-0.787535
1523,-0.200328,0.8835930000000001,-0.423238,0.020946,2.438581,-1.039119
1524,-0.186919,0.8676530000000001,-0.4606939999999999,-0.586824,0.233513,-1.047149
1525,-0.187753,0.8496520000000001,-0.492788,-0.199775,-0.883602,-0.42927
1526,-0.215272,0.836513,-0.503887,-0.108108,-0.626522,-0.066837
1527,-0.241853,0.834225,-0.495555,0.593858,0.954334,1.284449
1528,-0.255778,0.8456549999999999,-0.468449,0.580836,1.4901,0.77747
1529,-0.251007,0.840873,-0.479508,0.587052,0.316888,0.558014
1530,-0.2422679999999999,0.8367,-0.4911609999999999,0.4116109999999999,-0.5601649999999999,1.132838
1531,-0.225735,0.84552,-0.483879,0.039257,-0.187226,0.61573
1532,-0.2130739999999999,0.8669540000000001,-0.4505439999999999,0.102128,0.338902,0.110548
1533,-0.221279,0.8769879999999999,-0.42653,0.357311,0.2524369999999999,0.541779
1534,-0.193512,0.899432,-0.391886,0.170716,-0.043139,0.3500769999999999
1535,-0.15053,0.92595,-0.346348,0.131899,-0.068406,0.168155
1536,-0.122825,0.942939,-0.309484,0.17649,-0.075797,0.323141
1537,-0.094291,0.956964,-0.274461,0.170493,-0.290277,0.25821
1538,-0.062556,0.970926,-0.231062,0.129542,-0.393106,0.229796
1539,-0.038652,0.98189,-0.185464,0.083284,-0.338366,0.14454
1540,-0.026764,0.989115,-0.144688,0.103439,-0.287943,0.047688
1541,-0.0197479999999999,0.993885,-0.108643,0.145389,-0.220829,0.001038
1542,-0.01169,0.997659,-0.067382,0.217913,-0.181146,0.044235
1543,-0.008038,0.999751,-0.020838,0.044552,-0.038523,0.1071109999999999
1544,-0.016156,0.999702,0.018271,0.05267,-0.038475,0.0680019999999999
1545,-0.028251,0.998298,0.051011,0.199394,0.2967,-0.657471
1546,-0.038375,0.995342,0.088435,0.347442,0.30817,-0.562678
1547,-0.041873,0.992107,0.118194,0.326159,0.252339,-0.157134
1548,-0.048979,0.990828,0.125934,0.211088,0.293016,-0.257556
1549,-0.056662,0.990492,0.125359,0.4308229999999999,0.280565,0.038231
1550,-0.0631029999999999,0.990423,0.1228,0.352669,0.313502,-0.032514
1551,-0.0665169999999999,0.991016,0.11603,0.013401,0.407498,-0.255251
1552,-0.069595,0.992554,0.099967,0.041351,0.330277,-0.09539
1553,-0.077936,0.994833,0.065065,0.107996,0.322428,0.05226
1554,-0.090698,0.995871,0.003685,-0.023972,0.30964,0.2787699999999999
1555,-0.101156,0.992554,-0.067854,-0.09376,0.337769,0.505415
1556,-0.099109,0.985681,-0.13642,-0.068662,0.534553,0.549445
1557,-0.084148,0.976771,-0.197069,-0.287938,0.840779,0.5305350000000001
1558,-0.067632,0.966742,-0.246646,-0.114101,0.7707,0.111804
1559,-0.068098,0.954674,-0.28976,-0.000231,0.730309,0.2176159999999999
1560,-0.09802,0.938389,-0.331386,0.264417,0.276744,0.445446
1561,-0.142701,0.915335,-0.376559,0.3486329999999999,0.172464,0.500079
1562,-0.172381,0.8829969999999999,-0.4365779999999999,0.455447,-0.077027,0.3745969999999999
1563,-0.182837,0.852269,-0.49011,0.187781,-0.325138,0.548567
1564,-0.189958,0.827105,-0.5289729999999999,0.100053,-0.458285,0.621807
1565,-0.199639,0.805479,-0.5579850000000001,0.0076989999999999,-0.628462,0.558717
1566,-0.210144,0.789674,-0.576414,0.2029109999999999,-0.569826,0.55992
1567,-0.224513,0.777597,-0.587313,0.220637,-0.5267270000000001,0.521502
1568,-0.239746,0.7682939999999999,-0.5935020000000001,0.095398,-0.514663,0.540127
1569,-0.252438,0.76412,-0.593629,0.031567,-0.58753,0.583711
1570,-0.264185,0.767258,-0.584398,0.00477,-0.6072850000000001,0.501253
1571,-0.2696159999999999,0.779269,-0.5657270000000001,0.028466,-0.57471,0.40055
1572,-0.261142,0.8017850000000001,-0.537536,-0.061444,-0.565045,0.121841
1573,-0.235645,0.834358,-0.4983149999999999,-0.0583309999999999,0.047386,-0.108466
1574,-0.20084,0.8677959999999999,-0.454524,0.0069459999999999,0.628893,-0.454793
1575,-0.181863,0.879876,-0.439026,-0.324989,2.651329,-1.212661
1576,-0.166957,0.8647370000000001,-0.4736609999999999,-0.585545,0.250589,-1.023577
1577,-0.168707,0.846506,-0.504942,-0.397532,-0.7546930000000001,-0.619555
1578,-0.19754,0.8347559999999999,-0.513965,0.045563,-0.399285,0.265766
1579,-0.229936,0.8341700000000001,-0.501287,0.508195,0.366589,1.1169790000000002
1580,-0.245029,0.8498190000000001,-0.466656,0.619526,1.028569,1.269742
1581,-0.239092,0.8489979999999999,-0.471208,0.6337,0.473038,0.309938
1582,-0.230823,0.846504,-0.479741,0.301426,-0.6650159999999999,1.123296
1583,-0.216611,0.8505860000000001,-0.4791479999999999,-0.047092,-0.589447,0.830894
1584,-0.196482,0.872792,-0.446798,-0.176015,0.435863,-0.311274
1585,-0.211903,0.882805,-0.419229,0.314809,0.284676,0.363855
1586,-0.200259,0.898758,-0.390038,0.471621,0.032943,0.495872
1587,-0.149956,0.926016,-0.346421,0.311531,0.052302,0.298127
1588,-0.1112869999999999,0.945644,-0.30557,0.130696,-0.1509349999999999,0.332257
1589,-0.0823899999999999,0.959177,-0.270539,0.0539929999999999,-0.277628,0.304124
1590,-0.058225,0.970843,-0.232535,-0.0189389999999999,-0.387896,0.20951
1591,-0.044052,0.981024,-0.188816,0.044159,-0.341116,0.151188
1592,-0.036755,0.988393,-0.147403,0.0668909999999999,-0.299321,0.078586
1593,-0.029193,0.993819,-0.1071039999999999,0.1100039999999999,-0.206679,0.053973
1594,-0.021116,0.997834,-0.062298,0.204343,-0.074098,0.151455
1595,-0.020452,0.999672,-0.015418,0.1242569999999999,0.0061719999999999,0.090583
1596,-0.027647,0.999358,0.022759,0.017455,0.054734,-0.016946
1597,-0.036517,0.997792,0.0554799999999999,0.2913699999999999,0.260189,-0.687621
1598,-0.040912,0.99497,0.0914389999999999,0.3753849999999999,0.262339,-0.497505
1599,-0.043931,0.99244,0.114592,0.301621,0.265784,-0.12155
1600,-0.052805,0.991329,0.120321,0.345423,0.229008,-0.095845
1601,-0.060158,0.991196,0.117941,0.419853,0.17752,0.005716
1602,-0.065376,0.991044,0.116434,0.145424,0.312346,-0.215113
1603,-0.067872,0.991163,0.11397,-0.039779,0.303378,-0.2194849999999999
1604,-0.072733,0.991938,0.103765,-0.071096,0.297216,-0.116125
1605,-0.082084,0.993741,0.07576,0.094245,0.318866,0.0522759999999999
1606,-0.093736,0.995313,0.02377,0.043855,0.413394,0.233157
1607,-0.104873,0.993416,-0.046103,-0.03804,0.2284159999999999,0.369971
1608,-0.103139,0.987974,-0.115189,-0.093317,0.503099,0.619934
1609,-0.086266,0.980805,-0.174871,-0.2136,0.558792,0.564199
1610,-0.06345,0.972715,-0.223155,-0.398922,0.789125,0.420497
1611,-0.050646,0.962285,-0.267285,-0.0494519999999999,0.758692,0.312527
1612,-0.069323,0.947257,-0.3128869999999999,0.188021,0.416604,0.590627
1613,-0.111971,0.92488,-0.3633989999999999,0.32738,0.038758,0.527644
1614,-0.144073,0.887592,-0.4375199999999999,0.377105,-0.015781,0.088811
1615,-0.159219,0.848893,-0.504013,0.172128,-0.338334,0.2469329999999999
1616,-0.170864,0.826483,-0.536405,0.150631,-0.365805,0.549741
1617,-0.181649,0.812529,-0.553895,0.072045,-0.512159,0.666169
1618,-0.1926109999999999,0.798942,-0.5697300000000001,0.1065509999999999,-0.6333529999999999,0.6039399999999999
1619,-0.202366,0.7861739999999999,-0.583933,0.195133,-0.577663,0.56193
1620,-0.214538,0.77681,-0.592064,0.1651,-0.482056,0.509346
1621,-0.224003,0.7720020000000001,-0.594841,0.069203,-0.549391,0.540764
1622,-0.232575,0.7737850000000001,-0.589208,0.027101,-0.619549,0.541509
1623,-0.238209,0.783668,-0.573691,0.0077859999999999,-0.62551,0.332876
1624,-0.233758,0.804124,-0.546573,-0.068289,-0.648026,0.128451
1625,-0.212,0.836025,-0.506081,-0.108588,-0.197826,-0.019203
1626,-0.180413,0.871158,-0.456656,0.151422,1.050488,-0.567758
1627,-0.162517,0.886868,-0.4324949999999999,-0.00507,2.811328,-1.122375
1628,-0.149974,0.872233,-0.465528,-0.436666,2.0781,-1.247133
1629,-0.150998,0.8531569999999999,-0.499321,-0.235645,-0.973641,-0.473259
1630,-0.1797079999999999,0.841706,-0.509152,0.011206,-0.052674,0.428982
1631,-0.212106,0.8409969999999999,-0.497729,0.3265619999999999,0.351126,0.830233
1632,-0.228842,0.854576,-0.466188,0.501059,1.329842,1.207658
1633,-0.22495,0.8619610000000001,-0.454334,0.61852,-0.061836,0.265385
1634,-0.216165,0.8597790000000001,-0.462657,0.609735,-0.059654,0.273707
1635,-0.206184,0.859684,-0.467366,0.150886,-0.50008,0.940068
1636,-0.19268,0.8747799999999999,-0.444559,0.184227,0.581244,-0.272146
1637,-0.203867,0.8856040000000001,-0.417304,0.195413,0.5704199999999999,-0.299401
1638,-0.2141949999999999,0.895481,-0.3901699999999999,0.556358,0.364635,0.32738
1639,-0.169709,0.921046,-0.350532,0.2109079999999999,-0.035273,0.385612
1640,-0.124263,0.942726,-0.309557,0.044887,-0.018257,0.190935
1641,-0.099026,0.956535,-0.274288,-0.131275,-0.174232,0.334606
1642,-0.081623,0.966923,-0.241653,0.059162,-0.282887,0.307769
1643,-0.069235,0.976922,-0.202063,0.158316,-0.250237,0.2823239999999999
1644,-0.06018,0.985479,-0.158768,0.118408,-0.128317,0.238663
1645,-0.050079,0.99207,-0.115274,0.014786,-0.242375,0.139719
1646,-0.041262,0.996823,-0.068105,0.092852,-0.279142,0.136785
1647,-0.040026,0.998899,-0.024401,0.212664,-0.009535,0.0665159999999999
1648,-0.0466839999999999,0.99887,0.008706,0.190834,0.0395509999999999,-0.012765
1649,-0.053583,0.997767,0.039847,0.2137239999999999,0.078878,-0.289008
1650,-0.05777,0.99521,0.078855,0.325394,0.210571,-0.387876
1651,-0.060426,0.991708,0.1134059999999999,0.234651,0.231452,-0.286258
1652,-0.067077,0.98977,0.125912,0.219054,0.349006,-0.389279
1653,-0.076608,0.989171,0.125181,0.4417359999999999,0.149043,-0.016173
1654,-0.086216,0.988872,0.1212309999999999,0.3558699999999999,0.277104,0.068039
1655,-0.093913,0.989092,0.113466,0.204646,0.339811,-0.1159839999999999
1656,-0.0988899999999999,0.990391,0.09666,0.094709,0.4629319999999999,-0.063716
1657,-0.1057119999999999,0.992528,0.0609139999999999,0.037841,0.396449,0.169982
1658,-0.111187,0.993787,0.004686,-0.083195,0.387026,0.198088
1659,-0.116655,0.991113,-0.063907,-0.221327,0.086035,0.376224
1660,-0.1217589999999999,0.983528,-0.1335849999999999,-0.032172,0.434868,0.51478
1661,-0.116596,0.97284,-0.199962,-0.07185,0.494918,0.521755
1662,-0.105777,0.959616,-0.260664,-0.1236849999999999,0.677316,0.322309
1663,-0.104897,0.943673,-0.313808,-0.036918,0.604468,0.409175
1664,-0.133516,0.924908,-0.355973,0.166505,0.536671,0.307435
1665,-0.184546,0.896474,-0.402833,0.46276,0.193934,0.062318
1666,-0.214644,0.864798,-0.453927,0.302275,-0.038779,0.1648339999999999
1667,-0.218875,0.8443280000000001,-0.4890819999999999,0.11214,-0.190657,0.603477
1668,-0.223598,0.8290200000000001,-0.5125689999999999,0.11967,-0.417521,0.726101
1669,-0.233762,0.8142550000000001,-0.531359,0.2060219999999999,-0.562851,0.640871
1670,-0.24554,0.8008029999999999,-0.546281,0.277996,-0.511283,0.563752
1671,-0.256315,0.7901060000000001,-0.556806,0.217268,-0.472128,0.529721
1672,-0.264834,0.783271,-0.562447,0.127902,-0.48278,0.532906
1673,-0.270439,0.781315,-0.562501,0.029396,-0.541844,0.500215
1674,-0.273452,0.7866310000000001,-0.553565,0.008544,-0.61732,0.4338439999999999
1675,-0.27005,0.801107,-0.534133,-0.035629,-0.653112,0.270171
1676,-0.255745,0.824586,-0.504629,-0.062294,-0.5796060000000001,0.147924
1677,-0.229365,0.8544870000000001,-0.466091,-0.112539,-0.075831,0.101406
1678,-0.199072,0.881491,-0.428184,0.121252,2.004053,-0.564217
1679,-0.180999,0.888438,-0.421799,0.1031789999999999,1.997106,-0.570602
1680,-0.171494,0.872281,-0.457945,-0.291015,0.33208,-1.220049
1681,-0.176223,0.8526360000000001,-0.491889,0.084838,-0.820074,-0.398751
1682,-0.197382,0.8449270000000001,-0.4971279999999999,0.105997,-0.812365,-0.393513
1683,-0.228136,0.8466299999999999,-0.480802,0.460771,0.308934,0.778043
1684,-0.2418739999999999,0.855826,-0.4572279999999999,0.583808,1.618555,1.103697
1685,-0.228603,0.865346,-0.446,0.546031,1.774898,0.8523719999999999
1686,-0.2082969999999999,0.8663549999999999,-0.453916,0.538146,-0.409049,0.744947
1687,-0.187119,0.869316,-0.457464,-0.142822,-0.7036359999999999,0.946875
1688,-0.171085,0.883126,-0.436825,-0.599392,-0.552239,0.03178
1689,-0.199908,0.8885059999999999,-0.4130279999999999,0.122226,0.509383,-0.161343
1690,-0.228709,0.89031,-0.393748,0.49766,0.037332,0.7832279999999999
1691,-0.181142,0.917235,-0.354774,0.3880349999999999,0.01294,0.604988
1692,-0.124134,0.944201,-0.305078,0.288883,0.0610929999999999,0.142267
1693,-0.095759,0.959263,-0.265786,0.197047,0.023601,0.4087909999999999
1694,-0.0803909999999999,0.968361,-0.236244,0.0167159999999999,-0.232033,0.374793
1695,-0.06592,0.978305,-0.196394,0.035692,-0.295612,0.239821
1696,-0.054321,0.987625,-0.147113,0.049255,-0.253006,0.128314
1697,-0.047335,0.993255,-0.105832,0.061983,-0.213363,0.0226099999999999
1698,-0.0405019999999999,0.996949,-0.066697,0.145498,-0.210678,0.059175
1699,-0.0366149999999999,0.999037,-0.024081,0.120843,-0.202177,0.076159
1700,-0.039266,0.999147,0.0125659999999999,0.101811,-0.145342,0.035133
1701,-0.047483,0.997792,0.0463779999999999,0.328733,0.195705,-0.55619
1702,-0.054212,0.995011,0.08372,0.331953,0.187515,-0.5730850000000001
1703,-0.055991,0.992007,0.113051,0.259925,0.149243,-0.387282
1704,-0.060738,0.990191,0.125808,0.203011,0.149046,-0.205902
1705,-0.071215,0.989457,0.126089,0.364962,0.19844,-0.101645
1706,-0.082019,0.989041,0.122743,0.376971,0.265018,0.050582
1707,-0.0899,0.989154,0.116138,0.000376,0.351529,-0.353641
1708,-0.0952409999999999,0.99021,0.102024,0.009273,0.320383,-0.230488
1709,-0.107493,0.991928,0.067228,0.078929,0.260803,-0.078397
1710,-0.1210329999999999,0.992616,0.007728,0.0156099999999999,0.322234,0.2182239999999999
1711,-0.13199,0.988913,-0.068019,-0.0305769999999999,0.493463,0.405314
1712,-0.128905,0.981777,-0.13962,-0.069566,0.883915,0.659243
1713,-0.10815,0.975039,-0.193904,-0.345326,0.851621,0.430766
1714,-0.0840549999999999,0.9672,-0.2397,-0.237646,0.730462,0.211166
1715,-0.077828,0.95618,-0.28224,-0.081535,0.580868,0.436003
1716,-0.100749,0.939078,-0.328603,0.147716,0.368234,0.427206
1717,-0.154274,0.9096,-0.385778,0.341682,0.078895,0.248465
1718,-0.200847,0.87105,-0.448252,0.410625,-0.054201,-0.0101219999999999
1719,-0.21356,0.844233,-0.491589,0.13046,-0.1693059999999999,0.306424
1720,-0.215373,0.8315440000000001,-0.5120020000000001,0.124644,-0.363801,0.5682159999999999
1721,-0.225758,0.821672,-0.523341,0.141834,-0.42531,0.7028909999999999
1722,-0.2463179999999999,0.8089149999999999,-0.533837,0.342723,-0.675828,0.74212
1723,-0.270305,0.792281,-0.547014,0.217021,-0.6726979999999999,0.590562
1724,-0.2856599999999999,0.779037,-0.55812,0.086044,-0.600738,0.470412
1725,-0.291021,0.776291,-0.559176,0.1457109999999999,-0.687699,0.52466
1726,-0.296775,0.782284,-0.5476810000000001,0.0663059999999999,-0.682674,0.483838
1727,-0.298028,0.797304,-0.5248649999999999,0.006402,-0.646898,0.353417
1728,-0.286955,0.821958,-0.4919739999999999,-0.048311,-0.651411,0.172989
1729,-0.259953,0.854675,-0.449391,0.005787,0.3690489999999999,-0.300884
1730,-0.225343,0.8846799999999999,-0.408117,0.050798,1.1088049999999998,-0.7875770000000001
1731,-0.202983,0.887199,-0.414335,-0.328634,2.773003,-1.341066
1732,-0.189002,0.870868,-0.453722,-0.502709,-0.498874,-0.420393
1733,-0.203489,0.8531989999999999,-0.480251,-0.386614,-0.8628879999999999,-0.094456
1734,-0.238286,0.840181,-0.4871479999999999,-0.249279,0.595885,0.205197
1735,-0.2722,0.836834,-0.474987,0.925948,1.812305,1.013821
1736,-0.2937929999999999,0.828492,-0.4767439999999999,0.943329,0.323394,0.550978
1737,-0.288169,0.82647,-0.483637,0.341422,-0.964623,1.152491
