,gravity.x,gravity.y,gravity.z,userAcceleration.x,userAcceleration.y,userAcceleration.z
0,-0.071565,0.915809,-0.395186,-0.180647,-0.288444,0.385557
1,-0.071284,0.921835,-0.380969,0.024043,-0.391943,0.2982059999999999
2,-0.071084,0.925555,-0.37188,0.2119219999999999,-0.160342,0.331734
3,-0.072594,0.928435,-0.364332,0.231636,0.244905,0.478926
4,-0.072748,0.932413,-0.353996,0.141657,0.294226,0.6155010000000001
5,-0.067221,0.940938,-0.331836,-0.149347,0.128138,0.5102720000000001
6,-0.060287,0.950878,-0.303637,-0.363846,0.040394,0.197283
7,-0.050388,0.957417,-0.284273,-0.2267429999999999,-0.065083,0.091875
8,-0.035177,0.960537,-0.275917,-0.092218,-0.142467,0.187599
9,-0.019418,0.963865,-0.265678,0.018854,-0.289274,0.3326949999999999
10,-0.005617,0.96886,-0.24754,0.13669,-0.323261,0.336026
11,0.005543,0.97494,-0.222394,0.135372,-0.26594,0.305692
12,0.012947,0.98082,-0.1944789999999999,0.068092,-0.127564,0.16683
13,0.017999,0.985328,-0.169716,0.003974,-0.114997,0.063301
14,0.0202919999999999,0.988971,-0.146706,-0.001707,-0.146502,0.0521019999999999
15,0.017289,0.992207,-0.123386,0.027587,-0.168324,0.004047
16,0.010171,0.994512,-0.104118,0.085334,0.0209,-0.018288
17,0.001911,0.995835,-0.091138,0.032788,0.049072,-0.039386
18,-0.0057079999999999,0.99679,-0.079835,-0.049392,0.033941,0.0518039999999999
19,-0.008947,0.997587,-0.068826,0.322347,0.053758,0.037317
20,-0.005167,0.998249,-0.058903,0.425333,0.145702,-0.007945
21,0.003166,0.998763,-0.0496029999999999,0.295342,0.505433,0.025494
22,0.01462,0.998883,-0.04491,0.040236,0.624225,0.214619
23,0.030844,0.998391,-0.047567,-0.086051,0.370612,0.431539
24,0.047204,0.997057,-0.060398,-0.096734,0.1532109999999999,0.6301
25,0.059987,0.994737,-0.08306,-0.302617,-0.0413069999999999,0.5034390000000001
26,0.066041,0.991412,-0.1128779999999999,-0.475617,0.032636,0.466424
27,0.0675,0.987062,-0.1454349999999999,-0.569239,0.203993,0.401478
28,0.0688759999999999,0.981346,-0.179489,-0.412885,0.485695,0.179977
29,0.070868,0.974188,-0.214326,-0.348502,0.476542,0.171648
30,0.07102,0.965826,-0.249273,-0.159323,0.27656,0.2534389999999999
31,0.066048,0.957473,-0.280862,0.023186,0.012468,0.252985
32,0.055772,0.949,-0.310302,0.163344,-0.10197,0.208694
33,0.044769,0.940254,-0.337518,0.2268219999999999,-0.191368,0.251092
34,0.03561,0.931967,-0.3607889999999999,0.078435,-0.27349,0.194742
35,0.021071,0.925011,-0.3793539999999999,-0.023803,-0.233529,0.198354
36,0.004392,0.91919,-0.393789,-0.024564,-0.274537,0.208867
37,-0.005802,0.914919,-0.403596,-0.06741,-0.37021,0.18773
38,-0.0137849999999999,0.913353,-0.406936,-0.01571,-0.508155,0.203368
39,-0.020565,0.915471,-0.401858,0.0146439999999999,-0.525944,0.189822
40,-0.025137,0.920732,-0.389384,0.026007,-0.544511,0.146708
41,-0.027435,0.927252,-0.37343,0.046188,-0.401922,-0.085783
42,-0.025389,0.932896,-0.359248,0.0556929999999999,-0.193104,-0.114232
43,-0.019999,0.935456,-0.352875,-0.012243,-0.065492,-0.0547179999999999
44,-0.018604,0.933678,-0.357628,-0.051251,0.535011,0.1158829999999999
45,-0.022885,0.931486,-0.363055,-0.264286,0.812547,-0.048185
46,-0.035092,0.930939,-0.363485,-0.354603,0.604294,-0.179652
47,-0.050356,0.930631,-0.362476,-0.097227,0.236803,-0.131237
48,-0.062135,0.92533,-0.374036,-0.278807,0.526452,0.191571
49,-0.067077,0.913534,-0.401194,-0.584382,1.143641,0.841074
50,-0.067771,0.907969,-0.4135189999999999,-0.386773,0.432546,0.5288149999999999
51,-0.065052,0.912599,-0.403647,0.01949,-0.453981,0.362586
52,-0.059972,0.91795,-0.392136,0.170507,-0.483822,0.4495699999999999
53,-0.0623299999999999,0.920732,-0.385184,0.293149,-0.009935,0.481788
54,-0.067867,0.922222,-0.380657,0.266918,0.305363,0.544628
55,-0.065395,0.927161,-0.36891,0.099712,0.302682,0.5447529999999999
56,-0.0564659999999999,0.938004,-0.341993,-0.3730989999999999,0.030456,0.250975
57,-0.047427,0.94718,-0.317175,-0.229459,-0.154135,0.088095
58,-0.034511,0.950834,-0.30777,-0.120869,-0.198286,0.192475
59,-0.019479,0.952592,-0.303627,-0.0224669999999999,-0.214036,0.3749
60,-0.005999,0.95656,-0.2914719999999999,0.030551,-0.288027,0.377242
61,0.00392,0.962759,-0.270332,0.055955,-0.293661,0.2857889999999999
62,0.0112319999999999,0.969339,-0.245471,0.071898,-0.127099,0.209567
63,0.017519,0.975082,-0.221152,0.0511,-0.037627,0.08129
64,0.024544,0.979599,-0.199458,0.052818,-0.115997,-0.00533
65,0.0300579999999999,0.98337,-0.179109,0.031267,-0.14139,-0.005919
66,0.0308839999999999,0.986821,-0.15884,0.075806,-0.1699109999999999,0.008816
67,0.0265639999999999,0.98977,-0.140176,0.091555,-0.066735,-0.0295779999999999
68,0.020352,0.992065,-0.124066,0.042011,-0.056488,-0.039402
69,0.012782,0.993813,-0.110326,-0.189952,0.003547,0.1093339999999999
70,0.0047409999999999,0.995268,-0.097053,0.1300849999999999,0.013475,0.139244
71,0.001291,0.996446,-0.084228,0.335989,0.0939779999999999,0.036621
72,0.0039,0.997374,-0.072315,0.16091,0.1879279999999999,-0.109234
73,0.00917,0.99814,-0.060269,0.0217599999999999,0.290526,-0.181033
74,0.016062,0.998555,-0.051279,-0.173594,0.283748,-0.003165
75,0.027627,0.998608,-0.044938,0.012381,0.255131,0.1413589999999999
76,0.038899,0.99828,-0.0438649999999999,0.256206,0.058361,0.728984
77,0.049986,0.997022,-0.058724,-0.134123,-0.043836,1.038292
78,0.062824,0.99501,-0.077507,-0.534183,0.415649,0.412025
79,0.068385,0.992035,-0.105779,-0.4529829999999999,0.626007,0.177862
80,0.074194,0.986333,-0.147116,-0.370794,0.6766770000000001,0.154104
81,0.083757,0.978328,-0.189364,-0.485231,0.393681,0.175753
82,0.08639,0.969614,-0.228877,-0.0778,0.081716,0.170588
83,0.079151,0.96148,-0.26323,0.329876,-0.003991,0.17923
84,0.06472,0.952778,-0.296688,0.329659,-0.02953,0.187054
85,0.049629,0.94278,-0.329698,0.235481,-0.169297,0.198931
86,0.034067,0.932007,-0.360834,0.094092,-0.34343,0.2373289999999999
87,0.0178,0.922918,-0.384583,-0.066277,-0.37,0.359666
88,0.004464,0.916766,-0.399397,-0.1569289999999999,-0.331989,0.2406599999999999
89,-0.008105,0.912838,-0.4082389999999999,-0.085034,-0.252789,0.251928
90,-0.01834,0.911808,-0.410206,-0.073426,-0.311283,0.209263
91,-0.0255759999999999,0.915353,-0.401838,-0.0538149999999999,-0.381783,0.1569809999999999
92,-0.033075,0.921418,-0.38716,-0.108267,-0.478425,0.06842
93,-0.040081,0.92745,-0.37179,-0.020069,-0.340979,-0.0269529999999999
94,-0.045441,0.933177,-0.356531,-0.028488,-0.174556,0.1245059999999999
95,-0.048143,0.936882,-0.346313,-0.133879,0.250145,0.095275
96,-0.050053,0.93563,-0.349414,-0.18536,0.554742,0.088062
97,-0.049713,0.934222,-0.353209,-0.404038,0.637876,-0.194124
98,-0.05193,0.935275,-0.350088,-0.186413,0.421231,-0.320261
99,-0.0583429999999999,0.931607,-0.358752,0.134164,0.488666,0.08388
100,-0.064562,0.920684,-0.38493,-0.331785,0.94394,0.949979
101,-0.065576,0.911455,-0.406139,-0.346198,0.1963329999999999,0.7070270000000001
102,-0.074334,0.913237,-0.400589,0.085275,-0.39015,0.2778469999999999
103,-0.077708,0.916048,-0.393465,0.335307,-0.352099,0.398714
104,-0.075947,0.919066,-0.386714,0.358006,0.1106579999999999,0.484431
105,-0.073371,0.921919,-0.380368,0.168692,0.4519359999999999,0.581814
106,-0.071111,0.92678,-0.368809,-0.200541,0.213967,0.575917
107,-0.0641019999999999,0.935287,-0.348034,-0.492676,-0.015517,0.32925
108,-0.055561,0.943975,-0.325304,-0.474682,-0.085927,0.236696
109,-0.043644,0.949171,-0.311716,-0.207348,-0.155607,0.237955
110,-0.026782,0.952353,-0.303815,-0.011838,-0.250312,0.372373
111,-0.0092459999999999,0.956414,-0.2918659999999999,0.083037,-0.306298,0.4706229999999999
112,0.005365,0.963123,-0.269004,0.162619,-0.150318,0.2994
113,0.016331,0.970875,-0.239026,0.162594,-0.094974,0.204313
114,0.0270029999999999,0.977663,-0.2084329999999999,0.10024,-0.033937,0.021757
115,0.0356579999999999,0.982508,-0.182765,0.057237,-0.161738,0.016216
116,0.0373,0.986569,-0.159025,0.080147,-0.17831,-0.005206
117,0.033564,0.990151,-0.1359109999999999,0.05013,-0.052804,-0.080978
118,0.028499,0.99288,-0.115644,-0.0548049999999999,0.026392,-0.095309
119,0.02189,0.994777,-0.099682,-0.1235589999999999,-0.0019329999999999,-0.00214
120,0.0152699999999999,0.996028,-0.087701,0.281758,-0.045894,0.136178
121,0.0144289999999999,0.996996,-0.076079,0.404516,0.174696,0.149764
122,0.0210759999999999,0.997734,-0.063862,0.217876,0.450416,0.1104619999999999
123,0.033286,0.998087,-0.052062,0.1625,0.619757,0.252196
124,0.053456,0.997643,-0.042969,-0.045354,0.583183,0.731949
125,0.080546,0.99581,-0.043256,-0.183131,0.603632,0.730359
126,0.1016779999999999,0.993111,-0.058212,-0.424996,0.189827,0.378311
127,0.108839,0.989991,-0.089819,-0.461104,-0.04445,0.4456229999999999
128,0.1030359999999999,0.986563,-0.1267829999999999,-0.598809,0.005487,0.3942239999999999
129,0.090395,0.982777,-0.161171,-0.546327,0.097073,0.220513
130,0.077141,0.978044,-0.193589,-0.286156,0.293532,0.186296
131,0.0685559999999999,0.972178,-0.223983,-0.048445,0.226934,0.168364
132,0.063572,0.964762,-0.255326,0.100262,0.14527,0.158158
133,0.058417,0.95603,-0.287387,0.129068,0.029459,0.248203
134,0.04863,0.946853,-0.317967,0.102767,-0.1569819999999999,0.267705
135,0.033224,0.93802,-0.344982,0.084238,-0.275392,0.310528
136,0.0177599999999999,0.930619,-0.365555,-0.045455,-0.336305,0.2272949999999999
137,0.002076,0.924263,-0.381748,-0.085572,-0.33004,0.132343
138,-0.0156539999999999,0.918311,-0.395548,-0.052476,-0.3124909999999999,0.176599
139,-0.026499,0.914504,-0.403704,-0.069937,-0.3135219999999999,0.174365
140,-0.032532,0.91361,-0.405285,-0.05072,-0.408132,0.149121
141,-0.037134,0.915403,-0.400818,-0.00318,-0.4737989999999999,0.119614
142,-0.039947,0.92002,-0.389827,0.0437769999999999,-0.413718,0.031138
143,-0.039754,0.926546,-0.374071,0.048619,-0.3779929999999999,-0.05641
144,-0.036057,0.93276,-0.358687,0.013199,0.037593,-0.20717
145,-0.035386,0.934783,-0.3534489999999999,0.030687,0.41063,-0.03507
146,-0.041261,0.931407,-0.36163,-0.259216,0.7594350000000001,0.1094789999999999
147,-0.053008,0.928496,-0.367536,-0.541154,0.7288680000000001,-0.16434
148,-0.06587,0.930704,-0.3597889999999999,-0.279146,-0.015497,-0.412245
149,-0.073898,0.933509,-0.350851,-0.125916,-0.188468,-0.267877
150,-0.0782559999999999,0.929618,-0.360116,-0.013633,-0.057838,0.212304
151,-0.079506,0.922302,-0.3782,-0.246269,0.565293,0.64976
152,-0.076657,0.916162,-0.393406,-0.409259,0.4278479999999999,1.036793
153,-0.080058,0.917559,-0.389453,-0.2177469999999999,0.595609,0.663745
154,-0.094001,0.918624,-0.383784,0.28173,0.198304,0.32426
155,-0.102721,0.916012,-0.387773,0.308897,0.1393319999999999,0.307802
156,-0.102312,0.913821,-0.393016,0.388262,0.004392,0.474422
157,-0.091861,0.917261,-0.387545,0.276187,-0.088984,0.589067
158,-0.0763269999999999,0.924885,-0.372504,-0.067334,0.0379139999999999,0.49935
159,-0.064999,0.931996,-0.356588,-0.292225,-0.0221449999999999,0.359365
160,-0.053959,0.938037,-0.342304,-0.397396,-0.0569799999999999,0.3109159999999999
161,-0.043385,0.943797,-0.327661,-0.244671,-0.154826,0.275827
162,-0.030797,0.95016,-0.310232,-0.066554,-0.288173,0.2731679999999999
163,-0.017111,0.957036,-0.289458,0.049276,-0.3375599999999999,0.332458
164,-0.004954,0.964881,-0.262634,0.141764,-0.251411,0.302322
165,0.004857,0.972571,-0.232546,0.122752,-0.134513,0.133013
166,0.012046,0.978561,-0.205598,0.03991,-0.108688,0.073686
167,0.0138789999999999,0.983399,-0.180913,0.045249,-0.09871,0.0715679999999999
168,0.009445,0.987162,-0.159431,0.097,-0.0065099999999999,-0.059395
169,0.001848,0.989882,-0.141871,-0.025056,0.053759,-0.0608419999999999
170,-0.007425,0.99178,-0.127727,-0.233618,0.075374,0.046321
171,-0.0156919999999999,0.992899,-0.117904,0.1630609999999999,0.034673,0.079024
172,-0.017643,0.993747,-0.110241,0.694477,0.1300329999999999,0.000866
173,-0.00988,0.994853,-0.1008309999999999,0.591591,0.42278,0.0604409999999999
174,0.004012,0.995937,-0.089939,0.134003,0.623157,0.033772
175,0.020356,0.996167,-0.085047,-0.236008,0.5072810000000001,0.21905
176,0.0387189999999999,0.995233,-0.089484,-0.083473,0.179449,0.640967
177,0.052889,0.993142,-0.104252,-0.229128,0.030754,0.756779
178,0.06005,0.990265,-0.125556,-0.388694,0.108825,0.402183
179,0.059144,0.985593,-0.158442,-0.368608,0.258318,0.32136
180,0.056135,0.979305,-0.194441,-0.2883739999999999,0.410405,0.251799
181,0.0574289999999999,0.971516,-0.229901,-0.417628,0.403117,0.177761
182,0.0607799999999999,0.962125,-0.265739,-0.363225,0.382006,0.224738
183,0.059674,0.952415,-0.298901,0.044406,0.094933,0.194332
184,0.051285,0.942589,-0.32999,0.2499849999999999,-0.018883,0.210132
185,0.038352,0.933219,-0.35725,0.277291,-0.103431,0.257152
186,0.022361,0.925204,-0.378806,0.2417679999999999,-0.170398,0.249137
187,0.001925,0.918061,-0.396431,0.089491,-0.268387,0.284508
188,-0.018996,0.911465,-0.410935,0.006178,-0.299313,0.311341
189,-0.03791,0.905773,-0.42206,-0.0271529999999999,-0.310696,0.323427
190,-0.051286,0.902174,-0.42831,-0.088424,-0.360441,0.272304
191,-0.060047,0.90209,-0.427347,-0.0932429999999999,-0.4167229999999999,0.26565
192,-0.065252,0.905889,-0.418454,-0.0908149999999999,-0.496084,0.164914
193,-0.068052,0.912156,-0.404151,-0.086047,-0.487717,0.076804
194,-0.066932,0.918702,-0.389236,-0.142266,-0.1188819999999999,0.12683
195,-0.06039,0.922283,-0.381765,-0.148808,-0.122463,0.11936
196,-0.059092,0.920203,-0.386953,-0.458226,0.654794,0.199209
197,-0.064381,0.915307,-0.397575,-0.214229,0.524467,-0.162407
198,-0.072272,0.917611,-0.39085,-0.004938,0.347632,-0.498951
199,-0.082953,0.918606,-0.386366,0.290167,0.1910589999999999,-0.559176
200,-0.0917679999999999,0.911328,-0.401319,0.159959,0.6292449999999999,0.376142
201,-0.100758,0.898583,-0.427075,-0.014888,0.81684,0.6489229999999999
202,-0.102899,0.887294,-0.449576,-0.5428689999999999,0.530065,1.135138
203,-0.108547,0.8897940000000001,-0.443263,-0.3337449999999999,-0.089546,0.403865
204,-0.121145,0.895544,-0.4281609999999999,0.1990569999999999,-0.120748,0.2929219999999999
205,-0.125273,0.896964,-0.42398,0.373731,0.041207,0.434829
206,-0.1233119999999999,0.8972479999999999,-0.423955,0.312537,0.228576,0.527547
207,-0.118599,0.901121,-0.417027,0.12983,0.148729,0.7020460000000001
208,-0.109773,0.909716,-0.400455,-0.266646,0.005064,0.47028
209,-0.103751,0.91865,-0.381202,-0.410287,-0.044993,0.329276
210,-0.09484,0.925125,-0.367621,-0.32914,-0.0540159999999999,0.2858489999999999
211,-0.078601,0.931061,-0.356292,-0.029736,-0.25354,0.4221789999999999
212,-0.058285,0.93876,-0.3396,0.031506,-0.332391,0.386414
213,-0.038569,0.947706,-0.316801,0.14442,-0.293912,0.400694
214,-0.02316,0.956979,-0.289226,0.22186,-0.048013,0.271999
215,-0.011802,0.965107,-0.261582,0.154792,-0.01778,0.158219
216,-0.004077,0.97119,-0.238261,0.067798,-0.0301959999999999,0.0450389999999999
217,-0.001251,0.97611,-0.217263,0.142181,-0.107473,0.038842
218,-0.002394,0.980358,-0.197198,0.187422,-0.109356,0.002679
219,-0.006345,0.983599,-0.180245,0.0633669999999999,-0.0499589999999999,-0.04409
220,-0.013908,0.985955,-0.166419,-0.130425,-0.002022,0.0448519999999999
221,-0.021508,0.987712,-0.154783,0.110147,-0.0221659999999999,0.1025529999999999
222,-0.023453,0.989306,-0.143941,0.6179359999999999,0.1067019999999999,0.2227829999999999
223,-0.018622,0.991036,-0.13227,0.549048,0.281562,0.02462
224,-0.011328,0.992941,-0.118048,0.1771599999999999,0.525812,-0.035746
225,-0.004709,0.99402,-0.109071,-0.2247219999999999,0.487853,0.1157849999999999
226,0.00549,0.994205,-0.10733,-0.23933,0.282192,0.199371
227,0.016934,0.993675,-0.110989,-0.01405,0.144753,0.498395
228,0.026717,0.991924,-0.123969,-0.014388,-0.059947,0.771796
229,0.035205,0.9886,-0.146374,-0.341815,0.00432,0.619564
230,0.040839,0.983622,-0.175539,-0.539542,0.222646,0.36783
231,0.04448,0.976482,-0.2109469999999999,-0.35724,0.4401279999999999,0.28248
232,0.053784,0.967146,-0.248457,-0.2453429999999999,0.458879,0.275465
233,0.0648789999999999,0.956115,-0.2857099999999999,-0.118422,0.334321,0.346074
234,0.069496,0.945379,-0.318471,0.07824,0.1061339999999999,0.3124889999999999
235,0.0627669999999999,0.936571,-0.344806,0.196922,-0.034792,0.216602
236,0.047841,0.929041,-0.3668639999999999,0.22613,-0.070338,0.224454
237,0.0327779999999999,0.921719,-0.386466,0.11778,-0.1476559999999999,0.176902
238,0.016594,0.914596,-0.404023,0.032066,-0.225052,0.2198639999999999
239,-0.002078,0.908345,-0.418213,-0.01901,-0.213628,0.240188
240,-0.018008,0.902782,-0.429718,-0.044461,-0.285839,0.2433469999999999
241,-0.030782,0.8989469999999999,-0.436971,-0.034877,-0.362051,0.262792
242,-0.042612,0.899034,-0.435796,0.033747,-0.437013,0.28475
243,-0.050358,0.903832,-0.424911,0.055302,-0.548485,0.196731
244,-0.055156,0.910779,-0.40919,0.017207,-0.445111,0.051508
245,-0.0578179999999999,0.917489,-0.393532,-0.074399,-0.211083,0.1839829999999999
246,-0.055152,0.920516,-0.386788,-0.1976099999999999,-0.0433189999999999,0.161065
247,-0.054586,0.916386,-0.396552,-0.3577059999999999,0.236477,0.185126
248,-0.0577769999999999,0.909008,-0.412749,-0.319283,1.22829,0.305907
249,-0.061045,0.910494,-0.408986,-0.040548,0.4542819999999999,-0.360423
250,-0.072806,0.913576,-0.400093,0.221686,0.305739,-0.440239
251,-0.086745,0.908784,-0.408145,0.401991,0.095702,-0.041928
252,-0.100298,0.8973059999999999,-0.429859,0.197542,0.239215,0.177616
253,-0.103657,0.886199,-0.451557,-0.107753,0.384263,0.48505
254,-0.094592,0.883416,-0.458938,-0.576962,0.320273,0.8473510000000001
255,-0.086591,0.8943270000000001,-0.43895,-0.3684719999999999,0.470205,0.5586399999999999
256,-0.091238,0.905083,-0.415328,0.033102,0.1195599999999999,0.278991
257,-0.099881,0.906417,-0.4103989999999999,0.214688,-0.086257,0.613097
258,-0.103827,0.905009,-0.412523,0.1668,0.006826,0.6986399999999999
259,-0.098444,0.910047,-0.4026409999999999,0.098887,0.044604,0.723793
260,-0.0904,0.919999,-0.381347,-0.256096,0.210342,0.280212
261,-0.0839559999999999,0.928328,-0.362153,-0.256528,0.1056839999999999,0.204758
262,-0.0729799999999999,0.932074,-0.354835,-0.221408,0.004404,0.1552349999999999
263,-0.056874,0.935321,-0.349193,0.0604139999999999,-0.224597,0.4391739999999999
264,-0.038551,0.941924,-0.3336,0.162238,-0.228881,0.382657
265,-0.021425,0.950495,-0.309994,0.188692,-0.159754,0.311764
266,-0.008799,0.958804,-0.283925,0.166011,-0.118716,0.218831
267,-0.0001899999999999,0.96551,-0.260356,0.110114,-0.093699,0.146876
268,0.004849,0.971145,-0.238428,0.092456,-0.100891,0.1059359999999999
269,0.006511,0.976516,-0.215333,0.0986679999999999,-0.124679,0.059907
270,0.004683,0.981383,-0.191988,0.092592,-0.119201,0.046984
271,-0.000892,0.984974,-0.172688,0.027076,-0.063114,-0.0514639999999999
272,-0.010263,0.987368,-0.158095,-0.021612,-0.01932,-0.107301
273,-0.020657,0.989202,-0.145077,0.023709,-0.0002029999999999,0.089383
274,-0.026661,0.990709,-0.1333369999999999,0.332539,-0.048449,0.177175
275,-0.02686,0.992236,-0.1214089999999999,0.440999,0.029935,0.0757549999999999
276,-0.02248,0.993791,-0.108941,0.361149,0.220503,0.007653
277,-0.015556,0.99508,-0.097819,-0.0297769999999999,0.47013,0.037226
278,-0.005603,0.995762,-0.091769,-0.170086,0.535809,0.2792989999999999
279,0.009358,0.99584,-0.0906039999999999,0.060359,0.324121,0.6331600000000001
280,0.025119,0.994769,-0.09898,-0.168704,0.129697,0.772656
281,0.0374959999999999,0.992091,-0.119769,-0.4460949999999999,0.251897,0.478122
282,0.043118,0.987346,-0.15259,-0.5955630000000001,0.243459,0.31978
283,0.046866,0.980602,-0.1903089999999999,-0.540518,0.331577,0.247728
284,0.0515789999999999,0.972469,-0.227242,-0.437947,0.351277,0.230355
285,0.0552789999999999,0.963168,-0.263146,-0.148052,0.2066619999999999,0.2465909999999999
286,0.054772,0.953407,-0.296667,0.134514,0.093575,0.266759
287,0.046685,0.943936,-0.326803,0.323859,0.027041,0.231954
288,0.032972,0.935172,-0.352649,0.291857,-0.036414,0.227679
289,0.01835,0.926881,-0.3749,0.26084,-0.094026,0.226158
290,0.003328,0.91916,-0.393865,-0.0334029999999999,-0.253755,0.271382
291,-0.0133759999999999,0.912562,-0.4087139999999999,-0.047476,-0.20367,0.310051
292,-0.028983,0.907615,-0.4187979999999999,-0.044991,-0.199668,0.321737
293,-0.039832,0.904437,-0.4247399999999999,-0.049295,-0.331652,0.2554889999999999
294,-0.047272,0.90359,-0.425777,-0.011474,-0.441997,0.278942
295,-0.054189,0.906976,-0.417678,0.022909,-0.524346,0.253112
296,-0.059858,0.913744,-0.401851,0.0135319999999999,-0.512789,0.068675
297,-0.064092,0.921272,-0.383596,0.047064,-0.329475,-0.035669
298,-0.063173,0.927185,-0.369234,0.1116809999999999,-0.112319,0.088198
299,-0.059867,0.928014,-0.367698,-0.117486,0.343852,0.222068
300,-0.059782,0.922001,-0.382538,-0.309068,0.906994,0.27089
301,-0.06065,0.920966,-0.384888,-0.366718,0.690331,-0.2495119999999999
302,-0.066087,0.922528,-0.3802239999999999,0.0275589999999999,0.115909,-0.34498
303,-0.076611,0.91795,-0.389223,0.109966,0.141163,-0.139204
304,-0.090064,0.907674,-0.409892,0.084983,0.27273,0.092967
305,-0.094559,0.8976940000000001,-0.430349,-0.399963,0.4112659999999999,0.776632
306,-0.0973639999999999,0.895877,-0.4335,-0.319705,0.228879,0.742872
307,-0.105216,0.9001469999999999,-0.422684,0.290366,0.116897,0.451996
308,-0.111421,0.903693,-0.413425,0.384111,0.197488,0.4974399999999999
309,-0.1156609999999999,0.90637,-0.406339,0.277999,0.260836,0.46945
310,-0.1168559999999999,0.909562,-0.398796,0.029042,0.077941,0.588371
311,-0.111196,0.916139,-0.3851239999999999,-0.172678,0.009123,0.541068
312,-0.10095,0.924249,-0.368196,-0.3912219999999999,-0.0823,0.3437969999999999
313,-0.089532,0.930866,-0.354215,-0.2134309999999999,-0.110233,0.312192
314,-0.074525,0.93601,-0.343985,-0.030211,-0.160589,0.383231
315,-0.056886,0.941637,-0.331783,0.018907,-0.214357,0.42918
316,-0.039219,0.949407,-0.311582,0.124226,-0.273595,0.444776
317,-0.02377,0.959093,-0.2820809999999999,0.146603,-0.1909809999999999,0.297722
318,-0.010728,0.968169,-0.250056,0.142213,-0.144072,0.2046
319,-0.000108,0.974958,-0.222375,0.09395,-0.039793,0.093057
320,0.005374,0.980181,-0.198018,0.093609,-0.066011,0.0549059999999999
321,0.005822,0.984287,-0.176464,0.1443549999999999,-0.0871,-0.00629
322,0.003672,0.987219,-0.159308,0.1401109999999999,-0.062658,-0.009454
323,3e-05,0.989385,-0.145296,0.073532,-0.014715,-0.0574169999999999
324,-0.006878,0.991112,-0.13283,0.048534,0.05114,0.030429
325,-0.011344,0.992479,-0.121863,0.4011,0.013686,0.1205349999999999
326,-0.009123,0.993738,-0.111332,0.521849,0.139105,0.048862
327,-0.003882,0.995016,-0.099608,0.261023,0.2667489999999999,-0.096772
328,0.000529,0.995854,-0.090932,-0.068736,0.4264489999999999,-0.056392
329,0.007023,0.996142,-0.087435,-0.166249,0.303388,0.113909
330,0.014719,0.995785,-0.0904919999999999,-0.012445,0.244846,0.266196
331,0.022384,0.99458,-0.101504,0.1188359999999999,-0.048962,0.807024
332,0.029816,0.992154,-0.121392,-0.239548,0.158115,0.697442
333,0.03398,0.988289,-0.148745,-0.366453,0.356651,0.545809
334,0.03765,0.981875,-0.18574,-0.342353,0.570921,0.278345
335,0.044613,0.973285,-0.225214,-0.42976,0.417096,0.262613
336,0.048616,0.962744,-0.265999,-0.371431,0.2483,0.274956
337,0.0471,0.95181,-0.303042,-0.0739409999999999,0.070498,0.257494
338,0.038349,0.941202,-0.335653,0.18034,0.00028,0.256979
339,0.025433,0.931295,-0.363371,0.204486,0.016902,0.2731159999999999
340,0.010956,0.92141,-0.388432,0.167327,-0.025002,0.255283
341,-0.003707,0.911417,-0.411463,0.067733,-0.169702,0.29339
342,-0.015921,0.90437,-0.4264479999999999,0.013449,-0.317898,0.487712
343,-0.026664,0.900971,-0.433055,-0.10328,-0.313721,0.239085
344,-0.041117,0.896863,-0.440388,0.00236,-0.340421,0.31284
345,-0.049004,0.8954989999999999,-0.442353,-0.019492,-0.404288,0.289567
346,-0.05417,0.898482,-0.435651,-0.028288,-0.483306,0.249631
347,-0.05887,0.904383,-0.4226359999999999,-0.024291,-0.546946,0.030531
348,-0.06161,0.910868,-0.408069,0.069026,-0.423548,-0.004239
349,-0.060124,0.916185,-0.396214,0.043706,-0.348955,0.126958
350,-0.062226,0.916761,-0.394554,-0.235046,0.7067439999999999,0.224586
351,-0.064851,0.913679,-0.4012239999999999,-0.192626,0.965273,-0.061407
352,-0.067441,0.917567,-0.391813,-0.041217,0.398122,-0.4395159999999999
353,-0.073749,0.91912,-0.387006,0.051288,0.324471,-0.213061
354,-0.086944,0.909014,-0.40759,0.039077,0.583204,0.111066
355,-0.093112,0.8936290000000001,-0.439037,-0.3816199999999999,0.69417,0.8402360000000001
356,-0.093468,0.885972,-0.454217,-0.345512,0.248123,0.770257
357,-0.095308,0.890176,-0.445532,0.071779,-0.047677,0.314535
358,-0.09627,0.8980799999999999,-0.4291609999999999,0.462175,-0.139246,0.439857
359,-0.097887,0.902748,-0.418878,0.386583,0.134178,0.4255609999999999
360,-0.101822,0.905084,-0.412856,0.147522,0.340598,0.563918
361,-0.101451,0.910996,-0.399736,-0.349233,0.172149,0.6131310000000001
362,-0.09358,0.921506,-0.3769139999999999,-0.516482,0.104465,0.388007
363,-0.085134,0.930233,-0.35695,-0.31254,-0.062618,0.270158
364,-0.071086,0.935254,-0.346757,-0.067006,-0.1732,0.3416
365,-0.052482,0.938814,-0.340395,0.1110599999999999,-0.355562,0.500429
366,-0.033253,0.944417,-0.327054,0.133351,-0.4099779999999999,0.516324
367,-0.018645,0.952977,-0.302461,0.169829,-0.22826,0.472138
368,-0.009027,0.963217,-0.2685599999999999,0.135477,-0.041342,0.177984
369,-0.001289,0.971295,-0.237861,0.06887,-0.014813,0.020697
370,0.003878,0.976551,-0.2152389999999999,0.0754529999999999,-0.1361119999999999,0.06497
371,0.004206,0.981143,-0.19322,0.096564,-0.164432,0.042265
372,0.00059,0.985168,-0.171575,0.086034,-0.116378,-0.06135
373,-0.005306,0.988564,-0.1506829999999999,-0.016437,-0.030511,-0.112973
374,-0.01325,0.99077,-0.134877,0.1152089999999999,0.000822,0.09618
375,-0.018952,0.99199,-0.124857,0.2398989999999999,0.024627,0.1893099999999999
376,-0.018265,0.993284,-0.114215,0.274598,0.166902,0.1652549999999999
377,-0.014435,0.994426,-0.104404,0.081452,0.279515,-0.057324
378,-0.007613,0.995002,-0.09953,-0.050477,0.334573,0.008877
379,0.0052159999999999,0.9952,-0.097688,-0.3265659999999999,0.3702789999999999,0.095536
380,0.019343,0.994311,-0.1047119999999999,-0.035838,0.17819,0.607062
381,0.033866,0.991831,-0.1229519999999999,-0.007392,-0.02302,0.912945
382,0.045117,0.987389,-0.151725,-0.145627,-0.012337,0.902946
383,0.049846,0.980679,-0.189149,-0.395137,0.717014,0.17505
384,0.055719,0.97205,-0.228053,-0.3986449999999999,0.730999,0.148951
385,0.064474,0.961758,-0.266192,-0.467718,0.6740149999999999,0.185702
386,0.070952,0.95006,-0.303886,0.218599,0.08914,0.157493
387,0.069008,0.938697,-0.337757,0.409081,0.070367,0.1976359999999999
388,0.05727,0.928643,-0.3665199999999999,0.4918479999999999,0.10778,0.263874
389,0.040498,0.919219,-0.391652,0.092986,-0.20381,0.206975
390,0.02079,0.908978,-0.4163189999999999,0.040154,-0.348217,0.241896
391,0.002248,0.899595,-0.436712,-0.008504,-0.4601119999999999,0.346045
392,-0.0134949999999999,0.893653,-0.448551,-0.134256,-0.378882,0.28255
393,-0.033088,0.888074,-0.458503,-0.089257,-0.296948,0.316902
394,-0.048722,0.885754,-0.461584,-0.030166,-0.357556,0.278586
395,-0.0598559999999999,0.888734,-0.454493,-0.022374,-0.534547,0.221735
396,-0.067577,0.8957930000000001,-0.4392979999999999,0.01054,-0.578685,0.148679
397,-0.07106,0.904286,-0.420967,0.108581,-0.314015,0.0359569999999999
398,-0.070073,0.912023,-0.404101,0.030232,-0.093649,0.142794
399,-0.068625,0.915656,-0.396055,-0.054223,0.073495,0.182554
400,-0.0707309999999999,0.912136,-0.403733,-0.317682,0.957295,0.288056
401,-0.07272,0.910882,-0.406203,-0.392429,0.604804,-0.178056
402,-0.0805159999999999,0.915519,-0.394129,-0.175053,0.372689,-0.3879599999999999
403,-0.091666,0.913931,-0.395375,0.266105,0.149927,-0.009822
404,-0.103669,0.904381,-0.4139359999999999,-0.0325769999999999,0.533119,0.619808
405,-0.110118,0.892912,-0.436551,-0.42452,0.644487,0.875333
406,-0.1172349999999999,0.888576,-0.4434899999999999,-0.315825,0.234746,0.566278
407,-0.131634,0.890366,-0.435793,0.242641,0.03952,0.355379
408,-0.139539,0.891948,-0.43006,0.438459,-0.015087,0.4879819999999999
409,-0.140267,0.893184,-0.427249,0.343011,0.273671,0.552447
410,-0.136762,0.8962469999999999,-0.421939,0.155576,0.293618,0.680057
411,-0.130322,0.903286,-0.40876,-0.235843,0.136936,0.598396
412,-0.1211839999999999,0.911762,-0.392428,-0.440751,-0.0535309999999999,0.36548
413,-0.110384,0.918157,-0.3805219999999999,-0.436262,-0.104208,0.363249
414,-0.095324,0.922784,-0.3733329999999999,-0.234098,-0.131646,0.390957
415,-0.076934,0.927186,-0.366607,0.011367,-0.25139,0.463867
416,-0.0569419999999999,0.933955,-0.352817,0.180278,-0.251505,0.4840569999999999
417,-0.039258,0.943867,-0.327973,0.214429,-0.175481,0.41681
418,-0.024272,0.954551,-0.297045,0.206401,-0.08889,0.183336
419,-0.010198,0.963027,-0.2691989999999999,0.165471,-0.10826,0.049045
420,-0.001547,0.969446,-0.245285,0.181372,-0.099756,0.041855
421,4.7e-05,0.975133,-0.221602,0.2152239999999999,-0.089482,0.039122
422,-0.001441,0.980064,-0.198655,0.0985019999999999,-0.104378,-0.052886
423,-0.005587,0.984222,-0.17683,0.102648,-0.1085349999999999,-0.074711
424,-0.013528,0.987305,-0.1582309999999999,-0.081763,-0.017609,0.044446
425,-0.02035,0.989246,-0.144813,0.363765,0.023846,0.338905
426,-0.021282,0.990971,-0.132343,0.4273949999999999,0.068996,0.194736
427,-0.018487,0.992636,-0.119684,0.38183,0.069742,0.045374
428,-0.013912,0.993916,-0.10922,-0.2461429999999999,0.330303,0.0734529999999999
429,-0.003988,0.994679,-0.102905,-0.35882,0.365184,0.144379
430,0.008177,0.994704,-0.102414,-0.090955,0.364183,0.4818229999999999
431,0.0206599999999999,0.993481,-0.11207,0.085297,0.223483,0.871576
432,0.032414,0.99009,-0.1366119999999999,-0.319661,0.171516,0.723877
433,0.041082,0.984221,-0.172084,-0.419332,0.316316,0.405711
434,0.051037,0.9757,-0.213065,-0.397259,0.407601,0.279701
435,0.061435,0.965253,-0.25398,-0.432071,0.459888,0.308087
436,0.065733,0.954307,-0.291497,-0.303541,0.335808,0.227563
437,0.061774,0.943763,-0.324791,0.046976,0.20913,0.160072
438,0.050231,0.933395,-0.355309,0.335756,0.13443,0.233208
439,0.035661,0.923104,-0.382887,0.242476,-0.023079,0.35211
440,0.022177,0.913647,-0.405898,0.0422149999999999,-0.220043,0.233107
441,0.0036049999999999,0.903428,-0.428718,0.0020559999999999,-0.2599349999999999,0.276985
442,-0.016208,0.894547,-0.446675,-0.087216,-0.287995,0.368824
443,-0.03177,0.8886149999999999,-0.457547,-0.088378,-0.292042,0.392407
444,-0.042029,0.886282,-0.46123,-0.084405,-0.386328,0.307696
445,-0.0491949999999999,0.887217,-0.458717,-0.047226,-0.455424,0.230888
446,-0.0548559999999999,0.8917930000000001,-0.449101,-0.021255,-0.476326,0.209584
447,-0.059345,0.8988079999999999,-0.434302,0.018131,-0.442738,-0.007043
448,-0.0632559999999999,0.90605,-0.41841,0.064995,-0.327284,0.04724
449,-0.064272,0.910858,-0.407678,0.105318,-0.23349,0.104486
450,-0.066787,0.910684,-0.407661,-0.143418,0.4571439999999999,0.342613
451,-0.06903,0.905904,-0.417813,-0.321381,1.091548,0.1829339999999999
452,-0.068971,0.90772,-0.413862,-0.253981,0.681437,-0.434878
453,-0.076429,0.91049,-0.4063989999999999,0.094388,0.096452,-0.5792729999999999
454,-0.088412,0.904929,-0.4162689999999999,0.2093539999999999,-0.048087,-0.030249
455,-0.103876,0.893423,-0.437034,-0.082998,0.420251,0.602683
456,-0.113688,0.882641,-0.456086,-0.464575,0.5601229999999999,0.969758
457,-0.123654,0.8807219999999999,-0.457201,-0.382571,0.3527369999999999,0.751268
458,-0.141349,0.8844639999999999,-0.444679,0.159385,0.196713,0.330559
459,-0.1497369999999999,0.885402,-0.440043,0.4052,0.102986,0.474207
460,-0.148043,0.886194,-0.4390189999999999,0.332018,0.319037,0.503915
461,-0.142223,0.890231,-0.432731,0.234371,0.232663,0.653998
462,-0.132096,0.8975629999999999,-0.420624,0.075776,0.16396,0.653733
463,-0.1194359999999999,0.905925,-0.406238,-0.352244,0.0295759999999999,0.453342
464,-0.106138,0.913257,-0.393308,-0.335726,-0.029712,0.434079
465,-0.088863,0.920949,-0.379409,-0.262348,-0.0871929999999999,0.404525
466,-0.068124,0.929199,-0.363238,-0.203833,-0.17894,0.382845
467,-0.04802,0.938102,-0.343005,0.141297,-0.350593,0.464114
468,-0.030697,0.948321,-0.315813,0.18034,-0.29404,0.384981
469,-0.017411,0.958062,-0.286019,0.229508,-0.2334679999999999,0.35241
470,-0.00626,0.967005,-0.254668,0.13419,-0.064371,0.09677
471,-0.0002839999999999,0.974199,-0.2256739999999999,0.122644,-0.061189,0.061413
472,0.000237,0.979447,-0.201684,0.135994,-0.0579679999999999,0.054513
473,-0.0030629999999999,0.983115,-0.182941,0.090846,-0.007575,-0.031339
474,-0.0093239999999999,0.985739,-0.167998,0.002748,0.04104,-0.0882429999999999
475,-0.018344,0.987453,-0.156816,-0.0624059999999999,0.070423,-0.0547929999999999
476,-0.025308,0.988633,-0.148178,0.511652,0.039886,0.237442
477,-0.024274,0.989862,-0.1399109999999999,0.64253,0.080252,0.177768
478,-0.018455,0.991372,-0.129742,0.6371829999999999,0.1259829999999999,0.087537
479,-0.013081,0.992343,-0.1227859999999999,-0.110195,0.461209,0.052153
480,-0.0036829999999999,0.99267,-0.120765,-0.210078,0.334433,0.181404
481,0.008061,0.992349,-0.123163,-0.046406,0.127371,0.564707
482,0.019752,0.990925,-0.132926,-0.042579,-0.010532,0.887489
483,0.030268,0.988033,-0.151216,-0.339167,-0.043499,0.6489729999999999
484,0.035249,0.981961,-0.185747,-0.494889,0.26813,0.439134
485,0.041817,0.973085,-0.226605,-0.450036,0.43437,0.294903
486,0.052515,0.962818,-0.264984,-0.41395,0.5104029999999999,0.299667
487,0.064338,0.951474,-0.300919,-0.243186,0.434467,0.251755
488,0.072085,0.939846,-0.333897,0.007154,0.204975,0.228535
489,0.070495,0.928945,-0.363437,0.1515359999999999,0.1227369999999999,0.235736
490,0.060384,0.918806,-0.390055,0.245998,-0.015196,0.2207739999999999
491,0.047932,0.908992,-0.414043,0.2134199999999999,-0.0956679999999999,0.254818
492,0.036062,0.8998149999999999,-0.4347729999999999,0.044825,-0.2187079999999999,0.271504
493,0.0221449999999999,0.8923549999999999,-0.450785,-0.052464,-0.263952,0.303934
494,0.005896,0.8866280000000001,-0.462441,-0.074774,-0.223755,0.346398
495,-0.01121,0.883259,-0.468746,-0.055913,-0.336262,0.301051
496,-0.025785,0.882755,-0.46912,0.031538,-0.4690439999999999,0.3140139999999999
497,-0.036386,0.886857,-0.460603,0.076929,-0.577516,0.275057
498,-0.045159,0.8951110000000001,-0.4435439999999999,0.0835809999999999,-0.584625,0.14409
499,-0.050774,0.904723,-0.4229569999999999,0.035256,-0.429214,0.148024
500,-0.049441,0.911272,-0.408819,-0.148648,-0.099718,0.205679
501,-0.048356,0.910139,-0.411466,-0.482695,0.566851,0.44235
502,-0.050366,0.903296,-0.426044,-0.509311,1.319528,0.338901
503,-0.050463,0.905854,-0.420567,-0.162153,0.627746,-0.363734
504,-0.057161,0.912311,-0.405482,0.024156,0.422375,-0.5101979999999999
505,-0.073292,0.909014,-0.410265,0.261845,-0.317263,-0.214216
506,-0.090318,0.8949870000000001,-0.4368479999999999,0.079148,0.306017,0.461155
507,-0.094594,0.881503,-0.462601,-0.492716,0.672025,0.6934819999999999
508,-0.090904,0.876136,-0.47341,-0.60012,0.525933,1.015814
509,-0.09094,0.8858940000000001,-0.4548819999999999,-0.196734,0.296174,0.486238
510,-0.0916429999999999,0.8944110000000001,-0.437751,0.023726,0.172041,0.325523
511,-0.090697,0.8969209999999999,-0.432784,0.162489,-0.066721,0.449264
512,-0.089125,0.895315,-0.436421,0.134016,0.009363,0.6012770000000001
513,-0.080409,0.898842,-0.430828,0.027415,0.123634,0.769436
514,-0.065953,0.910106,-0.409086,-0.315578,0.270543,0.412168
515,-0.055915,0.92091,-0.385736,-0.196389,0.072895,0.230645
516,-0.042234,0.926305,-0.374392,-0.129687,-0.04186,0.234088
517,-0.02238,0.929146,-0.369027,-0.078618,-0.160744,0.288614
518,-0.00133,0.934627,-0.355618,0.1103089999999999,-0.348491,0.539013
519,0.016534,0.944631,-0.327707,0.1231599999999999,-0.294927,0.465174
520,0.028484,0.955716,-0.292896,0.1290319999999999,-0.213315,0.334889
521,0.0383709999999999,0.963908,-0.263443,0.034887,-0.057689,0.139404
522,0.044631,0.970198,-0.238154,0.039323,-0.095137,0.157999
523,0.045651,0.976272,-0.211664,0.0582769999999999,-0.1169579999999999,0.129526
524,0.044297,0.980813,-0.189831,0.062072,0.012565,-0.040897
525,0.04156,0.984098,-0.172675,-0.005473,0.029559,0.075004
526,0.037241,0.98627,-0.160859,0.165365,-0.044788,0.008592
527,0.034348,0.987934,-0.150991,0.178268,0.050091,0.040441
528,0.034946,0.989066,-0.143239,0.165616,0.134804,-0.026179
529,0.038126,0.990129,-0.134844,0.2136289999999999,0.1882309999999999,-0.016798
530,0.04318,0.990883,-0.127585,0.074984,0.372261,0.127066
531,0.050747,0.991018,-0.123697,-0.0795559999999999,0.502009,0.387811
532,0.060792,0.9905,-0.123315,-0.0294959999999999,0.240533,0.4937829999999999
533,0.070751,0.98801,-0.137195,-0.172771,0.0518,0.740207
534,0.080201,0.98357,-0.161714,-0.509812,0.157788,0.5888680000000001
535,0.083834,0.977439,-0.193849,-0.5532100000000001,0.280968,0.401719
536,0.0869279999999999,0.969084,-0.230894,-0.500442,0.4265609999999999,0.3114909999999999
537,0.091623,0.958751,-0.269063,-0.424066,0.459874,0.2282
538,0.095186,0.946916,-0.307056,-0.209169,0.311781,0.2247199999999999
539,0.0969889999999999,0.935041,-0.341006,0.012554,0.1105829999999999,0.258899
540,0.092586,0.924644,-0.369399,0.230473,0.003578,0.304457
541,0.083687,0.916204,-0.39187,0.205421,-0.034993,0.26452
542,0.069859,0.908563,-0.411859,0.1332819999999999,-0.170099,0.193322
543,0.052109,0.901053,-0.430563,0.054153,-0.238165,0.240164
544,0.032874,0.8951319999999999,-0.444582,-0.054771,-0.2609309999999999,0.305208
545,0.014656,0.8912610000000001,-0.4532489999999999,-0.0865549999999999,-0.320429,0.335268
546,0.000225,0.8896700000000001,-0.4565979999999999,-0.0608779999999999,-0.4219729999999999,0.32461
547,-0.008923,0.891143,-0.453628,-0.050586,-0.4630729999999999,0.31456
548,-0.014166,0.8965209999999999,-0.4427689999999999,-0.050287,-0.484213,0.12325
549,-0.018806,0.904399,-0.426267,-0.045647,-0.492091,0.106748
550,-0.022559,0.911765,-0.410084,-0.0514,-0.264717,0.04453
551,-0.021869,0.915669,-0.401331,-0.060758,-0.041966,0.227579
552,-0.021675,0.913641,-0.405938,-0.198205,0.14857,0.314537
553,-0.024339,0.906528,-0.421437,-0.5347430000000001,1.161129,0.35973
554,-0.0275029999999999,0.908144,-0.4177479999999999,-0.258081,0.471083,-0.4530409999999999
555,-0.034945,0.910625,-0.411746,0.0310839999999999,0.294896,-0.546643
556,-0.04155,0.901592,-0.43058,0.2266239999999999,0.204273,-0.18209
557,-0.052361,0.886431,-0.459884,-0.051673,0.527616,0.8327319999999999
558,-0.055066,0.875742,-0.4796229999999999,-0.340015,0.42658,0.7802359999999999
559,-0.059301,0.8779389999999999,-0.475081,-0.349467,0.2174289999999999,0.675017
560,-0.069939,0.884383,-0.461487,0.36274,-0.058394,0.499084
561,-0.0790049999999999,0.888437,-0.452143,0.415279,0.000205,0.553782
562,-0.084974,0.8898149999999999,-0.448334,0.287305,0.170976,0.51944
563,-0.084866,0.8931950000000001,-0.441583,-0.124165,0.163476,0.733987
564,-0.075475,0.9021,-0.4248699999999999,-0.371211,0.139511,0.5844159999999999
565,-0.064707,0.911074,-0.407126,-0.465551,0.045347,0.352133
566,-0.0510759999999999,0.91657,-0.396592,-0.3025469999999999,-0.060506,0.399309
567,-0.033456,0.920092,-0.390264,-0.232551,-0.055117,0.467489
568,-0.013932,0.924974,-0.379768,-0.011733,-0.2473159999999999,0.4286729999999999
569,0.005085,0.932001,-0.362411,0.10635,-0.234064,0.431015
570,0.0211389999999999,0.941288,-0.336933,0.148127,-0.17284,0.373936
571,0.033532,0.950809,-0.307949,0.175697,-0.079013,0.171443
572,0.043232,0.958807,-0.280736,0.106182,-0.1111359999999999,0.103795
573,0.047169,0.965741,-0.255173,0.1024279999999999,-0.118252,0.080231
574,0.045314,0.972283,-0.229359,0.1233109999999999,-0.070077,0.078037
575,0.0406,0.977951,-0.204833,0.019566,-0.024231,0.051467
576,0.033372,0.982241,-0.184612,-0.079972,-0.002017,0.03094
577,0.022481,0.985624,-0.16743,-0.131581,-0.019056,0.049357
578,0.015341,0.987986,-0.153755,0.2170659999999999,-0.024378,0.166938
579,0.016158,0.989591,-0.142969,0.378617,0.107317,0.144327
580,0.021542,0.990985,-0.132202,0.309986,0.256254,-0.058395
581,0.027763,0.991832,-0.124463,0.020318,0.409993,-0.068271
582,0.03533,0.991926,-0.121764,-0.111289,0.421191,0.22914
583,0.046084,0.991774,-0.1193819999999999,0.029188,0.221788,0.37695
584,0.0576559999999999,0.989924,-0.129295,0.065544,0.088902,0.8801040000000001
585,0.070284,0.986503,-0.147865,-0.429705,0.081948,0.754188
586,0.077947,0.981105,-0.177057,-0.608251,0.217213,0.502497
587,0.08376,0.972891,-0.215546,-0.521642,0.321268,0.365356
588,0.092912,0.962242,-0.255832,-0.459474,0.4428479999999999,0.3058659999999999
589,0.10225,0.949925,-0.295263,-0.397798,0.4241439999999999,0.232442
590,0.107985,0.936952,-0.332347,-0.077025,0.243896,0.259165
591,0.106888,0.924963,-0.364707,0.048385,0.155542,0.252021
592,0.096618,0.914039,-0.393944,0.276292,0.0593809999999999,0.268548
593,0.081672,0.903846,-0.419984,0.239693,-0.055442,0.250627
594,0.067491,0.8958440000000001,-0.439208,0.200209,-0.184937,0.365309
595,0.048424,0.890432,-0.452525,-0.046319,-0.299658,0.2300829999999999
596,0.0257589999999999,0.885343,-0.4642189999999999,-0.06444,-0.184308,0.328538
597,0.009019,0.881703,-0.4717119999999999,-0.114747,-0.2413679999999999,0.2812969999999999
598,-0.004037,0.881077,-0.47295,-0.0721649999999999,-0.387836,0.2415659999999999
599,-0.016444,0.8855799999999999,-0.4641899999999999,-0.0345959999999999,-0.540502,0.234332
600,-0.026497,0.893374,-0.448524,-0.073509,-0.571917,0.102074
601,-0.03378,0.901338,-0.431789,-0.005878,-0.409074,0.046734
602,-0.035129,0.907537,-0.418492,0.008533,-0.263021,0.178136
603,-0.034618,0.908625,-0.416167,-0.168446,0.0784049999999999,0.253661
604,-0.03696,0.901835,-0.43049,-0.3528719999999999,0.824865,0.385415
605,-0.037842,0.8998440000000001,-0.434561,-0.289108,0.530576,-0.329782
606,-0.0417,0.903524,-0.426496,-0.048419,0.257807,-0.466433
607,-0.049088,0.903557,-0.425639,0.206177,-0.04345,-0.505376
608,-0.059648,0.895015,-0.4420229999999999,0.144273,0.153889,0.47161
609,-0.066004,0.8854110000000001,-0.460092,-0.1878109999999999,0.51147,0.671564
610,-0.070161,0.8803799999999999,-0.4690439999999999,-0.598006,0.850561,0.899601
611,-0.088044,0.886848,-0.453588,0.127198,0.255257,0.371374
612,-0.101954,0.8894780000000001,-0.445453,0.433513,0.057025,0.428058
613,-0.097435,0.888842,-0.447727,0.291588,0.099698,0.487522
614,-0.087038,0.891149,-0.445276,0.152269,0.184397,0.648462
615,-0.076698,0.895813,-0.437756,-0.160622,0.080826,0.541485
616,-0.064419,0.901254,-0.428468,-0.441746,0.038932,0.531542
617,-0.0537799999999999,0.907371,-0.416868,-0.412437,0.054193,0.5204300000000001
618,-0.0420959999999999,0.914662,-0.402012,-0.211444,-0.059422,0.419758
619,-0.024377,0.922726,-0.3846739999999999,0.00567,-0.231854,0.37619
620,-0.003089,0.930554,-0.36613,0.078193,-0.2292449999999999,0.455577
621,0.017623,0.94004,-0.340597,0.1068279999999999,-0.204307,0.434363
622,0.033124,0.950433,-0.309144,0.158847,-0.126352,0.232377
623,0.042869,0.960011,-0.276642,0.073251,-0.047597,0.0775
624,0.046421,0.967791,-0.247419,0.079235,-0.05649,0.069502
625,0.045376,0.974666,-0.218992,0.165303,-0.1125289999999999,0.0771309999999999
626,0.042563,0.980026,-0.194236,0.090753,-0.14627,-0.012185
627,0.03707,0.98407,-0.173841,-0.148749,-0.077607,-0.067065
628,0.0275389999999999,0.98721,-0.156991,-0.0665559999999999,-0.094693,0.013314
629,0.021376,0.98928,-0.144414,0.274981,-0.070411,0.1110589999999999
630,0.021862,0.990891,-0.1328329999999999,0.393422,0.115417,0.0643059999999999
631,0.026436,0.992284,-0.12108,0.280785,0.225092,-0.059752
632,0.030574,0.993234,-0.111977,0.04482,0.401984,0.039819
633,0.037471,0.993645,-0.106074,-0.34817,0.4254979999999999,0.224192
634,0.046733,0.99301,-0.1083269999999999,-0.020763,0.244829,0.655355
635,0.058848,0.991143,-0.118996,-0.3782,0.220939,0.78286
636,0.071117,0.987457,-0.140926,-0.464763,0.383179,0.539668
637,0.079024,0.981467,-0.174544,-0.500105,0.457375,0.4613319999999999
638,0.088085,0.972775,-0.214335,-0.532986,0.500568,0.296427
639,0.099551,0.963849,-0.247133,-0.468722,0.476413,0.466402
640,0.102644,0.954353,-0.28047,-0.26779,0.2482219999999999,0.2616719999999999
641,0.098343,0.944283,-0.314083,0.1197049999999999,0.061439,0.2820539999999999
642,0.088387,0.935061,-0.343278,0.287757,0.044218,0.339646
643,0.074195,0.926307,-0.369381,0.176751,-0.0080629999999999,0.259732
644,0.057135,0.917127,-0.394469,0.080973,-0.185269,0.274764
645,0.041083,0.908309,-0.4162689999999999,-0.027426,-0.315718,0.307336
646,0.024257,0.901653,-0.431771,-0.0800429999999999,-0.277339,0.398094
647,0.008458,0.897559,-0.440804,-0.060659,-0.34661,0.361886
648,-0.0036729999999999,0.895767,-0.444499,-0.0295,-0.458404,0.2731889999999999
649,-0.011344,0.8975799999999999,-0.440697,-0.0246669999999999,-0.4501159999999999,0.265252
650,-0.015994,0.903648,-0.4279689999999999,-0.0221069999999999,-0.518073,0.145025
651,-0.020044,0.911324,-0.411192,-0.013983,-0.4534689999999999,-0.034349
652,-0.02124,0.917593,-0.396944,0.034484,-0.273,0.035249
653,-0.019283,0.919724,-0.392083,-0.089818,-0.0144039999999999,0.199166
654,-0.021502,0.915143,-0.402545,-0.361738,0.570788,0.2791929999999999
655,-0.026521,0.909454,-0.414948,-0.453291,1.179535,0.154313
656,-0.034847,0.91187,-0.408988,-0.004292,0.20956,-0.516686
657,-0.047069,0.911896,-0.407703,0.134944,0.1052849999999999,-0.4220239999999999
658,-0.059082,0.90075,-0.430293,0.236863,0.1024089999999999,-0.1036579999999999
659,-0.064438,0.8855790000000001,-0.459991,-0.496826,0.765834,1.08879
660,-0.07119,0.880091,-0.469431,-0.494881,0.549399,1.139689
661,-0.087129,0.883964,-0.459358,-0.337264,0.264367,0.71627
662,-0.096487,0.886861,-0.451843,0.2515159999999999,0.1071579999999999,0.487914
663,-0.095307,0.888884,-0.448102,0.203019,0.19684,0.482541
664,-0.090349,0.8926129999999999,-0.44167,0.173769,0.244426,0.526432
665,-0.079118,0.8998729999999999,-0.428907,-0.2889239999999999,0.029967,0.608213
666,-0.064844,0.908911,-0.411908,-0.4672449999999999,0.022271,0.497433
667,-0.053125,0.91768,-0.393743,-0.353155,0.018279,0.425878
668,-0.036963,0.925102,-0.377906,-0.182001,-0.10514,0.318305
669,-0.017463,0.931153,-0.364199,0.016456,-0.2942659999999999,0.4017969999999999
670,0.001456,0.937964,-0.3467159999999999,0.131555,-0.340476,0.468207
671,0.016649,0.947442,-0.319481,0.159331,-0.224709,0.375741
672,0.026775,0.957721,-0.286435,0.143086,-0.0884269999999999,0.1651119999999999
673,0.034255,0.966133,-0.255742,0.1208819999999999,-0.055427,0.048406
674,0.03748,0.972703,-0.228985,0.142848,-0.102555,0.080426
675,0.034429,0.978409,-0.203765,0.199565,-0.10965,0.059523
676,0.028479,0.982672,-0.183123,0.045602,-0.046454,0.044954
677,0.020672,0.985464,-0.168592,-0.1530119999999999,-0.05042,0.03703
678,0.011224,0.987535,-0.15696,-0.097375,-0.005342,0.05671
679,0.0065879999999999,0.989012,-0.147644,0.226658,0.118089,0.057633
680,0.008826,0.990406,-0.1378609999999999,0.257058,0.164303,-0.045992
681,0.01358,0.991714,-0.127701,0.207733,0.283051,0.002045
682,0.0203689999999999,0.992506,-0.12044,-0.116622,0.4195279999999999,0.309283
683,0.0300279999999999,0.992514,-0.1183309999999999,0.039125,0.197382,0.710616
684,0.04281,0.991367,-0.1238799999999999,-0.1027619999999999,0.037701,0.913874
685,0.056787,0.988531,-0.139892,-0.4375699999999999,0.334574,0.55783
686,0.0677919999999999,0.983318,-0.168758,-0.496518,0.408238,0.419887
687,0.077191,0.974574,-0.210326,-0.492642,0.468877,0.33264
688,0.087607,0.963822,-0.251716,-0.544425,0.494857,0.30468
689,0.095139,0.952365,-0.289723,-0.338898,0.30563,0.2452889999999999
690,0.09721,0.940355,-0.325995,-0.003231,0.091352,0.194037
691,0.0933929999999999,0.928525,-0.359319,0.314536,0.031009,0.2776389999999999
692,0.08324,0.917896,-0.387982,0.290127,0.005093,0.293744
693,0.069284,0.909178,-0.4105939999999999,0.158438,-0.065977,0.211146
694,0.0504029999999999,0.900324,-0.432283,0.065381,-0.263376,0.261781
695,0.029379,0.8907440000000001,-0.453546,0.0004669999999999,-0.248288,0.382821
696,0.008715,0.882293,-0.470612,-0.023226,-0.246307,0.444855
697,-0.011309,0.8764569999999999,-0.481339,-0.066099,-0.437096,0.374299
698,-0.030385,0.873726,-0.485461,-0.055934,-0.520988,0.379367
699,-0.045991,0.875958,-0.480182,-0.036925,-0.5585600000000001,0.341937
700,-0.058283,0.8819389999999999,-0.467738,-0.0221759999999999,-0.446835,0.12591
701,-0.06535,0.8886129999999999,-0.4539689999999999,-0.0062439999999999,-0.291598,0.146489
702,-0.064458,0.8931530000000001,-0.445101,-0.040843,-0.182857,0.188738
703,-0.063857,0.89246,-0.446575,-0.3714,0.567241,0.352719
704,-0.068044,0.885943,-0.458767,-0.4392189999999999,1.216382,0.2284199999999999
705,-0.072061,0.8865370000000001,-0.457002,-0.319769,0.85739,-0.1043839999999999
706,-0.080437,0.891144,-0.446525,0.294609,0.047592,-0.441018
707,-0.092213,0.8856350000000001,-0.455125,0.067494,0.461426,0.353425
708,-0.108321,0.872309,-0.4767979999999999,0.083602,0.474752,0.375098
709,-0.116105,0.860466,-0.496095,-0.454269,0.807243,0.912798
710,-0.1149099999999999,0.858722,-0.499385,-0.24297,0.096997,0.532237
711,-0.125221,0.8650770000000001,-0.485751,0.0345069999999999,-0.0322519999999999,0.485324
712,-0.134396,0.868676,-0.4767939999999999,0.260067,-0.038659,0.578097
713,-0.1375849999999999,0.870186,-0.473116,0.253857,0.247825,0.635943
714,-0.132692,0.874551,-0.466417,0.159761,0.180441,0.7467520000000001
715,-0.121251,0.8850049999999999,-0.449507,-0.188319,0.101064,0.577711
716,-0.109903,0.8967579999999999,-0.428648,-0.312629,-0.020583,0.318479
717,-0.100267,0.904528,-0.414447,-0.196654,-0.059787,0.286045
718,-0.08743,0.909134,-0.407215,0.035443,-0.105697,0.412128
719,-0.069694,0.915215,-0.396882,0.16497,-0.273858,0.441605
720,-0.0506519999999999,0.923729,-0.379673,0.181786,-0.305885,0.428546
721,-0.032789,0.934399,-0.354704,0.1712779999999999,-0.199902,0.314421
722,-0.018446,0.945558,-0.324917,0.132902,-0.089326,0.19244
723,-0.008561,0.954864,-0.296904,0.088807,-0.045516,0.1172769999999999
724,-0.003483,0.961917,-0.273302,0.099842,-0.0229669999999999,0.098894
725,-0.002595,0.967601,-0.252452,0.155473,-0.061549,0.077403
726,-0.0048909999999999,0.972286,-0.233721,0.125893,-0.079326,0.0619679999999999
727,-0.009741,0.976135,-0.216919,0.018743,-0.025879,0.008378
728,-0.018237,0.979236,-0.201874,0.004733,0.023801,0.069336
729,-0.027111,0.981276,-0.190657,0.1713829999999999,0.009828,0.233763
730,-0.031396,0.983288,-0.179295,0.3871699999999999,0.102207,0.135167
731,-0.029049,0.98522,-0.1687799999999999,0.3058889999999999,0.219767,0.028781
732,-0.022438,0.987125,-0.158333,0.079658,0.413037,0.116691
733,-0.013572,0.988485,-0.15067,-0.180443,0.512843,0.327184
734,-0.001454,0.988744,-0.149571,-0.074566,0.278758,0.689335
735,0.0116239999999999,0.98737,-0.157964,-0.0694549999999999,0.034648,0.938329
736,0.022782,0.983914,-0.177149,-0.375367,0.243259,0.611888
737,0.0271129999999999,0.977077,-0.2111239999999999,-0.382078,0.390171,0.463092
738,0.029254,0.967459,-0.251307,-0.334644,0.427041,0.310786
739,0.033558,0.957088,-0.287831,-0.389058,0.417714,0.284443
740,0.038263,0.945494,-0.323368,-0.2186519999999999,0.265306,0.292912
741,0.039261,0.93325,-0.357063,-0.0403139999999999,0.169671,0.274742
742,0.032729,0.92148,-0.387033,0.407564,0.088362,0.263696
743,0.019154,0.910959,-0.412043,0.353236,0.054755,0.286875
744,0.002223,0.901432,-0.432905,0.166631,-0.044529,0.282362
745,-0.016343,0.8924690000000001,-0.450805,0.022675,-0.310514,0.375533
746,-0.032239,0.8854270000000001,-0.463651,-0.114016,-0.318197,0.317808
747,-0.0520659999999999,0.878387,-0.4750979999999999,-0.088849,-0.324935,0.342026
748,-0.072345,0.8724860000000001,-0.483246,0.003101,-0.378193,0.371063
749,-0.088091,0.869886,-0.4853149999999999,0.004274,-0.471067,0.356134
750,-0.099411,0.872501,-0.478385,0.018753,-0.5290100000000001,0.29148
751,-0.1078099999999999,0.878976,-0.464512,0.076224,-0.488656,0.176532
752,-0.112288,0.886495,-0.4488979999999999,0.0273269999999999,-0.2076619999999999,0.294799
753,-0.109369,0.892375,-0.4378319999999999,-0.130194,-0.0110569999999999,0.2988099999999999
754,-0.105448,0.8924790000000001,-0.438581,-0.331655,0.296532,0.307417
755,-0.106619,0.8865569999999999,-0.450156,-0.232202,0.713007,-0.062463
756,-0.109739,0.8881540000000001,-0.446241,-0.03438,0.450652,-0.374956
757,-0.121989,0.891775,-0.4357149999999999,0.492991,0.172923,-0.449783
758,-0.133621,0.884423,-0.447138,0.462082,0.375892,0.1003059999999999
759,-0.147271,0.8682549999999999,-0.4737479999999999,0.0601279999999999,0.7203229999999999,0.598962
760,-0.151753,0.8504459999999999,-0.503691,-0.374248,0.57387,0.92195
761,-0.152612,0.848138,-0.50731,-0.402792,0.0292879999999999,0.640992
762,-0.164963,0.8581559999999999,-0.486156,0.038284,-0.081972,0.33865
763,-0.175651,0.864094,-0.471679,0.346869,0.059337,0.483992
764,-0.177884,0.8636159999999999,-0.471717,0.321743,0.142777,0.541709
765,-0.172919,0.86459,-0.471779,0.258201,0.30289,0.773125
766,-0.161321,0.8736659999999999,-0.458995,-0.251261,0.207053,0.45692
767,-0.151038,0.8859670000000001,-0.438454,-0.321466,0.143681,0.3754659999999999
768,-0.141026,0.8943479999999999,-0.424552,-0.226924,-0.033814,0.3348
769,-0.1241829999999999,0.8988799999999999,-0.42022,-0.0281,-0.22525,0.5062180000000001
770,-0.101993,0.905533,-0.4118229999999999,0.1263,-0.3220369999999999,0.511249
771,-0.079473,0.915805,-0.3936699999999999,0.20371,-0.221347,0.4822939999999999
772,-0.0619269999999999,0.928149,-0.367008,0.280113,-0.092456,0.3885989999999999
773,-0.051895,0.940135,-0.336814,0.2172849999999999,-0.05363,0.2491519999999999
774,-0.045798,0.949989,-0.3088909999999999,0.143317,-0.1021649999999999,0.2263099999999999
775,-0.043856,0.958804,-0.280644,0.1338369999999999,-0.11449,0.175083
776,-0.046441,0.966774,-0.251357,0.142769,-0.062798,0.090865
777,-0.05143,0.97232,-0.2279,0.019417,0.026368,0.110743
778,-0.056875,0.975353,-0.213169,-0.034067,0.026661,0.035236
779,-0.061411,0.977284,-0.202814,0.162272,0.011378,0.007807
780,-0.0610159999999999,0.978984,-0.19457,0.47926,0.042241,0.090612
781,-0.055161,0.980861,-0.1867049999999999,0.623657,0.168721,0.107832
782,-0.047962,0.982871,-0.1779109999999999,0.372257,0.392937,0.179558
783,-0.040916,0.984276,-0.171802,-0.1009299999999999,0.527779,0.347568
784,-0.0304279999999999,0.984737,-0.171337,-0.107252,0.327489,0.636196
785,-0.016808,0.983458,-0.180323,-0.320305,0.068803,0.758601
786,-0.0037259999999999,0.979524,-0.201267,-0.373868,0.121138,0.57587
787,0.004143,0.973021,-0.230658,-0.378166,0.2053239999999999,0.632071
788,0.0088709999999999,0.96406,-0.265518,-0.376501,0.489675,0.311218
789,0.014948,0.952056,-0.305543,-0.369409,0.536485,0.323426
790,0.021806,0.939023,-0.343148,-0.327318,0.50278,0.309289
791,0.0270149999999999,0.925259,-0.378362,0.2107929999999999,0.097385,0.365056
792,0.028885,0.913046,-0.4068239999999999,0.134674,0.115168,0.1360559999999999
793,0.017636,0.901717,-0.431957,0.258426,0.062592,0.286831
794,0.0008789999999999,0.8912110000000001,-0.45358,0.215658,-0.154059,0.287473
795,-0.018498,0.881598,-0.47163,0.193241,-0.218894,0.327495
796,-0.040399,0.87274,-0.4865029999999999,0.163186,-0.2530199999999999,0.364616
797,-0.0623639999999999,0.866157,-0.4958579999999999,-0.019118,-0.31411,0.3336719999999999
798,-0.080966,0.8610530000000001,-0.50202,-0.0154539999999999,-0.349609,0.337515
799,-0.095948,0.857966,-0.50466,0.000367,-0.382807,0.365774
800,-0.109289,0.8600469999999999,-0.498366,0.058294,-0.519379,0.262511
801,-0.122602,0.866916,-0.483133,0.071485,-0.487354,0.179377
802,-0.131102,0.875915,-0.4643029999999999,0.094847,-0.330429,0.171044
803,-0.129432,0.882652,-0.451847,0.00817,-0.006141,0.242405
804,-0.126882,0.881821,-0.454187,-0.376627,0.641602,0.312021
805,-0.1308089999999999,0.8737159999999999,-0.46851,-0.360936,0.915499,-0.018825
806,-0.131945,0.8756709999999999,-0.464525,0.050386,0.3114929999999999,-0.489775
807,-0.137439,0.880569,-0.453543,0.250369,0.021866,-0.6049899999999999
808,-0.150884,0.8730870000000001,-0.463622,0.31809,0.115347,0.261398
809,-0.164302,0.8585510000000001,-0.485683,-0.079915,0.563782,0.605205
810,-0.167759,0.8479180000000001,-0.502877,-0.30978,0.5235569999999999,0.8190850000000001
811,-0.167749,0.846816,-0.504733,-0.235907,0.4087679999999999,0.595569
812,-0.178786,0.8538979999999999,-0.48876,0.2898239999999999,0.167845,0.378835
813,-0.189856,0.8577469999999999,-0.47772,0.383368,0.082133,0.5261359999999999
814,-0.1911,0.8585709999999999,-0.4757409999999999,0.251814,0.314601,0.689105
815,-0.183035,0.86308,-0.470726,-0.0171599999999999,0.188388,0.703591
816,-0.170864,0.872761,-0.457259,-0.219792,0.1333119999999999,0.526626
817,-0.158719,0.8816700000000001,-0.444364,-0.341937,-0.009279,0.398267
818,-0.146884,0.8867430000000001,-0.438296,-0.2812929999999999,-0.01832,0.384708
819,-0.130823,0.890487,-0.435787,0.015268,-0.101592,0.5211600000000001
820,-0.109393,0.897596,-0.427021,0.155505,-0.256299,0.5253329999999999
821,-0.085071,0.909039,-0.407925,0.260562,-0.289975,0.505582
822,-0.062369,0.922644,-0.3805659999999999,0.2751369999999999,-0.168783,0.38055
823,-0.045691,0.934946,-0.3518219999999999,0.193778,-0.073145,0.262635
824,-0.036605,0.945014,-0.324963,0.138274,-0.022269,0.164455
825,-0.034315,0.953864,-0.298256,0.201185,-0.0066599999999999,0.111702
826,-0.0340829999999999,0.961594,-0.272333,0.2156469999999999,-0.040299,0.065515
827,-0.034944,0.967236,-0.251444,0.099458,-0.032574,0.034509
828,-0.038422,0.970959,-0.236121,0.034394,-0.0154539999999999,-0.0259949999999999
829,-0.044307,0.973713,-0.223406,0.169094,0.036312,0.065188
830,-0.0458019999999999,0.975934,-0.2131809999999999,0.420542,0.030673,0.179978
831,-0.041868,0.978106,-0.203828,0.4779029999999999,0.176206,0.1108109999999999
832,-0.034744,0.980554,-0.193126,0.262893,0.388084,0.0926169999999999
833,-0.025843,0.982335,-0.185313,-0.09844,0.50526,0.2124739999999999
834,-0.0152509999999999,0.982807,-0.18398,-0.161858,0.451993,0.477834
835,-0.002043,0.981828,-0.189735,0.043608,0.1342,0.9179
836,0.011495,0.978766,-0.2046339999999999,-0.364202,-0.007895,0.8134140000000001
837,0.019053,0.972748,-0.231059,-0.5268649999999999,0.162551,0.669551
838,0.019736,0.963064,-0.2685329999999999,-0.471427,0.456309,0.356439
839,0.02269,0.951144,-0.307899,-0.380737,0.507993,0.28904
840,0.0301089999999999,0.937834,-0.3457639999999999,-0.25751,0.3705,0.276748
841,0.037398,0.923573,-0.381586,-0.107162,0.283428,0.343179
842,0.038352,0.909998,-0.412826,0.34356,0.143118,0.2444909999999999
843,0.028894,0.898078,-0.438878,0.368994,0.10801,0.298695
844,0.019613,0.8884709999999999,-0.458506,0.378947,-0.015119,0.593272
845,0.006759,0.8811389999999999,-0.472802,0.078446,-0.33164,0.327737
846,-0.012412,0.8724370000000001,-0.488563,0.041663,-0.327286,0.349708
847,-0.028613,0.864408,-0.50197,0.009875,-0.302778,0.371843
848,-0.041511,0.8586159999999999,-0.51093,-0.0995419999999999,-0.38213,0.354055
849,-0.051302,0.856817,-0.5130560000000001,-0.093962,-0.4401,0.324762
850,-0.060991,0.859821,-0.506934,-0.078078,-0.4846229999999999,0.310721
851,-0.068572,0.8674200000000001,-0.4928229999999999,-0.0513159999999999,-0.42545,0.1741579999999999
852,-0.071414,0.877218,-0.4747439999999999,-0.03677,-0.344305,0.120664
853,-0.069491,0.8852639999999999,-0.4598609999999999,-0.022657,-0.236461,0.151526
854,-0.065829,0.887741,-0.455606,-0.227079,0.675064,0.328958
855,-0.06775,0.8812409999999999,-0.46778,-0.235488,0.870041,0.499381
856,-0.0686929999999999,0.8795129999999999,-0.4708859999999999,-0.2796659999999999,0.806355,0.246917
857,-0.07297,0.883174,-0.4633279999999999,0.250079,0.101247,-0.507283
858,-0.080345,0.879028,-0.469946,0.345497,-0.031677,-0.269388
859,-0.090033,0.8642610000000001,-0.4949159999999999,-0.10592,0.458539,0.601438
860,-0.090968,0.850841,-0.517483,-0.531148,0.641407,0.998959
861,-0.092524,0.8470840000000001,-0.523338,-0.4646649999999999,0.6235890000000001,0.992073
862,-0.105463,0.854152,-0.509212,0.284434,0.17397,0.44247
863,-0.119213,0.8592989999999999,-0.497382,0.283275,0.111725,0.495063
864,-0.126488,0.8627040000000001,-0.489629,0.141747,0.22154,0.546392
865,-0.130931,0.86608,-0.4824489999999999,-0.018452,0.159173,0.6245850000000001
866,-0.130488,0.873131,-0.4696909999999999,-0.26769,0.065758,0.437267
867,-0.126424,0.8834120000000001,-0.451215,-0.297557,0.05772,0.422238
868,-0.121898,0.892446,-0.434368,-0.070973,0.074641,0.318309
869,-0.1109309999999999,0.899273,-0.42308,0.123047,-0.140362,0.442
870,-0.091062,0.90689,-0.411404,0.155622,-0.283339,0.507275
871,-0.0692639999999999,0.917677,-0.391236,0.116459,-0.350126,0.5236970000000001
872,-0.052784,0.931025,-0.361109,0.1092569999999999,-0.225459,0.368357
873,-0.042809,0.943418,-0.32882,0.0380029999999999,-0.057752,0.226586
874,-0.035935,0.952565,-0.302193,0.015153,0.001246,0.214272
875,-0.031919,0.959575,-0.279624,0.058119,-0.061626,0.166465
876,-0.031292,0.965553,-0.258305,0.180004,-0.097038,0.176808
877,-0.031586,0.970827,-0.237676,0.090546,-0.05855,0.012182
878,-0.03705,0.973823,-0.2242489999999999,0.099642,0.025429,0.035299
879,-0.043595,0.976341,-0.211777,0.036134,0.04345,0.17189
880,-0.047247,0.978224,-0.2020809999999999,0.32842,0.021699,0.286355
881,-0.044287,0.979748,-0.195257,0.412451,0.166508,0.245352
882,-0.037119,0.98184,-0.186022,0.310281,0.266543,0.151614
883,-0.0287709999999999,0.983225,-0.180092,-0.189841,0.586584,0.112205
884,-0.019687,0.982844,-0.183366,-0.118924,0.403814,0.415757
885,-0.009568,0.980285,-0.1973369999999999,0.005067,0.008851,0.827968
886,3.5e-05,0.975747,-0.218886,-0.178425,-0.116875,0.946852
887,0.006631,0.969692,-0.244225,-0.4638,0.331333,0.522682
888,0.008515,0.961491,-0.274692,-0.428299,0.539684,0.381091
889,0.014761,0.950821,-0.309377,-0.281515,0.5994109999999999,0.2937059999999999
890,0.023978,0.937396,-0.347428,-0.070472,0.1749079999999999,0.32837
891,0.028192,0.923311,-0.383009,0.092154,0.055296,0.29901
892,0.0241949999999999,0.910671,-0.412417,0.218237,0.005894,0.307528
893,0.013675,0.898755,-0.438233,0.186505,0.040836,0.266678
894,0.0004,0.8863840000000001,-0.4629439999999999,0.150052,-0.0547039999999999,0.325936
895,-0.007726,0.875,-0.484056,0.106588,-0.218079,0.458314
896,-0.01368,0.86669,-0.498655,-0.013984,-0.366004,0.390088
897,-0.029191,0.860267,-0.509003,0.0029,-0.3332429999999999,0.396805
898,-0.043337,0.8557879999999999,-0.515504,0.018144,-0.335463,0.368394
899,-0.051476,0.8551209999999999,-0.515863,-0.072837,-0.4171479999999999,0.3457429999999999
900,-0.0552799999999999,0.8599,-0.5074569999999999,-0.116519,-0.4529319999999999,0.2737219999999999
901,-0.057927,0.8685719999999999,-0.4921609999999999,-0.054026,-0.310894,0.10384
902,-0.057259,0.878819,-0.473702,-0.0040659999999999,-0.125096,0.159585
903,-0.0536059999999999,0.8867079999999999,-0.459206,-0.0067269999999999,-0.023167,0.184578
904,-0.052285,0.8884700000000001,-0.4559399999999999,-0.156699,0.624225,0.326209
905,-0.053914,0.883027,-0.466209,-0.258419,0.6991109999999999,0.1593089999999999
906,-0.054521,0.884093,-0.464113,-0.02606,0.6144729999999999,-0.403028
907,-0.060714,0.885674,-0.460315,0.192688,0.574333,-0.2702
908,-0.068938,0.8736520000000001,-0.481638,0.026976,0.6900229999999999,0.466211
909,-0.073141,0.852632,-0.517363,-0.190958,0.806593,0.915403
910,-0.075075,0.8431780000000001,-0.532362,-0.223127,-0.085274,0.566771
911,-0.087365,0.8512040000000001,-0.517509,0.18792,-0.111518,0.388343
912,-0.098799,0.859993,-0.500646,0.339949,-0.150566,0.445043
913,-0.103966,0.865007,-0.4908659999999999,0.117592,0.356337,0.494314
914,-0.1097359999999999,0.867123,-0.485851,0.035029,0.4219699999999999,0.547039
915,-0.113547,0.871409,-0.477231,-0.088083,0.2314659999999999,0.653821
916,-0.1049359999999999,0.881518,-0.460337,-0.4181649999999999,0.0540289999999999,0.406427
917,-0.09593,0.89254,-0.440641,-0.207979,0.037407,0.387754
918,-0.082726,0.8999360000000001,-0.428096,-0.0367199999999999,-0.1154359999999999,0.424906
919,-0.064419,0.905015,-0.420469,0.056698,-0.346177,0.522138
920,-0.044617,0.911798,-0.408201,0.126434,-0.348047,0.586119
921,-0.027622,0.922956,-0.3839059999999999,0.091053,-0.171231,0.446971
922,-0.016298,0.936096,-0.351357,0.135042,-0.009201,0.20295
923,-0.0079709999999999,0.946444,-0.32276,0.125846,0.028272,0.115851
924,-0.0018739999999999,0.954138,-0.299349,0.135953,-0.020239,0.115405
925,-0.002144,0.960946,-0.2767139999999999,0.254036,-0.121316,0.132412
926,-0.006186,0.966731,-0.255707,0.171515,-0.070017,0.100723
927,-0.01124,0.971541,-0.236587,0.087366,-0.05165,0.078277
928,-0.017089,0.975834,-0.217826,-0.081804,-0.116123,0.119682
929,-0.020128,0.977997,-0.207626,0.221376,0.061447,0.288925
930,-0.01694,0.979637,-0.200042,0.251926,0.162804,0.3010239999999999
931,-0.0102189999999999,0.981049,-0.19347,0.0661269999999999,0.422271,0.152226
932,-0.001384,0.98149,-0.191485,-0.284611,0.5165109999999999,0.203875
933,0.008056,0.980252,-0.197567,-0.288055,0.5530579999999999,0.289882
934,0.018867,0.976563,-0.214386,0.11834,0.010528,0.925675
935,0.031682,0.970955,-0.237139,-0.240285,-0.086846,0.960817
936,0.039302,0.964431,-0.261382,-0.5051220000000001,0.090439,0.68106
937,0.040305,0.954753,-0.294644,-0.490668,0.654759,0.274579
938,0.046587,0.942485,-0.330977,-0.3443469999999999,0.661382,0.337309
939,0.0550919999999999,0.928157,-0.368082,-0.189095,0.373006,0.35827
940,0.058984,0.913921,-0.401577,0.1064359999999999,0.100758,0.314083
941,0.055539,0.901299,-0.429616,0.158541,0.1025609999999999,0.27686
942,0.045923,0.889183,-0.455236,0.126379,0.058098,0.281194
943,0.034725,0.876452,-0.480231,0.057621,-0.149111,0.297629
944,0.025236,0.8644729999999999,-0.502041,0.066134,-0.427583,0.200451
945,0.028806,0.860489,-0.50865,-0.090162,-0.42868,0.006224
946,0.012602,0.855253,-0.518054,0.0066849999999999,-0.416684,0.286136
947,0.0009699999999999,0.850511,-0.5259520000000001,0.021399,-0.339449,0.357831
948,-0.007978,0.8502700000000001,-0.5262819999999999,0.020277,-0.338033,0.355033
949,-0.015667,0.8568309999999999,-0.515355,0.004467,-0.369816,0.310704
950,-0.022382,0.867524,-0.4968869999999999,-0.003604,-0.258866,0.014862
951,-0.027122,0.877784,-0.478282,-0.008935,-0.177269,0.037013
952,-0.028156,0.8831459999999999,-0.468246,-0.01524,-0.082686,0.084854
953,-0.029142,0.8804690000000001,-0.473203,-0.400622,0.927866,0.37103
954,-0.0293079999999999,0.873865,-0.48528,-0.470524,1.145926,0.296453
955,-0.03081,0.8775649999999999,-0.4784609999999999,-0.035962,0.372114,-0.424371
956,-0.036466,0.880632,-0.47239,0.09419,0.041319,-0.224829
957,-0.045225,0.8718530000000001,-0.487671,0.021483,0.291081,0.328048
958,-0.051106,0.8578319999999999,-0.511379,-0.242763,0.4474359999999999,0.931911
959,-0.0517799999999999,0.850664,-0.52315,-0.2772449999999999,0.4096359999999999,0.945147
960,-0.058608,0.855549,-0.514389,-0.216157,0.246364,0.7153930000000001
961,-0.069006,0.860814,-0.504216,0.237554,0.2143659999999999,0.4088179999999999
962,-0.071241,0.864617,-0.49735,0.161405,0.171378,0.4125569999999999
963,-0.0716779999999999,0.8667600000000001,-0.493542,0.05024,0.15213,0.521115
964,-0.070637,0.8690950000000001,-0.489571,-0.138713,0.060608,0.625786
965,-0.062311,0.8753989999999999,-0.479363,-0.340048,0.035398,0.49128
966,-0.052674,0.884648,-0.4632699999999999,-0.291092,0.124065,0.3992739999999999
967,-0.044173,0.891891,-0.450082,-0.076509,0.0067599999999999,0.412606
968,-0.031214,0.8972979999999999,-0.4403149999999999,0.030711,-0.209584,0.493309
969,-0.0152229999999999,0.90458,-0.426025,0.09199,-0.32348,0.5802
970,0.000736,0.916155,-0.400817,0.108135,-0.289705,0.522124
971,0.012853,0.930402,-0.3663079999999999,0.048914,-0.127194,0.344259
972,0.0191199999999999,0.942974,-0.332307,0.016158,-0.009228,0.217286
973,0.02306,0.953056,-0.301903,0.02769,-0.017723,0.183816
974,0.025068,0.962079,-0.271603,0.103701,-0.053846,0.150937
975,0.024683,0.969297,-0.244638,0.103048,-0.077039,0.067102
976,0.022906,0.97495,-0.2212239999999999,0.006666,0.014903,0.01668
977,0.019003,0.978704,-0.204376,0.003656,0.056955,0.1635589999999999
978,0.0158069999999999,0.981116,-0.192753,0.084718,0.039849,0.178028
979,0.0174509999999999,0.983115,-0.182135,0.364156,0.135141,0.128974
980,0.024112,0.984831,-0.171809,0.113476,0.451708,0.104671
981,0.032497,0.985959,-0.163769,-0.134608,0.5237,0.141797
982,0.042618,0.985858,-0.162049,-0.334351,0.5643739999999999,0.2420199999999999
983,0.055938,0.98388,-0.1698309999999999,-0.024749,0.005653,0.865632
984,0.069401,0.979732,-0.187882,-0.231953,-0.049984,0.873826
985,0.0778669999999999,0.973392,-0.215495,-0.392579,0.0437899999999999,0.717143
986,0.080023,0.964658,-0.251046,-0.4901029999999999,0.3743309999999999,0.357888
987,0.082821,0.953945,-0.28831,-0.4709279999999999,0.466923,0.339076
988,0.08786,0.941555,-0.325189,-0.484039,0.516666,0.321954
989,0.092636,0.927887,-0.361162,0.0187069999999999,0.23056,0.281969
990,0.093165,0.915241,-0.39198,0.132421,0.185879,0.306607
991,0.085413,0.90395,-0.419013,0.205267,0.16421,0.345969
992,0.070382,0.893091,-0.44433,0.100226,-0.046396,0.440806
993,0.054324,0.883667,-0.464946,0.021146,-0.162918,0.330486
994,0.031444,0.8750399999999999,-0.483023,-0.0500899999999999,-0.2431579999999999,0.196692
995,0.007233,0.866552,-0.499029,-0.099137,-0.342336,0.456076
996,-0.009216,0.860193,-0.50988,-0.117051,-0.375803,0.455925
997,-0.019597,0.85769,-0.513789,-0.097118,-0.380532,0.372339
998,-0.027636,0.8616729999999999,-0.506707,-0.072035,-0.4719779999999999,0.279717
999,-0.034772,0.870259,-0.49136,-0.072528,-0.5277149999999999,0.18243
1000,-0.040524,0.8785270000000001,-0.475964,-0.016742,-0.3188809999999999,0.067487
1001,-0.040079,0.8846959999999999,-0.4644359999999999,-0.090826,-0.101112,0.144932
1002,-0.036142,0.886676,-0.460971,-0.208181,0.108136,0.258304
1003,-0.037547,0.88066,-0.472252,-0.38059,1.1794440000000002,0.413689
1004,-0.039485,0.877915,-0.477179,-0.166066,0.5494979999999999,-0.225809
1005,-0.042923,0.8825299999999999,-0.468287,-0.022964,0.344506,-0.412023
1006,-0.054304,0.8798309999999999,-0.472168,0.367368,0.209128,-0.085602
1007,-0.067152,0.865373,-0.496604,-0.101503,0.7284079999999999,0.666572
1008,-0.067736,0.847245,-0.5268609999999999,-0.304182,0.972045,0.988394
1009,-0.067644,0.8437610000000001,-0.532434,-0.283705,-0.078091,0.5336850000000001
1010,-0.075882,0.8502770000000001,-0.520831,0.247574,-0.138058,0.4276
1011,-0.072986,0.8545309999999999,-0.514242,0.34035,-0.148781,0.470145
1012,-0.0648789999999999,0.857089,-0.511061,0.139906,0.284757,0.624694
1013,-0.06181,0.859972,-0.506579,0.010265,0.364531,0.722689
1014,-0.057725,0.8674360000000001,-0.494183,-0.098097,0.2761949999999999,0.73428
1015,-0.049563,0.8799299999999999,-0.472505,-0.453168,0.167708,0.363344
1016,-0.041061,0.889551,-0.45498,-0.25293,0.0768799999999999,0.322427
1017,-0.024366,0.895172,-0.4450479999999999,-0.068545,-0.085373,0.4225109999999999
1018,-0.003953,0.901411,-0.4329399999999999,0.064912,-0.33238,0.448031
1019,0.0132039999999999,0.909569,-0.415336,0.178874,-0.313194,0.52996
1020,0.025365,0.920219,-0.390573,0.164393,-0.251746,0.4946689999999999
1021,0.033122,0.932841,-0.358752,0.135595,-0.17361,0.4233729999999999
1022,0.038307,0.944712,-0.325646,-0.034614,-0.0855809999999999,0.177285
1023,0.040474,0.954074,-0.296811,-0.036781,-0.094943,0.148449
1024,0.038238,0.962192,-0.269658,-0.009521,-0.119465,0.151265
1025,0.032736,0.968788,-0.245703,-0.202413,0.074211,-0.005579
1026,0.0257319999999999,0.973504,-0.2271989999999999,-0.19541,0.069495,-0.024083
1027,0.021183,0.976357,-0.215102,0.093029,-0.010232,0.192427
1028,0.023725,0.978524,-0.204741,0.591555,0.110648,0.177076
1029,0.031462,0.980522,-0.193849,0.5838180000000001,0.10865,0.166185
1030,0.038279,0.98222,-0.183766,0.1335049999999999,0.418064,-0.0259819999999999
1031,0.046696,0.982904,-0.178074,-0.290211,0.370963,0.251957
1032,0.057947,0.982606,-0.176404,-0.198068,0.356246,0.384778
1033,0.070352,0.981295,-0.179168,-0.087259,0.168073,0.749251
1034,0.081322,0.977123,-0.196491,-0.194985,-0.133525,0.820744
1035,0.0905909999999999,0.969691,-0.226901,-0.4573819999999999,0.230581,0.692538
1036,0.097192,0.959645,-0.263871,-0.578256,0.473171,0.452866
1037,0.108538,0.946774,-0.303035,-0.541094,0.602313,0.361476
1038,0.123339,0.931796,-0.3413739999999999,-0.612201,0.551602,0.310215
1039,0.132944,0.916633,-0.3769639999999999,-0.3013699999999999,0.329628,0.375637
1040,0.133196,0.903692,-0.406931,0.001372,0.0961549999999999,0.348032
1041,0.122118,0.8924620000000001,-0.434272,0.23274,0.070306,0.357032
1042,0.106819,0.8819049999999999,-0.459161,0.158318,-0.1190109999999999,0.312859
1043,0.094288,0.8712139999999999,-0.481757,-0.054401,-0.2834,0.27053
1044,0.080728,0.86225,-0.5000020000000001,-0.151071,-0.231513,0.368288
1045,0.06081,0.855303,-0.514542,-0.1382789999999999,-0.210696,0.421021
1046,0.043023,0.851045,-0.523323,-0.093987,-0.381456,0.37748
1047,0.029467,0.8498389999999999,-0.5262140000000001,-0.077731,-0.417054,0.356689
1048,0.017148,0.853585,-0.520667,-0.0200009999999999,-0.485726,0.292655
1049,0.006643,0.8620270000000001,-0.506815,0.020472,-0.448101,0.130945
1050,0.001978,0.870986,-0.491299,0.016928,-0.386474,-0.00539
1051,0.00077,0.8763270000000001,-0.4817109999999999,-0.030235,-0.105072,0.124152
1052,0.003008,0.874714,-0.484626,-0.3614679999999999,0.4031949999999999,0.305976
1053,0.0014939999999999,0.8653780000000001,-0.5011140000000001,-0.630843,1.419031,0.311294
1054,-0.006169,0.863099,-0.504993,-0.482188,0.7468100000000001,-0.321011
1055,-0.023947,0.869036,-0.494164,0.080512,-0.000841,-0.330268
1056,-0.037891,0.866518,-0.497701,0.239063,0.001402,-0.107356
1057,-0.052535,0.853858,-0.517844,-0.118546,0.625222,0.6610020000000001
1058,-0.056391,0.839649,-0.54019,-0.441472,0.499646,0.909026
1059,-0.054709,0.836192,-0.5456979999999999,-0.241998,0.169591,0.615247
1060,-0.064745,0.8431649999999999,-0.533738,0.259676,0.038396,0.509293
1061,-0.070783,0.8493200000000001,-0.523108,0.355145,0.098694,0.566488
1062,-0.071933,0.8519549999999999,-0.518646,0.255405,0.419377,0.640167
1063,-0.070102,0.856188,-0.511882,0.050662,0.2676219999999999,0.793559
1064,-0.06602,0.8656510000000001,-0.49627,-0.3671,0.063319,0.58645
1065,-0.0623769999999999,0.875323,-0.479493,-0.4402779999999999,-0.04555,0.461991
1066,-0.057824,0.882117,-0.467462,-0.380179,-0.0407779999999999,0.4608399999999999
1067,-0.047013,0.8886879999999999,-0.4560899999999999,-0.034499,-0.132981,0.521428
1068,-0.0279649999999999,0.8971469999999999,-0.4408399999999999,0.0290029999999999,-0.241828,0.5585
1069,-0.005206,0.908477,-0.4178949999999999,0.055346,-0.289581,0.5780350000000001
1070,0.015085,0.922685,-0.385251,0.117514,-0.1181349999999999,0.424146
1071,0.027091,0.936203,-0.350404,0.103295,-0.067795,0.311128
1072,0.034685,0.947277,-0.3185219999999999,0.04611,-0.017223,0.215556
1073,0.039861,0.956428,-0.289221,0.048411,-0.070624,0.167441
1074,0.042288,0.963573,-0.2640639999999999,0.064706,-0.063702,0.141902
1075,0.042794,0.969053,-0.2430989999999999,0.051979,-0.052244,0.080776
1076,0.04033,0.972993,-0.227265,0.01715,0.069381,0.074845
1077,0.035475,0.975709,-0.21616,0.1095599999999999,0.0964039999999999,0.087375
1078,0.034031,0.977671,-0.207348,0.247753,0.075247,0.1182059999999999
1079,0.037534,0.979478,-0.1980039999999999,0.250247,0.2033829999999999,0.042593
1080,0.042347,0.981066,-0.188962,0.133191,0.334226,0.041989
1081,0.0490339999999999,0.98186,-0.183131,-0.024208,0.457959,0.0653789999999999
1082,0.0622809999999999,0.982471,-0.175677,-0.09289,0.199978,0.562258
1083,0.072832,0.979064,-0.190052,0.003187,0.08104,0.890705
1084,0.084519,0.973803,-0.211079,-0.393311,0.063855,0.78275
1085,0.090876,0.96623,-0.241106,-0.532953,0.364199,0.518587
1086,0.094026,0.955788,-0.278603,-0.4861,0.46421,0.442285
1087,0.102592,0.943234,-0.315875,-0.557914,0.534702,0.299166
1088,0.112978,0.928963,-0.3525,-0.333773,0.33802,0.337027
1089,0.119341,0.914818,-0.385822,-0.1323869999999999,0.188896,0.352726
1090,0.116094,0.902485,-0.414771,0.318736,0.052959,0.354362
1091,0.102327,0.891703,-0.440896,0.2470989999999999,0.059729,0.298898
1092,0.08347,0.88126,-0.465196,0.179897,0.029598,0.29625
1093,0.063414,0.8705940000000001,-0.487892,-0.037947,-0.24155,0.312767
1094,0.044762,0.8608950000000001,-0.506804,-0.102563,-0.294794,0.407317
1095,0.030435,0.85314,-0.520787,-0.113427,-0.35697,0.464025
1096,0.020105,0.8475020000000001,-0.530405,-0.154825,-0.270461,0.39657
1097,0.0069689999999999,0.8444860000000001,-0.5355260000000001,-0.093349,-0.265217,0.3951449999999999
1098,-0.005104,0.8468110000000001,-0.531864,-0.077186,-0.421335,0.284443
1099,-0.0141479999999999,0.8523139999999999,-0.522834,-0.063108,-0.425617,0.170508
1100,-0.020221,0.858613,-0.51222,-0.042523,-0.338105,0.284421
1101,-0.02143,0.864092,-0.502871,-0.108788,-0.245272,0.3392969999999999
1102,-0.025292,0.864094,-0.502689,-0.365318,0.581905,0.2600739999999999
1103,-0.029599,0.858168,-0.51251,-0.281726,1.146639,0.25604
1104,-0.030632,0.8595440000000001,-0.5101359999999999,-0.283974,0.8117810000000001,-0.072429
1105,-0.039879,0.8611270000000001,-0.506818,0.241448,0.278171,-0.3067809999999999
1106,-0.052897,0.850856,-0.5227229999999999,0.293162,0.466603,0.181781
1107,-0.062402,0.833765,-0.5485770000000001,0.076822,0.567816,0.506432
1108,-0.060443,0.822234,-0.565926,-0.421063,0.281892,0.981087
1109,-0.06115,0.8262229999999999,-0.560009,0.0422899999999999,0.057398,0.548962
1110,-0.075009,0.833983,-0.546663,0.056149,0.049638,0.535616
1111,-0.084232,0.837304,-0.540205,0.297276,0.245475,0.654249
1112,-0.086826,0.83911,-0.536982,0.021213,0.331178,0.798868
1113,-0.0859559999999999,0.8465540000000001,-0.525311,0.020343,0.323734,0.787197
1114,-0.078674,0.858665,-0.506456,-0.41568,0.0277329999999999,0.461016
1115,-0.072901,0.868556,-0.490193,-0.309682,-0.024058,0.350804
1116,-0.064848,0.873502,-0.482476,-0.203478,-0.019223,0.378731
1117,-0.048967,0.8779299999999999,-0.476271,-0.114272,-0.034241,0.433287
1118,-0.027126,0.8867649999999999,-0.461416,0.164623,-0.229798,0.5639390000000001
1119,-0.0058119999999999,0.899867,-0.436116,0.187422,-0.195247,0.5062
1120,0.012282,0.913885,-0.405777,0.198854,-0.104468,0.394302
1121,0.025615,0.92572,-0.3773289999999999,0.0858039999999999,-0.049149,0.2289989999999999
1122,0.032986,0.935237,-0.352471,0.053547,-0.064784,0.194969
1123,0.037037,0.943774,-0.328496,0.054974,-0.072986,0.169392
1124,0.039688,0.950994,-0.306636,0.013519,-0.066213,0.106593
1125,0.040618,0.956581,-0.288607,-0.097808,-0.003395,0.034746
1126,0.038339,0.960922,-0.274132,0.017157,0.05011,0.200875
1127,0.0362759999999999,0.964659,-0.260974,0.0695139999999999,0.067827,0.213412
1128,0.03661,0.967718,-0.2493409999999999,0.1895099999999999,0.043741,0.209439
1129,0.0404589999999999,0.970088,-0.239339,0.281654,0.2397659999999999,0.1168109999999999
1130,0.045334,0.971985,-0.2306099999999999,0.1060789999999999,0.446167,0.311253
1131,0.05313,0.973845,-0.2208929999999999,-0.273452,0.508424,0.056449
1132,0.063591,0.972736,-0.2230059999999999,-0.100487,0.216153,0.660521
1133,0.075408,0.969679,-0.232435,-0.128081,-0.004317,0.884016
1134,0.086704,0.963764,-0.252254,-0.302403,-0.039005,0.8890040000000001
1135,0.094469,0.954773,-0.281914,-0.571657,0.353699,0.518166
1136,0.101222,0.943028,-0.316928,-0.475825,0.517238,0.360065
1137,0.11294,0.929054,-0.352273,-0.465479,0.5655140000000001,0.3694389999999999
1138,0.125836,0.913882,-0.385975,-0.2246369999999999,0.38223,0.343968
1139,0.133346,0.899859,-0.4152899999999999,0.083649,0.156828,0.310951
1140,0.128678,0.888632,-0.440192,0.2777699999999999,0.06489,0.343711
1141,0.114645,0.8788239999999999,-0.4631619999999999,0.254526,-0.022684,0.3154869999999999
1142,0.09709,0.8698879999999999,-0.483592,0.118943,-0.110214,0.2884469999999999
1143,0.076409,0.861216,-0.5024569999999999,0.0284649999999999,-0.187174,0.369996
1144,0.05506,0.854316,-0.516824,-0.07653,-0.247306,0.407647
1145,0.036779,0.849292,-0.526636,-0.146673,-0.335971,0.38392
1146,0.022616,0.845942,-0.53279,-0.184939,-0.39799,0.3781719999999999
1147,0.01025,0.846455,-0.532356,-0.14378,-0.4529,0.375236
1148,8.3e-05,0.852533,-0.522667,-0.080451,-0.502008,0.232674
1149,-0.005691,0.8622850000000001,-0.506386,-0.078385,-0.413051,0.132927
1150,-0.00419,0.871925,-0.4896149999999999,-0.13729,-0.173088,0.183066
1151,1.1e-05,0.8769049999999999,-0.4806569999999999,-0.363369,0.4564229999999999,0.423421
1152,-0.001478,0.8740620000000001,-0.485806,-0.348223,0.764183,0.548794
1153,-0.004615,0.870396,-0.492324,-0.264184,0.770595,0.168914
1154,-0.005342,0.874717,-0.484598,-0.008284,0.630013,-0.478125
1155,-0.0114,0.872818,-0.487906,-0.002226,0.6319130000000001,-0.474817
1156,-0.019785,0.855891,-0.516772,0.1642549999999999,0.601476,0.336001
1157,-0.022484,0.836067,-0.548162,-0.469246,0.242669,0.8877
1158,-0.0174789999999999,0.8290420000000001,-0.558908,-0.491295,0.1474589999999999,0.654138
1159,-0.020786,0.8366610000000001,-0.5473210000000001,-0.107708,0.042001,0.483402
1160,-0.026994,0.846141,-0.532269,0.2398539999999999,-0.049739,0.4638489999999999
1161,-0.031101,0.851988,-0.5226310000000001,0.290225,0.006182,0.4945699999999999
1162,-0.033832,0.856057,-0.515766,0.018222,0.293448,0.680423
1163,-0.03319,0.8631270000000001,-0.503888,-0.243391,0.237001,0.709867
1164,-0.025369,0.875031,-0.4833939999999999,-0.410315,0.163985,0.539195
1165,-0.0155129999999999,0.886075,-0.463275,-0.366307,0.092258,0.295703
1166,-0.0003509999999999,0.8907149999999999,-0.454555,-0.1367799999999999,-0.028791,0.356548
1167,0.020055,0.893184,-0.4492359999999999,-0.052694,-0.157726,0.458589
1168,0.0413759999999999,0.900231,-0.433434,0.095389,-0.326317,0.547661
1169,0.058345,0.911847,-0.406354,0.1365559999999999,-0.164395,0.4944119999999999
1170,0.069735,0.925044,-0.373392,0.1218549999999999,-0.1110029999999999,0.420359
1171,0.077824,0.936045,-0.343153,0.003947,-0.022883,0.178877
1172,0.081212,0.945047,-0.3166739999999999,-0.001058,-0.07409,0.202294
1173,0.078636,0.953877,-0.289699,0.017647,-0.1015669999999999,0.181224
1174,0.072912,0.961626,-0.264481,-0.026876,-0.100557,0.138596
1175,0.065602,0.967869,-0.242726,-0.1129039999999999,-0.0212289999999999,0.1034279999999999
1176,0.0566039999999999,0.972641,-0.22529,-0.014169,-0.022095,0.1570069999999999
1177,0.048684,0.976463,-0.210092,0.137519,-0.0310589999999999,0.206369
1178,0.046585,0.979341,-0.1967529999999999,0.302124,0.0932,0.195639
1179,0.050199,0.981311,-0.1857359999999999,0.263323,0.156079,0.121206
1180,0.05765,0.982394,-0.177676,-0.05646,0.463682,0.171511
1181,0.067534,0.982434,-0.173932,-0.288389,0.5705140000000001,0.424726
1182,0.081077,0.980617,-0.178344,-0.149268,0.436009,0.611663
1183,0.09719,0.976357,-0.1930589999999999,-0.3214329999999999,0.090522,0.957769
1184,0.110869,0.969643,-0.217923,-0.5383600000000001,0.363243,0.581388
1185,0.118742,0.96041,-0.252,-0.5350020000000001,0.382623,0.49376
1186,0.125197,0.948524,-0.290892,-0.623289,0.492104,0.449858
1187,0.132429,0.936036,-0.326022,-0.557371,0.449157,0.390414
1188,0.13543,0.923237,-0.359561,-0.393685,0.344128,0.394214
1189,0.136392,0.911354,-0.388359,0.01348,0.138725,0.261772
1190,0.125989,0.8991459999999999,-0.419113,0.197864,0.131219,0.336883
1191,0.110786,0.8875370000000001,-0.447212,0.20533,0.0828309999999999,0.367622
1192,0.097,0.8771680000000001,-0.470277,-0.022338,-0.139192,0.350359
1193,0.081761,0.867718,-0.490279,-0.121647,-0.270383,0.399368
1194,0.06492,0.859973,-0.5061869999999999,-0.128122,-0.260639,0.450416
1195,0.0502079999999999,0.854982,-0.516217,-0.129584,-0.389818,0.421872
1196,0.038691,0.853193,-0.520153,-0.076822,-0.444517,0.354778
1197,0.031374,0.8558,-0.516349,-0.069506,-0.4471239999999999,0.350975
1198,0.024985,0.86336,-0.5039640000000001,0.019571,-0.486559,0.088727
1199,0.01975,0.873101,-0.487133,-0.007406,-0.280862,0.079082
1200,0.018607,0.880576,-0.473533,-0.006263,-0.288337,0.065483
1201,0.018758,0.8812909999999999,-0.472196,-0.186666,0.237087,0.3541539999999999
1202,0.0185,0.874483,-0.4846979999999999,-0.5820529999999999,1.147551,0.292865
1203,0.017571,0.8712110000000001,-0.490589,-0.5595479999999999,1.004446,-0.0570179999999999
1204,0.01014,0.874969,-0.484067,-0.223901,0.436371,-0.494036
1205,-0.000658,0.870664,-0.4918729999999999,0.104097,0.329104,0.039679
1206,-0.008594,0.857454,-0.514483,-0.054791,0.453245,0.257586
1207,-0.011634,0.844775,-0.53499,-0.411584,0.5665560000000001,0.924471
1208,-0.012358,0.842205,-0.53901,-0.332445,-0.040097,0.664834
1209,-0.014828,0.845989,-0.53299,0.013943,-0.051769,0.5630189999999999
1210,-0.016373,0.849367,-0.527543,0.245362,0.079756,0.616746
1211,-0.0190639999999999,0.852303,-0.522696,0.1199549999999999,0.410209,0.6416229999999999
1212,-0.0218259999999999,0.8558049999999999,-0.516833,0.045889,0.289138,0.6833670000000001
1213,-0.017685,0.8640469999999999,-0.5030939999999999,-0.048996,0.159466,0.751965
1214,-0.00775,0.876286,-0.4817229999999999,-0.436205,-0.03188,0.373935
1215,0.004711,0.88431,-0.46687,-0.403377,-0.014254,0.392239
1216,0.022454,0.8875629999999999,-0.460131,-0.191903,-0.066869,0.503909
1217,0.041388,0.890482,-0.453126,-0.0426389999999999,-0.22529,0.554307
1218,0.059361,0.8962600000000001,-0.43953,-0.019734,-0.303167,0.5490430000000001
1219,0.075515,0.905949,-0.416591,0.002992,-0.217609,0.468242
1220,0.088172,0.918491,-0.385478,-0.009055,-0.133594,0.287456
1221,0.096847,0.930192,-0.354056,-0.0071099999999999,-0.108339,0.207892
1222,0.10407,0.939711,-0.325737,-0.030782,-0.077224,0.163582
1223,0.106866,0.948332,-0.298728,0.041679,-0.083982,0.159095
1224,0.10555,0.956388,-0.272347,0.057444,-0.075849,0.095528
1225,0.10254,0.963281,-0.248125,-0.049729,0.023535,-0.002486
1226,0.096323,0.968794,-0.228365,-0.098764,0.1175549999999999,0.168001
1227,0.089412,0.972547,-0.214825,0.074971,0.076953,0.228039
1228,0.088451,0.975341,-0.202182,0.2721449999999999,0.105195,0.222262
1229,0.091951,0.977875,-0.187871,0.050505,0.329681,0.060537
1230,0.099085,0.9813,-0.164995,0.076467,0.497659,0.0468769999999999
1231,0.108198,0.980397,-0.164638,-0.363493,0.517986,0.473537
1232,0.123525,0.978649,-0.164247,-0.131658,0.362797,0.672655
1233,0.140547,0.975131,-0.171338,0.002489,0.193372,0.8826120000000001
1234,0.156922,0.968359,-0.194025,-0.50853,0.18522,0.709543
1235,0.165214,0.959651,-0.2275199999999999,-0.646796,0.251943,0.59248
1236,0.169457,0.949117,-0.2654289999999999,-0.63015,0.314616,0.50925
1237,0.172746,0.938209,-0.299857,-0.5047010000000001,0.4889,0.277228
1238,0.174649,0.926063,-0.33451,-0.187695,0.288155,0.259895
1239,0.174195,0.913698,-0.367156,-0.187241,0.30052,0.29254
1240,0.167357,0.902792,-0.3961699999999999,0.215135,0.195459,0.298331
1241,0.152244,0.8925200000000001,-0.424527,0.197579,0.081479,0.319607
1242,0.134562,0.881461,-0.4526729999999999,0.153158,0.01127,0.339407
1243,0.118741,0.870611,-0.477421,-0.200406,-0.316183,0.404331
1244,0.103013,0.8617819999999999,-0.496704,-0.2085429999999999,-0.408855,0.4627989999999999
1245,0.090404,0.856298,-0.5085029999999999,-0.204326,-0.440526,0.4601939999999999
1246,0.076133,0.8537799999999999,-0.515031,-0.152641,-0.363851,0.366487
1247,0.064984,0.85393,-0.516309,-0.078412,-0.385515,0.342908
1248,0.058521,0.858193,-0.509975,-0.065219,-0.416817,0.298503
1249,0.056365,0.86572,-0.497339,-0.0484459999999999,-0.468167,0.109567
1250,0.056111,0.8729680000000001,-0.4845319999999999,-0.088932,-0.275129,0.021276
1251,0.0570059999999999,0.8767950000000001,-0.477467,-0.102477,0.014532,0.1696359999999999
1252,0.05957,0.874189,-0.481911,-0.416229,0.50017,0.345177
1253,0.055063,0.866733,-0.495717,-0.705835,1.266552,0.333318
1254,0.046067,0.86746,-0.4953619999999999,-0.6637890000000001,1.042162,0.006227
1255,0.03367,0.8712280000000001,-0.489716,0.04386,0.119373,-0.352096
1256,0.0193419999999999,0.866014,-0.499639,-0.056803,0.475859,0.427709
1257,0.003486,0.8527879999999999,-0.5222399999999999,-0.21186,0.697719,0.636788
1258,-0.003326,0.840248,-0.542186,-0.33548,0.464668,0.837383
1259,-0.0039049999999999,0.8388969999999999,-0.54427,-0.347246,0.07483,0.522008
1260,-0.014402,0.845125,-0.5343680000000001,-0.033282,0.1163,0.4412279999999999
1261,-0.024367,0.848274,-0.528991,0.229125,0.327187,0.580016
1262,-0.0316339999999999,0.847825,-0.529325,0.202486,0.344283,0.679044
1263,-0.032553,0.85124,-0.52376,0.015341,0.153964,0.788958
1264,-0.024759,0.862101,-0.506124,-0.328161,0.088445,0.574056
1265,-0.018046,0.874575,-0.484546,-0.398122,0.000349,0.407047
1266,-0.008679,0.8826930000000001,-0.469862,-0.374042,0.003721,0.435087
1267,0.007836,0.8880100000000001,-0.4597489999999999,-0.302316,-0.072229,0.4675
1268,0.0260889999999999,0.893808,-0.447681,-0.128171,-0.259805,0.52425
1269,0.044335,0.901526,-0.430438,-0.055886,-0.331991,0.488849
1270,0.060724,0.911517,-0.406744,0.023916,-0.2235889999999999,0.488073
1271,0.072574,0.923136,-0.3775489999999999,0.042996,-0.09759,0.352112
1272,0.081634,0.933879,-0.3481329999999999,0.020401,-0.070948,0.277302
1273,0.089002,0.942949,-0.320806,-0.020918,-0.076524,0.198278
1274,0.090811,0.951261,-0.294697,0.016321,-0.094022,0.185276
1275,0.087819,0.958677,-0.270583,0.102824,-0.064558,0.15634
1276,0.083207,0.964687,-0.24989,-0.071686,0.073537,0.076856
1277,0.0765769999999999,0.969322,-0.233537,-0.241173,0.14193,0.151521
1278,0.069374,0.972631,-0.221732,-0.160439,0.124888,0.168631
1279,0.068075,0.974847,-0.212195,0.245997,0.154822,0.161749
1280,0.072929,0.976682,-0.201893,0.135155,0.257998,0.01424
1281,0.0793529999999999,0.978551,-0.190075,0.083427,0.409846,0.040905
1282,0.08721,0.979621,-0.180898,-0.224142,0.5155109999999999,0.1797079999999999
1283,0.096759,0.977572,-0.187025,-0.081637,0.342863,0.57791
1284,0.106226,0.973978,-0.200177,0.029623,0.17594,0.7694979999999999
1285,0.114193,0.968246,-0.222369,-0.406918,0.161042,0.64371
1286,0.1160279999999999,0.960707,-0.252129,-0.449783,0.2549909999999999,0.565239
1287,0.115371,0.951031,-0.286738,-0.4677729999999999,0.352695,0.503397
1288,0.117271,0.939968,-0.320466,-0.456077,0.472813,0.384552
1289,0.120323,0.927063,-0.355058,-0.380973,0.333526,0.379228
1290,0.1194559999999999,0.913476,-0.388952,-0.225825,0.235694,0.400412
1291,0.1117339999999999,0.900526,-0.4201899999999999,0.180259,0.086656,0.356149
1292,0.098033,0.88859,-0.4480949999999999,0.089528,0.097082,0.382238
1293,0.0810169999999999,0.877495,-0.472685,0.042549,0.083763,0.390837
1294,0.06401,0.866324,-0.495357,-0.11531,-0.1240599999999999,0.337124
1295,0.047986,0.855683,-0.515264,-0.106289,-0.28743,0.417806
1296,0.033013,0.8472299999999999,-0.5301939999999999,-0.083351,-0.325181,0.451626
1297,0.015967,0.840766,-0.541158,-0.0293029999999999,-0.365973,0.435827
1298,0.00074,0.8375469999999999,-0.546359,-0.017998,-0.33892,0.432208
1299,-0.012388,0.839318,-0.543493,-0.0162229999999999,-0.383508,0.405493
1300,-0.025143,0.84511,-0.533994,-0.013706,-0.385668,0.207441
1301,-0.035635,0.852259,-0.521897,-0.008539,-0.313349,0.180024
1302,-0.038055,0.857618,-0.5128699999999999,-0.085282,-0.2201969999999999,0.216087
1303,-0.038124,0.8563569999999999,-0.514968,-0.422386,0.511425,0.228423
1304,-0.0406199999999999,0.8485450000000001,-0.527556,-0.4604789999999999,1.1947450000000002,0.33998
1305,-0.044374,0.8493290000000001,-0.525989,-0.3677809999999999,0.990942,0.207416
1306,-0.053844,0.852928,-0.519239,0.191646,0.171456,-0.31322
1307,-0.064547,0.84439,-0.531821,0.331942,0.243165,-0.015238
1308,-0.072685,0.826292,-0.558526,-0.000496,0.909105,0.6581359999999999
1309,-0.067003,0.8122590000000001,-0.579431,-0.464049,0.907391,1.188241
1310,-0.065401,0.819037,-0.569995,-0.1161329999999999,-0.023536,0.418033
1311,-0.080066,0.8302700000000001,-0.551575,0.115772,-0.11892,0.431367
1312,-0.0875539999999999,0.8340549999999999,-0.544683,0.230559,0.1041769999999999,0.527486
1313,-0.090648,0.833355,-0.545248,0.197841,0.263477,0.7569020000000001
1314,-0.090181,0.8372780000000001,-0.539284,0.143129,0.358661,0.842094
1315,-0.084713,0.850268,-0.5194810000000001,-0.174366,0.301588,0.698391
1316,-0.08117,0.864244,-0.4964739999999999,-0.362159,0.163909,0.405074
1317,-0.075545,0.873333,-0.481222,-0.272492,0.08588,0.374288
1318,-0.061133,0.8793850000000001,-0.4721609999999999,-0.051172,-0.249182,0.523446
1319,-0.040671,0.8872969999999999,-0.459393,-0.000131,-0.373594,0.5674399999999999
1320,-0.019707,0.899328,-0.436821,0.055382,-0.361852,0.576454
1321,-0.0060539999999999,0.914208,-0.4051889999999999,0.1128349999999999,-0.114434,0.479102
1322,0.00143,0.928497,-0.371325,0.063938,-0.002868,0.303698
1323,0.006808,0.939567,-0.342283,0.019055,-0.009849,0.2721389999999999
1324,0.007541,0.94904,-0.31505,0.009885,-0.101628,0.214128
1325,0.00306,0.957081,-0.289787,0.066124,-0.0845679999999999,0.153694
1326,-0.001717,0.963047,-0.269307,0.037118,-0.02779,0.146779
1327,-0.0069989999999999,0.967383,-0.253198,-0.149037,0.054376,0.1591119999999999
1328,-0.012356,0.970229,-0.241851,0.1050069999999999,0.046938,0.1554859999999999
1329,-0.011925,0.972572,-0.232271,0.331978,0.014916,0.189424
1330,-0.0040799999999999,0.974833,-0.222874,0.434561,0.156912,0.042423
1331,0.0051,0.977105,-0.212666,0.18478,0.423377,0.017949
1332,0.015281,0.978327,-0.206472,-0.033591,0.482687,0.100194
1333,0.027007,0.97833,-0.205256,-0.063583,0.312579,0.558298
1334,0.039129,0.977241,-0.2084619999999999,-0.010046,0.006859,0.8212700000000001
1335,0.050125,0.972527,-0.227304,-0.156479,-0.02401,0.915598
1336,0.059043,0.965242,-0.254579,-0.401466,0.268675,0.7279220000000001
1337,0.064889,0.954625,-0.290638,-0.492791,0.463268,0.551487
1338,0.073655,0.941365,-0.329239,-0.496064,0.551387,0.501495
1339,0.084532,0.926191,-0.3674449999999999,-0.545836,0.54143,0.374418
1340,0.091444,0.910688,-0.402837,-0.1766329999999999,0.2453789999999999,0.405629
1341,0.089994,0.896932,-0.432904,0.184801,0.040415,0.404202
1342,0.077311,0.885495,-0.458163,0.327764,0.118594,0.417987
1343,0.056122,0.8750459999999999,-0.480767,0.2369389999999999,0.118881,0.376382
1344,0.032174,0.8636020000000001,-0.5031399999999999,0.086325,-0.076737,0.333462
1345,0.009558,0.852189,-0.523141,-0.037772,-0.23726,0.410332
1346,-0.010964,0.8421129999999999,-0.539183,-0.057975,-0.319195,0.481627
1347,-0.0238759999999999,0.8350350000000001,-0.549672,-0.095356,-0.413954,0.474828
1348,-0.035258,0.8321879999999999,-0.553365,-0.110098,-0.350773,0.399038
1349,-0.048475,0.835349,-0.5475720000000001,-0.031343,-0.435783,0.379725
1350,-0.060047,0.8424729999999999,-0.535375,-0.0012779999999999,-0.524861,0.305639
1351,-0.068064,0.8507290000000001,-0.521173,0.029124,-0.340841,0.27305
1352,-0.068021,0.858274,-0.508656,-0.0284449999999999,-0.213438,0.278859
1353,-0.065449,0.85992,-0.506207,-0.120098,-0.021465,0.287991
1354,-0.066126,0.8525280000000001,-0.518476,-0.439047,1.203716,0.507566
1355,-0.067093,0.851751,-0.519626,-0.050003,0.597437,-0.380001
1356,-0.077,0.8568180000000001,-0.50983,0.193226,0.383508,-0.413967
1357,-0.090264,0.853938,-0.512479,0.391915,-0.067836,-0.188921
1358,-0.1050799999999999,0.8406440000000001,-0.531289,-0.0282819999999999,0.529366,0.680276
1359,-0.105495,0.8241040000000001,-0.5565220000000001,-0.027866,0.545906,0.705509
1360,-0.101092,0.8184680000000001,-0.565583,-0.666501,0.7391340000000001,1.090745
1361,-0.105011,0.829565,-0.548441,0.043441,0.003595,0.473444
1362,-0.107246,0.839224,-0.533099,0.225181,-0.1363589999999999,0.472628
1363,-0.109903,0.8415379999999999,-0.5288930000000001,0.208078,0.2050159999999999,0.676064
1364,-0.114649,0.8406899999999999,-0.529234,0.129236,0.294564,0.731916
1365,-0.115907,0.8446450000000001,-0.522622,0.068544,0.213842,0.804757
1366,-0.107325,0.8565280000000001,-0.504811,-0.439565,0.232477,0.458256
1367,-0.095205,0.86872,-0.486059,-0.263285,0.136742,0.438101
1368,-0.079064,0.8758940000000001,-0.4759739999999999,-0.150687,0.047721,0.442863
1369,-0.059342,0.879447,-0.4722739999999999,0.151505,-0.304435,0.630249
1370,-0.038796,0.8844270000000001,-0.465054,0.134041,-0.297742,0.672817
1371,-0.020529,0.8953969999999999,-0.444785,0.110968,-0.247967,0.6525340000000001
1372,-0.007456,0.911461,-0.411308,0.0200289999999999,-0.0017469999999999,0.234825
1373,0.002344,0.92559,-0.378508,-0.0064329999999999,0.006936,0.157363
1374,0.009838,0.935235,-0.353877,-0.016811,-0.025323,0.146037
1375,0.011578,0.944365,-0.328681,0.0603519999999999,-0.184599,0.215018
1376,0.008814,0.953593,-0.300953,0.0557919999999999,-0.224177,0.088825
1377,0.005266,0.961463,-0.274864,0.02104,-0.1895369999999999,0.012398
1378,0.001548,0.967388,-0.253273,0.1007769999999999,0.031376,0.209556
1379,0.00059,0.97113,-0.238527,0.35909,0.146775,0.385866
1380,0.004318,0.974512,-0.224267,0.402954,0.190618,0.360177
1381,0.009669,0.976629,-0.214686,-0.013377,0.351373,0.04568
1382,0.016375,0.977787,-0.2089329999999999,-0.137271,0.324673,0.074427
1383,0.027799,0.978102,-0.206234,-0.32591,0.300218,0.192135
1384,0.03954,0.977319,-0.208021,-0.016896,0.130134,0.5857220000000001
1385,0.05237,0.973574,-0.2222599999999999,0.168196,0.035703,0.979584
1386,0.066324,0.967178,-0.245267,-0.127985,0.114868,0.934262
1387,0.077222,0.956846,-0.280129,-0.401212,0.538806,0.6638109999999999
1388,0.088321,0.942653,-0.32186,-0.448627,0.642475,0.4984949999999999
1389,0.101659,0.926911,-0.361236,-0.519979,0.540954,0.4890739999999999
1390,0.109799,0.911143,-0.397182,-0.38342,0.347143,0.4011949999999999
1391,0.110937,0.897589,-0.4266359999999999,-0.001363,0.110392,0.352631
1392,0.102264,0.885601,-0.453038,0.263397,0.096119,0.3376659999999999
1393,0.084176,0.8747010000000001,-0.477288,0.247718,0.134286,0.342568
1394,0.062557,0.862931,-0.5014270000000001,0.100513,0.0827779999999999,0.338081
1395,0.041157,0.850359,-0.524583,-0.035023,-0.094622,0.411821
1396,0.019753,0.8397479999999999,-0.54261,-0.071496,-0.298382,0.485862
1397,-4e-06,0.83237,-0.554213,-0.020428,-0.3798559999999999,0.5318890000000001
1398,-0.0138229999999999,0.828478,-0.559844,-0.028734,-0.363802,0.452377
1399,-0.027833,0.8292209999999999,-0.558221,-0.045562,-0.376294,0.421792
1400,-0.043691,0.8353389999999999,-0.5479890000000001,0.004705,-0.540585,0.268677
1401,-0.057685,0.8435959999999999,-0.533864,0.029456,-0.485472,0.21111
1402,-0.064041,0.851301,-0.5207470000000001,-0.011887,-0.171751,0.28863
1403,-0.062895,0.855175,-0.514502,-0.083589,-0.0358389999999999,0.288595
1404,-0.063173,0.8514790000000001,-0.520563,-0.385298,0.498939,0.477258
1405,-0.0633809999999999,0.843777,-0.53293,-0.413303,1.261523,0.493059
1406,-0.063326,0.8476,-0.526836,0.059969,0.465968,-0.410175
1407,-0.07459,0.852662,-0.517103,0.278463,0.274733,-0.440478
1408,-0.090671,0.846778,-0.524154,0.42525,0.125222,0.122375
1409,-0.10772,0.833933,-0.541243,0.019509,0.600637,0.626158
1410,-0.11481,0.819427,-0.561561,-0.141492,0.707398,0.8180310000000001
1411,-0.113419,0.815793,-0.5671069999999999,-0.575638,0.477222,1.028259
1412,-0.1172849999999999,0.825672,-0.551817,-0.078195,0.247692,0.453657
1413,-0.124547,0.8345360000000001,-0.536684,0.162221,0.01576,0.433596
1414,-0.126815,0.8364,-0.5332399999999999,0.2311389999999999,0.080744,0.639517
1415,-0.128288,0.8375870000000001,-0.5310199999999999,0.22683,0.1433549999999999,0.708006
1416,-0.122928,0.844115,-0.521871,0.160892,0.1776589999999999,0.854299
1417,-0.114731,0.8562549999999999,-0.503642,-0.346512,0.187248,0.411281
1418,-0.107239,0.868368,-0.484177,-0.3266139999999999,0.156595,0.330719
1419,-0.094163,0.8761549999999999,-0.472733,-0.2470239999999999,0.079076,0.308838
1420,-0.071552,0.881425,-0.466863,0.015003,-0.201799,0.5260670000000001
1421,-0.047067,0.889388,-0.454713,0.109414,-0.37625,0.589967
1422,-0.027305,0.901449,-0.432013,0.159461,-0.313299,0.554815
1423,-0.016146,0.915989,-0.400865,0.145098,-0.1339,0.406511
1424,-0.009761,0.929257,-0.369291,0.098369,-0.024105,0.23538
1425,-0.004459,0.939362,-0.342882,0.036044,-0.019638,0.225847
1426,-0.002975,0.948169,-0.317733,0.047149,-0.062778,0.239532
1427,-0.00509,0.955571,-0.294698,0.077402,-0.0597269999999999,0.129567
1428,-0.009101,0.960834,-0.276951,0.036048,0.040417,0.1030619999999999
1429,-0.014725,0.964275,-0.264471,0.0703429999999999,0.1113329999999999,0.166464
1430,-0.0189389999999999,0.96697,-0.254161,0.271106,0.075053,0.1893109999999999
1431,-0.017884,0.969408,-0.244776,0.5282600000000001,0.084563,0.262171
1432,-0.011229,0.971676,-0.2360199999999999,0.422896,0.186863,0.145474
1433,-0.003005,0.973593,-0.228239,0.103972,0.449457,0.0993179999999999
1434,0.007992,0.974762,-0.223072,-0.386318,0.404419,0.168079
1435,0.020507,0.973513,-0.227681,-0.122878,0.277998,0.561864
1436,0.031991,0.970326,-0.239648,0.001945,-0.048085,0.951821
1437,0.044793,0.964552,-0.260036,-0.166711,-0.03308,1.026714
1438,0.05476,0.955848,-0.288692,-0.596965,0.363106,0.700771
1439,0.064082,0.942312,-0.328527,-0.419627,0.668986,0.362646
1440,0.083033,0.925575,-0.369331,-0.4385779999999999,0.685722,0.403449
1441,0.1045369999999999,0.907317,-0.407232,-0.552429,0.5387430000000001,0.406896
1442,0.1156349999999999,0.8914,-0.438206,0.012844,0.086612,0.406987
1443,0.10767,0.878634,-0.465188,0.251323,0.065747,0.445229
1444,0.088304,0.8668889999999999,-0.490609,0.410475,0.118676,0.3748559999999999
1445,0.066441,0.8539389999999999,-0.5161060000000001,0.112773,-0.07304,0.346215
1446,0.043398,0.8410110000000001,-0.5392680000000001,0.06883,-0.204139,0.416831
1447,0.018629,0.8321200000000001,-0.554275,-0.065001,-0.255811,0.503387
1448,-0.004665,0.8265879999999999,-0.5627810000000001,-0.067753,-0.378148,0.533057
1449,-0.018615,0.8246389999999999,-0.565347,-0.06598,-0.37716,0.48446
1450,-0.031382,0.8273719999999999,-0.56077,-0.04418,-0.343715,0.41276
1451,-0.043858,0.836327,-0.546467,0.100285,-0.454186,0.3009679999999999
1452,-0.052324,0.8485010000000001,-0.526594,0.085588,-0.4887899999999999,0.1894809999999999
1453,-0.058319,0.858701,-0.5091399999999999,0.016464,-0.2208679999999999,0.175843
1454,-0.061709,0.8635510000000001,-0.500463,-0.117933,0.142995,0.332815
1455,-0.064537,0.8602209999999999,-0.505813,-0.296531,0.4192899999999999,0.456054
1456,-0.068216,0.8529690000000001,-0.5174770000000001,-0.503134,1.258756,0.264227
1457,-0.0724809999999999,0.8565,-0.5110239999999999,-0.167265,0.525748,-0.336999
1458,-0.086891,0.86192,-0.499536,0.0101549999999999,0.4026369999999999,-0.375373
1459,-0.103177,0.8526299999999999,-0.5122180000000001,0.120236,0.499588,0.266201
1460,-0.115489,0.833835,-0.53979,-0.075886,0.532391,0.7813220000000001
1461,-0.118167,0.818616,-0.5620470000000001,-0.394406,0.174502,0.920918
1462,-0.120314,0.8207399999999999,-0.558483,-0.194475,0.087494,0.581951
1463,-0.127321,0.827937,-0.5461699999999999,0.233507,0.02068,0.4926109999999999
1464,-0.131064,0.8299719999999999,-0.542181,0.28945,0.369369,0.612875
1465,-0.132578,0.828959,-0.543362,0.207697,0.511572,0.741345
1466,-0.133547,0.8326459999999999,-0.537454,0.093264,0.233363,0.835672
1467,-0.127572,0.8444530000000001,-0.520207,-0.23339,0.085142,0.661931
1468,-0.117158,0.857292,-0.501313,-0.368086,-0.010582,0.417435
1469,-0.101464,0.865642,-0.490264,-0.317497,-0.007091,0.485504
1470,-0.080397,0.870707,-0.485176,-0.1542069999999999,-0.0539809999999999,0.515755
1471,-0.057288,0.876698,-0.477608,0.004889,-0.229131,0.599388
1472,-0.034349,0.885758,-0.4628649999999999,0.047686,-0.3154909999999999,0.63712
1473,-0.0156199999999999,0.899495,-0.436641,0.137278,-0.199986,0.60258
1474,-0.0016179999999999,0.915587,-0.402105,0.141221,-0.051008,0.350103
1475,0.0117299999999999,0.928853,-0.370249,0.065708,-0.0590409999999999,0.217218
1476,0.022193,0.939074,-0.34298,0.055246,-0.069262,0.18995
1477,0.025667,0.948666,-0.315217,0.096373,-0.128293,0.231782
1478,0.025162,0.957446,-0.287491,0.015518,0.015561,0.0510399999999999
1479,0.024107,0.964236,-0.263919,0.0165729999999999,0.008771,0.027469
1480,0.022142,0.968355,-0.2485659999999999,0.161039,0.07907,0.336289
1481,0.021659,0.971041,-0.2378989999999999,0.4111869999999999,0.072248,0.335311
1482,0.025766,0.973709,-0.226303,0.40708,0.0695809999999999,0.323715
1483,0.03107,0.975851,-0.21618,0.0180479999999999,0.389719,0.147668
1484,0.040437,0.978174,-0.203778,-0.4396069999999999,0.451559,0.163327
1485,0.051902,0.977348,-0.2051369999999999,-0.332206,0.478584,0.383589
1486,0.067675,0.974975,-0.211726,0.1797609999999999,0.204407,0.989955
1487,0.084712,0.969977,-0.227933,-0.314357,0.060083,0.93469
1488,0.097494,0.961698,-0.25616,-0.441092,0.1520109999999999,0.752071
1489,0.1059099999999999,0.949947,-0.29389,-0.619521,0.254338,0.6109979999999999
1490,0.115197,0.935862,-0.332985,-0.614617,0.489385,0.486245
1491,0.122442,0.921217,-0.369264,-0.5787100000000001,0.528048,0.42627
1492,0.1254839999999999,0.906242,-0.403692,-0.276683,0.436684,0.365042
1493,0.125241,0.892057,-0.434209,0.193042,0.220217,0.3628139999999999
1494,0.117763,0.8781260000000001,-0.463699,0.277959,0.221682,0.368026
1495,0.103725,0.863933,-0.4928,0.225758,0.20165,0.392596
1496,0.090429,0.849656,-0.519518,-0.074819,-0.127365,0.419146
1497,0.077177,0.837824,-0.54045,-0.161375,-0.202799,0.4561449999999999
1498,0.063574,0.8291229999999999,-0.555431,-0.211035,-0.344642,0.4554399999999999
1499,0.050726,0.824378,-0.563755,-0.172521,-0.372596,0.437534
1500,0.039421,0.824108,-0.565052,-0.1446609999999999,-0.379589,0.4113189999999999
1501,0.02825,0.8292700000000001,-0.558126,0.007776,-0.4577489999999999,0.398321
1502,0.018233,0.839354,-0.543271,0.019883,-0.527632,0.335477
1503,0.0072629999999999,0.847635,-0.530522,-0.014694,-0.46676,0.136479
1504,7.000000000000001e-06,0.852549,-0.5226390000000001,-0.069602,0.064672,0.154627
1505,-0.001058,0.8539540000000001,-0.520338,-0.153971,0.345097,0.326047
1506,-0.003524,0.8478479999999999,-0.5302180000000001,-0.194291,0.774405,0.373068
1507,-0.00598,0.842269,-0.5390159999999999,-0.474763,1.084718,0.059157
1508,-0.015528,0.839199,-0.5435939999999999,-0.340093,0.954807,-0.1046599999999999
1509,-0.031508,0.824943,-0.56433,-0.194048,1.048028,0.171981
1510,-0.039322,0.804114,-0.593167,-0.121445,0.538705,1.081692
1511,-0.032665,0.7932020000000001,-0.608075,-0.4447979999999999,-0.452504,0.277463
1512,-0.0281279999999999,0.798813,-0.600915,-0.260889,-0.681793,0.331186
1513,-0.02293,0.807218,-0.589801,-0.005344,-0.370435,0.46976
1514,-0.02475,0.8119850000000001,-0.583146,0.26593,0.3599969999999999,0.635545
1515,-0.029523,0.815221,-0.57839,0.251004,0.713863,0.6865140000000001
1516,-0.030396,0.8249860000000001,-0.5643279999999999,-0.006148,0.4272729999999999,0.8285950000000001
1517,-0.02473,0.8437899999999999,-0.536096,-0.324102,0.087744,0.4964989999999999
1518,-0.019002,0.859943,-0.510027,-0.35586,0.027493,0.332826
1519,-0.005735,0.868158,-0.496246,-0.203203,-0.0584809999999999,0.401748
1520,0.013753,0.8733270000000001,-0.486931,-0.078236,-0.144445,0.5371630000000001
1521,0.030973,0.8799899999999999,-0.47397,-0.095457,-0.151108,0.5242020000000001
1522,0.0452889999999999,0.8889530000000001,-0.455742,-0.001802,-0.237006,0.5164569999999999
1523,0.055913,0.899749,-0.432799,0.000392,-0.09436,0.46913
1524,0.062164,0.911412,-0.40676,-0.005859,-0.106022,0.443091
1525,0.067907,0.921429,-0.382551,-0.043905,-0.093792,0.27548
1526,0.073974,0.930209,-0.359482,-0.067717,-0.201724,0.248047
1527,0.075919,0.938851,-0.335832,-0.055701,-0.2071309999999999,0.221833
1528,0.072876,0.946262,-0.315062,0.001877,-0.1029549999999999,0.180968
1529,0.068601,0.952337,-0.29721,-0.114454,0.054575,0.145752
1530,0.062842,0.957682,-0.280861,-0.168906,0.109106,0.1652
1531,0.057856,0.961648,-0.2680909999999999,0.09902,0.062782,0.27273
1532,0.059749,0.964493,-0.257233,0.40801,0.102676,0.25856
1533,0.06526,0.967343,-0.2448969999999999,0.264528,0.145252,0.148477
1534,0.070669,0.96995,-0.232784,0.005838,0.4466449999999999,0.10165
1535,0.080965,0.970874,-0.225462,-0.272662,0.436688,0.438063
1536,0.096676,0.97015,-0.2223659999999999,-0.26289,0.40549,0.5524899999999999
1537,0.112928,0.967299,-0.227078,-0.124372,0.1940319999999999,0.797024
1538,0.126655,0.960771,-0.246705,-0.370398,0.021804,0.7598729999999999
1539,0.134181,0.951715,-0.276078,-0.4291029999999999,0.093496,0.7635810000000001
1540,0.137932,0.940651,-0.310059,-0.515541,0.296699,0.6226970000000001
1541,0.141892,0.927858,-0.344866,-0.584,0.6164229999999999,0.372241
1542,0.148923,0.912132,-0.381872,-0.611677,0.589715,0.335714
1543,0.154899,0.89569,-0.4168159999999999,-0.2948989999999999,0.2716989999999999,0.335318
1544,0.155549,0.880642,-0.447508,-0.139467,0.188374,0.326781
1545,0.148784,0.8672489999999999,-0.475112,0.16135,0.079848,0.384262
1546,0.136491,0.855511,-0.499461,0.176574,-0.026349,0.3700199999999999
1547,0.121331,0.8444729999999999,-0.521666,0.042274,-0.175848,0.355727
1548,0.104486,0.8346959999999999,-0.540701,9.7e-05,-0.218912,0.387304
1549,0.092686,0.828425,-0.55237,-0.1889539999999999,-0.339152,0.402788
1550,0.07637,0.8251059999999999,-0.5597850000000001,-0.213317,-0.3327969999999999,0.364793
1551,0.0593519999999999,0.824536,-0.562681,-0.085582,-0.369595,0.402784
1552,0.047437,0.82863,-0.557775,-0.02641,-0.457781,0.363012
1553,0.038712,0.836942,-0.545913,0.002823,-0.489011,0.221373
1554,0.031573,0.8460610000000001,-0.532142,0.0041329999999999,-0.343177,0.030662
1555,0.028392,0.851957,-0.522834,-0.024638,-0.111646,0.122596
1556,0.029837,0.851209,-0.5239699999999999,-0.266761,0.242465,0.331999
1557,0.023794,0.840949,-0.5405840000000001,-0.579168,0.964715,0.468104
1558,0.016626,0.836259,-0.548075,-0.690271,0.987624,0.027995
1559,0.0057659999999999,0.8416020000000001,-0.5400590000000001,-0.295714,0.45573,-0.297831
1560,-0.009205,0.835198,-0.5498649999999999,0.014469,0.701209,0.1011649999999999
1561,-0.025171,0.811978,-0.5831390000000001,-0.116674,0.730564,1.182154
1562,-0.02918,0.795673,-0.605017,-0.344539,-0.2696119999999999,0.775397
1563,-0.032822,0.797365,-0.602598,-0.292679,-0.27994,0.682127
1564,-0.044959,0.8032229999999999,-0.593974,0.141822,0.013672,0.573176
1565,-0.053559,0.8053710000000001,-0.59034,0.168351,0.580874,0.615487
1566,-0.053433,0.8052189999999999,-0.5905590000000001,0.178464,0.5067470000000001,0.70175
1567,-0.043254,0.81345,-0.580017,-0.214482,0.2248949999999999,0.706177
1568,-0.0276949999999999,0.828907,-0.5586939999999999,-0.267761,0.088223,0.469736
1569,-0.014537,0.838867,-0.544135,-0.26177,0.030105,0.524939
1570,0.002546,0.845309,-0.5342640000000001,-0.228986,-0.056628,0.507897
1571,0.017831,0.85288,-0.521795,-0.120782,-0.223012,0.544058
1572,0.030345,0.862503,-0.5051329999999999,-0.076976,-0.296188,0.555258
1573,0.0418399999999999,0.8762969999999999,-0.479942,0.085738,-0.278396,0.566002
1574,0.0565639999999999,0.893272,-0.4459329999999999,0.068787,-0.0995549999999999,0.422206
1575,0.073088,0.908336,-0.411793,0.052263,-0.11462,0.3880659999999999
1576,0.086814,0.919645,-0.383022,-0.046912,-0.063444,0.293697
1577,0.0942799999999999,0.929374,-0.35688,-0.0527759999999999,-0.018974,0.154228
1578,0.095521,0.937062,-0.335825,-0.016572,0.006053,0.093454
1579,0.09609,0.942832,-0.3190949999999999,-0.0727889999999999,0.0765,0.030292
1580,0.094341,0.9476,-0.30519,-0.148525,0.05301,0.163802
1581,0.090014,0.951464,-0.29428,0.011335,0.001127,0.1524039999999999
1582,0.090935,0.954886,-0.2826849999999999,0.334556,0.10917,0.257523
1583,0.095922,0.958209,-0.269483,0.195262,0.277936,-0.002932
1584,0.099487,0.961036,-0.257872,0.070099,0.3171469999999999,-0.051637
1585,0.1052039999999999,0.962727,-0.249148,-0.201578,0.323268,0.336535
1586,0.110867,0.964152,-0.241051,-0.168469,0.26209,0.377052
1587,0.1176339999999999,0.961987,-0.2464329999999999,-0.131413,0.130329,0.7858310000000001
1588,0.126531,0.956722,-0.262028,-0.609487,0.317875,0.703388
1589,0.1315599999999999,0.948784,-0.287209,-0.622236,0.441277,0.605049
1590,0.136133,0.937301,-0.320816,-0.632501,0.525239,0.503067
1591,0.14609,0.92322,-0.355402,-0.505404,0.639997,0.446283
1592,0.155222,0.908081,-0.388953,-0.411264,0.487793,0.404853
1593,0.16039,0.892431,-0.421701,-0.240758,0.252696,0.396432
1594,0.159318,0.878028,-0.4513029999999999,0.0211319999999999,0.162743,0.348352
1595,0.150457,0.864785,-0.479063,0.13087,0.131889,0.4245279999999999
1596,0.140368,0.8531350000000001,-0.502442,0.0064819999999999,0.0905909999999999,0.373902
1597,0.125878,0.841571,-0.525265,-0.0274589999999999,-0.062046,0.3877219999999999
1598,0.107993,0.830557,-0.5463560000000001,-0.041892,-0.217306,0.4844199999999999
1599,0.089012,0.82258,-0.561632,-0.080178,-0.30224,0.518358
1600,0.070264,0.8187939999999999,-0.569764,-0.105924,-0.4447399999999999,0.506364
1601,0.053646,0.8207129999999999,-0.568809,-0.145169,-0.481785,0.4374619999999999
1602,0.037895,0.8287610000000001,-0.5583100000000001,-0.095588,-0.536525,0.378943
1603,0.024087,0.840201,-0.541732,-0.074914,-0.4772399999999999,0.228851
1604,0.013512,0.850242,-0.526209,-0.04313,-0.3123849999999999,0.1207829999999999
1605,0.009398,0.855549,-0.517628,-0.07379,-0.121342,0.214344
1606,0.005905,0.854706,-0.519069,-0.299743,0.311813,0.4133409999999999
1607,0.00137,0.845274,-0.5343220000000001,-0.4249229999999999,1.175355,0.481329
1608,-2e-06,0.8434879999999999,-0.53714,-0.411771,0.7563350000000001,-0.201813
1609,-0.009285,0.8439969999999999,-0.536259,-0.134788,0.549557,-0.327022
1610,-0.025571,0.8281120000000001,-0.559971,0.015271,1.194577,0.8834270000000001
1611,-0.033405,0.800851,-0.597925,-0.151608,1.167686,1.454935
1612,-0.032732,0.78969,-0.612626,-0.5338109999999999,-0.031161,0.6219180000000001
1613,-0.045687,0.79662,-0.602745,0.0423459999999999,-0.499882,0.393883
1614,-0.055461,0.80357,-0.592615,0.211696,-0.2670099999999999,0.47793
1615,-0.059889,0.804956,-0.590298,0.238386,0.689856,0.760495
1616,-0.065561,0.807191,-0.586631,0.196817,0.59059,0.920891
1617,-0.064468,0.819092,-0.57002,-0.045761,0.402328,0.919935
1618,-0.058615,0.8379780000000001,-0.542539,-0.490854,0.193089,0.547437
1619,-0.05147,0.8522860000000001,-0.520529,-0.372633,-0.003882,0.4680539999999999
1620,-0.034883,0.861041,-0.507329,-0.307325,-0.077395,0.495992
1621,-0.0149819999999999,0.8686379999999999,-0.49521,-0.1484089999999999,-0.228212,0.576662
1622,0.003828,0.8780600000000001,-0.478525,0.028338,-0.352776,0.614862
1623,0.01992,0.889639,-0.456218,0.060082,-0.297003,0.611796
1624,0.030747,0.903607,-0.427245,0.086532,-0.063596,0.531996
1625,0.0390379999999999,0.916131,-0.398959,0.074823,0.061286,0.267383
1626,0.046653,0.925291,-0.376361,0.049569,-0.02545,0.2240329999999999
1627,0.05036,0.933356,-0.355386,0.071863,-0.160223,0.175363
1628,0.049011,0.940813,-0.335344,0.074692,-0.1067829999999999,0.078966
1629,0.045961,0.947597,-0.316123,0.016234,-0.060924,-0.009439
1630,0.042005,0.953525,-0.298349,-0.151898,0.01788,0.1452119999999999
1631,0.040693,0.957756,-0.284663,0.351458,-0.042687,0.459391
1632,0.0469,0.960788,-0.273262,0.486593,0.077557,0.370216
1633,0.0542389999999999,0.963573,-0.26186,0.210928,0.47292,0.107471
1634,0.063016,0.964551,-0.256233,0.054583,0.568591,0.144783
1635,0.075428,0.963421,-0.257132,-0.402317,0.532749,0.362464
1636,0.088976,0.959899,-0.265825,-0.179033,0.0519419999999999,1.0615709999999998
1637,0.101421,0.953362,-0.284254,-0.4167899999999999,0.1881779999999999,0.8762030000000001
1638,0.107357,0.942681,-0.315936,-0.488262,0.352333,0.689501
1639,0.112048,0.928631,-0.353663,-0.462344,0.521641,0.479213
1640,0.120466,0.913694,-0.388123,-0.5238010000000001,0.6257189999999999,0.454575
1641,0.127613,0.8975540000000001,-0.42202,-0.513035,0.571974,0.49276
1642,0.132338,0.881092,-0.4540399999999999,-0.155593,0.21925,0.394104
1643,0.1282299999999999,0.865339,-0.484496,0.079687,0.161029,0.353576
1644,0.116226,0.851116,-0.511941,0.178559,0.139988,0.402673
1645,0.100878,0.838993,-0.534701,0.081342,0.058544,0.405093
1646,0.08067,0.8283870000000001,-0.5543100000000001,-0.065152,-0.103182,0.430134
1647,0.0558179999999999,0.820277,-0.569229,-0.096086,-0.2187909999999999,0.4992979999999999
1648,0.033161,0.814394,-0.579357,-0.1094089999999999,-0.300478,0.489544
1649,0.016633,0.81088,-0.584969,-0.130967,-0.393385,0.460549
1650,0.005266,0.810717,-0.585407,-0.092699,-0.396792,0.430759
1651,-0.0040659999999999,0.814998,-0.579443,-0.0266199999999999,-0.46461,0.408941
1652,-0.014412,0.8240190000000001,-0.566371,-0.020622,-0.505232,0.267757
1653,-0.024717,0.833901,-0.551353,-0.005785,-0.316552,0.132789
1654,-0.028482,0.8387379999999999,-0.543782,-0.067344,-0.019371,0.232915
1655,-0.031479,0.835347,-0.548813,-0.274093,0.4447279999999999,0.402481
1656,-0.038959,0.825607,-0.562891,-0.37579,1.223419,0.534556
1657,-0.042254,0.8279690000000001,-0.559172,-0.4782079999999999,0.80019,0.032302
1658,-0.053887,0.831123,-0.5534640000000001,-0.0382459999999999,0.8240129999999999,-0.002368
1659,-0.072296,0.8128890000000001,-0.577907,-0.063034,1.017021,0.353832
1660,-0.079632,0.783273,-0.6165510000000001,-0.294804,1.030433,1.221028
1661,-0.07121,0.773626,-0.6296229999999999,-0.200427,-0.540746,0.349777
1662,-0.070905,0.7826390000000001,-0.6184189999999999,-0.028002,-0.4581449999999999,0.447429
1663,-0.067914,0.790729,-0.6083810000000001,0.295682,-0.296192,0.5946020000000001
1664,-0.065637,0.795495,-0.6023890000000001,0.366921,0.6528390000000001,0.739748
1665,-0.0612049999999999,0.7980689999999999,-0.5994430000000001,0.303957,0.754391,0.79883
1666,-0.054028,0.810301,-0.583511,-0.035877,0.420992,0.863556
1667,-0.0480769999999999,0.830407,-0.555072,-0.394337,0.052269,0.359439
1668,-0.039905,0.842354,-0.5374369999999999,-0.324337,-0.013099,0.3462139999999999
1669,-0.021416,0.8476809999999999,-0.530065,-0.23954,-0.049372,0.449712
1670,0.000371,0.853101,-0.521737,-0.018376,-0.250898,0.6634760000000001
1671,0.02339,0.86315,-0.504397,-0.007292,-0.270239,0.653246
1672,0.040319,0.877662,-0.47757,0.1140849999999999,-0.080849,0.551956
1673,0.0525429999999999,0.8935120000000001,-0.445943,0.114159,-0.011096,0.451909
1674,0.063194,0.90728,-0.4157369999999999,0.0971149999999999,-0.025979,0.309689
1675,0.070995,0.918993,-0.387815,0.033879,-0.099596,0.308698
1676,0.072672,0.92993,-0.360468,0.011572,-0.0800309999999999,0.261912
1677,0.068718,0.9395,-0.335567,0.006401,-0.034089,0.2080489999999999
1678,0.06364,0.94684,-0.315326,-0.079082,0.0632,0.0994289999999999
1679,0.057621,0.952395,-0.299349,-0.09795,0.085462,0.174425
1680,0.05069,0.956405,-0.287586,-0.097763,0.0833899999999999,0.243946
1681,0.046645,0.959518,-0.277734,0.293153,0.0391699999999999,0.458688
1682,0.048048,0.962232,-0.26793,0.231448,0.12839,0.191392
1683,0.051022,0.964708,-0.258304,0.040225,0.230483,0.0482519999999999
1684,0.057324,0.965899,-0.252463,-0.29025,0.398053,0.182776
1685,0.068391,0.965722,-0.250378,-0.2229469999999999,0.369346,0.383907
1686,0.080813,0.963745,-0.254266,-0.054919,0.356217,0.588052
1687,0.093712,0.958814,-0.268104,-0.112526,0.037341,1.109687
1688,0.1023,0.950298,-0.294032,-0.459905,0.312474,0.755382
1689,0.105255,0.937738,-0.330992,-0.532593,0.377478,0.696669
1690,0.111148,0.922909,-0.36861,-0.553714,0.512165,0.480304
1691,0.118405,0.908246,-0.4013199999999999,-0.562817,0.480518,0.4280229999999999
1692,0.123769,0.892575,-0.433567,-0.483129,0.42786,0.411167
1693,0.124965,0.876949,-0.4640399999999999,0.01743,0.175007,0.35433
1694,0.119478,0.8616450000000001,-0.493237,0.222304,0.164173,0.410885
1695,0.1118089999999999,0.848418,-0.517375,0.232979,0.051134,0.4870859999999999
1696,0.100879,0.837095,-0.537668,-0.1261789999999999,-0.0078409999999999,0.284524
1697,0.08041,0.8241200000000001,-0.560671,-0.082684,-0.127327,0.40433
1698,0.0613509999999999,0.81309,-0.578889,-0.084117,-0.162318,0.533341
1699,0.044519,0.8064100000000001,-0.589672,-0.094843,-0.3214849999999999,0.546719
1700,0.030929,0.804991,-0.5924729999999999,-0.081573,-0.425658,0.47588
1701,0.018631,0.809354,-0.587019,-0.073899,-0.511578,0.432005
1702,0.007169,0.818609,-0.574299,-0.037519,-0.470083,0.330845
1703,-0.00404,0.8287700000000001,-0.559567,-0.024403,-0.300267,0.198956
1704,-0.010425,0.8363360000000001,-0.5481090000000001,-0.037412,-0.189272,0.260358
1705,-0.010733,0.8383290000000001,-0.54505,-0.1451049999999999,0.131764,0.3114679999999999
1706,-0.0141639999999999,0.832169,-0.5543319999999999,-0.557125,1.0462790000000002,0.580379
1707,-0.016217,0.824903,-0.565034,-0.49303,1.154757,0.414613
1708,-0.018252,0.8292579999999999,-0.5585600000000001,-0.163618,0.463009,-0.283145
1709,-0.0299839999999999,0.8300290000000001,-0.556905,0.299668,0.108127,-0.137065
1710,-0.043892,0.815832,-0.576613,0.274437,0.264872,0.1117079999999999
1711,-0.058859,0.7967569999999999,-0.60142,0.03295,0.6984670000000001,0.585307
1712,-0.058369,0.780172,-0.62283,-0.395625,0.49496,1.077862
1713,-0.0533159999999999,0.7824939999999999,-0.6203649999999999,-0.331785,0.108971,0.907612
1714,-0.059276,0.794949,-0.603767,-0.084904,0.069309,0.530784
1715,-0.070234,0.801369,-0.594026,0.167722,0.235893,0.559815
1716,-0.081997,0.80103,-0.592975,0.140178,0.328807,0.776584
1717,-0.084675,0.80387,-0.5887399999999999,-0.070751,0.310617,0.937541
1718,-0.076798,0.818901,-0.568765,-0.254302,0.282783,0.765252
1719,-0.072325,0.8339620000000001,-0.5470520000000001,-0.324998,0.117118,0.403223
1720,-0.063064,0.8411,-0.537181,-0.188416,0.052821,0.452754
1721,-0.046702,0.845981,-0.531155,-0.035985,-0.06322,0.559567
1722,-0.027238,0.853575,-0.5202479999999999,0.074571,-0.257002,0.640259
1723,-0.007525,0.865283,-0.501216,0.104494,-0.253436,0.622111
1724,0.006987,0.8803270000000001,-0.474304,0.08574,-0.2174849999999999,0.579285
1725,0.0145979999999999,0.8960739999999999,-0.443652,0.0185889999999999,-0.051042,0.344561
1726,0.019551,0.908862,-0.416624,-0.024342,-0.0355399999999999,0.266264
