,gravity.x,gravity.y,gravity.z,userAcceleration.x,userAcceleration.y,userAcceleration.z
0,0.101175,0.96338,-0.2483199999999999,-1.452646,0.487609,0.243056
1,0.065461,0.974882,-0.212886,-1.252442,0.5197470000000001,0.3164929999999999
2,0.024312,0.986261,-0.163394,-0.32668,0.27915,0.1889829999999999
3,-0.026226,0.990744,-0.133189,0.384259,0.75976,-0.1104779999999999
4,-0.082138,0.989254,-0.1209529999999999,0.926346,1.338398,-0.502491
5,-0.140382,0.984984,-0.100496,0.883257,0.771135,-0.207335
6,-0.216585,0.973118,-0.078308,-0.137007,0.375332,0.413238
7,-0.290968,0.954766,-0.061311,-0.516405,0.4016639999999999,-0.1077559999999999
8,-0.354007,0.934321,-0.041526,-0.046781,0.47933,-0.229104
9,-0.408124,0.912663,-0.021947,0.275464,0.292629,-0.079082
10,-0.4532479999999999,0.8913840000000001,0.000666,0.567994,0.144031,-0.116342
11,-0.4914239999999999,0.87023,0.034663,0.568481,-0.2103179999999999,-0.160868
12,-0.520654,0.850626,0.0731769999999999,0.611291,-0.42251,-0.190106
13,-0.539138,0.8351069999999999,0.109214,0.693709,-0.532235,-0.278785
14,-0.5459689999999999,0.826192,0.139016,0.7639560000000001,-0.5667770000000001,-0.3425829999999999
15,-0.543223,0.823744,0.162341,0.795313,-0.611571,-0.379214
16,-0.534421,0.8258629999999999,0.179845,0.883252,-0.7061430000000001,-0.360112
17,-0.522262,0.8313729999999999,0.189897,0.98967,-0.7074560000000001,-0.266741
18,-0.5120359999999999,0.839534,0.181661,1.038251,-0.641933,-0.20168
19,-0.499197,0.8529129999999999,0.152777,0.960928,-0.472222,-0.0070409999999999
20,-0.480372,0.8685889999999999,0.121637,0.418925,-0.104597,0.329123
21,-0.442785,0.887495,0.127651,0.276479,0.1963369999999999,0.8950389999999999
22,-0.417187,0.8904139999999999,0.181983,-2.981663,2.133878,1.254236
23,-0.448133,0.880915,0.152201,-1.101885,0.533605,0.269659
24,-0.476139,0.873675,0.099921,0.069065,-0.254214,0.0909669999999999
25,-0.502492,0.8618319999999999,0.0689,0.4838,-0.3237,-0.175514
26,-0.498332,0.866569,0.026907,0.680186,-0.122718,-0.625829
27,-0.456308,0.889803,-0.00581,0.749581,0.719831,-1.341862
28,-0.429569,0.902953,0.012077,-0.236798,0.8667459999999999,0.922615
29,-0.448642,0.893241,0.028993,0.687716,0.007546,0.376586
30,-0.451281,0.8923540000000001,0.00697,1.273532,-0.067968,-0.976071
31,-0.4273689999999999,0.903451,-0.0336399999999999,1.442292,-0.62951,-0.574179
32,-0.378833,0.921247,-0.088258,1.482593,-0.6883520000000001,-0.381179
33,-0.327953,0.937076,-0.119726,0.144878,0.108395,-0.197687
34,-0.297826,0.945091,-0.134548,-0.596583,0.603753,0.202328
35,-0.272541,0.947542,-0.166989,-0.93977,0.3917219999999999,0.120511
36,-0.2458929999999999,0.947676,-0.203584,-0.782763,-0.0720809999999999,0.12079
37,-0.208312,0.949964,-0.232755,0.264678,-0.464582,-0.314654
38,-0.170286,0.951219,-0.257264,0.401685,-0.451769,-0.180556
39,-0.137503,0.949732,-0.281251,0.30158,-0.4250279999999999,0.018174
40,-0.103067,0.947363,-0.303117,0.067514,0.090387,0.358933
41,-0.069013,0.946941,-0.313911,-0.049395,0.384251,0.464134
42,-0.0355689999999999,0.946509,-0.320712,-0.170364,0.188684,0.395282
43,-0.001629,0.942712,-0.333604,-0.411702,-0.263406,0.233705
44,0.027967,0.93789,-0.345802,-0.512174,0.024054,0.291573
45,0.059559,0.933542,-0.353486,-0.594899,0.270544,0.5470430000000001
46,0.0936559999999999,0.93139,-0.351769,-0.501875,0.229957,0.5946739999999999
47,0.1191079999999999,0.932164,-0.341882,-0.669859,0.302272,0.455636
48,0.139244,0.935476,-0.324802,-0.8963700000000001,0.312617,0.174915
49,0.147168,0.939978,-0.307868,-1.096494,0.209817,0.2397369999999999
50,0.14322,0.945989,-0.2908489999999999,-1.222704,0.2927349999999999,0.383073
51,0.122642,0.956116,-0.266084,-1.178138,0.534713,0.292939
52,0.0863559999999999,0.968147,-0.2350199999999999,-0.80619,0.321267,0.403965
53,0.045216,0.981127,-0.188003,-0.2215619999999999,0.328993,0.389679
54,-0.004979,0.989115,-0.147064,0.641698,0.994162,-0.228424
55,-0.06759,0.988854,-0.132664,1.057702,1.443351,-0.718242
56,-0.1330339999999999,0.98479,-0.1117619999999999,1.045128,1.254132,-0.36509
57,-0.213555,0.973407,-0.082902,-0.085274,0.737545,0.339692
58,-0.297573,0.953014,-0.056698,-0.323963,0.4652449999999999,-0.002521
59,-0.365247,0.930584,-0.024681,0.284024,0.6284529999999999,-0.129845
60,-0.42003,0.907504,0.003435,0.542467,0.271345,-0.0424509999999999
61,-0.46406,0.8851610000000001,0.033734,0.61622,-0.07936,-0.19267
62,-0.499727,0.8634860000000001,0.068303,0.5637979999999999,-0.436835,-0.1985819999999999
63,-0.528261,0.84283,0.102851,0.640536,-0.5658979999999999,-0.235938
64,-0.547186,0.826092,0.1347549999999999,0.710607,-0.598126,-0.299261
65,-0.556388,0.815299,0.160378,0.774878,-0.656622,-0.339378
66,-0.557178,0.811268,0.177192,0.833591,-0.737797,-0.398491
67,-0.550114,0.81379,0.187407,0.87125,-0.7623979999999999,-0.433012
68,-0.53887,0.820779,0.189582,1.076971,-0.712976,-0.337363
69,-0.52693,0.8319139999999999,0.173967,1.000898,-0.642872,-0.2381309999999999
70,-0.510173,0.8491200000000001,0.136815,0.903972,-0.592238,-0.140401
71,-0.480384,0.8702290000000001,0.1092349999999999,0.309668,0.6018319999999999,1.443209
72,-0.415338,0.897357,0.149149,-1.47782,2.427427,2.849569
73,-0.4241819999999999,0.8890879999999999,0.172022,-2.416394,2.321819,1.043112
74,-0.458679,0.880238,0.12163,-0.619095,0.16125,0.148573
75,-0.486585,0.869088,0.089004,0.246396,-0.509408,0.157883
76,-0.5094029999999999,0.8583129999999999,0.0617,0.7380260000000001,-0.370917,-0.287225
77,-0.4915739999999999,0.8706389999999999,0.018497,0.981091,0.4478729999999999,-1.210803
78,-0.444582,0.895689,-0.0093879999999999,0.680651,1.583498,-0.574657
79,-0.4329979999999999,0.901395,-0.000839,0.029555,1.19881,-0.036912
80,-0.450349,0.892754,0.0132729999999999,0.685563,0.432838,0.434924
81,-0.438163,0.8987709999999999,-0.014952,1.05387,0.333834,-0.569292
82,-0.411881,0.910227,-0.0429019999999999,1.095947,-0.139002,-0.744833
83,-0.362693,0.928256,-0.082429,1.214698,-0.7995939999999999,-0.328017
84,-0.31149,0.943817,-0.1103799999999999,0.7461369999999999,-0.539077,-0.276736
85,-0.284487,0.950751,-0.123045,0.181811,-0.150076,-0.215715
86,-0.264557,0.951836,-0.154978,-0.931412,0.640541,0.145899
87,-0.241265,0.951894,-0.188915,-0.799171,0.237696,0.192989
88,-0.207496,0.953405,-0.219005,0.129799,-0.43157,-0.1075329999999999
89,-0.166381,0.954506,-0.2474599999999999,0.249557,-0.353813,-0.306388
90,-0.1285079999999999,0.953426,-0.272881,0.177168,-0.289623,-0.261894
91,-0.096171,0.950032,-0.296969,0.077464,-0.11118,0.17174
92,-0.063509,0.947618,-0.313029,0.0777149999999999,0.256774,0.6796369999999999
93,-0.028376,0.945246,-0.325123,0.029322,0.119772,0.6543770000000001
94,0.002055,0.940935,-0.338581,-0.40356,-0.366869,0.456409
95,0.025655,0.93772,-0.346444,-0.534292,0.020746,0.357904
96,0.052124,0.935031,-0.3507119999999999,-0.495392,0.265912,0.301716
97,0.083271,0.935248,-0.34406,-0.3129159999999999,0.462991,0.41956
98,0.1121369999999999,0.938327,-0.32706,-0.599091,0.408536,0.486774
99,0.132866,0.942489,-0.306693,-0.890099,0.289978,0.122946
100,0.1373579999999999,0.947082,-0.290117,-1.150831,0.207474,0.038713
101,0.12599,0.953069,-0.275294,-1.427763,0.3134409999999999,0.176615
102,0.099199,0.962052,-0.254195,-1.470872,0.4327689999999999,0.129378
103,0.064214,0.973114,-0.221194,-0.80132,0.319397,0.5106069999999999
104,0.02318,0.984909,-0.171516,-0.071489,0.3063659999999999,0.5769270000000001
105,-0.033024,0.989306,-0.142067,0.417546,0.501707,0.259315
106,-0.098489,0.985933,-0.135037,1.100381,1.324384,-0.636737
107,-0.159973,0.980668,-0.112687,0.583175,0.757323,-0.008193
108,-0.2376619999999999,0.96772,-0.083874,-0.461923,0.523918,0.401363
109,-0.317155,0.946353,-0.061882,-0.469268,0.434888,0.106896
110,-0.3841469999999999,0.92263,-0.034414,0.188606,0.542122,-0.039774
111,-0.440399,0.897755,-0.009181,0.481888,0.207393,-0.103353
112,-0.485572,0.874001,0.018521,0.606452,-0.095757,-0.1155819999999999
113,-0.520988,0.852137,0.049336,0.590187,-0.423548,-0.13094
114,-0.548237,0.8323149999999999,0.081777,0.6526069999999999,-0.5234770000000001,-0.213338
115,-0.566254,0.816232,0.11455,0.689392,-0.5407350000000001,-0.314013
116,-0.573294,0.806423,0.144969,0.730047,-0.53854,-0.381755
117,-0.570855,0.803537,0.168682,0.7842640000000001,-0.643777,-0.403729
118,-0.560563,0.80745,0.183833,0.911713,-0.6738890000000001,-0.413722
119,-0.546041,0.816472,0.187651,1.178578,-0.5537770000000001,-0.287352
120,-0.532103,0.8294809999999999,0.169787,1.162261,-0.467649,-0.215136
121,-0.513601,0.848203,0.1294789999999999,1.051458,-0.444547,-0.164101
122,-0.483897,0.8701479999999999,0.093194,0.40858,0.020797,0.239921
123,-0.4284659999999999,0.897216,0.106867,0.344222,0.381135,0.723226
124,-0.420017,0.8960790000000001,0.143622,-3.126446,2.488534,1.339334
125,-0.461535,0.88175,0.097483,-0.4446699999999999,-0.200506,0.165884
126,-0.490262,0.8700040000000001,0.052315,-0.007312,-0.478356,0.110192
127,-0.5110399999999999,0.8592629999999999,0.022501,0.566673,-0.507609,0.010442
128,-0.496106,0.86795,-0.023265,1.08241,0.291169,-0.509618
129,-0.445993,0.892962,-0.060909,0.867426,0.8149850000000001,-1.5645639999999998
130,-0.419914,0.906055,-0.052312,0.43531,1.615506,-0.6071270000000001
131,-0.443345,0.895816,-0.030962,-0.0410149999999999,-0.154865,1.140199
132,-0.44208,0.895642,-0.048884,0.7039979999999999,0.175403,0.320506
133,-0.410491,0.907538,-0.088723,1.213363,-0.147391,-0.686392
134,-0.355389,0.925269,-0.132572,1.683972,-0.778129,-0.3443719999999999
135,-0.290238,0.943366,-0.160698,1.266571,-0.585501,-0.220238
136,-0.258278,0.951284,-0.168377,0.102898,0.253184,0.0889549999999999
137,-0.233392,0.95076,-0.203923,-0.728232,1.022599,0.426594
138,-0.2079869999999999,0.947954,-0.24109,-0.947363,0.178923,-0.0204
139,-0.169845,0.950082,-0.26172,-0.189042,-0.512612,-0.300155
140,-0.127967,0.948705,-0.289109,0.229957,-0.492208,-0.355575
141,-0.0887039999999999,0.943236,-0.32006,0.113392,-0.646864,-0.065621
142,-0.054991,0.939362,-0.338489,-0.164217,-0.111024,0.391605
143,-0.032173,0.936661,-0.348756,-0.2786949999999999,0.522644,0.608186
144,-0.006278,0.933629,-0.358186,-0.350915,0.295069,0.465592
145,0.026792,0.930318,-0.365775,-0.276273,-0.1161089999999999,0.295462
146,0.0600799999999999,0.928308,-0.366926,-0.361929,0.028616,0.166471
147,0.093454,0.925756,-0.36639,-0.505609,0.18194,0.354855
148,0.123969,0.923201,-0.363775,-0.603049,0.337068,0.549596
149,0.148189,0.923149,-0.3547349999999999,-0.6999770000000001,0.201958,0.326491
150,0.162294,0.92529,-0.342782,-0.814318,0.18642,0.258004
151,0.166028,0.929452,-0.329474,-1.126462,0.341376,0.368415
152,0.164795,0.936222,-0.31037,-1.184082,0.3790239999999999,0.486243
153,0.15081,0.948757,-0.2776969999999999,-1.113152,0.719547,0.5450619999999999
154,0.122217,0.963972,-0.236265,-0.58883,0.152254,0.3593119999999999
155,0.0878169999999999,0.979108,-0.1834,-0.32503,0.123004,0.119115
156,0.038361,0.988688,-0.144998,-0.0395509999999999,0.379217,-0.074774
157,-0.029498,0.99083,-0.131856,0.839527,1.318191,-0.5996199999999999
158,-0.104518,0.988416,-0.110041,0.405315,0.944643,-0.013112
159,-0.1925349999999999,0.977688,-0.083996,-0.600525,0.57822,0.293774
160,-0.272414,0.96056,-0.05582,-0.199541,0.52998,-0.087094
161,-0.336202,0.9415,-0.02335,0.404852,0.622159,-0.173793
162,-0.388128,0.921601,0.002973,0.634008,0.199722,-0.087675
163,-0.431076,0.901797,0.0305959999999999,0.632096,-0.111574,-0.169985
164,-0.46774,0.881552,0.063915,0.51112,-0.419943,-0.143932
165,-0.497393,0.86213,0.0966009999999999,0.5398729999999999,-0.547296,-0.241071
166,-0.5170140000000001,0.8465020000000001,0.1270069999999999,0.609849,-0.613607,-0.348366
167,-0.52622,0.836169,0.154643,0.675512,-0.6456930000000001,-0.379893
168,-0.526031,0.8319,0.176732,0.7516010000000001,-0.69129,-0.4450119999999999
169,-0.517717,0.8341649999999999,0.190101,0.937151,-0.778714,-0.51583
170,-0.505616,0.8421059999999999,0.187642,1.110124,-0.685719,-0.45905
171,-0.49148,0.855417,0.163432,1.062723,-0.561929,-0.36677
172,-0.469757,0.8739809999999999,0.124442,0.647003,-0.37453,-0.075018
173,-0.435644,0.894648,0.099094,0.334555,0.070898,0.447384
174,-0.378967,0.913351,0.1489069999999999,0.319855,0.787165,1.341877
175,-0.4135439999999999,0.8962459999999999,0.160391,-2.271026,2.2425330000000003,1.249735
176,-0.457997,0.8824690000000001,0.107178,-0.081844,-0.3564219999999999,0.079147
177,-0.489146,0.8692049999999999,0.072246,0.266398,-0.5438109999999999,-0.0020859999999999
178,-0.5018,0.863894,0.043403,0.7989189999999999,-0.342883,-0.175804
179,-0.4698699999999999,0.882697,-0.008281,1.03704,0.225153,-1.092275
180,-0.424447,0.904999,-0.028647,0.809182,0.910628,-1.348077
181,-0.419525,0.907582,-0.017131,-0.257233,1.340572,0.015803
182,-0.437568,0.899157,-0.007084,0.293785,-0.0783259999999999,0.6774939999999999
183,-0.431486,0.901585,-0.031043,0.904417,-0.1227619999999999,-0.212915
184,-0.401331,0.913579,-0.065622,1.134943,-0.337468,-0.7248899999999999
185,-0.342808,0.932282,-0.115471,1.343968,-0.6716,-0.375587
186,-0.290724,0.946654,-0.139015,0.890867,-0.311629,-0.294823
187,-0.265909,0.951279,-0.156079,0.372598,0.149994,-0.207538
188,-0.246223,0.950022,-0.19192,-0.705926,1.074209,0.445796
189,-0.219476,0.949873,-0.222648,-0.7669739999999999,0.040865,0.16613
190,-0.177522,0.952253,-0.248394,-0.052199,-0.395933,-0.040287
191,-0.1350569999999999,0.953033,-0.2710849999999999,0.367417,-0.4086,-0.212069
192,-0.0957929999999999,0.952468,-0.2891849999999999,0.398451,-0.5520930000000001,0.127777
193,-0.058385,0.952057,-0.300297,0.129857,-0.054688,0.464954
194,-0.027088,0.952105,-0.304568,-0.253613,0.115552,0.274355
195,-0.000794,0.950339,-0.311217,-0.42723,0.128076,0.133788
196,0.018013,0.944617,-0.32768,-0.6985239999999999,0.01188,0.024213
197,0.043166,0.939095,-0.340937,-0.545515,0.006233,0.322642
198,0.081827,0.938043,-0.3367179999999999,-0.413614,0.1173309999999999,0.846148
199,0.114475,0.93821,-0.326584,-0.22414,0.3493719999999999,0.484192
200,0.1408839999999999,0.938791,-0.314363,-0.6520229999999999,0.376899,0.1102609999999999
201,0.155531,0.941088,-0.300271,-0.947965,0.352506,0.077813
202,0.160167,0.943941,-0.2886559999999999,-1.280208,0.262862,0.289419
203,0.160565,0.947683,-0.27589,-1.403638,0.33314,0.283977
204,0.146535,0.955014,-0.257827,-1.3080040000000002,0.517917,0.253067
205,0.115567,0.965422,-0.233677,-0.707959,0.26526,0.279163
206,0.077314,0.977889,-0.194307,-0.391188,0.137498,0.277208
207,0.026205,0.987581,-0.154909,-0.101797,0.280455,0.253222
208,-0.042693,0.989243,-0.139916,0.735458,1.485184,-0.489936
209,-0.10795,0.986119,-0.126159,0.8494659999999999,1.066676,-0.125656
210,-0.183561,0.977827,-0.100799,0.4823739999999999,0.720385,0.093033
211,-0.264298,0.961522,-0.074985,-0.261138,0.388912,0.094364
212,-0.335811,0.940868,-0.044704,0.0831409999999999,0.4930609999999999,-0.088628
213,-0.39098,0.920219,-0.01821,0.337986,0.295632,-0.085733
214,-0.434822,0.900507,0.004101,0.55465,-0.0046479999999999,-0.134747
215,-0.4731439999999999,0.880301,0.034711,0.4755859999999999,-0.3427949999999999,-0.231382
216,-0.50527,0.860016,0.071233,0.5105350000000001,-0.474289,-0.247152
217,-0.52782,0.842376,0.108669,0.583209,-0.525161,-0.33366
218,-0.538929,0.829816,0.144781,0.656208,-0.54588,-0.387869
219,-0.540662,0.82288,0.174793,0.786573,-0.6631060000000001,-0.4224279999999999
220,-0.534836,0.8218260000000001,0.19635,0.8616790000000001,-0.699771,-0.441238
221,-0.5262359999999999,0.824901,0.206433,1.170676,-0.751872,-0.443097
222,-0.518587,0.832025,0.196982,1.177995,-0.660822,-0.3624489999999999
223,-0.507023,0.8463149999999999,0.163339,0.859165,-0.505632,-0.117822
224,-0.4838369999999999,0.865231,0.131443,0.35281,-0.161236,0.284558
225,-0.429975,0.891525,0.142492,0.285124,0.179489,0.749384
226,-0.430393,0.888117,0.161278,-2.642346,2.5997220000000003,1.570946
227,-0.462142,0.880199,0.108049,-1.145219,0.490437,0.203872
228,-0.486126,0.870935,0.071785,-0.521565,-0.035608,0.165245
229,-0.506008,0.86116,0.048579,0.456707,-0.8426809999999999,-0.358012
230,-0.491126,0.8710620000000001,-0.006792,0.946876,-0.393904,-0.960508
231,-0.436353,0.897826,-0.059194,0.9866,0.10048,-1.463969
232,-0.386419,0.921562,-0.037469,0.604299,1.912209,-0.248038
233,-0.397525,0.91747,-0.0149629999999999,-0.710248,1.874538,1.444116
234,-0.416525,0.908616,-0.030392,-0.599679,0.880523,1.307949
235,-0.400573,0.914051,-0.06366,1.441497,-0.408619,-0.389648
236,-0.352555,0.928592,-0.115852,1.7810830000000002,-0.923251,-0.633675
237,-0.288627,0.945015,-0.153757,1.344871,-0.913292,-0.529302
238,-0.25635,0.952206,-0.166096,0.231981,-0.0777559999999999,-0.637554
239,-0.241613,0.952713,-0.184283,-0.5654399999999999,0.544281,0.2115199999999999
240,-0.225814,0.948799,-0.220883,-1.2837379999999998,0.936837,0.4485439999999999
241,-0.191722,0.95036,-0.2450699999999999,0.0297649999999999,-0.508419,-0.147371
242,-0.147507,0.952164,-0.26763,0.53627,-0.561096,-0.218332
243,-0.1096869999999999,0.952423,-0.284359,0.514396,-0.496612,0.1469079999999999
244,-0.076802,0.952071,-0.296077,0.2257739999999999,-0.054473,0.357677
245,-0.046158,0.949946,-0.308987,-0.028869,0.289541,0.44392
246,-0.018218,0.947326,-0.319751,-0.3579719999999999,0.100632,0.410037
247,0.010425,0.943446,-0.331362,-0.497882,-0.12054,0.381838
248,0.0402029999999999,0.938946,-0.341709,-0.410427,0.207035,0.323383
249,0.073237,0.936903,-0.341831,-0.308177,0.267809,0.46471
250,0.1025069999999999,0.938758,-0.328977,-0.409544,0.187173,0.497708
251,0.126395,0.942706,-0.308756,-0.8507450000000001,0.349485,0.37974
252,0.140457,0.948593,-0.283626,-0.982284,0.345597,0.17625
253,0.138766,0.955192,-0.261443,-1.326388,0.136681,0.237929
254,0.121464,0.963693,-0.237788,-1.494053,0.133277,0.242259
255,0.088837,0.973896,-0.208888,-1.496109,0.121517,0.198589
256,0.049306,0.984744,-0.16688,-0.566091,0.367109,0.285563
257,0.005095,0.991655,-0.128815,0.1585099999999999,0.595854,0.142044
258,-0.054121,0.991397,-0.119174,0.535902,1.053586,-0.163724
259,-0.120015,0.986727,-0.109388,0.899159,1.463468,-0.321276
260,-0.195162,0.976594,-0.090421,0.261263,0.970595,0.25955
261,-0.278452,0.957778,-0.0715919999999999,-0.155615,0.719117,0.313596
262,-0.351654,0.934801,-0.049873,0.000793,0.568419,0.0194319999999999
263,-0.411285,0.911044,-0.029041,0.360748,0.49011,-0.040112
264,-0.460859,0.8874219999999999,-0.009565,0.4554109999999999,0.14926,0.012205
265,-0.502868,0.864293,0.01105,0.553146,-0.122197,-0.107471
266,-0.5383859999999999,0.841619,0.0426389999999999,0.611689,-0.448949,-0.259756
267,-0.564578,0.821321,0.081748,0.6754479999999999,-0.511171,-0.328055
268,-0.578426,0.8068770000000001,0.1198839999999999,0.773159,-0.682533,-0.39587
269,-0.580823,0.79973,0.151908,0.8162510000000001,-0.798235,-0.41497
270,-0.574184,0.7999029999999999,0.174551,0.8786579999999999,-0.8782719999999999,-0.443945
271,-0.5610890000000001,0.806177,0.187769,1.093026,-0.915491,-0.469309
272,-0.547683,0.815662,0.186383,1.228683,-0.648792,-0.338696
273,-0.533826,0.8298709999999999,0.1623109999999999,1.144391,-0.569876,-0.291751
274,-0.512417,0.849082,0.128406,0.680172,-0.204292,-0.0014529999999999
275,-0.4753949999999999,0.872128,0.115723,0.370658,0.601947,0.708435
276,-0.4558859999999999,0.876495,0.154673,-0.286042,2.056366,2.020971
277,-0.501424,0.858353,0.108647,-1.5244540000000002,1.111542,0.811947
278,-0.523714,0.8500790000000001,0.055582,-0.438201,-0.293317,0.047934
279,-0.541211,0.840282,0.031898,0.247601,-0.743495,-0.105949
280,-0.53978,0.841783,-0.006338,0.587936,-0.5537880000000001,-0.593912
281,-0.496878,0.8655879999999999,-0.062214,0.8937129999999999,0.168348,-0.986035
282,-0.448659,0.8906700000000001,-0.073568,0.725378,0.995957,-0.922816
283,-0.441701,0.8956709999999999,-0.0517049999999999,-0.4476569999999999,2.096272,0.0351649999999999
284,-0.468542,0.8819110000000001,-0.0519679999999999,-0.327341,0.241456,1.466961
285,-0.468875,0.8797709999999999,-0.078486,1.373492,-0.396357,0.136759
286,-0.429004,0.8944989999999999,-0.125806,1.767856,-0.68994,-0.729739
287,-0.3578969999999999,0.917199,-0.17509,1.379412,-0.588784,-0.325429
288,-0.285601,0.937211,-0.200172,0.3341389999999999,0.162399,-0.372231
289,-0.258319,0.941731,-0.215438,-0.607892,0.8936270000000001,0.102828
290,-0.238971,0.938851,-0.247894,-1.270414,0.8379129999999999,0.306519
291,-0.213542,0.936792,-0.277165,-0.715276,-0.4822329999999999,-0.094524
292,-0.17271,0.939522,-0.295754,0.106472,-0.557075,-0.223243
293,-0.134875,0.939812,-0.313947,0.365114,-0.538795,-0.150729
294,-0.101811,0.938,-0.331346,0.316151,-0.596356,0.038454
295,-0.06973,0.935964,-0.345122,0.132215,-0.073262,0.440795
296,-0.045099,0.932504,-0.358333,-0.098104,0.140692,0.390132
297,-0.018771,0.928973,-0.369671,-0.382886,0.1671119999999999,0.330273
298,0.015209,0.926255,-0.37659,-0.37817,0.126296,0.324619
299,0.055728,0.923948,-0.3784369999999999,-0.277194,0.134097,0.356724
300,0.094654,0.922766,-0.373555,-0.328632,0.177118,0.44759
301,0.1280059999999999,0.923116,-0.362591,-0.667267,0.341655,0.441097
302,0.151869,0.925257,-0.347613,-0.942549,0.34493,0.2140989999999999
303,0.164545,0.928291,-0.333467,-1.142481,0.197411,0.195055
304,0.168262,0.932526,-0.319505,-1.250751,0.204666,0.460466
305,0.162106,0.941457,-0.295602,-1.112378,0.471751,0.566964
306,0.141118,0.954713,-0.2619309999999999,-1.020528,0.352751,0.571196
307,0.114079,0.970161,-0.2139469999999999,-0.590336,0.1588369999999999,0.411533
308,0.082593,0.983552,-0.160634,-0.141904,0.172362,0.0288279999999999
309,0.030305,0.989595,-0.140656,0.25534,0.864074,-0.5338890000000001
310,-0.043571,0.989943,-0.134593,0.600654,1.369738,-0.395802
311,-0.128565,0.984854,-0.1163329999999999,0.043009,0.913492,-0.0318
312,-0.2208119999999999,0.970633,-0.095463,-0.69293,0.564203,0.2116739999999999
313,-0.298429,0.95177,-0.071237,-0.167727,0.58209,-0.145652
314,-0.362031,0.931248,-0.041357,0.4076849999999999,0.715557,-0.163081
315,-0.415952,0.909258,-0.0153169999999999,0.598615,0.563444,-0.118838
316,-0.463543,0.886006,0.011054,0.598858,0.018184,-0.064231
317,-0.5038199999999999,0.862815,0.041421,0.567998,-0.2470619999999999,-0.141671
318,-0.535784,0.841081,0.074289,0.672899,-0.436754,-0.297754
319,-0.556936,0.823318,0.1094079999999999,0.770422,-0.5148,-0.3960599999999999
320,-0.567964,0.810433,0.143581,0.8081520000000001,-0.691689,-0.424907
321,-0.568758,0.804186,0.172622,0.802675,-0.68558,-0.461883
322,-0.562224,0.804918,0.189767,0.8264610000000001,-0.709657,-0.4701479999999999
323,-0.551599,0.812923,0.186801,1.168085,-0.509868,-0.26636
324,-0.536274,0.8285290000000001,0.1610869999999999,1.06139,-0.461906,-0.246704
325,-0.5112720000000001,0.850843,0.1211069999999999,0.813671,-0.402158,-0.17906
326,-0.472222,0.876725,0.091429,-0.607429,2.035628,3.031389
327,-0.404804,0.902393,0.14772,-3.264736,2.771191,2.862931
328,-0.427436,0.893465,0.137905,-1.42701,1.222654,0.560719
329,-0.457821,0.885534,0.078929,-0.272023,-0.2782489999999999,0.088658
330,-0.474512,0.8788520000000001,0.049579,0.474954,-0.668891,-0.099384
331,-0.484822,0.8743989999999999,0.019341,1.103322,-0.165964,-0.534035
332,-0.4577859999999999,0.8881610000000001,-0.040036,1.209449,0.321022,-0.935474
333,-0.414837,0.908387,-0.052381,0.8892180000000001,1.406479,-0.334735
334,-0.410574,0.911089,-0.036697,-0.352548,0.8448620000000001,-0.278519
335,-0.429914,0.901983,-0.039996,-0.373659,-0.089682,0.720538
336,-0.42156,0.904399,-0.065951,0.277074,-0.116771,-0.140988
337,-0.388538,0.915885,-0.100961,1.139987,-0.482368,-0.65409
338,-0.333839,0.930385,-0.151442,0.97744,-0.349315,-0.15149
339,-0.286999,0.943462,-0.165865,0.435864,0.026753,-0.0268839999999999
340,-0.266317,0.947552,-0.176691,-0.355906,0.540149,0.416346
341,-0.244811,0.947121,-0.207434,-0.391404,0.145896,0.241385
342,-0.217401,0.945706,-0.241613,-0.244117,-0.1215789999999999,0.1984
343,-0.177363,0.945745,-0.272228,0.3840739999999999,-0.324148,-0.214497
344,-0.131164,0.947054,-0.29306,0.374725,-0.306155,-0.2058559999999999
345,-0.093109,0.946644,-0.308537,0.187301,-0.360936,-0.023266
346,-0.0554259999999999,0.944997,-0.32235,-0.285333,0.004588,0.431984
347,-0.016807,0.944428,-0.328288,-0.402169,0.211715,0.370265
348,0.0200389999999999,0.941774,-0.335649,-0.456654,0.14427,0.22458
349,0.052323,0.934956,-0.350883,-0.328385,0.020503,0.117836
350,0.083825,0.928175,-0.362581,-0.438531,0.084811,0.601137
351,0.118092,0.925052,-0.361017,-0.5250739999999999,0.198987,0.7834409999999999
352,0.144869,0.923539,-0.355089,-0.697328,0.290038,0.3987449999999999
353,0.164654,0.925869,-0.340082,-0.853665,0.379139,0.2357119999999999
354,0.177195,0.930654,-0.320134,-0.965205,0.389796,0.2162369999999999
355,0.180219,0.936142,-0.301926,-1.266644,0.26944,0.604416
356,0.171432,0.94537,-0.277285,-1.248046,0.33733,0.423464
357,0.14503,0.959162,-0.2428449999999999,-0.873301,0.130849,0.5287189999999999
358,0.10994,0.97525,-0.1918349999999999,-0.458161,0.174774,0.383241
359,0.068716,0.988124,-0.137439,0.0289399999999999,0.752782,-0.281369
360,0.010629,0.992009,-0.125717,0.666098,1.370158,-0.692154
361,-0.053495,0.991306,-0.12021,0.5510229999999999,1.02525,-0.327666
362,-0.1333079999999999,0.985951,-0.10065,-0.649651,0.7721520000000001,0.225436
363,-0.2229719999999999,0.971204,-0.083938,-0.865025,0.5935239999999999,0.226425
364,-0.2973659999999999,0.952754,-0.061911,0.011249,0.661397,-0.127252
365,-0.356479,0.933633,-0.035383,0.662327,0.491767,-0.142122
366,-0.406875,0.913412,-0.011427,0.791412,0.105173,0.041456
367,-0.45303,0.89138,0.0143349999999999,0.628217,-0.206336,-0.141014
368,-0.494014,0.8681209999999999,0.048118,0.573986,-0.451327,-0.264655
369,-0.526695,0.8458040000000001,0.084899,0.633811,-0.577234,-0.326232
370,-0.546613,0.8290629999999999,0.117769,0.741483,-0.641746,-0.349535
371,-0.555754,0.818631,0.144847,0.792219,-0.681379,-0.402537
372,-0.555624,0.8144710000000001,0.16709,0.8605860000000001,-0.680621,-0.4418859999999999
373,-0.548979,0.81562,0.182716,0.949385,-0.699287,-0.472526
374,-0.540293,0.8210200000000001,0.184417,1.089472,-0.5165310000000001,-0.17047
375,-0.528751,0.832923,0.1632849999999999,1.0779299999999998,-0.528434,-0.149338
376,-0.5089060000000001,0.851899,0.123624,0.566783,-0.139374,0.209384
377,-0.47661,0.8740829999999999,0.093925,-0.7359600000000001,1.861452,2.762963
378,-0.426897,0.8939309999999999,0.136552,-2.823775,2.448019,2.4934830000000003
379,-0.451726,0.883973,0.120564,-1.541133,1.088363,0.2985489999999999
380,-0.474881,0.877366,0.0686789999999999,-0.323017,-0.069566,0.107102
381,-0.498301,0.865826,0.045186,0.2348579999999999,-0.676678,0.040843
382,-0.513995,0.8577899999999999,0.002338,0.7319060000000001,-1.082247,-1.241138
383,-0.493427,0.864691,-0.094019,1.607441,-0.789572,-0.930273
384,-0.4217649999999999,0.895883,-0.139673,1.84663,0.043998,-0.89469
385,-0.331663,0.942633,-0.037984,0.449964,3.263345,2.108541
386,-0.330613,0.942101,-0.056031,-1.139723,2.172263,-0.0086349999999999
387,-0.366594,0.927896,-0.067951,0.143175,-0.193857,-0.301053
388,-0.349573,0.930299,-0.1111,1.7630709999999998,-0.903,-0.11354
389,-0.29129,0.938771,-0.184008,1.874359,-1.048589,-0.266844
390,-0.2236639999999999,0.949881,-0.218404,0.8259129999999999,-0.519949,-0.707804
391,-0.201569,0.952811,-0.226983,-0.413437,0.035989,0.244912
392,-0.191234,0.949872,-0.247332,-1.002873,0.8537629999999999,0.355532
393,-0.176573,0.940252,-0.291117,-0.923662,0.520518,-0.043539
394,-0.146874,0.935932,-0.320094,0.359307,-0.576206,-0.179982
395,-0.103001,0.934317,-0.341237,0.643345,-0.678732,0.135946
396,-0.0555509999999999,0.933543,-0.354134,0.581201,-0.561854,0.370263
397,-0.02301,0.92764,-0.372765,0.173599,0.091784,0.410973
398,0.004344,0.920262,-0.391278,-0.107554,0.570384,0.383053
399,0.037935,0.914528,-0.402739,-0.499483,0.560142,0.564651
400,0.0884679999999999,0.908369,-0.408704,-0.569501,0.168657,0.459439
401,0.14209,0.904288,-0.4025849999999999,-0.795196,0.182809,0.383603
402,0.180275,0.903277,-0.389348,-1.093117,0.561292,0.439961
403,0.2041609999999999,0.90645,-0.369684,-1.206618,0.4758739999999999,0.094202
404,0.209294,0.915048,-0.344794,-1.369038,0.322135,0.171424
405,0.190371,0.927702,-0.321135,-1.488619,0.305986,0.353071
406,0.1466849999999999,0.94478,-0.293044,-1.460848,0.401442,0.3824599999999999
407,0.099204,0.961678,-0.255606,-0.61048,0.344398,0.489279
408,0.049169,0.975019,-0.216609,0.042597,0.751055,0.215007
409,-0.018975,0.980952,-0.193321,0.543374,1.364553,-0.176232
410,-0.090898,0.980202,-0.175904,0.7837689999999999,1.258675,-0.2423239999999999
411,-0.159734,0.975383,-0.152032,0.738942,1.081212,-0.086707
412,-0.242507,0.962565,-0.121075,-0.264375,0.541387,0.078549
413,-0.324926,0.9418,-0.086228,-0.210718,0.5587340000000001,0.099457
414,-0.393331,0.918077,-0.049246,0.1223349999999999,0.601332,0.07479
415,-0.449385,0.8931389999999999,-0.018861,0.746718,0.2471809999999999,-0.11122
416,-0.496179,0.8681559999999999,0.010579,0.709267,-0.163322,-0.26035
417,-0.5358539999999999,0.84314,0.044448,0.5919909999999999,-0.4371029999999999,-0.221099
418,-0.567105,0.8198139999999999,0.079354,0.669461,-0.555669,-0.2771079999999999
419,-0.587005,0.801801,0.1119839999999999,0.758696,-0.648008,-0.317718
420,-0.5972310000000001,0.789261,0.142767,0.815325,-0.6915439999999999,-0.385961
421,-0.598402,0.782475,0.1721869999999999,0.8351729999999999,-0.7908970000000001,-0.429526
422,-0.591675,0.781908,0.196315,0.985322,-0.915133,-0.421352
423,-0.580892,0.7881560000000001,0.203405,1.139333,-0.8913969999999999,-0.329748
424,-0.566811,0.802916,0.184528,1.004037,-0.700285,-0.215534
425,-0.544421,0.825982,0.146149,0.658404,-0.517464,-0.050171
426,-0.506211,0.855074,0.112243,0.389115,0.107206,0.6016239999999999
427,-0.4332899999999999,0.891708,0.130833,-2.22502,2.538529,2.651577
428,-0.442111,0.890191,0.1099849999999999,-1.642651,2.053153,0.588105
429,-0.470921,0.8804069999999999,0.055836,-0.568203,0.068034,0.198421
430,-0.491303,0.870658,0.024002,0.123688,-0.603354,-0.037567
431,-0.4963689999999999,0.86803,-0.011927,0.667084,-0.014011,-0.750463
432,-0.4617279999999999,0.8851969999999999,-0.056869,0.902249,0.71899,-1.081009
433,-0.427979,0.901471,-0.064678,0.009415,0.94176,0.293774
434,-0.440364,0.8967290000000001,-0.044232,-0.105749,0.156295,0.872159
435,-0.449321,0.8921399999999999,-0.0468639999999999,0.8865620000000001,0.0304209999999999,0.6645399999999999
436,-0.425858,0.901443,-0.077751,1.198914,-0.289627,-0.742409
437,-0.38147,0.916541,-0.1201329999999999,1.215043,-0.541007,-0.4929489999999999
438,-0.273472,0.941012,-0.199273,0.496143,-0.190478,-0.343558
439,-0.228646,0.949239,-0.216022,-0.406013,0.2821909999999999,0.2408179999999999
440,-0.201225,0.952463,-0.228742,-0.989922,0.44393,0.346616
441,-0.172263,0.95201,-0.2529869999999999,-0.759209,-0.154479,0.169964
442,-0.13501,0.952435,-0.273203,-0.052413,-0.421353,-0.087088
443,-0.091963,0.952977,-0.288751,0.209914,-0.436345,-0.203177
444,-0.0534419999999999,0.950868,-0.30495,0.192175,-0.412126,-0.124051
445,-0.0189639999999999,0.94452,-0.327907,0.0211009999999999,-0.138932,0.24853
446,0.014672,0.937604,-0.347396,0.006904,0.243274,0.610061
447,0.0459829999999999,0.932473,-0.358302,-0.094399,0.10868,0.562098
448,0.0828059999999999,0.925317,-0.370043,-0.255109,-0.08912,0.276659
449,0.118254,0.918225,-0.3779929999999999,-0.384871,0.1167329999999999,0.3934809999999999
450,0.155571,0.91412,-0.3744099999999999,-0.629158,0.359074,0.572774
451,0.193215,0.91212,-0.361531,-0.783455,0.43842,0.4162939999999999
452,0.222804,0.91247,-0.343159,-1.03245,0.485983,0.3286469999999999
453,0.24193,0.91592,-0.320251,-1.260012,0.2742199999999999,0.273285
454,0.2490389999999999,0.922872,-0.293746,-1.424347,0.220713,0.348724
455,0.2403739999999999,0.934244,-0.263454,-1.414446,0.280325,0.337688
456,0.216882,0.948287,-0.231761,-1.2170040000000002,0.221909,0.3632
457,0.183989,0.9653,-0.185319,-0.930266,0.161592,0.372789
458,0.142514,0.981149,-0.130523,0.098803,0.955268,-0.404435
459,0.080739,0.98996,-0.116016,0.4434619999999999,1.376296,-0.5208550000000001
460,0.006202,0.992883,-0.1189289999999999,0.682213,1.4292049999999998,-0.3931409999999999
461,-0.077297,0.991073,-0.108627,-0.136006,0.879777,0.0643
462,-0.171069,0.980837,-0.093244,-0.67915,0.495695,0.262998
463,-0.253392,0.964782,-0.070625,-0.052867,0.618638,0.0317459999999999
464,-0.317438,0.947235,-0.044493,0.470392,0.55481,-0.042802
465,-0.37262,0.927744,-0.021098,0.6523899999999999,0.1405539999999999,-0.008245
466,-0.422649,0.906291,-0.002076,0.5325880000000001,-0.174098,-0.146743
467,-0.468639,0.8831180000000001,0.021921,0.508464,-0.402848,-0.277506
468,-0.506734,0.8604069999999999,0.054049,0.5984550000000001,-0.496378,-0.288637
469,-0.532626,0.842093,0.084782,0.7128479999999999,-0.57865,-0.297215
470,-0.545968,0.8303290000000001,0.111679,0.712334,-0.61837,-0.361756
471,-0.548613,0.825259,0.1340589999999999,0.74388,-0.630526,-0.40536
472,-0.54305,0.825983,0.151158,0.904485,-0.73382,-0.451329
473,-0.532239,0.8320270000000001,0.156372,1.178616,-0.5770069999999999,-0.186844
474,-0.5181359999999999,0.843822,0.1396369999999999,1.096978,-0.564693,-0.106357
475,-0.496214,0.862035,0.1032859999999999,0.682615,-0.360188,0.069871
476,-0.461226,0.884299,0.072701,0.428434,1.331994,1.914848
477,-0.399667,0.908233,0.124013,-1.943839,2.690232,3.3239690000000004
478,-0.417642,0.89936,0.129333,-1.002493,0.371789,0.226029
479,-0.447331,0.8915569999999999,0.07086,-0.49821,-0.185243,0.017733
480,-0.471817,0.881194,0.029756,0.2501219999999999,-0.765944,-0.128251
481,-0.483493,0.875209,-0.015602,0.943164,0.275944,-0.973274
482,-0.446824,0.89113,-0.078969,0.765534,1.407759,-1.004908
483,-0.406956,0.909645,-0.0832649999999999,0.183369,1.952797,-0.946475
484,-0.426546,0.901928,-0.067709,-0.392958,-0.286861,1.915731
485,-0.445862,0.891984,-0.074648,1.261215,-0.512055,-0.1623359999999999
486,-0.4319449999999999,0.894893,-0.112206,1.397766,-0.5444140000000001,-0.841743
487,-0.378116,0.913416,-0.150664,1.472217,-0.602121,-0.062119
488,-0.294259,0.938253,-0.181915,0.7936340000000001,0.157923,-0.046845
489,-0.235848,0.950009,-0.204595,0.355691,0.5633279999999999,-0.142817
490,-0.210452,0.95009,-0.2303,-0.630963,0.775541,0.018417
491,-0.191695,0.946275,-0.260415,-0.834779,-0.089159,0.1865619999999999
492,-0.159888,0.944696,-0.286332,-0.732354,-0.487313,0.209794
493,-0.115226,0.943916,-0.309427,0.122886,-0.574471,-0.270834
494,-0.078112,0.940821,-0.329778,0.2044089999999999,-0.482402,-0.129969
495,-0.0476199999999999,0.936314,-0.34792,0.135801,-0.264042,0.297063
496,-0.015151,0.930277,-0.3665449999999999,0.273467,0.273764,0.38098
497,0.012119,0.923354,-0.383757,0.035427,0.349091,0.500212
498,0.035592,0.916839,-0.397667,-0.3050469999999999,0.124878,0.6311869999999999
499,0.0671679999999999,0.910486,-0.408049,-0.401961,0.109366,0.526366
500,0.107735,0.905313,-0.410854,-0.345208,0.2136289999999999,0.390865
501,0.151061,0.903314,-0.401503,-0.4695729999999999,0.273765,0.439406
502,0.188302,0.904538,-0.382562,-0.6680689999999999,0.366092,0.444406
503,0.212169,0.907504,-0.36252,-1.12971,0.355756,0.167314
504,0.2189849999999999,0.911148,-0.349078,-1.244178,0.2239989999999999,0.054278
505,0.212666,0.91573,-0.3408989999999999,-1.490864,0.199444,0.38225
506,0.203819,0.922628,-0.327438,-1.100227,0.703669,0.434997
507,0.179099,0.935188,-0.305527,-0.8280860000000001,0.457405,0.398529
508,0.1458,0.950373,-0.274834,-0.425234,0.1345579999999999,0.398034
509,0.105778,0.966808,-0.232578,0.139247,0.800876,0.166797
510,0.046874,0.977908,-0.20371,0.4403689999999999,1.212338,-0.208079
511,-0.02171,0.98101,-0.19274,0.905591,1.214593,-0.073938
512,-0.094273,0.981107,-0.168941,0.352161,0.839037,0.271617
513,-0.181316,0.973724,-0.137791,-0.375553,0.557923,0.216359
514,-0.262087,0.958986,-0.107966,-0.080717,0.55966,-0.048482
515,-0.32736,0.941851,-0.075837,0.373976,0.387189,0.010591
516,-0.380015,0.923523,-0.051897,0.574,0.031479,0.012697
517,-0.4261729999999999,0.904209,-0.027987,0.458781,-0.325855,-0.127424
518,-0.467416,0.8840370000000001,-0.000727,0.469858,-0.596745,-0.163396
519,-0.502893,0.8638809999999999,0.028425,0.5427649999999999,-0.574391,-0.213957
520,-0.530346,0.8456899999999999,0.059512,0.608013,-0.561373,-0.250842
521,-0.549859,0.8307379999999999,0.086772,0.774392,-0.636356,-0.303874
522,-0.561574,0.820472,0.107052,0.842412,-0.646049,-0.338375
523,-0.565174,0.816177,0.12014,1.053623,-0.762847,-0.383781
524,-0.56357,0.817304,0.120016,0.999254,-0.6303989999999999,-0.300726
525,-0.555251,0.825408,0.101971,0.902724,-0.539046,-0.227169
526,-0.537366,0.840543,0.068737,0.167615,-0.2861,0.413807
527,-0.508376,0.8600780000000001,0.0426529999999999,0.078856,-0.101762,1.08076
528,-0.446349,0.892442,0.065732,-2.293916,1.872985,2.579257
529,-0.440234,0.89661,0.047804,-1.121504,1.164074,0.471926
530,-0.454934,0.890501,0.0064959999999999,-0.207328,-0.057921,0.725697
531,-0.48417,0.874793,-0.017758,0.107522,-0.431953,0.394223
532,-0.504361,0.861641,-0.0565279999999999,1.303982,-0.007835,-0.7975220000000001
533,-0.471847,0.8743270000000001,-0.113638,1.950393,0.545092,-0.439584
534,-0.397941,0.911508,-0.103904,1.916862,0.8454649999999999,-0.120766
535,-0.368983,0.926323,-0.0760059999999999,-0.534521,1.247505,-0.068266
536,-0.379706,0.919996,-0.0971149999999999,-0.064813,0.257312,-0.013221
537,-0.358738,0.92279,-0.140593,0.86179,-0.415343,-0.268526
538,-0.312974,0.929668,-0.19433,1.367173,-0.801296,-0.506339
539,-0.245471,0.939687,-0.2381849999999999,0.863574,-0.686422,-0.40598
540,-0.194019,0.949943,-0.244878,0.251529,-0.32714,-0.163844
541,-0.162973,0.952902,-0.25577,-0.869238,0.667719,0.2252219999999999
542,-0.138008,0.947414,-0.288723,-0.882164,0.3754159999999999,0.2121849999999999
543,-0.107544,0.942891,-0.315264,-0.1521,-0.328526,0.049883
544,-0.071656,0.940357,-0.332556,0.324921,-0.496433,-0.143396
545,-0.04204,0.937056,-0.34664,0.372637,-0.562102,0.181143
546,-0.017811,0.934079,-0.356622,0.150807,-0.382275,0.412302
547,0.008594,0.931257,-0.364261,-0.0289029999999999,0.17444,0.341907
548,0.0370029999999999,0.927467,-0.3720699999999999,-0.169846,0.258843,0.225814
549,0.068874,0.922531,-0.379728,-0.304714,0.245606,0.275907
550,0.106213,0.917641,-0.382954,-0.475033,0.093956,0.413274
551,0.148242,0.913052,-0.379948,-0.626941,0.100605,0.43282
552,0.183027,0.908697,-0.375194,-0.7647689999999999,0.1620579999999999,0.409099
553,0.2087659999999999,0.906299,-0.367476,-1.000255,0.380856,0.4356069999999999
554,0.2301139999999999,0.907006,-0.352687,-1.107876,0.345878,0.347285
555,0.243467,0.909851,-0.335999,-1.239515,0.416367,0.385453
556,0.24544,0.916262,-0.31658,-1.2650629999999998,0.581831,0.342093
557,0.230053,0.927923,-0.293317,-1.200909,0.685038,0.222623
558,0.1973059999999999,0.943941,-0.264663,-0.731241,0.185271,0.333404
559,0.155099,0.961366,-0.2274179999999999,-0.374551,0.121596,0.53
560,0.0971149999999999,0.976429,-0.1927569999999999,0.166099,0.695538,0.0531539999999999
561,0.027201,0.983581,-0.178403,0.531667,1.117889,-0.242694
562,-0.039856,0.98462,-0.170101,0.632202,0.90985,-0.032536
563,-0.1171789999999999,0.982093,-0.147523,-0.481881,0.39663,0.299485
564,-0.19905,0.972427,-0.121514,-0.436249,0.356385,0.18319
565,-0.271366,0.957981,-0.09291,0.1159549999999999,0.4546159999999999,-0.003739
566,-0.328304,0.942329,-0.065059,0.536342,0.253426,-0.072057
567,-0.372857,0.927076,-0.038834,0.652795,-0.105817,-0.0691519999999999
568,-0.410234,0.911894,-0.012554,0.458879,-0.489546,-0.090443
569,-0.443804,0.8960239999999999,0.013368,0.4700789999999999,-0.650984,-0.2204
570,-0.4697159999999999,0.8819170000000001,0.039871,0.5337729999999999,-0.67516,-0.237136
571,-0.487724,0.870506,0.065909,0.60273,-0.701179,-0.258841
572,-0.49932,0.86205,0.086882,0.69181,-0.6692560000000001,-0.298491
573,-0.502829,0.8584440000000001,0.1011789999999999,0.761419,-0.660614,-0.334974
574,-0.498724,0.860093,0.107304,1.021215,-0.581681,-0.248432
575,-0.4885859999999999,0.866923,0.098633,0.990463,-0.475489,-0.107269
576,-0.4693239999999999,0.8801180000000001,0.071609,0.473444,-0.367071,0.203522
577,-0.440354,0.8966149999999999,0.04658,0.2767949999999999,0.045249,0.998403
578,-0.384838,0.920868,0.0624679999999999,-2.374821,2.141709,2.827058
579,-0.361507,0.925854,0.110028,-3.295491,2.331226,1.489276
580,-0.393317,0.917328,0.061737,-0.413217,0.0521549999999999,0.373551
581,-0.419006,0.907949,0.007879,0.339798,-0.409841,0.14004
582,-0.441125,0.897108,-0.024626,0.640877,-0.178816,-0.14174
583,-0.422587,0.904215,-0.061776,1.069666,0.668738,-0.8934700000000001
584,-0.371379,0.92559,-0.073216,0.8775280000000001,1.5658040000000002,-0.693462
585,-0.36361,0.929448,-0.06256,0.282861,1.094218,-0.1824049999999999
586,-0.388708,0.919124,-0.064164,0.359717,-0.230296,0.547151
587,-0.379076,0.920329,-0.096415,1.112322,-0.322673,-0.372473
588,-0.34246,0.928862,-0.141198,1.374808,-0.677153,-0.54972
589,-0.268897,0.944658,-0.187927,1.062583,-0.4213729999999999,-0.289276
590,-0.1755,0.963045,-0.204315,0.1027759999999999,0.304793,0.069106
591,-0.134642,0.966816,-0.2171139999999999,-0.337572,0.6634329999999999,0.181973
592,-0.10657,0.963066,-0.247278,-0.8442049999999999,0.209862,0.259836
593,-0.072223,0.960752,-0.267843,-0.067547,-0.547758,-0.053736
594,-0.032989,0.959119,-0.281072,0.077911,-0.5771609999999999,-0.21409
595,-0.00109,0.955475,-0.295071,0.146415,-0.546295,-0.299487
596,0.032276,0.948245,-0.315896,-0.176915,-0.464159,0.0946289999999999
597,0.067728,0.941131,-0.331189,-0.372766,-0.1046589999999999,0.347073
598,0.098018,0.937441,-0.3340599999999999,-0.455867,0.607053,0.269317
599,0.122795,0.930457,-0.3452119999999999,-0.5517810000000001,0.3518,0.2666139999999999
600,0.15098,0.919396,-0.363202,-0.442637,-0.058266,0.315931
601,0.18514,0.910867,-0.368843,-0.457495,-0.036614,0.356346
602,0.223411,0.904373,-0.36359,-0.5075609999999999,0.062745,0.565098
603,0.255677,0.897647,-0.3589699999999999,-0.680863,0.388791,0.555304
604,0.274848,0.8939010000000001,-0.354118,-0.987357,0.5966229999999999,0.3986429999999999
605,0.285575,0.8938799999999999,-0.34558,-1.194007,0.390803,0.215331
606,0.293858,0.8980049999999999,-0.327466,-1.262868,0.43781,0.292325
607,0.293992,0.9072,-0.300927,-1.218538,0.815105,0.061211
608,0.268986,0.921641,-0.279686,-1.188252,0.757695,0.293068
609,0.23013,0.938665,-0.256803,-0.695126,0.212137,0.433118
610,0.1764079999999999,0.958804,-0.222657,-0.162019,0.365415,0.305481
611,0.103897,0.974949,-0.19667,0.504196,0.934535,-0.36049
612,0.030805,0.982132,-0.1856539999999999,0.720004,1.194931,-0.48201
613,-0.032638,0.985741,-0.165073,0.2073969999999999,0.4022139999999999,0.034931
614,-0.104627,0.985304,-0.135017,-0.4453609999999999,0.185274,0.25013
615,-0.178526,0.977829,-0.109452,-0.4282859999999999,0.2459869999999999,0.178681
616,-0.2480699999999999,0.965164,-0.083186,0.023643,0.485596,-0.1497089999999999
617,-0.309026,0.949417,-0.0557789999999999,0.434804,0.312546,-0.194114
618,-0.356798,0.933842,-0.025161,0.509981,-0.117879,-0.18303
619,-0.395452,0.918454,0.007723,0.464788,-0.291913,-0.1464099999999999
620,-0.427367,0.903237,0.0389889999999999,0.450072,-0.607507,-0.1696349999999999
621,-0.45143,0.8899020000000001,0.065457,0.5245350000000001,-0.60525,-0.211255
622,-0.468141,0.8794280000000001,0.086319,0.600083,-0.5957819999999999,-0.260025
623,-0.478027,0.872275,0.1030869999999999,0.662048,-0.645606,-0.321013
624,-0.480571,0.8692549999999999,0.11596,0.702708,-0.682671,-0.327493
625,-0.47786,0.870093,0.120779,0.752747,-0.721229,-0.319921
626,-0.470617,0.8755959999999999,0.108868,0.918813,-0.650299,-0.080548
627,-0.45477,0.8872459999999999,0.077321,0.771131,-0.603677,-0.0187419999999999
628,-0.429043,0.902112,0.046007,0.533505,-0.500836,0.093641
629,-0.376377,0.92492,0.053506,0.170399,0.645469,1.748435
630,-0.352398,0.931986,0.084952,-2.630573,2.2357080000000003,2.012079
631,-0.384779,0.9228,0.019643,-1.251955,0.8313809999999999,0.299434
632,-0.40384,0.913904,-0.041135,-0.227736,-0.232782,0.169935
633,-0.422278,0.903785,-0.069677,0.283453,-0.693351,-0.338755
634,-0.407258,0.905138,-0.121927,1.0804,-0.05417,-0.739309
635,-0.347452,0.923589,-0.162048,1.188211,1.148157,-0.493042
636,-0.301351,0.945722,-0.121642,0.567419,2.189623,0.482497
637,-0.315065,0.94196,-0.1159569999999999,-0.646803,0.7243,0.8360799999999999
638,-0.32455,0.936869,-0.130168,0.744807,-0.3299809999999999,-0.198323
639,-0.296675,0.939904,-0.169009,1.224714,-0.487527,-0.396527
640,-0.230533,0.945612,-0.229505,1.788028,-1.114923,-0.455218
641,-0.160983,0.955695,-0.246438,0.540225,-0.357062,-0.302237
642,-0.1305339999999999,0.958181,-0.254658,-0.018987,-0.023458,-0.137874
643,-0.102674,0.951904,-0.288681,-1.095278,0.784485,0.4946899999999999
644,-0.0672649999999999,0.94189,-0.329117,-0.927531,0.034123,-0.0088349999999999
645,-0.025397,0.937589,-0.346817,-0.412545,-0.326352,-0.28505
646,0.014255,0.931183,-0.364273,0.328488,-0.560135,-0.081635
647,0.05447,0.925165,-0.375636,0.009922,-0.4608859999999999,0.548442
648,0.083908,0.921483,-0.379247,-0.2258599999999999,-0.2000019999999999,0.676671
649,0.0976139999999999,0.911391,-0.399796,-0.4287149999999999,0.407319,0.2360699999999999
650,0.10944,0.8989440000000001,-0.424172,-0.543049,0.267437,0.377846
651,0.144002,0.8897649999999999,-0.433108,-0.271764,0.059973,0.597445
652,0.186619,0.8871129999999999,-0.422143,-0.095508,0.167697,0.595437
653,0.217212,0.8854879999999999,-0.4107689999999999,-0.484363,0.303706,0.467501
654,0.245344,0.887075,-0.391029,-0.851088,0.407725,0.270989
655,0.266,0.891733,-0.366138,-1.145989,0.470404,0.119465
656,0.270126,0.8977120000000001,-0.34806,-1.424682,0.246255,0.161354
657,0.261665,0.906183,-0.332211,-1.416221,0.237784,0.145505
658,0.244977,0.919346,-0.307878,-1.388287,0.63171,0.4184279999999999
659,0.209401,0.938096,-0.275911,-0.940724,0.440673,0.48723
660,0.1726869999999999,0.958009,-0.228907,-0.623065,0.26039,0.503458
661,0.126949,0.975559,-0.179359,0.297627,0.513257,-0.041405
662,0.06271,0.983795,-0.167972,0.7854949999999999,1.336365,-0.595654
663,-0.005611,0.986651,-0.16275,0.697689,1.084882,0.104629
664,-0.089929,0.985125,-0.14643,-0.4253909999999999,0.64546,0.4661939999999999
665,-0.180497,0.974582,-0.132705,-0.4414659999999999,0.394101,0.181671
666,-0.255664,0.960222,-0.112288,0.017978,0.55377,-0.07895
667,-0.314006,0.945274,-0.088637,0.323375,0.322166,0.059035
668,-0.361955,0.92962,-0.069248,0.4848949999999999,-0.034738,0.1011389999999999
669,-0.403271,0.913844,-0.047566,0.512417,-0.173426,-0.029232
670,-0.440012,0.8978149999999999,-0.017831,0.4379979999999999,-0.542941,-0.0807399999999999
671,-0.4681899999999999,0.883547,0.011983,0.5046430000000001,-0.669603,-0.124623
672,-0.484403,0.874052,0.037251,0.594327,-0.7617470000000001,-0.1540109999999999
673,-0.486737,0.8716780000000001,0.0571309999999999,0.653455,-0.7799729999999999,-0.221651
674,-0.476149,0.8763790000000001,0.072405,0.7154520000000001,-0.781133,-0.322497
675,-0.456941,0.885776,0.081271,0.887682,-0.7427560000000001,-0.3542349999999999
676,-0.434962,0.8973040000000001,0.075186,1.038188,-0.49641,-0.199423
677,-0.408937,0.911348,0.047079,0.844774,-0.398652,0.014048
678,-0.38065,0.924362,0.0256779999999999,0.491185,-0.332962,0.219256
679,-0.34069,0.938284,0.059611,0.00817,1.058237,2.508778
680,-0.3679199999999999,0.927131,0.071155,-3.28833,2.437234,1.250393
681,-0.4137909999999999,0.910193,0.018045,-1.12898,0.240396,0.543158
682,-0.4418829999999999,0.896718,-0.025217,-0.101986,-0.552022,0.919641
683,-0.4522359999999999,0.888699,-0.075477,0.522091,-0.8541219999999999,-1.264382
684,-0.414642,0.900149,-0.13343,1.272826,-0.298617,-1.0193709999999998
685,-0.33394,0.937162,-0.10105,1.79059,0.7075520000000001,-0.0384759999999999
686,-0.29199,0.953686,-0.072282,0.809339,2.233127,0.176514
687,-0.305222,0.94896,-0.079458,-0.772597,1.200515,0.3860989999999999
688,-0.296251,0.949618,-0.10228,-0.256239,-0.2049889999999999,-0.49945
689,-0.255705,0.954291,-0.154738,0.538084,-0.590689,-0.326875
690,-0.195045,0.958789,-0.2065949999999999,1.22097,-0.838885,-0.253778
691,-0.1462369999999999,0.965548,-0.215248,0.892285,-0.641238,0.043419
692,-0.119563,0.964735,-0.234503,-0.123098,0.055071,0.2085179999999999
693,-0.092832,0.958457,-0.269706,-0.299761,0.263802,0.387642
694,-0.061528,0.951845,-0.3003429999999999,-0.331843,-0.040193,0.224216
695,-0.024154,0.94769,-0.318278,0.063613,-0.306073,-0.1696369999999999
696,0.013027,0.945052,-0.326659,0.14127,-0.258559,-0.047715
697,0.0525259999999999,0.940558,-0.335548,-0.123876,-0.136908,0.22628
698,0.091771,0.935324,-0.341683,-0.320195,0.121897,0.437569
699,0.1249589999999999,0.928911,-0.348584,-0.377263,0.1147599999999999,0.3901489999999999
700,0.150021,0.919365,-0.363678,-0.500103,-0.057824,0.178405
701,0.172973,0.909602,-0.377763,-0.6289819999999999,0.239614,0.303392
702,0.205915,0.901528,-0.380587,-0.6597729999999999,0.338554,0.505984
703,0.241136,0.8953040000000001,-0.3745449999999999,-0.5338609999999999,0.276555,0.564578
704,0.2615,0.893143,-0.36594,-0.754603,0.463668,0.453053
705,0.278118,0.8951790000000001,-0.348288,-0.893856,0.519875,0.356192
706,0.286409,0.901906,-0.32332,-1.17679,0.336391,0.348375
707,0.283306,0.912344,-0.295578,-1.351101,0.271723,0.470779
708,0.2636739999999999,0.92775,-0.2641139999999999,-1.367587,0.425934,0.42099
709,0.233476,0.947127,-0.2200889999999999,-0.7666029999999999,0.2334449999999999,0.444851
710,0.19895,0.967055,-0.158818,-0.210135,0.236833,0.061986
711,0.147115,0.980692,-0.128843,0.063319,0.4592489999999999,-0.28107
712,0.075948,0.989199,-0.125367,0.664409,1.357069,-0.453567
713,-0.007073,0.993167,-0.116491,-0.1034,0.8756079999999999,0.019933
714,-0.102862,0.989365,-0.102841,-0.890332,0.515411,0.312436
715,-0.185163,0.979236,-0.082537,-0.337267,0.493436,-0.158429
716,-0.250319,0.96658,-0.055344,0.340254,0.6286189999999999,-0.2086329999999999
717,-0.306689,0.951289,-0.031474,0.6244689999999999,0.313008,-0.060658
718,-0.3595239999999999,0.933113,-0.0065439999999999,0.536938,-0.042351,-0.131945
719,-0.404738,0.914064,0.025965,0.407622,-0.285066,-0.142192
720,-0.440718,0.8956700000000001,0.059525,0.473906,-0.376596,-0.21933
721,-0.465537,0.880282,0.091531,0.7236239999999999,-0.704867,-0.421533
722,-0.480017,0.8694059999999999,0.117122,0.590292,-0.394339,-0.201763
723,-0.485547,0.8642,0.13192,0.673734,-0.5645319999999999,-0.3744429999999999
724,-0.485516,0.86269,0.141564,0.8452270000000001,-0.860477,-0.4548729999999999
725,-0.478609,0.8675149999999999,0.135468,1.066728,-0.836448,-0.262146
726,-0.468132,0.877388,0.105082,1.035347,-0.767784,-0.1463269999999999
727,-0.450862,0.8907799999999999,0.056877,0.923579,-0.7005640000000001,-0.081626
728,-0.4219779999999999,0.906304,0.0234039999999999,0.444744,0.227317,1.22449
729,-0.367413,0.9276,0.067565,-0.644519,2.121151,2.789781
730,-0.387202,0.918483,0.0804,-2.442007,2.612966,1.590071
731,-0.4197399999999999,0.907472,0.017666,-0.8605950000000001,0.2657,0.2825809999999999
732,-0.444241,0.895568,-0.0246699999999999,0.105084,-0.536193,-0.073291
733,-0.460187,0.886474,-0.048913,0.609875,-0.6170800000000001,-0.094947
734,-0.432457,0.894874,-0.110372,1.038277,-0.203956,-0.8132119999999999
735,-0.373797,0.914903,-0.152408,0.969821,0.012816,-1.163541
736,-0.342844,0.930953,-0.125638,0.388834,2.0043040000000003,0.425412
737,-0.358574,0.926895,-0.110866,-0.571663,1.287125,1.230556
738,-0.358763,0.924082,-0.13176,0.334807,-0.062602,0.274704
739,-0.325658,0.929701,-0.1720549999999999,1.18218,-0.34265,-0.655337
740,-0.259063,0.938579,-0.227937,1.6556540000000002,-0.834225,-0.582442
741,-0.1927849999999999,0.949681,-0.246862,0.683462,-0.303135,-0.1330059999999999
742,-0.157277,0.951823,-0.263245,-0.2442119999999999,0.3634699999999999,0.010651
743,-0.123428,0.946717,-0.297477,-0.948257,0.785812,0.4119939999999999
744,-0.082346,0.938071,-0.336516,-0.942511,0.075769,0.2074869999999999
745,-0.036126,0.934409,-0.354364,-0.147575,-0.366645,-0.23583
746,0.002807,0.931601,-0.363473,0.2212989999999999,-0.4435479999999999,-0.031272
747,0.038183,0.92802,-0.370569,0.156046,-0.5065109999999999,0.166391
748,0.0676799999999999,0.926043,-0.371301,-0.240364,-0.019655,0.358315
749,0.086219,0.921419,-0.378884,-0.45507,0.153044,0.265175
750,0.099851,0.912604,-0.396464,-0.626203,0.211114,0.218821
751,0.1200529999999999,0.903015,-0.4124939999999999,-0.553006,-0.011963,0.4081599999999999
752,0.154567,0.8972969999999999,-0.4134819999999999,-0.518642,0.011639,0.548111
753,0.1953609999999999,0.894689,-0.401703,-0.458575,0.041086,0.700836
754,0.225042,0.891167,-0.393926,-0.401495,0.154213,0.505544
755,0.249271,0.8909530000000001,-0.379562,-0.689609,0.5578390000000001,0.277709
756,0.260941,0.8933,-0.365959,-0.8638,0.610332,0.2088539999999999
757,0.263358,0.8961450000000001,-0.357166,-1.275458,0.2217599999999999,0.3769099999999999
758,0.262198,0.902173,-0.342543,-1.303458,0.338763,0.465697
759,0.250477,0.913757,-0.319859,-1.120701,0.772706,0.48589
760,0.222052,0.93184,-0.286997,-0.77056,0.5204310000000001,0.470377
761,0.189076,0.95172,-0.241825,-0.3413739999999999,0.132234,0.270252
762,0.1449599999999999,0.969489,-0.197683,-0.171388,0.12774,0.105581
763,0.0816419999999999,0.980574,-0.1783529999999999,0.449471,1.186983,-0.370643
764,0.0166639999999999,0.98589,-0.166564,0.641692,1.012325,-0.396333
765,-0.057477,0.986456,-0.153626,-0.165652,0.380548,-0.068099
766,-0.143663,0.980154,-0.136602,-0.7963859999999999,0.236857,0.217534
767,-0.223107,0.967655,-0.117755,-0.017325,0.536327,0.004993
768,-0.282823,0.95413,-0.098221,0.04239,0.5498529999999999,-0.014542
769,-0.330491,0.940713,-0.076391,0.756562,0.194068,-0.182444
770,-0.375834,0.925594,-0.044985,0.6697029999999999,-0.265987,-0.119093
771,-0.416851,0.908902,-0.011542,0.581569,-0.419919,-0.063028
772,-0.4491819999999999,0.893252,0.018327,0.565545,-0.515933,-0.1394359999999999
773,-0.4724359999999999,0.8803479999999999,0.042321,0.65336,-0.55204,-0.192254
774,-0.487284,0.871333,0.057737,0.664057,-0.610209,-0.194638
775,-0.493484,0.867315,0.0651,0.706604,-0.663488,-0.269293
776,-0.492477,0.867916,0.064708,0.8431549999999999,-0.671871,-0.3296159999999999
777,-0.487039,0.8718549999999999,0.051598,0.905984,-0.653654,-0.270806
778,-0.473417,0.880519,0.023708,0.9004340000000001,-0.568767,-0.109126
779,-0.4490949999999999,0.893441,-0.008753,0.616301,-0.316796,0.132685
780,-0.412047,0.910846,-0.0240319999999999,0.242567,0.223493,0.857849
781,-0.379195,0.925254,0.010772,-2.043123,1.83619,2.737
782,-0.407085,0.913151,-0.020936,-1.808247,1.343014,0.573701
783,-0.438284,0.895561,-0.076664,-0.044993,-0.311592,0.074498
784,-0.47076,0.875733,-0.1071319999999999,0.39175,-0.231262,0.161331
785,-0.4672739999999999,0.870771,-0.153013,0.931904,0.541445,-0.3715989999999999
786,-0.42767,0.8864639999999999,-0.176862,0.755582,0.806026,-0.211246
787,-0.401153,0.901936,-0.15996,-0.5551159999999999,1.254893,-0.689481
788,-0.413656,0.8986379999999999,-0.146075,-0.538248,0.280607,1.765826
789,-0.4169609999999999,0.89561,-0.155005,1.350753,-0.200313,0.081
790,-0.38054,0.905071,-0.189829,1.629274,-0.491863,-0.985174
791,-0.3100699999999999,0.919307,-0.242346,1.596371,-0.940822,-0.430552
792,-0.224194,0.936159,-0.270822,0.8751639999999999,-0.4922189999999999,-0.187201
793,-0.176499,0.943004,-0.28212,-0.136947,0.480687,-0.195785
794,-0.153679,0.939405,-0.306432,-0.916985,1.148791,0.4634149999999999
795,-0.130011,0.933149,-0.335158,-1.210169,0.360125,0.414992
796,-0.087278,0.930205,-0.356512,-0.508425,-0.462783,0.162924
797,-0.038861,0.926455,-0.374395,0.152508,-0.469622,-0.206294
798,-0.001368,0.920524,-0.390683,0.259806,-0.504707,-0.269138
799,0.037882,0.914258,-0.403357,0.065862,-0.4676329999999999,0.209113
800,0.080695,0.908835,-0.409276,-0.065375,0.198037,0.531133
801,0.113443,0.902238,-0.41605,-0.191919,0.36473,0.5521739999999999
802,0.13884,0.893049,-0.428004,-0.632157,0.1150539999999999,0.322413
803,0.165197,0.88385,-0.43763,-0.731496,-0.074234,0.368675
804,0.202279,0.8778239999999999,-0.434176,-0.737237,-0.016236,0.3927489999999999
805,0.240669,0.873763,-0.42263,-0.542122,0.294862,0.485664
806,0.270667,0.873265,-0.405152,-0.574515,0.42332,0.603959
807,0.2954469999999999,0.876025,-0.3811719999999999,-0.821097,0.316587,0.375114
808,0.307425,0.8809680000000001,-0.359702,-1.071051,0.207167,0.195289
809,0.309118,0.8873030000000001,-0.342257,-1.294882,0.244228,0.2891559999999999
810,0.302245,0.8975420000000001,-0.3210389999999999,-1.383651,0.529216,0.525858
811,0.278576,0.916371,-0.287507,-1.240399,0.725322,0.622117
812,0.2455639999999999,0.939189,-0.2400469999999999,-0.4261359999999999,0.0807539999999999,0.4340779999999999
813,0.2075469999999999,0.96106,-0.182452,-0.155728,0.077301,0.382006
814,0.14824,0.977986,-0.146862,0.204528,0.319347,0.076107
815,0.07312,0.987128,-0.142238,0.6959380000000001,1.680261,-0.5767869999999999
816,-0.00223,0.991334,-0.13135,0.686678,1.39894,-0.1945319999999999
817,-0.091477,0.989096,-0.115421,-0.8571770000000001,0.301951,0.487141
818,-0.175498,0.979787,-0.096014,-0.264993,0.317882,0.042593
819,-0.240977,0.967285,-0.0793059999999999,0.347224,0.522278,-0.091547
820,-0.294275,0.95345,-0.065846,0.485635,0.1044119999999999,-0.017314
821,-0.342078,0.938461,-0.047673,0.363197,-0.4637449999999999,-0.022304
822,-0.387108,0.921703,-0.024723,0.408226,-0.4469869999999999,-0.045254
823,-0.4240489999999999,0.905639,-0.000556,0.474937,-0.591689,-0.168405
824,-0.449054,0.893193,0.023605,0.548221,-0.580555,-0.233703
825,-0.463009,0.885282,0.043585,0.5586810000000001,-0.591626,-0.263266
826,-0.465597,0.8831889999999999,0.0565419999999999,0.568487,-0.617884,-0.284661
827,-0.45905,0.8862540000000001,0.061857,0.936635,-0.774728,-0.360106
828,-0.446316,0.893316,0.052804,1.08749,-0.806692,-0.309671
829,-0.426668,0.904184,0.0201259999999999,1.074388,-0.634119,-0.148895
830,-0.39799,0.917155,-0.020747,0.629848,-0.5526220000000001,0.01208
831,-0.358444,0.932663,-0.040717,0.302673,-0.211548,0.465156
832,-0.31878,0.947691,0.016175,-1.085685,2.751833,3.403274
833,-0.365171,0.93083,-0.0143539999999999,-1.514926,0.6782090000000001,0.6595409999999999
834,-0.393891,0.915798,-0.0785049999999999,-0.9467,-0.17117,0.266219
835,-0.4161069999999999,0.903171,-0.1055339999999999,0.314301,-0.805179,-0.0592769999999999
836,-0.412423,0.901213,-0.133128,0.922921,0.057253,-0.622945
837,-0.3563699999999999,0.918395,-0.171906,0.910523,0.364656,-1.064895
838,-0.312487,0.935508,-0.164856,0.315554,1.91015,-0.540085
839,-0.339293,0.932155,-0.126365,-0.5656899999999999,0.225804,2.0296540000000003
840,-0.3552599999999999,0.924987,-0.13487,0.081822,-0.422622,1.584837
841,-0.326067,0.929732,-0.1711099999999999,1.482455,-0.394942,-1.032289
842,-0.260263,0.940704,-0.217576,1.653161,-0.64566,-0.4657739999999999
843,-0.183328,0.954486,-0.23526,0.986932,-0.1940339999999999,0.028732
844,-0.137297,0.960043,-0.243857,-0.104799,0.609399,0.066092
845,-0.1116619999999999,0.956084,-0.270989,-0.906862,0.8583540000000001,0.4981319999999999
846,-0.083251,0.951137,-0.297333,-1.118165,0.077961,0.166321
847,-0.046244,0.949057,-0.311691,-0.345998,-0.498542,-0.148102
848,3.5e-05,0.946466,-0.322804,0.176067,-0.487222,-0.389903
849,0.038757,0.939496,-0.340361,0.181916,-0.562283,-0.28734
850,0.079187,0.929741,-0.359598,-0.080423,-0.503868,0.235575
851,0.1126369999999999,0.922424,-0.369386,-0.282757,0.248367,0.420274
852,0.131399,0.918593,-0.372721,-0.457999,0.452806,0.508753
853,0.15149,0.909814,-0.386378,-0.73343,0.1514039999999999,0.391414
854,0.181651,0.900172,-0.395846,-0.546946,-0.052287,0.348955
855,0.222063,0.893867,-0.389473,-0.450121,0.036294,0.435052
856,0.259544,0.888084,-0.379399,-0.4971689999999999,0.175438,0.623632
857,0.288864,0.8841760000000001,-0.367139,-0.922348,0.565348,0.347425
858,0.305706,0.8842899999999999,-0.352952,-0.93919,0.565234,0.333238
859,0.309323,0.888288,-0.339506,-1.2745030000000002,0.243579,0.073896
860,0.304874,0.8965690000000001,-0.321271,-1.499866,0.32981,0.367322
861,0.291041,0.908227,-0.300697,-1.4802959999999998,0.59429,0.367027
862,0.257004,0.925071,-0.279628,-1.012528,0.683968,0.337901
863,0.215825,0.944917,-0.246073,-0.5390520000000001,0.183913,0.477091
864,0.168068,0.966169,-0.195628,-0.0678629999999999,0.255098,0.597117
865,0.108096,0.978986,-0.172919,0.6022930000000001,1.141772,-0.289057
866,0.046264,0.984004,-0.172033,0.873597,1.303777,-0.5724130000000001
867,-0.022812,0.987462,-0.156202,0.392517,0.717952,0.123991
868,-0.1109049999999999,0.983663,-0.1418029999999999,-0.7122149999999999,0.428645,0.4140649999999999
869,-0.193879,0.973271,-0.1231,-0.469787,0.338816,0.100471
870,-0.257862,0.960881,-0.10107,0.18024,0.551036,-0.046132
871,-0.309836,0.947165,-0.082948,0.491218,0.2366579999999999,-0.055388
872,-0.354294,0.93315,-0.060884,0.503052,-0.18875,-0.099699
873,-0.393978,0.918506,-0.033587,0.467876,-0.527835,-0.090421
874,-0.425843,0.904783,-0.005064,0.488831,-0.66992,-0.144213
875,-0.447393,0.8940950000000001,0.02083,0.518224,-0.739188,-0.169877
876,-0.45853,0.8876959999999999,0.041801,0.602557,-0.7881319999999999,-0.245307
877,-0.459607,0.886279,0.057189,0.720395,-0.8941370000000001,-0.296157
878,-0.451767,0.8897639999999999,0.065012,0.872497,-0.893976,-0.3063599999999999
879,-0.437608,0.897229,0.058986,0.911195,-0.799085,-0.266231
880,-0.415701,0.908931,0.032212,0.8411620000000001,-0.518016,-0.040238
881,-0.381815,0.924205,-0.007889,0.381709,-0.211085,0.287353
882,-0.338527,0.940503,-0.029225,0.228557,0.8865850000000001,1.4137
883,-0.304931,0.951894,0.030241,-3.14621,3.165095,2.4885580000000003
884,-0.354068,0.935151,0.011361,-1.368771,0.396896,0.678214
885,-0.385364,0.922075,-0.035672,-0.274883,-0.5257729999999999,0.2334409999999999
886,-0.41165,0.908872,-0.067059,0.3744949999999999,-0.722699,0.040723
887,-0.405836,0.908361,-0.100886,1.00807,0.425959,-0.2977349999999999
888,-0.352405,0.926252,-0.133671,0.894244,0.601244,-1.000698
889,-0.320662,0.93791,-0.132288,0.317885,1.481752,-0.969427
890,-0.350317,0.929873,-0.112317,-0.5162760000000001,-0.032885,1.970853
891,-0.3588139999999999,0.924524,-0.128487,0.911152,-0.196572,0.3765179999999999
892,-0.328528,0.929946,-0.1651359999999999,1.241491,-0.446868,-0.781397
893,-0.267088,0.940875,-0.2083719999999999,1.330336,-0.706118,-0.473344
894,-0.186616,0.953087,-0.238328,1.188859,-0.5231859999999999,-0.420318
895,-0.137071,0.960148,-0.2435719999999999,-0.0251139999999999,0.601635,-0.058689
896,-0.114804,0.957448,-0.264788,-0.978717,1.05572,0.580523
897,-0.092467,0.951816,-0.2923989999999999,-1.118302,0.607755,0.414622
898,-0.0515889999999999,0.947666,-0.315067,-0.208085,-0.57053,0.078785
899,-0.008424,0.941531,-0.33682,0.274155,-0.63988,-0.219942
900,0.025176,0.933315,-0.358175,0.320573,-0.627285,-0.059244
901,0.057642,0.92574,-0.373741,0.161978,-0.519368,0.130241
902,0.09084,0.920698,-0.379558,-0.278508,0.8208489999999999,0.48466
903,0.120194,0.917279,-0.3796739999999999,-0.423676,0.641574,0.546132
904,0.155827,0.91056,-0.382883,-0.499958,0.164392,0.498224
905,0.188908,0.901531,-0.389302,-0.5970810000000001,-0.020824,0.146702
906,0.2214679999999999,0.892575,-0.392762,-0.629641,-0.011868,0.150163
907,0.257629,0.8838469999999999,-0.390439,-0.824081,0.284534,0.7036560000000001
908,0.287476,0.878308,-0.3820119999999999,-0.840867,0.284381,0.5601119999999999
909,0.309207,0.8775569999999999,-0.366448,-0.904254,0.317847,0.471429
910,0.323163,0.88075,-0.346188,-1.060025,0.289035,0.205121
911,0.327969,0.886869,-0.325422,-1.209927,0.257098,0.4504069999999999
912,0.324633,0.897667,-0.298006,-1.278613,0.333992,0.579973
913,0.303682,0.915931,-0.262388,-1.070238,0.738564,0.377104
914,0.273537,0.93674,-0.2183909999999999,-0.605172,0.234631,0.352501
915,0.233198,0.957697,-0.168625,-0.4537029999999999,0.130483,0.286652
916,0.169664,0.974293,-0.1482119999999999,0.481352,0.8921620000000001,-0.541683
917,0.095541,0.984389,-0.147821,0.780405,1.534609,-0.507193
918,0.011089,0.989905,-0.141297,0.049443,0.770654,0.1106109999999999
919,-0.0849159999999999,0.987479,-0.132943,-0.7756029999999999,0.391,0.426918
920,-0.170203,0.978563,-0.115954,-0.2423949999999999,0.408919,0.023837
921,-0.237332,0.966733,-0.095397,0.383542,0.443576,-0.016175
922,-0.292141,0.953176,-0.078168,0.491558,0.209636,0.0576299999999999
923,-0.3396969999999999,0.938642,-0.059636,0.4146939999999999,-0.433866,-0.078563
924,-0.384256,0.922518,-0.03616,0.426721,-0.586993,-0.17902
925,-0.4205979999999999,0.907206,-0.008634,0.485616,-0.587229,-0.233645
926,-0.44506,0.895301,0.0188909999999999,0.6175,-0.55709,-0.256211
927,-0.458153,0.887809,0.0434839999999999,0.675438,-0.596214,-0.292629
928,-0.4609569999999999,0.885167,0.063232,0.841878,-0.706654,-0.256423
929,-0.455167,0.8872190000000001,0.075269,1.043378,-0.8321959999999999,-0.255521
930,-0.4452359999999999,0.892594,0.070994,1.142349,-0.770783,-0.199198
931,-0.429313,0.902026,0.045172,0.909613,-0.595263,-0.023825
932,-0.40403,0.914679,0.011025,0.364921,-0.318534,0.328468
933,-0.366503,0.930405,-0.004777,0.093553,0.424652,1.409761
934,-0.326715,0.943971,0.04665,-3.147437,2.637007,2.743908
935,-0.3534489999999999,0.935241,0.019957,-1.389151,0.845093,0.722383
936,-0.371542,0.927649,-0.037727,-0.844614,0.1021659999999999,0.336661
937,-0.392948,0.916943,-0.069328,0.168888,-0.6125149999999999,0.171501
938,-0.391838,0.914517,-0.10061,0.6184609999999999,0.130405,-0.546713
939,-0.348916,0.927019,-0.137456,0.555932,0.547148,-1.701487
940,-0.317898,0.938096,-0.137537,0.320828,1.589644,-0.95371
941,-0.344038,0.932381,-0.110922,-0.402116,0.120644,1.529761
942,-0.359444,0.925999,-0.1154359999999999,0.251274,-0.371846,1.540637
943,-0.342064,0.928401,-0.1451329999999999,1.24984,-0.270122,-0.813272
944,-0.292988,0.93781,-0.186198,1.322453,-0.647817,-0.390783
945,-0.217867,0.948787,-0.228773,1.30797,-0.608775,-0.267092
946,-0.167349,0.955449,-0.2431289999999999,0.209494,0.402873,-0.104024
947,-0.14202,0.95453,-0.262112,-0.574655,0.8565360000000001,0.454281
948,-0.117673,0.949313,-0.291475,-0.865283,0.762677,0.492647
949,-0.079234,0.946524,-0.312753,-0.467214,-0.351401,0.105524
950,-0.034626,0.944267,-0.327354,0.037403,-0.45443,-0.208352
951,0.001285,0.939844,-0.341601,0.11807,-0.460688,-0.2354099999999999
952,0.032587,0.933187,-0.35791,-0.0779509999999999,-0.428442,0.118652
953,0.064722,0.926931,-0.369607,-0.206736,0.171122,0.371774
954,0.09532,0.922793,-0.37332,-0.267546,0.21475,0.39337
955,0.126517,0.915423,-0.3820909999999999,-0.398627,-0.001483,0.2556719999999999
956,0.154268,0.903427,-0.400027,-0.4205029999999999,-0.122177,0.212298
957,0.181111,0.8940049999999999,-0.409822,-0.451909,-0.039925,0.231356
958,0.214529,0.8894799999999999,-0.403488,-0.718115,0.4512489999999999,0.866409
959,0.244471,0.885381,-0.395391,-0.706858,0.357951,0.651311
960,0.2701929999999999,0.8869090000000001,-0.374683,-0.821478,0.387535,0.576527
961,0.290279,0.892067,-0.346346,-0.979396,0.3569719999999999,0.336946
962,0.298552,0.899523,-0.318943,-1.1728040000000002,0.300229,0.520435
963,0.290469,0.913264,-0.285615,-1.341723,0.447652,0.523912
964,0.262238,0.933615,-0.2441199999999999,-1.3253629999999998,0.533625,0.533168
965,0.233185,0.954598,-0.185385,-0.791092,0.205421,0.365179
966,0.197466,0.971679,-0.129793,-0.137041,0.278733,-0.105268
967,0.141086,0.983274,-0.115178,0.52966,1.217134,-0.81367
968,0.071727,0.990909,-0.113819,0.198461,0.930295,-0.2897
969,-0.0175069999999999,0.99374,-0.1103349999999999,-1.132502,0.554096,0.583693
970,-0.110632,0.988296,-0.105027,-0.733408,0.314224,0.177384
971,-0.1789869999999999,0.97977,-0.089521,0.181902,0.743985,-0.136615
972,-0.233946,0.969731,-0.069931,0.60478,0.401042,-0.133896
973,-0.283879,0.957497,-0.0511029999999999,0.545491,-0.16665,0.098634
974,-0.328545,0.943983,-0.030902,0.4570689999999999,-0.381849,-0.0482449999999999
975,-0.367158,0.93014,-0.0058509999999999,0.474229,-0.427577,-0.119378
976,-0.396817,0.917695,0.019302,0.477566,-0.666367,-0.179321
977,-0.4165439999999999,0.908208,0.040619,0.56991,-0.786,-0.1899559999999999
978,-0.426751,0.902635,0.055975,0.622979,-0.798784,-0.267705
979,-0.428019,0.901134,0.068975,0.69105,-0.807277,-0.32192
980,-0.422349,0.903218,0.0762809999999999,0.68538,-0.809361,-0.329226
981,-0.4107189999999999,0.909154,0.0689159999999999,0.938917,-0.775807,-0.288994
982,-0.389243,0.920232,0.040775,0.845648,-0.575567,0.018978
983,-0.357403,0.933947,0.002412,0.378109,-0.201006,0.268309
984,-0.315231,0.948749,-0.022459,0.207352,0.0874289999999999,0.569639
985,-0.287516,0.956962,0.039472,-3.176534,3.177071,2.919695
986,-0.3367,0.941371,0.021302,-1.637833,0.5576220000000001,0.671554
987,-0.368334,0.929371,-0.024492,-0.250898,-0.40012,0.124849
988,-0.394431,0.917445,-0.0521429999999999,0.329352,-0.410441,0.012042
989,-0.353773,0.929395,-0.1052099999999999,0.8352639999999999,0.365069,-0.779433
990,-0.305856,0.942259,-0.13638,0.694833,0.7713939999999999,-1.463824
991,-0.285993,0.949407,-0.129744,0.568632,1.116724,-0.285051
992,-0.307792,0.944751,-0.1127359999999999,0.07215,-0.4525939999999999,1.527104
993,-0.3022309999999999,0.944909,-0.125713,0.358917,-0.5337149999999999,0.8990739999999999
994,-0.259571,0.953068,-0.1558369999999999,0.8806799999999999,-0.240833,-0.788957
995,-0.197842,0.959099,-0.202454,0.949902,-0.304741,-0.330505
996,-0.132929,0.964817,-0.226843,0.817912,0.0140949999999999,0.039572
997,-0.095207,0.965777,-0.2412699999999999,-0.088158,0.5365270000000001,0.351255
998,-0.0684299999999999,0.959909,-0.27183,-0.783957,0.201346,0.246745
999,-0.035907,0.95406,-0.297455,-0.660809,-0.127095,0.081833
1000,0.002495,0.950625,-0.3103309999999999,-0.393013,-0.344531,-0.033968
1001,0.035024,0.947008,-0.319294,0.056269,-0.507753,-0.0668899999999999
1002,0.064945,0.942317,-0.32836,0.012172,-0.536479,0.192419
1003,0.09434,0.938591,-0.331885,-0.148127,-0.0595929999999999,0.332038
1004,0.117632,0.937192,-0.328381,-0.374697,0.179049,0.144024
1005,0.141902,0.933496,-0.329316,-0.398967,0.182745,0.144959
1006,0.167509,0.926071,-0.338133,-0.6246619999999999,0.0432899999999999,0.073744
1007,0.202239,0.916066,-0.346298,-0.594192,0.083201,0.273147
1008,0.245214,0.906786,-0.342943,-0.6686,0.016814,0.357317
1009,0.282426,0.896874,-0.34037,-0.712663,0.079169,0.678688
1010,0.305831,0.8885700000000001,-0.341922,-0.800932,0.258372,0.53786
1011,0.316929,0.885868,-0.338813,-1.04633,0.47073,0.3322969999999999
1012,0.324009,0.887819,-0.326797,-1.233067,0.4522239999999999,0.398635
1013,0.332357,0.893753,-0.301239,-1.2031459999999998,0.378189,0.6825399999999999
1014,0.331662,0.903228,-0.27236,-1.202451,0.368715,0.653662
1015,0.312788,0.918099,-0.2434309999999999,-1.13101,0.325432,0.4967569999999999
1016,0.287581,0.936347,-0.201372,-1.016127,0.150033,0.351915
1017,0.2540159999999999,0.955732,-0.148499,-0.572086,0.060564,-0.059814
1018,0.198743,0.971726,-0.127472,0.207812,0.985015,-0.6712640000000001
1019,0.1262049999999999,0.983483,-0.129741,0.251877,1.3469,-0.585041
1020,0.043979,0.990463,-0.130569,-0.02663,1.129105,-0.2897639999999999
1021,-0.049007,0.990708,-0.126868,-0.741124,0.454024,0.09249
1022,-0.134278,0.984839,-0.109822,-0.041046,0.660379,-0.176387
1023,-0.203024,0.975452,-0.085297,0.308264,0.802808,-0.2057949999999999
1024,-0.2601739999999999,0.963292,-0.066165,0.587124,0.178492,-0.032132
1025,-0.312601,0.948929,-0.042592,0.415888,-0.182907,-0.115046
1026,-0.359275,0.933135,-0.013437,0.395896,-0.302627,-0.116949
1027,-0.396916,0.91771,0.016302,0.546391,-0.5008100000000001,-0.2013599999999999
1028,-0.42331,0.904936,0.043591,0.716325,-0.593259,-0.259854
1029,-0.438058,0.896372,0.067993,0.761087,-0.63656,-0.271072
1030,-0.441202,0.89295,0.089339,0.786325,-0.7528739999999999,-0.291701
1031,-0.433868,0.894623,0.106813,0.938674,-0.803085,-0.331239
1032,-0.41897,0.901016,0.112403,1.25709,-0.781692,-0.175178
1033,-0.397673,0.913546,0.085387,1.339598,-0.666719,-0.138228
1034,-0.37421,0.926632,0.036325,1.048877,-0.590145,-0.170312
1035,-0.346203,0.938157,0.001993,0.290616,-0.401033,0.199073
1036,-0.294973,0.955114,0.027353,-1.14332,2.129496,3.424689
1037,-0.300107,0.953708,0.019413,-2.986697,2.9226810000000003,2.987027
1038,-0.319042,0.946533,-0.047822,-1.713657,1.22084,0.206284
1039,-0.346711,0.934834,-0.076657,-0.140075,-0.563619,-0.050372
1040,-0.366816,0.925927,-0.090033,0.14773,-0.574929,-0.100885
1041,-0.344681,0.930905,-0.120873,0.359741,-0.3709989999999999,-0.329658
1042,-0.2977619999999999,0.943719,-0.143986,0.573351,0.547309,-1.240459
1043,-0.281686,0.950709,-0.129638,0.0111939999999999,1.434805,0.155974
1044,-0.309811,0.943908,-0.114258,-0.409382,0.958695,0.583923
1045,-0.321084,0.939082,-0.122599,1.063927,-0.103266,0.156885
1046,-0.291587,0.942723,-0.162019,1.541602,-0.721593,-0.6311180000000001
1047,-0.226233,0.950264,-0.214047,1.567496,-0.836052,-0.347553
1048,-0.158142,0.958132,-0.238692,0.8409270000000001,-0.3018969999999999,-0.174012
1049,-0.1178319999999999,0.958353,-0.260146,-0.641079,0.8653930000000001,0.499663
1050,-0.083336,0.950284,-0.300025,-1.086891,1.060061,0.519355
1051,-0.0577779999999999,0.945925,-0.3191989999999999,-1.198204,0.011076,-0.109543
1052,-0.025549,0.945164,-0.3255949999999999,-0.332285,-0.501942,-0.136487
1053,0.0052049999999999,0.941111,-0.3380579999999999,0.1241589999999999,-0.5612739999999999,-0.101579
1054,0.037647,0.935116,-0.352337,0.170071,-0.592296,0.305584
1055,0.072681,0.92773,-0.366106,-0.013279,-0.058987,0.539537
1056,0.101265,0.920911,-0.376388,-0.102669,0.140628,0.565551
1057,0.126849,0.914229,-0.384832,-0.280474,0.336122,0.501165
1058,0.156897,0.905808,-0.393568,-0.4533439999999999,0.157867,0.310895
1059,0.1933369999999999,0.8975850000000001,-0.396185,-0.4265819999999999,0.108977,0.2226769999999999
1060,0.232212,0.8926559999999999,-0.386319,-0.555409,0.0493759999999999,0.4699529999999999
1061,0.265644,0.889956,-0.37069,-0.913944,0.309415,0.702996
1062,0.28962,0.889009,-0.354659,-1.076958,0.510512,0.27513
1063,0.29758,0.8914049999999999,-0.3418239999999999,-1.239306,0.367903,0.069897
1064,0.296615,0.895992,-0.3304829999999999,-1.420592,0.206868,0.4194569999999999
1065,0.294329,0.905429,-0.3058889999999999,-1.469515,0.2520719999999999,0.604412
1066,0.276017,0.919407,-0.2801889999999999,-1.1229559999999998,0.406429,0.463889
1067,0.242975,0.938879,-0.243862,-0.780115,0.326151,0.511684
1068,0.203029,0.960524,-0.190193,-0.51327,0.31119,0.377175
1069,0.147917,0.974766,-0.167188,0.510286,0.8593709999999999,-0.4722
1070,0.077795,0.983042,-0.1660589999999999,0.778254,1.238408,-0.574068
1071,-0.002201,0.987699,-0.156352,0.6637310000000001,1.29053,-0.115453
1072,-0.091283,0.984235,-0.151492,-0.74026,0.601672,0.442538
1073,-0.173493,0.974986,-0.13893,-0.358581,0.4535409999999999,0.043334
1074,-0.2434719999999999,0.962662,-0.118333,-0.070584,0.557647,-0.016585
1075,-0.29861,0.948666,-0.1042309999999999,0.309368,0.215976,0.002226
1076,-0.345921,0.933662,-0.092808,0.347554,-0.185249,0.024342
1077,-0.3902469999999999,0.917737,-0.073935,0.36182,-0.4513819999999999,-0.0751889999999999
1078,-0.426681,0.903157,-0.047437,0.4963979999999999,-0.615468,-0.178835
1079,-0.45133,0.8921530000000001,-0.019071,0.6412720000000001,-0.712603,-0.244418
1080,-0.463509,0.8860540000000001,0.008205,0.724221,-0.881187,-0.301708
1081,-0.463222,0.885705,0.030856,0.790874,-0.973916,-0.363955
1082,-0.452582,0.8905360000000001,0.045993,0.938009,-1.023944,-0.349917
1083,-0.437518,0.8978959999999999,0.048582,1.015293,-0.934136,-0.257841
1084,-0.421595,0.906434,0.025197,1.100626,-0.512529,-0.0721639999999999
1085,-0.398755,0.916915,-0.016187,0.770215,-0.205931,0.08949
1086,-0.370816,0.927462,-0.0480639999999999,0.509748,0.113935,0.320403
1087,-0.349703,0.936857,0.00244,-1.761839,3.498399,3.3195360000000003
1088,-0.401327,0.915935,0.00022,-1.891107,0.892934,1.23507
1089,-0.428039,0.902563,-0.046497,-1.208451,-0.14945,0.402057
1090,-0.442213,0.893642,-0.076499,-0.009264,-0.8723559999999999,0.283454
1091,-0.4429869999999999,0.889599,-0.111248,0.298074,-0.997219,-0.718952
1092,-0.407856,0.89618,-0.174682,0.8388260000000001,-0.6874100000000001,-0.936829
1093,-0.339013,0.915524,-0.216531,0.787408,0.089862,-1.293463
1094,-0.294871,0.943138,-0.153436,0.330836,3.176278,0.691522
1095,-0.317653,0.936697,-0.147291,-0.606206,1.83291,1.2174200000000002
1096,-0.338307,0.927613,-0.158371,0.6522720000000001,-0.592912,0.019821
1097,-0.305148,0.927654,-0.215273,1.593081,-0.819881,-0.465406
1098,-0.222236,0.936444,-0.271448,2.083472,-0.992551,-0.3982449999999999
1099,-0.150771,0.946633,-0.284876,1.096663,-0.327858,-0.237234
1100,-0.1246029999999999,0.94563,-0.300431,-0.049805,0.351413,-0.2116239999999999
1101,-0.100707,0.935134,-0.33968,-0.924638,1.103379,0.673741
1102,-0.074262,0.92489,-0.372913,-1.1783629999999998,0.398764,-0.198712
1103,-0.040724,0.922976,-0.382696,-0.1019,-0.790377,-0.076166
1104,0.0036409999999999,0.921549,-0.388245,-0.146265,-0.78895,-0.070617
1105,0.048964,0.919095,-0.3909809999999999,0.05359,-0.277921,0.41567
1106,0.0752559999999999,0.914568,-0.397368,-0.170974,0.127988,0.265135
1107,0.093139,0.908289,-0.407844,-0.4620359999999999,0.373465,0.206596
1108,0.1194349999999999,0.9005290000000001,-0.418071,-0.5713689999999999,0.167449,0.315853
1109,0.162321,0.892734,-0.420331,-0.3652019999999999,0.0552029999999999,0.445966
1110,0.208747,0.886426,-0.413126,-0.410956,0.125521,0.5497380000000001
1111,0.246315,0.8802459999999999,-0.405582,-0.686531,0.257709,0.4777409999999999
1112,0.277074,0.876503,-0.393665,-0.973394,0.354423,0.298297
1113,0.301181,0.876316,-0.37598,-1.114413,0.379208,0.275882
1114,0.31539,0.878309,-0.359308,-1.403052,0.139971,0.353083
1115,0.3186,0.881719,-0.347944,-1.428845,0.139048,0.450971
1116,0.31398,0.888624,-0.33431,-1.363128,0.216326,0.468725
1117,0.296781,0.902101,-0.313263,-1.009107,0.385756,0.512497
1118,0.272022,0.921932,-0.275764,-0.6242409999999999,0.2405739999999999,0.552238
1119,0.246192,0.9445,-0.217507,-0.4155029999999999,0.181995,0.525475
1120,0.207719,0.960789,-0.183677,0.4041119999999999,0.990612,-0.306252
1121,0.147917,0.972495,-0.179926,0.764436,1.605279,-0.526998
1122,0.072589,0.982907,-0.169185,0.738003,1.357959,-0.169026
1123,-0.013155,0.986364,-0.164049,-0.792509,0.521235,0.5018640000000001
1124,-0.093677,0.983109,-0.157227,-0.4635579999999999,0.335891,0.094864
1125,-0.1630349999999999,0.976259,-0.142611,-0.160314,0.418409,-0.024733
1126,-0.222935,0.966616,-0.126306,0.388615,0.249387,0.0274899999999999
1127,-0.27536,0.954696,-0.112838,0.389893,-0.073089,0.110565
1128,-0.324511,0.94073,-0.098591,0.3915119999999999,-0.251322,0.01746
1129,-0.369987,0.925825,-0.077182,0.3594739999999999,-0.5747359999999999,-0.168164
1130,-0.407155,0.911917,-0.051312,0.4797869999999999,-0.616232,-0.259998
1131,-0.433056,0.901044,-0.02414,0.555996,-0.63403,-0.297698
1132,-0.446258,0.894904,-0.000372,0.6827850000000001,-0.756629,-0.347314
1133,-0.448468,0.8936139999999999,0.018164,0.854367,-0.788496,-0.401313
1134,-0.442208,0.89649,0.027513,0.969049,-0.796072,-0.402376
1135,-0.432832,0.901251,0.020082,1.276109,-0.586202,-0.075792
1136,-0.4179489999999999,0.90843,-0.008543,0.8844559999999999,-0.512022,0.155332
1137,-0.3930329999999999,0.918858,-0.035001,0.504269,-0.305211,0.407605
1138,-0.35222,0.935912,0.003182,-0.790327,2.430498,2.379798
1139,-0.374129,0.927376,0.001072,-1.930253,2.026436,1.966183
1140,-0.390416,0.918141,-0.06777,-1.003231,0.7440140000000001,1.174154
1141,-0.394988,0.911225,-0.116851,0.245071,-0.043717,0.188002
1142,-0.379051,0.915256,-0.136482,0.58187,0.906323,-0.059594
1143,-0.349611,0.925601,-0.145033,0.461442,0.76051,-0.749255
1144,-0.3488989999999999,0.925281,-0.148741,0.4349739999999999,0.629498,-1.11107
1145,-0.3639179999999999,0.919844,-0.1464609999999999,0.084637,-0.7872140000000001,0.703666
1146,-0.361189,0.918656,-0.160044,0.583921,-0.615876,0.105051
1147,-0.33583,0.922442,-0.190577,0.761627,-0.5248430000000001,-0.4262899999999999
1148,-0.277591,0.931808,-0.233832,0.845432,-0.468917,-0.490838
1149,-0.195247,0.939889,-0.280157,0.763087,-0.476998,-0.444513
1150,-0.12765,0.946242,-0.2972059999999999,0.1225079999999999,1.102235,0.13676
1151,-0.092277,0.94408,-0.3165409999999999,-0.6266109999999999,0.830548,0.4462399999999999
1152,-0.05812,0.936635,-0.345451,-0.752808,0.23646,0.467582
1153,-0.01219,0.929922,-0.367554,-0.236086,-0.458212,-0.026687
1154,0.0307519999999999,0.921712,-0.386653,0.102564,-0.508123,-0.2059369999999999
1155,0.066541,0.91162,-0.405611,0.1244069999999999,-0.565673,-0.027311
1156,0.102244,0.905214,-0.412473,-0.176432,-0.210969,0.701902
1157,0.1336,0.9000940000000001,-0.414707,-0.29748,0.6084510000000001,0.404194
1158,0.152038,0.888915,-0.432106,-0.528091,0.276918,0.307334
1159,0.173052,0.875401,-0.45136,-0.680407,-0.1069529999999999,0.331258
1160,0.210042,0.8660770000000001,-0.4536449999999999,-0.609318,0.147992,0.4933939999999999
1161,0.2551449999999999,0.860101,-0.4417319999999999,-0.533924,0.320563,0.621786
1162,0.2901579999999999,0.854274,-0.431306,-0.401761,0.320928,0.733125
1163,0.313288,0.8538709999999999,-0.415638,-0.8102520000000001,0.337169,0.282902
1164,0.323714,0.857902,-0.399015,-1.116347,0.356926,0.028181
1165,0.3215639999999999,0.8648370000000001,-0.385557,-1.376663,0.231095,0.2090739999999999
1166,0.318065,0.8763569999999999,-0.361709,-1.498607,0.215623,0.680588
1167,0.305772,0.892911,-0.330473,-1.3710950000000002,0.3286,0.642256
1168,0.277499,0.911944,-0.302246,-0.75043,0.374601,0.46521
1169,0.247125,0.934027,-0.257919,-0.413415,0.2258389999999999,0.241973
1170,0.208504,0.955175,-0.210157,-0.234932,0.2928719999999999,0.2417889999999999
1171,0.151027,0.969452,-0.193269,0.7087600000000001,1.580734,-0.360564
1172,0.079485,0.978492,-0.190356,0.7059,1.259881,-0.236676
1173,-0.007305,0.982763,-0.184727,0.247189,0.8858590000000001,0.049244
1174,-0.097178,0.979423,-0.1768809999999999,-0.7784939999999999,0.342644,0.252854
1175,-0.180651,0.970106,-0.162047,-0.302305,0.4219989999999999,0.031309
1176,-0.2496409999999999,0.957913,-0.141713,0.065467,0.5354949999999999,0.042988
1177,-0.307035,0.94346,-0.124949,0.51637,0.097662,0.15182
1178,-0.358715,0.927215,-0.107689,0.5192220000000001,-0.216948,-0.045982
1179,-0.404492,0.91084,-0.0822,0.5164,-0.32092,-0.144668
1180,-0.4429649999999999,0.8951020000000001,-0.050746,0.542437,-0.6623140000000001,-0.200062
1181,-0.46926,0.882827,-0.020285,0.665122,-0.728774,-0.2060789999999999
1182,-0.4831819999999999,0.875511,0.0038229999999999,0.720639,-0.787285,-0.226815
1183,-0.48599,0.8737280000000001,0.020347,0.809735,-0.924265,-0.285697
1184,-0.479256,0.8771620000000001,0.030018,1.054634,-0.8025770000000001,-0.2575719999999999
1185,-0.466905,0.883913,0.0264079999999999,1.042283,-0.8093279999999999,-0.253963
1186,-0.446056,0.8950049999999999,-0.0007,0.8395040000000001,-0.434571,0.085432
1187,-0.416645,0.908296,-0.0374829999999999,0.522724,0.089934,0.506279
1188,-0.377145,0.924099,-0.0616669999999999,0.340707,0.6424300000000001,1.178656
1189,-0.357742,0.932881,-0.041872,-2.394943,2.432475,1.663713
1190,-0.385385,0.918657,-0.086881,-0.499167,-0.223619,0.159299
1191,-0.401789,0.906086,-0.132568,-0.482763,-0.211048,0.204986
1192,-0.41594,0.8956959999999999,-0.1572329999999999,0.355103,0.19491,-0.2740869999999999
1193,-0.394603,0.900176,-0.184313,0.265208,1.226166,-1.559095
1194,-0.362635,0.911596,-0.193617,0.2332409999999999,1.214746,-1.549791
1195,-0.377465,0.908413,-0.179739,0.047601,-0.135403,1.44364
1196,-0.399436,0.902128,-0.163146,1.6386330000000002,-0.523664,-0.258378
1197,-0.390784,0.901473,-0.186102,1.6426,-0.3713059999999999,-0.965631
1198,-0.338838,0.912652,-0.228596,1.366258,-0.410454,-0.792751
1199,-0.255388,0.924571,-0.2827469999999999,0.73311,0.215826,-0.314756
1200,-0.171434,0.931806,-0.319918,0.227525,0.7120989999999999,-0.446256
1201,-0.1317809999999999,0.92919,-0.345311,-0.23974,1.133157,-0.236827
1202,-0.109223,0.919981,-0.3764389999999999,-1.051651,-0.243909,0.15514
1203,-0.072014,0.91359,-0.400208,-1.088859,-0.237519,0.1789099999999999
1204,-0.025369,0.90886,-0.41633,0.202951,-0.588562,-0.2488159999999999
1205,0.0119049999999999,0.90214,-0.431278,0.2386449999999999,-0.684321,-0.154842
1206,0.045986,0.893467,-0.4467689999999999,0.07082,-0.573902,0.34542
1207,0.081956,0.885908,-0.456564,-0.009385,0.559725,0.518026
1208,0.109616,0.879287,-0.463506,-0.239759,0.397385,0.477987
1209,0.139021,0.8693799999999999,-0.4741859999999999,-0.407378,0.092428,0.473255
1210,0.173891,0.8576,-0.4840279999999999,-0.543642,0.157109,0.345067
1211,0.216163,0.848102,-0.483732,-0.620475,0.4907649999999999,0.486493
1212,0.263156,0.842569,-0.469922,-0.7034630000000001,0.393225,0.609067
1213,0.300119,0.83973,-0.452528,-0.999704,0.271201,0.49983
1214,0.3286989999999999,0.8418979999999999,-0.4279779999999999,-1.250726,0.323828,0.189971
1215,0.342496,0.846983,-0.40659,-1.48422,0.248002,0.324513
1216,0.342377,0.8542719999999999,-0.3911489999999999,-1.4784389999999998,0.285514,0.624487
1217,0.334496,0.8675709999999999,-0.368013,-1.095391,0.599028,0.483522
1218,0.3089119999999999,0.8895430000000001,-0.336582,-0.957823,0.6110220000000001,0.489231
1219,0.276363,0.916682,-0.288648,-0.333019,0.330434,0.4790779999999999
1220,0.241023,0.942031,-0.233421,0.194921,0.871705,0.074272
1221,0.190349,0.95922,-0.208959,0.466222,1.264825,-0.237452
1222,0.126006,0.972487,-0.195937,0.585236,1.028108,0.081236
1223,0.041835,0.98084,-0.19027,-0.504085,0.645976,0.371469
1224,-0.054839,0.980995,-0.186124,-0.737137,0.489983,0.343381
1225,-0.137354,0.975734,-0.170521,-0.1960049999999999,0.5633130000000001,0.051091
1226,-0.199547,0.969001,-0.1456619999999999,0.3282239999999999,0.317971,0.172289
1227,-0.251012,0.959536,-0.127605,0.452642,0.126966,0.210384
1228,-0.298915,0.947932,-0.109882,0.367244,-0.464671,-0.037854
1229,-0.346419,0.934312,-0.083999,0.390211,-0.6925060000000001,-0.062745
1230,-0.387438,0.9202,-0.055882,0.431231,-0.6783939999999999,-0.090862
1231,-0.4165529999999999,0.908592,-0.030726,0.698459,-0.731102,-0.356359
1232,-0.4337569999999999,0.901003,-0.007,0.650233,-0.7869430000000001,-0.448429
1233,-0.4384149999999999,0.8987059999999999,0.0109769999999999,0.573181,-0.7514890000000001,-0.3791719999999999
1234,-0.435347,0.900077,0.0183009999999999,0.652433,-0.737174,-0.116888
1235,-0.425088,0.905055,0.013274,0.969292,-0.558924,0.087007
1236,-0.405545,0.914027,-0.009367,0.94975,-0.567897,0.109648
1237,-0.371446,0.927612,-0.039542,0.519548,0.182541,0.955451
1238,-0.3277199999999999,0.943885,-0.041007,0.092628,1.023584,1.819129
1239,-0.301322,0.953372,0.016943,-1.98237,2.235578,2.930643
1240,-0.338669,0.94089,-0.005518,-1.3163,0.518598,0.6112609999999999
1241,-0.358444,0.931616,-0.060086,0.2409659999999999,-0.616552,0.047421
1242,-0.381548,0.919794,-0.091655,0.424471,-0.6415649999999999,-0.164296
1243,-0.377107,0.917274,-0.1280599999999999,0.82573,0.0661549999999999,-0.79496
1244,-0.325802,0.931251,-0.163172,0.722561,0.578271,-1.072195
1245,-0.287196,0.945199,-0.155295,-0.076467,1.883887,-0.292124
1246,-0.302528,0.941626,-0.147708,-0.847298,0.606653,1.363284
1247,-0.31792,0.934545,-0.159849,0.720569,-0.5293939999999999,0.5890479999999999
1248,-0.299226,0.934239,-0.194066,1.161027,-0.5294989999999999,-0.281902
1249,-0.23786,0.940659,-0.2420409999999999,1.537207,-0.913697,-0.511347
1250,-0.139079,0.951037,-0.276017,0.536265,-0.039111,-0.1477349999999999
1251,-0.0808,0.955657,-0.28318,-0.026256,0.451737,-0.0467459999999999
1252,-0.046873,0.949984,-0.308762,-1.201891,1.002745,0.572571
1253,-0.018175,0.939519,-0.342015,-0.741682,-0.342381,0.317875
1254,0.026181,0.933941,-0.356467,-0.309842,-0.418575,0.040824
1255,0.069295,0.927347,-0.367729,0.1829329999999999,-0.5176029999999999,-0.218788
1256,0.106518,0.919069,-0.37943,-0.03172,-0.481721,0.277577
1257,0.14481,0.912676,-0.382169,-0.2111699999999999,-0.303621,0.39488
1258,0.181915,0.906713,-0.380499,-0.357238,0.340236,0.199377
1259,0.2065489999999999,0.8977299999999999,-0.389125,-0.491583,0.274908,0.189845
1260,0.224951,0.8853840000000001,-0.406807,-0.707617,0.110649,0.260719
1261,0.2520179999999999,0.872367,-0.418883,-0.595997,0.179025,0.4976489999999999
1262,0.291434,0.8633059999999999,-0.41203,-0.57389,0.228079,0.679379
1263,0.325767,0.857398,-0.398427,-0.508216,0.239968,0.7339220000000001
1264,0.351933,0.85501,-0.38092,-1.013478,0.445847,0.424377
1265,0.374302,0.857776,-0.352304,-1.208424,0.397748,0.229852
1266,0.3840989999999999,0.86375,-0.3261969999999999,-1.347982,0.326573,0.386011
1267,0.384683,0.873807,-0.297454,-1.542963,0.587039,0.4269409999999999
1268,0.3673349999999999,0.890961,-0.266931,-1.432475,0.73973,0.2472469999999999
1269,0.336157,0.912398,-0.233514,-0.955359,0.341692,0.253411
1270,0.302167,0.934298,-0.189164,-0.312146,0.32411,-0.225082
1271,0.251208,0.955027,-0.157538,0.270566,1.267355,-0.362192
1272,0.183428,0.9712,-0.152066,0.4696939999999999,1.53617,-0.345523
1273,0.106338,0.982594,-0.152319,-0.278762,0.740383,0.137075
1274,0.013028,0.987944,-0.154266,-0.5404939999999999,0.361483,0.0912159999999999
1275,-0.075836,0.986961,-0.141972,-0.308365,0.440208,-0.059016
1276,-0.143321,0.982704,-0.117272,0.237575,0.421822,0.016747
1277,-0.197208,0.975402,-0.09849,0.36504,-0.249846,-0.0080159999999999
1278,-0.246446,0.965815,-0.080409,0.3710179999999999,-0.418238,-0.0289199999999999
1279,-0.2934719999999999,0.95412,-0.059399,0.321198,-0.5572699999999999,-0.036182
1280,-0.3334519999999999,0.94194,-0.039485,0.413591,-0.604034,-0.0779919999999999
1281,-0.361808,0.931993,-0.0220199999999999,0.478492,-0.6613319999999999,-0.1065049999999999
1282,-0.381234,0.924454,-0.006705,0.5793229999999999,-0.683747,-0.230234
1283,-0.392709,0.919638,0.006756,0.665247,-0.76,-0.3017849999999999
1284,-0.396549,0.917833,0.018226,0.732837,-0.796632,-0.282477
1285,-0.394217,0.918663,0.025518,0.830786,-0.729546,-0.181722
1286,-0.383762,0.923201,0.020659,0.8145479999999999,-0.5998060000000001,0.018068
1287,-0.363128,0.931737,0.001756,0.696335,-0.523412,0.140975
1288,-0.34094,0.939957,-0.015478,0.102262,0.001464,1.288396
1289,-0.301138,0.953578,0.002376,-2.276438,1.687154,2.357228
1290,-0.305202,0.952287,0.000271,-2.951023,2.116743,1.206104
1291,-0.323182,0.94512,-0.047971,-0.686325,0.259347,0.52345
1292,-0.347403,0.934398,-0.07881,0.073004,-0.67802,0.205961
1293,-0.36525,0.925254,-0.1024549999999999,0.090851,-0.668876,0.229606
1294,-0.337713,0.9301,-0.144445,0.729757,0.407531,-1.228632
1295,-0.287034,0.943185,-0.16737,0.628892,1.018775,-1.009693
1296,-0.277051,0.948354,-0.154488,0.1751069999999999,1.901133,-0.042992
1297,-0.305728,0.940926,-0.14556,0.828586,-0.075387,0.347174
1298,-0.303678,0.937254,-0.171271,1.167829,-0.337111,-0.519586
1299,-0.266777,0.940608,-0.209968,1.472831,-0.871074,-0.6791159999999999
1300,-0.185335,0.946465,-0.264303,1.149553,-0.761406,-0.338099
1301,-0.106248,0.952616,-0.285016,0.5598609999999999,-0.347681,-0.2328829999999999
1302,-0.0687059999999999,0.952956,-0.295221,-0.386128,0.56386,0.2498719999999999
1303,-0.040364,0.943813,-0.328006,-1.3023790000000002,0.812016,0.438876
1304,-0.0136389999999999,0.935123,-0.35406,-0.44533,-0.4115479999999999,0.2131
1305,0.0298879999999999,0.929032,-0.36879,-0.104092,-0.454637,0.033951
1306,0.0708159999999999,0.920869,-0.383386,0.368698,-0.612688,-0.05831
1307,0.101375,0.912937,-0.395309,0.059514,-0.368274,0.447052
1308,0.132455,0.906751,-0.400323,-0.17048,-0.0702179999999999,0.573755
1309,0.167908,0.899963,-0.402336,-0.359116,0.353211,0.269081
1310,0.200155,0.889784,-0.41015,-0.52181,0.075319,0.1811
1311,0.230131,0.877208,-0.421361,-0.571592,0.090199,0.241643
1312,0.265135,0.8662989999999999,-0.423356,-0.6696,0.347904,0.517807
1313,0.300789,0.859967,-0.41229,-0.799309,0.218982,0.734647
1314,0.329702,0.855809,-0.398606,-0.924612,0.280619,0.619355
1315,0.35647,0.856401,-0.373506,-1.089151,0.443267,0.193574
1316,0.3734989999999999,0.860658,-0.346073,-1.238535,0.38037,0.229282
1317,0.379131,0.866933,-0.323555,-1.322429,0.34193,0.429237
1318,0.372768,0.879609,-0.29552,-1.498882,0.60469,0.4264409999999999
1319,0.349599,0.899867,-0.260806,-1.05303,0.2954,0.555575
1320,0.320089,0.924648,-0.206323,-0.739293,0.172444,0.4601989999999999
1321,0.282188,0.947617,-0.149636,0.1042859999999999,0.5150140000000001,-0.129966
1322,0.222057,0.965658,-0.134889,0.4802899999999999,1.3762299999999998,-0.6737810000000001
1323,0.149416,0.97867,-0.140994,0.523085,1.352522,-0.4110689999999999
1324,0.069489,0.987356,-0.142476,-0.943863,0.65423,0.4465229999999999
1325,-0.018632,0.990439,-0.13669,-0.779235,0.360544,0.143206
1326,-0.092714,0.988173,-0.12214,-0.380141,0.497377,-0.0441649999999999
1327,-0.153517,0.982822,-0.102442,0.275419,0.3849309999999999,-0.042562
1328,-0.205645,0.974969,-0.084534,0.321535,-0.258141,0.007416
1329,-0.252044,0.965245,-0.069114,0.352782,-0.404621,-0.071877
1330,-0.295406,0.954181,-0.0476829999999999,0.38435,-0.663135,-0.192261
1331,-0.332396,0.942845,-0.023589,0.476805,-0.667287,-0.235139
1332,-0.359523,0.933136,-2.5e-05,0.5039319999999999,-0.657578,-0.258703
1333,-0.376606,0.92619,0.018425,0.5929300000000001,-0.7058989999999999,-0.297187
1334,-0.384883,0.922387,0.032661,0.694224,-0.688577,-0.332039
1335,-0.3854579999999999,0.921773,0.041898,0.781806,-0.693365,-0.359601
1336,-0.38111,0.923749,0.03798,1.031211,-0.584226,-0.16005
1337,-0.370341,0.92881,0.01268,0.573099,-0.4364689999999999,0.105424
1338,-0.348518,0.936893,-0.0276779999999999,0.261436,-0.2510719999999999,0.325346
1339,-0.310671,0.948849,-0.0562909999999999,-1.493101,2.486072,3.218355
1340,-0.2793449999999999,0.960175,0.0054909999999999,-3.134824,2.589035,3.033068
1341,-0.318457,0.947801,-0.016057,-2.18313,1.791243,1.452001
1342,-0.341598,0.937115,-0.071599,0.110076,-0.646755,0.200658
1343,-0.363919,0.926172,-0.098839,0.459485,-0.731042,-0.520897
1344,-0.356613,0.923864,-0.138932,0.7285159999999999,-0.4848229999999999,-0.739608
1345,-0.30496,0.932595,-0.193044,1.009153,0.461692,-0.804897
1346,-0.251188,0.947088,-0.199821,0.107374,1.882181,0.207694
1347,-0.246785,0.953202,-0.174649,-0.5138199999999999,1.671813,0.905835
1348,-0.264342,0.947097,-0.18202,0.726454,-0.115783,-0.318194
1349,-0.2493969999999999,0.945578,-0.209006,1.167381,-0.724478,-0.605218
1350,-0.199883,0.945997,-0.255219,1.350137,-0.92378,-0.506301
1351,-0.128083,0.949087,-0.2877989999999999,0.600938,-0.372961,-0.2106449999999999
1352,-0.0854299999999999,0.952243,-0.293148,-0.396991,0.475583,-0.007222
1353,-0.066602,0.951027,-0.301847,-0.784076,0.810096,0.292035
1354,-0.046429,0.944122,-0.32631,-1.129124,-0.0291899999999999,0.165437
1355,-0.0114709999999999,0.938063,-0.346275,-0.29784,-0.588911,-0.045403
1356,0.033498,0.931865,-0.361254,0.00088,-0.564174,-0.096631
1357,0.072964,0.92233,-0.379452,0.221851,-0.54588,0.172757
1358,0.107089,0.912736,-0.394266,-0.084734,-0.081834,0.51922
1359,0.138742,0.90416,-0.404036,-0.1584559999999999,0.24179,0.564666
1360,0.17425,0.895877,-0.408708,-0.372065,0.315244,0.387101
1361,0.215186,0.885201,-0.412448,-0.485069,-0.047418,0.245441
1362,0.252055,0.873626,-0.416228,-0.580134,-0.081619,0.261
1363,0.28543,0.86477,-0.413162,-0.863555,0.08805,0.428589
1364,0.321868,0.8569629999999999,-0.402511,-0.8433370000000001,0.4188699999999999,0.541321
1365,0.352003,0.852334,-0.386809,-0.85362,0.507041,0.5105430000000001
1366,0.375235,0.851319,-0.366681,-1.080908,0.2467639999999999,0.287915
1367,0.391549,0.8531559999999999,-0.344694,-1.269418,0.277825,0.258085
1368,0.3986909999999999,0.857454,-0.325298,-1.374247,0.35974,0.264507
1369,0.392052,0.867301,-0.306731,-1.501595,0.808511,0.200561
1370,0.36676,0.884653,-0.287882,-0.935379,0.306173,0.408869
1371,0.330448,0.907095,-0.260734,-0.8990670000000001,0.283731,0.381721
1372,0.282393,0.933332,-0.221689,-0.140303,0.3942739999999999,0.401086
1373,0.211929,0.957169,-0.197267,0.512207,1.575638,-0.3939809999999999
1374,0.136627,0.970314,-0.19956,0.5875090000000001,1.562493,-0.391687
1375,0.071282,0.978419,-0.193944,-0.035592,0.5637409999999999,0.214864
1376,-0.0045579999999999,0.983477,-0.180976,-0.5616800000000001,0.250196,0.223349
1377,-0.0821,0.982266,-0.168559,-0.484138,0.251407,0.2109329999999999
1378,-0.150748,0.977136,-0.1499329999999999,-0.140618,0.240729,0.070892
1379,-0.204983,0.969635,-0.133378,0.303494,-0.139435,-0.108215
1380,-0.251375,0.961149,-0.114033,0.349885,-0.130949,-0.1275589999999999
1381,-0.295077,0.951432,-0.087783,0.419131,-0.57039,-0.1092839999999999
1382,-0.3332699999999999,0.940974,-0.059151,0.480411,-0.63737,-0.145485
1383,-0.3619739999999999,0.931598,-0.033173,0.540624,-0.6145510000000001,-0.166762
1384,-0.382255,0.923988,-0.011298,0.602745,-0.7012550000000001,-0.2050409999999999
1385,-0.393123,0.919476,0.004334,0.759258,-0.73251,-0.239274
1386,-0.394421,0.918859,0.011419,0.861828,-0.75353,-0.243689
1387,-0.388283,0.92153,0.004314,0.987297,-0.613318,-0.00822
1388,-0.371721,0.928034,-0.024002,0.8799309999999999,-0.561869,0.075744
1389,-0.342577,0.937551,-0.060322,0.253191,-0.27207,0.42844
1390,-0.301262,0.950472,-0.076442,-1.422066,2.091169,2.967327
1391,-0.273505,0.961648,-0.020692,-2.990624,2.416373,2.70752
1392,-0.296976,0.953628,-0.048983,-1.363821,0.7536930000000001,0.696444
1393,-0.307243,0.945374,-0.108945,-0.011559,-0.467606,0.180418
1394,-0.317803,0.937011,-0.144957,0.5298390000000001,0.216691,0.081679
1395,-0.29662,0.938877,-0.174717,0.705647,0.534999,-0.4736439999999999
1396,-0.255691,0.945722,-0.2005809999999999,0.536697,0.8344450000000001,-1.455761
1397,-0.250862,0.945565,-0.207304,-0.343025,0.374336,0.733183
1398,-0.271209,0.941886,-0.198233,-0.546113,-0.005408,1.289252
1399,-0.267919,0.940843,-0.207445,1.2125290000000002,-0.455858,-0.4289989999999999
1400,-0.2409869999999999,0.94171,-0.234748,1.402715,-0.6761159999999999,-0.428612
1401,-0.180419,0.945075,-0.272548,1.331039,-0.771262,-0.363514
1402,-0.1005549999999999,0.947972,-0.302058,0.3985889999999999,0.016933,-0.416631
1403,-0.049761,0.949784,-0.308926,-0.456968,0.828888,-0.10445
1404,-0.0235639999999999,0.943573,-0.330325,-0.918315,1.168014,0.349749
1405,-0.00027,0.934127,-0.356941,-1.002843,-0.409621,0.314857
1406,0.0392529999999999,0.927324,-0.372197,-0.6480779999999999,-0.676515,0.11855
1407,0.084079,0.916904,-0.390151,0.033734,-0.575901,-0.172563
1408,0.117173,0.90479,-0.409421,0.0388019999999999,-0.356481,0.2126739999999999
1409,0.147396,0.8929239999999999,-0.4253949999999999,-0.067958,0.070516,0.4802659999999999
1410,0.180991,0.881237,-0.43665,-0.082358,0.38451,0.522374
1411,0.212925,0.869711,-0.44527,-0.472263,0.203989,0.5846279999999999
1412,0.249029,0.8594700000000001,-0.446427,-0.620199,0.162244,0.471421
1413,0.287657,0.8505719999999999,-0.440206,-0.596769,0.207183,0.353475
1414,0.326082,0.843706,-0.4264159999999999,-0.66942,0.160978,0.461267
1415,0.35873,0.841115,-0.404769,-0.941814,0.320368,0.6007680000000001
1416,0.387636,0.8417959999999999,-0.375656,-1.092653,0.4140479999999999,0.505096
1417,0.405867,0.844354,-0.349769,-1.272521,0.311652,0.2222199999999999
1418,0.409008,0.850223,-0.331412,-1.440441,0.46597,0.467414
1419,0.398352,0.8631479999999999,-0.310309,-1.429785,0.453045,0.4463109999999999
1420,0.370311,0.8848290000000001,-0.282751,-1.341732,0.4681229999999999,0.380453
1421,0.339363,0.908926,-0.242252,-0.5167609999999999,0.4055269999999999,0.257069
1422,0.302233,0.933561,-0.192663,-0.479631,0.380892,0.207479
1423,0.242577,0.953065,-0.181172,0.434318,1.425124,-0.6374310000000001
1424,0.170773,0.967239,-0.187842,0.620319,1.2182620000000002,-0.130685
1425,0.083822,0.979234,-0.184592,-0.332067,0.686888,0.3113619999999999
1426,-0.013226,0.984589,-0.1743839999999999,-0.482425,0.401993,0.074775
1427,-0.088889,0.984584,-0.150641,0.165778,0.493001,0.03031
1428,-0.144177,0.981893,-0.1228809999999999,0.2210659999999999,0.495692,0.002551
1429,-0.193618,0.975445,-0.10497,0.530013,-0.122097,0.037297
1430,-0.240448,0.966757,-0.086982,0.178788,-0.542257,-0.020867
1431,-0.285167,0.956262,-0.0651289999999999,0.226512,-0.579904,-0.047862
1432,-0.321362,0.945911,-0.044475,0.378567,-0.628544,-0.171681
1433,-0.345901,0.937908,-0.026093,0.4841609999999999,-0.737179,-0.196289
1434,-0.361225,0.932422,-0.0103069999999999,0.52782,-0.7700229999999999,-0.210701
1435,-0.367971,0.929835,0.001913,0.733113,-0.8991040000000001,-0.26325
1436,-0.3674719999999999,0.929995,0.008539,0.889933,-0.8679680000000001,-0.195688
1437,-0.361844,0.932234,0.003127,0.8615079999999999,-0.757368,-0.117491
1438,-0.347952,0.937307,-0.019628,0.4570369999999999,-0.521825,0.132376
1439,-0.324912,0.944434,-0.049756,0.105826,-0.010169,0.703687
1440,-0.288194,0.955653,-0.060596,-1.190184,2.187932,2.724933
1441,-0.264002,0.964427,-0.013531,-2.450476,1.972752,1.205196
1442,-0.290621,0.956167,-0.035842,-0.709577,0.184321,0.393996
1443,-0.3115969999999999,0.947075,-0.077181,-0.2363309999999999,-0.221519,0.311221
1444,-0.3368239999999999,0.936014,-0.102111,0.54825,-0.4561409999999999,-0.055024
1445,-0.332387,0.933442,-0.134925,0.935003,0.19493,-0.75155
1446,-0.280605,0.944067,-0.173199,0.8282889999999999,0.326334,-0.871296
1447,-0.239169,0.954448,-0.178402,-0.2154199999999999,1.7500349999999998,0.327221
1448,-0.247682,0.953194,-0.173423,-0.686004,0.968986,0.094703
1449,-0.263365,0.947762,-0.1799599999999999,-0.075151,-0.398782,0.939038
1450,-0.250372,0.946763,-0.20237,1.122229,-0.641053,-0.5985020000000001
1451,-0.203309,0.949869,-0.237517,1.098329,-0.804239,-0.524964
1452,-0.132462,0.953853,-0.269477,0.8968209999999999,-0.68156,-0.33152
1453,-0.079357,0.956668,-0.280158,-0.335117,0.453381,0.1016
1454,-0.044917,0.953331,-0.298568,-0.978215,1.183724,0.358504
1455,-0.014071,0.94661,-0.3220739999999999,-1.130064,0.8440700000000001,0.369712
1456,0.0288639999999999,0.940048,-0.339818,-0.256296,-0.4287569999999999,0.150442
1457,0.077062,0.931799,-0.3547,0.203547,-0.603049,-0.099905
1458,0.115435,0.922675,-0.3678929999999999,0.165174,-0.593924,-0.086712
1459,0.147403,0.911849,-0.3831489999999999,-0.152988,-0.3788289999999999,0.184617
1460,0.179538,0.8990950000000001,-0.399242,-0.311588,0.119429,0.4640609999999999
1461,0.208552,0.887415,-0.4110979999999999,-0.340601,0.131109,0.475917
1462,0.236131,0.8753129999999999,-0.421981,-0.391206,0.315849,0.44255
1463,0.26837,0.8622059999999999,-0.429626,-0.343901,0.313575,0.359008
1464,0.304426,0.8514700000000001,-0.426994,-0.3547349999999999,0.338075,0.332679
1465,0.340201,0.8446440000000001,-0.413328,-0.58013,0.280005,0.69589
1466,0.373403,0.8410059999999999,-0.391509,-0.956884,0.3538179999999999,0.429
1467,0.4001929999999999,0.841324,-0.363344,-1.203614,0.377456,0.145815
1468,0.412749,0.844999,-0.340021,-1.428817,0.323473,0.234323
1469,0.413458,0.85254,-0.319729,-1.562552,0.207228,0.485425
1470,0.4092179999999999,0.86415,-0.292891,-1.425545,0.6591199999999999,0.377211
1471,0.385957,0.88407,-0.263549,-1.185777,0.595133,0.343367
1472,0.355631,0.908397,-0.219867,-0.734019,0.248509,0.376102
1473,0.317102,0.933929,-0.164996,-0.205926,0.530122,0.184604
1474,0.258201,0.95459,-0.148628,0.4959949999999999,1.353485,-0.631111
1475,0.190839,0.968891,-0.157576,0.10303,0.867092,0.045775
1476,0.111159,0.981066,-0.158597,-0.5242600000000001,0.657957,0.334836
1477,0.021446,0.988125,-0.152146,-0.628533,0.389545,0.117127
1478,-0.052798,0.98891,-0.138812,-0.021634,0.541607,-0.01843
1479,-0.1137619999999999,0.986185,-0.120407,0.3271409999999999,0.160605,-0.001114
1480,-0.170405,0.979737,-0.105247,0.41511,-0.111116,0.0507279999999999
1481,-0.222792,0.970651,-0.090552,0.3725719999999999,-0.366129,-0.039041
1482,-0.269566,0.960311,-0.071676,0.393437,-0.452666,-0.083537
1483,-0.309962,0.949392,-0.050774,0.4477939999999999,-0.678335,-0.169883
1484,-0.341502,0.939387,-0.030481,0.4928079999999999,-0.738871,-0.1824859999999999
1485,-0.363161,0.931637,-0.012936,0.515733,-0.731258,-0.2108949999999999
1486,-0.3738869999999999,0.927474,0.0008539999999999,0.659485,-0.735305,-0.277084
1487,-0.374677,0.927112,0.009004,0.905683,-0.759646,-0.253633
1488,-0.368578,0.92958,0.005685,0.931978,-0.711348,-0.214685
1489,-0.353604,0.935321,-0.011747,0.655453,-0.5463140000000001,0.0597059999999999
1490,-0.32806,0.943845,-0.039153,0.167659,-0.287809,0.5382979999999999
1491,-0.295602,0.953323,-0.0615919999999999,0.130121,-0.028198,0.977928
1492,-0.252635,0.967167,-0.027611,-3.127812,2.620204,1.919243
1493,-0.275906,0.960144,-0.044717,-1.203403,0.53772,0.4920739999999999
1494,-0.298092,0.949978,-0.093182,-0.7217899999999999,0.036732,0.274502
1495,-0.321353,0.939427,-0.119201,0.460162,-0.201955,0.218703
1496,-0.316805,0.936918,-0.1477109999999999,0.912584,0.427843,-0.637888
1497,-0.2706,0.946482,-0.175918,0.7344970000000001,0.52564,-1.178498
1498,-0.252847,0.951779,-0.173741,-0.235571,0.814747,0.255665
1499,-0.271751,0.946621,-0.17338,0.394767,-0.5202439999999999,1.336253
1500,-0.28106,0.944043,-0.172593,0.404076,-0.517667,1.335465
1501,-0.257387,0.944583,-0.20375,1.130953,-0.518421,-0.754532
1502,-0.200139,0.948999,-0.243608,1.179113,-0.799585,-0.4149
1503,-0.1216069999999999,0.950984,-0.284325,1.068506,-0.648219,-0.2500679999999999
1504,-0.050147,0.951128,-0.304699,-0.140603,0.70027,-0.051335
1505,-0.015661,0.947278,-0.320029,-1.167566,0.7978850000000001,0.475745
1506,0.01052,0.939367,-0.342751,-1.193748,0.805796,0.498467
1507,0.051217,0.932268,-0.358124,-0.102395,-0.51636,0.019562
1508,0.101142,0.924456,-0.367629,0.198892,-0.493075,-0.212251
1509,0.140697,0.914924,-0.378309,0.1593369999999999,-0.483543,-0.201571
1510,0.173495,0.902976,-0.393107,-0.156039,-0.128043,0.261164
1511,0.209969,0.8905930000000001,-0.403432,-0.253975,0.070833,0.3496599999999999
1512,0.244473,0.880648,-0.4058219999999999,-0.372662,0.308271,0.41098
1513,0.273939,0.870345,-0.409215,-0.719694,0.043183,0.534154
1514,0.303268,0.8575889999999999,-0.415416,-0.635437,0.179246,0.196528
1515,0.333251,0.8457879999999999,-0.416638,-0.633742,0.354163,0.268673
1516,0.368478,0.837994,-0.40248,-0.667825,0.4284699999999999,0.708358
1517,0.399798,0.8330489999999999,-0.382349,-0.987917,0.4807479999999999,0.531794
1518,0.426099,0.8318180000000001,-0.355696,-1.115842,0.505356,0.279493
1519,0.439904,0.8347040000000001,-0.33129,-1.272744,0.420285,0.048499
1520,0.440289,0.840357,-0.316143,-1.582928,0.436972,0.565365
1521,0.432984,0.8518979999999999,-0.294611,-1.581253,0.6552279999999999,0.6335850000000001
1522,0.410238,0.8725299999999999,-0.265323,-0.869634,0.268751,0.279925
1523,0.379859,0.8966430000000001,-0.227461,-0.6269600000000001,0.140283,0.076292
1524,0.342066,0.923037,-0.1760509999999999,-0.4519289999999999,0.245329,-0.073216
1525,0.283516,0.947387,-0.148584,0.358009,1.568834,-0.444052
1526,0.2163389999999999,0.964643,-0.150536,0.253494,0.930529,-0.231957
1527,0.138926,0.97829,-0.153778,-0.2204539999999999,0.620282,0.050019
1528,0.047172,0.98766,-0.149337,-0.728859,0.3143869999999999,0.195068
1529,-0.039911,0.989235,-0.140785,-0.43392,0.447334,0.028251
1530,-0.111278,0.986155,-0.122942,0.00616,0.60523,-0.054777
1531,-0.167987,0.980192,-0.104896,0.370975,-0.042326,0.032387
1532,-0.221125,0.971313,-0.087492,0.333795,-0.343444,-0.102938
1533,-0.273285,0.959745,-0.064846,0.357239,-0.406827,-0.1398049999999999
1534,-0.319109,0.946878,-0.039895,0.425432,-0.5720149999999999,-0.188529
1535,-0.353826,0.93515,-0.01735,0.524267,-0.683228,-0.2099599999999999
1536,-0.377142,0.926156,0.000205,0.5458890000000001,-0.686074,-0.222373
1537,-0.3911239999999999,0.920265,0.011592,0.629374,-0.765099,-0.242472
1538,-0.3976159999999999,0.917419,0.0156099999999999,0.912783,-0.8630059999999999,-0.264557
1539,-0.398474,0.917147,0.007778,1.022467,-0.824892,-0.1947289999999999
1540,-0.389398,0.920888,-0.018293,1.011285,-0.648366,0.018613
1541,-0.366194,0.928474,-0.0619549999999999,0.440092,-0.368217,0.319631
1542,-0.334441,0.937305,-0.098024,0.2762739999999999,-0.22063,0.5870529999999999
1543,-0.2830789999999999,0.957261,-0.059301,-3.07802,2.545241,3.412557
1544,-0.293631,0.954849,-0.045202,-1.894693,1.291778,0.395727
1545,-0.311819,0.944217,-0.10594,-1.131556,0.384457,0.132124
1546,-0.329851,0.932608,-0.146424,0.216692,-0.4763699999999999,-0.331298
1547,-0.333446,0.924948,-0.18244,0.7731279999999999,0.2164849999999999,-0.676218
1548,-0.279037,0.934976,-0.218992,0.95346,0.606344,-0.488405
1549,-0.244498,0.94923,-0.197949,0.0455389999999999,1.111775,0.255643
1550,-0.273729,0.943928,-0.184587,-0.566237,-0.021748,1.330949
1551,-0.277039,0.939881,-0.199683,0.081315,-0.210892,0.76879
1552,-0.245361,0.942509,-0.226883,0.961837,-0.602833,-0.688096
1553,-0.183126,0.94376,-0.275284,1.33106,-0.659825,-0.0017239999999999
1554,-0.100435,0.946021,-0.308151,1.248369,-0.662085,0.031143
1555,-0.046943,0.947576,-0.316063,-0.15049,0.5147189999999999,0.168328
1556,-0.0185819999999999,0.940894,-0.338192,-0.903033,0.586557,0.5335810000000001
1557,0.008003,0.93114,-0.364573,-0.929619,0.59631,0.559962
1558,0.050259,0.922299,-0.383196,-0.405041,-0.372235,0.258058
1559,0.096724,0.913435,-0.395325,0.035341,-0.401533,-0.236755
1560,0.136119,0.902795,-0.407961,0.04128,-0.38653,-0.159681
1561,0.173024,0.888943,-0.42408,-0.143331,-0.439403,0.1356119999999999
1562,0.213223,0.876566,-0.431471,-0.252713,0.366521,0.431379
1563,0.2491239999999999,0.868108,-0.429331,-0.364633,0.378108,0.351008
1564,0.273608,0.853718,-0.443062,-0.6537649999999999,0.101864,0.37217
1565,0.289493,0.83657,-0.465128,-0.7676729999999999,0.13749,0.428903
1566,0.315795,0.824045,-0.4703449999999999,-0.77159,0.231467,0.49131
1567,0.35467,0.817343,-0.454047,-0.596781,0.46261,0.7284
1568,0.384007,0.811858,-0.439802,-0.925892,0.615831,0.5196970000000001
1569,0.405138,0.811445,-0.421212,-1.131029,0.550615,0.348657
1570,0.416335,0.818529,-0.395823,-1.395842,0.523756,0.4767399999999999
1571,0.416084,0.831591,-0.367872,-1.534081,0.584226,0.521452
1572,0.396302,0.85283,-0.340037,-1.617005,0.6557149999999999,0.404307
1573,0.359572,0.8798799999999999,-0.310675,-0.862425,0.293811,0.400244
1574,0.3201489999999999,0.90932,-0.265786,-0.5136609999999999,0.45976,0.34179
1575,0.258921,0.938364,-0.228984,-0.143611,0.995825,-0.027562
1576,0.166977,0.958696,-0.230264,0.587341,1.64627,-0.325659
1577,0.080315,0.969755,-0.230489,-0.155007,0.939822,0.040456
1578,-0.011082,0.977788,-0.209304,-0.486766,0.615535,0.200546
1579,-0.094099,0.979343,-0.178974,-0.110872,0.574291,0.112553
1580,-0.165034,0.975063,-0.1483809999999999,0.360224,0.39536,0.125538
1581,-0.227494,0.966784,-0.1165099999999999,0.52504,0.232328,0.0759669999999999
1582,-0.2847449999999999,0.954813,-0.085154,0.3536849999999999,-0.3684949999999999,-0.152365
1583,-0.340759,0.938874,-0.048979,0.426681,-0.497956,-0.139239
1584,-0.388604,0.921285,-0.014881,0.505333,-0.501912,-0.173015
1585,-0.425238,0.904944,0.015763,0.636496,-0.651618,-0.20456
1586,-0.451283,0.8913770000000001,0.042322,0.637638,-0.627949,-0.160684
1587,-0.4664399999999999,0.882351,0.062369,0.6661159999999999,-0.637478,-0.189948
1588,-0.473351,0.8775850000000001,0.076044,0.8862540000000001,-0.859931,-0.305064
1589,-0.473488,0.877222,0.079311,0.949669,-0.8926639999999999,-0.196606
1590,-0.4630859999999999,0.884035,0.0635059999999999,0.8506739999999999,-0.8357110000000001,-0.076248
1591,-0.44319,0.895964,0.028823,0.107726,-0.711592,0.354478
1592,-0.412584,0.910895,0.006741,0.041063,-0.3961699999999999,1.7036169999999995
1593,-0.36715,0.929709,0.0290279999999999,-1.147743,0.65072,2.878198
1594,-0.347085,0.937653,-0.018422,-1.29,1.769577,0.345082
1595,-0.340578,0.936991,-0.077815,-0.473509,0.280844,0.703623
1596,-0.354442,0.928514,-0.110605,-0.281148,-0.315751,0.116526
1597,-0.3576539999999999,0.920454,-0.157631,0.8348120000000001,-0.288893,-0.8250190000000001
1598,-0.30856,0.928086,-0.20844,0.969998,2.090362,0.2240199999999999
1599,-0.2585929999999999,0.948834,-0.181229,0.920031,2.069614,0.1968089999999999
1600,-0.279269,0.942929,-0.181365,-0.791089,0.480792,0.7727649999999999
1601,-0.295831,0.933901,-0.200782,1.242028,-0.520403,0.013511
1602,-0.264388,0.933444,-0.24245,1.2105860000000002,-0.519946,0.055178
1603,-0.197316,0.935424,-0.2933389999999999,1.737126,-0.991134,-0.210109
1604,-0.092149,0.935275,-0.3417139999999999,0.160111,-0.0689419999999999,-0.177069
1605,-0.04251,0.93457,-0.35323,-0.338075,0.28151,0.045323
1606,-0.004964,0.926757,-0.375629,-1.394924,0.970735,0.528903
1607,0.033156,0.911642,-0.409645,-0.867461,-0.268484,0.219796
1608,0.0811,0.903177,-0.421538,-0.915405,-0.260019,0.231688
1609,0.121916,0.8976850000000001,-0.423436,-0.011701,-0.5427350000000001,-0.226421
1610,0.150421,0.8893110000000001,-0.431857,-0.2263639999999999,-0.43321,0.305697
1611,0.169851,0.879556,-0.444446,-0.29302,-0.27398,0.326755
1612,0.187744,0.8639969999999999,-0.467185,-0.2205349999999999,0.3375869999999999,0.146994
1613,0.201248,0.8427319999999999,-0.499301,-0.362045,0.337413,0.582263
1614,0.22644,0.824634,-0.518366,-0.386886,0.228543,0.932764
1615,0.266542,0.816229,-0.512568,-0.058535,0.14477,0.653162
1616,0.306351,0.8064359999999999,-0.505777,-0.187104,0.337851,0.513223
1617,0.348509,0.8018350000000001,-0.485389,-0.5631550000000001,0.521881,0.422218
1618,0.386383,0.802367,-0.454879,-1.094162,0.495805,0.376632
1619,0.410749,0.8054279999999999,-0.427284,-1.246061,0.441551,0.300224
1620,0.417847,0.8107479999999999,-0.409989,-1.528016,0.128247,0.234467
1621,0.411236,0.8191470000000001,-0.399855,-1.594692,0.256903,0.6961649999999999
1622,0.401187,0.8353520000000001,-0.375814,-1.487292,0.581655,0.857793
1623,0.378956,0.861778,-0.33724,-0.989338,0.6309739999999999,0.725012
1624,0.356453,0.8903260000000001,-0.283303,-0.4488899999999999,0.200021,0.264504
1625,0.325218,0.918642,-0.224345,-0.08184,0.628065,-0.121419
1626,0.263481,0.942946,-0.203544,0.161492,1.172074,-0.3527
1627,0.181702,0.960962,-0.208652,0.102096,1.526983,-0.191022
1628,0.086187,0.97397,-0.209653,-0.476339,1.198103,-0.026156
1629,-0.014884,0.979859,-0.1991359999999999,-0.943657,0.469757,0.347711
1630,-0.099101,0.979651,-0.174535,0.148219,0.791131,0.1162769999999999
1631,-0.166182,0.974543,-0.150498,0.415724,0.215109,0.176179
1632,-0.225761,0.96537,-0.130738,0.370033,-0.055153,0.198213
1633,-0.278494,0.954062,-0.110483,0.16532,-0.468421,-0.058279
1634,-0.326393,0.941398,-0.08507,0.2808,-0.646247,-0.134001
1635,-0.366278,0.928695,-0.058009,0.37432,-0.671692,-0.198247
1636,-0.394156,0.918478,-0.032232,0.573538,-0.7162689999999999,-0.2308599999999999
1637,-0.410441,0.911828,-0.010364,0.660898,-0.8251280000000001,-0.261411
1638,-0.416222,0.909248,0.0053,0.7342920000000001,-0.8354870000000001,-0.308461
1639,-0.413821,0.91027,0.012657,1.041964,-0.949272,-0.322975
1640,-0.404791,0.914394,0.005323,0.969778,-0.682185,-0.114897
1641,-0.385687,0.922244,-0.026666,0.868674,-0.6400939999999999,0.007852
1642,-0.357718,0.931076,-0.071657,0.189597,-0.2711949999999999,0.402773
1643,-0.318141,0.942978,-0.09787,0.207515,0.0043939999999999,0.92189
1644,-0.28755,0.955667,-0.0633659999999999,-2.339159,2.8557490000000003,3.24258
1645,-0.3090219999999999,0.94604,-0.09754,-1.261275,0.473058,0.569144
1646,-0.438224,0.898834,-0.007559,-0.28283,-0.641113,0.645941
1647,-0.459576,0.887391,-0.036437,-0.0162539999999999,-0.967713,0.02249
1648,-0.455887,0.882659,-0.114371,1.53775,-0.610427,-0.740229
1649,-0.400705,0.8955190000000001,-0.193599,1.7802369999999998,0.009876,-0.5443319999999999
1650,-0.317865,0.93766,-0.140552,1.091898,2.556236,1.870151
1651,-0.284041,0.949142,-0.1358339999999999,-1.111329,3.378785,0.206848
1652,-0.319006,0.936941,-0.142745,-0.366343,0.180292,-0.051026
1653,-0.315996,0.933492,-0.169524,0.361025,-0.628835,0.30728
1654,-0.2615409999999999,0.935822,-0.236289,2.036611,-1.16858,-0.319558
1655,-0.177969,0.947808,-0.264552,1.40209,-0.976113,-0.495824
1656,-0.136013,0.952868,-0.27119,0.64407,-0.519609,-0.533559
1657,-0.124839,0.947746,-0.293587,-0.614632,0.4665609999999999,0.334801
1658,-0.1095759999999999,0.933545,-0.341301,-1.268384,1.201663,0.300697
1659,-0.079325,0.92191,-0.379195,-0.525732,-0.434514,-0.112626
1660,-0.03566,0.91568,-0.400323,0.230454,-0.79097,0.151086
1661,0.009978,0.913786,-0.406072,0.3300639999999999,-0.151534,0.5370229999999999
1662,0.042219,0.910864,-0.410542,0.036913,0.021769,0.568806
1663,0.070877,0.904405,-0.420747,-0.1525119999999999,0.325393,0.276292
1664,0.096519,0.896525,-0.432351,-0.34806,0.286169,0.162011
1665,0.12725,0.8879,-0.442087,-0.5402600000000001,0.005304,0.307077
1666,0.167705,0.8811969999999999,-0.442002,-0.662883,0.284666,0.635774
1667,0.21114,0.8753299999999999,-0.434992,-0.680531,0.20278,0.682566
1668,0.243748,0.872613,-0.423241,-0.8410540000000001,0.267569,0.475884
1669,0.2711969999999999,0.8744780000000001,-0.402169,-0.929308,0.36687,0.394875
1670,0.293157,0.879102,-0.375817,-1.123251,0.283816,0.29966
1671,0.300147,0.885128,-0.355612,-1.212592,0.243808,0.453696
1672,0.29244,0.895651,-0.335095,-1.386098,0.572397,0.482647
1673,0.264356,0.915101,-0.304476,-1.126676,0.436034,0.385393
1674,0.2310739999999999,0.936732,-0.262939,-0.569438,0.251378,0.319274
1675,0.193428,0.95806,-0.211439,-0.076576,0.636941,0.143507
1676,0.1347819999999999,0.973716,-0.183607,0.58197,1.350289,-0.4480159999999999
1677,0.064742,0.981591,-0.1796849999999999,0.7856609999999999,1.309104,-0.4435449999999999
1678,-0.0133099999999999,0.985172,-0.171053,-0.329402,0.8492700000000001,0.166765
1679,-0.104977,0.981445,-0.160455,-0.746967,0.450684,0.2002799999999999
1680,-0.193138,0.971257,-0.13913,-0.453759,0.4427899999999999,0.02443
1681,-0.262588,0.958575,-0.110368,0.468872,0.459958,0.042116
1682,-0.318239,0.943821,-0.089026,0.628679,0.027401,0.078375
1683,-0.369626,0.926633,-0.068759,0.595853,-0.2187469999999999,-0.060422
1684,-0.417376,0.907733,-0.042638,0.486941,-0.635013,-0.161845
1685,-0.4576199999999999,0.889019,-0.015144,0.556176,-0.718105,-0.189599
1686,-0.486441,0.873667,0.0090099999999999,0.6176050000000001,-0.70434,-0.1916119999999999
1687,-0.503641,0.863489,0.027075,0.663705,-0.703684,-0.225638
1688,-0.510372,0.858991,0.040666,0.823254,-0.7317640000000001,-0.346147
1689,-0.507486,0.860068,0.052345,0.820368,-0.732841,-0.357826
1690,-0.497718,0.8655010000000001,0.0564299999999999,1.068732,-0.6622239999999999,-0.2030829999999999
1691,-0.480077,0.876293,0.04045,0.936223,-0.59692,0.033829
1692,-0.4495189999999999,0.893202,0.011091,0.680141,-0.546797,0.209032
1693,-0.402398,0.915458,0.003597,0.433938,0.813973,1.698246
1694,-0.359083,0.930296,0.074885,-3.008776,3.4245620000000003,2.381139
1695,-0.400627,0.915206,0.043538,-1.835014,2.332993,1.278697
1696,-0.4301569999999999,0.90261,-0.016124,0.007397,-0.3951179999999999,0.194499
1697,-0.456263,0.8881,-0.0557029999999999,1.045908,0.28907,-0.393821
1698,-0.442035,0.8911,-0.102692,1.0316809999999998,0.28607,-0.346831
1699,-0.397377,0.908383,-0.130123,0.962822,0.919391,-1.177174
1700,-0.394743,0.909538,-0.130071,0.078657,0.322395,0.059377
1701,-0.413289,0.90154,-0.12813,-0.347773,-0.159658,0.449129
1702,-0.4032739999999999,0.903234,-0.146757,0.600433,-0.187307,-0.19089
1703,-0.3618949999999999,0.915586,-0.175311,0.887652,-0.314527,-0.47392
1704,-0.298035,0.930311,-0.213769,0.892091,-0.263547,-0.364829
1705,-0.228355,0.942908,-0.242444,0.6008979999999999,0.137033,-0.22655
1706,-0.184189,0.947354,-0.261905,-0.525909,0.573917,0.348941
1707,-0.1599549999999999,0.944337,-0.2874739999999999,-0.743746,0.3840469999999999,0.439101
1708,-0.130415,0.941265,-0.311467,-0.595659,-0.099453,0.428975
1709,-0.091423,0.93813,-0.333998,0.067772,-0.518254,0.113508
1710,-0.050573,0.934792,-0.351576,0.1648609999999999,-0.548959,-0.064363
1711,-0.0165979999999999,0.9298,-0.36769,0.180234,-0.325049,-0.084245
1712,0.0188139999999999,0.920881,-0.38939,-0.013809,-0.122419,0.2333849999999999
1713,0.060987,0.912716,-0.404018,-0.142881,0.053883,0.363125
1714,0.097649,0.907748,-0.407994,-0.476693,0.343702,0.431401
1715,0.1212029999999999,0.8966870000000001,-0.42575,-0.598299,0.1237289999999999,0.52423
1716,0.145193,0.882964,-0.4464229999999999,-0.639441,0.152284,0.586758
1717,0.179243,0.87771,-0.444406,-0.634473,0.196371,0.650781
1718,0.212418,0.8781620000000001,-0.428614,-0.763886,0.620815,0.6370939999999999
1719,0.2450099999999999,0.880531,-0.405753,-0.901901,0.538384,0.388831
1720,0.266494,0.884024,-0.384033,-1.3027799999999998,0.318139,0.3795929999999999
1721,0.270735,0.8916940000000001,-0.362745,-1.460584,0.425154,0.40756
1722,0.254343,0.907789,-0.333509,-1.531657,0.606859,0.398038
1723,0.220461,0.928799,-0.297875,-0.838625,0.3195989999999999,0.505211
1724,0.184172,0.950063,-0.251913,-0.18762,0.193888,0.694113
1725,0.135048,0.970087,-0.201725,0.124825,0.323156,0.410176
1726,0.071849,0.980626,-0.1822349999999999,0.809545,1.529276,-0.6169899999999999
1727,0.0069599999999999,0.983659,-0.1799059999999999,0.440488,0.944548,0.1236319999999999
1728,-0.071845,0.983675,-0.16499,-0.229516,0.70648,0.352444
1729,-0.161864,0.975544,-0.148705,-0.611757,0.253582,0.123864
1730,-0.237779,0.962913,-0.127515,0.048341,0.479546,-0.08063
1731,-0.294938,0.949794,-0.10442,0.311799,0.4147689999999999,-0.034404
1732,-0.340563,0.936648,-0.081899,0.482027,-0.4845,-0.0478769999999999
