,gravity.x,gravity.y,gravity.z,userAcceleration.x,userAcceleration.y,userAcceleration.z
0,-0.089737,0.991984,0.088931,0.518356,0.192281,-0.073367
1,-0.086386,0.991306,0.099215,0.225042,0.361096,-0.298068
2,-0.0832789999999999,0.990595,0.1085349999999999,0.098935,0.4198199999999999,-0.294951
3,-0.0788519999999999,0.990363,0.1138339999999999,0.005884,0.377969,-0.270435
4,-0.072905,0.990694,0.1149099999999999,0.085219,0.277891,-0.005306
5,-0.0672779999999999,0.991506,0.1112819999999999,0.2054619999999999,0.143809,0.361756
6,-0.061136,0.993066,0.10038,-0.009787,-8.499999999999999e-05,0.487175
7,-0.0550289999999999,0.995205,0.080834,-0.293207,0.041127,0.340446
8,-0.0515299999999999,0.997218,0.053809,-0.400619,0.163625,0.219324
9,-0.050691,0.998512,0.019953,-0.302962,0.272255,0.100271
10,-0.048627,0.998705,-0.014756,-0.30141,0.229581,0.077714
11,-0.047576,0.997603,-0.050194,-0.19925,0.171769,0.031548
12,-0.050794,0.995055,-0.085325,0.109372,0.033006,0.025068
13,-0.0561179999999999,0.991283,-0.119179,0.211315,-0.035716,0.034356
14,-0.060869,0.986812,-0.149973,0.139421,-0.034069,0.051111
15,-0.0677519999999999,0.981782,-0.177506,0.099399,-0.045457,0.101228
16,-0.0778659999999999,0.976086,-0.202949,0.073349,-0.104138,0.074851
17,-0.088684,0.969807,-0.2271679999999999,0.025619,-0.235035,0.10612
18,-0.098682,0.964216,-0.24606,-0.0266839999999999,-0.301145,0.153591
19,-0.106419,0.960597,-0.256758,-0.039593,-0.321223,0.1161789999999999
20,-0.110598,0.959539,-0.258938,-0.039533,-0.3800409999999999,0.061886
21,-0.113073,0.960877,-0.252836,-0.022196,-0.457413,0.023924
22,-0.115148,0.964142,-0.2390969999999999,0.003713,-0.4986569999999999,-0.019128
23,-0.1170359999999999,0.96821,-0.221063,0.0301519999999999,-0.305291,-0.16323
24,-0.117729,0.972041,-0.203156,0.022422,-0.173915,-0.1787109999999999
25,-0.115841,0.97467,-0.1913,0.022915,0.125458,-0.169189
26,-0.112165,0.975707,-0.1881779999999999,-0.041231,0.6490640000000001,-0.121148
27,-0.108768,0.976185,-0.187693,-0.122113,0.596463,-0.236394
28,-0.106897,0.976894,-0.185059,-0.1092279999999999,0.275746,-0.4219199999999999
29,-0.106363,0.976834,-0.1856819999999999,0.022928,0.268344,-0.378542
30,-0.108874,0.97449,-0.196242,0.064761,0.49281,-0.047456
31,-0.111516,0.969738,-0.2171809999999999,-0.14654,0.776584,0.314272
32,-0.112356,0.965736,-0.233934,-0.446131,0.144371,0.4256
33,-0.109242,0.965847,-0.234952,-0.339458,-0.379894,0.258374
34,-0.1065509999999999,0.969469,-0.220844,-0.037598,-0.38782,0.241046
35,-0.1047369999999999,0.972152,-0.2096329999999999,0.146591,-0.051025,0.2973409999999999
36,-0.105446,0.974012,-0.200444,0.130897,0.110919,0.349446
37,-0.104743,0.976226,-0.189756,0.075736,0.2770849999999999,0.4141829999999999
38,-0.099175,0.980323,-0.170667,-0.259285,0.104852,0.086285
39,-0.092149,0.984731,-0.14768,-0.224853,-0.097493,-0.027338
40,-0.08416,0.987593,-0.1325589999999999,-0.010048,-0.2681409999999999,0.093069
41,-0.076024,0.989199,-0.125301,0.044499,-0.260561,0.206646
42,-0.065595,0.99125,-0.114527,0.0606059999999999,-0.256264,0.232019
43,-0.0553009999999999,0.994036,-0.093962,0.068363,-0.2137929999999999,0.161818
44,-0.047188,0.996659,-0.066616,0.057274,-0.069688,0.040005
45,-0.0406339999999999,0.998446,-0.038075,0.045394,-0.033724,-0.014293
46,-0.033474,0.999373,-0.011297,0.00224,-0.125075,-0.103388
47,-0.029075,0.999462,0.014962,0.011284,-0.134655,-0.139916
48,-0.029105,0.998829,0.038567,0.0440889999999999,-0.109242,-0.1620869999999999
49,-0.032136,0.997831,0.057396,0.108064,-0.032697,-0.155937
50,-0.03675,0.996732,0.071889,0.087043,-0.021162,-0.22965
51,-0.043674,0.995615,0.082684,0.247943,-0.037836,-0.17294
52,-0.050848,0.994484,0.091707,0.211416,0.082512,-0.096071
53,-0.053226,0.993507,0.100522,0.259464,0.208092,-0.070035
54,-0.051374,0.992769,0.108468,0.2215099999999999,0.218795,-0.165276
55,-0.048274,0.99198,0.11679,0.094096,0.289209,-0.306899
56,-0.046066,0.991395,0.1225089999999999,-0.012192,0.405654,-0.168194
57,-0.041814,0.991302,0.124764,-0.112697,0.419251,-0.090173
58,-0.036194,0.991958,0.121255,-0.033172,0.22612,0.133383
59,-0.029483,0.993462,0.110263,0.1125829999999999,-0.0866779999999999,0.4420439999999999
60,-0.02242,0.995719,0.089644,-0.190608,-0.168875,0.546312
61,-0.017586,0.998028,0.060211,-0.531899,0.346592,0.178864
62,-0.016186,0.999601,0.0230389999999999,-0.4452239999999999,0.430667,0.117342
63,-0.0142199999999999,0.999761,-0.0164139999999999,-0.359453,0.46496,0.090114
64,-0.012532,0.998471,-0.053786,-0.127437,0.205661,-0.014573
65,-0.014775,0.995826,-0.0900379999999999,0.368367,-0.012336,-0.039463
66,-0.019639,0.992211,-0.122993,0.337846,0.024253,-0.023125
67,-0.026133,0.988082,-0.151677,0.193934,-7.6e-05,-0.024211
68,-0.037381,0.983071,-0.179358,0.102048,-0.112023,-0.022593
69,-0.049183,0.977499,-0.205114,0.045185,-0.167868,0.009862
70,-0.06187,0.971747,-0.227761,-0.00446,-0.293067,0.083367
71,-0.074125,0.966866,-0.244278,0.015104,-0.361351,0.124253
72,-0.084603,0.963689,-0.253264,0.043282,-0.396336,0.1040789999999999
73,-0.093709,0.96241,-0.254913,0.077351,-0.451851,0.120743
74,-0.100406,0.963497,-0.2481699999999999,0.064563,-0.536922,0.051911
75,-0.104448,0.966438,-0.234697,0.019869,-0.572991,-0.064512
76,-0.1058539999999999,0.970152,-0.218164,-0.017804,-0.4454939999999999,-0.136633
77,-0.103975,0.97371,-0.2026619999999999,-0.022581,-0.2274179999999999,-0.126668
78,-0.100828,0.975831,-0.193863,-0.057665,0.194381,-0.000275
79,-0.099133,0.975382,-0.196972,-0.220417,0.7595270000000001,-0.019031
80,-0.100161,0.974757,-0.1995289999999999,-0.2775849999999999,0.373403,-0.480326
81,-0.103238,0.975554,-0.193989,-0.12395,0.225038,-0.5525479999999999
82,-0.106177,0.975277,-0.193792,0.178794,-0.015805,-0.472087
83,-0.110488,0.971958,-0.207569,0.070983,0.35928,0.1064329999999999
84,-0.111501,0.966924,-0.2293909999999999,-0.118815,0.5373180000000001,0.361089
85,-0.1081369999999999,0.964148,-0.242323,-0.581637,0.6444340000000001,0.623549
86,-0.110991,0.967085,-0.228962,0.057646,-0.07382,0.198642
87,-0.114476,0.970494,-0.212209,0.200017,-0.13892,0.158452
88,-0.115854,0.972341,-0.202796,0.246896,-0.002752,0.2812719999999999
89,-0.1169559999999999,0.974309,-0.192454,0.192624,0.002284,0.310877
90,-0.116064,0.976979,-0.1789859999999999,0.026357,-0.016774,0.371933
91,-0.111045,0.980639,-0.1612819999999999,-0.364923,0.019346,0.097836
92,-0.104192,0.984506,-0.141021,-0.313213,-0.014993,0.0592179999999999
93,-0.093784,0.987755,-0.124662,-0.2161219999999999,-0.084648,0.063322
94,-0.07996,0.990328,-0.113369,-0.0865129999999999,-0.240038,0.159832
95,-0.066729,0.992912,-0.098326,0.058078,-0.353889,0.2796
96,-0.056649,0.995779,-0.072188,0.097328,-0.3225909999999999,0.238447
97,-0.049645,0.997951,-0.040305,0.1260609999999999,-0.060145,0.0044469999999999
98,-0.042842,0.999037,-0.009178,0.074337,-0.033323,-0.091225
99,-0.037667,0.999115,0.018542,0.046823,-0.078995,-0.11455
100,-0.036957,0.998415,0.042374,0.081849,-0.077059,-0.127792
101,-0.039846,0.997193,0.063343,0.100531,-0.068574,-0.15398
102,-0.045379,0.995634,0.081539,0.065338,-0.00311,-0.2451739999999999
103,-0.054183,0.993896,0.096068,0.036697,0.058595,-0.3418719999999999
104,-0.065721,0.991974,0.107982,0.079729,0.032714,-0.20219
105,-0.073976,0.990323,0.117391,0.247361,0.052157,-0.153844
106,-0.075824,0.989231,0.125161,0.382357,0.159374,-0.177224
107,-0.072251,0.988376,0.133734,0.370317,0.280423,-0.2221429999999999
108,-0.067302,0.987917,0.1395809999999999,0.094676,0.4800399999999999,-0.1559839999999999
109,-0.060214,0.98824,0.140526,-0.167294,0.512187,0.063438
110,-0.049326,0.989509,0.135756,-0.045599,0.205681,0.402346
111,-0.037332,0.992091,0.119801,-0.017859,-0.091731,0.576244
112,-0.026135,0.995052,0.095808,-0.365482,0.119175,0.358721
113,-0.0226409999999999,0.997777,0.0626159999999999,-0.435596,0.337367,0.16126
114,-0.023818,0.999409,0.024608,-0.37555,0.3922989999999999,0.034107
115,-0.025284,0.999601,-0.012264,-0.304505,0.21448,-0.003575
116,-0.027468,0.998387,-0.049615,0.027742,0.032695,-0.0077129999999999
117,-0.032114,0.995761,-0.086148,0.249185,0.004651,0.0172699999999999
118,-0.039332,0.992211,-0.118169,0.341563,0.01316,0.042303
119,-0.048561,0.988017,-0.146479,0.221016,-0.081691,0.032557
120,-0.057737,0.98404,-0.168298,0.128171,-0.166276,-0.042075
121,-0.069489,0.980097,-0.185942,0.072312,-0.21734,-0.0114
122,-0.081686,0.976108,-0.201328,0.054724,-0.3201179999999999,0.086872
123,-0.091542,0.972851,-0.2125429999999999,0.060307,-0.351803,0.114658
124,-0.098879,0.971122,-0.217112,0.086199,-0.496696,0.110422
125,-0.10297,0.971236,-0.214689,0.037419,-0.53015,0.005338
126,-0.105331,0.973195,-0.204424,0.055053,-0.5416,-0.0269149999999999
127,-0.104348,0.976665,-0.187696,0.066231,-0.5128739999999999,-0.108386
128,-0.0986799999999999,0.98065,-0.16906,-0.004408,-0.231535,-0.041786
129,-0.0906039999999999,0.983481,-0.1566799999999999,-0.061694,-0.077841,-0.018186
130,-0.084798,0.984029,-0.156488,-0.2633,0.421397,0.078486
131,-0.08288,0.98294,-0.164169,-0.459417,0.605164,-0.244934
132,-0.08639,0.983742,-0.157418,-0.324025,0.35572,-0.5113439999999999
133,-0.09181,0.984382,-0.1501849999999999,0.140684,0.070336,-0.762764
134,-0.095589,0.982849,-0.15768,0.216606,-0.113739,-0.204197
135,-0.100385,0.979107,-0.176819,0.073835,0.167118,0.1129609999999999
136,-0.100894,0.974799,-0.198944,-0.4422729999999999,0.848168,0.576477
137,-0.106823,0.973959,-0.199963,-0.283161,0.081659,0.314602
138,-0.119929,0.975739,-0.183149,0.030848,-0.115524,0.220457
139,-0.124519,0.976743,-0.174531,0.280769,-0.046674,0.173326
140,-0.119425,0.978072,-0.170603,0.228922,0.007051,0.222788
141,-0.113613,0.979467,-0.166522,0.163036,0.004161,0.299198
142,-0.108719,0.981062,-0.1602819999999999,-0.159576,-0.0766429999999999,0.432789
143,-0.1012639999999999,0.983436,-0.15031,-0.277856,0.001397,0.365413
144,-0.090829,0.986862,-0.133592,-0.4314949999999999,0.089752,0.178727
145,-0.076935,0.989963,-0.118518,-0.189636,-0.218265,0.059161
146,-0.062088,0.992132,-0.10869,-0.120422,-0.2594349999999999,0.11014
147,-0.050242,0.994156,-0.095519,-0.002675,-0.301925,0.23651
148,-0.041474,0.996605,-0.071084,0.137605,-0.208961,0.093972
149,-0.034539,0.998568,-0.04077,0.130455,-0.154544,0.018798
150,-0.030248,0.999461,-0.0124879999999999,0.126531,-0.093684,-0.0685669999999999
151,-0.029072,0.999495,0.01261,0.118565,-0.086668,-0.084586
152,-0.032839,0.998776,0.036889,0.103716,-0.104748,-0.100106
153,-0.0405839999999999,0.997366,0.060051,0.056728,-0.0344449999999999,-0.17524
154,-0.050682,0.995542,0.079498,-0.071556,0.074679,-0.262665
155,-0.062458,0.99372,0.092796,-0.0076709999999999,0.057046,-0.1975319999999999
156,-0.0726909999999999,0.992093,0.102267,0.1592849999999999,0.115023,-0.069628
157,-0.076161,0.990993,0.110109,0.362751,0.2487079999999999,-0.072923
158,-0.07326,0.990529,0.116087,0.3855159999999999,0.198909,-0.279753
159,-0.068571,0.990252,0.1212,0.167189,0.251188,-0.3618159999999999
160,-0.064239,0.990207,0.123914,0.046173,0.283856,-0.202344
161,-0.056874,0.990566,0.124638,-0.064601,0.305699,-0.0594059999999999
162,-0.048417,0.991522,0.120544,0.041504,0.148417,0.3862
163,-0.038637,0.993022,0.1113799999999999,-0.054838,-0.175471,0.436212
164,-0.030958,0.995689,0.087385,-0.372531,0.2043849999999999,0.306383
165,-0.026458,0.998059,0.056299,-0.399003,0.349201,0.232794
166,-0.022292,0.999585,0.017985,-0.2632,0.484042,0.076574
167,-0.014587,0.999666,-0.021091,-0.3630219999999999,0.345442,0.0077849999999999
168,-0.010392,0.99811,-0.0604899999999999,-0.235808,0.269376,0.03922
169,-0.011865,0.995246,-0.096621,0.156396,0.070626,-0.000349
170,-0.017193,0.991581,-0.128305,0.284588,0.06361,-0.092627
171,-0.02897,0.986605,-0.160505,0.220834,0.043241,-0.035891
172,-0.041495,0.980739,-0.190841,0.276679,-0.086239,0.003906
173,-0.053706,0.974889,-0.216101,0.151515,-0.301396,0.108953
174,-0.064885,0.969918,-0.2346099999999999,0.052907,-0.34951,0.2053289999999999
175,-0.076402,0.965991,-0.2470159999999999,-0.038786,-0.388629,0.131949
176,-0.088001,0.963569,-0.252553,-0.03265,-0.525291,0.050161
177,-0.09693,0.963434,-0.249782,-0.038568,-0.54162,0.04623
178,-0.102358,0.965866,-0.237944,-0.045744,-0.542373,0.014159
179,-0.104343,0.969959,-0.219734,-0.024762,-0.445759,-0.120247
180,-0.101778,0.974634,-0.199301,-0.032972,-0.3513429999999999,-0.154047
181,-0.096648,0.978314,-0.183169,-0.025468,-0.075208,-0.090009
182,-0.092611,0.979299,-0.179964,-0.124278,0.6676270000000001,0.012453
183,-0.089244,0.978082,-0.188101,-0.268971,0.921332,0.008337
184,-0.088985,0.978648,-0.185258,-0.2050969999999999,0.385732,-0.562804
185,-0.091712,0.979421,-0.17976,0.051154,-0.0388089999999999,-0.608219
186,-0.095644,0.977606,-0.187427,0.113314,-0.201544,-0.448681
187,-0.101403,0.973407,-0.205394,0.095544,0.002667,0.121242
188,-0.10224,0.970237,-0.219495,-0.316721,0.242135,0.317228
189,-0.10163,0.96943,-0.2233139999999999,-0.485879,0.352958,0.562075
190,-0.1076309999999999,0.971062,-0.21318,-0.01444,0.5240090000000001,0.333313
191,-0.1174579999999999,0.972629,-0.200468,0.245326,0.28265,0.332319
192,-0.1201869999999999,0.97416,-0.1912,0.373727,0.069678,0.394554
193,-0.117353,0.976443,-0.181049,0.057248,-0.093752,0.4342229999999999
194,-0.109763,0.980028,-0.165794,-0.188638,-0.163591,0.374031
195,-0.101353,0.983236,-0.151539,-0.368542,-0.123984,0.269963
196,-0.092289,0.985473,-0.142535,-0.374767,-0.02037,0.210589
197,-0.083035,0.987566,-0.133446,-0.2431969999999999,-0.066088,0.189721
198,-0.072806,0.989899,-0.121615,-0.129831,-0.110626,0.2070489999999999
199,-0.0612,0.992349,-0.107181,0.130948,-0.255655,0.140491
200,-0.051337,0.994506,-0.091168,0.165564,-0.2446429999999999,0.163999
201,-0.042786,0.996773,-0.067839,0.200256,-0.175041,0.05345
202,-0.03501,0.998595,-0.0396139999999999,0.161353,-0.130874,-0.12811
203,-0.0299,0.999461,-0.01308,0.136589,-0.081248,-0.206204
204,-0.029112,0.999507,0.011192,0.150557,-0.077525,-0.159294
205,-0.031455,0.998865,0.035601,0.178733,-0.086923,-0.151613
206,-0.035906,0.997661,0.0580549999999999,0.119585,-0.112346,-0.20222
207,-0.043829,0.996032,0.077372,-0.08587,-0.04724,-0.274454
208,-0.0571299999999999,0.993981,0.093403,0.0076459999999999,0.067466,-0.128834
209,-0.06928,0.992209,0.103475,0.2750599999999999,0.181268,0.096446
210,-0.073023,0.990942,0.112642,0.283625,0.166925,-0.031206
211,-0.070474,0.990184,0.120647,0.1536799999999999,0.0986679999999999,-0.294963
212,-0.067617,0.989556,0.127252,0.008703,0.237983,-0.338571
213,-0.063203,0.989329,0.13122,-0.237395,0.309712,-0.1395819999999999
214,-0.055998,0.98954,0.132894,-0.0356,0.38401,0.0362959999999999
215,-0.04755,0.990434,0.129486,0.219532,0.060363,0.599961
216,-0.036322,0.991783,0.122608,0.008429,0.004554,0.622631
217,-0.0267899999999999,0.99471,0.0991,-0.378896,0.151042,0.35668
218,-0.022295,0.997623,0.065097,-0.457731,0.332287,0.043896
219,-0.019941,0.99949,0.024665,-0.39638,0.340842,0.039528
220,-0.017637,0.999755,-0.012888,-0.322923,0.251054,0.075616
221,-0.0201389999999999,0.998663,-0.047474,0.196684,0.0595039999999999,-0.042309
222,-0.026935,0.996448,-0.079708,0.374744,0.0560419999999999,-0.008686
223,-0.036695,0.993455,-0.108113,0.395536,0.06903,0.002736
224,-0.0469199999999999,0.989603,-0.135913,0.198348,-0.194269,0.040927
225,-0.055246,0.985484,-0.16049,0.127207,-0.272823,0.09471
226,-0.061439,0.98143,-0.1816819999999999,-0.100747,-0.305725,-0.020253
227,-0.070132,0.976189,-0.2052449999999999,-0.086744,-0.2279739999999999,0.089492
228,-0.081118,0.970974,-0.224987,-0.037183,-0.233913,0.1074789999999999
229,-0.088734,0.967784,-0.235605,0.001332,-0.228679,0.080775
230,-0.094766,0.967115,-0.236005,0.004861,-0.360334,-0.003177
231,-0.097743,0.968381,-0.229509,0.015849,-0.5675319999999999,-0.040281
232,-0.098979,0.971052,-0.217373,0.042568,-0.470182,-0.101627
233,-0.10011,0.974303,-0.201744,0.101223,-0.3687269999999999,-0.082802
234,-0.098646,0.977516,-0.186335,0.038267,-0.112678,-0.085363
235,-0.095498,0.979412,-0.17782,-0.174292,0.708576,-0.070212
236,-0.0922549999999999,0.97914,-0.181002,-0.2465969999999999,0.880555,-0.13664
237,-0.093095,0.979314,-0.1796289999999999,-0.257323,0.6537890000000001,-0.348203
238,-0.099735,0.9797,-0.173867,0.086109,0.087378,-0.553794
239,-0.106478,0.978485,-0.1766849999999999,0.202974,-0.053833,-0.30917
240,-0.114114,0.975204,-0.1895859999999999,0.178277,0.099274,-0.1114849999999999
241,-0.117613,0.971433,-0.2060929999999999,-0.349856,0.500628,0.383415
242,-0.116198,0.968374,-0.220768,-0.626844,0.626688,0.661519
243,-0.1224789999999999,0.969958,-0.210165,-0.33443,0.390836,0.4693199999999999
244,-0.129038,0.972546,-0.193626,0.229212,-0.225171,0.334678
245,-0.12951,0.974581,-0.182773,0.179726,-0.142428,0.286259
246,-0.129115,0.976352,-0.1733589999999999,0.105769,-0.0291629999999999,0.278386
247,-0.127014,0.978314,-0.163576,-0.021835,-0.004101,0.404909
248,-0.12302,0.980952,-0.150292,-0.263333,0.0373589999999999,0.265816
249,-0.116788,0.984119,-0.133632,-0.285373,0.04707,0.154689
250,-0.106956,0.987206,-0.1182039999999999,-0.1633069999999999,-0.067986,0.040644
251,-0.093485,0.989685,-0.108498,0.031336,-0.204803,0.101021
252,-0.077977,0.991967,-0.0995429999999999,0.055303,-0.335183,0.2063239999999999
253,-0.064275,0.994556,-0.081944,0.073003,-0.331348,0.240513
254,-0.055223,0.99713,-0.051653,0.115724,-0.0294329999999999,-0.022413
255,-0.0487,0.998631,-0.018701,0.10203,-0.007848,-0.125998
256,-0.04258,0.999049,0.008518,0.079445,-0.051189,-0.188968
257,-0.040295,0.998725,0.030155,0.094052,-0.082923,-0.104069
258,-0.041668,0.997809,0.051235,0.10757,-0.099662,-0.112819
259,-0.046037,0.996455,0.070312,0.047014,-0.080469,-0.142623
260,-0.053403,0.994982,0.084516,-0.0529049999999999,-0.0134759999999999,-0.199033
261,-0.064765,0.993363,0.0949769999999999,0.06623,0.007019,-0.150778
262,-0.073524,0.992112,0.101448,0.118904,0.058394,-0.102196
263,-0.076084,0.991411,0.106306,0.295749,0.201079,-0.138151
264,-0.072834,0.99119,0.110553,0.3280679999999999,0.146231,-0.2401309999999999
265,-0.069428,0.990946,0.11485,0.200425,0.24581,-0.281232
266,-0.065809,0.990891,0.117421,-0.074526,0.407104,-0.076909
267,-0.0605799999999999,0.991347,0.1163849999999999,0.020297,0.364671,0.065744
268,-0.053942,0.992591,0.1088,0.133455,0.084039,0.379542
269,-0.04494,0.994711,0.092273,0.077273,-0.115225,0.592389
270,-0.03594,0.996981,0.068713,-0.390162,0.258085,0.375165
271,-0.031094,0.998849,0.036319,-0.4958689999999999,0.5143340000000001,0.146481
272,-0.026999,0.999628,-0.001392,-0.4493649999999999,0.429801,0.059666
273,-0.0252389999999999,0.998921,-0.038821,-0.354979,0.28944,0.087619
274,-0.027681,0.996788,-0.075058,-0.038237,0.01609,0.057266
275,-0.03272,0.993533,-0.108665,0.4633229999999999,-0.0536679999999999,0.121193
276,-0.035637,0.990044,-0.136123,0.2445909999999999,-0.039712,0.015961
277,-0.04645,0.985408,-0.163714,0.150377,-0.097438,0.021899
278,-0.0605799999999999,0.979944,-0.189813,0.072268,-0.164056,0.032983
279,-0.074433,0.974999,-0.2093469999999999,0.049881,-0.22715,0.050259
280,-0.085953,0.970952,-0.223281,0.060639,-0.317952,0.111357
281,-0.094986,0.967773,-0.233202,0.0522309999999999,-0.4353479999999999,0.092653
282,-0.102013,0.965783,-0.238425,0.01577,-0.461495,0.081977
283,-0.10505,0.965638,-0.237694,-0.058936,-0.467087,0.027687
284,-0.105499,0.967427,-0.230098,-0.0775759999999999,-0.4695789999999999,-0.0284779999999999
285,-0.105192,0.970563,-0.216637,0.003172,-0.38632,-0.150353
286,-0.102397,0.974079,-0.20168,0.0482579999999999,-0.22385,-0.041911
287,-0.098291,0.976311,-0.1927289999999999,0.004846,0.083747,0.0161389999999999
288,-0.09617,0.97654,-0.19264,-0.067389,0.321632,0.019804
289,-0.096676,0.975984,-0.195187,-0.208363,0.6537149999999999,-0.232257
290,-0.100118,0.976902,-0.1887569999999999,0.051931,0.374432,-0.565286
291,-0.105706,0.97635,-0.188563,0.154976,0.186858,-0.665029
292,-0.111224,0.972226,-0.2059,0.1905089999999999,0.160174,-0.145098
293,-0.116314,0.967264,-0.2255239999999999,-0.188664,0.34162,0.180526
294,-0.118523,0.962821,-0.242732,-0.342674,0.4439939999999999,0.368144
295,-0.119066,0.962707,-0.242915,-0.3442969999999999,0.2406309999999999,0.462138
296,-0.12507,0.966792,-0.222846,0.128396,-0.107646,0.21215
297,-0.129605,0.969345,-0.2087139999999999,0.295483,-0.152848,0.17548
298,-0.131788,0.970596,-0.201406,0.283491,0.036438,0.2666219999999999
299,-0.132429,0.97249,-0.191611,0.083296,0.050505,0.318031
300,-0.130218,0.975151,-0.179198,-0.036987,0.025398,0.305846
301,-0.123575,0.978701,-0.163897,-0.37464,0.031767,0.140261
302,-0.113674,0.982804,-0.14547,-0.282948,0.002471,0.040948
303,-0.100974,0.986006,-0.132601,-0.100244,-0.153624,0.057802
304,-0.08673,0.988841,-0.12107,0.06047,-0.234126,0.204932
305,-0.07371,0.991931,-0.103084,0.132258,-0.280948,0.175349
306,-0.063709,0.994925,-0.0778,0.160739,-0.258062,0.101634
307,-0.05552,0.997256,-0.048836,0.171059,-0.165865,0.00161
308,-0.048214,0.998618,-0.020565,0.0733299999999999,-0.1232369999999999,-0.072406
309,-0.044232,0.998996,0.005975,0.06683,-0.137164,-0.070001
310,-0.044959,0.998461,0.03223,0.090308,-0.123217,-0.09029
311,-0.049656,0.997219,0.055433,0.093647,-0.072689,-0.135679
312,-0.0580179999999999,0.995646,0.0728429999999999,0.020252,-0.000606,-0.159192
313,-0.069249,0.993985,0.084752,-0.064113,0.067035,-0.246388
314,-0.080693,0.992356,0.093287,0.007665,0.083023,-0.190912
315,-0.086694,0.991092,0.101013,0.363626,0.152875,-0.187347
316,-0.084981,0.990375,0.109173,0.563267,0.18002,-0.217297
317,-0.080441,0.989853,0.1170609999999999,0.459592,0.189133,-0.272899
318,-0.074958,0.9897,0.121888,0.13996,0.365127,-0.139543
319,-0.067385,0.990366,0.120899,-0.07707,0.366964,0.065136
320,-0.0586659999999999,0.991967,0.111997,-0.0590549999999999,0.05239,0.606005
321,-0.047893,0.994432,0.093785,-0.2408949999999999,0.0876,0.628612
322,-0.038068,0.99698,0.067567,-0.487887,0.224333,0.324004
323,-0.031813,0.998979,0.0318339999999999,-0.3991409999999999,0.323653,0.088284
324,-0.0261199999999999,0.999641,-0.004388,-0.381442,0.375603,0.105753
325,-0.0220229999999999,0.998968,-0.039542,-0.403087,0.367884,0.090629
326,-0.023306,0.996823,-0.076069,0.070807,0.12833,0.003895
327,-0.025441,0.993438,-0.11144,0.278462,-0.0064849999999999,0.0871779999999999
328,-0.028297,0.98988,-0.139008,0.129875,-0.069439,-0.026718
329,-0.038454,0.985577,-0.16476,0.257983,-0.117077,0.087932
330,-0.047608,0.981094,-0.187549,0.131211,-0.212265,0.070209
331,-0.05719,0.97704,-0.205205,0.091553,-0.332082,0.1299789999999999
332,-0.067823,0.974256,-0.214971,0.0554789999999999,-0.303526,0.134848
333,-0.080026,0.972608,-0.218214,0.042306,-0.4502239999999999,0.072813
334,-0.089615,0.972362,-0.215567,0.003159,-0.517864,0.0446839999999999
335,-0.096552,0.973688,-0.20639,-0.015112,-0.533121,0.035217
336,-0.101265,0.976488,-0.190273,-0.008583,-0.499667,-0.079594
337,-0.102183,0.980076,-0.170288,0.020503,-0.203907,-0.178039
338,-0.0983049999999999,0.982788,-0.156367,-0.005806,-0.082184,-0.193349
339,-0.0922559999999999,0.984182,-0.151201,-0.035933,0.062937,-0.012205
340,-0.08408,0.984697,-0.152608,-0.154247,0.5994550000000001,0.113301
341,-0.080195,0.985318,-0.150679,-0.27628,0.602588,-0.4366779999999999
342,-0.082691,0.985123,-0.15061,-0.260907,0.57219,-0.562678
343,-0.091816,0.982064,-0.164642,-0.027722,0.4600899999999999,-0.244461
344,-0.103128,0.975829,-0.192641,-0.103125,0.660035,0.297164
345,-0.114638,0.969902,-0.2147949999999999,-0.259675,0.666298,0.5148739999999999
346,-0.122387,0.96656,-0.2253239999999999,-0.377598,-0.22213,0.119123
347,-0.126226,0.967673,-0.218321,0.025838,-0.539985,0.26277
348,-0.124541,0.97028,-0.207447,0.11122,-0.510807,0.2671699999999999
349,-0.125581,0.971825,-0.199435,0.339463,0.007301,0.284869
350,-0.125737,0.973021,-0.193411,0.244573,0.336809,0.362036
351,-0.122494,0.97549,-0.1827609999999999,0.037395,0.329441,0.421713
352,-0.116999,0.980159,-0.159961,-0.262075,0.08843,0.174595
353,-0.109609,0.984367,-0.137824,-0.287181,-0.1148599999999999,-0.011575
354,-0.099039,0.987106,-0.125699,-0.239294,-0.121902,0.036252
355,-0.086051,0.989255,-0.118139,-0.124703,-0.150785,0.151968
356,-0.073804,0.991569,-0.106446,-0.003436,-0.261848,0.172868
357,-0.063096,0.994093,-0.088229,0.114168,-0.251082,0.159137
358,-0.053854,0.99643,-0.0649049999999999,0.162344,-0.1358349999999999,0.134668
359,-0.046022,0.998173,-0.038988,0.1158,-0.126987,-0.060072
360,-0.040074,0.999072,-0.015353,0.1047869999999999,-0.163287,-0.118467
361,-0.037381,0.999271,0.006758,0.110562,-0.185383,-0.144331
362,-0.038626,0.998795,0.030035,0.138846,-0.1143349999999999,-0.123358
363,-0.0444149999999999,0.997605,0.0528799999999999,0.145764,-0.084458,-0.152413
364,-0.053585,0.995925,0.0724419999999999,0.061657,-0.037566,-0.1824579999999999
365,-0.065297,0.993987,0.087807,-0.063838,0.03447,-0.065087
366,-0.075705,0.991961,0.101326,0.040808,0.0614759999999999,-0.0597309999999999
367,-0.080148,0.990362,0.112889,0.327478,0.122416,-0.015249
368,-0.078715,0.989309,0.122704,0.327388,0.219844,-0.265054
369,-0.075763,0.98844,0.131265,0.242664,0.335459,-0.298059
370,-0.070499,0.988264,0.135453,-0.038724,0.436144,-0.082459
371,-0.061077,0.989047,0.1343089999999999,-0.032414,0.382886,-0.005571
372,-0.050526,0.990483,0.127966,0.160984,0.226925,0.4437649999999999
373,-0.039386,0.992756,0.113436,-0.126874,-0.069661,0.4933149999999999
374,-0.030268,0.995465,0.090099,-0.282217,-0.0310029999999999,0.377033
375,-0.0256449999999999,0.997882,0.0596559999999999,-0.468496,0.1747109999999999,0.1701109999999999
376,-0.0230919999999999,0.999384,0.026121,-0.352991,0.307378,0.119052
377,-0.020261,0.999759,-0.007565,-0.31444,0.339902,0.112134
378,-0.019809,0.998823,-0.0441089999999999,-0.073391,0.206972,-0.015293
379,-0.023145,0.99669,-0.077844,0.049573,0.073363,0.014688
380,-0.030442,0.993889,-0.1060339999999999,0.128769,0.0074379999999999,0.025788
381,-0.039479,0.990723,-0.129987,0.235539,-0.118362,0.0276769999999999
382,-0.04684,0.987186,-0.152498,0.173473,-0.195927,0.043001
383,-0.054745,0.983599,-0.171824,0.119717,-0.2297989999999999,0.026561
384,-0.065496,0.979871,-0.188546,0.028081,-0.292493,0.059945
385,-0.078061,0.97653,-0.200708,0.01695,-0.313184,0.119424
386,-0.090745,0.974245,-0.206398,0.007905,-0.4134229999999999,0.104942
387,-0.100665,0.973413,-0.205724,0.02608,-0.509637,0.079015
388,-0.108049,0.974399,-0.197128,0.013566,-0.444934,0.04634
389,-0.113166,0.976862,-0.181441,0.007331,-0.410517,-0.01143
390,-0.1135579999999999,0.979874,-0.164126,-0.005826,-0.365571,-0.1053289999999999
391,-0.10724,0.982617,-0.151489,-0.0527179999999999,-0.070569,-0.1774599999999999
392,-0.097733,0.984214,-0.147503,-0.205841,0.503213,0.068936
393,-0.089011,0.983813,-0.1554819999999999,-0.3160949999999999,0.753446,0.077525
394,-0.087768,0.982308,-0.165393,-0.3750159999999999,0.687431,-0.401334
395,-0.092101,0.981497,-0.16783,0.170668,0.070703,-0.571001
396,-0.098204,0.980434,-0.170559,0.176772,0.071766,-0.568272
397,-0.106695,0.977632,-0.1812119999999999,0.156256,0.094435,-0.113389
398,-0.116553,0.973795,-0.1952559999999999,-0.258111,0.464239,0.100957
399,-0.1254,0.969105,-0.212361,-0.4888119999999999,0.412929,0.413411
400,-0.126026,0.967298,-0.22009,-0.595394,0.058551,0.478513
401,-0.125619,0.96953,-0.210281,-0.112479,-0.2086199999999999,0.4428859999999999
402,-0.122891,0.972022,-0.200143,0.173123,-0.2206179999999999,0.216332
403,-0.1212579999999999,0.973244,-0.195141,0.296002,-0.098442,0.232265
404,-0.118127,0.974866,-0.188862,0.222696,0.0611899999999999,0.357334
405,-0.113527,0.977404,-0.17827,0.064134,0.120115,0.4350449999999999
406,-0.107093,0.980965,-0.161942,-0.272149,0.084495,0.240921
407,-0.098848,0.984598,-0.144164,-0.308714,-0.07641,0.0068349999999999
408,-0.088679,0.987182,-0.132642,-0.22318,-0.133575,-0.003909
409,-0.074888,0.989293,-0.125211,-0.019823,-0.203511,0.139035
410,-0.059385,0.991944,-0.1118369999999999,0.117048,-0.195694,0.271016
411,-0.045144,0.995212,-0.08661,0.108803,-0.176807,0.188722
412,-0.033951,0.997797,-0.0568669999999999,0.110474,-0.174494,0.016309
413,-0.025452,0.999238,-0.029354,0.05246,-0.159699,-0.05457
414,-0.02088,0.999772,-0.002215,0.073904,-0.139405,-0.104963
415,-0.021164,0.999458,0.024914,0.116807,-0.081901,-0.1270099999999999
416,-0.0245449999999999,0.998531,0.048132,0.109277,-0.070629,-0.14678
417,-0.030749,0.997288,0.066744,0.067263,-0.05872,-0.168246
418,-0.041203,0.995737,0.082432,0.093342,0.034552,-0.184361
419,-0.052703,0.994206,0.093595,0.13179,0.08781,-0.0988899999999999
420,-0.057413,0.992969,0.103445,0.353723,0.155698,-0.036993
421,-0.055616,0.992105,0.1123319999999999,0.294294,0.156684,-0.20419
422,-0.05201,0.991119,0.122314,0.021996,0.269532,-0.39769
423,-0.04978,0.990199,0.130421,-0.07081,0.314702,-0.252232
424,-0.044685,0.989713,0.135842,-0.176628,0.342669,-0.1501549999999999
425,-0.039871,0.989851,0.1363369999999999,-0.023423,0.338183,-0.0352009999999999
426,-0.032764,0.990352,0.134577,0.196139,0.082783,0.463934
427,-0.024005,0.992615,0.1188289999999999,-0.133771,-0.114304,0.587515
428,-0.015025,0.99565,0.091857,-0.494313,0.20215,0.33542
429,-0.009719,0.998285,0.057579,-0.486299,0.300207,0.130272
430,-0.004973,0.999772,0.020393,-0.397615,0.328826,0.083169
431,-0.001545,0.9999,-0.01347,-0.37965,0.315896,0.067669
432,-0.003995,0.998827,-0.048105,-0.0404529999999999,0.165663,0.003961
433,-0.013237,0.996619,-0.081,0.2363199999999999,0.034387,-0.017556
434,-0.025992,0.993295,-0.1125859999999999,0.34722,-0.026956,0.012595
435,-0.0373379999999999,0.989093,-0.142434,0.1996609999999999,-0.120196,0.036507
436,-0.048849,0.984134,-0.1705279999999999,0.063376,-0.185398,0.023891
437,-0.061398,0.978777,-0.195481,-0.043155,-0.325533,0.1064
438,-0.074969,0.973667,-0.215265,-0.021894,-0.325932,0.143549
439,-0.085673,0.970301,-0.2261929999999999,-0.027348,-0.392558,0.121853
440,-0.094665,0.968678,-0.229543,0.030044,-0.50655,0.102086
441,-0.098998,0.969311,-0.2249969999999999,0.011367,-0.48933,0.085913
442,-0.101785,0.971675,-0.2132489999999999,-0.026206,-0.459483,-0.009209
443,-0.105024,0.974921,-0.19618,0.009855,-0.3572909999999999,-0.174731
444,-0.105956,0.978261,-0.17823,-0.002137,-0.27242,-0.2026599999999999
445,-0.10311,0.980754,-0.165763,0.01235,-0.0125989999999999,-0.232446
446,-0.097137,0.981415,-0.165454,-0.091172,0.654968,-0.074948
447,-0.090843,0.980104,-0.17644,-0.252145,0.759825,-0.040616
448,-0.091685,0.979332,-0.180252,-0.360036,0.582467,-0.455597
449,-0.098748,0.978873,-0.179008,0.057473,-0.06948,-0.665307
450,-0.107004,0.977153,-0.183602,0.192881,-0.148066,-0.49311
451,-0.1137059999999999,0.973893,-0.196447,0.089689,0.071167,-0.004236
452,-0.116272,0.970442,-0.2114489999999999,-0.489868,0.427263,0.488518
453,-0.118342,0.96795,-0.221485,-0.655752,0.4289159999999999,0.643558
454,-0.126215,0.969079,-0.2119989999999999,-0.221563,0.20951,0.483972
455,-0.132083,0.970627,-0.201061,0.278263,-0.054443,0.25935
456,-0.130908,0.971927,-0.195471,0.329379,-0.000354,0.29328
457,-0.127006,0.974047,-0.187323,0.243111,0.004759,0.272726
458,-0.1220349999999999,0.977216,-0.173619,0.049449,-0.112348,0.384206
459,-0.115677,0.980656,-0.15786,-0.151505,-0.069584,0.329094
460,-0.109501,0.983777,-0.1420529999999999,-0.3559219999999999,-0.026364,0.120904
461,-0.099586,0.986943,-0.126539,-0.305978,-0.038701,0.086867
462,-0.084457,0.990183,-0.111316,-0.177262,-0.173838,0.103504
463,-0.069008,0.993208,-0.0936039999999999,0.082146,-0.323713,0.157859
464,-0.056045,0.99592,-0.070628,0.141906,-0.312616,0.162165
465,-0.045542,0.998058,-0.042332,0.182199,-0.198802,0.090306
466,-0.0367529999999999,0.999242,-0.012249,0.1121009999999999,-0.083928,-0.138615
467,-0.032306,0.999364,0.014524,0.107074,-0.061071,-0.181317
468,-0.032901,0.998788,0.036373,0.111743,-0.062387,-0.171612
469,-0.036568,0.997839,0.054434,0.162407,-0.051046,-0.161002
470,-0.042782,0.996647,0.069628,0.152096,-0.045307,-0.208681
471,-0.051424,0.995207,0.083077,0.017748,0.00226,-0.2756889999999999
472,-0.061597,0.993653,0.094033,0.034604,0.024307,-0.134469
473,-0.0674169999999999,0.992361,0.103227,0.306721,0.123697,-0.0461279999999999
474,-0.065809,0.99151,0.112063,0.313795,0.1731319999999999,-0.16852
475,-0.057711,0.99271,0.105723,0.19739,0.304714,-0.2700599999999999
476,-0.053147,0.992387,0.1110119999999999,-0.066085,0.446089,-0.155538
477,-0.04601,0.992661,0.1117529999999999,-0.125148,0.393676,0.019015
478,-0.037247,0.993618,0.1063839999999999,0.020432,0.1499069999999999,0.44101
479,-0.027457,0.995422,0.09145,-0.008783,-0.011718,0.680187
480,-0.017747,0.997516,0.06803,-0.3796989999999999,0.157696,0.453272
481,-0.012331,0.999345,0.033769,-0.433302,0.315429,0.211883
482,-0.007911,0.999954,-0.003589,-0.422997,0.352356,0.029285
483,-0.004692,0.9993,-0.036912,-0.4070809999999999,0.328337,0.059113
484,-0.004488,0.997496,-0.070476,-0.202467,0.2277699999999999,0.032237
485,-0.010221,0.994661,-0.102623,0.295392,0.064544,0.01426
486,-0.021675,0.990812,-0.133449,0.352607,0.062762,0.09074
487,-0.035055,0.986256,-0.16142,0.315161,-0.078908,0.10925
488,-0.049329,0.981704,-0.183876,0.076017,-0.314178,0.058296
489,-0.064386,0.977638,-0.2001609999999999,0.023615,-0.357536,0.094753
490,-0.07823,0.974215,-0.2115949999999999,-0.0576799999999999,-0.395968,0.116853
491,-0.089424,0.971044,-0.221503,-0.04586,-0.378805,0.097175
492,-0.096736,0.968828,-0.22804,-0.0281259999999999,-0.376039,0.071103
493,-0.1000429999999999,0.968567,-0.227721,-0.031488,-0.3966369999999999,0.026808
494,-0.101823,0.97034,-0.219228,-0.002258,-0.486697,-0.016002
495,-0.102241,0.973382,-0.205091,0.031425,-0.491906,-0.103701
496,-0.100657,0.976586,-0.19009,0.03445,-0.377664,-0.197208
497,-0.0968779999999999,0.978822,-0.180303,0.066269,0.03665,-0.151408
498,-0.091472,0.979525,-0.179307,0.130489,0.263075,0.020509
499,-0.085327,0.978562,-0.187411,-0.18631,0.745894,0.05852
500,-0.088426,0.978021,-0.188794,-0.25244,0.4146939999999999,-0.5141020000000001
501,-0.095795,0.978308,-0.183644,0.076416,-0.0133569999999999,-0.589992
502,-0.103209,0.977341,-0.184773,0.099821,0.08194,0.014562
503,-0.11182,0.974752,-0.193244,-0.079235,0.265315,0.162864
504,-0.117629,0.971255,-0.20692,-0.233552,0.429151,0.33781
505,-0.121913,0.96813,-0.218748,-0.597905,0.720591,0.661864
506,-0.1332279999999999,0.968907,-0.208468,0.017444,-0.171513,0.297015
507,-0.141127,0.970567,-0.195119,0.218748,-0.220552,0.204213
508,-0.140986,0.971702,-0.18949,0.36027,-0.10839,0.244696
509,-0.1374119999999999,0.973206,-0.184328,0.2479309999999999,-0.040024,0.362657
510,-0.133529,0.975018,-0.177476,0.143035,-0.041089,0.420045
511,-0.12702,0.977903,-0.166011,-0.295572,0.051348,0.350765
512,-0.119523,0.981689,-0.148287,-0.4099569999999999,0.036271,0.169115
513,-0.107668,0.985676,-0.1297569999999999,-0.352278,-0.01389,0.1198849999999999
514,-0.093007,0.988606,-0.118298,-0.0562549999999999,-0.205892,0.161298
515,-0.078771,0.991081,-0.107428,0.047216,-0.231971,0.259314
516,-0.066959,0.993801,-0.088676,0.068622,-0.23344,0.256767
517,-0.057458,0.996391,-0.06237,0.132333,-0.168434,0.0505139999999999
518,-0.04954,0.998137,-0.035413,0.117914,-0.100051,-0.046374
519,-0.044798,0.998941,-0.009817,0.098768,-0.063775,-0.093699
520,-0.045004,0.998888,0.013483,0.141043,-0.0586419999999999,-0.133295
521,-0.048897,0.99821,0.034216,0.167595,-0.096339,-0.1023
522,-0.05483,0.997091,0.052788,0.104849,-0.1041319999999999,-0.133751
523,-0.063198,0.995545,0.069855,-0.050815,-0.040085,-0.240112
524,-0.074861,0.993727,0.082985,-0.067412,-0.022291,-0.106545
525,-0.084533,0.9921,0.092608,0.173034,0.011303,0.063611
526,-0.0874139999999999,0.991081,0.100506,0.397732,0.1221849999999999,-0.060833
527,-0.0849,0.990518,0.10794,0.191269,0.317557,-0.34912
528,-0.082734,0.990183,0.112598,0.07042,0.357321,-0.304035
529,-0.077665,0.990302,0.115127,-0.161151,0.363717,-0.086349
530,-0.070372,0.991225,0.111823,0.102996,0.158952,0.416559
531,-0.060854,0.992929,0.101846,0.195681,0.068564,0.593314
532,-0.0488279999999999,0.995292,0.083641,-0.078186,0.069421,0.576545
533,-0.038646,0.997585,0.057583,-0.325963,0.27541,0.27155
534,-0.032822,0.999199,0.022565,-0.349548,0.35073,0.1134369999999999
535,-0.0276209999999999,0.999512,-0.014152,-0.370786,0.43956,0.138892
536,-0.025666,0.998368,-0.05089,-0.197067,0.171722,0.022508
537,-0.03011,0.995828,-0.086071,-0.008037,0.103629,0.0016129999999999
538,-0.039822,0.992092,-0.118977,0.28349,0.024189,0.009571
539,-0.049031,0.987726,-0.148268,0.208867,-0.035226,0.111311
540,-0.057934,0.982965,-0.174391,0.153881,-0.084238,0.062407
541,-0.0695409999999999,0.977218,-0.200497,0.067161,-0.195113,0.0742299999999999
542,-0.083145,0.971099,-0.223706,0.04425,-0.323607,0.13342
543,-0.095002,0.965823,-0.241144,0.056764,-0.2772699999999999,0.1646359999999999
544,-0.104718,0.962135,-0.251637,0.0397,-0.2955239999999999,0.151097
545,-0.112897,0.959687,-0.257384,0.0430269999999999,-0.465394,0.079512
546,-0.116459,0.959351,-0.257048,0.007251,-0.468232,0.0688309999999999
547,-0.116319,0.961326,-0.249625,-0.019271,-0.465812,-0.0498129999999999
548,-0.1143859999999999,0.964384,-0.238475,-0.016,-0.44264,-0.091603
549,-0.1108339999999999,0.967712,-0.2263599999999999,-0.017553,-0.204834,-0.0472
550,-0.107246,0.97008,-0.217792,-0.069573,0.204282,-0.008175
551,-0.1069069999999999,0.969868,-0.218898,-0.1303359999999999,0.493633,0.015025
552,-0.110716,0.968913,-0.221223,-0.183215,0.600011,-0.275359
553,-0.1165119999999999,0.969706,-0.2146739999999999,0.026378,0.32076,-0.558
554,-0.123766,0.968912,-0.2142,0.28879,0.080709,-0.453967
555,-0.131805,0.964386,-0.229298,0.332779,0.147751,-0.272105
556,-0.13947,0.957746,-0.251519,-0.201534,0.692126,0.280632
557,-0.143325,0.951241,-0.2731119999999999,-0.434342,0.63932,0.6875100000000001
558,-0.1403849999999999,0.952081,-0.271709,-0.47697,0.138465,0.4680439999999999
559,-0.137182,0.957857,-0.252354,0.010641,-0.364946,0.276158
560,-0.1347,0.961921,-0.237813,0.263607,-0.391715,0.189641
561,-0.138594,0.962751,-0.232148,0.331892,-0.192366,0.2489019999999999
562,-0.142676,0.96305,-0.228405,0.31655,0.1552059999999999,0.5316890000000001
563,-0.14192,0.965998,-0.2160949999999999,0.014204,0.228765,0.518997
564,-0.138465,0.971794,-0.190877,-0.22503,0.2141489999999999,0.318578
565,-0.131914,0.977027,-0.167352,-0.286055,-0.107582,-0.037482
566,-0.119157,0.980645,-0.155328,-0.175842,-0.2050409999999999,0.087014
567,-0.1037119999999999,0.983912,-0.145438,-0.132906,-0.243052,0.186698
568,-0.089172,0.987916,-0.126729,0.045395,-0.281404,0.16512
569,-0.077035,0.991858,-0.101355,0.153421,-0.036765,0.086722
570,-0.066002,0.995015,-0.074695,0.175393,-0.044514,0.0584289999999999
571,-0.054699,0.997287,-0.049157,0.119351,-0.137698,-0.017875
572,-0.046789,0.998567,-0.025763,0.082906,-0.195497,-0.02302
573,-0.043985,0.999024,-0.002238,0.0950559999999999,-0.129349,-0.043767
574,-0.046063,0.998787,0.017074,0.07829,-0.028694,-0.091537
575,-0.051452,0.998204,0.0305079999999999,0.008148,0.029705,-0.06452
576,-0.057941,0.997571,0.038524,-0.005871,0.010333,-0.092417
577,-0.064321,0.996835,0.046598,0.078923,-0.0152979999999999,-0.058362
578,-0.06832,0.996065,0.0563549999999999,0.254279,0.132246,-0.125721
579,-0.0685009999999999,0.995432,0.066421,0.408894,0.244375,-0.193114
580,-0.066439,0.994744,0.077838,0.296617,0.300162,-0.232974
581,-0.062104,0.994182,0.0879409999999999,0.2921,0.361058,-0.120214
582,-0.055019,0.994044,0.09401,0.168468,0.418126,0.0352769999999999
583,-0.046145,0.994467,0.094314,0.063769,0.377924,0.218186
584,-0.0364339999999999,0.995599,0.086278,-0.08054,0.1191619999999999,0.377467
585,-0.0279089999999999,0.997275,0.068204,-0.223648,0.0156639999999999,0.334354
586,-0.022964,0.998875,0.041348,-0.377762,-0.0714009999999999,0.30553
587,-0.020394,0.999729,0.010747,-0.451225,0.102307,0.209453
588,-0.01838,0.999614,-0.020584,-0.413001,0.223531,0.159638
589,-0.017426,0.998461,-0.052555,-0.297592,0.372923,0.055424
590,-0.019476,0.995997,-0.087185,-0.0690559999999999,0.219167,0.060742
591,-0.023129,0.992538,-0.119684,-0.014163,0.097916,0.128244
592,-0.0308829999999999,0.988627,-0.14715,0.1877579999999999,-0.182612,0.0839179999999999
593,-0.040267,0.984096,-0.172988,0.234481,-0.188808,0.0630179999999999
594,-0.049755,0.978869,-0.198323,0.128994,-0.1705799999999999,0.043919
595,-0.05917,0.973689,-0.220046,0.048901,-0.227016,0.05522
596,-0.0694309999999999,0.969064,-0.2368239999999999,0.021183,-0.234888,0.0548779999999999
597,-0.077822,0.964994,-0.250444,-0.018644,-0.331998,0.043337
598,-0.082848,0.962557,-0.258092,-0.011329,-0.426745,0.0279589999999999
599,-0.086634,0.962271,-0.257915,0.052485,-0.508582,0.035182
600,-0.088813,0.964153,-0.250025,0.062995,-0.502742,0.020579
601,-0.089873,0.967859,-0.234867,0.054443,-0.444986,-0.069531
602,-0.089558,0.972323,-0.215772,0.049152,-0.244799,-0.070452
603,-0.086765,0.975736,-0.201,-0.05476,0.0564289999999999,-0.045491
604,-0.084613,0.976884,-0.196291,-0.301404,0.640045,-0.084364
605,-0.085404,0.975792,-0.201315,-0.255248,0.5154350000000001,-0.267389
606,-0.089516,0.974605,-0.205238,-0.179374,0.406437,-0.3966
607,-0.095539,0.974567,-0.20269,0.158557,0.011456,-0.5234300000000001
608,-0.101922,0.974392,-0.200409,0.216928,0.113865,-0.324676
609,-0.106852,0.971295,-0.212509,-0.033666,0.482593,-0.131867
610,-0.1090619999999999,0.966794,-0.231098,-0.318321,0.549319,0.376804
611,-0.102246,0.961542,-0.254901,-0.5653100000000001,0.329382,0.533008
612,-0.090215,0.961813,-0.258395,-0.059275,0.08703,0.438022
613,-0.0791309999999999,0.968173,-0.237428,0.05722,-0.37633,0.196091
614,-0.078164,0.971981,-0.221663,0.057412,-0.16383,0.248076
615,-0.084163,0.972693,-0.216278,0.0797529999999999,0.0001159999999999,0.399642
616,-0.08745,0.973417,-0.211667,0.024477,0.123598,0.498075
617,-0.081634,0.97771,-0.193417,-0.2309719999999999,0.19592,0.235699
618,-0.072869,0.983586,-0.165045,-0.227577,0.023906,0.008124
619,-0.063627,0.987631,-0.143276,-0.029513,-0.117544,0.0208539999999999
620,-0.052519,0.989753,-0.132741,0.071684,-0.230156,0.141668
621,-0.0411259999999999,0.991363,-0.124489,0.130588,-0.343918,0.252724
622,-0.030128,0.993755,-0.107391,0.1047589999999999,-0.294613,0.266678
623,-0.020995,0.99649,-0.080972,0.009368,-0.125503,0.0869679999999999
624,-0.016002,0.998504,-0.052177,0.016826,-0.071502,-0.048302
625,-0.0107599999999999,0.999559,-0.0274629999999999,-0.006986,-0.083131,-0.127826
626,-0.006349,0.999958,-0.005622,-0.005797,-0.158497,-0.063958
627,-0.006125,0.999817,0.017749,0.004142,-0.190293,-0.078235
628,-0.010176,0.999001,0.043363,0.085996,-0.1700829999999999,-0.113248
629,-0.01871,0.997698,0.065085,0.07735,0.077162,-0.001334
630,-0.0310399999999999,0.996239,0.080822,0.091664,0.144402,0.018681
631,-0.042707,0.99485,0.091858,0.0546539999999999,0.178139,-0.041214
632,-0.049525,0.993837,0.099111,0.19018,0.173033,-0.145559
633,-0.050731,0.993105,0.10562,0.250988,0.16313,-0.217742
634,-0.047464,0.992419,0.113311,0.2241,0.284666,-0.201613
635,-0.039817,0.991993,0.119794,0.152152,0.4670979999999999,-0.086453
636,-0.026693,0.992018,0.1231829999999999,0.12795,0.419282,0.121278
637,-0.0108989999999999,0.992481,0.1218609999999999,0.132878,0.2872889999999999,0.462917
638,0.004071,0.993833,0.110752,-0.363431,0.053576,0.351788
639,0.015224,0.995936,0.088694,-0.467937,0.0501,0.304647
640,0.019554,0.998169,0.0571169999999999,-0.545906,0.091781,0.294704
641,0.021137,0.999479,0.024113,-0.365757,0.29883,0.113949
642,0.02173,0.999725,-0.008074,-0.339418,0.32602,0.076647
643,0.020142,0.998917,-0.041794,-0.2193,0.2873219999999999,0.005906
644,0.01525,0.996988,-0.075971,-0.022666,0.012061,0.064069
645,0.007034,0.994297,-0.106365,0.07605,-0.0461149999999999,0.096569
646,-0.002823,0.990917,-0.134403,0.177765,-0.128353,0.088169
647,-0.010818,0.986788,-0.161622,0.103499,-0.248781,-0.001281
648,-0.021973,0.982261,-0.1862,0.106903,-0.29444,0.051099
649,-0.034037,0.978049,-0.205553,-0.006735,-0.305228,0.043657
650,-0.043485,0.974281,-0.22108,-0.0321529999999999,-0.339927,0.066249
651,-0.049643,0.971531,-0.231634,-0.064157,-0.445484,0.016516
652,-0.055536,0.970008,-0.236623,0.025553,-0.5042949999999999,-0.03889
653,-0.060488,0.970245,-0.234426,0.090014,-0.558044,-0.0679879999999999
654,-0.065051,0.972092,-0.225379,0.1188839999999999,-0.543747,-0.077463
655,-0.068339,0.975332,-0.209873,0.071925,-0.326178,-0.073498
656,-0.06646,0.978743,-0.193997,0.057793,-0.007155,-0.026416
657,-0.060688,0.981171,-0.183333,0.046391,0.1758569999999999,0.079832
658,-0.0513179999999999,0.982253,-0.180377,-0.5012939999999999,0.661637,-0.153821
659,-0.051795,0.981224,-0.1857619999999999,-0.371179,0.630532,-0.4652699999999999
660,-0.062437,0.979971,-0.189075,-0.072603,0.247584,-0.460355
661,-0.075187,0.979568,-0.186503,0.09455,0.118256,-0.309392
662,-0.089522,0.977091,-0.193052,-0.084184,0.458929,-0.025255
663,-0.101627,0.972071,-0.211517,-0.332104,0.545431,0.354492
664,-0.108127,0.96647,-0.2328849999999999,-0.597454,0.33538,0.262716
665,-0.106065,0.964527,-0.241718,-0.237105,-0.2182349999999999,0.3058659999999999
666,-0.098253,0.968423,-0.229113,0.036149,-0.251214,0.309176
667,-0.093831,0.971875,-0.2159739999999999,0.22379,-0.194272,0.3633429999999999
668,-0.09921,0.973575,-0.205668,0.2132389999999999,0.128567,0.423929
669,-0.107188,0.974492,-0.197144,0.142787,0.170497,0.4427029999999999
670,-0.1095579999999999,0.976906,-0.183418,-0.0605309999999999,0.115273,0.350364
671,-0.104192,0.981533,-0.160397,-0.27151,-0.044323,0.162793
672,-0.095463,0.986106,-0.1359119999999999,-0.199947,-0.145102,0.003359
673,-0.084327,0.989065,-0.120946,-0.0741049999999999,-0.1792359999999999,0.1173299999999999
674,-0.070728,0.990939,-0.1141349999999999,0.017765,-0.161135,0.231185
675,-0.058486,0.992647,-0.105928,0.034774,-0.187593,0.241044
676,-0.04784,0.994718,-0.090757,0.049304,-0.2630429999999999,0.190107
677,-0.0396959999999999,0.996795,-0.069366,0.052697,-0.182556,0.0734549999999999
678,-0.034206,0.998349,-0.046005,0.039622,-0.147092,0.029876
679,-0.029797,0.999327,-0.021081,0.019162,-0.122191,-0.0895
680,-0.027469,0.999609,0.003788,0.03963,-0.124243,-0.117023
681,-0.029742,0.999227,0.025453,0.074878,-0.124227,-0.086824
682,-0.036142,0.998345,0.044588,0.104166,-0.0885389999999999,-0.055422
683,-0.045069,0.997007,0.0627,0.069651,0.028017,-0.170045
684,-0.056155,0.995285,0.078996,0.0470149999999999,0.057267,-0.1137099999999999
685,-0.067271,0.993696,0.089602,-0.013387,0.069704,-0.079211
686,-0.074763,0.992494,0.096703,0.230341,0.114348,-0.1396869999999999
687,-0.076262,0.991789,0.1025819999999999,0.310958,0.09514,-0.229246
688,-0.073971,0.991186,0.1098359999999999,0.2187309999999999,0.2316079999999999,-0.3795659999999999
689,-0.072699,0.990639,0.11547,0.020834,0.36985,-0.10897
690,-0.0681679999999999,0.99061,0.11845,0.037482,0.290152,0.102222
691,-0.0609,0.991227,0.117238,0.113955,0.074477,0.541407
692,-0.050634,0.992915,0.107428,0.107778,-0.048274,0.656656
693,-0.037838,0.995508,0.0867059999999999,-0.31223,0.133475,0.503916
694,-0.027353,0.998007,0.056746,-0.3866949999999999,0.362131,0.115205
695,-0.0198379999999999,0.99961,0.019285,-0.3869,0.471825,0.1244069999999999
696,-0.013423,0.999785,-0.015403,-0.425893,0.4012159999999999,0.160072
697,-0.012388,0.998647,-0.050381,-0.066133,0.125407,-0.011265
698,-0.016628,0.995953,-0.088256,0.283062,0.0787539999999999,0.016753
699,-0.025611,0.991827,-0.12495,0.4103,0.0702909999999999,0.058483
700,-0.03486,0.987255,-0.155246,0.146096,-0.019802,0.043872
701,-0.046158,0.982432,-0.180793,0.030319,-0.216304,0.041618
702,-0.059328,0.977094,-0.204348,-0.008482,-0.273435,0.100634
703,-0.072307,0.971949,-0.223781,-0.082493,-0.3780159999999999,0.116741
704,-0.084591,0.967653,-0.237661,0.007336,-0.3771989999999999,0.08724
705,-0.093402,0.964801,-0.2458199999999999,0.040378,-0.37865,0.060334
706,-0.098626,0.963911,-0.2472639999999999,0.043435,-0.424147,0.076793
707,-0.101479,0.965608,-0.239362,0.0647669999999999,-0.6438,0.026518
708,-0.103521,0.968977,-0.224406,0.1333369999999999,-0.550078,-0.088781
709,-0.105317,0.973031,-0.205209,0.159104,-0.34681,0.024987
710,-0.101838,0.976688,-0.188947,-0.081984,-0.0321529999999999,-0.0695669999999999
711,-0.095582,0.978301,-0.183798,-0.342009,0.470796,0.026281
712,-0.091628,0.976976,-0.192647,-0.258515,0.866149,0.066885
713,-0.092517,0.976327,-0.195491,0.122013,0.274817,-0.552007
714,-0.099273,0.977359,-0.18683,0.292022,0.1526,-0.639479
715,-0.11034,0.977304,-0.18081,0.229817,-0.122583,-0.415549
716,-0.117219,0.973314,-0.197258,-0.146743,0.482466,0.134483
717,-0.120915,0.968424,-0.218005,-0.263347,0.526556,0.359896
718,-0.118421,0.964611,-0.235571,-0.649065,0.239613,0.690527
719,-0.114863,0.966118,-0.2311139999999999,-0.4067429999999999,0.378181,0.4633229999999999
720,-0.1239849999999999,0.970522,-0.206655,0.016121,-0.0178849999999999,0.1955619999999999
721,-0.1340599999999999,0.971722,-0.194358,0.129879,-0.184292,0.272178
722,-0.142328,0.970945,-0.192354,0.12324,-0.0415009999999999,0.365892
723,-0.143769,0.971597,-0.187936,0.091371,-0.081613,0.460474
724,-0.135021,0.975258,-0.175024,0.037273,-0.052711,0.4588069999999999
725,-0.1224529999999999,0.98031,-0.154881,-0.189604,0.167318,0.1436349999999999
726,-0.108874,0.984728,-0.13582,-0.107846,0.001584,0.097734
727,-0.093273,0.987702,-0.125444,-0.061818,-0.163819,0.118898
728,-0.077429,0.989885,-0.118844,0.043585,-0.296388,0.249215
729,-0.063318,0.992326,-0.1061619999999999,0.0431,-0.308,0.219504
730,-0.0522139999999999,0.995022,-0.084827,0.0283339999999999,-0.245709,0.096362
731,-0.045202,0.997194,-0.0595929999999999,0.082464,-0.098253,-0.031457
732,-0.04021,0.998606,-0.034047,0.091709,-0.089045,-0.09283
733,-0.037307,0.999233,-0.011535,0.105193,-0.144481,-0.079713
734,-0.03768,0.999234,0.010083,0.125204,-0.162259,-0.069546
735,-0.041538,0.998581,0.0331889999999999,0.118473,-0.145401,-0.121568
736,-0.049071,0.997266,0.055159,0.013487,0.010424,-0.215788
737,-0.059485,0.995615,0.072128,0.050375,0.028448,-0.147613
738,-0.0703179999999999,0.994014,0.0835549999999999,0.058782,0.10912,-0.041578
739,-0.076219,0.992729,0.093111,0.397447,0.219948,-0.080843
740,-0.075463,0.991991,0.101245,0.349953,0.192107,-0.185412
741,-0.070918,0.991335,0.1105309999999999,0.221079,0.311644,-0.347744
742,-0.066809,0.990831,0.117389,-0.065973,0.441435,-0.122669
743,-0.060213,0.990871,0.1205859999999999,-0.036833,0.369435,0.091343
744,-0.0522679999999999,0.991389,0.120029,0.0357279999999999,0.305929,0.2479829999999999
745,-0.044481,0.993002,0.109364,-0.13719,-0.1238,0.445034
746,-0.035584,0.995458,0.088255,-0.290359,0.053172,0.336016
747,-0.0280029999999999,0.997878,0.058708,-0.406857,0.2104349999999999,0.236336
748,-0.023725,0.999462,0.022478,-0.395755,0.3819929999999999,0.1070849999999999
749,-0.01968,0.999707,-0.013821,-0.362904,0.386478,0.11665
750,-0.017632,0.998638,-0.0490209999999999,-0.143898,0.217793,0.0422149999999999
751,-0.020549,0.996253,-0.083964,0.138652,0.03428,0.066096
752,-0.028298,0.992854,-0.115899,0.259057,-0.03393,0.047249
753,-0.039304,0.988842,-0.1436579999999999,0.227674,-0.093213,0.057248
754,-0.051914,0.984339,-0.168445,0.154576,-0.115214,0.057575
755,-0.063402,0.979417,-0.191609,0.020189,-0.211244,0.052663
756,-0.072788,0.974462,-0.212411,-0.054485,-0.258916,0.070184
757,-0.082669,0.969855,-0.229217,-0.009356,-0.2894199999999999,0.096053
758,-0.09179,0.966004,-0.2416699999999999,0.048684,-0.4211279999999999,0.116716
759,-0.096791,0.963874,-0.248134,0.06455,-0.466041,0.139446
760,-0.098846,0.964166,-0.246186,0.058044,-0.546517,0.093415
761,-0.098895,0.966622,-0.236336,0.052646,-0.507912,-0.080132
762,-0.0981399999999999,0.97035,-0.2208659999999999,0.031337,-0.436735,-0.053075
763,-0.0951279999999999,0.973899,-0.2060699999999999,-0.088725,-0.175925,-0.023514
764,-0.090269,0.975665,-0.1998059999999999,-0.299135,0.4607819999999999,0.122932
765,-0.086683,0.975258,-0.203348,-0.314623,0.7138140000000001,0.156519
766,-0.0867769999999999,0.973881,-0.209804,-0.187637,0.559322,-0.253925
767,-0.092394,0.974746,-0.203289,0.101717,0.453996,-0.558521
768,-0.107414,0.975857,-0.190152,0.317115,0.1922029999999999,-0.646518
769,-0.120426,0.973537,-0.194209,0.2130929999999999,0.07517,-0.389577
770,-0.1326099999999999,0.968095,-0.2126,0.031978,0.390135,0.094802
771,-0.135763,0.962006,-0.236869,-0.466517,0.461304,0.63375
772,-0.130875,0.958383,-0.253707,-0.700088,0.356482,0.671416
773,-0.128379,0.962783,-0.237826,-0.0299,-0.161391,0.194705
774,-0.125418,0.968371,-0.215688,0.136145,-0.279238,0.152608
775,-0.126503,0.970073,-0.2072389999999999,0.215065,-0.091258,0.299601
776,-0.129686,0.969893,-0.206112,0.176454,0.040026,0.480099
777,-0.128213,0.971321,-0.200221,0.074441,0.094871,0.5004069999999999
778,-0.122088,0.975694,-0.1819569999999999,-0.300413,0.052749,0.073544
779,-0.113935,0.980697,-0.158886,-0.218798,-0.028747,0.0426449999999999
780,-0.101495,0.984552,-0.142643,-0.127371,-0.1076299999999999,0.038517
781,-0.084795,0.987221,-0.134889,0.055223,-0.242669,0.1378339999999999
782,-0.067781,0.989452,-0.127987,0.086641,-0.283703,0.195019
783,-0.052784,0.991886,-0.115616,0.1497079999999999,-0.274845,0.208969
784,-0.041458,0.994625,-0.094831,0.112777,-0.108288,0.057553
785,-0.033912,0.996959,-0.070098,0.099067,-0.081462,-0.012544
786,-0.028758,0.998442,-0.047708,0.07484,-0.133071,-0.107306
787,-0.0264209999999999,0.999292,-0.026617,0.091347,-0.20173,-0.063578
788,-0.028405,0.999588,-0.0027199999999999,0.097848,-0.1891779999999999,-0.0505339999999999
789,-0.034089,0.999143,0.0232379999999999,-0.009352,-0.09448,-0.075194
790,-0.04296,0.998024,0.045729,-0.112328,-0.033364,-0.043486
791,-0.053973,0.99651,0.063592,-0.024518,0.066784,-0.032876
792,-0.061158,0.99519,0.07646,0.211548,0.189106,-0.0619179999999999
793,-0.061874,0.994365,0.086021,0.3345329999999999,0.238301,-0.172447
794,-0.0578679999999999,0.993687,0.096051,0.247718,0.348033,-0.26225
795,-0.053347,0.993083,0.104546,0.1186089999999999,0.487127,-0.111382
796,-0.04601,0.992961,0.109089,0.033848,0.4966779999999999,0.097774
797,-0.034076,0.993429,0.1092119999999999,0.157474,0.380473,0.463129
798,-0.019999,0.994452,0.103217,-0.0817919999999999,0.1375819999999999,0.5577479999999999
799,-0.006661,0.996511,0.083125,-0.369118,0.002421,0.273594
800,0.000737,0.998684,0.051166,-0.4567,0.008167,0.250027
801,0.003609,0.999878,0.014841,-0.447273,0.136001,0.17237
802,0.005748,0.999828,-0.017349,-0.385341,0.293461,0.116348
803,0.005561,0.998765,-0.049274,-0.187079,0.295425,0.0550419999999999
804,0.0015869999999999,0.996642,-0.0818049999999999,-0.00644,0.204392,0.072024
805,-0.006384,0.99369,-0.11194,0.164236,0.0287709999999999,0.054735
806,-0.018057,0.990101,-0.139163,0.18154,-0.102665,0.0665309999999999
807,-0.030645,0.985808,-0.165034,0.165731,-0.175764,0.084498
808,-0.04202,0.980995,-0.189409,0.0857059999999999,-0.264793,0.07802
809,-0.053486,0.976214,-0.210086,-0.0141409999999999,-0.1906,0.048236
810,-0.065813,0.971628,-0.227155,-0.027204,-0.233988,0.069119
811,-0.076347,0.967772,-0.239959,0.004188,-0.397917,0.080673
812,-0.083136,0.965401,-0.247146,0.033377,-0.479272,0.064758
813,-0.086958,0.964934,-0.247653,0.042982,-0.504424,0.04903
814,-0.088352,0.966455,-0.2411449999999999,0.055058,-0.507699,-0.016759
815,-0.08864,0.969289,-0.229377,0.046099,-0.267613,-0.153359
816,-0.087502,0.972116,-0.217546,0.051369,-0.1678859999999999,-0.197981
817,-0.083381,0.974056,-0.210366,0.017341,0.127552,-0.016364
818,-0.079159,0.973741,-0.213434,-0.255725,0.7803640000000001,0.008142
819,-0.079742,0.971576,-0.222872,-0.3457639999999999,0.757992,-0.16287
820,-0.088199,0.970081,-0.226176,-0.036145,0.000729,-0.420338
821,-0.100838,0.9691,-0.225096,0.07647,-0.1442099999999999,-0.423525
822,-0.111521,0.966861,-0.229642,0.002238,0.257459,-0.036487
823,-0.120351,0.963014,-0.241063,-0.285091,0.486311,0.1256
824,-0.12537,0.958584,-0.255717,-0.35075,0.477863,0.270472
825,-0.1241869999999999,0.95577,-0.266594,-0.46703,0.022425,0.499566
826,-0.120426,0.957824,-0.260888,0.007069,0.024049,0.330499
827,-0.1212369999999999,0.961483,-0.246665,0.153341,-0.009899,0.226341
828,-0.122173,0.962646,-0.241616,0.347255,-0.099105,0.305306
829,-0.124222,0.963019,-0.2390679999999999,0.341431,0.016564,0.385369
830,-0.1225339999999999,0.965246,-0.230816,0.152411,0.078439,0.408917
831,-0.114697,0.970247,-0.213207,-0.191227,0.072646,0.197673
832,-0.1065329999999999,0.976024,-0.1897869999999999,-0.2309909999999999,-0.028774,0.033598
833,-0.096068,0.980227,-0.172964,-0.186098,-0.1176329999999999,0.051916
834,-0.082623,0.9831,-0.1633349999999999,-0.071964,-0.16497,0.166463
835,-0.0691389999999999,0.986052,-0.151368,0.077897,-0.227843,0.193253
836,-0.056496,0.989629,-0.1320329999999999,0.152718,-0.266317,0.145263
837,-0.046094,0.993081,-0.107964,0.151868,-0.172112,0.088723
838,-0.037894,0.995915,-0.081899,0.07833,-0.125157,-0.064723
839,-0.031356,0.997891,-0.0567509999999999,0.06401,-0.130886,-0.09483
840,-0.027495,0.999067,-0.033139,0.057875,-0.136167,-0.122608
841,-0.0270259999999999,0.999578,-0.01014,0.120867,-0.103887,-0.089805
842,-0.03052,0.999489,0.008907,0.103,-0.033928,-0.061336
843,-0.0375879999999999,0.999028,0.022761,0.042578,-0.00945,-0.044795
844,-0.046405,0.998328,0.03429,-0.058423,0.008844,-0.075122
845,-0.0551399999999999,0.997481,0.0444899999999999,0.0074719999999999,0.077623,-0.163401
846,-0.05912,0.996822,0.053282,0.248573,0.194462,-0.17787
847,-0.05722,0.996395,0.062538,0.478606,0.229359,-0.1973339999999999
848,-0.051932,0.99607,0.07166,0.370703,0.405388,-0.114232
849,-0.045284,0.996005,0.076887,0.084194,0.5509470000000001,-0.01721
850,-0.0354509999999999,0.996399,0.076944,0.002095,0.387451,0.295142
851,-0.025265,0.997304,0.068798,0.038814,0.046488,0.607883
852,-0.0153599999999999,0.998504,0.0523519999999999,-0.305807,-0.024582,0.459153
853,-0.008443,0.999524,0.029459,-0.4311939999999999,0.144519,0.247823
854,-0.0059039999999999,0.999977,-0.0003819999999999,-0.381425,0.292458,0.107773
855,-0.004219,0.999479,-0.0318079999999999,-0.331138,0.4191149999999999,0.0800559999999999
856,-0.002175,0.997896,-0.064711,-0.290885,0.290572,0.073043
857,-0.0034869999999999,0.995057,-0.099185,-0.025459,0.086806,0.069827
858,-0.009376,0.991454,-0.130081,0.164391,-0.0607129999999999,0.059997
859,-0.019087,0.987409,-0.156998,0.230894,-0.131254,0.0885929999999999
860,-0.029774,0.983133,-0.180427,0.297459,-0.189553,0.11663
861,-0.039023,0.979092,-0.199614,0.12345,-0.280209,0.098341
862,-0.0516029999999999,0.975692,-0.212959,0.038969,-0.308532,0.054589
863,-0.064983,0.972564,-0.223351,0.001171,-0.283722,0.078102
864,-0.074262,0.970234,-0.230479,-0.029116,-0.325703,0.081477
865,-0.079623,0.969113,-0.233391,-0.050306,-0.411358,0.07624
866,-0.0825299999999999,0.969796,-0.229508,-0.038701,-0.484521,0.002198
867,-0.083249,0.972237,-0.218664,-0.028049,-0.461877,-0.046061
868,-0.081052,0.975684,-0.203619,-0.056445,-0.327277,-0.064997
869,-0.075171,0.979051,-0.189203,-0.087121,-0.228303,-0.055075
870,-0.068625,0.98078,-0.18262,-0.1892329999999999,0.091165,0.012027
871,-0.065292,0.97965,-0.189768,-0.294907,0.557001,0.184732
872,-0.066131,0.978255,-0.196551,-0.232377,0.401444,-0.15553
873,-0.067433,0.979298,-0.190832,0.146824,0.373485,-0.636683
874,-0.068899,0.979378,-0.189897,0.237554,0.294807,-0.410185
875,-0.074917,0.974832,-0.209954,0.047726,0.491538,0.058312
876,-0.084947,0.967684,-0.237403,-0.115355,0.438184,0.496177
877,-0.094747,0.962662,-0.253565,-0.3891699999999999,-0.059082,0.236963
878,-0.101528,0.963824,-0.246423,-0.219822,-0.0651429999999999,0.269754
879,-0.1054819999999999,0.967357,-0.2303989999999999,0.1257609999999999,-0.138561,0.178534
880,-0.110121,0.968784,-0.22208,0.2239969999999999,0.044918,0.328617
881,-0.115351,0.968856,-0.2190909999999999,0.140375,0.193208,0.440893
882,-0.1177329999999999,0.970227,-0.2116289999999999,0.0165979999999999,0.16582,0.474554
883,-0.1142079999999999,0.974581,-0.192706,-0.27602,0.104459,0.228
884,-0.108325,0.979457,-0.170052,-0.338605,-0.133403,0.058525
885,-0.100933,0.982233,-0.158174,-0.303562,-0.193414,0.136552
886,-0.092019,0.983774,-0.153975,-0.170768,-0.188364,0.231031
887,-0.081669,0.985713,-0.147265,-0.012203,-0.239223,0.277148
888,-0.069378,0.988955,-0.130929,0.044232,-0.237932,0.2264949999999999
889,-0.057008,0.992707,-0.106164,0.122651,-0.17157,0.1702509999999999
890,-0.04723,0.995916,-0.076864,0.178715,-0.133443,0.007742
891,-0.03946,0.997935,-0.050564,0.167512,-0.163172,-0.025608
892,-0.033973,0.999065,-0.0265089999999999,0.14759,-0.17422,-0.087063
893,-0.032958,0.99945,-0.000716,0.170592,-0.13182,-0.121919
894,-0.03666,0.998975,0.026293,0.180063,-0.109494,-0.159212
895,-0.042493,0.99779,0.050941,0.086926,-0.057391,-0.2190929999999999
896,-0.050613,0.996147,0.071523,-0.0271149999999999,0.021874,-0.2936
897,-0.062189,0.994045,0.089398,-0.019094,0.089207,-0.1824609999999999
898,-0.072983,0.991857,0.1043019999999999,0.194138,0.070506,-0.050286
899,-0.077197,0.989902,0.118826,0.337756,0.115673,-0.132025
900,-0.075791,0.988371,0.131766,0.291626,0.146715,-0.223502
901,-0.072747,0.987016,0.143152,0.146676,0.344787,-0.208719
902,-0.064986,0.986646,0.149298,-0.1641099999999999,0.4331689999999999,0.277567
903,-0.05293,0.987739,0.146812,-0.023944,0.354684,0.531105
904,-0.038817,0.990248,0.133737,-0.333055,0.19153,0.783698
905,-0.025434,0.993212,0.113435,-0.5373399999999999,0.27368,0.15483
906,-0.019999,0.996136,0.085427,-0.461125,0.232929,0.118614
907,-0.020208,0.998704,0.046533,-0.40391,0.305678,0.207968
908,-0.020271,0.999739,0.009745,-0.192864,0.279481,0.109548
909,-0.023302,0.999451,-0.0232379999999999,-0.029112,0.231811,0.059401
910,-0.03031,0.997989,-0.055546,0.196402,0.061444,0.072407
911,-0.039188,0.995434,-0.086961,0.200977,-0.005886,0.069245
912,-0.04676,0.99234,-0.11429,0.177513,-0.057754,0.08513
913,-0.054123,0.989087,-0.136986,0.033677,-0.2105989999999999,0.0529559999999999
914,-0.0625,0.98597,-0.15474,0.022949,-0.25245,0.071534
915,-0.070495,0.983325,-0.167602,0.030517,-0.312075,0.093612
916,-0.075601,0.981562,-0.175524,0.041025,-0.392435,0.003237
917,-0.079451,0.980508,-0.179665,0.062285,-0.420633,-0.062752
918,-0.0818769999999999,0.980105,-0.180774,0.055723,-0.446169,-0.074872
919,-0.084,0.98054,-0.1774089999999999,0.126847,-0.518672,-0.107991
920,-0.084363,0.981891,-0.169589,0.12927,-0.473942,-0.084225
921,-0.082528,0.983283,-0.162273,0.098031,-0.384238,-0.087605
922,-0.077431,0.983658,-0.162511,-0.340126,0.20401,0.0264029999999999
923,-0.070952,0.982094,-0.174488,-0.504091,0.945702,0.035008
924,-0.067803,0.980346,-0.185239,-0.204673,0.5473640000000001,-0.436709
925,-0.068409,0.981397,-0.17936,0.06673,0.107135,-0.677818
926,-0.073785,0.980384,-0.1827369999999999,0.314736,0.212503,-0.241213
927,-0.082469,0.972939,-0.215819,-0.065846,0.671928,0.537184
928,-0.086099,0.963685,-0.252761,-0.490287,0.446105,0.836364
929,-0.088076,0.960269,-0.264795,-0.238416,-0.36333,0.224237
930,-0.093695,0.963423,-0.251052,0.179389,-0.285521,0.143538
931,-0.0945299999999999,0.966088,-0.2402659999999999,0.223344,0.030311,0.222794
932,-0.091681,0.966929,-0.237975,0.10958,0.351812,0.333022
933,-0.092142,0.966937,-0.2377659999999999,0.0067379999999999,0.2021,0.536503
934,-0.088256,0.969814,-0.227293,-0.353227,0.063802,0.343092
935,-0.081173,0.975409,-0.204886,-0.4226109999999999,0.007898,0.1620849999999999
936,-0.074483,0.979635,-0.186432,-0.239009,0.00207,0.154419
937,-0.062163,0.981852,-0.179138,-0.153077,-0.146037,0.202118
938,-0.047525,0.983654,-0.173651,0.014185,-0.42535,0.285009
939,-0.034731,0.986416,-0.160518,0.052996,-0.438579,0.275188
940,-0.025441,0.990295,-0.1365849999999999,0.095662,-0.2463679999999999,0.232807
941,-0.019094,0.994428,-0.103615,0.10642,-0.031705,0.0857769999999999
942,-0.01303,0.997522,-0.069046,0.060851,-0.0826809999999999,-0.072494
943,-0.0092819999999999,0.999239,-0.037689,0.05779,-0.211611,-0.065552
944,-0.0104,0.999915,-0.0068709999999999,0.054666,-0.219275,-0.035991
945,-0.015951,0.999655,0.020534,-0.022028,-0.100118,-0.043773
946,-0.02471,0.998787,0.042414,-0.111764,0.058632,-0.1650329999999999
947,-0.035673,0.997758,0.05649,0.1534859999999999,0.113143,-0.031786
948,-0.041494,0.996996,0.065285,0.303563,0.12303,-0.071618
949,-0.039432,0.996552,0.072896,0.403232,0.198196,-0.168263
950,-0.032782,0.996191,0.080698,0.152334,0.313806,-0.287684
951,-0.026423,0.995772,0.08789,0.103174,0.368089,-0.222793
952,-0.018153,0.995439,0.093571,-0.059057,0.425276,-0.080921
953,-0.0072879999999999,0.995203,0.097471,0.140497,0.245824,0.222933
954,0.006493,0.99531,0.096435,0.102898,0.02503,0.556656
955,0.02079,0.996358,0.08259,-0.422234,-0.078649,0.455252
956,0.031187,0.997846,0.057565,-0.569578,-0.019895,0.379844
957,0.034464,0.999121,0.02353,-0.640849,0.090677,0.285414
958,0.036371,0.999236,-0.0137539999999999,-0.343301,0.337785,0.156729
959,0.039892,0.998074,-0.047358,-0.208563,0.397144,0.020732
960,0.041595,0.995873,-0.080574,-0.07135,0.352088,0.049324
961,0.039902,0.993058,-0.110589,0.075714,0.083022,0.0580679999999999
962,0.031564,0.990224,-0.135822,0.131186,-0.00385,0.048969
963,0.018573,0.986834,-0.160624,0.162045,-0.016528,0.033931
964,0.005358,0.981955,-0.1890079999999999,0.09358,-0.273565,-0.015475
965,-0.005627,0.976484,-0.2154889999999999,-0.027011,-0.310514,-0.03036
966,-0.018379,0.971002,-0.238339,-0.010109,-0.3033389999999999,0.0150419999999999
967,-0.028881,0.966502,-0.25501,-0.00777,-0.331888,0.045446
968,-0.036525,0.96379,-0.264131,0.0534929999999999,-0.457808,0.003724
969,-0.043035,0.962996,-0.2660369999999999,0.097539,-0.488997,0.003052
970,-0.047339,0.964548,-0.259607,0.130958,-0.554499,-0.056052
971,-0.049868,0.967401,-0.248269,0.094821,-0.489496,-0.020423
972,-0.049581,0.970254,-0.2369369999999999,0.009939,-0.310738,0.0138229999999999
973,-0.044932,0.97218,-0.2298599999999999,-0.2101179999999999,-0.002118,0.035936
974,-0.036088,0.97243,-0.230363,-0.6289359999999999,0.570325,-0.0028829999999999
975,-0.032927,0.970102,-0.240429,-0.688112,0.806967,-0.151066
976,-0.039074,0.969545,-0.241755,-0.1765779999999999,0.2190079999999999,-0.354101
977,-0.049589,0.971874,-0.2302,0.331373,0.035771,-0.543909
978,-0.064909,0.973466,-0.219407,0.479231,0.012328,-0.499068
979,-0.081749,0.970803,-0.2254949999999999,0.178917,0.314338,-0.176681
980,-0.093614,0.965986,-0.241033,-0.198211,0.405535,-0.09791
981,-0.095032,0.961024,-0.259598,-0.316925,0.190572,0.196992
982,-0.08692,0.960303,-0.265054,-0.551599,0.112909,0.594094
983,-0.0777679999999999,0.965727,-0.2476159999999999,-0.258277,0.2942369999999999,0.392132
984,-0.078509,0.971144,-0.225179,0.024172,-0.129134,0.353398
985,-0.086424,0.972155,-0.217795,0.126677,-0.138873,0.44451
986,-0.093251,0.971666,-0.21716,0.158788,-0.056551,0.4731109999999999
987,-0.093125,0.973269,-0.209916,0.122239,0.013807,0.426972
988,-0.088263,0.977321,-0.192464,-0.0299769999999999,0.1029089999999999,0.286946
989,-0.082672,0.981496,-0.172682,-0.219559,-0.091406,0.067137
990,-0.074193,0.984389,-0.159573,-0.235698,-0.148771,0.068768
991,-0.062547,0.986654,-0.150299,-0.183333,-0.178076,0.108673
992,-0.04978,0.989015,-0.1391369999999999,0.0145009999999999,-0.221239,0.158744
993,-0.037465,0.991481,-0.124697,0.033482,-0.234523,0.159136
994,-0.026886,0.994005,-0.105919,0.067032,-0.175905,0.159691
995,-0.020654,0.996415,-0.081968,0.130044,-0.115022,0.0041329999999999
996,-0.015526,0.998266,-0.056674,0.103402,-0.119528,-0.058515
997,-0.010693,0.999408,-0.0325079999999999,0.021984,-0.16434,-0.032494
998,-0.009206,0.999932,-0.006252,0.021993,-0.151863,-0.053791
999,-0.012444,0.9997,0.020789,0.0229569999999999,-0.100865,-0.074942
1000,-0.018706,0.998793,0.045256,-0.011903,0.007402,-0.174528
1001,-0.02703,0.99752,0.0648779999999999,-0.013772,0.0543909999999999,-0.220732
1002,-0.037032,0.99619,0.0788659999999999,-0.081743,0.194377,-0.09356
1003,-0.0441149999999999,0.995068,0.088754,0.230226,0.112918,0.024543
1004,-0.044606,0.99431,0.096658,0.280171,0.101988,-0.032938
1005,-0.03853,0.993697,0.105199,0.006456,0.2065139999999999,-0.376028
1006,-0.032829,0.992835,0.114829,-0.065972,0.375222,-0.198432
1007,-0.0268959999999999,0.991878,0.124258,-0.140416,0.372579,-0.071783
1008,-0.018951,0.991741,0.1267849999999999,-0.000793,0.366871,0.114075
1009,-0.01028,0.992452,0.122139,0.162502,0.033183,0.589043
1010,-0.000701,0.994228,0.107209,-0.18065,0.024387,0.480224
1011,0.008495,0.996595,0.0819169999999999,-0.378567,0.2065139999999999,0.25959
1012,0.013469,0.99876,0.047787,-0.415493,0.290089,0.112705
1013,0.0171699999999999,0.999793,0.010342,-0.4445989999999999,0.326165,0.083149
1014,0.0208819999999999,0.999505,-0.023278,-0.320839,0.2154,0.078774
1015,0.020499,0.99826,-0.055173,-0.0013189999999999,0.12555,0.007672
1016,0.014632,0.996172,-0.086113,0.19394,0.065184,0.0208509999999999
1017,0.004398,0.993311,-0.1153319999999999,0.2317469999999999,0.014242,0.057501
1018,-0.007767,0.989782,-0.142338,0.14682,-0.089696,0.024266
1019,-0.02077,0.985265,-0.169737,0.056613,-0.1952559999999999,0.034972
1020,-0.033463,0.980539,-0.193421,-0.007232,-0.350168,0.11348
1021,-0.044666,0.9766,-0.210346,-0.038738,-0.342491,0.0595889999999999
1022,-0.0555149999999999,0.973526,-0.221709,0.000797,-0.326858,0.103438
1023,-0.064288,0.97168,-0.227363,0.011279,-0.402314,0.04058
1024,-0.070463,0.971031,-0.228305,0.033063,-0.50048,0.089801
1025,-0.073675,0.972305,-0.2217719999999999,0.044164,-0.54689,-0.025253
1026,-0.075434,0.975228,-0.207916,0.035548,-0.516625,-0.075638
1027,-0.073089,0.979048,-0.190029,-0.018524,-0.320952,-0.156666
1028,-0.068259,0.982189,-0.175022,-0.2302179999999999,0.271808,0.100849
1029,-0.062187,0.982897,-0.1733039999999999,-0.443229,0.52165,0.187465
1030,-0.058783,0.980523,-0.187371,-0.65693,0.969322,-0.127769
1031,-0.062962,0.980068,-0.188389,0.182621,0.327442,-0.70277
1032,-0.070957,0.981914,-0.175494,0.355991,0.064152,-0.7629819999999999
1033,-0.077636,0.981684,-0.173946,0.35147,-0.473475,-0.361439
1034,-0.089238,0.977489,-0.191155,-0.087947,0.293034,0.271157
1035,-0.095458,0.973156,-0.20939,-0.407853,0.513187,0.451501
1036,-0.096803,0.97002,-0.22289,-0.7616569999999999,0.761059,0.844182
1037,-0.102855,0.971828,-0.2120369999999999,0.040645,0.100071,0.236756
1038,-0.111545,0.973745,-0.1984119999999999,0.263004,0.005168,0.176729
1039,-0.114664,0.973922,-0.195745,0.198511,-0.022476,0.334569
1040,-0.116529,0.97376,-0.195452,0.168028,-0.0008439999999999,0.396685
1041,-0.116203,0.974566,-0.19159,0.034217,-0.025103,0.428452
1042,-0.112163,0.97691,-0.181807,-0.287938,0.019641,0.28929
1043,-0.10479,0.980381,-0.1669119999999999,-0.299766,-0.0480839999999999,0.200054
1044,-0.093597,0.983909,-0.152151,-0.267823,-0.1305,0.1688589999999999
1045,-0.078861,0.98662,-0.142654,-0.077526,-0.261842,0.2079
1046,-0.063409,0.988807,-0.1350029999999999,-0.003959,-0.306282,0.264611
1047,-0.049873,0.991368,-0.121198,0.005409,-0.303044,0.240979
1048,-0.040304,0.994218,-0.099461,0.105718,-0.189729,0.1714369999999999
1049,-0.033049,0.996903,-0.071267,0.0610179999999999,-0.096573,0.029245
1050,-0.027773,0.998773,-0.040835,0.068178,-0.079934,-0.058775
1051,-0.025646,0.999554,-0.014823,0.084866,-0.056317,-0.0984429999999999
1052,-0.026841,0.999609,0.006881,0.111756,-0.067678,-0.097045
1053,-0.031031,0.999145,0.0270399999999999,0.104273,-0.047638,-0.1429
1054,-0.037844,0.998241,0.0454829999999999,-0.04318,0.034642,-0.2245909999999999
1055,-0.047711,0.997109,0.059014,-0.051807,0.04972,-0.093239
1056,-0.056971,0.996082,0.0675279999999999,0.054942,0.014279,-0.056191
1057,-0.060982,0.995238,0.075942,0.387047,0.080827,-0.0592179999999999
1058,-0.057876,0.994533,0.0868299999999999,0.177245,0.185399,-0.263923
1059,-0.052607,0.993672,0.0991539999999999,-0.007222,0.3507949999999999,-0.141269
1060,-0.04652,0.99252,0.112795,-0.281879,0.330279,-0.2111989999999999
1061,-0.036261,0.992379,0.117702,-0.02276,0.318123,0.175267
1062,-0.023581,0.993081,0.114967,0.31832,0.214896,0.559487
1063,-0.009534,0.994329,0.105843,-0.016131,0.097468,0.609855
1064,0.004111,0.996302,0.085725,-0.386038,0.1086319999999999,0.377822
1065,0.011233,0.998271,0.057564,-0.489489,0.157628,0.142418
1066,0.012182,0.999672,0.022179,-0.474828,0.251884,0.075553
1067,0.012149,0.999839,-0.012651,-0.375827,0.284097,0.093187
1068,0.009016,0.998912,-0.045604,-0.036116,0.206807,-0.005452
1069,0.002301,0.997075,-0.076298,0.208469,0.139536,6.500000000000001e-05
1070,-0.0081269999999999,0.994381,-0.105485,0.257715,0.090458,0.001099
1071,-0.020363,0.990867,-0.133244,0.199028,-0.0586929999999999,0.007618
1072,-0.033411,0.986414,-0.160803,0.11587,-0.165186,0.009115
1073,-0.045286,0.981172,-0.187719,0.014311,-0.282655,0.0375879999999999
1074,-0.05516,0.975838,-0.211387,-0.0511939999999999,-0.3148579999999999,0.1137609999999999
1075,-0.063048,0.971663,-0.22778,-0.034578,-0.328185,0.040798
1076,-0.070708,0.968645,-0.2381469999999999,0.039458,-0.4043449999999999,0.0629909999999999
1077,-0.075412,0.967169,-0.242664,0.038531,-0.4181109999999999,0.073108
1078,-0.076027,0.967632,-0.240615,-0.000267,-0.505138,0.017913
1079,-0.075127,0.969668,-0.232565,-0.036705,-0.468661,-0.13952
1080,-0.075425,0.972316,-0.221131,0.002412,-0.4139819999999999,-0.158279
1081,-0.0735519999999999,0.975065,-0.209344,0.089757,-0.237211,-0.002997
1082,-0.066984,0.977038,-0.202228,-0.391588,0.410947,-0.034161
1083,-0.063947,0.976392,-0.2062909999999999,-0.544665,0.677813,0.024406
1084,-0.069409,0.975045,-0.2108469999999999,-0.270648,0.63552,-0.1975849999999999
1085,-0.076543,0.976346,-0.202183,0.21784,0.1499059999999999,-0.6265069999999999
1086,-0.085651,0.977209,-0.194198,0.258884,0.197702,-0.381806
1087,-0.096819,0.974275,-0.203475,-0.060575,0.516936,-0.004899
1088,-0.1073269999999999,0.969327,-0.221073,-0.253925,0.596774,0.160038
1089,-0.1144309999999999,0.963667,-0.241325,-0.249903,0.4121109999999999,0.378456
1090,-0.114004,0.961296,-0.250799,-0.343271,-0.252724,0.4131069999999999
1091,-0.110805,0.964646,-0.239098,-0.05695,-0.224503,0.246804
1092,-0.109769,0.968463,-0.2236469999999999,0.083325,-0.271975,0.186828
1093,-0.112345,0.969291,-0.218727,0.259791,0.098992,0.395561
1094,-0.115177,0.969281,-0.217293,0.260121,0.186664,0.534996
1095,-0.113079,0.971464,-0.208467,0.163936,0.2206449999999999,0.543474
1096,-0.108484,0.976257,-0.1874549999999999,-0.26499,0.034119,0.190385
1097,-0.104198,0.980469,-0.166758,-0.309544,-0.182862,0.038416
1098,-0.096692,0.982855,-0.156948,-0.31438,-0.214758,0.038983
1099,-0.084415,0.984697,-0.152415,-0.095455,-0.1469589999999999,0.22291
1100,-0.069654,0.987564,-0.140893,0.020826,-0.1791839999999999,0.186989
1101,-0.055295,0.991077,-0.121222,0.036237,-0.202915,0.165075
1102,-0.044127,0.994228,-0.097717,0.146315,-0.130382,0.123474
1103,-0.035579,0.996701,-0.072848,0.132579,-0.1489069999999999,0.037966
1104,-0.0281769999999999,0.998471,-0.047396,0.090799,-0.175763,-0.024672
1105,-0.024586,0.999449,-0.021945,0.03098,-0.165632,-0.055844
1106,-0.026,0.999643,0.004531,0.067275,-0.100382,-0.09642
1107,-0.031206,0.999062,0.0297389999999999,0.07155,-0.057579,-0.137238
1108,-0.039131,0.998028,0.048893,-0.027138,0.036868,-0.172184
1109,-0.050739,0.996647,0.064055,-0.089901,0.093121,-0.1013169999999999
1110,-0.061339,0.995214,0.075949,0.061736,0.0834299999999999,-0.0590269999999999
1111,-0.066347,0.994159,0.0850139999999999,0.400713,0.080273,-0.056312
1112,-0.063832,0.993578,0.093325,0.445607,0.143003,-0.212542
1113,-0.057252,0.992833,0.104816,0.209352,0.431056,-0.201129
1114,-0.0509579999999999,0.992223,0.1134839999999999,-0.243155,0.609035,-0.168919
1115,-0.040272,0.992109,0.118658,-0.071285,0.4172689999999999,0.127573
1116,-0.027717,0.993098,0.1138859999999999,0.21009,0.207479,0.681326
1117,-0.013265,0.994943,0.099467,-0.155649,0.068854,0.495199
1118,-0.002819,0.997068,0.076346,-0.36559,0.053637,0.239191
1119,-0.001086,0.998955,0.045499,-0.396802,0.052864,0.188097
1120,-0.003585,0.999911,0.0121219999999999,-0.456132,0.150464,0.12594
1121,-0.007301,0.999771,-0.019694,-0.349694,0.259827,0.090235
1122,-0.012454,0.998457,-0.053961,-0.078213,0.199175,0.049444
1123,-0.019686,0.995916,-0.088014,0.180468,0.08169,0.0545659999999999
1124,-0.029673,0.992516,-0.11839,0.24711,-0.124306,0.065747
1125,-0.040835,0.989025,-0.141938,0.210238,-0.1622579999999999,0.090531
1126,-0.05276,0.985581,-0.160719,0.1250869999999999,-0.174424,0.082075
1127,-0.063564,0.982078,-0.177391,-0.025684,-0.178367,-0.0096049999999999
1128,-0.073238,0.978415,-0.1932,-0.040562,-0.157217,-0.002875
1129,-0.082882,0.974518,-0.208401,0.009411,-0.241196,0.067777
1130,-0.0902039999999999,0.971355,-0.2198139999999999,0.0289089999999999,-0.347439,0.093181
1131,-0.094088,0.969913,-0.2245059999999999,0.050783,-0.492831,0.101154
1132,-0.0957679999999999,0.970657,-0.220545,0.116597,-0.604766,0.070825
1133,-0.0957929999999999,0.973445,-0.207882,0.100645,-0.575343,0.028911
1134,-0.0955309999999999,0.976912,-0.191056,0.072032,-0.391463,0.009415
1135,-0.092132,0.980013,-0.176273,-0.216858,0.0266399999999999,0.08263
1136,-0.085982,0.981476,-0.171164,-0.434342,0.272491,0.018835
1137,-0.081885,0.980067,-0.180967,-0.626595,0.741521,0.010129
1138,-0.082283,0.978354,-0.1898369999999999,-0.081978,0.310144,-0.543821
1139,-0.085881,0.979383,-0.182805,0.337208,0.176226,-0.6693680000000001
1140,-0.095811,0.980117,-0.1737119999999999,0.374406,0.049363,-0.425104
1141,-0.104693,0.975634,-0.192776,0.147356,0.451643,-0.141772
1142,-0.111443,0.968544,-0.222461,-0.1867589999999999,0.689446,0.3335909999999999
1143,-0.110919,0.960763,-0.2541989999999999,-0.4670229999999999,0.350928,0.652606
1144,-0.100913,0.959068,-0.264561,-0.052346,-0.086784,0.364079
1145,-0.090052,0.966472,-0.240432,0.006052,-0.187725,0.182159
1146,-0.083092,0.972194,-0.218906,0.081596,-0.35429,0.124195
1147,-0.0887889999999999,0.971927,-0.217852,0.164213,-0.018543,0.419085
1148,-0.097323,0.969869,-0.223311,0.104892,0.08993,0.654891
1149,-0.096688,0.971517,-0.2163119999999999,-0.041206,0.196635,0.646946
1150,-0.092423,0.977306,-0.190567,-0.427108,0.087849,0.065612
1151,-0.0872,0.982027,-0.167344,-0.163105,-0.189027,0.041596
1152,-0.077432,0.98401,-0.160351,-0.115714,-0.238557,0.133999
1153,-0.064226,0.985212,-0.158796,0.024142,-0.303861,0.253004
1154,-0.051516,0.987516,-0.148802,0.081286,-0.287595,0.2818739999999999
1155,-0.040087,0.991331,-0.125054,0.098162,-0.137526,0.17965
1156,-0.031849,0.99523,-0.0921179999999999,0.100117,-0.089224,0.017335
1157,-0.024678,0.997753,-0.0621409999999999,0.088826,-0.099453,-0.065743
1158,-0.019943,0.999071,-0.037953,0.043885,-0.142123,-0.033596
1159,-0.020009,0.999713,-0.012468,0.048085,-0.130969,-0.087736
1160,-0.023783,0.999617,0.01342,0.019693,-0.040938,-0.170478
1161,-0.0295779999999999,0.998985,0.033664,-0.022027,0.03051,-0.147525
1162,-0.037672,0.998133,0.04785,0.098677,0.0385939999999999,-0.1034369999999999
1163,-0.047717,0.997163,0.058037,0.0448939999999999,0.20851,-0.0132979999999999
1164,-0.05231,0.996453,0.065761,0.130588,0.165656,-0.010234
1165,-0.051453,0.996052,0.072197,0.174637,0.123516,-0.148445
1166,-0.046561,0.995661,0.080437,0.134467,0.253682,-0.244408
1167,-0.042117,0.99515,0.08878,-0.029905,0.358152,-0.1920359999999999
1168,-0.0361509999999999,0.994841,0.094683,-0.130521,0.465471,-0.042239
1169,-0.0295199999999999,0.995078,0.094483,0.089457,0.295602,0.326538
1170,-0.022671,0.995398,0.092998,0.14201,0.118494,0.425176
1171,-0.016295,0.997023,0.075225,-0.0584429999999999,-0.175429,0.537034
1172,-0.0107599999999999,0.99897,0.043841,-0.437391,0.111244,0.28639
1173,-0.007848,0.999923,0.008498,-0.455531,0.188157,0.2157599999999999
1174,-0.0060539999999999,0.999534,-0.029582,-0.292331,0.242912,-0.035695
1175,-0.006086,0.997747,-0.066677,-0.17795,0.175822,-0.040729
1176,-0.011556,0.994619,-0.102868,0.233708,0.11529,0.051446
1177,-0.020556,0.990383,-0.136757,0.401613,0.036732,0.014488
1178,-0.02978,0.985297,-0.168188,0.316844,0.026269,0.049566
1179,-0.042461,0.979774,-0.195513,0.152172,-0.133933,0.034426
1180,-0.05616,0.973992,-0.21948,0.036843,-0.2247849999999999,0.040128
1181,-0.06945,0.968384,-0.2395719999999999,-0.013253,-0.289734,0.082224
1182,-0.080565,0.963264,-0.256161,-0.0164659999999999,-0.371146,0.131344
1183,-0.089068,0.959123,-0.268581,-0.0310029999999999,-0.3851179999999999,0.1091569999999999
1184,-0.0970429999999999,0.956877,-0.27378,-0.0289029999999999,-0.387434,0.103645
1185,-0.104391,0.957103,-0.270266,-0.002192,-0.530284,0.0809039999999999
1186,-0.10937,0.959274,-0.260419,-0.010686,-0.4943229999999999,-0.037524
1187,-0.1130099999999999,0.962147,-0.247967,0.059635,-0.357929,-0.116626
1188,-0.114558,0.965049,-0.235675,0.0499519999999999,-0.1665869999999999,-0.047803
1189,-0.11165,0.967383,-0.227354,-0.089293,0.187189,-0.02141
1190,-0.107422,0.967217,-0.230079,-0.269851,0.643027,-0.02427
1191,-0.10377,0.9653,-0.239611,-0.239369,0.5921649999999999,-0.282972
1192,-0.105182,0.965529,-0.2380679999999999,0.03165,0.267412,-0.550674
1193,-0.110784,0.9662,-0.232742,0.298116,0.11342,-0.5203399999999999
1194,-0.1180089999999999,0.962541,-0.244078,0.389233,0.22766,-0.260256
1195,-0.125489,0.957005,-0.261494,-0.268798,0.8475299999999999,0.463642
1196,-0.129323,0.951768,-0.278208,-0.5581619999999999,0.07962,0.335597
1197,-0.130045,0.951651,-0.2782719999999999,-0.306402,-0.167425,0.252759
1198,-0.1305319999999999,0.955747,-0.2636179999999999,0.0611049999999999,-0.31883,0.234275
1199,-0.127323,0.959076,-0.252876,0.354877,-0.296937,0.2852099999999999
1200,-0.125056,0.961324,-0.245363,0.3972719999999999,0.062495,0.411287
1201,-0.12336,0.963895,-0.235951,0.247414,0.160372,0.563588
1202,-0.120254,0.968159,-0.219525,-0.357666,0.0812789999999999,0.330624
1203,-0.119111,0.973744,-0.193956,-0.479689,0.007533,0.151171
1204,-0.114978,0.978877,-0.169008,-0.412396,-0.093623,-0.00804
1205,-0.103554,0.982583,-0.15424,-0.192924,-0.223215,0.087254
1206,-0.087997,0.985515,-0.1449119999999999,0.0021969999999999,-0.251094,0.237427
1207,-0.073345,0.989011,-0.128296,0.140926,-0.27252,0.19725
1208,-0.062193,0.992508,-0.105082,0.2561469999999999,-0.120941,0.137263
1209,-0.053109,0.995453,-0.078957,0.225014,-0.060944,0.003899
1210,-0.045096,0.997493,-0.054358,0.1635039999999999,-0.126277,-0.056787
1211,-0.039991,0.9987,-0.031292,0.1061069999999999,-0.135511,-0.06696
1212,-0.040477,0.999139,-0.0079849999999999,0.1235609999999999,-0.086724,-0.083126
1213,-0.045876,0.99883,0.014619,0.139825,-0.016576,-0.092699
1214,-0.055143,0.997935,0.032628,0.053678,0.06455,-0.078007
1215,-0.066276,0.996797,0.044529,-0.023156,0.083571,-0.079715
1216,-0.078396,0.995436,0.054222,-0.089253,-0.021361,-0.122902
1217,-0.087924,0.99406,0.063985,0.202091,0.062352,-0.148823
1218,-0.089836,0.993187,0.074077,0.468208,0.212104,-0.184444
1219,-0.085659,0.992714,0.08461,0.385067,0.352317,-0.223236
1220,-0.081169,0.992335,0.093065,0.21566,0.465429,-0.154573
1221,-0.073885,0.992571,0.09655,-0.084273,0.37718,-0.00103
1222,-0.065364,0.993383,0.094317,0.029322,0.024165,0.555707
1223,-0.05575,0.994907,0.08384,0.010309,-0.090702,0.621268
1224,-0.045742,0.996839,0.064791,-0.255711,0.113513,0.464124
1225,-0.036751,0.998721,0.034425,-0.374321,0.253675,0.19229
1226,-0.029957,0.999533,-0.004004,-0.364224,0.331766,0.135444
1227,-0.024719,0.99888,-0.040117,-0.46019,0.413413,0.11043
1228,-0.022309,0.996652,-0.078547,-0.284301,0.151816,0.072459
1229,-0.025186,0.992913,-0.11607,0.07966,-0.0579309999999999,0.025143
1230,-0.034555,0.987929,-0.15095,0.2605989999999999,-0.066954,0.069362
1231,-0.045321,0.982313,-0.181635,0.342104,-0.050825,0.136744
1232,-0.056134,0.976838,-0.206451,0.274106,-0.061799,0.143584
1233,-0.068451,0.971422,-0.227242,0.05101,-0.220018,0.096978
1234,-0.081526,0.966474,-0.2434469999999999,-0.00374,-0.260069,0.126702
1235,-0.0924519999999999,0.962293,-0.255792,-0.022645,-0.373869,0.148264
1236,-0.099688,0.959325,-0.264092,-0.011717,-0.457692,0.142006
1237,-0.103922,0.958362,-0.265949,-0.033636,-0.4994989999999999,0.117283
1238,-0.106478,0.95966,-0.260192,-0.016752,-0.5267229999999999,0.020491
1239,-0.108001,0.962568,-0.2485639999999999,0.029387,-0.464124,-0.07393
1240,-0.107188,0.966059,-0.235,0.061,-0.324748,-0.026688
1241,-0.101963,0.969457,-0.223027,-0.05772,0.013026,-0.021495
1242,-0.097098,0.970629,-0.22008,-0.289484,0.590436,0.095126
1243,-0.094922,0.968417,-0.230528,-0.3264039999999999,0.829465,0.012678
1244,-0.095868,0.968264,-0.2307789999999999,-0.02576,0.368132,-0.524439
1245,-0.101097,0.970044,-0.220857,0.330177,0.1191589999999999,-0.63008
1246,-0.108359,0.969683,-0.21899,0.23371,-0.049044,-0.17075
1247,-0.1151609999999999,0.965277,-0.2344389999999999,0.052538,0.205102,0.0600309999999999
1248,-0.118842,0.960267,-0.252485,-0.182321,0.375091,0.273283
1249,-0.118745,0.955954,-0.268395,-0.562605,0.422617,0.7758109999999999
1250,-0.1197049999999999,0.957859,-0.261076,-0.075272,0.171276,0.217283
1251,-0.124294,0.961157,-0.2463969999999999,0.194347,0.100702,0.141203
1252,-0.123142,0.962428,-0.2419739999999999,0.279041,-0.025691,0.325989
1253,-0.122803,0.962869,-0.240388,0.181015,0.0140449999999999,0.381821
1254,-0.120652,0.964418,-0.2352119999999999,0.067826,0.003127,0.465528
1255,-0.115016,0.968048,-0.222793,-0.260229,0.04245,0.349151
1256,-0.108121,0.972625,-0.205652,-0.386203,-0.01448,0.171259
1257,-0.0988059999999999,0.976686,-0.1905339999999999,-0.257304,-0.081453,0.113874
1258,-0.085507,0.980024,-0.179509,-0.1287569999999999,-0.1844309999999999,0.17455
1259,-0.069895,0.98341,-0.167339,0.014383,-0.340053,0.235973
1260,-0.056614,0.987286,-0.148469,0.117771,-0.342694,0.267365
1261,-0.046915,0.991722,-0.119449,0.1655829999999999,-0.209358,0.16962
1262,-0.039314,0.995328,-0.088071,0.121223,-0.110639,0.0319949999999999
1263,-0.032961,0.997683,-0.0593429999999999,0.060625,-0.1029839999999999,-0.0849289999999999
1264,-0.0310399999999999,0.998949,-0.033421,0.07529,-0.100084,-0.087001
1265,-0.033655,0.999386,-0.00854,0.13804,-0.0768549999999999,-0.088887
1266,-0.038852,0.999152,0.012781,0.096179,-0.030311,-0.132304
1267,-0.045929,0.998516,0.028895,0.001221,0.003239,-0.151057
1268,-0.055958,0.997621,0.039986,0.150715,0.119139,-0.020486
1269,-0.062176,0.996852,0.048956,0.282666,0.129582,-0.038549
1270,-0.061426,0.996444,0.057487,0.328806,0.231065,-0.178108
1271,-0.0566429999999999,0.996135,0.066966,0.235781,0.2731679999999999,-0.273783
1272,-0.0521909999999999,0.995833,0.074633,-0.01629,0.375108,-0.1988859999999999
1273,-0.045679,0.995884,0.0781309999999999,0.002436,0.3109699999999999,-0.061514
1274,-0.0379899999999999,0.996271,0.077307,0.084484,0.282232,0.1173039999999999
1275,-0.0290649999999999,0.997059,0.070746,0.124264,-0.18465,0.5250640000000001
1276,-0.0192199999999999,0.998296,0.0548769999999999,-0.207999,-0.053136,0.504587
1277,-0.012047,0.999456,0.030323,-0.33271,0.106974,0.421993
1278,-0.00852,0.999943,-0.004334,-0.457132,0.462902,0.154023
1279,-0.003952,0.999114,-0.041658,-0.460816,0.550737,0.0830549999999999
1280,0.000774,0.996833,-0.07939,-0.358212,0.341927,0.0446149999999999
1281,0.000848,0.993125,-0.116969,-0.055261,0.0528799999999999,0.046382
1282,-0.005942,0.988506,-0.150997,0.356589,0.027225,0.040676
1283,-0.0171139999999999,0.983165,-0.181867,0.467401,-0.061946,0.147764
1284,-0.024304,0.977656,-0.208761,0.333462,-0.060282,0.20548
1285,-0.034266,0.971779,-0.233355,-0.004324,-0.300133,0.0272089999999999
1286,-0.046897,0.965327,-0.256765,-0.0266509999999999,-0.303584,0.11051
1287,-0.058049,0.960053,-0.2737,-0.036967,-0.299821,0.157352
1288,-0.067322,0.957159,-0.2816,-0.009109,-0.426199,0.121428
1289,-0.076795,0.956311,-0.282055,0.137601,-0.511167,0.163983
1290,-0.083492,0.958257,-0.273418,0.134181,-0.541249,0.135036
1291,-0.088812,0.961879,-0.2586219999999999,0.0150199999999999,-0.538768,-0.030273
1292,-0.09291,0.966111,-0.240792,-0.064621,-0.269349,-0.098609
1293,-0.093568,0.969706,-0.2256099999999999,-0.063964,-0.272943,-0.113791
1294,-0.089744,0.971491,-0.219396,-0.185586,0.298788,0.02361
1295,-0.085994,0.970385,-0.225705,-0.314763,0.8539260000000001,-0.022327
1296,-0.086584,0.968291,-0.234306,-0.284143,0.596971,-0.350045
1297,-0.090797,0.968535,-0.231688,0.004372,0.314836,-0.560991
1298,-0.097741,0.968295,-0.229859,0.216988,0.203046,-0.223586
1299,-0.104227,0.96391,-0.244946,0.223475,0.207431,-0.2085
1300,-0.110989,0.957114,-0.267581,-0.184024,0.603113,0.366931
1301,-0.114356,0.951386,-0.285958,-0.434594,0.292663,0.458337
1302,-0.11029,0.951788,-0.286218,-0.207551,-0.231604,0.4172909999999999
1303,-0.106402,0.957443,-0.268265,0.007251,-0.296692,0.232773
1304,-0.110517,0.960568,-0.255108,0.16496,-0.119183,0.261867
1305,-0.120057,0.960573,-0.25074,0.131273,0.2071059999999999,0.361991
1306,-0.12395,0.960803,-0.247948,0.105441,0.216717,0.489251
1307,-0.116813,0.965534,-0.232559,-0.139138,0.151532,0.390625
1308,-0.106181,0.972802,-0.205831,-0.264348,-0.00187,0.090245
1309,-0.096191,0.977837,-0.18592,-0.139329,-0.110496,0.080604
1310,-0.083893,0.980724,-0.176426,-0.061737,-0.128581,0.203037
1311,-0.072143,0.983283,-0.167129,-0.002411,-0.193885,0.239608
1312,-0.061919,0.986637,-0.150652,0.059127,-0.326633,0.204393
1313,-0.053167,0.990311,-0.128215,0.076559,-0.285233,0.1754099999999999
1314,-0.0455389999999999,0.993808,-0.10126,0.055182,-0.135455,0.113604
1315,-0.039136,0.99651,-0.073598,0.051801,-0.095448,-0.0377
1316,-0.0339589999999999,0.998174,-0.049761,0.026299,-0.1350599999999999,-0.07649
1317,-0.032922,0.9991,-0.0263699999999999,0.0614409999999999,-0.204773,-0.038068
1318,-0.037139,0.999298,-0.001755,0.119781,-0.097138,-0.054581
1319,-0.045323,0.998749,0.020633,0.093037,-0.020386,-0.09296
1320,-0.054646,0.997773,0.037973,-0.05357,0.059341,-0.066858
1321,-0.062062,0.996681,0.052473,0.075718,0.036095,-0.080778
1322,-0.064851,0.995799,0.064467,0.302125,0.183919,-0.06404
1323,-0.061644,0.995324,0.0742039999999999,0.3348219999999999,0.234671,-0.145432
1324,-0.0567929999999999,0.994896,0.08327,0.149765,0.384163,-0.3864619999999999
1325,-0.055272,0.994565,0.08811,0.101857,0.362247,-0.130774
1326,-0.050896,0.994676,0.089472,-0.038749,0.35504,-0.058375
1327,-0.046172,0.995301,0.084984,0.1077559999999999,0.173004,0.514351
1328,-0.039473,0.996441,0.074333,-0.074494,-0.171764,0.691078
1329,-0.032066,0.998108,0.0522549999999999,-0.251092,-0.137131,0.601218
1330,-0.025841,0.99944,0.020742,-0.371651,0.2861889999999999,0.1977799999999999
1331,-0.020469,0.999675,-0.014524,-0.266182,0.455571,0.072065
1332,-0.0161949999999999,0.998753,-0.047019,-0.274302,0.523403,0.092414
1333,-0.014725,0.996443,-0.082857,-0.134841,0.208101,0.044909
1334,-0.018131,0.992647,-0.119601,0.1085849999999999,0.009825,-0.003553
1335,-0.024365,0.987654,-0.154688,0.195126,0.023561,0.046778
1336,-0.032246,0.982205,-0.184978,0.173802,-0.029599,0.111614
1337,-0.043691,0.976586,-0.210607,0.097662,-0.169747,0.086721
1338,-0.058299,0.970535,-0.2337679999999999,0.066982,-0.216278,0.095737
1339,-0.07332,0.964568,-0.2534119999999999,0.060045,-0.33203,0.2049349999999999
1340,-0.085334,0.959694,-0.267752,0.016181,-0.442726,0.182348
1341,-0.093681,0.956919,-0.274802,0.056602,-0.510798,0.18363
1342,-0.099511,0.957125,-0.27202,0.024331,-0.5507380000000001,0.08394
1343,-0.101998,0.959241,-0.263511,-0.020255,-0.506101,0.038505
1344,-0.103571,0.962809,-0.2495139999999999,-0.0001889999999999,-0.464091,-0.095411
1345,-0.1033559999999999,0.966631,-0.234367,0.034997,-0.298052,-0.11126
1346,-0.099309,0.969737,-0.223009,-0.0069989999999999,0.002095,-0.078291
1347,-0.094048,0.970469,-0.222101,-0.183387,0.496434,0.097223
1348,-0.091649,0.968098,-0.233177,-0.27444,0.876293,0.109795
1349,-0.09331,0.967544,-0.234812,0.065691,0.301712,-0.565878
1350,-0.099611,0.968545,-0.227996,0.187563,0.159369,-0.6019140000000001
1351,-0.1069599999999999,0.967146,-0.230594,0.437725,-0.01753,-0.275342
1352,-0.1099619999999999,0.962317,-0.248675,-0.072137,0.313638,0.042544
1353,-0.1097609999999999,0.956093,-0.271707,-0.393474,0.5291060000000001,0.514505
1354,-0.1082,0.95252,-0.2845789999999999,-0.4762119999999999,0.350917,0.7012970000000001
1355,-0.109669,0.956381,-0.270729,-0.147655,0.08967,0.260307
1356,-0.11356,0.960839,-0.252741,0.199696,-0.098504,0.187876
1357,-0.117872,0.962172,-0.2455929999999999,0.102552,0.042085,0.2656739999999999
1358,-0.122482,0.96177,-0.244914,0.023727,0.064079,0.447597
1359,-0.121368,0.963073,-0.240301,-0.055969,0.013123,0.478994
1360,-0.112995,0.968342,-0.222554,-0.272686,0.085109,0.277028
1361,-0.105615,0.973642,-0.202118,-0.118445,-0.041849,0.161041
1362,-0.095673,0.977242,-0.1892859999999999,-0.078521,-0.092369,0.142518
1363,-0.082406,0.980127,-0.180404,-0.037436,-0.217629,0.2274469999999999
1364,-0.069361,0.983526,-0.166884,0.063822,-0.386846,0.269851
1365,-0.057823,0.987689,-0.145294,0.0687789999999999,-0.361911,0.226242
1366,-0.048783,0.991954,-0.116753,0.032655,-0.185908,0.155068
1367,-0.042599,0.995209,-0.087902,0.043072,-0.071289,-0.02303
1368,-0.0376899999999999,0.997241,-0.063805,0.052933,-0.145084,-0.0608289999999999
1369,-0.036575,0.99845,-0.041739,0.117507,-0.180258,-0.054331
1370,-0.040378,0.99898,-0.019742,0.139423,-0.16054,-0.07085
1371,-0.047034,0.998884,0.000651,0.063956,-0.001508,-0.124964
1372,-0.0558669999999999,0.998292,0.016535,-0.065059,0.063384,-0.043299
1373,-0.065122,0.997446,0.0290199999999999,0.04965,0.086722,-0.04817
1374,-0.069731,0.996756,0.039958,0.346663,0.140894,0.015188
1375,-0.068011,0.996441,0.049597,0.191653,0.309071,-0.253562
1376,-0.063105,0.996062,0.062116,0.112971,0.403368,-0.301801
1377,-0.059333,0.995661,0.071538,0.036308,0.4430439999999999,-0.233251
1378,-0.0532129999999999,0.995663,0.07617,-0.015971,0.396594,-0.014387
1379,-0.045974,0.99604,0.075955,0.127349,0.2313309999999999,0.282901
1380,-0.037481,0.996934,0.068533,0.194265,0.197707,0.461786
1381,-0.028044,0.998258,0.051711,-0.256273,-0.126539,0.545121
1382,-0.021969,0.999412,0.025922,-0.4624819999999999,0.037071,0.340061
1383,-0.020961,0.999746,-0.007031,-0.468984,0.094401,0.241848
1384,-0.019801,0.998894,-0.0424149999999999,-0.253499,0.350044,0.1082109999999999
1385,-0.017649,0.997104,-0.073853,-0.193151,0.337231,0.0584419999999999
1386,-0.018705,0.994069,-0.107045,-0.050372,0.273021,0.057851
1387,-0.023545,0.989818,-0.140319,0.183869,0.0864299999999999,0.030669
1388,-0.032558,0.984868,-0.170172,0.224438,0.014537,0.0905059999999999
1389,-0.044502,0.979273,-0.197553,0.228279,-0.0071819999999999,0.120268
1390,-0.057134,0.973417,-0.221766,0.100759,-0.164579,0.069971
1391,-0.070585,0.96752,-0.242709,0.023894,-0.302923,0.13341
1392,-0.0823049999999999,0.96188,-0.260763,0.023513,-0.34573,0.177786
1393,-0.0910919999999999,0.957832,-0.2724789999999999,-0.015323,-0.45153,0.175234
1394,-0.097688,0.955828,-0.2771909999999999,-0.020858,-0.485491,0.119476
1395,-0.101385,0.956123,-0.274838,-0.018411,-0.517234,0.093151
1396,-0.10223,0.958519,-0.266038,-0.0307959999999999,-0.486778,0.0596779999999999
1397,-0.101784,0.962373,-0.251919,-0.034385,-0.43004,-0.108448
1398,-0.099254,0.966224,-0.2377909999999999,-0.023732,-0.247001,-0.043321
1399,-0.093212,0.96844,-0.231128,-0.056508,0.034032,-0.069745
1400,-0.088571,0.968482,-0.232771,-0.11492,0.477105,0.0516029999999999
1401,-0.087885,0.966405,-0.2415,-0.143545,0.728282,0.0729669999999999
1402,-0.092579,0.965833,-0.242033,0.068104,0.376162,-0.434054
1403,-0.101812,0.966632,-0.235037,0.292028,0.239179,-0.6049140000000001
1404,-0.11127,0.965526,-0.2352929999999999,0.329578,0.1027869999999999,-0.344129
1405,-0.116715,0.960878,-0.25115,0.030061,0.382063,-0.02981
1406,-0.1163309999999999,0.955205,-0.272096,-0.4744279999999999,0.372004,0.5513170000000001
1407,-0.110391,0.951654,-0.286626,-0.5232,0.207602,0.6669970000000001
1408,-0.100037,0.955678,-0.276873,-0.352249,0.112132,0.488955
1409,-0.095812,0.96218,-0.254981,0.028749,-0.298225,0.223227
1410,-0.098701,0.964729,-0.24401,-0.030068,-0.096153,0.31713
1411,-0.105361,0.9647,-0.241326,-0.044587,0.069235,0.500649
1412,-0.1075619999999999,0.965692,-0.236338,-0.068677,0.123191,0.505717
1413,-0.100785,0.970559,-0.21873,-0.250686,0.111991,0.15623
1414,-0.091847,0.976518,-0.1948339999999999,-0.130596,-0.0244,0.050837
1415,-0.0819059999999999,0.980696,-0.177514,-0.064731,-0.090254,0.029168
1416,-0.068912,0.983301,-0.1683849999999999,0.110538,-0.241678,0.110234
1417,-0.056044,0.985741,-0.158608,0.1789079999999999,-0.2833489999999999,0.17904
1418,-0.04566,0.988691,-0.142788,0.187673,-0.292509,0.164547
1419,-0.038651,0.991947,-0.120539,0.1543119999999999,-0.161106,0.012614
1420,-0.036049,0.994713,-0.096068,0.076805,-0.054558,-0.076387
1421,-0.034916,0.996559,-0.075055,0.059666,-0.029472,-0.112522
1422,-0.033138,0.997835,-0.056655,0.064907,-0.140779,-0.1057289999999999
1423,-0.032909,0.998733,-0.037819,0.072368,-0.227508,-0.0739669999999999
1424,-0.035684,0.999183,-0.018444,0.045495,-0.192116,-0.046345
1425,-0.041941,0.999109,0.0016699999999999,0.028055,-0.096079,-0.134345
1426,-0.050851,0.99849,0.020259,0.016458,0.06961,0.056646
1427,-0.058316,0.997631,0.036199,0.06326,0.119175,0.092509
1428,-0.058876,0.996913,0.0517409999999999,0.089943,0.176869,0.085603
1429,-0.055303,0.996339,0.065024,0.085424,0.336318,-0.173819
1430,-0.051886,0.995859,0.074513,0.040899,0.467337,-0.158344
1431,-0.048433,0.995668,0.079229,-0.061537,0.497435,-0.113042
1432,-0.040839,0.996053,0.078672,0.023078,0.344432,0.190265
1433,-0.031836,0.996994,0.070487,0.068717,0.025025,0.608178
1434,-0.02411,0.998244,0.0539059999999999,-0.1551809999999999,-0.003554,0.567997
1435,-0.02098,0.999367,0.028385,-0.334443,0.1177599999999999,0.305798
1436,-0.024149,0.999693,-0.003134,-0.2399349999999999,0.323,0.027426
1437,-0.0275279999999999,0.99905,-0.033482,-0.238967,0.3331639999999999,0.047566
1438,-0.027241,0.997524,-0.06469,-0.237713,0.193669,0.033776
1439,-0.029055,0.994602,-0.099517,-0.04846,0.1458549999999999,0.073501
1440,-0.035172,0.990298,-0.134366,0.122543,0.084882,0.065763
1441,-0.044157,0.985017,-0.166655,0.139113,0.0102989999999999,0.1257
1442,-0.054545,0.979375,-0.1945049999999999,0.122324,-0.087407,0.115342
1443,-0.065635,0.973228,-0.220235,0.092872,-0.195197,0.0926559999999999
1444,-0.075593,0.967083,-0.242942,0.044739,-0.215633,0.152198
1445,-0.082942,0.961583,-0.261655,0.042064,-0.321126,0.191739
1446,-0.08862,0.957911,-0.273015,0.011029,-0.4246319999999999,0.206609
1447,-0.092279,0.956508,-0.2766969999999999,0.00654,-0.520153,0.143473
1448,-0.09327,0.957304,-0.273596,-0.017081,-0.481825,0.097922
1449,-0.0930039999999999,0.960115,-0.263655,-0.00569,-0.500047,0.06436
1450,-0.093727,0.964007,-0.248777,0.033668,-0.483889,-0.052645
1451,-0.095099,0.967866,-0.232757,0.056616,-0.292466,-0.057953
1452,-0.093783,0.970351,-0.222727,-0.056226,0.060685,-0.1781829999999999
1453,-0.091762,0.970505,-0.2228969999999999,-0.111882,0.494827,-0.049915
1454,-0.092111,0.968697,-0.230488,-0.087393,0.509361,-0.2450369999999999
1455,-0.096224,0.968768,-0.228503,0.013597,0.341169,-0.4598819999999999
1456,-0.104889,0.969724,-0.2204949999999999,0.184052,0.150729,-0.285639
1457,-0.109804,0.967796,-0.22649,0.080065,0.351128,-0.092114
1458,-0.109771,0.962795,-0.2469,-0.1011669999999999,0.491596,0.038282
1459,-0.103208,0.956223,-0.273808,-0.348544,0.294464,0.7242930000000001
1460,-0.095815,0.954194,-0.283405,-0.285319,0.062332,0.589908
1461,-0.094889,0.959231,-0.266186,-0.075033,0.0624669999999999,0.217007
1462,-0.1010799999999999,0.962863,-0.250322,0.0297899999999999,-0.156726,0.07599
1463,-0.10876,0.963015,-0.2464889999999999,0.000468,0.072416,0.329619
1464,-0.112625,0.962651,-0.2461739999999999,0.035294,0.0889539999999999,0.452763
1465,-0.1072,0.965927,-0.235535,-0.115288,0.113068,0.380096
1466,-0.097597,0.972322,-0.212246,-0.183073,0.079085,0.127941
1467,-0.091812,0.977447,-0.190133,-0.08461,-0.052551,0.116585
1468,-0.08201,0.980468,-0.178714,-0.0826929999999999,-0.150024,0.151553
1469,-0.068737,0.982925,-0.170638,-0.049137,-0.258926,0.244704
1470,-0.055857,0.986058,-0.156692,0.0393009999999999,-0.374577,0.2550659999999999
1471,-0.0444009999999999,0.989772,-0.1355039999999999,0.056638,-0.3324539999999999,0.222845
1472,-0.035374,0.993476,-0.1083339999999999,0.049565,-0.148154,0.081951
1473,-0.029462,0.996155,-0.082384,0.070661,-0.068253,-0.0191789999999999
1474,-0.024679,0.997835,-0.060788,0.077459,-0.1034109999999999,-0.047381
1475,-0.023045,0.99894,-0.039599,0.125859,-0.157356,-0.0522889999999999
1476,-0.025606,0.999497,-0.0181449999999999,0.152574,-0.109391,-0.071638
1477,-0.031306,0.999499,0.0004759999999999,-0.0429579999999999,0.011518,-0.113041
1478,-0.0392029999999999,0.999102,0.015349,-0.052685,0.004422,-0.059585
1479,-0.047097,0.998461,0.0289149999999999,0.063271,0.034285,-0.05397
1480,-0.049441,0.997919,0.0411329999999999,0.237963,0.2003839999999999,0.004995
1481,-0.046151,0.997512,0.053087,0.051675,0.3456889999999999,-0.229555
1482,-0.040875,0.997076,0.0644,0.008496,0.339365,-0.274392
1483,-0.037149,0.996799,0.070636,-0.109153,0.35484,-0.102603
1484,-0.032198,0.996853,0.072288,-0.0495279999999999,0.306828,0.078286
1485,-0.025779,0.99737,0.06758,0.126518,0.058371,0.424683
1486,-0.016969,0.99832,0.055199,0.0524,-0.1615589999999999,0.627067
1487,-0.007877,0.999329,0.0354709999999999,-0.2923699999999999,-0.049881,0.512075
1488,-0.002391,0.999964,0.00672,-0.451588,0.2104239999999999,0.295938
1489,0.000175,0.999575,-0.0288149999999999,-0.3360059999999999,0.445249,0.128088
1490,0.001979,0.998055,-0.0621549999999999,-0.300487,0.473762,0.030706
1491,-0.000935,0.995399,-0.09572,-0.144176,0.3019489999999999,-0.026213
1492,-0.0080769999999999,0.991608,-0.128959,-0.033152,0.117264,0.029044
1493,-0.017712,0.986461,-0.162981,0.1277579999999999,0.138005,0.103915
1494,-0.0286459999999999,0.979977,-0.196995,0.210561,0.060565,0.169117
1495,-0.038751,0.972108,-0.231275,0.207879,-0.21251,0.141004
1496,-0.048901,0.964404,-0.259844,0.062985,-0.367678,0.170794
1497,-0.059832,0.958032,-0.280321,0.062014,-0.396417,0.195024
1498,-0.066762,0.953939,-0.292453,0.030629,-0.5002949999999999,0.2468139999999999
1499,-0.0719669999999999,0.952689,-0.295278,-0.020684,-0.447059,0.0907039999999999
1500,-0.078507,0.952877,-0.292996,-0.006622,-0.393994,0.082226
1501,-0.08187,0.954904,-0.28538,-0.0579919999999999,-0.434274,0.012782
1502,-0.08275,0.958311,-0.273454,-0.070906,-0.426741,-0.0558909999999999
1503,-0.082867,0.961757,-0.2610389999999999,-0.015903,-0.328411,-0.106775
1504,-0.0796549999999999,0.964656,-0.251156,-0.0047409999999999,0.272771,0.0665549999999999
1505,-0.074918,0.966264,-0.246386,-0.047793,0.493316,0.044161
1506,-0.0725519999999999,0.965026,-0.251884,-0.115924,0.637712,0.07505
1507,-0.073244,0.964749,-0.252744,-0.091261,0.48267,-0.519854
1508,-0.0787269999999999,0.96511,-0.2496969999999999,0.203987,0.213753,-0.595228
1509,-0.083658,0.96396,-0.2525219999999999,0.213403,0.097091,-0.237178
1510,-0.0906309999999999,0.960418,-0.263378,-0.1126619999999999,0.35196,0.015453
1511,-0.099237,0.956885,-0.27296,-0.254156,0.409036,0.144038
1512,-0.103794,0.954013,-0.281194,-0.473064,0.084103,0.4751479999999999
1513,-0.102012,0.955137,-0.278012,-0.252724,0.118914,0.530011
1514,-0.103697,0.958771,-0.264555,0.040892,0.068985,0.310301
1515,-0.108763,0.96126,-0.253249,0.139494,-0.048601,0.261321
1516,-0.117238,0.962176,-0.245878,0.149495,0.01846,0.308958
1517,-0.121483,0.96319,-0.239774,0.049644,0.036688,0.395154
1518,-0.117605,0.966484,-0.2281679999999999,-0.155969,0.055336,0.330478
1519,-0.110633,0.971816,-0.20813,-0.1900869999999999,-0.020674,0.13675
1520,-0.102677,0.97657,-0.189079,-0.105163,-0.097328,0.1282579999999999
1521,-0.091502,0.98026,-0.175215,-0.086934,-0.146947,0.152342
1522,-0.079853,0.983532,-0.1620839999999999,0.008549,-0.253292,0.205602
1523,-0.070008,0.986716,-0.146535,0.061692,-0.305152,0.2210739999999999
1524,-0.060011,0.99024,-0.125716,0.050459,-0.273275,0.200988
1525,-0.051183,0.993665,-0.0999559999999999,0.043539,-0.1650059999999999,0.077297
1526,-0.044463,0.996153,-0.075383,0.081374,-0.062086,-0.0277509999999999
1527,-0.038843,0.9978,-0.053544,0.070734,-0.084393,-0.070052
1528,-0.036555,0.998773,-0.033094,0.086924,-0.137888,-0.0415209999999999
1529,-0.038971,0.999151,-0.012589,0.1476599999999999,-0.064718,-0.002578
1530,-0.044552,0.998982,0.00528,0.079037,-0.024464,-0.025391
1531,-0.051125,0.998489,0.01959,-0.043129,-0.030044,-0.0970289999999999
1532,-0.057598,0.997837,0.031316,-0.022571,0.054287,-0.01296
1533,-0.059988,0.997242,0.043455,0.163152,0.234753,-0.055494
1534,-0.057072,0.996832,0.055194,0.23203,0.361246,-0.136569
1535,-0.05248,0.996426,0.066018,0.187551,0.393268,-0.198525
1536,-0.047943,0.996064,0.074394,0.080139,0.403701,-0.092598
1537,-0.042648,0.995972,0.078734,0.046463,0.403565,0.012574
1538,-0.0353329999999999,0.996314,0.078019,0.2272429999999999,0.151223,0.342315
1539,-0.0271509999999999,0.997209,0.069392,0.17362,0.041472,0.444524
1540,-0.019717,0.998491,0.051043,-0.133436,-0.179476,0.490552
1541,-0.015714,0.999539,0.0255789999999999,-0.453814,-0.048047,0.328517
1542,-0.014365,0.999877,-0.004367,-0.4544149999999999,0.155396,0.178958
1543,-0.013436,0.999273,-0.0353949999999999,-0.310676,0.402963,0.082651
1544,-0.013658,0.997656,-0.0669179999999999,-0.217772,0.4317569999999999,0.032143
1545,-0.01796,0.994925,-0.098908,0.0285959999999999,0.287881,-0.007644
1546,-0.024912,0.991338,-0.128883,0.086237,0.108073,0.112663
1547,-0.03412,0.986875,-0.157788,0.126054,0.021167,0.1123319999999999
1548,-0.044513,0.981128,-0.188119,0.141681,-0.034519,0.094903
1549,-0.054866,0.974261,-0.218608,0.101344,-0.203372,0.056407
1550,-0.064211,0.96725,-0.2455369999999999,0.068896,-0.278545,0.172478
1551,-0.07151,0.961369,-0.265784,0.111595,-0.345738,0.369483
1552,-0.072526,0.958396,-0.276046,-0.107177,-0.473869,0.010131
1553,-0.078942,0.956933,-0.279342,-0.0278089999999999,-0.415384,0.072021
1554,-0.084949,0.956312,-0.279709,0.01157,-0.431547,0.119156
1555,-0.08705,0.957711,-0.2742199999999999,-0.0272689999999999,-0.505059,0.085484
1556,-0.08784,0.960743,-0.263138,-0.023397,-0.401219,-0.020523
1557,-0.087532,0.964483,-0.249189,0.015312,-0.312002,-0.027361
1558,-0.0850559999999999,0.967182,-0.239396,0.004611,0.112515,-0.1064599999999999
1559,-0.08195,0.968059,-0.236921,0.044368,0.387974,0.020932
1560,-0.079374,0.967564,-0.239802,0.014402,0.4365949999999999,-0.036993
1561,-0.0827059999999999,0.96777,-0.237834,0.069019,0.4509609999999999,-0.568211
1562,-0.090623,0.967073,-0.237786,0.124803,0.396117,-0.5966859999999999
1563,-0.096343,0.96369,-0.249007,0.190215,0.54751,-0.304719
1564,-0.098401,0.958376,-0.26799,-0.282535,0.7639600000000001,0.162429
1565,-0.097256,0.952355,-0.289044,-0.386737,0.257285,0.501935
1566,-0.092139,0.951679,-0.2929219999999999,-0.285577,-0.177525,0.297057
1567,-0.086421,0.956498,-0.27862,0.011271,-0.244294,0.361109
1568,-0.0845669999999999,0.960841,-0.263853,-0.031278,-0.1695809999999999,0.1629779999999999
1569,-0.0875809999999999,0.96318,-0.254164,-0.019536,-0.030273,0.232878
1570,-0.088758,0.964738,-0.247765,-0.011645,0.114165,0.329582
1571,-0.086198,0.967681,-0.236959,0.020203,0.127351,0.377401
1572,-0.080603,0.973388,-0.2144849999999999,-0.013544,0.080383,0.199592
1573,-0.076455,0.978284,-0.192613,-0.012504,-0.043516,0.057115
1574,-0.072655,0.980939,-0.180181,0.050896,-0.116849,0.160513
1575,-0.066494,0.983059,-0.170757,0.026074,-0.1708039999999999,0.218807
1576,-0.0588789999999999,0.986111,-0.155252,0.0133009999999999,-0.23225,0.2228639999999999
1577,-0.0507899999999999,0.989789,-0.133127,0.004312,-0.277432,0.168238
1578,-0.04437,0.993402,-0.105674,-3.3e-05,-0.28689,0.109733
1579,-0.040499,0.996093,-0.078372,0.002291,-0.263198,0.0562309999999999
1580,-0.038554,0.99791,-0.051702,0.002589,-0.192139,0.039312
1581,-0.038549,0.998986,-0.022876,0.004568,-0.192346,-0.001248
1582,-0.042622,0.999077,0.003203,0.047581,-0.135628,-0.028944
1583,-0.050174,0.998425,0.024731,0.0589779999999999,0.104907,-0.037029
1584,-0.058602,0.99746,0.040257,0.0478899999999999,0.1552339999999999,-0.069569
1585,-0.066537,0.996378,0.052774,0.0578399999999999,0.168356,-0.101969
1586,-0.070254,0.995518,0.063159,0.199099,0.279018,-0.129367
1587,-0.068355,0.995175,0.070245,0.178035,0.327731,-0.160241
1588,-0.063252,0.995011,0.077024,0.125798,0.373397,-0.142286
1589,-0.057754,0.994947,0.082011,0.039779,0.425112,-0.067027
1590,-0.052565,0.995433,0.079569,0.034285,0.207875,0.308905
1591,-0.045195,0.996633,0.0682779999999999,0.095137,-0.131627,0.645666
1592,-0.034972,0.998032,0.051875,-0.180696,-0.05214,0.5534720000000001
1593,-0.0255169999999999,0.999196,0.030625,-0.379146,0.052913,0.2162929999999999
1594,-0.021731,0.999755,-0.000901,-0.267408,0.526826,0.1117869999999999
1595,-0.024559,0.999156,-0.032683,-0.193703,0.754918,0.132491
1596,-0.025838,0.997643,-0.063449,-0.2154039999999999,0.356041,0.1211579999999999
1597,-0.0277149999999999,0.994653,-0.099414,-0.1054789999999999,0.041007,0.1133599999999999
1598,-0.032422,0.990288,-0.135147,0.006543,0.083565,0.054794
1599,-0.040788,0.985143,-0.166778,0.092195,0.1030069999999999,0.137908
1600,-0.05241,0.979686,-0.1935349999999999,0.184033,-0.039195,0.1113349999999999
1601,-0.06546,0.973798,-0.217761,0.156601,-0.261075,0.156405
1602,-0.077425,0.967873,-0.239195,0.1132519999999999,-0.313271,0.203062
1603,-0.08814,0.962438,-0.256774,0.026479,-0.4754229999999999,0.2330159999999999
1604,-0.096233,0.958624,-0.267891,-0.0017739999999999,-0.478018,0.196312
1605,-0.100663,0.956893,-0.272414,-0.020416,-0.464431,0.159728
1606,-0.101363,0.957547,-0.269845,-0.000871,-0.473355,0.108148
1607,-0.099632,0.960105,-0.261263,-0.022972,-0.487541,-0.01689
1608,-0.09801,0.963347,-0.249687,-0.013684,-0.4473399999999999,-0.076805
1609,-0.094356,0.96593,-0.2409619999999999,-0.040043,-0.129702,-0.131322
1610,-0.0890519999999999,0.96687,-0.239203,-0.1258369999999999,0.411533,0.086951
1611,-0.085204,0.965701,-0.2452489999999999,-0.147584,0.6220979999999999,0.148569
1612,-0.08549,0.964395,-0.25024,-0.101857,0.532263,-0.223744
1613,-0.091339,0.965593,-0.243459,0.179031,0.360243,-0.601268
1614,-0.099713,0.965639,-0.239965,0.406034,0.1217319999999999,-0.4958439999999999
1615,-0.097153,0.961975,-0.255247,0.100434,0.211609,-0.139895
1616,-0.099781,0.958268,-0.267866,-0.156582,0.42604,0.083525
1617,-0.1033559999999999,0.954676,-0.279101,-0.303901,0.23763,0.3387469999999999
1618,-0.100413,0.952686,-0.286869,-0.328435,0.129513,0.6530189999999999
1619,-0.092048,0.95644,-0.277013,-0.209984,0.2448239999999999,0.492101
1620,-0.089965,0.962143,-0.257242,-0.087815,-0.1491549999999999,0.185647
1621,-0.097035,0.964259,-0.246525,-0.009746,-0.076457,0.2203409999999999
1622,-0.103638,0.963746,-0.2458429999999999,0.040878,0.067092,0.471063
1623,-0.101923,0.965891,-0.238017,0.015375,0.083151,0.436122
1624,-0.094118,0.971888,-0.215777,-0.186919,0.125279,0.14487
1625,-0.086974,0.977299,-0.19315,-0.099763,0.024807,0.0077859999999999
1626,-0.078456,0.980455,-0.180378,0.035563,-0.095507,0.064839
1627,-0.067768,0.982619,-0.172775,0.047443,-0.2057639999999999,0.169907
1628,-0.056807,0.985257,-0.161323,0.092757,-0.296155,0.261726
1629,-0.046107,0.988687,-0.142672,0.040507,-0.3608639999999999,0.249331
1630,-0.037034,0.992602,-0.115551,-0.0146169999999999,-0.302707,0.152096
1631,-0.031479,0.995723,-0.086756,-0.0485079999999999,-0.172298,0.024928
1632,-0.026779,0.997693,-0.062232,-0.018768,-0.092053,-0.060662
1633,-0.023754,0.998946,-0.039039,0.032756,-0.121443,-0.054512
1634,-0.024786,0.999575,-0.014696,0.102652,-0.1031509999999999,-0.039702
1635,-0.029566,0.999529,0.00688,0.103846,-0.0509509999999999,-0.0739269999999999
1636,-0.036324,0.99906,0.023223,0.0490339999999999,0.049036,-0.068984
1637,-0.0437069999999999,0.998338,0.037284,0.1067869999999999,0.13394,-0.012168
1638,-0.0463779999999999,0.997639,0.050457,0.1468269999999999,0.147549,-0.0333209999999999
1639,-0.044274,0.99705,0.0625309999999999,0.198495,0.222661,-0.116516
1640,-0.040081,0.996418,0.074326,0.106594,0.437771,-0.2101739999999999
1641,-0.035649,0.996001,0.081796,-0.003505,0.544618,-0.0503329999999999
1642,-0.029524,0.996008,0.084116,0.0245039999999999,0.446771,0.106145
1643,-0.021634,0.996594,0.079451,0.0918399999999999,0.311084,0.28911
1644,-0.013153,0.997709,0.06622,0.002274,-0.100187,0.590915
1645,-0.005864,0.998998,0.044159,-0.33723,-0.060949,0.39418
1646,-0.003274,0.999883,0.014318,-0.423301,0.10055,0.241999
1647,-0.003939,0.999786,-0.019865,-0.362119,0.273102,0.1235329999999999
1648,-0.004569,0.998644,-0.051684,-0.242776,0.366666,0.02315
1649,-0.008067,0.996393,-0.0843759999999999,-0.0199629999999999,0.2448179999999999,-0.059713
1650,-0.014832,0.993113,-0.116149,0.033249,0.124792,0.0847769999999999
1651,-0.022905,0.988635,-0.148531,0.087083,0.077909,0.073152
1652,-0.031981,0.983223,-0.179542,0.127974,0.036721,0.10636
1653,-0.042967,0.977282,-0.207509,0.152449,-0.013857,0.118596
1654,-0.05421,0.970958,-0.2329969999999999,0.072963,-0.24647,0.1602589999999999
1655,-0.065636,0.964929,-0.2541469999999999,0.051613,-0.34237,0.178402
1656,-0.076902,0.959849,-0.269743,0.0538,-0.392802,0.201475
1657,-0.085799,0.95672,-0.278048,0.011779,-0.480463,0.165774
1658,-0.091121,0.955872,-0.2792719999999999,-0.005726,-0.4907229999999999,0.110403
1659,-0.093812,0.957159,-0.273921,-0.004836,-0.49851,0.095286
1660,-0.094965,0.960176,-0.262734,-0.01113,-0.526964,-0.024345
1661,-0.095294,0.963784,-0.24905,-0.0128289999999999,-0.369347,-0.093907
1662,-0.092622,0.966383,-0.239813,-0.032317,-0.246382,-0.178553
1663,-0.087885,0.967593,-0.236695,-0.080557,0.270398,-0.0283199999999999
1664,-0.085944,0.966394,-0.2422429999999999,-0.0518429999999999,0.807975,0.14065
1665,-0.088326,0.965794,-0.243773,-0.129386,0.560009,-0.301561
1666,-0.096274,0.966977,-0.235945,0.097311,0.29909,-0.605745
1667,-0.107013,0.967051,-0.230967,0.155475,0.058966,-0.295553
1668,-0.110975,0.962961,-0.245716,0.023024,0.2607489999999999,-0.13557
1669,-0.107745,0.957538,-0.26739,-0.315076,0.490079,0.335978
1670,-0.097876,0.952781,-0.287426,-0.401392,0.141152,0.829556
1671,-0.090266,0.95551,-0.28078,-0.25327,0.189845,0.618259
1672,-0.091686,0.961303,-0.259761,-0.054478,0.075257,0.254039
1673,-0.0972389999999999,0.963784,-0.248294,0.029368,-0.109749,0.145816
1674,-0.103796,0.963511,-0.2466949999999999,0.0828909999999999,0.0128379999999999,0.3655
1675,-0.104166,0.964782,-0.2415139999999999,0.077296,-0.016952,0.482695
1676,-0.095777,0.970067,-0.2231159999999999,-0.163928,0.055812,0.341524
1677,-0.088651,0.976194,-0.197913,-0.259646,0.079088,0.052298
1678,-0.081325,0.980174,-0.1806299999999999,-0.073735,-0.033595,0.06715
1679,-0.067302,0.982605,-0.173033,-0.042607,-0.2112889999999999,0.193449
1680,-0.050775,0.985197,-0.163681,-0.015799,-0.310926,0.259598
1681,-0.036133,0.988583,-0.146219,0.026657,-0.393704,0.299189
1682,-0.026195,0.992541,-0.1189829999999999,0.008159,-0.195743,0.148646
1683,-0.021325,0.995743,-0.089567,0.012109,-0.135224,0.053739
1684,-0.017907,0.997734,-0.064698,0.016045,-0.0757679999999999,-0.06816
1685,-0.016155,0.998999,-0.041468,0.094158,-0.164053,-0.067373
1686,-0.018542,0.999665,-0.017454,0.128069,-0.153505,-0.084016
1687,-0.023313,0.99971,0.00396,0.1098609999999999,-0.064331,-0.090096
1688,-0.028797,0.999324,0.022354,-0.01086,-0.025219,-0.091644
1689,-0.035567,0.998669,0.037063,0.033904,-0.016537,-0.032226
1690,-0.036686,0.998045,0.050369,0.182118,0.068407,-0.042969
1691,-0.03215,0.997542,0.062075,0.13243,0.286958,-0.1535359999999999
1692,-0.026398,0.996934,0.073496,0.01323,0.327345,-0.2515199999999999
1693,-0.022803,0.996487,0.080434,-0.1677799999999999,0.41283,0.031764
1694,-0.017384,0.996447,0.0822669999999999,-0.047313,0.341947,0.158288
1695,-0.010022,0.99697,0.076986,0.030026,0.2466829999999999,0.34785
1696,-7.6e-05,0.997959,0.063674,0.053741,-0.151142,0.69922
1697,0.010509,0.999026,0.042582,-0.1677809999999999,-0.116473,0.631688
1698,0.014785,0.999822,0.010722,-0.467865,0.219538,0.372869
1699,0.016422,0.999495,-0.026805,-0.518161,0.489564,0.120738
1700,0.017917,0.997922,-0.06172,-0.5259119999999999,0.423266,0.154371
1701,0.015434,0.995171,-0.096831,-0.272499,0.308372,0.029555
1702,0.008075,0.991637,-0.128733,0.2212489999999999,0.053025,-0.066092
1703,-0.002708,0.987417,-0.158058,0.244346,0.161845,0.0600809999999999
1704,-0.016608,0.981988,-0.188166,0.2487849999999999,0.243522,0.023234
1705,-0.0322649999999999,0.975468,-0.2177239999999999,0.144005,-0.300984,0.10371
1706,-0.047174,0.968528,-0.244359,0.093973,-0.3710699999999999,0.175313
1707,-0.0610929999999999,0.962229,-0.265267,0.047146,-0.5053350000000001,0.209191
1708,-0.073015,0.957903,-0.277624,0.015642,-0.572146,0.183691
1709,-0.082273,0.956096,-0.2812409999999999,-0.021258,-0.566264,0.138129
1710,-0.0887,0.95678,-0.276928,-0.043136,-0.5349659999999999,0.099469
1711,-0.0921309999999999,0.959339,-0.266764,-0.036241,-0.4986,0.046687
1712,-0.09277,0.963036,-0.252859,-0.039935,-0.476067,-0.064508
1713,-0.090193,0.96663,-0.2397389999999999,-0.069124,-0.301224,-0.084129
1714,-0.083522,0.969154,-0.231832,-0.077458,0.028023,-0.1509039999999999
1715,-0.076837,0.969773,-0.231559,-0.1417759999999999,0.512146,0.1010809999999999
1716,-0.0733419999999999,0.96785,-0.240562,-0.319893,0.8412620000000001,0.138221
1717,-0.075128,0.96793,-0.239686,-0.2404079999999999,0.488246,-0.485153
1718,-0.08227,0.968822,-0.2336619999999999,0.205134,0.156849,-0.59904
1719,-0.0909929999999999,0.965916,-0.242299,0.340917,0.034267,-0.323375
1720,-0.094059,0.959786,-0.264476,0.021977,0.28994,0.135798
1721,-0.092569,0.955029,-0.2816619999999999,-0.430762,0.337771,0.510055
1722,-0.091471,0.954175,-0.2849,-0.581991,0.261752,0.519305
1723,-0.093413,0.957726,-0.272063,-0.135728,0.0998,0.425933
1724,-0.095082,0.961503,-0.257789,0.0179639999999999,-0.063706,0.364585
1725,-0.09972,0.963551,-0.24821,0.061573,0.029323,0.352138
1726,-0.1032619999999999,0.96501,-0.2409909999999999,0.06214,0.019823,0.350595
1727,-0.100435,0.968297,-0.228685,-0.0551899999999999,-0.050313,0.375017
1728,-0.093109,0.974266,-0.205231,-0.148926,-0.020194,0.20749
1729,-0.0868159999999999,0.979203,-0.183322,-0.086966,-0.018754,0.021564
1730,-0.077961,0.981954,-0.172251,0.034443,-0.184255,0.1736089999999999
1731,-0.06586,0.984322,-0.163571,0.047244,-0.246651,0.210232
1732,-0.053417,0.987522,-0.148084,0.110775,-0.35651,0.206708
1733,-0.041379,0.991466,-0.123554,0.099301,-0.326533,0.174152
1734,-0.030204,0.99531,-0.091799,0.036811,-0.20997,0.073916
1735,-0.021609,0.997979,-0.059595,-0.00131,-0.1187059999999999,0.009714
1736,-0.016966,0.999382,-0.030462,-0.01259,-0.085441,-0.069575
1737,-0.017574,0.999809,-0.007232,0.025584,-0.08097,-0.065232
1738,-0.021782,0.999696,0.010601,0.1217569999999999,-0.048219,-0.044735
1739,-0.02621,0.999318,0.025601,0.021633,0.0308339999999999,-0.053417
1740,-0.032432,0.998777,0.037022,0.040352,0.0579549999999999,-0.067937
1741,-0.040063,0.998097,0.046632,0.064157,0.1472119999999999,-0.0956279999999999
1742,-0.042775,0.997572,0.05474,0.157933,0.242601,-0.112739
1743,-0.039846,0.997195,0.063177,0.1592299999999999,0.269575,-0.187124
1744,-0.034231,0.996772,0.0724549999999999,0.149007,0.3891219999999999,-0.213294
1745,-0.0287769999999999,0.996437,0.079132,0.0060869999999999,0.504814,-0.049453
1746,-0.021985,0.996435,0.0813059999999999,0.025387,0.401057,0.003442
1747,-0.0137819999999999,0.996925,0.0769919999999999,0.13837,-0.230979,0.584553
1748,-0.005815,0.997976,0.063139,-0.051466,-0.253805,0.612825
1749,-0.000131,0.999147,0.041023,-0.295951,-0.130281,0.538826
1750,0.001478,0.999929,0.010831,-0.4624,0.333292,0.2350949999999999
1751,0.0006389999999999,0.999708,-0.023715,-0.388838,0.437487,0.145755
1752,0.001818,0.998281,-0.058404,-0.280352,0.436015,0.095773
1753,0.0022949999999999,0.995559,-0.094009,-0.020346,0.180757,0.078155
1754,-0.000904,0.991956,-0.126501,0.063205,0.052584,0.054616
1755,-0.009965,0.98788,-0.154836,0.0956279999999999,0.0882,0.051122
1756,-0.024447,0.983415,-0.179664,0.144899,0.09854,0.047081
1757,-0.042662,0.978357,-0.202433,0.136138,-0.050394,0.115977
1758,-0.0596509999999999,0.972478,-0.2251909999999999,0.134114,-0.205846,0.093325
1759,-0.073539,0.966398,-0.246272,0.030463,-0.414365,0.208385
1760,-0.087056,0.961396,-0.261,-0.01179,-0.497407,0.223387
1761,-0.098814,0.95785,-0.269709,-0.009432,-0.530695,0.2033329999999999
1762,-0.107304,0.956245,-0.272148,-0.00674,-0.557732,0.17942
1763,-0.111791,0.957019,-0.267584,-0.035059,-0.556476,0.110953
1764,-0.113715,0.959234,-0.258693,-0.054269,-0.436209,-0.030797
1765,-0.1130289999999999,0.961743,-0.249517,-0.069039,-0.226132,-0.138941
1766,-0.1079619999999999,0.963176,-0.246211,-0.07937,0.050252,-0.206181
1767,-0.10097,0.963993,-0.245979,0.042391,0.450833,0.007011
1768,-0.096631,0.963924,-0.2479849999999999,0.017575,0.632497,0.043014
1769,-0.098137,0.964999,-0.243164,0.067024,0.4418149999999999,-0.501541
1770,-0.107424,0.96563,-0.236648,0.273744,0.255271,-0.6289680000000001
1771,-0.1151599999999999,0.963214,-0.242778,0.2308219999999999,0.078092,-0.21996
1772,-0.1183859999999999,0.959825,-0.254371,-0.156181,0.405013,0.184699
1773,-0.118597,0.955762,-0.269142,-0.5869989999999999,0.776583,0.606468
