,gravity.x,gravity.y,gravity.z,userAcceleration.x,userAcceleration.y,userAcceleration.z
0,-0.23959,0.970851,-0.00664,0.391979,0.913534,-0.509779
1,-0.264657,0.962967,0.051483,0.611504,0.886597,-0.076187
2,-0.287038,0.952056,0.105814,0.636739,0.767762,0.0721639999999999
3,-0.306764,0.939602,0.151799,0.58191,0.588902,0.044307
4,-0.320598,0.927167,0.193847,0.164042,0.0292389999999999,-0.153686
5,-0.3347449999999999,0.912898,0.233582,0.162839,-0.17776,-0.135331
6,-0.345461,0.899342,0.268028,0.182329,-0.342595,-0.088279
7,-0.347657,0.8905299999999999,0.293408,0.201234,-0.8666659999999999,-0.159329
8,-0.3415849999999999,0.887044,0.310596,0.110078,-1.0059870000000002,-0.346836
9,-0.330841,0.886487,0.323547,0.1070089999999999,-1.056196,-0.370727
10,-0.315893,0.888009,0.3341409999999999,0.281881,-1.034158,-0.346027
11,-0.296681,0.8911469999999999,0.3432699999999999,0.301793,-0.876591,-0.275307
12,-0.278611,0.893416,0.3523949999999999,0.33635,-0.373259,0.14347
13,-0.26728,0.894325,0.358805,0.130088,0.221687,0.300878
14,-0.256003,0.896854,0.360713,0.0308139999999999,0.4586,0.345921
15,-0.2354639999999999,0.900921,0.36455,-0.066721,0.6366310000000001,0.214612
16,-0.219264,0.8955770000000001,0.3871219999999999,0.019175,0.839576,0.685998
17,-0.218777,0.8863040000000001,0.408167,-0.133182,0.285708,0.774008
18,-0.217328,0.887049,0.4073219999999999,0.389676,0.147146,-0.1890599999999999
19,-0.2085389999999999,0.879423,0.42793,0.417447,0.8295299999999999,-0.26994
20,-0.195741,0.862935,0.46586,0.313692,1.008616,-0.780496
21,-0.195904,0.8566010000000001,0.47734,0.447293,0.491589,-0.122024
22,-0.19694,0.8552719999999999,0.479293,0.272364,-0.060182,-0.3739929999999999
23,-0.211411,0.853258,0.4767109999999999,0.045899,0.145811,-0.562541
24,-0.220304,0.8635209999999999,0.453647,-0.169436,0.232594,-0.459399
25,-0.217856,0.882374,0.417076,-0.156839,0.175137,-0.294258
26,-0.211719,0.904535,0.370119,0.0378149999999999,-0.03718,-0.188372
27,-0.208401,0.925343,0.316711,0.060634,-0.309285,-0.150863
28,-0.2114579999999999,0.941875,0.261063,0.112002,-0.496913,-0.177247
29,-0.215198,0.954348,0.20714,0.295795,-0.7181109999999999,-0.364123
30,-0.214032,0.963985,0.157862,0.444166,-0.660045,-0.403315
31,-0.208012,0.971769,0.111332,0.469441,-0.3795139999999999,-0.232808
32,-0.200538,0.977497,0.065435,0.403296,-0.246021,-0.094167
33,-0.189708,0.981586,0.022284,0.3004719999999999,-0.2265199999999999,-0.105932
34,-0.173735,0.98464,-0.017259,0.168486,-0.285406,-0.112913
35,-0.154264,0.986634,-0.052474,-0.030443,0.153488,0.136138
36,-0.1328359999999999,0.987793,-0.081346,-0.034858,0.348175,0.167192
37,-0.110118,0.988782,-0.1009029999999999,-0.0577289999999999,0.346469,0.1014679999999999
38,-0.087635,0.98949,-0.115003,-0.3256489999999999,0.457333,0.305525
39,-0.068989,0.989875,-0.1240349999999999,-0.3714409999999999,0.5464100000000001,0.230266
40,-0.059308,0.989703,-0.1302569999999999,-0.5680569999999999,0.5677770000000001,0.1190259999999999
41,-0.058212,0.989511,-0.132196,-0.623276,0.412467,0.016336
42,-0.064067,0.98976,-0.12754,-0.425984,0.483705,-0.107079
43,-0.085475,0.989557,-0.116042,-0.011266,0.302587,-0.010728
44,-0.114199,0.98973,-0.085952,0.406161,0.205048,-0.070008
45,-0.148964,0.987733,-0.046789,0.249825,0.4392689999999999,-0.101969
46,-0.1829309999999999,0.983123,-0.000878,0.208688,0.727113,-0.328117
47,-0.216139,0.975118,0.049234,0.353926,0.717051,-0.091562
48,-0.2483389999999999,0.963273,0.102115,0.514346,0.677702,-0.017154
49,-0.278076,0.948587,0.151171,0.673431,0.6164609999999999,0.016386
50,-0.300679,0.934017,0.192874,0.276646,0.052784,-0.072436
51,-0.317406,0.919966,0.230026,0.149864,-0.09625,-0.130341
52,-0.331078,0.905214,0.2664,-0.038566,-0.521501,-0.176526
53,-0.337181,0.891493,0.302561,-0.032661,-0.743757,-0.189646
54,-0.333773,0.88207,0.332476,0.116091,-0.8445790000000001,-0.253253
55,-0.3216699999999999,0.8755629999999999,0.360432,0.3109429999999999,-0.777159,-0.438877
56,-0.303121,0.8715120000000001,0.3854579999999999,0.3430829999999999,-0.755636,-0.45069
57,-0.282771,0.869547,0.4048719999999999,0.430339,-0.678217,-0.353862
58,-0.268084,0.8699309999999999,0.4139359999999999,0.470599,-0.577588,-0.135265
59,-0.262677,0.873984,0.408834,0.395733,-0.342811,0.111018
60,-0.262473,0.8790620000000001,0.397932,0.175941,-0.049717,0.200213
61,-0.262094,0.8839969999999999,0.387104,0.047861,0.355017,0.383389
62,-0.255152,0.888652,0.381034,-0.117574,1.030033,0.190361
63,-0.242859,0.885424,0.39628,-0.234039,0.717527,0.569296
64,-0.240615,0.878812,0.4120529999999999,-0.192399,-0.0748419999999999,0.816204
65,-0.238564,0.880215,0.410246,0.16787,-0.055722,0.0807809999999999
66,-0.23104,0.8760969999999999,0.423164,0.506767,0.6732199999999999,-0.321556
67,-0.220005,0.861059,0.458441,0.336171,0.963221,-1.0026
68,-0.215221,0.853951,0.473751,0.705242,1.28498,-0.392971
69,-0.205839,0.8524799999999999,0.480521,0.238263,-0.242098,-0.1228549999999999
70,-0.224707,0.850514,0.475527,0.289145,-0.148106,-0.322146
71,-0.252623,0.850891,0.460607,0.084899,0.152817,-0.650502
72,-0.262857,0.864038,0.429343,-0.217001,0.460547,-0.3366
73,-0.260811,0.8809110000000001,0.394924,0.089775,0.243478,-0.525341
74,-0.262034,0.8991100000000001,0.350617,0.152033,-0.1625839999999999,-0.3100739999999999
75,-0.273053,0.915333,0.2959739999999999,0.313855,-0.300404,-0.059569
76,-0.287547,0.927401,0.239244,0.467555,-0.480181,-0.335573
77,-0.296125,0.937191,0.18433,0.459012,-0.491924,-0.3427929999999999
78,-0.297441,0.945915,0.129494,0.443651,-0.453437,-0.331337
79,-0.2907389999999999,0.953725,0.076647,0.26222,-0.193639,-0.192415
80,-0.277061,0.960418,0.028799,0.1365589999999999,-0.160522,-0.035025
81,-0.256812,0.966339,-0.01523,0.09983,-0.202545,-0.049513
82,-0.22999,0.971632,-0.055053,0.047999,-0.334135,0.021118
83,-0.2002789999999999,0.975534,-0.090654,-0.188866,0.302023,0.233659
84,-0.172071,0.977821,-0.119389,-0.277926,0.388329,0.36121
85,-0.150342,0.978968,-0.137895,-0.553897,0.3739679999999999,0.251619
86,-0.134864,0.979489,-0.149698,-0.197717,0.470889,0.252298
87,-0.128955,0.97881,-0.159055,-0.137295,0.446575,0.153745
88,-0.128985,0.978306,-0.162099,-0.278043,0.387706,0.246373
89,-0.132487,0.97773,-0.162753,-0.04717,0.512688,0.198062
90,-0.150314,0.975964,-0.157788,-0.029343,0.514454,0.193097
91,-0.177949,0.974403,-0.137369,0.456956,0.192849,-0.063253
92,-0.210454,0.972262,-0.102034,0.524526,0.323773,-0.051744
93,-0.24239,0.968381,-0.058998,0.556462,0.327655,-0.0947799999999999
94,-0.276627,0.960817,-0.017433,0.424516,0.905516,-0.295616
95,-0.313089,0.949142,0.033163,0.603876,0.927475,0.028269
96,-0.342863,0.935714,0.082942,0.63365,0.940903,-0.0215099999999999
97,-0.361402,0.923722,0.126973,0.290479,0.263275,-0.049291
98,-0.374616,0.91204,0.166856,0.222105,0.107446,-0.149248
99,-0.385002,0.89899,0.2087699999999999,0.2157059999999999,-0.1008179999999999,-0.148086
100,-0.387083,0.887208,0.251044,0.220823,-0.426942,-0.079978
101,-0.381363,0.879394,0.284995,0.280548,-0.7498020000000001,-0.145622
102,-0.370303,0.8756780000000001,0.309933,0.349719,-0.876532,-0.186504
103,-0.358163,0.873727,0.32911,0.295007,-0.886575,-0.280618
104,-0.343919,0.873851,0.343655,0.209031,-0.851817,-0.2182889999999999
105,-0.327345,0.877492,0.350495,0.185988,-0.7827350000000001,-0.126908
106,-0.309471,0.8847440000000001,0.348496,0.069741,-0.5006189999999999,0.041045
107,-0.288414,0.892352,0.347157,-0.270607,-0.101367,0.3805949999999999
108,-0.2684829999999999,0.895582,0.354744,-0.321208,0.090975,0.564797
109,-0.255119,0.8935629999999999,0.369397,-0.0418329999999999,0.4900739999999999,0.767444
110,-0.243276,0.8868540000000001,0.392812,0.318578,0.561144,0.127406
111,-0.224491,0.881806,0.414747,0.459934,0.1597589999999999,0.2389239999999999
112,-0.2029089999999999,0.8838389999999999,0.4214859999999999,0.58508,-0.16544,0.497795
113,-0.179848,0.883333,0.432864,0.594169,1.098906,0.078825
114,-0.1690809999999999,0.870901,0.461449,0.3420539999999999,1.395563,-0.054116
115,-0.17504,0.86575,0.4688609999999999,0.524939,0.008868,-0.5646399999999999
116,-0.176177,0.866109,0.4677699999999999,0.328963,-0.112783,-0.468717
117,-0.182726,0.862474,0.471955,-0.109068,0.0984179999999999,-0.547898
118,-0.204926,0.86518,0.4576689999999999,0.02916,0.666345,-0.280759
119,-0.218217,0.876058,0.429994,-0.096388,0.753321,-0.2182329999999999
120,-0.220207,0.890192,0.398823,-0.188942,-0.0379269999999999,-0.3507119999999999
121,-0.215652,0.907008,0.361694,-0.087326,-0.330455,-0.275924
122,-0.209884,0.924839,0.317198,0.1908109999999999,-0.380558,-0.134322
123,-0.1998329999999999,0.941756,0.270472,0.3019139999999999,-0.370315,-0.019129
124,-0.189078,0.955724,0.225462,0.271583,-0.315069,-0.15489
125,-0.181887,0.966471,0.18123,0.2317219999999999,-0.3995,-0.197267
126,-0.173766,0.974974,0.138653,0.253539,-0.4879739999999999,-0.102765
127,-0.162595,0.98179,0.098214,0.224103,-0.464837,0.0055
128,-0.149805,0.986969,0.058676,0.141947,-0.311646,0.001245
129,-0.135798,0.990548,0.019183,0.0199069999999999,-0.104638,-0.084887
130,-0.119237,0.992665,-0.01979,-0.12762,-0.189901,-0.023927
131,-0.0998309999999999,0.993504,-0.054572,-0.167778,-0.1348609999999999,0.126548
132,-0.078182,0.993582,-0.081706,-0.142918,0.363336,0.159999
133,-0.0600929999999999,0.993366,-0.09802,-0.014019,0.49577,0.236692
134,-0.046148,0.993106,-0.1077299999999999,-0.101649,0.542981,0.261218
135,-0.033388,0.992862,-0.114476,-0.174178,0.5470550000000001,0.22704
136,-0.020937,0.993082,-0.115516,-0.4834729999999999,0.542654,0.333488
137,-0.01346,0.993929,-0.109175,-0.488829,0.488874,-0.142839
138,-0.016543,0.995447,-0.093843,-0.334882,0.374197,-0.18437
139,-0.033129,0.996952,-0.070589,0.054492,-0.053044,-0.118834
140,-0.059359,0.997546,-0.037045,0.0160389999999999,0.226483,-0.191669
141,-0.095069,0.995462,0.003283,-0.128792,0.572897,-0.222994
142,-0.13268,0.989648,0.0546419999999999,0.20873,0.746069,-0.312073
143,-0.168368,0.979771,0.108142,0.293765,0.656933,-0.048496
144,-0.194466,0.968502,0.155497,0.319344,0.656513,-0.052591
145,-0.21746,0.956066,0.196575,0.210701,0.3810469999999999,-0.067745
146,-0.2365489999999999,0.942164,0.237409,0.107277,0.0359089999999999,-0.154294
147,-0.254057,0.926349,0.278073,0.124785,0.051724,-0.194959
148,-0.266294,0.910888,0.31522,0.223402,-0.413009,-0.295109
149,-0.2681989999999999,0.8985049999999999,0.34749,0.303691,-0.8561770000000001,-0.380815
150,-0.261978,0.889659,0.373987,0.344086,-0.8608959999999999,-0.3784119999999999
151,-0.253561,0.8837389999999999,0.3933239999999999,0.428625,-0.758877,-0.340788
152,-0.244862,0.879151,0.408812,0.56992,-0.734757,-0.183119
153,-0.236017,0.8760530000000001,0.420498,0.56907,-0.7237100000000001,-0.141552
154,-0.230437,0.87555,0.42462,0.404448,-0.7100989999999999,-0.061934
155,-0.2255989999999999,0.879352,0.419327,-0.024127,-0.420139,0.070037
156,-0.216165,0.8848209999999999,0.4127409999999999,-0.178138,-0.242273,0.197321
157,-0.205938,0.889782,0.4072679999999999,-0.5032439999999999,0.333469,0.358784
158,-0.196104,0.8906069999999999,0.410308,-0.291475,0.844088,0.101319
159,-0.192868,0.882668,0.428589,0.077191,0.7472449999999999,0.166671
160,-0.193903,0.8780319999999999,0.437551,0.002771,-0.089061,0.43275
161,-0.195495,0.881092,0.430635,0.567261,0.355892,-0.151583
162,-0.185933,0.8719049999999999,0.4529899999999999,0.748128,0.739988,-0.485338
163,-0.176226,0.865224,0.469383,0.721453,0.752864,-0.841683
164,-0.165451,0.8666309999999999,0.470706,0.890747,0.641945,-0.215381
165,-0.17807,0.8642479999999999,0.470483,0.157409,0.345514,-0.348946
166,-0.214044,0.8634350000000001,0.456785,-0.147529,0.344481,-0.544096
167,-0.240891,0.870483,0.429205,-0.42601,0.312027,-0.460455
168,-0.24933,0.8873139999999999,0.387937,-0.41783,0.097564,-0.401121
169,-0.251215,0.905651,0.341577,-0.153326,-0.211101,-0.4604279999999999
170,-0.24906,0.923234,0.292567,0.111594,-0.379961,-0.303187
171,-0.24845,0.937743,0.242691,0.363302,-0.467788,-0.162827
172,-0.2492489999999999,0.94922,0.1919529999999999,0.529874,-0.5200199999999999,-0.229642
173,-0.249082,0.958045,0.141767,0.493452,-0.5539310000000001,-0.24983
174,-0.244123,0.965303,0.092653,0.385587,-0.301607,-0.223298
175,-0.232946,0.971409,0.045722,0.201696,-0.124806,-0.144873
176,-0.2147099999999999,0.976673,0.0005679999999999,0.076924,-0.19347,-0.117297
177,-0.1889539999999999,0.981047,-0.042828,0.083959,-0.377745,-0.054661
178,-0.158611,0.984171,-0.0790059999999999,0.079402,-0.196619,0.058482
179,-0.128846,0.98597,-0.10608,-0.0628809999999999,0.309089,0.161134
180,-0.10368,0.986849,-0.1239859999999999,-0.331546,0.254362,0.153344
181,-0.081852,0.987066,-0.137815,-0.441586,0.286035,0.331755
182,-0.066271,0.986467,-0.149946,-0.253676,0.668166,0.517882
183,-0.054496,0.986503,-0.154383,-0.3770679999999999,0.666954,0.231456
184,-0.046463,0.986887,-0.15456,-0.630219,0.517599,0.2135659999999999
185,-0.0485019999999999,0.987877,-0.147445,-0.147925,0.346977,0.0032189999999999
186,-0.070234,0.989294,-0.127895,-0.006259,0.215448,0.213421
187,-0.100949,0.990805,-0.090044,0.170132,0.273706,-0.3352489999999999
188,-0.1338369999999999,0.989855,-0.047616,0.03615,0.844404,-0.192725
189,-0.1660839999999999,0.98609,0.005932,0.155952,1.097147,-0.404949
190,-0.193722,0.978797,0.066477,0.358777,0.958535,-0.040323
191,-0.219382,0.967969,0.122054,0.796333,0.520617,0.090119
192,-0.241938,0.955611,0.168115,0.74647,0.387727,0.040503
193,-0.2610909999999999,0.943083,0.2059489999999999,0.421766,-0.000914,-0.166734
194,-0.280557,0.929355,0.2399489999999999,0.001702,-0.469028,-0.206273
195,-0.295871,0.915976,0.270993,-0.050427,-0.695258,-0.1966369999999999
196,-0.300308,0.906586,0.296491,0.029923,-0.868851,-0.351911
197,-0.295242,0.8990790000000001,0.323231,0.230911,-0.8962870000000001,-0.30257
198,-0.284976,0.891927,0.351063,0.29259,-0.882619,-0.295827
199,-0.272351,0.8859670000000001,0.375334,0.408414,-1.026302,-0.3037849999999999
200,-0.257261,0.883618,0.391182,0.338071,-0.973722,-0.241982
201,-0.242146,0.8860629999999999,0.395279,0.240804,-0.822845,-0.187744
202,-0.230776,0.890099,0.393006,-0.133451,0.2399219999999999,0.6027520000000001
203,-0.2236969999999999,0.8923030000000001,0.392098,-0.272595,0.591583,0.489585
204,-0.215213,0.8892190000000001,0.403682,-0.27197,1.250659,0.320546
205,-0.200311,0.8801530000000001,0.4303399999999999,0.137552,0.757512,0.538624
206,-0.189853,0.8771030000000001,0.441172,-0.039365,0.124439,0.578344
207,-0.187016,0.881332,0.433895,0.597478,0.4787,-0.168682
208,-0.182117,0.865196,0.467177,0.414264,1.021462,-0.28865
209,-0.176759,0.8494379999999999,0.497189,0.689806,1.323093,-0.7381409999999999
210,-0.167062,0.845432,0.507268,0.249078,0.188092,-0.235555
211,-0.173444,0.841093,0.512314,0.095929,0.134798,-0.388871
212,-0.200192,0.846578,0.493168,-0.130053,0.250239,-0.690236
213,-0.208765,0.8640209999999999,0.4581189999999999,-0.249471,0.147591,-0.470402
214,-0.2055739999999999,0.8863979999999999,0.414761,-0.066536,0.100983,-0.335477
215,-0.199663,0.909013,0.365814,0.196184,-0.096436,-0.2400199999999999
216,-0.200578,0.929146,0.310555,0.268572,-0.382119,-0.116616
217,-0.206785,0.944699,0.254509,0.3244599999999999,-0.544842,-0.225426
218,-0.2109579999999999,0.956199,0.202904,0.378988,-0.631019,-0.301079
219,-0.208656,0.965297,0.157019,0.370842,-0.588375,-0.310339
220,-0.201515,0.972909,0.113274,0.370307,-0.354898,-0.230996
221,-0.190096,0.979248,0.070209,0.3432179999999999,-0.143692,-0.147953
222,-0.173563,0.984409,0.028413,0.328379,-0.149692,-0.170228
223,-0.152306,0.988279,-0.010038,0.072945,-0.0878419999999999,0.12869
224,-0.126929,0.991025,-0.0418399999999999,-0.088266,0.092532,0.167222
225,-0.099419,0.99279,-0.066906,-0.221214,0.213783,0.148373
226,-0.07253,0.993774,-0.084537,-0.490077,0.021363,0.317371
227,-0.051983,0.993884,-0.097397,-0.309116,0.495222,0.452942
228,-0.042145,0.99364,-0.104387,-0.270737,0.6294529999999999,0.316042
229,-0.03568,0.993498,-0.1080839999999999,-0.712565,0.455599,0.380942
230,-0.036943,0.993779,-0.1050349999999999,-0.5251600000000001,0.44331,-0.227347
231,-0.046886,0.994493,-0.093689,-0.3456619999999999,0.449964,-0.339035
232,-0.071832,0.99466,-0.074056,0.213968,0.210662,-0.015498
233,-0.1076049999999999,0.993136,-0.0457819999999999,0.294815,0.6889930000000001,-0.110422
234,-0.1463549999999999,0.989228,-0.000243,0.275658,0.8751209999999999,-0.4451
235,-0.180528,0.981994,0.055595,0.4128729999999999,0.920243,-0.282707
236,-0.207744,0.971949,0.110221,0.446895,0.760915,-0.061622
237,-0.232244,0.959669,0.158396,0.471395,0.773195,-0.109797
238,-0.2560679999999999,0.946144,0.198069,0.318416,0.258522,-0.03744
239,-0.28024,0.931313,0.232619,0.106275,-0.109429,-0.214385
240,-0.299311,0.915824,0.267711,0.125346,-0.09394,-0.249477
241,-0.308108,0.902137,0.302008,0.055163,-0.535041,-0.174048
242,-0.303675,0.893804,0.329979,0.12182,-0.672246,-0.237984
243,-0.290108,0.8886139999999999,0.355236,0.131264,-0.665393,-0.2666739999999999
244,-0.2728,0.8852389999999999,0.376723,0.235065,-0.718125,-0.4131609999999999
245,-0.25178,0.8842459999999999,0.393325,0.41691,-0.865447,-0.4218739999999999
246,-0.230707,0.8850979999999999,0.404184,0.393915,-0.800564,-0.390329
247,-0.217912,0.8857200000000001,0.409881,0.374177,-0.6026090000000001,-0.175995
248,-0.218336,0.884703,0.4118479999999999,0.420042,-0.354231,0.139253
249,-0.221255,0.884725,0.410239,0.350161,-0.2206929999999999,0.1502619999999999
250,-0.211497,0.884882,0.415021,-0.5755060000000001,1.056571,0.209521
251,-0.194434,0.880777,0.431758,-0.394128,1.239004,0.350331
252,-0.184575,0.872762,0.451893,-0.153606,1.0670879999999998,0.490276
253,-0.183517,0.871833,0.454112,-0.069534,-0.381842,0.780813
254,-0.17869,0.879683,0.4406989999999999,0.097513,-0.196135,0.039266
255,-0.165942,0.866872,0.4700899999999999,0.39783,0.478572,-0.374982
256,-0.164375,0.8505510000000001,0.499533,0.909218,1.230504,-0.575064
257,-0.164124,0.850831,0.499137,0.693101,0.712294,0.083184
258,-0.1620079999999999,0.850554,0.5003,0.3078059999999999,0.044923,-0.048792
259,-0.184176,0.8518549999999999,0.490317,0.061495,-0.0750909999999999,-0.603675
260,-0.205654,0.8598889999999999,0.467212,-0.008198,-0.020716,-0.52695
261,-0.213515,0.877971,0.428447,-0.270464,0.3346139999999999,-0.422587
262,-0.207465,0.8985299999999999,0.38677,0.007148,0.287535,-0.4361319999999999
263,-0.201346,0.917599,0.342727,0.113073,0.057315,-0.334014
264,-0.204815,0.932457,0.297598,0.516308,-0.504784,-0.089041
265,-0.212265,0.944088,0.252254,0.581558,-0.564663,-0.229915
266,-0.217598,0.953819,0.207057,0.393165,-0.459602,-0.344219
267,-0.219908,0.962191,0.160692,0.1178109999999999,-0.289522,-0.351519
268,-0.218761,0.969097,0.1139569999999999,0.008038,-0.24313,-0.278661
269,-0.210094,0.975291,0.06827,0.048824,-0.396418,-0.205294
270,-0.191495,0.981243,0.022024,0.060346,-0.532528,-0.068563
271,-0.163753,0.986246,-0.022299,-0.046742,-0.267496,0.086432
272,-0.13438,0.989218,-0.058161,-0.145665,0.405237,0.193049
273,-0.109345,0.990778,-0.079966,-0.116195,0.5132800000000001,0.2096199999999999
274,-0.0903549999999999,0.991452,-0.094086,-0.178841,0.338886,0.297317
275,-0.077738,0.991355,-0.105665,-0.335257,0.606286,0.436308
276,-0.07256,0.99128,-0.109967,-0.483943,0.658806,0.2368739999999999
277,-0.071026,0.991078,-0.112754,-0.590123,0.75143,0.04879
278,-0.0813509999999999,0.991067,-0.105644,-0.025353,0.45014,-0.223518
279,-0.104614,0.99086,-0.085118,0.258529,0.284698,-0.164226
280,-0.138314,0.988869,-0.054774,0.388253,0.055901,-0.020803
281,-0.170737,0.98525,-0.011118,0.123175,0.654841,-0.391287
282,-0.20152,0.978577,0.042044,0.152692,0.780975,-0.4870359999999999
283,-0.227355,0.968707,0.099535,0.2311079999999999,0.674909,-0.345065
284,-0.246502,0.956424,0.1564569999999999,0.5708880000000001,0.5234340000000001,-0.047204
285,-0.265132,0.941412,0.208419,0.639521,0.429652,-0.04193
286,-0.280974,0.926386,0.250703,0.551512,0.0622,-0.134935
287,-0.294242,0.912071,0.285545,0.204261,-0.371544,-0.228767
288,-0.303296,0.8987620000000001,0.316584,0.135815,-0.494435,-0.2173409999999999
289,-0.3045199999999999,0.8891129999999999,0.341661,0.036591,-0.716124,-0.26938
290,-0.297647,0.883748,0.361087,0.102792,-0.799733,-0.295794
291,-0.286963,0.8808799999999999,0.376419,0.1431339999999999,-0.7724810000000001,-0.283889
292,-0.276181,0.8789030000000001,0.388898,0.217099,-0.8621479999999999,-0.265226
293,-0.263786,0.8784120000000001,0.398494,0.293801,-0.848719,-0.225398
294,-0.253063,0.87913,0.40383,0.269619,-0.743784,-0.162436
295,-0.248279,0.8798959999999999,0.405128,-0.029385,-0.185133,0.237755
296,-0.248709,0.8805270000000001,0.403492,-0.088145,0.121976,0.267208
297,-0.245119,0.880782,0.405127,-0.120817,0.60402,0.358865
298,-0.233128,0.8747360000000001,0.424826,-0.07893,1.170399,0.53367
299,-0.222644,0.8664350000000001,0.446888,0.03815,0.8620040000000001,0.6417649999999999
300,-0.214727,0.868917,0.4459439999999999,-0.087519,-0.0142569999999999,0.735819
301,-0.201577,0.8752120000000001,0.43973,0.454079,0.4432239999999999,-0.050203
302,-0.185374,0.8592549999999999,0.4767689999999999,0.160213,0.871641,-0.31031
303,-0.179093,0.849242,0.496693,0.132157,0.826356,-0.998158
304,-0.171921,0.8522799999999999,0.494017,0.704117,0.186218,-0.02516
305,-0.16845,0.855,0.4904989999999999,0.349373,-0.1132099999999999,-0.253255
306,-0.191808,0.857769,0.4768989999999999,0.150625,0.013035,-0.63469
307,-0.213384,0.8692409999999999,0.445957,-0.091623,0.348075,-0.6364479999999999
308,-0.219412,0.8886120000000001,0.402762,-0.119592,0.53665,-0.354926
309,-0.220994,0.908664,0.354234,-0.019927,0.0101739999999999,-0.3981639999999999
310,-0.228318,0.92522,0.303035,0.20044,-0.5358,-0.3130449999999999
311,-0.239134,0.937968,0.251044,0.456541,-0.670862,-0.224906
312,-0.244883,0.948433,0.201244,0.5653630000000001,-0.705071,-0.254741
313,-0.2434849999999999,0.957589,0.154048,0.324509,-0.384301,-0.2133139999999999
314,-0.23881,0.965084,0.107594,0.232523,-0.242336,-0.118199
315,-0.233041,0.970462,0.06236,0.191171,-0.118839,-0.044324
316,-0.223186,0.974555,0.020606,0.134029,-0.084128,-0.11257
317,-0.206695,0.9782,-0.019878,0.051757,-0.325429,-0.113301
318,-0.182873,0.981652,-0.053962,-0.0293769999999999,-0.244454,-0.004265
319,-0.157882,0.984284,-0.079066,-0.229859,0.311706,0.242808
320,-0.1350859999999999,0.986026,-0.097465,-0.456192,0.292981,0.164054
321,-0.1137059999999999,0.987221,-0.11162,-0.307329,0.166938,0.412463
322,-0.0995009999999999,0.987239,-0.1243089999999999,0.120497,0.5305380000000001,0.393016
323,-0.092109,0.987046,-0.1313369999999999,-0.688393,0.485152,0.114568
324,-0.089352,0.98735,-0.130956,-0.7440829999999999,0.45018,0.280843
325,-0.0932679999999999,0.988251,-0.121057,-0.287576,0.4904479999999999,-0.277441
326,-0.113922,0.988136,-0.102969,0.368469,0.20472,-0.059187
327,-0.1434869999999999,0.987077,-0.071297,0.572153,0.193617,0.0301899999999999
328,-0.174339,0.984301,-0.027397,0.5389470000000001,0.378858,-0.255562
329,-0.205456,0.978486,0.018587,0.414914,0.702041,-0.3847219999999999
330,-0.23724,0.968834,0.071199,0.446698,0.711692,-0.4373329999999999
331,-0.263387,0.956355,0.126503,0.42658,0.749257,-0.017281
332,-0.2879469999999999,0.941869,0.17309,0.428663,0.533168,0.1436059999999999
333,-0.31092,0.927218,0.208774,0.365104,0.342771,0.048031
334,-0.331909,0.91259,0.23876,0.203781,-0.064262,-0.128622
335,-0.347597,0.8986120000000001,0.2677,0.127092,-0.495642,-0.148758
336,-0.353767,0.887793,0.294387,0.1756349999999999,-0.64031,-0.176589
337,-0.350817,0.881451,0.316165,0.212146,-0.854565,-0.200641
338,-0.340981,0.878972,0.333359,0.207054,-0.901037,-0.290054
339,-0.325017,0.878388,0.350409,0.199575,-0.917283,-0.303336
340,-0.3044139999999999,0.880049,0.364465,0.244294,-0.913038,-0.271783
341,-0.283406,0.8845780000000001,0.370392,0.311971,-0.66505,-0.199952
342,-0.264605,0.89069,0.369654,0.272341,-0.489902,-0.072245
343,-0.249986,0.8948940000000001,0.369674,-0.064055,0.127521,0.450608
344,-0.243948,0.8960629999999999,0.370875,-0.2805269999999999,0.4334659999999999,0.6485489999999999
345,-0.245608,0.89143,0.380813,-0.119489,0.816655,0.352876
346,-0.233709,0.8846860000000001,0.403359,0.565832,0.771686,0.560829
347,-0.210419,0.883993,0.417454,0.3119969999999999,0.658335,0.682339
348,-0.1978859999999999,0.889835,0.411125,0.206309,0.32298,0.522744
349,-0.1849579999999999,0.882342,0.432725,0.458518,0.972852,-0.493623
350,-0.175997,0.870223,0.460136,0.151415,0.574693,-0.782279
351,-0.180357,0.8683299999999999,0.462018,0.344999,-0.020216,-0.58003
352,-0.190383,0.867597,0.4593649999999999,0.339766,-0.0073069999999999,-0.205382
353,-0.208732,0.865928,0.454518,0.230048,0.276421,-0.417836
354,-0.224098,0.872761,0.433652,-0.170113,0.554454,-0.368971
355,-0.227238,0.890785,0.393512,-0.380474,0.43586,-0.278567
356,-0.229459,0.909593,0.346376,-0.099856,-0.165773,-0.162263
357,-0.233979,0.925075,0.299129,0.007814,-0.682674,-0.2318989999999999
358,-0.238628,0.937771,0.252251,0.2460889999999999,-0.671673,-0.14138
359,-0.2418719999999999,0.948383,0.205076,0.390523,-0.626224,-0.180357
360,-0.245191,0.956387,0.1587299999999999,0.456205,-0.609478,-0.213402
361,-0.247367,0.962374,0.112402,0.417808,-0.354373,-0.20574
362,-0.245952,0.966927,0.067449,0.281459,-0.142006,-0.279851
363,-0.237535,0.971043,0.025331,0.175691,-0.161107,-0.192888
364,-0.2200119999999999,0.975338,-0.01738,0.170421,-0.343868,-0.00502
365,-0.193635,0.979452,-0.056294,0.074235,-0.167654,0.1094869999999999
366,-0.162516,0.982827,-0.087347,0.025386,0.270209,0.155538
367,-0.133956,0.984927,-0.1093859999999999,-0.179124,0.233015,0.131206
368,-0.1088869999999999,0.985715,-0.1284549999999999,-0.282226,0.6005739999999999,0.461417
369,-0.096465,0.984945,-0.143415,-0.141283,0.605143,0.46916
370,-0.091049,0.984512,-0.149788,-0.370881,0.597763,0.315971
371,-0.085633,0.984475,-0.153186,-0.617492,0.539664,0.205204
372,-0.088509,0.984711,-0.150008,-0.464851,0.625626,0.039229
373,-0.1069869999999999,0.985009,-0.135284,0.027565,0.320411,-0.214966
374,-0.137351,0.984376,-0.110135,0.388282,0.303634,0.0858429999999999
375,-0.17315,0.982497,-0.068618,0.4141319999999999,0.390687,0.03926
376,-0.204714,0.978555,-0.022632,0.266466,0.627966,-0.2644309999999999
377,-0.232922,0.972138,0.026162,0.360562,0.949645,-0.165185
378,-0.261209,0.962328,0.075388,0.4957819999999999,0.886732,-0.112223
379,-0.286111,0.950519,0.1210069999999999,0.625344,0.558774,-0.059087
380,-0.303531,0.938968,0.16185,0.4126319999999999,-0.032581,-0.1150819999999999
381,-0.31943,0.926533,0.198716,0.364214,-0.145467,-0.1213849999999999
382,-0.333237,0.913405,0.233732,0.204453,-0.303618,-0.174527
383,-0.338215,0.902025,0.268229,0.068775,-0.7717149999999999,-0.208323
384,-0.333378,0.894645,0.297413,0.103748,-0.8933479999999999,-0.2802469999999999
385,-0.322006,0.890913,0.320268,0.2255849999999999,-1.040586,-0.315629
386,-0.306802,0.890048,0.337151,0.36535,-1.055866,-0.309838
387,-0.288418,0.892156,0.347645,0.363873,-1.005559,-0.2641489999999999
388,-0.270885,0.896913,0.349503,0.2374219999999999,-0.79474,-0.098695
389,-0.2585699999999999,0.901306,0.347525,-0.094824,-0.3361659999999999,0.421426
390,-0.25405,0.902345,0.3481599999999999,-0.147851,-0.144868,0.427704
391,-0.248323,0.900174,0.357779,0.069062,0.5374939999999999,0.4549649999999999
392,-0.238171,0.892642,0.382684,0.089886,1.342114,0.430853
393,-0.2265239999999999,0.8837870000000001,0.409379,0.078239,1.35097,0.404159
394,-0.215065,0.883869,0.415337,0.257362,0.275325,0.4212109999999999
395,-0.201928,0.872801,0.444325,0.4165279999999999,1.488374,-0.07668
396,-0.1985829999999999,0.856657,0.476116,0.237721,1.482424,-0.064098
397,-0.207203,0.854915,0.475572,0.906346,-0.7889970000000001,-0.541795
398,-0.2086719999999999,0.859431,0.466707,0.624672,-0.451518,-0.268511
399,-0.215278,0.8576309999999999,0.467018,0.302955,-0.0189009999999999,-0.472282
400,-0.234226,0.865302,0.443139,-0.269527,1.070291,-0.4436279999999999
401,-0.240458,0.886333,0.395698,-0.4772699999999999,1.06313,-0.2679809999999999
402,-0.246434,0.906678,0.342326,-0.233348,-0.364946,-0.278727
403,-0.247598,0.924153,0.290894,-0.055808,-0.905796,-0.251709
404,-0.2454869999999999,0.938747,0.241811,0.240986,-0.8228409999999999,-0.247182
405,-0.237373,0.951866,0.193879,0.3975599999999999,-0.5738300000000001,-0.172837
406,-0.230215,0.962062,0.146364,0.442846,-0.386806,-0.122576
407,-0.22821,0.968419,0.100354,0.4063719999999999,-0.286351,-0.029523
408,-0.227776,0.972167,0.054735,0.375206,-0.231841,-0.029421
409,-0.222779,0.974794,0.011558,0.2177889999999999,-0.2342389999999999,-0.066688
410,-0.207931,0.977687,-0.029669,0.0991669999999999,-0.149669,-0.075052
411,-0.184231,0.980737,-0.064818,0.094204,-0.053583,0.033781
412,-0.156244,0.98329,-0.093363,-0.075491,0.295244,0.292353
413,-0.127748,0.985229,-0.113989,-0.195815,0.244035,0.274954
414,-0.101083,0.98637,-0.129791,-0.294547,0.1297039999999999,0.284469
415,-0.081052,0.98604,-0.145415,-0.335467,0.364226,0.383818
416,-0.073126,0.985031,-0.156064,-0.474558,0.504273,0.095914
417,-0.074274,0.984651,-0.157906,-0.526694,0.556029,0.2041099999999999
418,-0.0813909999999999,0.984958,-0.152388,-0.4415729999999999,0.767621,-0.086489
419,-0.1050089999999999,0.984973,-0.137072,0.1034829999999999,0.319867,-0.24423
420,-0.13575,0.984817,-0.108147,0.344673,0.18155,-0.116096
421,-0.171695,0.982876,-0.0668059999999999,0.378513,0.6092569999999999,-0.166043
422,-0.203691,0.978904,-0.015614,0.360734,0.6411680000000001,-0.270931
423,-0.2320289999999999,0.972025,0.036266,0.389073,0.648046,-0.322811
424,-0.25435,0.962917,0.089898,0.418779,0.738621,0.027701
425,-0.27401,0.951598,0.139155,0.359428,0.469361,0.102148
426,-0.292964,0.939161,0.179252,0.283061,0.289583,0.021279
427,-0.311116,0.925903,0.214229,0.102848,-0.148285,-0.099254
428,-0.325971,0.913092,0.244926,0.081342,-0.664175,-0.189064
429,-0.332776,0.903158,0.2712,0.175519,-0.726522,-0.244604
430,-0.331105,0.8965040000000001,0.294333,0.335377,-0.745259,-0.243003
431,-0.3240639999999999,0.891893,0.315422,0.344831,-0.829118,-0.274712
432,-0.31479,0.888134,0.3348219999999999,0.31682,-0.8486899999999999,-0.314528
433,-0.3019469999999999,0.8862049999999999,0.351354,0.338904,-0.913076,-0.332433
434,-0.287538,0.886951,0.3614159999999999,0.348787,-0.686008,-0.10609
435,-0.274711,0.8905649999999999,0.362502,0.2953719999999999,-0.566118,0.003252
436,-0.26286,0.8953180000000001,0.359569,0.098676,-0.306299,0.196797
437,-0.248865,0.898544,0.361477,-0.50736,0.619965,0.5180859999999999
438,-0.2402659999999999,0.896091,0.373196,-0.460356,1.003522,0.4805029999999999
439,-0.237961,0.8849889999999999,0.400187,0.21222,0.975775,0.3039139999999999
440,-0.2285,0.8794870000000001,0.417458,0.137145,-0.095841,0.658821
441,-0.2146539999999999,0.8865639999999999,0.409767,-0.0440889999999999,-0.224439,0.549813
442,-0.200519,0.879862,0.430831,0.400653,1.271506,-0.245894
443,-0.185084,0.867273,0.462125,0.448481,1.1839959999999998,-0.691404
444,-0.177603,0.866923,0.465704,0.650137,0.529745,-0.439031
445,-0.175312,0.8687940000000001,0.463078,0.188663,-0.59464,-0.299747
446,-0.1958609999999999,0.867346,0.457525,0.169036,0.114573,-0.418722
447,-0.220777,0.8700549999999999,0.4407279999999999,-0.1970849999999999,0.963152,-0.586328
448,-0.2156269999999999,0.8874879999999999,0.407246,-0.45042,0.7342770000000001,-0.241307
449,-0.209632,0.905771,0.368255,-0.109948,-0.2322789999999999,-0.337921
450,-0.210181,0.922219,0.324524,0.22782,-0.6413810000000001,-0.306061
451,-0.210596,0.937011,0.278638,0.430475,-0.531906,-0.066968
452,-0.211315,0.949701,0.231076,0.437527,-0.433435,-0.086789
453,-0.213598,0.959612,0.1830359999999999,0.4188439999999999,-0.359194,-0.222877
454,-0.215626,0.967082,0.1350599999999999,0.272358,-0.335841,-0.3055
455,-0.2145699999999999,0.972748,0.087772,0.346421,-0.4283149999999999,-0.211811
456,-0.206064,0.97756,0.043583,0.366266,-0.467825,-0.144963
457,-0.187688,0.982221,-6e-06,0.381139,-0.406354,-0.177255
458,-0.158244,0.986406,-0.044141,0.176142,-0.201326,0.022549
459,-0.123842,0.988699,-0.084402,0.085115,-0.041372,0.173772
460,-0.089414,0.989406,-0.1143119999999999,-0.16997,0.375706,0.2311639999999999
461,-0.057685,0.989571,-0.131944,-0.5648890000000001,0.282631,0.314988
462,-0.036932,0.9888,-0.14456,-0.6593720000000001,0.298401,0.470259
463,-0.027742,0.98817,-0.15079,-0.58058,0.5658,0.194872
464,-0.021473,0.988121,-0.152126,-0.981716,0.546516,0.380733
465,-0.0260339999999999,0.988827,-0.146731,-0.97569,0.622242,0.1273369999999999
466,-0.05316,0.990746,-0.1248349999999999,0.144178,0.448082,-0.282224
467,-0.0870659999999999,0.991646,-0.095096,0.2791889999999999,0.345604,-0.421307
468,-0.1232359999999999,0.990387,-0.06271,0.263129,0.307892,-0.133152
469,-0.158764,0.987188,-0.0154639999999999,0.324398,0.838541,-0.29406
470,-0.192969,0.980331,0.041217,0.575217,0.961182,-0.333621
471,-0.2192349999999999,0.970584,0.099426,0.678708,1.008389,-0.1433859999999999
472,-0.242063,0.958629,0.14973,0.4409,0.325932,-0.046062
473,-0.260617,0.946239,0.191555,0.237729,0.123235,-0.070461
474,-0.278956,0.932504,0.229352,-0.046514,-0.198312,-0.166654
475,-0.294559,0.918172,0.264912,-0.130902,-0.659428,-0.149937
476,-0.2983409999999999,0.907395,0.295986,0.0772409999999999,-0.747346,-0.2472489999999999
477,-0.291363,0.900257,0.3234599999999999,0.13757,-0.771351,-0.263005
478,-0.279202,0.8957879999999999,0.345819,0.303814,-0.834356,-0.363077
479,-0.26465,0.892357,0.36557,0.378115,-0.8968729999999999,-0.402634
480,-0.247633,0.89089,0.380755,0.441175,-0.970602,-0.350543
481,-0.232107,0.8913190000000001,0.389433,0.331778,-0.7704850000000001,-0.128172
482,-0.226435,0.8909809999999999,0.393526,0.21168,-0.372105,0.134001
483,-0.227448,0.889383,0.396544,0.198701,-0.25831,0.186296
484,-0.220351,0.8884479999999999,0.402603,-0.059969,0.296001,0.185441
485,-0.2021859999999999,0.885465,0.4183949999999999,-0.154015,1.642489,0.620057
486,-0.188594,0.877635,0.440647,-0.171147,1.167836,0.664242
487,-0.183551,0.877149,0.443733,-0.13078,-0.580122,0.268211
488,-0.178995,0.8795,0.440931,0.313456,0.13437,-0.036818
489,-0.174993,0.863237,0.473476,-0.0705669999999999,1.254027,-0.1158869999999999
490,-0.183074,0.850513,0.493043,0.128905,0.721539,-0.804185
491,-0.192779,0.8546879999999999,0.482001,0.5485369999999999,0.358721,-0.553977
492,-0.190373,0.8561200000000001,0.480413,0.420368,-0.071162,-0.375768
493,-0.199725,0.8571639999999999,0.474721,0.149569,0.228698,-0.670171
494,-0.2087389999999999,0.873258,0.44026,-0.011705,0.319369,-0.681425
495,-0.206613,0.894199,0.397115,-0.080527,0.1179019999999999,-0.229726
496,-0.202938,0.914193,0.350782,-0.038639,-0.148263,-0.309278
497,-0.202151,0.930967,0.304,-0.010556,-0.269011,-0.238906
498,-0.202543,0.94504,0.256627,0.2207619999999999,-0.5009020000000001,-0.148442
499,-0.201006,0.956782,0.210113,0.272096,-0.541254,-0.199172
500,-0.195168,0.966674,0.165632,0.3337489999999999,-0.519393,-0.2089219999999999
501,-0.186494,0.974689,0.123222,0.4049239999999999,-0.4675479999999999,-0.140221
502,-0.177195,0.980687,0.082688,0.260798,-0.291112,-0.133713
503,-0.1645869999999999,0.98546,0.041987,0.222906,-0.239168,-0.145152
504,-0.147615,0.989036,-0.001656,0.1827859999999999,-0.222221,-0.142417
505,-0.125459,0.991162,-0.042929,-0.090041,-0.06445,-0.017038
506,-0.1028289999999999,0.992003,-0.073091,-0.071045,0.447374,0.149888
507,-0.084228,0.992341,-0.090283,9.1e-05,0.4467609999999999,0.265592
508,-0.068498,0.991988,-0.1060849999999999,-0.500472,0.169923,0.3653929999999999
509,-0.0623279999999999,0.990369,-0.123578,-0.44077,0.739078,0.250287
510,-0.063397,0.988749,-0.13544,-0.243076,0.736013,0.305957
511,-0.0675419999999999,0.988272,-0.136908,-0.362664,1.003214,-0.140451
512,-0.083861,0.988518,-0.125648,0.0498339999999999,0.385338,-0.2331619999999999
513,-0.110294,0.989269,-0.095749,0.12746,0.205753,-0.179672
514,-0.140192,0.98876,-0.051822,0.154031,0.278223,-0.315488
515,-0.165787,0.986153,-0.001403,0.158646,0.779442,-0.245668
516,-0.1901,0.980142,0.056272,0.1829589999999999,0.785452,-0.303343
517,-0.217446,0.968908,0.117974,0.57116,0.954859,-0.3189329999999999
518,-0.239527,0.955619,0.171466,0.554362,0.4096,-0.044437
519,-0.257969,0.942552,0.212202,0.3792,0.286437,-0.1120579999999999
520,-0.277892,0.928282,0.247084,0.142745,-0.018095,-0.107649
521,-0.2999679999999999,0.912391,0.278465,-0.004659,-0.390022,-0.125846
522,-0.311228,0.899718,0.305982,0.0110569999999999,-0.7978350000000001,-0.2354409999999999
523,-0.310299,0.8908719999999999,0.331725,0.098537,-0.813663,-0.3638909999999999
524,-0.302427,0.883926,0.356641,0.111341,-0.832626,-0.288647
525,-0.292784,0.8772190000000001,0.380451,0.185637,-0.799979,-0.319873
526,-0.281032,0.871835,0.401129,0.367214,-0.886025,-0.377676
527,-0.266504,0.870297,0.41417,0.363611,-0.794492,-0.1895609999999999
528,-0.252009,0.873751,0.415968,0.286783,-0.650057,-0.090132
529,-0.241382,0.8790629999999999,0.41105,0.128161,-0.357152,0.0541909999999999
530,-0.234034,0.8837450000000001,0.4052179999999999,0.075632,0.36682,0.318033
531,-0.21848,0.886008,0.408944,-0.038463,0.782647,0.333915
532,-0.198157,0.879605,0.432443,-0.126168,1.217746,0.5828770000000001
533,-0.187863,0.8715280000000001,0.452906,-0.028385,0.713326,0.612386
534,-0.184838,0.875185,0.447061,-0.174628,-0.404955,0.5676939999999999
535,-0.184558,0.8764700000000001,0.4446529999999999,0.5891149999999999,0.594493,-0.079022
536,-0.18,0.85829,0.4805359999999999,-0.128045,1.036775,-0.588767
537,-0.186779,0.8528870000000001,0.487518,-0.069111,0.950824,-0.8993680000000001
538,-0.189976,0.861274,0.471268,0.8622479999999999,-0.119056,0.012313
539,-0.19295,0.8631,0.4666979999999999,0.660312,-0.4544229999999999,-0.084221
540,-0.210223,0.865175,0.455254,0.198672,-0.005037,-0.717507
541,-0.2213409999999999,0.8766139999999999,0.427239,-0.196643,0.2607,-0.515526
542,-0.2182489999999999,0.8959799999999999,0.386737,-0.335829,0.375214,-0.4537229999999999
543,-0.210497,0.914666,0.345046,-0.138151,0.041923,-0.283263
544,-0.208853,0.930423,0.30112,0.142142,-0.401202,-0.1524849999999999
545,-0.2105469999999999,0.943259,0.256733,0.311088,-0.567847,-0.102665
546,-0.210436,0.954246,0.2123949999999999,0.330538,-0.521552,-0.179283
547,-0.208304,0.963409,0.16862,0.247001,-0.387177,-0.218578
548,-0.2059639999999999,0.970388,0.126128,0.237092,-0.315053,-0.1032859999999999
549,-0.201901,0.975492,0.087365,0.224667,-0.289259,-0.160897
550,-0.191777,0.980152,0.050059,0.214086,-0.283436,-0.119182
551,-0.17373,0.984756,0.007562,0.1519859999999999,-0.30458,-0.076212
552,-0.149201,0.988236,-0.033355,0.087281,0.01419,0.100174
553,-0.1235059999999999,0.990262,-0.064124,0.000154,0.4533569999999999,0.101005
554,-0.098854,0.99176,-0.081401,-0.095772,0.345978,0.185817
555,-0.077929,0.992396,-0.095197,-0.261259,0.241811,0.336957
556,-0.066907,0.991838,-0.1084779999999999,-0.608431,0.34767,0.215579
557,-0.064867,0.991376,-0.113809,-0.637175,0.478656,0.2586
558,-0.067999,0.991167,-0.113801,-0.2942599999999999,0.595915,0.191498
559,-0.0833,0.990986,-0.104851,-0.200971,0.727062,-0.147011
560,-0.112718,0.990188,-0.082504,0.038118,0.036667,-0.189468
561,-0.145749,0.988459,-0.041127,0.2269719999999999,0.127874,-0.069224
562,-0.17831,0.983873,0.013515,0.343562,0.563292,-0.4771229999999999
563,-0.2052679999999999,0.976418,0.066748,0.440741,0.7585970000000001,-0.179281
564,-0.229442,0.965829,0.12047,0.436031,0.904167,-0.138262
565,-0.2565469999999999,0.950903,0.173052,0.5435800000000001,0.826715,-0.042605
566,-0.280485,0.935956,0.2128239999999999,0.322676,0.432238,-0.018656
567,-0.300575,0.922675,0.2414639999999999,0.1779099999999999,0.246087,-0.057
568,-0.320358,0.908126,0.269551,-0.032379,-0.0986929999999999,-0.146291
569,-0.329343,0.893882,0.304118,-0.009768,-0.6017520000000001,-0.2644289999999999
570,-0.324756,0.883022,0.3387969999999999,0.0380589999999999,-0.769634,-0.285605
571,-0.311841,0.875605,0.368848,0.184751,-0.885173,-0.320722
572,-0.294647,0.870282,0.394679,0.315215,-0.9604,-0.305094
573,-0.276574,0.8672610000000001,0.4139359999999999,0.361825,-1.030484,-0.300914
574,-0.259059,0.866633,0.426397,0.441447,-1.014323,-0.391836
575,-0.244563,0.867964,0.4322109999999999,0.294612,-0.598921,-0.0963649999999999
576,-0.237057,0.870425,0.431442,0.161175,-0.201938,0.126816
577,-0.2324679999999999,0.8739450000000001,0.4268,0.1138609999999999,0.455187,0.345097
578,-0.219096,0.876743,0.4281319999999999,0.012415,0.924068,0.429259
579,-0.2036089999999999,0.8732700000000001,0.442631,-0.035801,0.723562,0.2452349999999999
580,-0.19533,0.867192,0.458043,0.136232,0.184703,0.430263
581,-0.187283,0.8678309999999999,0.460187,0.090786,0.105878,0.496951
582,-0.177532,0.861815,0.475116,0.310085,1.263109,-0.153049
583,-0.169149,0.8495290000000001,0.499666,0.034063,0.995441,-0.238283
584,-0.176645,0.843598,0.5070680000000001,0.019449,0.007339,-0.720096
585,-0.18991,0.848949,0.493152,0.344009,-0.286082,-0.691058
586,-0.190153,0.852524,0.486851,0.211454,-0.042908,-0.419484
587,-0.19541,0.861166,0.4692409999999999,-0.00094,0.311289,-0.527728
588,-0.200064,0.8768959999999999,0.4370439999999999,-0.076273,0.420056,-0.465456
589,-0.203256,0.8963180000000001,0.394057,-0.08747,0.1217029999999999,-0.213469
590,-0.2073949999999999,0.912908,0.351521,-0.0484029999999999,-0.365041,-0.199314
591,-0.2133929999999999,0.927138,0.30799,0.098617,-0.526122,-0.193854
592,-0.2140179999999999,0.940128,0.265211,0.240995,-0.395328,-0.267546
593,-0.208284,0.952125,0.223732,0.275316,-0.311378,-0.223519
594,-0.2023329999999999,0.962166,0.182426,0.295045,-0.268852,-0.185844
595,-0.199159,0.969702,0.141405,0.271684,-0.38996,-0.119554
596,-0.193238,0.975819,0.102075,0.2092139999999999,-0.379108,-0.1876
597,-0.180941,0.981602,0.060834,0.154223,-0.314625,-0.190091
598,-0.161661,0.986697,0.016712,0.104654,-0.157763,-0.081105
599,-0.136876,0.990312,-0.023038,0.165883,0.213835,0.13429
600,-0.1118339999999999,0.992385,-0.05149,0.149111,0.4093179999999999,0.1753299999999999
601,-0.0868159999999999,0.993784,-0.069588,-0.338752,0.2434599999999999,0.179024
602,-0.0645169999999999,0.994299,-0.084812,-0.4810609999999999,0.320322,0.410542
603,-0.050017,0.993789,-0.099336,-0.509126,0.4057929999999999,0.334367
604,-0.041068,0.993402,-0.107016,-0.855966,0.438239,0.06719
605,-0.0435529999999999,0.992659,-0.112771,-0.438488,0.684663,0.1067589999999999
606,-0.064747,0.991926,-0.10898,-0.139751,0.611452,-0.081068
607,-0.096512,0.991118,-0.091419,0.1595619999999999,0.2825789999999999,-0.169537
608,-0.134251,0.989384,-0.055511,0.351506,0.274761,-0.153839
609,-0.167786,0.985809,-0.0036299999999999,0.446946,0.372665,-0.321214
610,-0.1937579999999999,0.979832,0.048697,0.527803,0.655986,-0.380743
611,-0.216951,0.970404,0.105986,0.656069,0.7116939999999999,-0.052565
612,-0.239602,0.956973,0.163636,0.653405,0.6207090000000001,-0.142946
613,-0.257432,0.943116,0.2103449999999999,0.528275,0.389876,-0.080844
614,-0.271845,0.929933,0.247605,0.1180819999999999,-0.054796,-0.1163329999999999
615,-0.290798,0.915457,0.2781349999999999,0.032436,-0.200155,-0.139417
616,-0.307498,0.90127,0.305189,-0.028516,-0.494883,-0.195891
617,-0.31358,0.8906700000000001,0.329176,0.060315,-0.8997639999999999,-0.240416
618,-0.310321,0.8852469999999999,0.34644,0.090838,-0.90719,-0.329152
619,-0.301072,0.883441,0.358984,0.133896,-0.851001,-0.348303
620,-0.2863739999999999,0.8836450000000001,0.370329,0.225568,-0.8269280000000001,-0.307783
621,-0.2671139999999999,0.8861709999999999,0.3785929999999999,0.30169,-0.764467,-0.2268599999999999
622,-0.249494,0.890645,0.380114,0.318448,-0.5181319999999999,-0.02547
623,-0.2367199999999999,0.893767,0.380954,0.305888,-0.342132,0.17294
624,-0.231375,0.895236,0.38079,0.051917,0.052869,0.157113
625,-0.229053,0.8945420000000001,0.383813,-0.055737,0.939977,-0.111871
626,-0.223742,0.8861049999999999,0.40588,-0.004957,1.504108,0.5721470000000001
627,-0.223407,0.875447,0.428559,0.141285,1.175395,0.697921
628,-0.220313,0.8758090000000001,0.429422,0.572592,0.40419,0.155921
629,-0.211519,0.869294,0.446731,0.230837,0.949752,0.0971679999999999
630,-0.203482,0.8574309999999999,0.4726399999999999,0.073416,1.029334,0.12552
631,-0.213773,0.8485030000000001,0.484071,0.299009,0.039955,-0.722444
632,-0.227106,0.851568,0.472479,0.659189,-0.299871,-0.519872
633,-0.221819,0.856692,0.46568,0.523455,-0.106722,-0.402447
634,-0.222079,0.8670770000000001,0.445916,-0.200468,0.481602,-0.562738
635,-0.2278659999999999,0.884689,0.406676,-0.069024,0.362076,-0.465636
636,-0.2281989999999999,0.905103,0.358742,0.0055119999999999,0.032641,-0.34478
637,-0.224595,0.923141,0.31201,0.187791,-0.4038239999999999,-0.173093
638,-0.224056,0.93746,0.266368,0.269313,-0.435888,-0.1056619999999999
639,-0.225543,0.949055,0.220018,0.294498,-0.445317,-0.081896
640,-0.228229,0.957762,0.174893,0.2923159999999999,-0.393385,-0.202649
641,-0.230463,0.963972,0.13278,0.237177,-0.3616,-0.174665
642,-0.230199,0.96891,0.090594,0.2284739999999999,-0.33355,-0.067721
643,-0.225526,0.973189,0.045033,0.099183,-0.284041,-0.199818
644,-0.2133969999999999,0.976953,0.003418,0.046436,-0.250589,-0.0423889999999999
645,-0.194296,0.98022,-0.037481,0.027335,-0.2538559999999999,-0.00149
646,-0.172117,0.982592,-0.06984,0.067304,0.0610789999999999,0.157242
647,-0.149912,0.98441,-0.091937,0.055995,0.143322,0.183383
648,-0.12857,0.985769,-0.108252,-0.0654,0.039027,0.151815
649,-0.1078359999999999,0.986044,-0.1268,-0.190076,0.180887,0.344939
650,-0.089797,0.985468,-0.144148,-0.251222,0.60726,0.436079
651,-0.080119,0.984605,-0.155317,-0.533193,0.585356,0.1328869999999999
652,-0.07887,0.983659,-0.161816,-0.74454,0.6822189999999999,0.149914
653,-0.093106,0.982731,-0.159877,-0.2370179999999999,0.752437,-0.133367
654,-0.1223829999999999,0.982442,-0.140786,-0.131737,0.450389,-0.280464
655,-0.158,0.981977,-0.103664,0.163264,0.23134,-0.169987
656,-0.193738,0.97973,-0.050831,0.5279510000000001,0.4482939999999999,-0.315426
657,-0.218533,0.975813,0.0044859999999999,0.5923579999999999,0.688753,-0.349014
658,-0.238956,0.968868,0.064676,0.704975,0.913151,-0.152872
659,-0.262882,0.957079,0.121983,0.841374,0.576338,-0.138188
660,-0.28318,0.944165,0.168368,0.71685,0.392779,-0.158953
661,-0.300334,0.931413,0.205561,0.3094429999999999,0.110243,-0.178538
662,-0.323896,0.915963,0.236835,-0.0468779999999999,-0.344307,-0.1845119999999999
663,-0.344265,0.900877,0.264367,-0.047077,-0.55145,-0.1446619999999999
664,-0.351252,0.8918530000000001,0.284968,0.0568179999999999,-0.809257,-0.199275
665,-0.347434,0.888133,0.300824,0.244376,-0.791377,-0.178998
666,-0.3381139999999999,0.885716,0.3180739999999999,0.262354,-0.80988,-0.181126
667,-0.32521,0.8839049999999999,0.3360619999999999,0.340026,-0.907281,-0.1744099999999999
668,-0.310071,0.884057,0.349693,0.347302,-0.881387,-0.125114
669,-0.296431,0.886425,0.355478,0.32469,-0.760845,-0.012796
670,-0.286499,0.887767,0.360241,0.074112,-0.255809,0.46796
671,-0.27945,0.887726,0.365836,-0.271759,-0.001557,0.282723
672,-0.267124,0.887359,0.375797,-0.349469,0.34758,0.256283
673,-0.246161,0.8836430000000001,0.398202,-0.031137,1.27691,0.20951
674,-0.230446,0.876143,0.423382,0.084663,1.088014,0.5378
675,-0.222223,0.8761200000000001,0.427803,0.209864,0.124338,0.7546930000000001
676,-0.211413,0.875605,0.4342859999999999,0.632007,0.920964,-0.279317
677,-0.200657,0.8644569999999999,0.4609069999999999,0.41515,1.031981,-0.280258
678,-0.198422,0.85757,0.474539,0.2227599999999999,0.928746,-0.543295
679,-0.203416,0.854038,0.478774,0.2019359999999999,0.350109,-0.303802
680,-0.219484,0.856684,0.466801,0.2074909999999999,-0.354228,-0.383504
681,-0.239377,0.862125,0.4465699999999999,0.200009,-0.2374,-0.423178
682,-0.2492619999999999,0.875016,0.41497,-0.145116,0.232817,-0.611167
683,-0.242428,0.8946200000000001,0.375327,-0.090031,0.329196,-0.2766639999999999
684,-0.2334639999999999,0.91428,0.331019,0.013097,0.113079,-0.226007
685,-0.2338889999999999,0.929811,0.284137,0.258822,-0.514467,-0.054386
686,-0.236418,0.942249,0.237193,0.336928,-0.561176,-0.118495
687,-0.235588,0.952501,0.192944,0.334007,-0.41855,-0.2449619999999999
688,-0.23543,0.96006,0.151146,0.312716,-0.318352,-0.362709
689,-0.2351739999999999,0.965709,0.109944,0.3626,-0.391445,-0.157459
690,-0.229078,0.97074,0.071947,0.294066,-0.344306,-0.118547
691,-0.215869,0.975792,0.034947,0.1246369999999999,-0.201027,-0.0647929999999999
692,-0.195546,0.980675,-0.005368,0.02155,-0.169091,-0.081942
693,-0.1688619999999999,0.984675,-0.043493,-0.0018989999999999,-0.056223,0.066977
694,-0.138871,0.987424,-0.0754929999999999,-0.0107879999999999,0.165881,0.225517
695,-0.110463,0.989087,-0.097445,-0.185543,0.400561,0.219623
696,-0.086288,0.98997,-0.111823,-0.282059,0.326939,0.286811
697,-0.0700399999999999,0.989807,-0.123967,-0.355375,0.380752,0.384907
698,-0.06225,0.989727,-0.128671,-0.695883,0.570056,0.183634
699,-0.060632,0.989853,-0.1284809999999999,-0.649604,0.5490109999999999,0.42293
700,-0.066751,0.990655,-0.1189099999999999,-0.54566,0.4512859999999999,-0.091143
701,-0.088083,0.990999,-0.100766,0.2077429999999999,0.080046,-0.209552
702,-0.1166089999999999,0.990675,-0.070408,0.332246,0.10155,0.1106
703,-0.147543,0.98868,-0.027065,0.3821469999999999,0.36717,-0.1857349999999999
704,-0.175387,0.984276,0.020728,0.303897,0.6799229999999999,-0.2424989999999999
705,-0.205112,0.976116,0.071531,0.377399,0.702259,-0.283964
706,-0.234173,0.964372,0.123043,0.457974,0.8227979999999999,-0.1096
707,-0.262392,0.950412,0.166905,0.503999,0.5374869999999999,0.106166
708,-0.288757,0.936392,0.199448,0.422027,0.342294,0.114532
709,-0.313191,0.922104,0.227215,0.166645,-0.051086,-0.045224
710,-0.331405,0.907286,0.258831,-0.007706,-0.464674,-0.149807
711,-0.3370579999999999,0.8947149999999999,0.293031,0.03057,-0.768967,-0.247834
712,-0.331787,0.885634,0.324897,0.176773,-0.867583,-0.315727
713,-0.3206239999999999,0.87882,0.353361,0.206915,-0.8890129999999999,-0.338652
714,-0.306324,0.873941,0.377334,0.334919,-0.938623,-0.378387
715,-0.289227,0.871575,0.395847,0.446896,-0.88961,-0.320102
716,-0.272194,0.8732340000000001,0.404179,0.415093,-0.6806840000000001,-0.247548
717,-0.259682,0.877807,0.402503,0.23362,-0.394805,-0.069099
718,-0.2545469999999999,0.882523,0.395407,0.06308,-0.01265,0.168008
719,-0.252066,0.886658,0.387671,0.0718289999999999,0.23439,0.265329
720,-0.241521,0.888426,0.390326,0.12943,1.022249,0.187921
721,-0.230019,0.8814719999999999,0.412416,0.154549,0.891279,0.584609
722,-0.228496,0.875224,0.426333,0.045223,-0.054149,0.560743
723,-0.2289389999999999,0.8797809999999999,0.4166069999999999,-0.0542179999999999,-0.316258,0.512104
724,-0.226383,0.8727010000000001,0.432588,0.0879549999999999,1.009547,-0.1524059999999999
725,-0.223482,0.855949,0.466257,0.2438679999999999,1.021966,-0.6309
726,-0.224292,0.851411,0.47411,0.441654,0.822234,-0.778492
727,-0.217184,0.8567239999999999,0.467807,0.37087,-0.29639,-0.067722
728,-0.221875,0.860281,0.4589939999999999,0.164273,-0.0946559999999999,-0.499583
729,-0.237842,0.8681120000000001,0.435663,0.134326,0.033042,-0.472025
730,-0.244351,0.884282,0.397903,-0.109134,0.422649,-0.466995
731,-0.239213,0.903814,0.354804,0.008683,0.31669,-0.261634
732,-0.2382659999999999,0.920907,0.308463,0.087585,0.062995,-0.225333
733,-0.245371,0.933774,0.26048,0.336329,-0.548185,-0.162213
734,-0.252085,0.944014,0.212794,0.433924,-0.5116109999999999,-0.346767
735,-0.251988,0.953125,0.167472,0.433827,-0.520721,-0.301444
736,-0.247932,0.960743,0.124482,0.253944,-0.215916,-0.189408
737,-0.241807,0.966744,0.083233,0.230409,-0.170663,-0.123119
738,-0.232746,0.971451,0.045896,0.123142,-0.1715539999999999,-0.0650299999999999
739,-0.218688,0.97573,0.010928,-0.037385,-0.26873,0.017254
740,-0.198028,0.979864,-0.025382,-0.219025,-0.261603,0.145087
741,-0.171097,0.983411,-0.0601919999999999,-0.215606,-0.154798,0.2439079999999999
742,-0.1428309999999999,0.985852,-0.087694,-0.096961,0.073795,0.135073
743,-0.118505,0.987047,-0.108115,-0.049402,0.264234,0.411185
744,-0.0998179999999999,0.987048,-0.125569,-0.2726179999999999,0.499906,0.411672
745,-0.092674,0.986049,-0.138253,-0.472634,0.517308,0.298593
746,-0.087952,0.985925,-0.142166,-0.374267,0.6398229999999999,0.172531
747,-0.0890649999999999,0.986346,-0.138506,-0.332215,0.7382029999999999,-0.049192
748,-0.104943,0.98662,-0.124753,0.053673,0.451628,-0.0882299999999999
749,-0.131435,0.986494,-0.09772,0.481975,0.143175,-0.015775
750,-0.164326,0.984663,-0.0585669999999999,0.437733,0.16495,-0.016079
751,-0.191736,0.981389,-0.010346,0.295572,0.397258,-0.377762
752,-0.215607,0.975585,0.041736,0.312241,0.682557,-0.183826
753,-0.2412429999999999,0.965891,0.094075,0.411668,0.92301,-0.119664
754,-0.266703,0.953384,0.141144,0.574702,0.800126,0.102997
755,-0.287191,0.941021,0.178867,0.287801,0.212421,-0.013172
756,-0.30487,0.928396,0.212432,0.191818,-0.0130979999999999,-0.0623159999999999
757,-0.322613,0.914271,0.244991,0.028591,-0.399104,-0.15031
758,-0.330517,0.903271,0.27359,0.11877,-0.875973,-0.271896
759,-0.3271219999999999,0.8967950000000001,0.297896,0.175678,-0.940069,-0.257552
760,-0.315925,0.893056,0.320367,0.234977,-0.892811,-0.265603
761,-0.3019469999999999,0.890234,0.341033,0.2928219999999999,-0.8419399999999999,-0.264449
762,-0.286016,0.8889739999999999,0.357647,0.35436,-0.838284,-0.283184
763,-0.268583,0.890827,0.3664429999999999,0.4512,-0.748661,-0.246509
764,-0.252714,0.8963469999999999,0.364262,0.321608,-0.412278,-0.021306
765,-0.2409889999999999,0.903281,0.354963,0.071006,-0.071616,0.298297
766,-0.238262,0.906626,0.3482119999999999,-0.216603,0.395834,0.740991
767,-0.23735,0.90409,0.355353,-0.305039,0.596322,0.584604
768,-0.231663,0.895178,0.380761,0.293415,0.985499,0.220161
769,-0.222042,0.8881020000000001,0.402444,0.2363849999999999,0.687948,0.590064
770,-0.220021,0.887545,0.404777,0.39597,0.468443,0.3477409999999999
771,-0.217552,0.879733,0.422767,0.4829479999999999,0.8908969999999999,-0.159797
772,-0.214302,0.868117,0.447701,0.340798,0.788377,-0.43261
773,-0.223387,0.8645079999999999,0.4502359999999999,0.360319,-0.1058569999999999,-0.5124
774,-0.2341059999999999,0.86739,0.439111,0.384024,-0.407154,-0.38952
775,-0.242204,0.86754,0.434397,0.0677659999999999,0.364867,-0.527812
776,-0.254589,0.873286,0.415386,-0.072819,0.610646,-0.454296
777,-0.255249,0.88954,0.378889,-0.3125449999999999,0.550188,-0.305952
778,-0.252715,0.907604,0.335232,0.092895,-0.444759,-0.2305719999999999
779,-0.249728,0.923467,0.2912639999999999,0.182589,-0.58103,-0.199314
780,-0.248082,0.936754,0.246858,0.328312,-0.538393,-0.126283
781,-0.245058,0.948215,0.2020549999999999,0.3178269999999999,-0.3351929999999999,-0.032194
782,-0.244247,0.95684,0.1574549999999999,0.237884,-0.350806,-0.150756
783,-0.2453489999999999,0.962581,0.1150359999999999,0.2243679999999999,-0.345363,-0.155869
784,-0.244415,0.96663,0.076679,0.206634,-0.332689,-0.094364
785,-0.238523,0.97025,0.041416,0.178007,-0.327839,-0.105778
786,-0.22446,0.974471,0.004231,0.145603,-0.323882,-0.11089
787,-0.200323,0.979073,-0.0357829999999999,0.106726,-0.280663,-0.031508
788,-0.168455,0.983038,-0.072478,0.1081829999999999,0.154581,0.074644
789,-0.1368079999999999,0.985698,-0.0983769999999999,0.024519,0.411641,0.097737
790,-0.110913,0.987303,-0.113691,-0.303912,0.301576,0.382841
791,-0.094633,0.987248,-0.127988,-0.2203389999999999,0.531032,0.3909579999999999
792,-0.087895,0.986778,-0.136152,-0.260905,0.541435,0.26544
793,-0.0822799999999999,0.986831,-0.139245,-0.510493,0.664658,0.281762
794,-0.08117,0.987168,-0.137497,-0.405753,0.678268,-0.070938
795,-0.094033,0.98758,-0.125849,-0.227241,0.57994,-0.119696
796,-0.117616,0.987842,-0.101628,0.304017,0.001187,0.129429
797,-0.148276,0.986902,-0.063494,0.346946,0.076132,-0.149687
798,-0.176497,0.984137,-0.017802,0.2313219999999999,0.564813,-0.302282
799,-0.204237,0.978388,0.032206,0.18765,0.952948,-0.197917
800,-0.232508,0.968836,0.085375,0.312403,0.868734,-0.1945059999999999
801,-0.2565449999999999,0.956716,0.137372,0.4991899999999999,0.5908,0.0732299999999999
802,-0.276431,0.944224,0.178938,0.336474,0.264135,0.061189
803,-0.295486,0.931163,0.213575,0.0456839999999999,-0.259166,-0.06407
804,-0.314661,0.91684,0.245729,0.026224,-0.434189,-0.11577
805,-0.324376,0.90451,0.2768199999999999,0.068517,-0.70047,-0.223476
806,-0.323712,0.8954040000000001,0.305697,0.163342,-0.839526,-0.236483
807,-0.316485,0.888898,0.331189,0.201189,-0.8403440000000001,-0.237088
808,-0.306951,0.883985,0.352617,0.264959,-0.875135,-0.313112
809,-0.296452,0.881077,0.3685199999999999,0.413777,-1.039509,-0.290655
810,-0.284037,0.882184,0.375583,0.396525,-0.989117,-0.277179
811,-0.271017,0.887044,0.373752,0.246084,-0.602528,-0.102222
812,-0.260796,0.8901819999999999,0.373562,0.096383,0.0182039999999999,0.323094
813,-0.254943,0.891602,0.374215,0.088469,0.194854,0.315405
814,-0.243251,0.8952979999999999,0.373173,-0.157369,1.044643,0.022716
815,-0.228423,0.890574,0.393304,0.24388,0.782674,0.619346
816,-0.2251119999999999,0.8817450000000001,0.414534,0.190932,0.466156,0.652407
817,-0.224237,0.882101,0.414251,0.080911,0.385355,0.44166
818,-0.224409,0.87587,0.427176,0.0308209999999999,1.17871,0.024835
819,-0.224007,0.865557,0.447906,0.035638,1.053022,-0.40573
820,-0.229463,0.863974,0.448201,0.423585,-0.026693,-0.445104
821,-0.231055,0.867065,0.4413609999999999,0.488151,-0.5393220000000001,-0.2159579999999999
822,-0.231804,0.870999,0.433148,0.35691,-0.341412,-0.325879
823,-0.2398469999999999,0.8774139999999999,0.41546,-0.019919,0.191769,-0.678583
824,-0.240473,0.89423,0.377512,-0.193197,0.380428,-0.511469
825,-0.227979,0.914088,0.335347,-0.197848,0.3230639999999999,-0.155034
826,-0.21882,0.930569,0.293513,0.179559,-0.444179,-0.165751
827,-0.218982,0.942773,0.251428,0.394458,-0.6258020000000001,-0.1297849999999999
828,-0.219847,0.953145,0.207781,0.40985,-0.6354420000000001,-0.133669
829,-0.21775,0.962032,0.1645319999999999,0.262839,-0.4244949999999999,-0.256115
830,-0.2153659999999999,0.96886,0.12214,0.229312,-0.392689,-0.106119
831,-0.21228,0.973923,0.080021,0.2605429999999999,-0.4122159999999999,-0.060795
832,-0.202536,0.978477,0.039403,0.2952329999999999,-0.15908,-0.27364
833,-0.182474,0.983203,-0.002198,0.21461,-0.091678,-0.2101739999999999
834,-0.155227,0.987067,-0.0399399999999999,0.014709,0.200098,0.023704
835,-0.127389,0.989495,-0.068286,-0.11875,0.250144,0.191119
836,-0.1029349999999999,0.990642,-0.089576,-0.225388,0.0949899999999999,0.287437
837,-0.083192,0.990424,-0.110138,-0.437956,0.379739,0.372635
838,-0.067683,0.989295,-0.12925,-0.559606,0.610879,0.315315
839,-0.060902,0.987813,-0.143209,-0.755855,0.589534,0.289236
840,-0.05872,0.987146,-0.148614,-0.706112,0.8563290000000001,0.271188
841,-0.066713,0.987373,-0.143649,-0.180526,0.755013,-0.066922
842,-0.091297,0.987526,-0.128253,0.018711,0.139808,-0.2607239999999999
843,-0.122442,0.987521,-0.099006,0.355734,0.030545,0.0478279999999999
844,-0.156879,0.98618,-0.053182,0.312763,0.436778,-0.276682
845,-0.183612,0.982978,-0.0056479999999999,0.31322,0.652154,-0.277692
846,-0.206113,0.977465,0.045512,0.38728,0.827024,-0.142925
847,-0.2305989999999999,0.967591,0.102869,0.631188,0.754959,-0.139567
848,-0.25468,0.954753,0.153542,0.789242,0.4247329999999999,-0.076485
849,-0.2746,0.941872,0.193553,0.542941,0.011696,-0.121363
850,-0.291851,0.929233,0.226577,0.182186,-0.2747989999999999,-0.213363
851,-0.309865,0.915108,0.257972,-0.0840409999999999,-0.696816,-0.175498
852,-0.31942,0.902072,0.290215,-0.097175,-0.896502,-0.204247
853,-0.317343,0.894436,0.315063,0.070913,-1.09808,-0.26535
854,-0.307277,0.890653,0.33512,0.329387,-0.908796,-0.274252
855,-0.294705,0.887475,0.354294,0.388897,-0.895288,-0.261826
856,-0.281951,0.8856069999999999,0.36904,0.4395739999999999,-0.830507,-0.192084
857,-0.269517,0.886969,0.375011,0.2180949999999999,-0.475714,0.102085
858,-0.25682,0.8907860000000001,0.374873,0.0815419999999999,-0.327752,0.299779
859,-0.244429,0.894335,0.374707,-0.339159,0.1122109999999999,0.362948
860,-0.235806,0.8942370000000001,0.380423,0.028897,1.253926,0.349313
861,-0.2247849999999999,0.888134,0.400843,0.16172,1.23624,0.2401329999999999
862,-0.207862,0.878283,0.4305779999999999,0.2721929999999999,0.703504,0.4432319999999999
863,-0.199763,0.878025,0.4349159999999999,0.313227,-0.027195,0.282232
864,-0.1955329999999999,0.882591,0.4275319999999999,0.6114569999999999,0.582817,-0.078838
865,-0.189553,0.872533,0.450268,0.234078,0.8272200000000001,-0.573392
866,-0.193518,0.865165,0.46263,0.327688,0.735284,-0.876876
867,-0.199041,0.869584,0.451876,0.6036130000000001,0.513289,-0.462709
868,-0.205938,0.8727969999999999,0.4424939999999999,0.164877,-0.124643,-0.209721
869,-0.22934,0.8777469999999999,0.420652,-0.062072,-0.086609,-0.6141939999999999
870,-0.2498429999999999,0.8891950000000001,0.38327,-0.112096,0.012142,-0.5592189999999999
871,-0.252314,0.907186,0.336657,-0.25588,0.154078,-0.267427
872,-0.241063,0.92595,0.290674,-0.0311529999999999,-0.280351,-0.2130989999999999
873,-0.233575,0.940528,0.24665,0.122689,-0.48571,-0.133521
874,-0.2276659999999999,0.951916,0.204969,0.394475,-0.6733819999999999,-0.1157509999999999
875,-0.219629,0.96135,0.1660049999999999,0.405939,-0.6025550000000001,-0.198506
876,-0.213911,0.968591,0.1267329999999999,0.400388,-0.562006,-0.203714
877,-0.210228,0.973894,0.0855809999999999,0.378411,-0.2882699999999999,-0.251901
878,-0.20456,0.97778,0.0457329999999999,0.321442,-0.1160549999999999,-0.1968099999999999
879,-0.193546,0.981051,0.008312,0.2896309999999999,-0.06122,-0.121563
880,-0.175252,0.984206,-0.024819,0.135991,0.046907,0.016686
881,-0.15135,0.987045,-0.053147,-0.064913,0.042724,0.016846
882,-0.12244,0.989421,-0.077745,-0.2259489999999999,0.115025,0.070344
883,-0.095042,0.990692,-0.097396,-0.327459,0.453964,0.3326719999999999
884,-0.0778399999999999,0.990106,-0.116714,-0.275538,0.5673739999999999,0.5852649999999999
885,-0.072607,0.988517,-0.132492,-0.351724,0.528466,0.316345
886,-0.071335,0.98773,-0.138894,-0.69577,0.660356,0.4276819999999999
887,-0.072881,0.988049,-0.13579,-0.526957,0.7022430000000001,-0.023649
888,-0.089721,0.988346,-0.12294,0.031981,0.233303,-0.052765
889,-0.116288,0.988433,-0.097308,0.247941,0.144029,0.056323
890,-0.146675,0.987308,-0.060822,0.191277,0.443036,-0.248077
891,-0.175234,0.984357,-0.018026,0.090136,0.7510100000000001,-0.259302
892,-0.204144,0.978376,0.033116,0.330181,0.608111,-0.278736
893,-0.229564,0.969156,0.089596,0.591975,0.709937,-0.163922
894,-0.250321,0.957546,0.142948,0.721467,0.610279,-0.026187
895,-0.269459,0.944831,0.186214,0.4881939999999999,0.193261,-0.080409
896,-0.286051,0.932076,0.222255,0.142771,-0.212471,-0.188411
897,-0.30166,0.918109,0.25703,-0.039435,-0.529101,-0.279155
898,-0.309205,0.905751,0.2898179999999999,0.005799,-0.967931,-0.282036
899,-0.306156,0.898201,0.315422,0.2411849999999999,-0.840126,-0.390922
900,-0.296138,0.8926440000000001,0.339818,0.316081,-0.778325,-0.322621
901,-0.284178,0.888266,0.36085,0.430342,-0.8241639999999999,-0.274455
902,-0.271226,0.8855879999999999,0.377037,0.437135,-0.770278,-0.110954
903,-0.2591219999999999,0.8854920000000001,0.385676,0.338773,-0.6773779999999999,-0.040583
904,-0.250212,0.888059,0.38566,0.095427,-0.397885,0.1017059999999999
905,-0.246441,0.890719,0.381936,-0.192874,0.256604,0.448661
906,-0.2448679999999999,0.8925069999999999,0.37876,-0.210423,0.699976,0.40986
907,-0.23708,0.8892709999999999,0.3911239999999999,-0.170986,1.42892,0.332692
908,-0.227859,0.8801059999999999,0.416512,0.135894,0.255667,0.612312
909,-0.2227989999999999,0.879159,0.421222,0.039236,-0.1976099999999999,0.6863520000000001
910,-0.214375,0.8820950000000001,0.419451,0.405827,0.774979,-0.285082
911,-0.203622,0.870318,0.44841,0.412637,0.947492,-0.225723
912,-0.195615,0.862468,0.466765,0.2155889999999999,0.401264,-0.77954
913,-0.19618,0.861361,0.468568,0.337858,0.105665,-0.208513
914,-0.202116,0.861643,0.4655189999999999,0.246717,0.1171779999999999,-0.253635
915,-0.2186159999999999,0.8653350000000001,0.4509869999999999,0.1741059999999999,0.358145,-0.2509139999999999
916,-0.228841,0.8779370000000001,0.42053,-0.208583,0.181038,-0.5124029999999999
917,-0.227413,0.89776,0.377222,0.033917,-0.110819,-0.340067
918,-0.220146,0.918318,0.328962,0.133979,-0.224989,-0.31442
919,-0.2155239999999999,0.936028,0.2781869999999999,0.274057,-0.410256,-0.156972
920,-0.216187,0.949472,0.2274969999999999,0.276886,-0.407892,-0.1587869999999999
921,-0.220013,0.958917,0.179058,0.301083,-0.451089,-0.187588
922,-0.223777,0.965438,0.133577,0.312461,-0.6027060000000001,-0.235261
923,-0.223048,0.970729,0.089029,0.301569,-0.486308,-0.196161
924,-0.2169239999999999,0.975173,0.044402,0.274419,-0.4101399999999999,-0.176894
925,-0.2031079999999999,0.979152,-0.000108,0.264188,-0.163661,-0.1570109999999999
926,-0.180634,0.982757,-0.039402,0.1503,-0.004973,0.060887
927,-0.153152,0.985726,-0.069862,-0.022598,0.211311,0.161552
928,-0.126917,0.987725,-0.091017,-0.401251,0.116249,0.009565
929,-0.103988,0.988986,-0.10528,-0.37938,0.027066,0.384272
930,-0.086199,0.988778,-0.121982,-0.336912,0.327384,0.496875
931,-0.079739,0.9876,-0.135206,-0.315601,0.669321,0.281645
932,-0.079247,0.986561,-0.142864,-0.557991,0.7795979999999999,0.313762
933,-0.083238,0.986,-0.144456,-0.607924,0.885124,0.122743
934,-0.09907,0.985874,-0.135021,-0.104375,0.42857,-0.033406
935,-0.124841,0.985997,-0.110534,0.178048,0.133556,-0.010026
936,-0.156821,0.985062,-0.071077,0.2761139999999999,0.154541,-0.133955
937,-0.18383,0.98267,-0.023575,0.166374,0.6262770000000001,-0.332748
938,-0.20663,0.977961,0.029782,0.266673,0.812353,-0.300137
939,-0.2285739999999999,0.969307,0.090485,0.441114,0.880592,-0.391602
940,-0.248369,0.956998,0.149855,0.839419,0.570819,-0.019561
941,-0.26628,0.94413,0.194167,0.605849,0.150673,-0.111099
942,-0.282854,0.931773,0.227551,0.2566239999999999,-0.226237,-0.176572
943,-0.302585,0.917829,0.256941,-0.041165,-0.557081,-0.132185
944,-0.314697,0.906345,0.281942,-0.02095,-0.833759,-0.231832
945,-0.314792,0.8993770000000001,0.3033349999999999,0.106891,-0.90516,-0.252844
946,-0.307316,0.8950670000000001,0.323106,0.185001,-0.861025,-0.281556
947,-0.298685,0.8911959999999999,0.341384,0.362085,-0.922858,-0.291991
948,-0.291171,0.8879100000000001,0.356119,0.3991719999999999,-0.925187,-0.291971
949,-0.282476,0.887127,0.364961,0.375906,-0.785107,-0.162523
950,-0.27357,0.889235,0.366613,0.2345539999999999,-0.401121,0.0599309999999999
951,-0.268746,0.8907440000000001,0.366515,0.073556,-0.070249,0.397096
952,-0.26414,0.892058,0.366669,-0.0297899999999999,0.375917,0.277099
953,-0.250261,0.890174,0.380714,-0.1548759999999999,1.199319,0.128441
954,-0.235315,0.881705,0.408908,-0.05039,1.121194,0.668927
955,-0.233353,0.877181,0.419622,-0.0527039999999999,0.16353,0.769556
956,-0.234141,0.883926,0.4047659999999999,0.635279,0.243546,0.003879
957,-0.230136,0.8751469999999999,0.425604,0.347644,0.465933,-0.183996
958,-0.227651,0.861943,0.453002,0.191075,0.614757,-0.802673
959,-0.2314719999999999,0.8609379999999999,0.452977,0.762387,0.847558,-0.200947
960,-0.229711,0.8623930000000001,0.451101,0.4232229999999999,0.448856,-0.0040799999999999
961,-0.247028,0.86613,0.434485,0.31638,0.108952,-0.311163
962,-0.266994,0.875102,0.403598,-0.097798,-0.139491,-0.670764
963,-0.272041,0.891921,0.361181,-0.190361,-0.0988909999999999,-0.545035
964,-0.262938,0.911646,0.315825,0.126906,0.021154,-0.271635
965,-0.255307,0.928969,0.267987,0.25073,-0.175032,-0.105068
966,-0.259411,0.940355,0.220047,0.378751,-0.352098,0.004745
967,-0.269764,0.947591,0.171117,0.518742,-0.6517850000000001,-0.150609
968,-0.276928,0.952995,0.122863,0.495327,-0.669288,-0.1669759999999999
969,-0.276283,0.958049,0.07612,0.37278,-0.443416,-0.2060179999999999
970,-0.268756,0.962673,0.0318639999999999,0.139788,-0.112042,-0.053791
971,-0.25414,0.967119,-0.008864,0.07221,-0.100969,-0.020662
972,-0.2311099999999999,0.971655,-0.049598,0.028595,-0.285986,0.04946
973,-0.200471,0.975572,-0.089763,-0.08322,-0.2224739999999999,0.077007
974,-0.167546,0.97785,-0.125398,-0.110392,0.254496,0.102479
975,-0.138206,0.979192,-0.148557,-0.166756,0.4736579999999999,0.16055
976,-0.115913,0.97961,-0.1640579999999999,-0.307884,0.354328,0.655254
977,-0.105054,0.977949,-0.180463,-0.334628,0.4077469999999999,0.451917
978,-0.101187,0.976616,-0.189659,-0.432947,0.455605,0.2234719999999999
979,-0.100133,0.976024,-0.1932289999999999,-0.502742,0.609699,0.145484
980,-0.106202,0.976783,-0.186019,-0.077575,0.6704640000000001,-0.032533
981,-0.130864,0.977441,-0.165745,0.326069,0.292259,-0.199947
982,-0.161592,0.978722,-0.126404,0.556596,0.313209,0.078599
983,-0.194663,0.978067,-0.074003,0.415427,0.763724,-0.2676409999999999
984,-0.219099,0.975496,-0.019702,0.408537,1.03929,-0.346708
985,-0.23745,0.970895,0.031054,0.456582,0.961005,0.022046
986,-0.2571739999999999,0.962984,0.080671,0.455477,0.622267,0.032991
987,-0.27523,0.953115,0.125713,0.427101,0.4369,-0.004391
988,-0.28991,0.943228,0.162039,0.2447889999999999,-0.1239069999999999,-0.1353359999999999
989,-0.305667,0.932433,0.192663,0.243182,-0.349699,-0.196935
990,-0.3179889999999999,0.921527,0.222828,0.2540699999999999,-0.586047,-0.174794
991,-0.323375,0.912435,0.25074,0.193477,-0.8296870000000001,-0.124916
992,-0.323129,0.906245,0.2725579999999999,0.2337429999999999,-1.027537,-0.268896
993,-0.31623,0.90244,0.29254,0.23899,-1.051442,-0.333281
994,-0.302015,0.901022,0.311327,0.272077,-1.075109,-0.2897969999999999
995,-0.2877619999999999,0.901619,0.322887,0.2624329999999999,-0.978721,-0.2094369999999999
996,-0.280057,0.903431,0.324592,0.234906,-0.7234689999999999,0.0315029999999999
997,-0.279094,0.904051,0.323692,0.0861919999999999,-0.347456,0.443306
998,-0.278837,0.902582,0.327986,-0.251772,0.627081,0.3240989999999999
999,-0.2675599999999999,0.8996139999999999,0.345085,-0.318682,1.167189,0.251672
1000,-0.253284,0.891805,0.374846,0.035907,1.585109,0.541826
1001,-0.243182,0.885542,0.395796,0.216586,-0.051039,0.805238
1002,-0.236242,0.8904299999999999,0.388973,0.225912,-0.257328,0.3956639999999999
1003,-0.231343,0.887191,0.399184,0.674916,0.555283,0.102921
1004,-0.228975,0.8750690000000001,0.426381,0.162401,0.678764,-0.5752
1005,-0.23089,0.869532,0.436555,0.349512,0.447881,-0.7619640000000001
1006,-0.234762,0.8748469999999999,0.423681,0.5932970000000001,0.025788,-0.484609
1007,-0.2320559999999999,0.881001,0.412268,0.395111,-0.145969,-0.028616
1008,-0.237728,0.888143,0.3932739999999999,0.043117,0.082927,-0.5123840000000001
1009,-0.249297,0.9005620000000001,0.356113,-0.153322,0.139218,-0.374118
1010,-0.252178,0.917439,0.307716,-0.056919,-0.041356,-0.263435
1011,-0.246994,0.93327,0.260728,-0.013489,-0.224987,-0.220659
1012,-0.2450449999999999,0.945342,0.21508,0.320836,-0.499725,-0.0813059999999999
1013,-0.243331,0.954816,0.170575,0.40245,-0.515439,-0.06506
1014,-0.2395199999999999,0.962731,0.125541,0.465732,-0.482567,-0.133461
1015,-0.232484,0.969108,0.082232,0.306383,-0.336769,-0.025485
1016,-0.223358,0.97388,0.040636,0.28009,-0.308276,0.035719
1017,-0.2107,0.977541,0.001503,0.177985,-0.211977,0.050606
1018,-0.191042,0.980984,-0.0340209999999999,0.079973,-0.224209,0.021616
1019,-0.163297,0.98381,-0.073721,-0.030764,-0.288452,0.0067959999999999
1020,-0.129668,0.985122,-0.112722,-0.075456,0.047227,0.02506
1021,-0.096866,0.985605,-0.138508,-0.1364109999999999,0.560659,0.2883949999999999
1022,-0.072101,0.985886,-0.151048,-0.338513,0.348892,0.447068
1023,-0.058765,0.985087,-0.161665,-0.61131,0.456395,0.554457
1024,-0.053685,0.9846,-0.1663359999999999,-0.6878920000000001,0.7588550000000001,0.255264
1025,-0.049932,0.984961,-0.165363,-0.769266,0.859339,0.044025
1026,-0.060238,0.985308,-0.159766,-0.3422429999999999,0.598417,-0.0699549999999999
1027,-0.085583,0.98635,-0.140618,0.169064,0.230782,-0.228827
1028,-0.117313,0.986729,-0.112195,0.532215,0.19508,0.027692
1029,-0.1466829999999999,0.986708,-0.06982,0.463257,0.488832,-0.022603
1030,-0.172015,0.984886,-0.019815,0.294512,0.739128,-0.339148
1031,-0.197498,0.979718,0.033609,0.363178,0.759571,-0.155374
1032,-0.221123,0.971247,0.088118,0.459557,0.637365,-0.112349
1033,-0.240203,0.960513,0.140349,0.402893,0.335935,-0.085448
1034,-0.2571989999999999,0.948441,0.18517,0.242704,-0.207398,-0.043309
1035,-0.277298,0.935044,0.220854,0.189346,-0.397111,-0.1172309999999999
1036,-0.294348,0.923123,0.247346,0.0795049999999999,-0.787335,-0.176729
1037,-0.3000469999999999,0.915554,0.267788,0.11099,-0.8363459999999999,-0.230038
1038,-0.295519,0.911902,0.284747,0.1133599999999999,-0.815756,-0.208255
1039,-0.286282,0.909765,0.30058,0.169796,-0.8367209999999999,-0.174985
1040,-0.27738,0.907167,0.316361,0.23728,-0.960848,-0.19893
1041,-0.268995,0.904455,0.331029,0.312177,-0.953695,-0.191838
1042,-0.262981,0.902631,0.340699,0.253032,-0.736585,-0.093338
1043,-0.260979,0.901256,0.345837,0.099251,-0.391353,0.189121
1044,-0.26014,0.9002120000000001,0.349174,-0.09748,0.333538,0.272469
1045,-0.252764,0.896864,0.362933,-0.2040539999999999,1.400957,0.281018
1046,-0.245706,0.8880040000000001,0.388653,0.471155,0.5377770000000001,0.567691
1047,-0.235365,0.8855040000000001,0.400575,0.26927,0.045236,0.675246
1048,-0.222604,0.8905,0.396778,0.422357,0.428256,0.111752
1049,-0.208503,0.882501,0.421538,0.365165,1.130378,-0.146026
1050,-0.193157,0.873382,0.4470689999999999,0.068752,1.091569,-0.209276
1051,-0.194933,0.868382,0.455951,0.107454,0.33485,-0.7513
1052,-0.210414,0.869721,0.446417,0.375148,-0.100708,-0.346914
1053,-0.221555,0.873698,0.433061,0.269895,0.1944779999999999,-0.264787
1054,-0.2282199999999999,0.8844360000000001,0.407021,-0.2078,0.4489229999999999,-0.5483939999999999
1055,-0.225788,0.903571,0.364085,-0.075497,0.090478,-0.288492
1056,-0.2174989999999999,0.924133,0.314089,0.0267029999999999,-0.152374,-0.2075679999999999
1057,-0.210468,0.941415,0.263481,0.158374,-0.54786,-0.002738
1058,-0.20739,0.954648,0.213585,0.180016,-0.5915189999999999,0.007729
1059,-0.2060219999999999,0.964385,0.165827,0.262235,-0.5923149999999999,-0.115198
1060,-0.206362,0.970968,0.120906,0.3556539999999999,-0.6399590000000001,-0.251841
1061,-0.205123,0.975608,0.078082,0.377288,-0.575477,-0.165026
1062,-0.199606,0.979181,0.036689,0.348531,-0.402643,-0.052589
1063,-0.188102,0.982139,-0.002114,0.2914489999999999,-0.091926,-0.134177
1064,-0.167604,0.985026,-0.040225,0.273653,-0.0913799999999999,-0.0783669999999999
1065,-0.13912,0.987142,-0.0786299999999999,0.134832,-0.12061,0.144243
1066,-0.106579,0.988295,-0.109093,-0.366871,0.308748,0.148979
1067,-0.079442,0.988553,-0.128218,-0.353221,0.2343329999999999,0.441297
1068,-0.061896,0.987494,-0.144959,-0.378915,0.292673,0.407028
1069,-0.056622,0.98618,-0.155662,-0.610721,0.809261,0.2497329999999999
1070,-0.057773,0.985411,-0.160048,-0.372525,0.760347,0.468963
1071,-0.06206,0.985815,-0.155896,-0.37219,0.7257939999999999,0.051862
1072,-0.076741,0.987035,-0.140924,-0.0539049999999999,0.163706,-0.144431
1073,-0.102219,0.988592,-0.1105609999999999,0.288269,0.141627,0.021755
1074,-0.134913,0.988377,-0.069966,0.264262,0.352245,-0.314769
1075,-0.16513,0.985965,-0.024301,0.142456,0.844815,-0.302649
1076,-0.19885,0.979428,0.034094,0.410017,1.029788,-0.132895
1077,-0.231325,0.968127,0.095923,0.663851,0.901746,-0.159217
1078,-0.256051,0.955371,0.1472619999999999,0.624276,0.471387,0.040055
1079,-0.27505,0.943282,0.185865,0.3471329999999999,0.06247,-0.0576299999999999
1080,-0.295797,0.929999,0.21814,0.1031089999999999,-0.2405,-0.1653589999999999
1081,-0.314506,0.91635,0.247725,-0.028359,-0.6610550000000001,-0.1649769999999999
1082,-0.32106,0.906943,0.272678,0.171036,-0.971579,-0.305759
1083,-0.316557,0.901892,0.293873,0.233946,-0.920584,-0.334568
1084,-0.307421,0.89835,0.313746,0.232897,-0.913517,-0.320353
1085,-0.294668,0.896144,0.331773,0.285711,-1.025615,-0.2745829999999999
1086,-0.27707,0.8952120000000001,0.349004,0.2609869999999999,-0.966653,-0.232748
1087,-0.260909,0.894259,0.363598,0.175505,-0.606737,-0.008679
1088,-0.256129,0.8916649999999999,0.373237,0.27209,-0.16495,0.314812
1089,-0.262556,0.8894799999999999,0.373986,0.395369,0.062501,0.255607
1090,-0.253135,0.890807,0.377309,0.040122,1.031786,0.350413
1091,-0.232879,0.8866879999999999,0.399408,0.052535,0.8588100000000001,0.4700689999999999
1092,-0.225358,0.8803790000000001,0.41728,0.2111219999999999,0.611336,0.5574979999999999
1093,-0.221584,0.884757,0.409977,0.219753,0.024118,0.4750029999999999
1094,-0.212769,0.883134,0.4180649999999999,0.614167,1.140502,-0.333959
1095,-0.204975,0.870172,0.448062,0.420048,1.34873,-0.221957
1096,-0.200984,0.868311,0.453449,0.332835,0.621557,-0.7995479999999999
1097,-0.207804,0.874603,0.4380189999999999,0.429392,-0.354889,-0.327011
1098,-0.222477,0.877868,0.424059,0.315617,-0.460449,-0.14232
1099,-0.2468119999999999,0.8805950000000001,0.404487,-0.058302,0.022344,-0.389518
1100,-0.261794,0.8908229999999999,0.371312,-0.381821,0.4873659999999999,-0.391423
1101,-0.255192,0.909544,0.327998,-0.1343339999999999,0.241152,-0.0933789999999999
1102,-0.247169,0.926597,0.283376,0.152549,-0.356132,-0.097554
1103,-0.24711,0.939349,0.237776,0.244501,-0.564822,-0.043654
1104,-0.247876,0.949218,0.193703,0.411969,-0.667358,-0.197914
1105,-0.245694,0.957743,0.149473,0.418241,-0.557764,-0.280683
1106,-0.239533,0.964941,0.107206,0.327103,-0.352606,-0.159956
1107,-0.22962,0.970869,0.068326,0.291036,-0.265013,-0.0153009999999999
1108,-0.216986,0.975623,0.032534,0.208639,-0.147162,-0.05617
1109,-0.200565,0.979669,-0.00197,0.193378,-0.297021,-0.089873
1110,-0.177182,0.983322,-0.040816,0.122266,-0.375397,-0.045686
1111,-0.145613,0.986473,-0.075169,-0.163667,0.2300489999999999,0.054814
1112,-0.115008,0.988544,-0.0976539999999999,-0.183882,0.424405,0.123732
1113,-0.093251,0.989457,-0.110732,-0.139782,0.28392,0.18347
1114,-0.07975,0.989159,-0.123238,-0.2967,0.6179279999999999,0.556481
1115,-0.06914,0.989024,-0.130513,-0.618726,0.514791,0.312321
1116,-0.06314,0.989159,-0.132512,-0.7024090000000001,0.617316,0.292806
1117,-0.069452,0.988952,-0.13089,-0.398321,0.799454,0.03209
1118,-0.0908549999999999,0.988546,-0.120438,-0.207378,0.210978,-0.154251
1119,-0.120396,0.98775,-0.099179,-0.075664,0.130368,-0.131076
1120,-0.1550359999999999,0.985853,-0.063548,0.375144,0.370623,0.0278579999999999
1121,-0.1842589999999999,0.982656,-0.0204169999999999,0.318995,0.698451,-0.214782
1122,-0.208998,0.97756,0.025974,0.380812,0.783212,-0.197604
1123,-0.2323039999999999,0.969604,0.076694,0.5244489999999999,0.630341,-0.14075
1124,-0.252372,0.959181,0.1275079999999999,0.539238,0.364733,-0.079442
1125,-0.268567,0.947981,0.170821,0.413159,0.057634,-0.06227
1126,-0.282667,0.936704,0.206544,0.286864,-0.190122,-0.060548
1127,-0.29751,0.92481,0.237042,0.05697,-0.5675560000000001,-0.081692
1128,-0.305775,0.914887,0.26355,0.019596,-0.7268220000000001,-0.153518
1129,-0.303503,0.9093,0.284665,0.086584,-0.8684370000000001,-0.222379
1130,-0.294376,0.906472,0.302698,0.177143,-0.8908469999999999,-0.225596
1131,-0.283057,0.905287,0.316714,0.227027,-0.917235,-0.228823
1132,-0.271712,0.905257,0.326584,0.302871,-0.990095,-0.2173
1133,-0.260156,0.906786,0.331709,0.295252,-0.8665639999999999,-0.168562
1134,-0.251742,0.908843,0.332572,0.219241,-0.5727369999999999,0.040795
1135,-0.249123,0.90911,0.333812,0.016121,-0.251929,0.317357
1136,-0.249659,0.907653,0.337357,-0.2023059999999999,0.208756,0.235946
1137,-0.243884,0.903234,0.353074,-0.0710269999999999,1.113489,0.187209
1138,-0.231155,0.8946790000000001,0.382216,0.131012,1.206472,0.398561
1139,-0.222377,0.888386,0.4016099999999999,0.090053,0.056988,0.69008
1140,-0.215577,0.89165,0.398069,0.242219,-0.050906,0.343203
1141,-0.2045529999999999,0.887258,0.413405,0.600381,0.83076,0.035051
1142,-0.198208,0.876704,0.438264,0.190014,0.854131,-0.537706
1143,-0.205334,0.870901,0.446476,0.199871,0.425105,-0.549031
1144,-0.2262949999999999,0.8733129999999999,0.431377,0.418922,-0.288779,-0.593517
1145,-0.235725,0.876442,0.419827,0.202553,0.000985,-0.394253
1146,-0.243925,0.880834,0.405713,-0.125948,0.329294,-0.667447
1147,-0.246785,0.8953129999999999,0.370789,-0.174465,0.416196,-0.4021
1148,-0.237238,0.915582,0.324654,-0.069082,0.235129,-0.218239
1149,-0.2262809999999999,0.934018,0.2763739999999999,0.105447,-0.383694,-0.139167
1150,-0.220544,0.947802,0.230232,0.226708,-0.509051,-0.056297
1151,-0.217059,0.958425,0.185159,0.30472,-0.506521,-0.085259
1152,-0.2138739999999999,0.96646,0.142095,0.269828,-0.535094,-0.187169
1153,-0.210612,0.972234,0.101886,0.238307,-0.437368,-0.080554
1154,-0.204676,0.976772,0.063272,0.246058,-0.277584,0.0306149999999999
1155,-0.196178,0.980219,0.025806,0.210384,-0.2014099999999999,0.022488
1156,-0.181541,0.983338,-0.008387,0.022209,-0.3099369999999999,-0.0130509999999999
1157,-0.156711,0.986768,-0.041365,-0.152493,-0.345594,0.023696
1158,-0.124801,0.989056,-0.078582,-0.283539,-0.241909,0.189742
1159,-0.093624,0.989605,-0.1090849999999999,-0.300892,0.512608,0.244354
1160,-0.070886,0.989832,-0.123247,-0.439231,0.363347,0.3673869999999999
1161,-0.0592139999999999,0.989348,-0.132918,-0.4491779999999999,0.371766,0.4070269999999999
1162,-0.0531919999999999,0.989057,-0.137547,-0.317078,0.394182,0.136464
1163,-0.048907,0.989947,-0.132646,-0.261426,0.262814,0.206651
1164,-0.047238,0.991734,-0.119225,-0.370807,0.250591,-0.041405
1165,-0.058668,0.993582,-0.09662,0.357191,0.3469489999999999,-0.04199
1166,-0.079201,0.995075,-0.0594419999999999,0.498086,0.260036,0.009653
1167,-0.101585,0.994701,-0.01521,0.4700689999999999,0.329869,-0.255755
1168,-0.1242109999999999,0.99172,0.032298,-0.207927,0.660273,-0.34109
1169,-0.149877,0.984602,0.08985,0.056402,0.800524,-0.148246
1170,-0.174112,0.973427,0.148661,0.235086,0.8393010000000001,-0.035105
1171,-0.19259,0.960376,0.201397,0.353601,0.760586,0.04108
1172,-0.2081199999999999,0.947663,0.242063,0.138494,0.0435329999999999,-0.158582
1173,-0.224519,0.934731,0.275396,0.057923,-0.177773,-0.199164
1174,-0.239389,0.921685,0.305223,-0.047965,-0.408593,-0.184175
1175,-0.243503,0.911993,0.330071,-0.010815,-0.642385,-0.228783
1176,-0.23911,0.905918,0.349445,0.183293,-0.710407,-0.261294
1177,-0.2299989999999999,0.902379,0.364396,0.3423489999999999,-0.8288780000000001,-0.419693
1178,-0.216034,0.900602,0.377116,0.4891819999999999,-0.979764,-0.477596
1179,-0.201353,0.899725,0.387198,0.536222,-0.987204,-0.386679
1180,-0.193288,0.899174,0.39255,0.4756979999999999,-0.808308,-0.318133
1181,-0.194469,0.8982020000000001,0.39419,0.410197,-0.531045,-0.086039
1182,-0.199095,0.8964979999999999,0.395756,0.330488,-0.191893,0.161907
1183,-0.1948089999999999,0.8961540000000001,0.398659,-0.1446839999999999,0.2455389999999999,0.342201
1184,-0.177226,0.8939600000000001,0.411579,-0.617421,0.931968,0.366314
1185,-0.1610599999999999,0.886329,0.434109,-0.442532,1.137582,0.5383789999999999
1186,-0.156506,0.881648,0.445166,-0.376118,0.717275,0.787103
1187,-0.158744,0.8865,0.434612,-0.313348,-0.268336,0.4643899999999999
1188,-0.153044,0.880458,0.4487109999999999,0.412138,0.415105,-0.099849
1189,-0.14445,0.866359,0.4780439999999999,-0.128439,0.8566790000000001,-0.556077
1190,-0.147175,0.867086,0.475889,0.956883,0.8827309999999999,-0.567915
1191,-0.146984,0.8752700000000001,0.460725,0.984767,0.249761,-0.038026
1192,-0.147643,0.876675,0.457834,0.613738,-0.164273,-0.266123
1193,-0.164545,0.882353,0.44085,0.08285,-0.216994,-0.5065390000000001
1194,-0.186933,0.893992,0.407192,-0.184313,-0.113841,-0.662517
1195,-0.198363,0.912737,0.35712,-0.380143,0.382185,-0.498432
1196,-0.193875,0.930235,0.311527,-0.180545,-0.122618,-0.176853
1197,-0.194878,0.943515,0.267914,-0.00518,-0.407107,-0.130127
1198,-0.199897,0.953431,0.225801,0.368568,-0.685929,-0.147477
1199,-0.19962,0.962609,0.183066,0.501301,-0.570138,-0.245443
1200,-0.1938339999999999,0.97079,0.1413299999999999,0.423509,-0.45106,-0.19997
1201,-0.1890609999999999,0.976811,0.100375,0.2169239999999999,-0.120595,-0.063021
1202,-0.183003,0.981125,0.0623159999999999,0.163854,-0.071762,-0.036712
1203,-0.170746,0.98498,0.025323,0.138595,-0.305063,-0.215203
1204,-0.150665,0.988506,-0.01174,-0.001267,-0.278484,-0.045175
1205,-0.126807,0.991011,-0.042408,-0.09855,-0.1463,0.082768
1206,-0.104429,0.992507,-0.0632929999999999,-0.195329,0.20604,0.242889
1207,-0.085792,0.993081,-0.080073,-0.2923199999999999,0.069449,0.498713
1208,-0.073287,0.992387,-0.098897,-0.3004469999999999,0.316314,0.4911399999999999
1209,-0.067702,0.99138,-0.112097,-0.370653,0.8293299999999999,0.179571
1210,-0.065553,0.990843,-0.117966,-0.525252,0.783312,0.2378699999999999
1211,-0.066314,0.991012,-0.1161089999999999,-0.578721,0.849107,-0.104762
1212,-0.080295,0.991384,-0.103402,-0.32504,0.6399020000000001,-0.198477
1213,-0.1090319999999999,0.991073,-0.076607,0.241508,0.147477,-0.293251
1214,-0.143918,0.988757,-0.040362,0.162015,0.24278,-0.306745
1215,-0.175095,0.984542,0.000881,0.079773,0.423112,-0.244182
1216,-0.203035,0.977674,0.0539539999999999,0.301775,0.763308,-0.4051659999999999
1217,-0.2284489999999999,0.967093,0.111897,0.6562600000000001,0.724801,-0.187077
1218,-0.253185,0.952937,0.166692,0.8332790000000001,0.527806,-0.010244
1219,-0.275547,0.938271,0.2090449999999999,0.487217,0.039573,-0.124633
1220,-0.292831,0.923957,0.24603,0.218307,-0.321693,-0.139035
1221,-0.305699,0.909639,0.2812139999999999,0.103047,-0.462175,-0.241846
1222,-0.311234,0.896488,0.31531,0.090272,-0.793048,-0.201525
1223,-0.307311,0.888483,0.340784,0.2117,-0.8579049999999999,-0.242853
1224,-0.298743,0.883524,0.360713,0.268592,-0.803461,-0.269023
1225,-0.288832,0.8794,0.378429,0.290037,-0.762533,-0.342982
1226,-0.2762429999999999,0.876566,0.394078,0.303083,-0.630274,-0.19222
1227,-0.262769,0.877347,0.401484,0.302946,-0.55023,-0.131068
1228,-0.251474,0.8818809999999999,0.398776,0.263574,-0.301498,0.080121
1229,-0.244163,0.8869020000000001,0.392128,-0.07795,0.034439,0.386818
1230,-0.2411829999999999,0.8901049999999999,0.386679,-0.094282,0.1482099999999999,0.347681
1231,-0.236723,0.8896870000000001,0.390379,0.145689,0.853874,0.059114
1232,-0.22689,0.8808010000000001,0.415556,0.033164,1.0869719999999998,0.482332
1233,-0.225649,0.875491,0.427287,-0.013472,0.568753,0.736256
1234,-0.228925,0.880182,0.415753,0.320401,-0.074976,0.1983369999999999
1235,-0.228277,0.8742989999999999,0.428333,0.213202,0.637252,-0.146533
1236,-0.227848,0.8645809999999999,0.447842,0.093311,0.4619569999999999,-0.552837
1237,-0.238441,0.8664620000000001,0.438596,0.37194,0.26719,-0.785749
1238,-0.245029,0.873258,0.421141,0.4149199999999999,0.253192,0.029466
1239,-0.251785,0.87795,0.407168,0.323913,0.103755,0.025251
1240,-0.262475,0.887358,0.379051,0.069726,-0.124968,-0.313484
1241,-0.2740309999999999,0.900737,0.336983,0.002485,0.041966,-0.4107439999999999
1242,-0.273973,0.918328,0.285643,-0.064421,0.0695419999999999,-0.35417
1243,-0.269439,0.933592,0.236195,-0.06427,-0.156676,-0.256627
1244,-0.266014,0.944974,0.190369,0.232231,-0.5899939999999999,-0.3089139999999999
1245,-0.26214,0.953511,0.148597,0.3256469999999999,-0.6591229999999999,-0.252769
1246,-0.2551219999999999,0.960731,0.109048,0.433375,-0.511954,-0.187082
1247,-0.246032,0.966708,0.070197,0.403732,-0.365115,-0.103354
1248,-0.2372639999999999,0.970923,0.031589,0.186223,-0.008994,0.03468
1249,-0.22715,0.973821,-0.0078099999999999,0.120736,-0.134801,-0.093554
1250,-0.209746,0.976589,-0.047597,0.1733839999999999,-0.278652,-0.063548
1251,-0.184936,0.979172,-0.083705,0.07524,0.1927029999999999,0.11581
1252,-0.1582599999999999,0.981111,-0.1111829999999999,-0.2348829999999999,0.235015,0.221428
1253,-0.135343,0.982235,-0.129934,-0.390185,0.105991,0.269384
1254,-0.1195609999999999,0.981975,-0.146347,-0.4399479999999999,0.247304,0.387329
1255,-0.113293,0.980677,-0.159448,-0.214328,0.586858,0.288141
1256,-0.1098069999999999,0.980151,-0.165023,-0.4290569999999999,0.472394,0.291244
1257,-0.1093349999999999,0.980387,-0.163935,-0.4929439999999999,0.485678,0.00352
1258,-0.117751,0.981074,-0.153672,0.094146,0.394308,-0.048964
1259,-0.139474,0.981405,-0.131823,0.211557,0.166651,-0.108732
1260,-0.168645,0.980741,-0.098451,0.416753,0.415988,-0.09262
1261,-0.2055809999999999,0.977215,-0.052662,0.383682,0.925449,-0.270198
1262,-0.2456199999999999,0.969357,0.00166,0.504638,0.913272,-0.338391
1263,-0.277086,0.959131,0.0572279999999999,0.595598,0.831778,-0.024086
1264,-0.29975,0.947653,0.1099359999999999,0.519385,0.610483,0.013355
1265,-0.3171,0.935278,0.157115,0.283683,0.165812,-0.048213
1266,-0.331243,0.922038,0.200268,0.165624,-0.232798,-0.173626
1267,-0.342443,0.909372,0.23613,0.157354,-0.662423,-0.16037
1268,-0.348527,0.90023,0.260953,0.305345,-0.793403,-0.2161989999999999
1269,-0.349398,0.8946270000000001,0.278469,0.332018,-0.903507,-0.199962
1270,-0.346273,0.8919389999999999,0.290724,0.220907,-0.897875,-0.273619
1271,-0.338429,0.89107,0.3023929999999999,0.217396,-0.989764,-0.267969
1272,-0.324729,0.891814,0.31496,0.216803,-0.936079,-0.214527
1273,-0.308929,0.8929809999999999,0.327303,0.26091,-0.679343,-0.002352
1274,-0.298268,0.8923399999999999,0.3387409999999999,0.107075,-0.235815,0.441945
1275,-0.298315,0.888791,0.347906,-0.026682,-0.165326,0.255457
1276,-0.300358,0.8843770000000001,0.357271,-0.029079,0.426338,0.2255239999999999
1277,-0.291512,0.8769600000000001,0.382024,-0.039101,1.672082,0.4920449999999999
1278,-0.282975,0.868585,0.406773,0.093476,1.062827,0.775676
1279,-0.275161,0.8692059999999999,0.410787,0.201232,-0.299046,0.60226
1280,-0.25982,0.8700680000000001,0.418872,0.526223,0.8709290000000001,0.0333069999999999
1281,-0.247225,0.8593360000000001,0.447661,0.211184,1.001184,0.040315
1282,-0.246402,0.8546950000000001,0.456902,0.030445,0.217494,-0.667092
1283,-0.255171,0.8609180000000001,0.440097,0.666975,-0.00107,-0.203891
1284,-0.255892,0.865326,0.430939,0.594942,0.053909,0.028626
1285,-0.264139,0.870868,0.414485,0.0928129999999999,0.33154,-0.352626
1286,-0.271182,0.884883,0.378712,-0.0817389999999999,0.222539,-0.4384649999999999
1287,-0.270235,0.904679,0.329407,-0.0444009999999999,-0.003159,-0.317444
1288,-0.265385,0.921876,0.282306,0.078541,-0.379411,-0.232196
1289,-0.263137,0.935388,0.236203,0.339751,-0.513772,-0.2515989999999999
1290,-0.260801,0.946531,0.189856,0.337416,-0.5249159999999999,-0.205252
1291,-0.262559,0.954482,0.141461,0.426393,-0.412566,-0.319714
1292,-0.266307,0.959257,0.094295,0.450862,-0.345564,-0.205592
1293,-0.266378,0.962574,0.049804,0.441564,-0.304844,-0.11647
1294,-0.258521,0.965954,0.009268,0.2273929999999999,-0.143673,-0.021871
1295,-0.240339,0.970218,-0.030016,0.124815,-0.143756,-0.032148
1296,-0.21265,0.974495,-0.071609,0.042545,-0.159187,-0.044175
1297,-0.179452,0.977692,-0.109105,-0.017906,0.125229,-0.016291
1298,-0.147017,0.980004,-0.134039,-0.171419,0.260108,0.150015
1299,-0.120709,0.981258,-0.150167,-0.532809,0.141575,0.316839
1300,-0.107511,0.979769,-0.168771,-0.418689,0.3296949999999999,0.5228510000000001
1301,-0.101539,0.977611,-0.184273,-0.3618099999999999,0.548482,0.355934
1302,-0.098159,0.976199,-0.193364,-0.251786,0.679196,0.406957
1303,-0.099286,0.975802,-0.194787,-0.243655,1.126371,0.066751
1304,-0.115114,0.976437,-0.182506,0.046724,0.503146,-0.0614669999999999
1305,-0.141044,0.977487,-0.156893,0.067649,0.191413,-0.185712
1306,-0.1759109999999999,0.977614,-0.115392,0.121514,0.1049819999999999,-0.131236
1307,-0.210126,0.975851,-0.059584,0.300733,0.687632,-0.330201
1308,-0.2359679999999999,0.971754,0.000397,0.449118,0.941271,-0.185593
1309,-0.2552239999999999,0.964945,0.061064,0.706839,0.8745629999999999,-0.099577
1310,-0.271855,0.954805,0.120116,0.801259,0.545927,0.058213
1311,-0.285027,0.943866,0.166918,0.454445,0.189724,-0.111483
1312,-0.296792,0.932458,0.20597,0.083672,-0.214928,-0.110679
1313,-0.312048,0.920091,0.236736,-0.102014,-0.648881,-0.138149
1314,-0.319208,0.911204,0.26038,0.061045,-0.710307,-0.337604
1315,-0.317064,0.905536,0.281885,0.217989,-0.7539399999999999,-0.280313
1316,-0.308617,0.902398,0.300694,0.279564,-0.8156979999999999,-0.208806
1317,-0.296782,0.9000319999999999,0.319134,0.269042,-0.838829,-0.2259789999999999
1318,-0.284636,0.898274,0.334768,0.3109119999999999,-0.928059,-0.221426
1319,-0.275223,0.8987450000000001,0.341311,0.302491,-0.972506,-0.161989
1320,-0.268443,0.902896,0.335707,0.229258,-0.754413,0.026064
1321,-0.263585,0.906273,0.330417,0.112202,-0.288124,0.464582
1322,-0.264419,0.90542,0.332084,0.0136099999999999,-0.0226229999999999,0.497384
1323,-0.257993,0.905267,0.337513,-0.088748,0.439536,0.128933
1324,-0.239144,0.902324,0.358613,0.040948,1.511448,0.190734
1325,-0.226084,0.897538,0.3785429999999999,0.118769,1.3215629999999998,0.774884
1326,-0.221729,0.898444,0.378969,0.1867859999999999,0.1812369999999999,0.724608
1327,-0.214577,0.8965049999999999,0.387581,0.620033,0.613215,0.015801
1328,-0.203975,0.889774,0.408263,0.287578,0.7327229999999999,-0.514586
1329,-0.203438,0.8869950000000001,0.41453,0.318108,0.439909,-0.460001
1330,-0.210152,0.8891709999999999,0.40644,0.414543,-0.174175,-0.487159
1331,-0.218506,0.891293,0.397285,0.175369,-0.211788,-0.355613
1332,-0.233814,0.8954719999999999,0.378738,0.085834,0.023793,-0.415634
1333,-0.240972,0.907295,0.344573,-0.196482,0.48217,-0.585021
1334,-0.228359,0.925348,0.302601,-0.255207,0.2949739999999999,-0.187032
1335,-0.2144599999999999,0.941517,0.259877,-0.010607,-0.249013,-0.191747
1336,-0.210092,0.95359,0.2156679999999999,0.348077,-0.652488,-0.070389
1337,-0.205591,0.963554,0.171119,0.361093,-0.647011,-0.021079
1338,-0.199972,0.971367,0.1282329999999999,0.258429,-0.404472,-0.155532
1339,-0.197275,0.976482,0.086904,0.251459,-0.34283,-0.086431
1340,-0.195655,0.979577,0.046217,0.268348,-0.308526,0.045457
1341,-0.190046,0.981746,0.006701,0.1786319999999999,-0.270793,-0.005603
1342,-0.177053,0.983689,-0.031573,0.106054,-0.247635,-0.158948
1343,-0.156518,0.985272,-0.06877,0.077783,-0.233106,-0.101472
1344,-0.130627,0.986375,-0.099949,-0.002018,-0.033616,0.1219369999999999
1345,-0.1037849999999999,0.987142,-0.121523,-0.100332,0.198054,0.323534
1346,-0.080792,0.987167,-0.137706,-0.317401,0.0046689999999999,0.3149369999999999
1347,-0.064126,0.985549,-0.156753,-0.441672,0.250398,0.382598
1348,-0.056065,0.983191,-0.173728,-0.487835,0.738885,0.261421
1349,-0.052047,0.981761,-0.182828,-0.613496,0.678609,0.4035
1350,-0.053274,0.981374,-0.184543,-0.531122,0.614985,0.448246
1351,-0.062857,0.982927,-0.172895,-0.316187,0.5612010000000001,-0.2149989999999999
1352,-0.088792,0.984669,-0.150105,0.195192,0.009639,-0.009334
1353,-0.1218089999999999,0.986715,-0.107445,0.4093,-0.004843,0.083611
1354,-0.153345,0.986403,-0.059012,0.353769,0.463029,-0.458917
1355,-0.179954,0.983655,-0.005154,0.275108,0.8930379999999999,-0.106723
1356,-0.205184,0.977043,0.057214,0.256377,0.856651,-0.2148989999999999
1357,-0.2244139999999999,0.967325,0.1179289999999999,0.592517,0.637426,-0.005884
1358,-0.2399369999999999,0.956336,0.16685,0.509987,0.31965,-0.023891
1359,-0.2560409999999999,0.944572,0.205457,0.28012,-0.018409,-0.052671
1360,-0.275894,0.931466,0.237146,0.000717,-0.390969,-0.110391
1361,-0.2893989999999999,0.92059,0.262196,0.010652,-0.822415,-0.21735
1362,-0.291389,0.914422,0.280909,0.107123,-0.725564,-0.290171
1363,-0.286942,0.91104,0.296065,0.2136539999999999,-0.708601,-0.23239
1364,-0.279913,0.908753,0.309517,0.285742,-0.797653,-0.197288
1365,-0.272586,0.907063,0.320806,0.339679,-0.936101,-0.164541
1366,-0.2660349999999999,0.906233,0.328558,0.316419,-0.962172,-0.138342
1367,-0.2610719999999999,0.906382,0.332109,0.2198119999999999,-0.762491,0.028669
1368,-0.259133,0.906061,0.334496,0.106377,-0.490564,0.25959
1369,-0.258268,0.90677,0.333239,-0.058749,-0.080858,0.276533
1370,-0.2446489999999999,0.907462,0.34153,-0.2419079999999999,1.021112,0.144295
1371,-0.22421,0.90241,0.367923,0.028791,1.387324,0.614392
1372,-0.214532,0.8986149999999999,0.382687,0.156945,0.62116,0.73505
1373,-0.206007,0.901289,0.38108,0.568846,0.918718,0.002312
1374,-0.193627,0.890447,0.4118189999999999,0.185829,1.394297,-0.266112
1375,-0.1885079999999999,0.880912,0.434098,0.272553,0.773675,-0.619568
1376,-0.192742,0.881231,0.4315819999999999,0.3471,-0.6310479999999999,-0.394687
1377,-0.197842,0.8797649999999999,0.432266,0.207806,-0.4331859999999999,-0.28012
1378,-0.2222199999999999,0.8792139999999999,0.421404,0.133841,0.1567049999999999,-0.499483
1379,-0.235721,0.88892,0.392731,-0.353467,1.0037040000000002,-0.306778
1380,-0.225236,0.908337,0.352384,-0.2478929999999999,0.243427,-0.236479
1381,-0.216488,0.927119,0.305886,0.209485,-0.65774,-0.224023
1382,-0.215362,0.942081,0.2570719999999999,0.3367,-0.740711,-0.106269
1383,-0.215403,0.954281,0.207204,0.385814,-0.743801,-0.016668
1384,-0.214236,0.96387,0.158246,0.290485,-0.5629609999999999,-0.180874
1385,-0.214916,0.970274,0.111203,0.229442,-0.4915899999999999,-0.222958
1386,-0.21832,0.973622,0.066201,0.200132,-0.370747,-0.207711
1387,-0.216522,0.97595,0.025034,0.365875,-0.310896,-0.017374
1388,-0.201258,0.979468,-0.011142,0.314585,-0.273063,-0.116147
1389,-0.173552,0.983837,-0.04394,0.19937,-0.268017,-0.045522
1390,-0.140814,0.98737,-0.07253,-0.020487,0.229778,0.022435
1391,-0.109154,0.989518,-0.09449,-0.116921,0.346588,0.18322
1392,-0.081275,0.990391,-0.111841,-0.2660599999999999,0.165691,0.130869
1393,-0.062073,0.989626,-0.129527,-0.420883,0.336211,0.623317
1394,-0.0524419999999999,0.987873,-0.146102,-0.504931,0.421551,0.582457
1395,-0.046761,0.986735,-0.155426,-0.731834,0.532003,0.3116
1396,-0.046484,0.986096,-0.1595059999999999,-0.692408,0.552936,0.1580869999999999
1397,-0.058816,0.986109,-0.155299,-0.2330539999999999,0.5724229999999999,-0.081091
1398,-0.087978,0.986316,-0.139388,0.028011,0.317197,-0.082429
1399,-0.120168,0.98714,-0.105369,0.484853,0.287259,-0.211571
1400,-0.149828,0.986853,-0.060501,0.271593,0.506555,-0.240432
1401,-0.174492,0.98462,-0.007965,0.307564,0.6909930000000001,-0.136826
1402,-0.195961,0.979351,0.049576,0.351021,0.733738,-0.178452
1403,-0.21499,0.970852,0.1058819999999999,0.525324,0.7188140000000001,0.010604
1404,-0.234692,0.960264,0.150992,0.455685,0.412707,-0.03971
1405,-0.251529,0.949735,0.186337,0.232638,0.080859,-0.073849
1406,-0.270683,0.938012,0.2164449999999999,0.082145,-0.393243,-0.074859
1407,-0.288459,0.926203,0.242744,0.053382,-0.59353,-0.105018
1408,-0.293655,0.918041,0.266368,0.103347,-0.800075,-0.252635
1409,-0.28891,0.912514,0.289538,0.125046,-0.8749469999999999,-0.277652
1410,-0.278998,0.909116,0.309275,0.155539,-0.932355,-0.332163
1411,-0.265246,0.907846,0.324718,0.235614,-1.055765,-0.386821
1412,-0.247138,0.909666,0.333786,0.312537,-1.041334,-0.38916
1413,-0.2280969999999999,0.914072,0.335302,0.344506,-0.810312,-0.215017
1414,-0.216151,0.916995,0.335236,0.229823,-0.3428219999999999,0.096436
1415,-0.218032,0.915424,0.338296,0.084563,0.07919,0.617118
1416,-0.221795,0.912056,0.344883,0.28872,0.632713,0.456264
1417,-0.207352,0.906356,0.368114,0.1088259999999999,1.20511,0.172093
1418,-0.193615,0.902061,0.385723,0.019268,0.344353,0.723225
1419,-0.18929,0.907147,0.375815,-0.050136,-0.158901,0.874337
1420,-0.179543,0.906826,0.38133,0.63276,0.731464,0.084337
1421,-0.166403,0.8908459999999999,0.422713,0.166785,1.2265549999999998,-0.050078
1422,-0.167616,0.879447,0.445488,0.281096,0.7828609999999999,-0.764824
1423,-0.17386,0.878458,0.445046,0.574663,-0.135294,-0.2329949999999999
1424,-0.182003,0.876516,0.445619,0.306607,-0.215276,-0.362825
1425,-0.203954,0.878832,0.4313229999999999,0.068105,0.297591,-0.779453
1426,-0.209443,0.894741,0.394403,-0.126464,0.298832,-0.324503
1427,-0.205255,0.914796,0.347853,0.027001,-0.020647,-0.295591
1428,-0.204282,0.932902,0.296557,0.112103,-0.287105,-0.261507
1429,-0.206779,0.94735,0.2444489999999999,0.3283,-0.580544,-0.0408209999999999
1430,-0.209864,0.958497,0.192943,0.365138,-0.573563,-0.046
1431,-0.211754,0.966469,0.1452,0.396569,-0.5578850000000001,-0.216917
1432,-0.210765,0.97241,0.0999169999999999,0.319088,-0.289869,-0.212939
1433,-0.206103,0.977045,0.053788,0.272189,-0.214288,-0.1321109999999999
1434,-0.197278,0.980304,0.008591,0.232434,-0.198978,-0.019272
1435,-0.182389,0.982636,-0.0338959999999999,0.148606,-0.318711,-0.125406
1436,-0.1600089999999999,0.984568,-0.070802,0.017721,-0.251062,-0.115843
1437,-0.132732,0.985951,-0.101349,-0.216633,0.175975,0.242432
1438,-0.104085,0.986715,-0.124695,-0.364512,0.360193,0.385575
1439,-0.075848,0.987265,-0.1398049999999999,-0.502674,0.088892,0.346775
1440,-0.0549299999999999,0.986373,-0.155049,-0.576295,0.354935,0.5987899999999999
1441,-0.043742,0.985216,-0.165608,-0.486088,0.637938,0.263005
1442,-0.038368,0.984791,-0.169422,-0.60128,0.5574140000000001,0.410832
1443,-0.0411529999999999,0.985397,-0.165193,-0.472443,0.447601,0.138063
1444,-0.053925,0.987469,-0.14828,-0.047439,0.29993,-0.029149
1445,-0.077989,0.989943,-0.1179839999999999,0.262575,0.048723,-0.178281
1446,-0.1073799999999999,0.991106,-0.078533,0.563129,0.259977,-0.105015
1447,-0.138363,0.989776,-0.034447,0.275265,0.750305,-0.169303
1448,-0.167011,0.985753,0.019633,0.272785,0.976252,-0.393534
1449,-0.1925339999999999,0.977997,0.080247,0.340422,0.846985,-0.128816
1450,-0.2126699999999999,0.967653,0.135665,0.41375,0.5744,0.0189979999999999
1451,-0.232407,0.955797,0.180072,0.349747,0.149031,0.074246
1452,-0.253134,0.943051,0.2157869999999999,0.330069,0.043124,-0.01222
1453,-0.275421,0.928944,0.2473699999999999,0.270782,-0.155552,-0.135707
1454,-0.293495,0.915293,0.275835,0.134574,-0.549921,-0.1146109999999999
1455,-0.304623,0.905333,0.295908,0.113095,-0.887633,-0.127375
1456,-0.308205,0.900435,0.306938,0.102913,-0.8982379999999999,-0.2867659999999999
1457,-0.305114,0.899133,0.313767,0.109649,-1.026636,-0.30774
1458,-0.295148,0.900611,0.319019,0.179028,-1.174963,-0.300144
1459,-0.278991,0.904182,0.323426,0.212997,-1.039939,-0.285462
1460,-0.26078,0.908434,0.32669,0.199318,-0.6514909999999999,-0.073318
1461,-0.2477739999999999,0.911076,0.329445,0.072542,-0.19228,0.449455
1462,-0.240788,0.910269,0.336775,-0.122692,0.32461,0.525911
1463,-0.226383,0.905269,0.359479,-0.02412,1.177663,0.1894559999999999
1464,-0.195288,0.895876,0.399068,0.24288,1.5352,0.612178
1465,-0.177103,0.893401,0.41286,0.0069069999999999,-0.183044,0.706631
1466,-0.173361,0.8966700000000001,0.4073239999999999,0.738211,0.209226,-0.157217
1467,-0.163935,0.8809530000000001,0.4438819999999999,0.747965,0.8849,-0.3397409999999999
1468,-0.159934,0.866326,0.4731649999999999,0.378303,0.7450939999999999,-0.518407
1469,-0.163417,0.8694790000000001,0.466139,0.577159,0.095731,-0.202117
1470,-0.1703839999999999,0.869334,0.46391,0.220906,-0.5289560000000001,-0.178204
1471,-0.200157,0.8669600000000001,0.456401,-0.226417,0.551009,-0.7104600000000001
1472,-0.2222489999999999,0.876926,0.4261359999999999,-0.44842,0.931424,-0.3151739999999999
1473,-0.21809,0.896574,0.385459,-0.356952,0.4247609999999999,-0.173713
1474,-0.214423,0.915791,0.3396119999999999,-0.012918,-0.373113,-0.299176
1475,-0.2137659999999999,0.932302,0.291728,0.114202,-0.622197,-0.251704
1476,-0.212206,0.946451,0.243284,0.420396,-0.646219,-0.106748
1477,-0.207011,0.958422,0.196376,0.449504,-0.528154,-0.17152
1478,-0.201424,0.967895,0.150323,0.4133529999999999,-0.451797,-0.151925
1479,-0.199327,0.974279,0.105066,0.3654949999999999,-0.299536,-0.1091859999999999
1480,-0.197478,0.978382,0.061327,0.267776,-0.336338,-0.07857
1481,-0.190865,0.98142,0.019403,0.177727,-0.4535109999999999,-0.141992
1482,-0.174585,0.98432,-0.0249789999999999,0.100274,-0.412711,-0.106918
1483,-0.147119,0.986833,-0.067129,-0.123251,-0.0407579999999999,-0.010722
1484,-0.1186079999999999,0.987849,-0.10039,-0.08235,0.433721,0.2266409999999999
1485,-0.095145,0.987895,-0.1224869999999999,-0.071024,0.3834579999999999,0.228368
1486,-0.073472,0.987784,-0.137388,-0.298064,0.142861,0.479277
1487,-0.058774,0.986321,-0.153973,-0.5227229999999999,0.424232,0.4006619999999999
1488,-0.0516019999999999,0.984862,-0.165459,-0.6018859999999999,0.608278,0.223519
1489,-0.049852,0.983937,-0.17139,-0.585799,0.520045,0.373325
1490,-0.0560049999999999,0.984126,-0.168378,-0.61323,0.670933,-0.188403
1491,-0.0810559999999999,0.984515,-0.155414,0.023576,0.315244,-0.098385
1492,-0.116104,0.985502,-0.1236859999999999,0.435562,0.427508,-0.209215
1493,-0.153777,0.98505,-0.0776,0.4690539999999999,0.5799979999999999,-0.414527
1494,-0.1841799999999999,0.982531,-0.026482,0.452475,0.654401,-0.546959
1495,-0.210443,0.977037,0.03321,0.492838,0.954527,-0.261284
1496,-0.235682,0.96699,0.096831,0.7231850000000001,0.719274,-0.018203
1497,-0.259323,0.954487,0.147297,0.680664,0.5533859999999999,-0.017887
1498,-0.280533,0.942064,0.183867,0.337997,0.180189,-0.04402
1499,-0.305923,0.927617,0.214307,0.061477,-0.099126,-0.103238
1500,-0.330365,0.911986,0.243169,-0.039142,-0.567351,-0.082081
1501,-0.340394,0.901224,0.268171,0.1071329999999999,-0.7507119999999999,-0.200224
1502,-0.338979,0.894366,0.291878,0.120931,-0.811129,-0.236504
1503,-0.330126,0.8896370000000001,0.315519,0.08893,-0.828785,-0.260678
1504,-0.317617,0.8861020000000001,0.337538,0.165991,-0.954202,-0.333189
1505,-0.300867,0.884682,0.356099,0.305688,-1.039254,-0.378606
1506,-0.28213,0.8869790000000001,0.365595,0.374079,-0.909639,-0.259821
1507,-0.2689,0.8908780000000001,0.366086,0.329477,-0.534051,0.058734
1508,-0.266365,0.8920290000000001,0.365135,0.29522,-0.347809,0.292214
1509,-0.26393,0.8919100000000001,0.367186,0.11978,0.310986,0.451555
1510,-0.248452,0.889167,0.384243,-0.339377,1.116281,0.325229
1511,-0.233509,0.882933,0.4072969999999999,-0.075894,0.982896,0.396154
1512,-0.228807,0.881423,0.4131939999999999,-0.0088939999999999,0.659714,0.469603
1513,-0.229255,0.886545,0.401831,0.209526,0.087469,0.19909
1514,-0.224333,0.878368,0.422058,0.579298,0.854542,0.00763
1515,-0.222717,0.870503,0.438874,0.157089,0.8773299999999999,-0.421327
1516,-0.2316409999999999,0.8732260000000001,0.4287289999999999,0.87956,0.4197729999999999,-0.504001
1517,-0.235359,0.8767799999999999,0.4193489999999999,0.8504719999999999,0.053335,-0.169349
1518,-0.238656,0.879685,0.4113229999999999,0.4237149999999999,-0.135224,-0.08329
1519,-0.254279,0.885769,0.388258,-0.152077,-0.017041,-0.565535
1520,-0.2675079999999999,0.898984,0.346781,-0.35917,0.219546,-0.509043
1521,-0.263246,0.917586,0.2978739999999999,-0.32524,0.323335,-0.254585
1522,-0.253517,0.933614,0.2531489999999999,-0.0022199999999999,-0.227132,-0.145742
1523,-0.255185,0.944058,0.2088719999999999,0.1801579999999999,-0.4400439999999999,-0.101969
1524,-0.260373,0.951427,0.164268,0.4978,-0.62669,-0.1375809999999999
1525,-0.263382,0.957229,0.119727,0.496826,-0.580993,-0.204932
1526,-0.261833,0.962034,0.076984,0.438713,-0.370161,-0.106724
1527,-0.256064,0.965966,0.036515,0.371008,-0.1938099999999999,-0.048722
1528,-0.245469,0.969395,-0.003123,0.26288,-0.106984,-0.072088
1529,-0.2268869999999999,0.972878,-0.044973,0.1941109999999999,-0.149697,-0.036173
1530,-0.200448,0.976003,-0.085046,0.010491,-0.1047869999999999,0.120721
1531,-0.172456,0.978118,-0.116355,-0.250746,0.151582,0.220023
1532,-0.147698,0.97972,-0.13538,-0.317115,0.006776,0.199192
1533,-0.127148,0.980275,-0.151289,-0.383594,0.045665,0.336912
1534,-0.1109849999999999,0.979348,-0.16898,-0.222557,0.610114,0.457417
1535,-0.098296,0.97874,-0.18,-0.352677,0.549016,0.356788
1536,-0.088489,0.97848,-0.18639,-0.4605069999999999,0.6393939999999999,0.432728
1537,-0.085391,0.978627,-0.187059,-0.491025,0.716517,0.041994
1538,-0.0947269999999999,0.979187,-0.179482,-0.091293,0.636795,-0.129127
1539,-0.1227569999999999,0.979405,-0.160279,0.162247,-0.03684,-0.070007
1540,-0.157453,0.979532,-0.125375,0.316709,0.0357269999999999,0.117426
1541,-0.194293,0.97795,-0.076528,0.417285,0.5282140000000001,-0.193156
1542,-0.225276,0.973904,-0.027489,0.541942,0.808658,-0.1458809999999999
1543,-0.2516469999999999,0.967566,0.021972,0.466674,0.826486,-0.090652
1544,-0.27705,0.958065,0.07313,0.541454,0.50594,-0.003092
1545,-0.2980239999999999,0.947039,0.11955,0.426884,0.36424,0.023517
1546,-0.313561,0.936257,0.158416,0.1033099999999999,0.020607,-0.07048
1547,-0.329658,0.923753,0.194932,-0.003304,-0.231721,-0.1168829999999999
1548,-0.341938,0.911184,0.229813,0.0643659999999999,-0.601812,-0.100723
1549,-0.3431079999999999,0.902991,0.258605,0.208923,-0.82775,-0.177001
1550,-0.335284,0.899597,0.279823,0.307711,-0.955307,-0.234947
1551,-0.323155,0.898789,0.29621,0.286244,-0.9003610000000001,-0.279472
1552,-0.308185,0.8995110000000001,0.309665,0.271198,-0.970602,-0.331928
1553,-0.2909719999999999,0.902341,0.317975,0.313967,-0.966428,-0.203123
1554,-0.277354,0.906933,0.31708,0.279353,-0.700543,-0.042025
1555,-0.269032,0.910611,0.31369,0.108982,-0.387265,0.257309
1556,-0.269126,0.909776,0.3160239999999999,-0.13392,0.253722,0.514817
1557,-0.2706119999999999,0.904979,0.32829,0.113554,0.63741,0.5505399999999999
1558,-0.258727,0.898042,0.355771,0.254653,1.490568,0.263384
1559,-0.243965,0.893231,0.37764,0.110924,0.340259,0.780075
1560,-0.238484,0.8966299999999999,0.373059,0.085484,-0.205055,0.787403
1561,-0.231155,0.8986540000000001,0.372799,0.721405,0.3719909999999999,-0.059109
1562,-0.221325,0.8879440000000001,0.40319,0.372539,1.032665,-0.319221
1563,-0.216385,0.8798950000000001,0.42303,0.297012,0.7441439999999999,-0.591395
1564,-0.216781,0.8804549999999999,0.421658,0.314117,-0.231194,-0.273037
1565,-0.2248909999999999,0.881432,0.415322,0.322227,-0.23217,-0.266702
1566,-0.24311,0.884331,0.398556,0.245261,0.147484,-0.265515
1567,-0.254351,0.8954030000000001,0.365444,-0.306028,0.579267,-0.397655
1568,-0.253884,0.912679,0.320237,-0.274986,0.457881,-0.279541
1569,-0.249586,0.929051,0.2730619999999999,-0.00345,-0.130314,-0.251349
1570,-0.251143,0.941873,0.2231469999999999,0.32524,-0.58941,-0.008532
1571,-0.254604,0.951355,0.173478,0.374904,-0.57991,0.006179
1572,-0.257708,0.958193,0.1242819999999999,0.389148,-0.578951,-0.03929
1573,-0.258382,0.963003,0.076539,0.347493,-0.480779,-0.199296
1574,-0.254062,0.966666,0.031691,0.312976,-0.323187,-0.091215
1575,-0.243682,0.969809,-0.009175,0.28659,-0.229819,-0.001735
1576,-0.225787,0.973019,-0.047429,0.21709,-0.124248,0.093846
1577,-0.200542,0.975844,-0.086637,0.10017,-0.224059,0.044614
1578,-0.168551,0.977975,-0.1230859999999999,-0.061948,-0.149667,0.169488
1579,-0.133323,0.979253,-0.152588,-0.1471029999999999,0.094584,0.105149
1580,-0.100435,0.980212,-0.170567,-0.162077,0.128385,0.283497
1581,-0.076933,0.97982,-0.184474,-0.360079,0.103539,0.520609
1582,-0.064292,0.977854,-0.199159,-0.700525,0.520208,0.450517
1583,-0.058694,0.976698,-0.206427,-0.5730810000000001,0.753313,0.411001
1584,-0.055678,0.975658,-0.212104,-0.533234,0.797673,0.2721929999999999
1585,-0.064569,0.975607,-0.209806,-0.390372,0.901987,-0.017138
1586,-0.091845,0.976371,-0.1956,0.079821,0.263726,-0.047152
1587,-0.127203,0.978415,-0.162847,0.290609,0.173959,-0.127146
1588,-0.163251,0.979506,-0.117952,0.334088,0.337984,-0.419539
1589,-0.192295,0.978982,-0.0679029999999999,0.381382,0.8166869999999999,-0.113372
1590,-0.217828,0.975974,-0.004585,0.5493100000000001,1.034921,-0.260002
1591,-0.239332,0.969253,0.0571259999999999,0.824308,0.971055,0.082416
1592,-0.257736,0.960548,0.104468,0.820801,0.756127,0.046655
1593,-0.2738489999999999,0.951219,0.142067,0.225769,0.037688,-0.030647
1594,-0.295723,0.939166,0.174667,-0.163383,-0.6607390000000001,0.020203
1595,-0.311748,0.928614,0.201201,0.038798,-0.846324,-0.170303
1596,-0.316391,0.922244,0.222163,0.125031,-0.874194,-0.176372
1597,-0.314364,0.918566,0.2395949999999999,0.249926,-0.8939530000000001,-0.215486
1598,-0.308285,0.915791,0.25745,0.301006,-0.984715,-0.1741059999999999
1599,-0.298884,0.913659,0.2754769999999999,0.3462469999999999,-1.026895,-0.176616
1600,-0.288837,0.912483,0.289727,0.360248,-0.994453,-0.17347
1601,-0.280971,0.911953,0.298982,0.279567,-0.810451,-0.0177319999999999
1602,-0.277985,0.909382,0.309421,0.17151,-0.444446,0.25375
1603,-0.278018,0.90567,0.320092,0.086536,-0.288544,0.3221969999999999
1604,-0.266974,0.903667,0.334816,-0.087487,0.846195,0.3068619999999999
1605,-0.243617,0.900122,0.361142,-0.154149,1.6398259999999998,0.435596
1606,-0.229813,0.8964549999999999,0.378875,0.043594,0.497939,0.620362
1607,-0.225515,0.899064,0.375257,0.239614,-0.18329,0.5150170000000001
1608,-0.217782,0.894016,0.391533,0.773523,0.8655209999999999,0.219001
1609,-0.217042,0.884804,0.412317,0.364671,1.293464,-0.019495
1610,-0.2225909999999999,0.8818879999999999,0.415596,0.339779,0.640985,-0.4691079999999999
1611,-0.229683,0.8821959999999999,0.4110569999999999,0.42498,-0.1956119999999999,-0.4142149999999999
1612,-0.2393219999999999,0.8847860000000001,0.399838,0.2418239999999999,-0.2585199999999999,-0.288723
1613,-0.256361,0.890466,0.375952,0.0912309999999999,0.136435,-0.268621
1614,-0.260878,0.906217,0.332723,-0.257875,0.373736,-0.5054069999999999
1615,-0.253887,0.92443,0.284538,-0.181705,-0.0015019999999999,-0.2282179999999999
1616,-0.2463719999999999,0.940036,0.23585,-0.089764,-0.241398,-0.204401
1617,-0.243598,0.951048,0.190155,0.331642,-0.634825,-0.004822
1618,-0.241281,0.959578,0.144869,0.497629,-0.621916,0.009321
1619,-0.23785,0.966165,0.099723,0.498241,-0.5912569999999999,-0.04319
1620,-0.2334239999999999,0.970726,0.056539,0.346858,-0.422646,-0.014333
1621,-0.227103,0.973751,0.015026,0.3188539999999999,-0.311352,0.015003
1622,-0.2153659999999999,0.976255,-0.023188,0.2989989999999999,-0.252103,-0.018072
1623,-0.196569,0.978665,-0.059743,0.260412,-0.223523,-0.148143
1624,-0.170402,0.980705,-0.095789,0.082862,-0.218528,0.0525
1625,-0.141951,0.981999,-0.1245869999999999,-0.060624,-0.10056,0.185775
1626,-0.113603,0.982734,-0.146023,-0.325133,0.281884,0.244808
1627,-0.088059,0.982773,-0.162472,-0.415771,0.188751,0.366299
1628,-0.068984,0.981469,-0.178757,-0.361238,0.25106,0.4022219999999999
1629,-0.0569789999999999,0.979245,-0.194493,-0.440427,0.492908,0.314977
1630,-0.049346,0.977767,-0.203794,-0.646181,0.5120100000000001,0.46243
1631,-0.04768,0.977495,-0.205488,-0.587712,0.481658,0.4892399999999999
1632,-0.058811,0.978354,-0.198391,-0.351772,0.491296,-0.205936
1633,-0.089483,0.979381,-0.181108,0.134649,0.084935,-0.0719289999999999
1634,-0.123759,0.981032,-0.149178,0.328104,0.308382,0.200143
1635,-0.158968,0.981691,-0.104906,0.334902,0.498183,-0.234953
1636,-0.19118,0.979892,-0.057049,0.335086,0.766583,-0.219135
1637,-0.21907,0.975703,-0.002046,0.4219199999999999,0.8514,-0.144774
1638,-0.2401,0.96913,0.0559669999999999,0.582691,0.8596209999999999,0.030749
1639,-0.259165,0.960217,0.103963,0.495997,0.526126,0.092036
1640,-0.276088,0.950528,0.14235,0.15533,-0.038892,-0.041703
1641,-0.294602,0.938807,0.178448,0.085556,-0.150797,-0.139248
1642,-0.308928,0.926531,0.214698,0.009611,-0.5775170000000001,-0.173255
1643,-0.312498,0.917637,0.245517,0.136595,-0.8858229999999999,-0.277728
1644,-0.3090179999999999,0.912376,0.268458,0.277386,-0.989265,-0.315729
1645,-0.303166,0.909503,0.284407,0.327473,-1.036715,-0.283049
1646,-0.295627,0.908597,0.295041,0.388019,-1.144406,-0.209852
1647,-0.287148,0.909655,0.30011,0.4052659999999999,-1.145907,-0.197067
1648,-0.279123,0.911454,0.302214,0.346781,-0.998841,-0.180876
1649,-0.272957,0.912023,0.306104,0.0915909999999999,-0.267889,0.364031
1650,-0.27124,0.911905,0.307977,-0.062637,0.1403559999999999,0.432731
1651,-0.257268,0.912092,0.319208,-0.2067369999999999,1.167025,0.395361
1652,-0.2433699999999999,0.906689,0.344497,-0.032662,0.904834,0.272416
1653,-0.234062,0.9048,0.355731,0.252235,0.475846,0.730741
1654,-0.226411,0.910355,0.346388,0.17476,-0.007996,0.562395
1655,-0.212363,0.905611,0.3670989999999999,0.5635899999999999,0.6555310000000001,0.079495
1656,-0.20152,0.8949860000000001,0.397972,0.391644,0.949863,-0.178154
1657,-0.197525,0.892287,0.405954,0.508255,0.703432,-0.516901
1658,-0.197398,0.8916350000000001,0.407445,0.210734,0.032238,-0.015706
1659,-0.2151829999999999,0.8907360000000001,0.400345,0.1196779999999999,-0.1246839999999999,-0.355668
1660,-0.232721,0.896698,0.376517,-0.018133,0.264023,-0.6094569999999999
1661,-0.228266,0.912716,0.338873,-0.330053,0.381183,-0.4538939999999999
1662,-0.218582,0.930788,0.292998,0.027237,0.004576,-0.200118
1663,-0.217734,0.945591,0.241746,0.236152,-0.351277,-0.17537
1664,-0.226063,0.955503,0.1894799999999999,0.457829,-0.603727,0.044346
1665,-0.2349429999999999,0.962166,0.137954,0.5146970000000001,-0.6764140000000001,-0.168685
1666,-0.238112,0.96725,0.087881,0.44615,-0.604213,-0.275854
1667,-0.2328849999999999,0.971665,0.040315,0.351613,-0.493347,-0.2349099999999999
1668,-0.221491,0.975149,-0.004434,0.254817,-0.343542,-0.020056
1669,-0.202852,0.978165,-0.045153,0.267992,-0.311767,-0.019804
1670,-0.1758809999999999,0.980969,-0.082214,0.260521,-0.325696,-0.187348
1671,-0.141822,0.982724,-0.1188849999999999,0.101142,-0.020398,0.11472
1672,-0.106149,0.983265,-0.148043,-0.305273,0.389355,0.174669
1673,-0.075422,0.983563,-0.164039,-0.336,0.389056,0.190666
1674,-0.052907,0.982304,-0.17965,-0.535563,-0.123539,0.5962
1675,-0.039923,0.979815,-0.195864,-0.46966,0.72067,0.517977
1676,-0.0321529999999999,0.978627,-0.203101,-0.7598090000000001,0.803859,0.263022
1677,-0.027574,0.978208,-0.205777,-0.724318,0.732684,0.395993
1678,-0.034852,0.979273,-0.19951,-0.434463,0.820715,-0.110747
1679,-0.057669,0.981129,-0.184541,0.063528,0.291302,-0.0544269999999999
1680,-0.089201,0.983855,-0.155134,0.2767159999999999,0.171952,0.0913679999999999
1681,-0.124996,0.985647,-0.113447,0.311657,0.320215,-0.147402
1682,-0.158165,0.985111,-0.067334,0.2631,0.526501,-0.1452359999999999
1683,-0.187353,0.982225,-0.0112819999999999,0.327154,0.8599389999999999,-0.191339
1684,-0.2114739999999999,0.976429,0.043093,0.515139,0.7564649999999999,0.006437
1685,-0.23212,0.96861,0.088926,0.604725,0.513736,0.025499
1686,-0.248964,0.960337,0.125545,0.3311929999999999,0.120641,-0.040615
1687,-0.264229,0.951417,0.15805,0.073357,-0.252153,-0.022857
1688,-0.276661,0.942367,0.188134,-0.0869559999999999,-0.497741,-0.091714
1689,-0.280863,0.934969,0.216659,-0.044485,-0.771196,-0.156905
1690,-0.276758,0.930263,0.240848,0.091303,-1.002284,-0.203022
1691,-0.26793,0.927573,0.260409,0.226273,-0.980429,-0.261874
1692,-0.258774,0.925535,0.276428,0.295135,-1.091673,-0.2433469999999999
1693,-0.2496789999999999,0.925683,0.284186,0.35176,-1.140146,-0.193686
1694,-0.239829,0.929029,0.281742,0.298194,-0.972867,-0.187564
1695,-0.22951,0.933285,0.276217,0.1739369999999999,-0.552929,0.088453
1696,-0.222933,0.93447,0.277592,-0.07736,-0.2058019999999999,0.443477
1697,-0.216851,0.931973,0.290507,-0.174308,0.251148,0.237341
1698,-0.199706,0.92546,0.321922,0.330611,1.593705,0.286538
1699,-0.185091,0.917043,0.353224,0.33568,1.644206,0.827334
1700,-0.188813,0.918204,0.348199,0.007783,-0.323218,0.908423
1701,-0.190717,0.919371,0.344057,0.628767,0.014177,-0.277041
1702,-0.17982,0.904056,0.387735,0.287119,1.127575,-0.094263
1703,-0.176812,0.8925129999999999,0.414909,-0.074363,1.476444,-0.78025
1704,-0.1806309999999999,0.8945139999999999,0.40891,0.4192329999999999,0.316896,-0.2460679999999999
1705,-0.18835,0.894157,0.4062,0.420681,-0.271934,-0.345851
1706,-0.2041319999999999,0.893438,0.4001119999999999,0.248459,0.088145,-0.375454
1707,-0.208098,0.907077,0.365921,-0.386826,0.709943,-0.390762
1708,-0.200713,0.926163,0.319262,-0.14055,0.076904,-0.093966
1709,-0.199373,0.942375,0.268648,0.0273,-0.2486489999999999,-0.033266
1710,-0.2036089999999999,0.954883,0.216179,0.094615,-0.509937,-0.108208
1711,-0.205296,0.964702,0.16491,0.186451,-0.500408,-0.120003
1712,-0.205865,0.971745,0.115426,0.272073,-0.535283,-0.126443
1713,-0.2058579999999999,0.976316,0.0665,0.397707,-0.630522,-0.224962
1714,-0.2011109999999999,0.979404,0.017763,0.400376,-0.447529,-0.052065
1715,-0.1898369999999999,0.98143,-0.0274209999999999,0.332492,-0.353958,-0.007903
1716,-0.171367,0.982852,-0.06804,0.193736,-0.208835,-0.062529
1717,-0.1450779999999999,0.983591,-0.107219,0.157026,-0.160272,0.000926
1718,-0.11416,0.983341,-0.141434,-0.068625,0.147473,0.281495
1719,-0.083709,0.982618,-0.165675,-0.144349,0.267137,0.378703
1720,-0.054751,0.98181,-0.1817869999999999,-0.517545,0.119341,0.4655399999999999
1721,-0.034552,0.979318,-0.199343,-0.384927,0.427787,0.645983
1722,-0.02537,0.976608,-0.2135119999999999,-0.24468,0.584229,0.655803
1723,-0.01811,0.975559,-0.218979,-0.937457,0.678784,0.31871
1724,-0.019402,0.975412,-0.219523,-0.639152,0.8375,0.0738159999999999
1725,-0.041442,0.977376,-0.2073969999999999,-0.284653,0.804423,0.004043
1726,-0.072517,0.980911,-0.180414,0.162941,0.163117,-0.079779
1727,-0.110696,0.983626,-0.1422,0.494318,0.147127,-0.137249
1728,-0.146544,0.984363,-0.097719,0.398497,0.548886,-0.212187
1729,-0.176182,0.983314,-0.045262,0.361882,0.8928309999999999,-0.036418
1730,-0.202017,0.979331,0.009726,0.438879,0.871331,-0.118521
1731,-0.225456,0.972359,0.060672,0.5933,0.622733,0.1154289999999999
1732,-0.246811,0.963648,0.102278,0.447068,0.362738,0.011583
1733,-0.268412,0.953267,0.138674,0.171656,-0.041005,-0.028704
1734,-0.2943119999999999,0.940784,0.168222,-0.029555,-0.403828,-0.128122
1735,-0.312948,0.929924,0.19313,-0.023203,-0.8007890000000001,-0.142715
