,gravity.x,gravity.y,gravity.z,userAcceleration.x,userAcceleration.y,userAcceleration.z
0,-0.165481,0.97947,0.1150549999999999,-0.249603,-0.341271,-0.211231
1,-0.178856,0.973103,0.145136,-0.115913,0.03764,-0.053202
2,-0.20072,0.964542,0.171323,0.0523429999999999,0.141888,-0.052075
3,-0.22555,0.954758,0.193771,0.296732,0.175995,-0.327606
4,-0.2401309999999999,0.942858,0.230951,0.308765,0.464964,-0.430001
5,-0.238253,0.928542,0.284653,0.243669,0.398393,-0.564072
6,-0.2355239999999999,0.915904,0.325005,0.473271,0.43163,-0.62011
7,-0.250139,0.914027,0.319319,0.501955,0.621816,-0.576231
8,-0.251486,0.919623,0.301709,0.393682,0.560525,-0.386762
9,-0.241258,0.925773,0.291065,0.169938,0.692757,-0.724063
10,-0.229208,0.934333,0.272883,0.3761199999999999,0.5206689999999999,-0.765177
11,-0.222822,0.948367,0.225679,0.3266429999999999,0.402753,-0.6207600000000001
12,-0.212492,0.964282,0.158082,0.034406,0.4620939999999999,-0.169602
13,-0.198138,0.976722,0.08209,0.035708,0.549813,0.744479
14,-0.183843,0.982948,-0.000324,-0.155115,0.568001,0.528736
15,-0.167266,0.982876,-0.077219,-0.443849,0.760684,0.3316739999999999
16,-0.158042,0.97771,-0.138181,-0.749444,1.079847,0.352171
17,-0.170801,0.968203,-0.182748,-0.8550469999999999,0.4627199999999999,0.3149659999999999
18,-0.1876,0.956601,-0.2229539999999999,-0.632972,-0.057004,0.3593369999999999
19,-0.186915,0.946294,-0.263779,-0.161595,-0.236638,0.595871
20,-0.17031,0.938102,-0.301576,0.158531,-0.27346,0.636171
21,-0.153124,0.927692,-0.340486,0.561403,-0.226948,0.722871
22,-0.1479069999999999,0.913562,-0.37884,0.58382,-0.262408,0.854029
23,-0.146496,0.901965,-0.406188,0.173778,-0.52576,0.623428
24,-0.145112,0.8880440000000001,-0.436247,0.070359,-0.7078840000000001,0.710494
25,-0.147816,0.8766790000000001,-0.457796,-0.044505,-0.769242,0.781359
26,-0.155747,0.8711700000000001,-0.465616,-0.13713,-0.737625,0.8211
27,-0.1651619999999999,0.8715780000000001,-0.4615899999999999,-0.180785,-0.779431,0.762447
28,-0.1746849999999999,0.8778219999999999,-0.445988,-0.213468,-0.732162,0.6721689999999999
29,-0.185771,0.8889450000000001,-0.418639,-0.303823,-0.368467,0.362029
30,-0.197261,0.903522,-0.380432,-0.234257,0.200772,-0.563095
31,-0.205744,0.916278,-0.343651,0.077677,1.745038,-2.556892
32,-0.2013339999999999,0.910679,-0.360721,0.208307,2.014415,-1.986005
33,-0.196667,0.902747,-0.3825719999999999,0.109127,-0.4206149999999999,-0.456326
34,-0.1899559999999999,0.89945,-0.393572,0.015823,-0.494405,-0.072157
35,-0.185766,0.900905,-0.392241,-0.25799,-0.2076219999999999,0.176664
36,-0.184671,0.906677,-0.379244,-0.554297,0.42302,0.495623
37,-0.187247,0.91384,-0.360315,-0.514169,0.720483,0.906168
38,-0.171253,0.919335,-0.354243,-0.837521,0.445625,0.07812
39,-0.178333,0.914407,-0.363386,-0.10693,-0.711068,1.650038
40,-0.1713849999999999,0.90877,-0.380468,-0.096743,-0.524828,1.15209
41,-0.161241,0.917161,-0.36443,-0.117751,-0.247941,0.999257
42,-0.167173,0.932687,-0.319592,-0.082812,0.429343,1.199414
43,-0.186924,0.943403,-0.273936,0.124301,0.617495,1.051341
44,-0.206113,0.947556,-0.2442219999999999,0.260968,0.420425,0.686315
45,-0.223061,0.951391,-0.21234,0.5356529999999999,0.137491,-0.556856
46,-0.2401309999999999,0.962299,-0.127701,0.333133,-0.1471589999999999,-0.226791
47,-0.243942,0.969087,-0.036755,-0.00673,-0.12758,-0.196063
48,-0.233002,0.972467,-0.002125,0.048417,-0.033014,-0.18034
49,-0.2176949999999999,0.975881,0.015877,-0.1181349999999999,0.00793,-0.042107
50,-0.203142,0.978263,0.041483,-0.215285,-0.225578,0.116094
51,-0.197989,0.977238,0.076102,0.042945,-0.4012949999999999,-0.033042
52,-0.20174,0.973919,0.103771,0.017246,-0.37318,0.003071
53,-0.214242,0.969039,0.122675,-0.048117,-0.321654,-0.020106
54,-0.232898,0.960916,0.149612,0.104251,0.015403,0.04126
55,-0.256558,0.949855,0.178707,0.225842,0.362431,-0.39819
56,-0.2706739999999999,0.937721,0.21771,0.2313059999999999,0.511101,-0.4352689999999999
57,-0.267777,0.923647,0.274142,0.13237,0.467664,-0.6200899999999999
58,-0.258561,0.90939,0.325789,0.38591,0.470188,-0.763045
59,-0.270654,0.9055,0.3267989999999999,0.609506,0.5436880000000001,-0.559053
60,-0.283121,0.911888,0.297127,0.609476,0.601387,-0.440743
61,-0.2792949999999999,0.920108,0.274549,0.53198,0.671689,-0.542463
62,-0.266146,0.928078,0.260425,0.450655,0.423485,-0.7819550000000001
63,-0.249849,0.94164,0.225552,0.411439,0.5248520000000001,-0.563809
64,-0.2364119999999999,0.958492,0.159329,0.039787,0.6263770000000001,-0.26849
65,-0.22008,0.971737,0.085301,-0.031858,0.4798159999999999,0.720454
66,-0.209086,0.977837,0.010236,-0.213903,0.576836,0.71625
67,-0.19644,0.978103,-0.068659,-0.605089,0.922837,0.323908
68,-0.195414,0.971619,-0.133262,-0.914785,0.944366,0.310462
69,-0.218307,0.95962,-0.177371,-0.8858950000000001,0.311285,0.369861
70,-0.2380969999999999,0.948309,-0.209784,-0.28679,-0.246511,0.538184
71,-0.231731,0.942329,-0.241465,0.00613,-0.276756,0.5146430000000001
72,-0.196039,0.941373,-0.274547,0.302789,-0.196515,0.635692
73,-0.16016,0.938213,-0.306749,0.603428,-0.1529039999999999,0.553484
74,-0.152271,0.923597,-0.3518139999999999,0.374348,-0.320554,0.647025
75,-0.149441,0.907649,-0.392213,0.0648919999999999,-0.633525,0.649416
76,-0.153125,0.890591,-0.4282439999999999,0.023913,-0.684735,0.7191069999999999
77,-0.1628339999999999,0.8760879999999999,-0.453814,-0.064598,-0.784764,0.751482
78,-0.175277,0.8673139999999999,-0.465871,-0.127366,-0.802251,0.761297
79,-0.186362,0.864482,-0.4668319999999999,-0.11474,-0.820781,0.735204
80,-0.1950039999999999,0.8684360000000001,-0.455834,-0.092792,-0.5621470000000001,0.548393
81,-0.203174,0.877668,-0.434064,-0.107968,-0.019163,-0.100299
82,-0.210646,0.89154,-0.40097,-0.1128859999999999,0.945664,-1.351013
83,-0.211833,0.8995690000000001,-0.3819599999999999,0.23289,1.714246,-1.805204
84,-0.209727,0.893642,-0.3967489999999999,0.276332,0.405384,-0.602304
85,-0.211751,0.8873559999999999,-0.409577,0.246373,-0.03648,-0.39563
86,-0.211851,0.8835709999999999,-0.417629,-0.075548,-0.124797,0.084026
87,-0.211782,0.884545,-0.415597,-0.572046,0.3589699999999999,0.470804
88,-0.207726,0.8910530000000001,-0.403567,-0.5052409999999999,0.63362,0.133441
89,-0.194649,0.897734,-0.395192,-1.157691,0.869081,-0.46815
90,-0.175511,0.894868,-0.410364,-0.778575,-0.7186600000000001,1.507761
91,-0.164491,0.898695,-0.406549,-0.430418,-0.956053,1.559305
92,-0.146755,0.914818,-0.376247,-0.351078,-0.218667,1.095699
93,-0.143904,0.934414,-0.325811,-0.301698,0.3755219999999999,1.076879
94,-0.156316,0.950234,-0.269466,-0.0254919999999999,0.525062,1.192256
95,-0.179082,0.957329,-0.226806,0.179861,0.574287,1.141891
96,-0.2038829999999999,0.957005,-0.206308,0.4331,0.4036369999999999,0.466211
97,-0.2246909999999999,0.958466,-0.1756319999999999,0.546331,-0.01831,-0.219357
98,-0.241621,0.965618,-0.095858,0.38336,-0.139919,-0.1539589999999999
99,-0.2445179999999999,0.968439,-0.048205,0.160106,-0.1250099999999999,-0.149046
100,-0.234711,0.971731,-0.025236,0.1784369999999999,-0.010549,0.089522
101,-0.219403,0.975605,0.006622,-0.037097,-0.074161,0.2135929999999999
102,-0.199446,0.979154,0.038278,-0.168566,-0.342405,0.180624
103,-0.188772,0.979961,0.063455,-0.075358,-0.384685,0.02822
104,-0.190884,0.977655,0.087969,-0.1935609999999999,-0.233316,-0.178759
105,-0.201906,0.972199,0.118521,-0.227613,-0.169648,-0.216879
106,-0.219963,0.963075,0.155201,0.062538,-0.026414,-0.0590549999999999
107,-0.243138,0.951766,0.18711,0.228154,0.242677,-0.328818
108,-0.25634,0.939251,0.228213,0.289802,0.601139,-0.501223
109,-0.255835,0.92408,0.283916,0.166159,0.442665,-0.621196
110,-0.254682,0.913365,0.317623,0.515836,0.453686,-0.642117
111,-0.272171,0.913929,0.301064,0.657287,0.549999,-0.424355
112,-0.277368,0.921661,0.271277,0.576105,0.677872,-0.367102
113,-0.2665949999999999,0.929223,0.255845,0.358163,0.506919,-0.638658
114,-0.246242,0.937599,0.2454719999999999,0.2540699999999999,0.340736,-0.7473029999999999
115,-0.227548,0.951204,0.208371,0.09356,0.342467,-0.707684
116,-0.217619,0.964973,0.146473,0.111051,0.529381,-0.221928
117,-0.2095179999999999,0.9755,0.066991,0.174896,0.6180359999999999,0.711512
118,-0.198507,0.979934,-0.017677,-0.282878,0.78914,0.441597
119,-0.184194,0.978368,-0.094111,-0.29719,0.790706,0.518031
120,-0.184731,0.971414,-0.149058,-0.969978,0.555335,0.394542
121,-0.207007,0.959915,-0.188947,-0.934274,0.28949,0.309415
122,-0.22533,0.948191,-0.223944,-0.478512,-0.250208,0.477332
123,-0.217604,0.940426,-0.261226,0.062758,-0.1966359999999999,0.521251
124,-0.191056,0.934771,-0.299488,0.234788,-0.188295,0.633228
125,-0.176148,0.921066,-0.347278,0.769898,-0.204834,0.758609
126,-0.175694,0.903145,-0.391731,0.403355,-0.357048,0.720878
127,-0.166182,0.889806,-0.424996,0.126417,-0.586233,0.69909
128,-0.160202,0.874426,-0.457938,-0.001892,-0.711463,0.7968970000000001
129,-0.163513,0.862475,-0.47895,-0.175171,-0.7618590000000001,0.799171
130,-0.175486,0.8532569999999999,-0.491072,-0.252203,-0.829239,0.763243
131,-0.188016,0.8480280000000001,-0.495471,-0.260928,-0.8491270000000001,0.7578
132,-0.1983589999999999,0.8511350000000001,-0.486022,-0.447393,-0.535583,0.323119
133,-0.202902,0.865823,-0.457355,-0.2135099999999999,0.189703,-0.688183
134,-0.204639,0.884797,-0.41863,-0.009762,0.768005,-1.254085
135,-0.206254,0.8847799999999999,-0.4178699999999999,0.1063549999999999,0.910996,-1.063331
136,-0.2095139999999999,0.8774860000000001,-0.431411,0.117702,0.167757,-0.479035
137,-0.209163,0.873143,-0.440302,0.1036329999999999,-0.0888559999999999,-0.335775
138,-0.202224,0.874131,-0.44158,-0.03331,0.104369,-0.067651
139,-0.197541,0.881281,-0.429318,-0.52774,0.950063,0.445126
140,-0.18853,0.8935930000000001,-0.407358,-0.536751,0.937751,0.423166
141,-0.165673,0.8993399999999999,-0.40464,-0.695076,-0.757387,1.123619
142,-0.148722,0.8962040000000001,-0.417963,-0.41596,-0.8638399999999999,1.176935
143,-0.119895,0.905731,-0.406534,-0.479883,-0.662918,0.831094
144,-0.102595,0.927478,-0.359515,-0.501211,-0.194339,0.919085
145,-0.104042,0.949265,-0.296756,-0.544502,0.1424099999999999,0.7960689999999999
146,-0.1273359999999999,0.963337,-0.2361369999999999,-0.105498,0.5327109999999999,1.157081
147,-0.156939,0.967768,-0.196945,0.36513,0.6164149999999999,1.075668
148,-0.189146,0.966174,-0.175279,0.456236,0.420483,0.5677800000000001
149,-0.212025,0.965823,-0.149073,0.83141,0.04936,-0.8093319999999999
150,-0.221604,0.972634,-0.06975,0.533829,-0.145898,-0.367399
151,-0.2193909999999999,0.975547,-0.012868,0.290115,-0.220542,-0.557933
152,-0.206696,0.978184,0.02054,0.159058,0.025951,-0.285479
153,-0.1910349999999999,0.980336,0.0493399999999999,-0.135197,-0.080571,0.299338
154,-0.173933,0.983182,0.055567,-0.012697,-0.360242,0.186254
155,-0.171032,0.983069,0.0656559999999999,-0.066776,-0.388892,0.0712309999999999
156,-0.180873,0.979742,0.085898,-0.269734,-0.283361,-0.160178
157,-0.197528,0.972474,0.123552,-0.057462,-0.091706,-0.040804
158,-0.218294,0.962089,0.163463,0.1355309999999999,0.005364,-0.2092699999999999
159,-0.2332389999999999,0.949512,0.209792,0.293206,0.495571,-0.408431
160,-0.237184,0.932949,0.270808,0.2180949999999999,0.517842,-0.725047
161,-0.238055,0.918326,0.316216,0.4005,0.54043,-0.8320549999999999
162,-0.254154,0.917899,0.304717,0.685291,0.552316,-0.312377
163,-0.257601,0.925606,0.277277,0.6461819999999999,0.667626,-0.308176
164,-0.246687,0.933196,0.2613,0.4408399999999999,0.688051,-0.582238
165,-0.2266139999999999,0.941825,0.248192,0.382894,0.453317,-0.791145
166,-0.21261,0.955717,0.203442,0.304804,0.5124529999999999,-0.647976
167,-0.19964,0.971334,0.128999,-0.084616,0.651834,0.267256
168,-0.1823509999999999,0.982051,0.048092,-0.133933,0.53304,0.803135
169,-0.162849,0.986072,-0.0336389999999999,-0.475289,0.667966,0.370751
170,-0.146828,0.983805,-0.1027569999999999,-0.7035140000000001,0.949987,0.203816
171,-0.150604,0.976415,-0.154668,-0.952789,0.784129,0.354116
172,-0.178329,0.963769,-0.198338,-0.840333,0.135825,0.349354
173,-0.198791,0.950157,-0.240157,-0.458451,-0.300651,0.545013
174,-0.1894549999999999,0.93977,-0.284482,0.017764,-0.328869,0.669751
175,-0.169573,0.931354,-0.322206,0.392871,-0.252231,0.766008
176,-0.157134,0.918144,-0.363748,0.7676069999999999,-0.297432,0.7806489999999999
177,-0.161409,0.901387,-0.4017969999999999,0.299562,-0.46166,0.666643
178,-0.162897,0.885035,-0.436086,0.148645,-0.690729,0.653524
179,-0.164138,0.868052,-0.4685479999999999,0.0484459999999999,-0.7972819999999999,0.737575
180,-0.170219,0.856965,-0.486446,-0.103539,-0.8286450000000001,0.801906
181,-0.176628,0.8540909999999999,-0.489208,-0.1572349999999999,-0.826472,0.809841
182,-0.181258,0.858716,-0.479318,-0.072999,-0.796048,0.79905
183,-0.186448,0.8705620000000001,-0.45536,-0.122451,-0.064501,0.225303
184,-0.195441,0.887025,-0.418309,-0.18142,0.924208,-1.389461
185,-0.201298,0.906183,-0.371893,-0.074184,2.241309,-3.141855
186,-0.196597,0.901582,-0.385348,0.132434,1.057281,-0.957258
187,-0.200672,0.8933530000000001,-0.40205,0.184635,-0.399945,-0.401417
188,-0.201088,0.888158,-0.4131979999999999,0.055764,-0.348775,-0.2315159999999999
189,-0.201351,0.8874049999999999,-0.414684,-0.444431,0.0091709999999999,0.375743
190,-0.20299,0.8901959999999999,-0.407848,-0.478681,0.347765,0.584957
191,-0.1965869999999999,0.896849,-0.3962429999999999,-0.687538,0.8790610000000001,0.5932029999999999
192,-0.174222,0.901424,-0.396326,-1.120838,0.478627,0.0566799999999999
193,-0.170327,0.904086,-0.391931,-0.370826,-0.646502,1.501474
194,-0.150457,0.910097,-0.386108,-0.203654,-0.4705819999999999,1.213516
195,-0.13355,0.926195,-0.352589,-0.292078,-0.099428,0.973271
196,-0.136714,0.945022,-0.297042,-0.154546,0.294403,1.14485
197,-0.155242,0.955289,-0.251623,0.138808,0.4355189999999999,1.077932
198,-0.182471,0.956607,-0.227151,0.217811,0.4437529999999999,0.936136
199,-0.2088429999999999,0.956186,-0.205142,0.511257,0.289908,-0.5191319999999999
200,-0.226188,0.966649,-0.120078,0.4194859999999999,-0.036473,-0.271798
201,-0.231444,0.971913,-0.042513,0.2376079999999999,-0.156147,-0.290433
202,-0.2219809999999999,0.974966,-0.012375,0.1129569999999999,-0.159109,0.179245
203,-0.205934,0.978549,0.004538,0.020021,0.003674,-0.211218
204,-0.19282,0.980667,0.033167,-0.105902,-0.204468,0.132666
205,-0.188375,0.980299,0.0592929999999999,-0.065211,-0.440916,0.004336
206,-0.192091,0.978116,0.0798519999999999,-0.147265,-0.317929,-0.0922419999999999
207,-0.2038299999999999,0.972687,0.1109859999999999,-0.072094,-0.032181,-0.080118
208,-0.2233639999999999,0.962618,0.153165,0.168234,0.050993,-0.09181
209,-0.2410769999999999,0.950632,0.195359,0.338321,0.1561799999999999,-0.365587
210,-0.242277,0.937866,0.248382,0.134687,0.525559,-0.613449
211,-0.233945,0.923847,0.302917,0.268903,0.432827,-0.7005
212,-0.240995,0.918761,0.312701,0.406477,0.395509,-0.650439
213,-0.2535489999999999,0.924409,0.284893,0.497522,0.461333,-0.275921
214,-0.249317,0.931412,0.265133,0.3366889999999999,0.6130680000000001,-0.403439
215,-0.2381,0.935812,0.259896,0.197146,0.662683,-0.622368
216,-0.222581,0.943482,0.245523,0.35013,0.409713,-0.8639459999999999
217,-0.214864,0.956278,0.198368,0.26415,0.3148559999999999,-0.736256
218,-0.206442,0.970586,0.1238099999999999,0.0069019999999999,0.632029,0.246704
219,-0.192589,0.980448,0.040202,-0.1194829999999999,0.529501,0.760137
220,-0.176891,0.98329,-0.042854,-0.376652,0.6106739999999999,0.427559
221,-0.16186,0.980222,-0.1138119999999999,-0.7094630000000001,0.962573,0.293225
222,-0.161818,0.972709,-0.16625,-0.873948,0.916146,0.331777
223,-0.1816559999999999,0.962626,-0.200852,-0.822098,0.192602,0.3013929999999999
224,-0.19699,0.950424,-0.240581,-0.426957,-0.123901,0.485774
225,-0.192084,0.937812,-0.289139,-0.017404,-0.206504,0.6286619999999999
226,-0.175097,0.925004,-0.337192,0.316698,-0.193635,0.7526579999999999
227,-0.159575,0.911576,-0.378887,0.791289,-0.197709,0.911114
228,-0.157941,0.897857,-0.410973,0.33682,-0.400161,0.725121
229,-0.15982,0.882376,-0.442564,0.138595,-0.589346,0.668775
230,-0.161105,0.8653040000000001,-0.4746439999999999,0.011141,-0.771233,0.7023510000000001
231,-0.1673859999999999,0.853218,-0.493957,-0.0833309999999999,-0.744362,0.78096
232,-0.177901,0.847938,-0.4993439999999999,-0.146089,-0.788643,0.775482
233,-0.186586,0.849248,-0.4939189999999999,-0.1426369999999999,-0.838002,0.754112
234,-0.1927829999999999,0.857771,-0.476504,-0.199399,-0.6170479999999999,0.574755
235,-0.199541,0.872193,-0.4466029999999999,-0.2146739999999999,-0.075761,-0.171088
236,-0.2062159999999999,0.8893770000000001,-0.408013,-0.216667,1.40202,-2.012764
237,-0.2077389999999999,0.8860319999999999,-0.414467,0.2010549999999999,1.727844,-1.234581
238,-0.205752,0.877167,-0.43386,0.245166,-0.243272,-0.466881
239,-0.202707,0.870339,-0.448789,0.180078,-0.325493,-0.419299
240,-0.198935,0.8679479999999999,-0.455064,-0.285363,-0.1302309999999999,0.041917
241,-0.189248,0.873051,-0.4493979999999999,-0.708548,0.409527,0.020565
242,-0.1793789999999999,0.8809319999999999,-0.4379189999999999,-0.5883520000000001,0.375233,0.360313
243,-0.161348,0.8878379999999999,-0.43093,-0.379164,0.440546,0.132102
244,-0.143068,0.890058,-0.432805,-0.649016,-0.496595,1.30689
245,-0.134643,0.8989659999999999,-0.4168,-0.55391,-0.382105,1.210501
246,-0.130699,0.91587,-0.379594,-0.3533409999999999,-0.095298,1.086534
247,-0.128274,0.933241,-0.335554,-0.338385,0.026933,0.929548
248,-0.144441,0.945854,-0.290665,0.1008,0.63073,1.154236
249,-0.170051,0.950731,-0.259195,0.324486,0.644133,0.868966
250,-0.195921,0.951502,-0.237166,0.428327,0.5975239999999999,0.548064
251,-0.218944,0.95889,-0.180502,0.645946,0.028094,-0.080423
252,-0.23271,0.967301,-0.100808,0.2588789999999999,-0.166062,-0.129828
253,-0.225135,0.972349,-0.061948,0.160743,-0.168119,-0.173862
254,-0.207546,0.977565,-0.035731,0.062847,-0.059307,-0.035894
255,-0.190531,0.981673,0.000799,-0.280721,-0.256652,0.144572
256,-0.1751059999999999,0.98387,0.03638,-0.180881,-0.440672,0.0993309999999999
257,-0.172322,0.982446,0.071338,-0.099437,-0.438272,0.046231
258,-0.181117,0.978754,0.0960309999999999,-0.184331,-0.260538,-0.197441
259,-0.194398,0.973338,0.1216849999999999,-0.117172,-0.021556,-0.14848
260,-0.209784,0.964869,0.158118,0.035666,0.07723,0.036874
261,-0.227044,0.955107,0.190279,0.3246239999999999,0.396547,-0.372179
262,-0.2337469999999999,0.942469,0.23895,0.179288,0.5277,-0.475736
263,-0.224907,0.926971,0.300208,0.0675429999999999,0.4909979999999999,-0.72341
264,-0.222102,0.917951,0.328662,0.376627,0.401522,-0.696063
265,-0.240668,0.91963,0.3103889999999999,0.4354159999999999,0.491304,-0.379374
266,-0.249516,0.923758,0.290508,0.4334149999999999,0.537546,-0.339184
267,-0.2446429999999999,0.929011,0.277617,0.394881,0.534154,-0.682952
268,-0.22978,0.938546,0.2575179999999999,0.3790719999999999,0.4087739999999999,-0.664287
269,-0.217531,0.953661,0.207834,0.170427,0.377378,-0.483118
270,-0.2074099999999999,0.968532,0.137523,-0.056338,0.546834,0.02985
271,-0.197889,0.978268,0.061795,-0.032519,0.5046729999999999,0.671253
272,-0.186655,0.982272,-0.017006,-0.341665,0.578901,0.447136
273,-0.17606,0.980312,-0.089334,-0.6901510000000001,0.833699,0.2295469999999999
274,-0.183411,0.972897,-0.140787,-0.798691,0.431629,0.361048
275,-0.209013,0.961652,-0.177564,-0.713824,0.230731,0.392941
276,-0.2250489999999999,0.95065,-0.21356,-0.271716,0.0268589999999999,0.479551
277,-0.215428,0.943024,-0.2535489999999999,0.050404,-0.184555,0.5021909999999999
278,-0.190319,0.936651,-0.294033,0.317089,-0.208517,0.631741
279,-0.168222,0.927614,-0.3335059999999999,0.571725,-0.174287,0.695475
280,-0.1565099999999999,0.914926,-0.372032,0.234605,-0.4265069999999999,0.704811
281,-0.14683,0.901759,-0.4065269999999999,0.070109,-0.597789,0.647051
282,-0.143192,0.888077,-0.436816,0.006046,-0.714539,0.702731
283,-0.144022,0.878484,-0.4555399999999999,-0.052724,-0.716421,0.752247
284,-0.149598,0.873288,-0.4636619999999999,-0.128051,-0.727368,0.763574
285,-0.1547079999999999,0.873102,-0.462333,-0.090455,-0.7796569999999999,0.705497
286,-0.160637,0.8779049999999999,-0.451078,-0.111046,-0.373724,0.4497359999999999
287,-0.169103,0.885817,-0.432118,-0.115443,-0.125792,0.0811809999999999
288,-0.179221,0.896424,-0.405335,-0.084023,0.710677,-1.282776
289,-0.186378,0.894496,-0.406367,0.270698,1.358175,-1.024008
290,-0.190451,0.8814860000000001,-0.432091,0.16297,0.504103,-0.568321
291,-0.188314,0.871108,-0.4535439999999999,-0.062449,-0.284118,-0.376534
292,-0.1864309999999999,0.865603,-0.4647229999999999,-0.458604,0.010022,0.202181
293,-0.184661,0.867434,-0.462009,-0.666536,0.599363,0.157627
294,-0.183162,0.871266,-0.455347,-0.491338,0.08517,1.092448
295,-0.16969,0.8695440000000001,-0.463781,-0.603747,-0.240088,0.745016
296,-0.155505,0.876858,-0.454897,-0.656171,-0.248654,1.180575
297,-0.159318,0.893193,-0.420496,-0.163421,-0.1466869999999999,1.493693
298,-0.1516009999999999,0.909546,-0.3869579999999999,-0.2968699999999999,0.044403,1.061153
299,-0.1433549999999999,0.927261,-0.3458739999999999,-0.117921,0.418488,0.990619
300,-0.153781,0.942652,-0.296229,0.236759,0.5615140000000001,1.05775
301,-0.177091,0.950107,-0.256763,0.35661,0.512676,0.917362
302,-0.200734,0.953299,-0.225651,0.4510229999999999,0.464746,0.29929
303,-0.224072,0.960604,-0.1643859999999999,0.532803,-0.029345,-0.19447
304,-0.234188,0.966666,-0.1034549999999999,0.248592,-0.123572,-0.2361909999999999
305,-0.228902,0.97098,-0.069218,0.180349,-0.114688,-0.19717
306,-0.213054,0.976288,-0.038208,-0.008046,-0.0383,0.026016
307,-0.196294,0.980528,-0.00476,-0.187801,-0.1922589999999999,-0.1229109999999999
308,-0.1823789999999999,0.982673,0.032889,-0.187113,-0.242896,-0.034873
309,-0.178885,0.981736,0.064688,0.007117,-0.4258119999999999,0.040826
310,-0.182652,0.979541,0.0844169999999999,-0.111324,-0.142398,-0.149099
311,-0.1920069999999999,0.975571,0.10669,-0.164209,-0.064667,-0.1736609999999999
312,-0.206992,0.968333,0.13955,0.09835,-0.051875,-0.019463
313,-0.2235619999999999,0.959254,0.172743,0.172125,0.279928,-0.2415449999999999
314,-0.232291,0.9491,0.212691,0.176368,0.506116,-0.314284
315,-0.2305289999999999,0.938405,0.25737,0.20729,0.4753529999999999,-0.624344
316,-0.226962,0.931227,0.285116,0.408755,0.523714,-0.486608
317,-0.234828,0.93122,0.2786949999999999,0.398814,0.553323,-0.312081
318,-0.240552,0.932971,0.267742,0.342252,0.6080899999999999,-0.407086
319,-0.2371309999999999,0.935286,0.2626699999999999,0.279047,0.6284649999999999,-0.661672
320,-0.226179,0.940868,0.252183,0.445326,0.436237,-0.8705309999999999
321,-0.219664,0.950716,0.218801,0.330031,0.41226,-0.7694449999999999
322,-0.21738,0.963263,0.157665,0.202381,0.4613279999999999,-0.2435719999999999
323,-0.214573,0.973619,0.077545,0.231388,0.570326,0.622406
324,-0.205573,0.978607,-0.007615,0.042563,0.5168149999999999,0.721955
325,-0.192909,0.977173,-0.0889399999999999,-0.445168,0.6681520000000001,0.340359
326,-0.191683,0.970563,-0.145796,-0.736966,0.813006,0.3597079999999999
327,-0.2121989999999999,0.960065,-0.182312,-0.788503,0.335146,0.4275819999999999
328,-0.233761,0.948025,-0.215862,-0.685154,-0.039334,0.368923
329,-0.2314179999999999,0.93952,-0.252469,-0.240232,-0.261679,0.554349
330,-0.205523,0.935237,-0.288244,0.24541,-0.290172,0.653768
331,-0.178029,0.928375,-0.3262199999999999,0.725713,-0.283767,0.6158020000000001
332,-0.168075,0.91176,-0.374752,0.51976,-0.322831,0.662319
333,-0.160596,0.895072,-0.415993,0.195081,-0.430609,0.661507
334,-0.1577849999999999,0.878083,-0.45174,-0.008185,-0.6906439999999999,0.758961
335,-0.161498,0.8645149999999999,-0.475948,-0.044923,-0.6928380000000001,0.81802
336,-0.170246,0.856849,-0.486642,-0.212139,-0.827674,0.787683
337,-0.177404,0.85564,-0.486212,-0.214914,-0.8246959999999999,0.770315
338,-0.1814589999999999,0.861352,-0.474489,-0.164428,-0.596811,0.5956279999999999
339,-0.183589,0.874217,-0.449482,-0.135182,-0.095759,0.004124
340,-0.188487,0.89225,-0.410312,-0.099599,0.310417,-0.618634
341,-0.193555,0.902487,-0.38477,-0.0181759999999999,2.028818,-2.548687
342,-0.194526,0.8938459999999999,-0.403971,0.106346,0.28047,-0.664617
343,-0.195997,0.887284,-0.4175,0.175718,-0.41565,-0.364116
344,-0.194305,0.883986,-0.425216,0.119979,-0.450026,-0.179001
345,-0.192723,0.886748,-0.4201539999999999,-0.742793,0.364259,0.859958
346,-0.188743,0.893333,-0.407832,-0.829598,0.725305,0.5657449999999999
347,-0.178311,0.901645,-0.394,-0.920353,1.7531709999999998,-0.382413
348,-0.165437,0.8990290000000001,-0.405428,-0.352705,-1.056927,1.789827
349,-0.146141,0.9005610000000001,-0.4094219999999999,-0.2938159999999999,-0.88605,1.099608
350,-0.1215079999999999,0.916263,-0.381695,-0.349317,-0.260807,0.963681
351,-0.116572,0.934741,-0.335653,-0.404562,0.158703,0.8526969999999999
352,-0.133868,0.948874,-0.285851,-0.037031,0.6802,1.280907
353,-0.1612559999999999,0.956285,-0.243941,0.358965,0.641035,1.094664
354,-0.189852,0.958266,-0.213716,0.656664,0.23697,-0.669829
355,-0.211954,0.961891,-0.17272,0.5312600000000001,0.024055,-0.725961
356,-0.226129,0.97068,-0.081465,0.373911,-0.110313,-0.416246
357,-0.224817,0.97388,-0.031699,0.203501,-0.1231109999999999,-0.310159
358,-0.209665,0.977696,-0.011861,0.060633,-0.025731,0.0211389999999999
359,-0.1893099999999999,0.981878,0.008182,-0.117697,-0.004843,0.145077
360,-0.172674,0.984441,0.032387,-0.2236119999999999,-0.410329,0.2347179999999999
361,-0.169472,0.983762,0.059002,-0.112403,-0.362561,0.016544
362,-0.1769089999999999,0.981081,0.07857,-0.155352,-0.312868,-0.085558
363,-0.191685,0.975918,0.104073,-0.066769,-0.040417,-0.060982
364,-0.212234,0.966958,0.141206,0.184783,0.1012639999999999,-0.069978
365,-0.227198,0.956385,0.183571,0.264094,0.400167,-0.316215
366,-0.2291389999999999,0.943305,0.2401239999999999,0.12895,0.6124350000000001,-0.514508
367,-0.2227719999999999,0.928472,0.297156,0.201746,0.493571,-0.7956300000000001
368,-0.2315239999999999,0.92371,0.305197,0.5252100000000001,0.442303,-0.580695
369,-0.247036,0.927781,0.279614,0.573697,0.558501,-0.25404
370,-0.249102,0.931891,0.26366,0.492266,0.56785,-0.446216
371,-0.238254,0.935686,0.260223,0.2467219999999999,0.4670689999999999,-0.872237
372,-0.225213,0.944789,0.237996,0.323968,0.3309829999999999,-0.8463940000000001
373,-0.218013,0.9587,0.18263,0.125347,0.398966,-0.631238
374,-0.209982,0.971627,0.108805,0.034857,0.625266,0.1295069999999999
375,-0.198481,0.979645,0.029881,0.011667,0.419357,0.805767
376,-0.185554,0.981275,-0.051582,-0.249551,0.543429,0.4801859999999999
377,-0.170723,0.977568,-0.1233119999999999,-0.6337510000000001,0.879411,0.272146
378,-0.175518,0.968391,-0.1772119999999999,-0.90247,0.938042,0.380734
379,-0.203984,0.954483,-0.21759,-0.861125,0.2972869999999999,0.356338
380,-0.220386,0.941383,-0.255388,-0.4166689999999999,-0.101615,0.506166
381,-0.202829,0.932429,-0.2990489999999999,0.164133,-0.279567,0.658989
382,-0.172147,0.923787,-0.342019,0.279096,-0.2652489999999999,0.708124
383,-0.151797,0.912357,-0.380208,0.689334,-0.214298,0.8765299999999999
384,-0.145044,0.9005129999999999,-0.409921,0.164453,-0.6871189999999999,0.641061
385,-0.140811,0.8839049999999999,-0.445959,0.132236,-0.730631,0.726125
386,-0.143324,0.867274,-0.476749,0.08296,-0.7981520000000001,0.785556
387,-0.149968,0.858302,-0.490737,-0.081523,-0.781138,0.821258
388,-0.158884,0.856133,-0.49172,-0.1185359999999999,-0.7762220000000001,0.79714
389,-0.166388,0.8600469999999999,-0.482318,-0.144723,-0.674637,0.7003659999999999
390,-0.172263,0.870058,-0.461866,-0.213327,-0.188692,0.315351
391,-0.180613,0.8844790000000001,-0.4302,-0.143453,0.782101,-1.054435
392,-0.1897039999999999,0.897769,-0.397516,0.01902,2.383039,-2.617804
393,-0.193881,0.8865940000000001,-0.419947,-0.091687,0.527285,-0.620168
394,-0.196506,0.874767,-0.442903,-0.05209,-0.5478930000000001,-0.364089
395,-0.194055,0.870606,-0.452088,-0.082953,-0.614792,-0.065811
396,-0.190118,0.8739100000000001,-0.4473609999999999,-0.42295,-0.008813,0.573079
397,-0.1869569999999999,0.883207,-0.430102,-0.604669,0.492068,0.879138
398,-0.184365,0.8925200000000001,-0.411597,-0.6165229999999999,1.117856,0.501929
399,-0.16614,0.906064,-0.389154,-0.877576,0.656299,-0.203498
400,-0.161279,0.907916,-0.386876,-0.2235469999999999,-0.7379180000000001,1.581761
401,-0.136379,0.9077,-0.396834,-0.2413679999999999,-0.530624,0.937606
402,-0.119001,0.92085,-0.3713079999999999,-0.2198969999999999,-0.1396,0.905838
403,-0.121045,0.9383,-0.323938,-0.066119,0.548944,1.28042
404,-0.142926,0.95245,-0.269081,0.1492119999999999,0.608341,1.293693
405,-0.168478,0.95638,-0.2386329999999999,0.3529719999999999,0.455225,0.940705
406,-0.190475,0.956437,-0.221227,0.648925,0.177703,-0.824779
407,-0.211142,0.965785,-0.150573,0.445425,0.0309649999999999,-0.3502969999999999
408,-0.221345,0.973615,-0.055435,0.136705,-0.145627,-0.35022
409,-0.214062,0.97667,-0.016848,0.189831,-0.06894,-0.205167
410,-0.1948869999999999,0.98082,-0.001673,-0.070295,-0.138428,0.028925
411,-0.172941,0.984747,0.01886,-0.187746,-0.292014,0.145431
412,-0.164209,0.98528,0.047428,-0.168799,-0.494756,0.145977
413,-0.167133,0.983365,0.0710669999999999,-0.127651,-0.3085449999999999,-0.001533
414,-0.180521,0.978913,0.095567,-0.249853,-0.18837,-0.210466
415,-0.200016,0.970758,0.132718,0.0023989999999999,0.057136,0.004596
416,-0.2218699999999999,0.960476,0.168079,0.227409,0.244114,-0.309436
417,-0.231711,0.94859,0.215586,0.3086,0.60535,-0.470423
418,-0.226841,0.933256,0.278509,0.280491,0.476931,-0.8150689999999999
419,-0.222401,0.922053,0.316774,0.4606369999999999,0.4937189999999999,-0.844881
420,-0.233763,0.924716,0.300407,0.4839,0.55882,-0.4991069999999999
421,-0.235381,0.931507,0.2772719999999999,0.348586,0.72514,-0.5062300000000001
422,-0.226627,0.936853,0.266337,0.367038,0.648489,-0.7792
423,-0.209528,0.946754,0.2444239999999999,0.220377,0.627266,-0.721338
424,-0.197681,0.961707,0.189816,0.066272,0.597405,-0.436337
425,-0.186914,0.975961,0.112042,-0.130225,0.5370090000000001,-0.003826
426,-0.177628,0.983623,0.0304009999999999,-0.06047,0.609776,0.767466
427,-0.169198,0.984165,-0.052749,-0.229606,0.7111930000000001,0.67781
428,-0.163289,0.977963,-0.1300619999999999,-0.844051,1.027087,0.161572
429,-0.176838,0.96729,-0.181853,-0.805797,0.475856,0.3794389999999999
430,-0.199096,0.956365,-0.213819,-0.744889,0.154917,0.438245
431,-0.208032,0.94466,-0.253639,-0.102545,-0.188007,0.54119
432,-0.199944,0.932863,-0.299636,0.157555,-0.298876,0.605574
433,-0.187495,0.917436,-0.350928,0.563944,-0.231645,0.820853
434,-0.179566,0.8991790000000001,-0.399034,0.6246649999999999,-0.38421,0.7579359999999999
435,-0.181797,0.8799239999999999,-0.438952,0.211628,-0.484675,0.7110770000000001
436,-0.184162,0.860209,-0.475521,0.085346,-0.657633,0.768291
437,-0.18798,0.842201,-0.505328,-0.003609,-0.715064,0.830417
438,-0.19509,0.831799,-0.51966,-0.113916,-0.7428710000000001,0.829657
439,-0.201881,0.8285870000000001,-0.522191,-0.136589,-0.7539560000000001,0.815114
440,-0.206503,0.831852,-0.515146,-0.126047,-0.6949810000000001,0.724801
441,-0.207026,0.842512,-0.497302,-0.133382,-0.389295,0.245639
442,-0.209703,0.8585959999999999,-0.467796,-0.091918,0.462052,-1.011193
443,-0.212329,0.8720829999999999,-0.440889,-0.030224,1.948855,-2.208281
444,-0.216678,0.864265,-0.4539729999999999,0.345493,0.7821279999999999,-0.853232
445,-0.223571,0.854633,-0.468631,0.247268,-0.173709,-0.316617
446,-0.226537,0.8485219999999999,-0.4782109999999999,0.059881,-0.260311,-0.327346
447,-0.226215,0.848709,-0.4780319999999999,-0.825009,0.7472989999999999,0.338429
448,-0.219717,0.8531719999999999,-0.473093,-0.271235,0.789787,0.512446
449,-0.204938,0.8550120000000001,-0.476393,-0.494281,-0.414216,0.926192
450,-0.170868,0.845302,-0.5062260000000001,-0.783249,-1.083888,1.435898
451,-0.150492,0.8606090000000001,-0.486518,-0.653296,-0.7784409999999999,1.036674
452,-0.141943,0.891173,-0.43088,-0.473337,0.1859289999999999,1.355227
453,-0.135125,0.916835,-0.375699,-0.651374,0.689671,1.011456
454,-0.136842,0.928437,-0.34536,-0.161818,0.724426,0.938362
455,-0.156935,0.933717,-0.321774,0.348616,0.6519149999999999,0.933865
456,-0.187686,0.944102,-0.270996,0.673358,0.3759659999999999,0.66684
457,-0.206296,0.95782,-0.200039,1.124631,0.1501819999999999,-0.0508
458,-0.217517,0.967173,-0.1313609999999999,0.643207,-0.115809,-0.3326739999999999
459,-0.214991,0.971823,-0.096598,0.253611,-0.155585,-0.488592
460,-0.201159,0.977484,-0.063652,0.14992,-0.067893,-0.156654
461,-0.184667,0.982469,-0.025405,-0.239894,-0.046479,0.17456
462,-0.166735,0.985992,0.003289,-0.297177,-0.2470389999999999,0.076957
463,-0.158512,0.986878,0.030611,-0.131801,-0.40825,-0.036913
464,-0.162965,0.985125,0.054432,-0.126769,-0.293093,-0.040944
465,-0.174917,0.981448,0.078449,-0.127802,-0.134097,-0.1366
466,-0.19589,0.973771,0.1157059999999999,0.105116,-0.024537,0.011674
467,-0.221795,0.963027,0.152895,0.287682,0.073533,-0.232515
468,-0.238868,0.951293,0.194867,0.375678,0.373155,-0.377286
469,-0.242738,0.939711,0.240857,0.075288,0.42708,-0.526043
470,-0.236384,0.933082,0.271053,0.161356,0.536034,-0.6108359999999999
471,-0.239756,0.931666,0.272956,0.393626,0.459813,-0.358573
472,-0.246906,0.934211,0.257444,0.545063,0.595849,-0.237165
473,-0.248711,0.938897,0.23792,0.7639090000000001,0.592842,-0.615896
474,-0.235526,0.945927,0.2230239999999999,0.64202,0.398845,-0.514681
475,-0.216658,0.958544,0.185049,0.026579,0.546461,-0.855642
476,-0.198044,0.971598,0.129487,-0.228714,0.6179100000000001,-0.147432
477,-0.185184,0.980939,0.058794,0.053974,0.281192,0.858564
478,-0.176093,0.984008,-0.0266779999999999,-0.214272,0.4187479999999999,0.502249
479,-0.159895,0.981123,-0.108741,-0.521029,0.864,0.287681
480,-0.1529579999999999,0.974141,-0.166271,-0.788525,0.601695,0.369763
481,-0.172549,0.963196,-0.2060929999999999,-0.779187,0.339615,0.305656
482,-0.1945,0.951863,-0.2368989999999999,-0.720997,0.100887,0.340841
483,-0.190447,0.943799,-0.270124,-0.015959,-0.241544,0.568723
484,-0.159921,0.938449,-0.306158,0.460305,-0.2491489999999999,0.6810510000000001
485,-0.138312,0.926552,-0.349809,0.6547609999999999,-0.208366,0.684587
486,-0.134068,0.909364,-0.3937989999999999,0.314686,-0.436434,0.625748
487,-0.13039,0.8945049999999999,-0.427616,0.126621,-0.558399,0.600147
488,-0.130175,0.87875,-0.459182,0.042055,-0.64703,0.651428
489,-0.136269,0.865999,-0.481117,-0.089835,-0.8118449999999999,0.7562939999999999
490,-0.148083,0.8595200000000001,-0.489176,-0.129886,-0.8288190000000001,0.7962279999999999
491,-0.158539,0.858317,-0.488009,-0.240188,-0.854548,0.765551
492,-0.1640039999999999,0.863593,-0.476767,-0.133481,-0.721823,0.674093
493,-0.166181,0.875807,-0.4531479999999999,-0.104327,-0.193281,0.225136
494,-0.173617,0.891407,-0.418625,0.060382,0.071652,-0.2179719999999999
495,-0.179889,0.910861,-0.37144,0.1419099999999999,1.524976,-2.075887
496,-0.172206,0.912343,-0.3714429999999999,-0.037572,1.616999,-1.555971
497,-0.173216,0.904301,-0.3901679999999999,0.079711,-0.031346,-0.447555
498,-0.174483,0.899294,-0.401026,0.126707,-0.451891,-0.4192869999999999
499,-0.174444,0.896711,-0.406786,0.099096,-0.6211369999999999,0.155107
500,-0.175037,0.902273,-0.394032,-0.597851,-0.074407,1.182133
501,-0.167417,0.910004,-0.379287,-0.590533,0.0899799999999999,1.347946
502,-0.149991,0.918026,-0.367051,-1.596331,1.894016,-2.03839
503,-0.163667,0.938915,-0.302733,-0.748214,0.916951,1.4031049999999998
504,-0.16059,0.927952,-0.336321,-0.155832,-0.508213,1.511232
505,-0.13713,0.926058,-0.351578,-0.159409,-0.488878,0.921646
506,-0.129866,0.9369,-0.324574,0.043348,-0.541926,1.108555
507,-0.144057,0.954518,-0.26103,0.1416,0.360194,1.46678
508,-0.1639779999999999,0.962861,-0.2144849999999999,0.377265,0.5878439999999999,1.195686
509,-0.185948,0.963457,-0.192789,0.360555,0.478834,0.752542
510,-0.201433,0.966229,-0.160686,0.630953,0.291889,-0.8958780000000001
511,-0.209941,0.975769,-0.0615929999999999,0.215357,-0.156295,-0.23429
512,-0.201613,0.979441,0.0063799999999999,0.062148,-0.1198829999999999,-0.272402
513,-0.181058,0.983035,0.02918,-0.195116,-0.01459,-0.14472
514,-0.160839,0.98545,0.0548679999999999,-0.30875,-0.146675,0.010806
515,-0.14967,0.98519,0.08362,-0.162098,-0.5780390000000001,-0.003206
516,-0.154076,0.98242,0.105369,-0.2079389999999999,-0.536391,-0.108192
517,-0.170391,0.977858,0.121463,-0.2329139999999999,-0.274351,-0.070453
518,-0.194403,0.970072,0.145467,-0.017816,-0.0371639999999999,0.075801
519,-0.225107,0.958923,0.172584,0.46348,0.4768529999999999,-0.333076
520,-0.2440969999999999,0.943921,0.222311,0.579454,0.701236,-0.394689
521,-0.240888,0.926149,0.290195,0.439755,0.5510390000000001,-0.7577550000000001
522,-0.226788,0.914126,0.336052,0.380628,0.597669,-1.011971
523,-0.237151,0.917248,0.320009,0.56224,0.790424,-0.307481
524,-0.247794,0.921727,0.29834,0.588172,0.93098,-0.267777
525,-0.235194,0.929885,0.282819,0.583979,0.492417,-0.7457560000000001
526,-0.2102619999999999,0.944955,0.250679,0.360256,0.543296,-0.703255
527,-0.186865,0.9625,0.1966369999999999,-0.2161809999999999,0.368051,-0.647977
528,-0.172614,0.976614,0.128143,-0.077844,0.817789,0.6594399999999999
529,-0.165812,0.985047,0.0467,0.018,0.7650140000000001,0.947593
530,-0.149508,0.987934,-0.040309,-0.49867,0.7909510000000001,0.452327
531,-0.133177,0.985242,-0.107492,-0.775301,0.979739,0.356729
532,-0.139403,0.97743,-0.158715,-0.772645,0.737826,0.354149
533,-0.156319,0.965994,-0.205946,-0.730126,0.178766,0.364668
534,-0.159078,0.954001,-0.254105,0.033483,-0.224967,0.556962
535,-0.144738,0.942755,-0.300429,0.240503,-0.263266,0.653121
536,-0.136491,0.928823,-0.34446,0.462892,-0.257558,0.753579
537,-0.138895,0.914748,-0.379394,0.558481,-0.374754,0.701705
538,-0.1335589999999999,0.901746,-0.411109,0.240431,-0.585737,0.63079
539,-0.129881,0.887186,-0.44275,0.050352,-0.710093,0.80771
540,-0.137259,0.874492,-0.465209,-0.119653,-0.7709,0.8353719999999999
541,-0.153171,0.8645940000000001,-0.478551,-0.165204,-0.849427,0.775304
542,-0.170433,0.857618,-0.485221,-0.196312,-0.863783,0.772147
543,-0.180695,0.856801,-0.482946,-0.128799,-0.8788040000000001,0.797888
544,-0.18028,0.8638459999999999,-0.470387,-0.200717,-0.0569309999999999,0.066686
545,-0.16673,0.8782629999999999,-0.448163,-0.208636,0.478335,-0.7890199999999999
546,-0.155099,0.8897700000000001,-0.429242,0.0964899999999999,2.168763,-2.552509
547,-0.15566,0.8774270000000001,-0.453747,0.292547,0.198623,-0.437717
548,-0.172132,0.8631620000000001,-0.474675,0.261061,-0.206958,-0.190852
549,-0.183973,0.855858,-0.48338,-0.4274159999999999,0.045158,0.160641
550,-0.186306,0.8561989999999999,-0.48188,-0.836476,0.373766,0.306175
551,-0.177119,0.8658680000000001,-0.467865,-0.66898,1.51342,-0.44809
552,-0.15811,0.870151,-0.466726,-0.593691,0.306988,0.910772
553,-0.124277,0.8634229999999999,-0.488929,-0.84577,-1.212224,1.2995219999999998
554,-0.101378,0.880229,-0.463588,-0.681718,-0.791561,1.062603
555,-0.091907,0.910943,-0.402158,-0.561718,0.08692,1.337445
556,-0.090185,0.934862,-0.343357,-0.604151,0.424131,0.958286
557,-0.112314,0.950568,-0.289482,-0.068259,0.595986,1.1432719999999998
558,-0.145018,0.95931,-0.242255,0.4758439999999999,0.593378,1.069693
559,-0.177342,0.963318,-0.201399,0.818013,0.434234,0.146788
560,-0.1966099999999999,0.970007,-0.142916,0.8380280000000001,0.126871,-0.420301
561,-0.20239,0.973703,-0.104571,0.501981,-0.256417,-0.5454680000000001
562,-0.196787,0.977142,-0.080384,0.221079,-0.12825,-0.145888
563,-0.186025,0.981602,-0.042963,0.192525,-0.134739,-0.042654
564,-0.1683339999999999,0.98571,-0.005586,-0.176346,0.027824,-0.099577
565,-0.157193,0.987042,0.032089,-0.176822,-0.232221,0.101746
566,-0.154188,0.98649,0.0552779999999999,-0.024935,-0.545587,0.119939
567,-0.157353,0.984973,0.071132,-0.127102,-0.379794,-0.223826
568,-0.165462,0.981014,0.101123,-0.22115,-0.09457,-0.1759369999999999
569,-0.183937,0.973375,0.136749,-0.128334,0.074492,0.012863
570,-0.2035809999999999,0.964152,0.170169,0.104078,0.25321,-0.28609
571,-0.213626,0.952424,0.217356,0.146594,0.527343,-0.453943
572,-0.211205,0.939829,0.268524,0.2180409999999999,0.4853729999999999,-0.669128
573,-0.2136719999999999,0.934134,0.285881,0.578235,0.498559,-0.545723
574,-0.222378,0.937892,0.266265,0.583905,0.550938,-0.402236
575,-0.2202489999999999,0.942628,0.250866,0.49776,0.669479,-0.435086
576,-0.2102119999999999,0.948302,0.2377469999999999,0.37667,0.438676,-0.819351
577,-0.19584,0.958764,0.205936,0.34208,0.368721,-0.753558
578,-0.186371,0.97124,0.148149,0.0318,0.348568,-0.619889
579,-0.178203,0.981229,0.073651,0.026347,0.481585,0.723774
580,-0.170199,0.985373,-0.007996,-0.0524419999999999,0.535837,0.664917
581,-0.153332,0.984283,-0.087571,-0.252842,0.604371,0.470796
582,-0.14386,0.978214,-0.149645,-0.763229,0.996929,0.2943739999999999
583,-0.163,0.967371,-0.193951,-0.8700049999999999,0.908316,0.456204
584,-0.19236,0.953598,-0.231606,-0.8891370000000001,0.270264,0.378701
585,-0.194745,0.942725,-0.270809,-0.175555,-0.221548,0.526958
586,-0.168296,0.934896,-0.3124719999999999,0.168052,-0.301168,0.665133
587,-0.144117,0.925311,-0.350746,0.259321,-0.308139,0.769203
588,-0.132945,0.91255,-0.386746,0.654475,-0.4627819999999999,0.708737
589,-0.1261,0.898224,-0.421054,0.436967,-0.448395,0.732013
590,-0.120842,0.880583,-0.458221,0.206031,-0.550276,0.664062
591,-0.1245059999999999,0.8659190000000001,-0.484435,-0.055135,-0.697721,0.814391
592,-0.1368579999999999,0.856133,-0.498299,-0.107771,-0.7236100000000001,0.8271569999999999
593,-0.148082,0.8517549999999999,-0.502574,-0.2215469999999999,-0.756189,0.806208
594,-0.154612,0.8536090000000001,-0.497436,-0.254202,-0.724916,0.6849970000000001
595,-0.155053,0.862648,-0.481447,-0.281821,-0.572213,0.569368
596,-0.152573,0.879388,-0.450991,-0.1285859999999999,0.5633,-1.075879
597,-0.152744,0.8876709999999999,-0.4344,0.223361,1.756082,-1.837847
598,-0.158631,0.8787780000000001,-0.450089,0.078812,0.129904,-0.44603
599,-0.1619529999999999,0.8713420000000001,-0.463172,-0.033024,-0.1836279999999999,-0.369179
600,-0.163262,0.8691840000000001,-0.466754,-0.003975,-0.472593,-0.101834
601,-0.160368,0.873238,-0.4601439999999999,-0.08565,-0.506111,0.004654
602,-0.155753,0.884697,-0.439371,-0.742822,0.046929,1.378397
603,-0.141723,0.896019,-0.420783,-0.770951,0.373512,0.92031
604,-0.133329,0.923919,-0.358595,-0.834857,2.094223,-0.940584
605,-0.122373,0.933998,-0.335659,-0.232471,-0.0298839999999999,1.152111
606,-0.102237,0.935016,-0.339538,-0.387051,-0.350162,0.92015
607,-0.090178,0.94396,-0.317492,-0.301072,-0.341909,0.8642290000000001
608,-0.096853,0.955494,-0.278646,-0.135843,-0.247883,0.926503
609,-0.114772,0.965353,-0.234337,0.083339,0.1716099999999999,1.123513
610,-0.136939,0.968632,-0.207346,0.242011,0.349987,1.009135
611,-0.158828,0.967672,-0.195899,0.246367,0.365274,0.582511
612,-0.1739099999999999,0.973891,-0.145889,0.2972309999999999,0.038896,-0.766694
613,-0.182566,0.981642,-0.05513,0.165201,-0.143324,-0.167236
614,-0.179728,0.983711,-0.000883,0.091365,-0.188637,-0.262133
615,-0.165971,0.985733,0.027837,-0.046035,-0.16539,0.0181379999999999
616,-0.154989,0.986599,0.0509,-0.045405,-0.408917,0.18761
617,-0.153149,0.985548,0.07232,-0.024937,-0.45529,0.214957
618,-0.160948,0.982716,0.091404,-0.05121,-0.226246,-0.2466469999999999
619,-0.174548,0.97714,0.121324,-0.0577059999999999,0.012987,-0.079469
620,-0.195028,0.968057,0.1575369999999999,0.077337,0.167899,-0.077581
621,-0.212825,0.957456,0.194865,0.268016,0.346026,-0.468104
622,-0.216732,0.944906,0.2452909999999999,0.255612,0.5293979999999999,-0.486975
623,-0.2118989999999999,0.932035,0.293934,0.319641,0.527804,-0.7757310000000001
624,-0.219543,0.9266,0.30529,0.4766229999999999,0.507528,-0.60395
625,-0.2303349999999999,0.930742,0.283996,0.487415,0.503386,-0.5826560000000001
626,-0.227832,0.93668,0.265917,0.455631,0.786983,-0.406069
627,-0.216571,0.942228,0.2555219999999999,0.474643,0.511858,-0.8790110000000001
628,-0.198366,0.952726,0.2301139999999999,0.467531,0.403994,-0.798153
629,-0.185072,0.967519,0.172177,0.184569,0.307033,-0.65556
630,-0.174866,0.979637,0.098606,-0.098755,0.552269,0.356991
631,-0.165802,0.985965,0.019309,0.0521549999999999,0.554959,0.8330629999999999
632,-0.154573,0.985963,-0.063053,-0.110015,0.6170180000000001,0.726429
633,-0.1456589999999999,0.97997,-0.135777,-0.772203,1.114619,0.2237739999999999
634,-0.158352,0.970339,-0.182644,-0.8524510000000001,0.654157,0.36105
635,-0.179841,0.959947,-0.214829,-0.826888,0.290709,0.4331359999999999
636,-0.1829869999999999,0.949421,-0.255166,-0.389797,-0.156147,0.495752
637,-0.164154,0.939425,-0.30088,0.1542059999999999,-0.2928949999999999,0.570029
638,-0.147304,0.924403,-0.351815,0.313015,-0.311473,0.720178
639,-0.145142,0.905862,-0.397924,0.754929,-0.349191,0.8948719999999999
640,-0.1517089999999999,0.890609,-0.428714,0.40618,-0.427047,0.669375
641,-0.151392,0.8741969999999999,-0.461363,0.173166,-0.537283,0.691771
642,-0.150354,0.858979,-0.489434,0.034479,-0.649109,0.7906270000000001
643,-0.156583,0.8490709999999999,-0.504536,-0.116809,-0.741512,0.810582
644,-0.166712,0.8437979999999999,-0.510105,-0.18305,-0.791445,0.8089029999999999
645,-0.176866,0.8446459999999999,-0.505261,-0.135985,-0.765346,0.7893640000000001
646,-0.185116,0.8533440000000001,-0.487372,-0.162922,-0.479184,0.581885
647,-0.191315,0.869924,-0.4545619999999999,-0.0865929999999999,0.092188,-0.509702
648,-0.188661,0.8838950000000001,-0.427939,-0.167876,1.853821,-2.548746
649,-0.191989,0.8744430000000001,-0.4455159999999999,0.0405149999999999,1.1184,-0.990122
650,-0.1995849999999999,0.8663290000000001,-0.4578609999999999,0.011276,-0.096874,-0.464655
651,-0.203731,0.8622129999999999,-0.463766,-0.081944,-0.398819,-0.27035
652,-0.20372,0.8650040000000001,-0.4585439999999999,-0.49913,0.156954,0.339739
653,-0.195745,0.8709809999999999,-0.450635,-0.707377,0.8970549999999999,0.3090489999999999
654,-0.1770779999999999,0.8767389999999999,-0.447177,-0.772522,1.183869,0.162753
655,-0.164742,0.8753559999999999,-0.454541,-0.493614,-0.988607,1.710675
656,-0.150507,0.8832200000000001,-0.444146,-0.241705,-0.977306,1.518746
657,-0.131806,0.90454,-0.405498,-0.30487,-0.2117,1.189236
658,-0.12424,0.926508,-0.355165,-0.359494,0.201452,0.947496
659,-0.1416859999999999,0.944945,-0.294955,-0.017905,0.594057,1.199389
660,-0.166452,0.954732,-0.246526,0.501764,0.504497,1.010534
661,-0.188851,0.957333,-0.21873,0.507058,0.403278,0.6799270000000001
662,-0.200908,0.965006,-0.1685019999999999,0.574138,0.025976,-0.403184
663,-0.203377,0.974102,-0.098769,0.214439,-0.202862,-0.328737
664,-0.195162,0.979045,-0.058095,0.164354,-0.17689,-0.207607
665,-0.180838,0.983128,-0.027374,0.124152,-0.014118,-0.061127
666,-0.162989,0.986624,0.0004379999999999,-0.243414,-0.132986,0.115865
667,-0.148946,0.988457,0.027545,-0.164759,-0.304482,0.1178869999999999
668,-0.144503,0.988363,0.047419,-0.086743,-0.599248,0.1050619999999999
669,-0.148955,0.986249,0.071525,-0.350389,-0.236584,-0.212821
670,-0.164897,0.980489,0.1069619999999999,-0.327077,-0.121983,-0.176573
671,-0.191451,0.971561,0.1393059999999999,0.002333,0.091824,0.030174
672,-0.215096,0.96146,0.171222,0.286751,0.487835,-0.471607
673,-0.222967,0.948164,0.226406,0.32903,0.6336229999999999,-0.4508939999999999
674,-0.220388,0.933274,0.28358,0.286535,0.4408109999999999,-0.617168
675,-0.2265449999999999,0.92779,0.29643,0.676954,0.475759,-0.6810579999999999
676,-0.233134,0.934602,0.268621,0.5405220000000001,0.5781390000000001,-0.400488
677,-0.22379,0.943102,0.245896,0.4693199999999999,0.4874699999999999,-0.254212
678,-0.2107659999999999,0.948502,0.236455,0.1705279999999999,0.359222,-0.84496
679,-0.194094,0.957327,0.214109,0.238344,0.330911,-0.880491
680,-0.18579,0.969873,0.15754,0.187164,0.382956,-0.707817
681,-0.181123,0.980411,0.077334,0.086534,0.648618,0.468412
682,-0.173595,0.984757,-0.010481,0.093746,0.515456,0.818312
683,-0.15982,0.982674,-0.093819,-0.281647,0.594704,0.49511
684,-0.149583,0.9755,-0.161301,-0.6916640000000001,1.098567,0.312012
685,-0.163383,0.964936,-0.205421,-0.8729629999999999,0.879333,0.391395
686,-0.194216,0.951853,-0.237171,-0.8629129999999999,0.088293,0.408863
687,-0.206868,0.937705,-0.279121,-0.523342,-0.265265,0.5059279999999999
688,-0.1895099999999999,0.925534,-0.32782,0.015667,-0.254361,0.613587
689,-0.170798,0.910437,-0.376732,0.26055,-0.335715,0.805611
690,-0.161777,0.893134,-0.419685,0.807559,-0.280417,0.86425
691,-0.166051,0.875936,-0.4529439999999999,0.458013,-0.486089,0.764498
692,-0.163186,0.859793,-0.483861,0.2675869999999999,-0.55393,0.736822
693,-0.164212,0.846633,-0.506204,0.078442,-0.6962119999999999,0.840814
694,-0.171196,0.8392430000000001,-0.5161,-0.080909,-0.775339,0.854891
695,-0.180342,0.837851,-0.515245,-0.1117269999999999,-0.7582770000000001,0.81862
696,-0.189641,0.843902,-0.501858,-0.0676679999999999,-0.705489,0.78851
697,-0.197494,0.85759,-0.474901,-0.130387,-0.377488,0.590761
698,-0.205251,0.87615,-0.436152,-0.307902,0.241602,-0.439092
699,-0.205038,0.887928,-0.41175,-0.141337,2.1626540000000003,-3.056787
700,-0.207227,0.872384,-0.442718,-0.0723299999999999,1.169807,-0.93306
701,-0.209757,0.8592540000000001,-0.466563,0.009196,-0.221604,-0.253561
702,-0.2061079999999999,0.8543370000000001,-0.477099,0.055702,-0.523649,-0.195951
703,-0.1996119999999999,0.857991,-0.473288,-0.3133579999999999,-0.3604469999999999,0.336997
704,-0.195594,0.868265,-0.45591,-0.8524709999999999,0.360876,0.755745
705,-0.191925,0.879567,-0.435342,-0.672593,1.267009,-0.910468
706,-0.170288,0.886526,-0.430195,-0.694229,1.260049,-0.915615
707,-0.169147,0.885033,-0.433706,-0.4378319999999999,-0.716225,1.66805
708,-0.15116,0.8918969999999999,-0.426222,-0.249871,-0.406134,1.053282
709,-0.137733,0.910516,-0.389853,-0.237084,-0.2894219999999999,1.013205
710,-0.140742,0.931804,-0.334555,-0.243413,0.1154369999999999,0.920432
711,-0.157324,0.947896,-0.277011,0.362493,0.658747,1.223361
712,-0.173825,0.954797,-0.241121,0.444196,0.559348,1.012407
713,-0.189418,0.958381,-0.213587,0.565455,0.46528,0.125681
714,-0.201681,0.96919,-0.141375,0.440878,-0.1045359999999999,-0.304044
715,-0.201322,0.975339,-0.090419,0.255506,-0.17265,-0.344136
716,-0.188081,0.980148,-0.062658,0.126725,-0.162796,-0.077707
717,-0.171337,0.984823,-0.027535,-0.158543,-0.023596,0.172967
718,-0.1542859999999999,0.98796,0.011032,-0.194759,-0.353835,0.03859
719,-0.143887,0.98846,0.047267,-0.045016,-0.548717,0.117925
720,-0.14447,0.986882,0.07199,-0.03183,-0.402592,-0.144957
721,-0.152318,0.983268,0.099864,-0.205806,-0.135581,-0.312419
722,-0.167672,0.97595,0.139271,-0.0621409999999999,0.015505,-0.00446
723,-0.189611,0.967177,0.169128,0.084447,0.165879,-0.228485
724,-0.2055519999999999,0.957558,0.202038,0.155869,0.43882,-0.343746
725,-0.20711,0.947202,0.244747,0.149889,0.4426449999999999,-0.39909
726,-0.202989,0.938377,0.279699,0.497056,0.429513,-0.4914
727,-0.210977,0.93607,0.28151,0.6198670000000001,0.477687,-0.5590970000000001
728,-0.2117909999999999,0.940282,0.266461,0.438338,0.58639,-0.438443
729,-0.204242,0.945509,0.2535449999999999,0.333194,0.7752399999999999,-0.688405
730,-0.190894,0.952615,0.2367929999999999,0.440405,0.40293,-0.825325
731,-0.178033,0.964665,0.194194,0.309961,0.404613,-0.712505
732,-0.169158,0.977508,0.125901,-0.102769,0.438432,-0.180314
733,-0.160647,0.985902,0.046661,-0.010984,0.512541,0.733399
734,-0.151173,0.987963,-0.032612,-0.109844,0.548108,0.66132
735,-0.141943,0.984094,-0.106775,-0.525706,0.7981020000000001,0.381402
736,-0.145895,0.975092,-0.167033,-0.8806709999999999,1.174978,0.2762699999999999
737,-0.171841,0.962532,-0.209747,-0.872028,0.5257189999999999,0.434021
738,-0.193243,0.948671,-0.250342,-0.690501,-0.000383,0.3786219999999999
739,-0.188884,0.936287,-0.296109,-0.11942,-0.159371,0.553235
740,-0.167498,0.922733,-0.347132,0.099703,-0.2317239999999999,0.644098
741,-0.154693,0.901714,-0.403701,0.185332,-0.2206679999999999,0.705489
742,-0.165374,0.877525,-0.450105,0.709457,-0.2645949999999999,0.957139
743,-0.176674,0.8628370000000001,-0.473595,0.437263,-0.496962,0.754738
744,-0.17998,0.8486049999999999,-0.497464,0.151644,-0.640429,0.762571
745,-0.179829,0.8380709999999999,-0.515065,0.020009,-0.671033,0.8421219999999999
746,-0.183725,0.8343940000000001,-0.51964,-0.089865,-0.720137,0.896868
747,-0.186941,0.836909,-0.514422,-0.178247,-0.765284,0.798678
748,-0.187639,0.845292,-0.500267,-0.112502,-0.755021,0.733147
749,-0.192055,0.858857,-0.47484,-0.189857,-0.05658,0.116381
750,-0.202286,0.8771700000000001,-0.435484,-0.108994,1.003445,-1.378831
751,-0.2005569999999999,0.8855430000000001,-0.419026,-0.160527,2.191452,-3.100246
752,-0.198947,0.8724200000000001,-0.446427,-0.04263,0.148317,-0.571685
753,-0.196993,0.8644639999999999,-0.4624819999999999,0.145296,-0.430931,-0.360058
754,-0.196614,0.864087,-0.463348,0.143345,-0.318265,-0.316651
755,-0.20192,0.867115,-0.455339,-0.240005,0.137844,0.5513319999999999
756,-0.207909,0.8741549999999999,-0.4388859999999999,-0.242378,0.529257,0.749463
757,-0.200246,0.885073,-0.420167,-0.2954199999999999,0.537779,1.306825
758,-0.161394,0.898965,-0.407195,-1.298583,0.654609,-0.585679
759,-0.1529599999999999,0.905156,-0.396597,-0.357828,-0.6833239999999999,1.49494
760,-0.13299,0.907009,-0.399552,-0.313268,-0.741375,1.134598
761,-0.114357,0.919993,-0.374872,-0.346977,-0.282648,0.8750549999999999
762,-0.113717,0.938312,-0.326547,-0.285728,0.049817,0.94909
763,-0.13405,0.954882,-0.264997,0.0889,0.629362,1.276273
764,-0.160295,0.960388,-0.227932,0.345644,0.4698489999999999,0.957607
765,-0.183974,0.960541,-0.208581,0.480467,0.310073,0.139825
766,-0.1980849999999999,0.968118,-0.153301,0.600811,0.030997,-0.446247
767,-0.202177,0.975958,-0.081369,0.274396,-0.189764,-0.328208
768,-0.1920319999999999,0.980299,-0.046118,0.124848,-0.124601,-0.258233
769,-0.173231,0.984745,-0.0160389999999999,-0.002794,-0.00629,0.288393
770,-0.15765,0.987419,0.011802,-0.219715,-0.247596,0.038171
771,-0.145989,0.988522,0.038721,-0.098151,-0.4199029999999999,0.203848
772,-0.144326,0.987861,0.05735,-0.23194,-0.323783,-0.198524
773,-0.150088,0.984983,0.085267,-0.290342,-0.2080969999999999,-0.190553
774,-0.166466,0.978252,0.123691,-0.2163769999999999,-0.035137,0.0012029999999999
775,-0.18985,0.96981,0.153007,0.134613,0.287377,-0.363228
776,-0.207034,0.959889,0.18904,0.186816,0.479778,-0.3678889999999999
777,-0.2097929999999999,0.948124,0.2388159999999999,0.301117,0.503796,-0.349625
778,-0.206168,0.936407,0.283939,0.597968,0.456476,-0.558063
779,-0.21181,0.932723,0.291805,0.6817810000000001,0.52112,-0.730434
780,-0.21288,0.939271,0.269144,0.5811350000000001,0.518005,-0.595804
781,-0.2058739999999999,0.946194,0.249638,0.338976,0.664127,-0.495609
782,-0.190122,0.952429,0.2381579999999999,0.217298,0.339411,-0.7204729999999999
783,-0.175587,0.962989,0.204473,0.195424,0.332437,-0.759466
784,-0.166268,0.975706,0.14262,-0.032234,0.5070359999999999,-0.391995
785,-0.16002,0.985221,0.061005,-0.044906,0.491494,0.535247
786,-0.148965,0.98851,-0.025449,-0.178718,0.49054,0.673246
787,-0.135783,0.98512,-0.105321,-0.524968,0.779407,0.402456
788,-0.13741,0.976431,-0.16641,-0.715266,0.995539,0.400846
789,-0.164932,0.964102,-0.208079,-1.101013,0.438486,0.407786
790,-0.195657,0.949102,-0.246811,-0.8812770000000001,-0.036748,0.277161
791,-0.204512,0.936229,-0.285731,-0.28206,-0.244426,0.544841
792,-0.18713,0.925521,-0.329219,0.272198,-0.213943,0.737422
793,-0.168151,0.910663,-0.377373,0.505386,-0.212498,0.8213889999999999
794,-0.169989,0.890488,-0.422054,0.804663,-0.246216,0.926082
795,-0.16713,0.877551,-0.449406,0.2201389999999999,-0.499011,0.636555
796,-0.162207,0.861985,-0.480276,0.153556,-0.5589149999999999,0.679602
797,-0.16315,0.8492129999999999,-0.50221,0.028324,-0.667297,0.7674529999999999
798,-0.1689109999999999,0.842857,-0.510937,-0.080784,-0.7020029999999999,0.823376
799,-0.176059,0.8428700000000001,-0.5084960000000001,-0.089978,-0.721349,0.804135
800,-0.183296,0.8489530000000001,-0.495658,-0.0653,-0.744445,0.73719
801,-0.190908,0.8612540000000001,-0.470946,-0.136927,-0.145556,0.31642
802,-0.199347,0.8778879999999999,-0.4353939999999999,-0.187265,0.6767380000000001,-1.124909
803,-0.202619,0.889474,-0.409604,-0.041842,1.937125,-2.714495
804,-0.205814,0.874668,-0.438851,-0.360409,0.480526,-0.522621
805,-0.205546,0.861967,-0.463421,-0.153402,-0.743879,-0.352192
806,-0.200766,0.861137,-0.467045,-0.1537869999999999,-0.867713,-0.334347
807,-0.197313,0.8677020000000001,-0.456241,-0.640578,-0.078563,0.6582819999999999
808,-0.201639,0.8759290000000001,-0.438274,-0.5051180000000001,0.369249,1.137417
809,-0.200297,0.883509,-0.4234239999999999,-0.309011,0.92272,0.592399
810,-0.180476,0.902683,-0.390623,-0.737157,1.010876,-0.227541
811,-0.17263,0.90437,-0.390267,-0.159798,-0.4529689999999999,1.539559
812,-0.143253,0.907556,-0.394734,-0.296506,-0.363824,0.924886
813,-0.124939,0.922653,-0.364822,-0.3160699999999999,-0.267029,0.920974
814,-0.124565,0.942603,-0.3098,-0.220436,0.056344,0.945817
815,-0.1400559999999999,0.956931,-0.254285,0.077251,0.448663,1.189512
816,-0.158091,0.960463,-0.229152,0.197489,0.363679,0.8641770000000001
817,-0.17517,0.959093,-0.222373,0.305114,0.259398,0.128531
818,-0.192967,0.967234,-0.164968,0.457783,-0.035441,-0.465876
819,-0.204455,0.975807,-0.0774,0.108752,-0.154274,-0.087013
820,-0.198189,0.979528,-0.035179,0.008537,-0.1096549999999999,-0.160118
821,-0.182296,0.983171,-0.011581,0.117538,-0.068162,-0.049058
822,-0.165265,0.986164,0.012612,-0.113666,-0.319019,0.189445
823,-0.155103,0.987249,0.035654,-0.06386,-0.3643699999999999,0.11022
824,-0.158639,0.985533,0.059571,-0.083457,-0.305021,-0.002976
825,-0.171283,0.980815,0.093021,-0.1237299999999999,-0.2360489999999999,-0.187214
826,-0.190386,0.972399,0.13484,0.028887,0.0990429999999999,-0.119368
827,-0.208637,0.962647,0.172538,0.144245,0.226303,-0.369285
828,-0.213339,0.952047,0.2192739999999999,0.22698,0.40536,-0.500447
829,-0.208282,0.940853,0.267208,0.209884,0.419285,-0.558575
830,-0.212532,0.936632,0.278457,0.5224989999999999,0.46765,-0.4477069999999999
831,-0.22399,0.940365,0.255988,0.505927,0.56789,-0.32746
832,-0.221781,0.946414,0.2347389999999999,0.3950599999999999,0.488309,-0.246702
833,-0.214002,0.950007,0.227327,0.326551,0.55483,-0.5057689999999999
834,-0.2003329999999999,0.953983,0.223095,0.247941,0.367291,-0.86375
835,-0.189433,0.962907,0.192129,0.29484,0.435546,-0.6689970000000001
836,-0.187476,0.973601,0.130165,0.004996,0.412386,-0.1799089999999999
837,-0.18579,0.981303,0.050163,0.093734,0.407873,0.67553
838,-0.179263,0.983217,-0.033752,0.035571,0.436613,0.7994680000000001
839,-0.170944,0.978944,-0.111526,-0.544647,0.823699,0.585403
840,-0.170908,0.968778,-0.179587,-0.965826,0.993442,0.18621
841,-0.194027,0.9559,-0.220453,-0.979343,0.641359,0.21084
842,-0.2187849999999999,0.944392,-0.245457,-0.845454,-0.002421,0.404301
843,-0.218704,0.934412,-0.281132,0.042022,-0.20167,0.426426
844,-0.203011,0.921553,-0.330937,0.116265,-0.190398,0.543812
845,-0.193252,0.904715,-0.379656,0.511596,-0.230215,0.752825
846,-0.190846,0.8888020000000001,-0.416658,0.64394,-0.2217329999999999,0.677217
847,-0.189917,0.8715280000000001,-0.4520659999999999,0.326438,-0.37635,0.661097
848,-0.191488,0.8520620000000001,-0.4871529999999999,0.1631369999999999,-0.549099,0.723954
849,-0.195223,0.837578,-0.510242,-0.036222,-0.667167,0.809238
850,-0.2033579999999999,0.8292959999999999,-0.52049,-0.151791,-0.703533,0.80203
851,-0.214242,0.8263290000000001,-0.520841,-0.182197,-0.749166,0.792982
852,-0.22274,0.830543,-0.510471,-0.123788,-0.6306069999999999,0.677875
853,-0.228117,0.841734,-0.489327,-0.127306,-0.287505,0.369774
854,-0.231854,0.8595440000000001,-0.455437,-0.199817,0.019652,-0.153282
855,-0.234562,0.8728940000000001,-0.427822,-0.213131,1.952179,-2.359257
856,-0.236975,0.8628049999999999,-0.4465479999999999,-0.173243,1.7296330000000002,-1.698334
857,-0.2385929999999999,0.853865,-0.462584,-0.099756,-0.264387,-0.433992
858,-0.2386469999999999,0.850958,-0.4678819999999999,-0.2785809999999999,-0.194845,-0.338912
859,-0.242883,0.85326,-0.461464,-0.566916,0.276378,0.5304949999999999
860,-0.244973,0.8560690000000001,-0.455114,-0.463843,0.758448,0.252661
861,-0.23599,0.8609209999999999,-0.450686,-0.25638,0.769709,0.6486689999999999
862,-0.2093,0.859973,-0.465441,-0.4079489999999999,-0.840548,1.457552
863,-0.1925859999999999,0.871117,-0.451731,-0.270397,-0.883431,1.515162
864,-0.167685,0.892407,-0.41891,-0.256082,-0.405453,1.032405
865,-0.152054,0.916131,-0.370915,-0.3215179999999999,-0.052224,0.832234
866,-0.158226,0.937615,-0.3095739999999999,-0.193977,0.5788800000000001,1.089954
867,-0.1772119999999999,0.947457,-0.266297,0.077374,0.792533,1.280808
868,-0.192905,0.95027,-0.244475,0.390812,0.41884,0.651091
869,-0.205442,0.958097,-0.19959,0.953809,0.215044,-0.767039
870,-0.2188989999999999,0.967852,-0.123848,0.560879,-0.1401079999999999,-0.1724619999999999
871,-0.216184,0.972175,-0.090181,0.1074339999999999,-0.122123,-0.079146
872,-0.201994,0.976881,-0.06995,0.127821,-0.0596909999999999,0.0376779999999999
873,-0.1835359999999999,0.982176,-0.0404529999999999,0.091037,0.065416,0.122973
874,-0.164511,0.98636,-0.004506,-0.303583,-0.192873,0.09287
875,-0.156503,0.987051,0.0350339999999999,-0.26116,-0.483389,0.204574
876,-0.157957,0.98521,0.066339,-0.10811,-0.358349,-0.094674
877,-0.168095,0.981225,0.0945039999999999,-0.176235,-0.205392,-0.1901769999999999
878,-0.18584,0.974377,0.126661,-0.154934,-0.123898,-0.16789
879,-0.208034,0.965742,0.155096,0.201381,0.320376,-0.3205159999999999
880,-0.221079,0.95596,0.193014,0.234629,0.479526,-0.439474
881,-0.2204289999999999,0.943565,0.247153,0.269288,0.490426,-0.484763
882,-0.212746,0.933004,0.290226,0.466683,0.48762,-0.762119
883,-0.218952,0.932801,0.286235,0.5361670000000001,0.513442,-0.637004
884,-0.223216,0.939494,0.259834,0.5083409999999999,0.539189,-0.441399
885,-0.214378,0.946425,0.241478,0.346183,0.50226,-0.732613
886,-0.197527,0.954996,0.221261,0.258363,0.316367,-0.812463
887,-0.1854579999999999,0.966981,0.174767,0.085971,0.308089,-0.7603840000000001
888,-0.181766,0.978202,0.100363,0.010593,0.6328060000000001,0.279855
889,-0.177227,0.984013,0.0173639999999999,0.149517,0.623791,0.7564390000000001
890,-0.168602,0.983446,-0.066335,-0.041191,0.57849,0.7681479999999999
891,-0.159882,0.977308,-0.138923,-0.670272,0.994311,0.3684
892,-0.166549,0.967431,-0.190609,-0.86998,0.917319,0.336559
893,-0.190814,0.955994,-0.222844,-0.8470280000000001,0.5222319999999999,0.416936
894,-0.209558,0.943249,-0.257606,-0.570944,-0.2198139999999999,0.384544
895,-0.2052139999999999,0.930252,-0.30416,-0.061174,-0.272155,0.51847
896,-0.185659,0.917145,-0.352662,0.155569,-0.243027,0.720445
897,-0.176617,0.895961,-0.407498,0.639523,-0.221767,0.875943
898,-0.19159,0.8702110000000001,-0.453895,0.626115,-0.4410729999999999,0.904563
899,-0.199602,0.8527100000000001,-0.482743,0.318209,-0.523745,0.720597
900,-0.201776,0.835292,-0.5114390000000001,0.099847,-0.692943,0.7774
901,-0.2054969999999999,0.824285,-0.527561,-0.0339589999999999,-0.714468,0.8675879999999999
902,-0.212461,0.820399,-0.53085,-0.053972,-0.701014,0.88786
903,-0.218382,0.8235450000000001,-0.523526,-0.105272,-0.7317779999999999,0.79292
904,-0.221239,0.833624,-0.506083,-0.150343,-0.581336,0.6295569999999999
905,-0.225318,0.8485520000000001,-0.478735,-0.249276,0.035863,-0.133997
906,-0.237019,0.866029,-0.440241,0.036961,1.296706,-1.677114
907,-0.2446449999999999,0.860408,-0.447039,-0.146529,1.954442,-1.708494
908,-0.249245,0.844068,-0.474785,-0.157127,0.124498,-0.5759810000000001
909,-0.2462349999999999,0.833693,-0.494287,-0.219723,-0.689696,-0.470251
910,-0.2454309999999999,0.8354950000000001,-0.491638,-0.474875,0.012955,-0.1138309999999999
911,-0.247833,0.8422379999999999,-0.478759,-0.685318,0.439256,0.451064
912,-0.248886,0.8448120000000001,-0.473649,-0.2817679999999999,1.454748,0.2641
913,-0.22873,0.8317180000000001,-0.505889,-0.658095,-1.130317,1.351302
914,-0.214026,0.8370920000000001,-0.503454,-0.503138,-1.232218,1.721685
915,-0.197203,0.865082,-0.461237,-0.209581,-0.593979,1.125025
916,-0.18407,0.894227,-0.408008,-0.28674,0.1914809999999999,1.148807
917,-0.17801,0.915898,-0.359776,-0.281127,0.76205,1.09885
918,-0.185569,0.929835,-0.317751,0.309226,0.8662770000000001,1.215044
919,-0.193043,0.939349,-0.283466,0.51093,0.5657479999999999,0.813709
920,-0.2009119999999999,0.951289,-0.233832,1.053222,0.2646679999999999,-0.61207
921,-0.214342,0.962807,-0.164479,0.7127859999999999,-0.130288,-0.284755
922,-0.215162,0.967965,-0.129387,0.266782,-0.177789,-0.200309
923,-0.201815,0.973755,-0.10519,0.175845,-0.096069,0.1084099999999999
924,-0.186369,0.979759,-0.07302,-0.14348,-0.09449,0.263114
925,-0.167534,0.985061,-0.03974,-0.211357,-0.090927,0.116293
926,-0.153532,0.988137,-0.002124,-0.255769,-0.319619,0.110248
927,-0.1499,0.988193,0.031576,-0.191867,-0.342136,0.016245
928,-0.153152,0.986207,0.062702,-0.201508,-0.243776,-0.162129
929,-0.166277,0.981036,0.0995559999999999,-0.160322,-0.158221,-0.180672
930,-0.1882349999999999,0.973331,0.131097,0.103899,0.012234,-0.0295199999999999
931,-0.208941,0.965318,0.156513,0.184939,0.18202,-0.2051889999999999
932,-0.21708,0.956177,0.196455,0.244515,0.575531,-0.365568
933,-0.211825,0.945438,0.247525,0.178195,0.4513819999999999,-0.687833
934,-0.20976,0.938621,0.27383,0.345181,0.4832689999999999,-0.7389180000000001
935,-0.224507,0.940614,0.254621,0.640798,0.555372,-0.5041180000000001
936,-0.230417,0.946299,0.226757,0.809671,0.727636,-0.2271989999999999
937,-0.217825,0.952198,0.2141559999999999,0.696066,0.634411,-0.438979
938,-0.193966,0.960245,0.200746,0.062222,0.390234,-0.730561
939,-0.176831,0.971539,0.1575869999999999,-0.209765,0.404559,-0.710032
940,-0.169722,0.981334,0.090389,-0.188524,0.499058,-0.3261219999999999
941,-0.169341,0.985521,0.008022,0.085509,0.443007,0.738621
942,-0.161827,0.983439,-0.081565,-0.2509389999999999,0.64707,0.546744
943,-0.149916,0.976079,-0.157445,-0.643358,0.907497,0.388982
944,-0.15669,0.96514,-0.2096329999999999,-0.864825,0.67672,0.450829
945,-0.184199,0.951321,-0.24709,-0.813146,0.165714,0.320759
946,-0.205535,0.937841,-0.279651,-0.687974,-0.05013,0.380786
947,-0.199726,0.92633,-0.3194,0.102421,-0.254364,0.545016
948,-0.179696,0.913041,-0.366144,0.44323,-0.13823,0.708903
949,-0.177688,0.889732,-0.420475,0.8294819999999999,-0.241676,0.875843
950,-0.179963,0.87041,-0.458252,0.391038,-0.331165,0.722611
951,-0.177534,0.851474,-0.493427,0.154615,-0.516101,0.703678
952,-0.1784859999999999,0.8329469999999999,-0.5237729999999999,0.021534,-0.6338199999999999,0.7888029999999999
953,-0.182502,0.821644,-0.539991,-0.045098,-0.631779,0.8739299999999999
954,-0.188116,0.817384,-0.544512,-0.151591,-0.694367,0.8592850000000001
955,-0.193125,0.819485,-0.539578,-0.122716,-0.680248,0.736325
956,-0.195134,0.829492,-0.523319,-0.1132619999999999,-0.583627,0.645816
957,-0.195928,0.847426,-0.493435,-0.19189,-0.144072,0.103222
958,-0.198148,0.8695700000000001,-0.4523069999999999,-0.141787,2.034971,-2.536203
959,-0.1968,0.866577,-0.458596,-0.201684,2.040237,-2.027259
960,-0.20296,0.851706,-0.4831149999999999,-0.079084,0.28045,-0.662088
961,-0.204521,0.8434290000000001,-0.496785,-0.0624929999999999,-0.4485159999999999,-0.442012
962,-0.207638,0.842929,-0.496341,-0.037739,-0.418704,-0.386502
963,-0.213021,0.848147,-0.485041,-0.320945,0.270292,0.643336
964,-0.213128,0.8559120000000001,-0.471155,-0.491431,0.773666,0.894159
965,-0.187868,0.8647950000000001,-0.465651,-0.534971,0.791531,0.143416
966,-0.169174,0.8744790000000001,-0.454602,-0.981582,0.8343379999999999,-0.871951
967,-0.152742,0.881251,-0.447284,-0.282042,-0.7647189999999999,1.503101
968,-0.127821,0.8971020000000001,-0.422926,-0.3078329999999999,-0.430976,0.91963
969,-0.115827,0.918575,-0.377889,-0.277712,-0.236873,0.8920790000000001
970,-0.130288,0.941379,-0.311169,-0.185096,0.398069,1.086712
971,-0.153651,0.95423,-0.256573,0.347041,0.666772,1.309521
972,-0.172715,0.957471,-0.2311119999999999,0.479676,0.394046,0.8183159999999999
973,-0.1889279999999999,0.960791,-0.20293,0.835642,0.343317,-0.745205
974,-0.197505,0.970798,-0.136146,0.5424760000000001,-0.0827059999999999,-0.355996
975,-0.1943089999999999,0.975981,-0.098482,0.192448,-0.190092,-0.2070449999999999
976,-0.182096,0.980418,-0.07493,0.067152,-0.12469,-0.033895
977,-0.1662539999999999,0.985231,-0.040893,-0.0332089999999999,0.020811,0.108779
978,-0.151749,0.988406,-0.004314,-0.201324,-0.427233,0.228054
979,-0.142405,0.989523,0.023625,-0.183538,-0.455267,0.070507
980,-0.144372,0.988224,0.050612,-0.094733,-0.382786,0.070711
981,-0.1557849999999999,0.984519,0.080287,-0.154289,-0.149527,-0.2142599999999999
982,-0.172997,0.97765,0.119431,-0.097526,-0.045567,-0.131623
983,-0.192966,0.969364,0.151945,0.076435,0.122722,-0.128798
984,-0.205244,0.959802,0.19143,0.2259949999999999,0.475364,-0.332955
985,-0.2028329999999999,0.949553,0.2391599999999999,0.2314429999999999,0.465898,-0.364297
986,-0.195669,0.941285,0.275109,0.300008,0.45024,-0.559319
987,-0.204775,0.940687,0.270488,0.472628,0.514803,-0.543712
988,-0.207779,0.946298,0.247664,0.4439079999999999,0.5291359999999999,-0.355589
989,-0.201747,0.951258,0.233227,0.374354,0.615957,-0.499905
990,-0.185499,0.956432,0.225425,0.32031,0.301091,-0.782097
991,-0.168571,0.966712,0.192459,0.303611,0.389321,-0.6895899999999999
992,-0.160829,0.978136,0.131807,-0.136778,0.389723,-0.447221
993,-0.157939,0.986172,0.050099,0.019542,0.547092,0.5604819999999999
994,-0.154941,0.987202,-0.037632,0.062458,0.5361279999999999,0.764347
995,-0.147079,0.981657,-0.1212819999999999,-0.360246,0.682268,0.517675
996,-0.1436059999999999,0.97157,-0.188208,-0.762125,0.994388,0.388067
997,-0.159751,0.959828,-0.230658,-0.8371059999999999,0.48849,0.38639
998,-0.182311,0.948491,-0.259077,-0.74936,-0.049031,0.401839
999,-0.189762,0.937015,-0.2932369999999999,-0.288846,-0.203845,0.4892359999999999
1000,-0.1796579999999999,0.923621,-0.338586,0.135865,-0.166053,0.5452819999999999
1001,-0.174043,0.901387,-0.396492,0.438783,-0.1388589999999999,0.592002
1002,-0.189908,0.871159,-0.4527819999999999,0.738751,-0.197224,0.902153
1003,-0.198221,0.8508469999999999,-0.486583,0.459451,-0.370272,0.831141
1004,-0.199312,0.834001,-0.5145029999999999,0.1636369999999999,-0.520432,0.763145
1005,-0.1968089999999999,0.820672,-0.536431,-0.003432,-0.5721069999999999,0.774606
1006,-0.198932,0.813496,-0.546485,-0.193295,-0.718724,0.8374090000000001
1007,-0.202898,0.8122659999999999,-0.5468569999999999,-0.22473,-0.753504,0.790021
1008,-0.204893,0.817693,-0.537953,-0.2235739999999999,-0.763509,0.765278
1009,-0.205569,0.8310639999999999,-0.516787,-0.196363,-0.460733,0.540225
1010,-0.212446,0.8501350000000001,-0.481802,-0.115969,0.163705,-0.37414
1011,-0.2179969999999999,0.864851,-0.4522229999999999,0.0485019999999999,0.6772640000000001,-0.950594
1012,-0.221479,0.851242,-0.4757399999999999,0.003828,1.4841,-1.440794
1013,-0.225433,0.8383459999999999,-0.496338,-0.003602,-0.007993,-0.455535
1014,-0.22449,0.834327,-0.503486,-0.155317,-0.375251,-0.4511949999999999
1015,-0.229952,0.838875,-0.493361,-0.283765,0.089439,0.159621
1016,-0.230852,0.84631,-0.480064,-0.602705,0.660099,0.438972
1017,-0.225512,0.853514,-0.469738,-0.180173,0.89612,0.8765069999999999
1018,-0.185997,0.850772,-0.491515,-0.918053,-0.536151,0.4505909999999999
1019,-0.165238,0.8644200000000001,-0.474836,-0.695388,-0.8239850000000001,1.342939
1020,-0.141871,0.8878389999999999,-0.437733,-0.2958119999999999,-0.349615,1.015263
1021,-0.12509,0.912718,-0.388963,-0.334841,-0.077925,0.920198
1022,-0.12591,0.9355,-0.330123,-0.201788,0.4203199999999999,0.910186
1023,-0.147897,0.950003,-0.274981,0.301858,0.646188,1.195925
1024,-0.170956,0.95499,-0.242409,0.433621,0.489712,0.998787
1025,-0.189292,0.95727,-0.218623,0.52999,0.277792,0.374812
1026,-0.201795,0.96603,-0.161424,0.538633,-0.058636,-0.297042
1027,-0.204755,0.971397,-0.120239,0.227353,-0.1633369999999999,-0.289887
1028,-0.197252,0.975809,-0.094237,0.16057,-0.108912,-0.132066
1029,-0.183617,0.980717,-0.06688,0.040672,0.017758,0.181413
1030,-0.166498,0.985367,-0.036384,-0.109564,-0.1423029999999999,0.1537089999999999
1031,-0.152449,0.988299,-0.004221,-0.161516,-0.317126,0.108164
1032,-0.147468,0.988718,0.026144,-0.153954,-0.392267,0.195276
1033,-0.150694,0.987024,0.055383,-0.134707,-0.271417,-0.1681609999999999
1034,-0.16171,0.982364,0.093829,-0.131976,-0.1095759999999999,-0.249088
1035,-0.180336,0.975515,0.125863,0.09771,0.014033,-0.0803
1036,-0.1978319999999999,0.967999,0.154377,0.173967,0.270252,-0.356021
1037,-0.204415,0.959377,0.194425,0.131356,0.413929,-0.286344
1038,-0.200272,0.950922,0.235857,0.1064609999999999,0.4615689999999999,-0.434069
1039,-0.200935,0.94486,0.258563,0.491676,0.52064,-0.450672
1040,-0.209562,0.945516,0.249146,0.55818,0.536067,-0.4424899999999999
1041,-0.206136,0.950477,0.2325719999999999,0.4969689999999999,0.667168,-0.278379
1042,-0.195908,0.95517,0.2219429999999999,0.270341,0.563339,-0.681645
1043,-0.179484,0.962233,0.204651,0.137538,0.412004,-0.752534
1044,-0.172419,0.972177,0.1585369999999999,-0.0373589999999999,0.325263,-0.711882
1045,-0.1744339999999999,0.980996,0.084915,-0.082447,0.413688,-0.083267
1046,-0.17564,0.984445,-0.0028539999999999,0.225078,0.46456,0.766587
1047,-0.170666,0.980962,-0.092622,-0.0443,0.541622,0.756257
1048,-0.163013,0.971824,-0.170223,-0.519863,0.817284,0.528179
1049,-0.170381,0.960033,-0.222036,-0.747282,0.781712,0.289312
1050,-0.192719,0.948999,-0.249507,-0.8333430000000001,0.2831639999999999,0.437266
1051,-0.209188,0.936515,-0.281376,-0.700236,-0.114463,0.392353
1052,-0.199234,0.924555,-0.324804,-0.096252,-0.207026,0.546636
1053,-0.177545,0.910632,-0.3731239999999999,0.207513,-0.238619,0.652284
1054,-0.180326,0.8835299999999999,-0.432264,0.671689,-0.1471859999999999,0.671797
1055,-0.197709,0.8594809999999999,-0.47138,0.728563,-0.28044,0.8947809999999999
1056,-0.200712,0.843676,-0.4979159999999999,0.333021,-0.408785,0.693214
1057,-0.19938,0.829058,-0.522404,0.024102,-0.6319600000000001,0.818761
1058,-0.201098,0.819524,-0.536596,-0.037656,-0.624638,0.863058
1059,-0.204192,0.81677,-0.539618,-0.097871,-0.64076,0.8775700000000001
1060,-0.207391,0.8194670000000001,-0.534284,-0.171744,-0.699151,0.742505
1061,-0.2083969999999999,0.828924,-0.519087,-0.111565,-0.6512359999999999,0.6986060000000001
1062,-0.209613,0.8464309999999999,-0.489502,-0.149213,-0.4860029999999999,0.572922
1063,-0.211081,0.8668889999999999,-0.451601,-0.121057,0.838433,-1.161879
1064,-0.204859,0.860906,-0.465692,-0.181142,2.134791,-2.407966
1065,-0.203112,0.847398,-0.490568,0.053652,-0.27794,-0.524325
1066,-0.202855,0.8436440000000001,-0.497102,-0.020152,-0.502152,-0.171172
1067,-0.2063969999999999,0.8487809999999999,-0.486792,-0.249414,-0.019435,0.459647
1068,-0.2057639999999999,0.856527,-0.473305,-0.306031,0.7350869999999999,0.508659
1069,-0.1932829999999999,0.867469,-0.4584029999999999,-0.271408,0.475518,0.839965
1070,-0.1557859999999999,0.877181,-0.45418,-1.113699,0.450883,-0.916715
1071,-0.146723,0.886301,-0.439247,-0.454397,-0.657053,1.6572189999999998
1072,-0.131078,0.8956200000000001,-0.425062,-0.332133,-0.6976680000000001,1.373289
1073,-0.1142519999999999,0.912916,-0.391822,-0.299093,-0.216139,0.737571
1074,-0.1191599999999999,0.934499,-0.33542,-0.242428,0.321818,0.916902
1075,-0.147788,0.949441,-0.276973,0.0198889999999999,0.597953,1.215938
1076,-0.17586,0.954527,-0.2407139999999999,0.501482,0.374589,1.02767
1077,-0.1960329999999999,0.955644,-0.2197889999999999,0.510929,0.222471,0.441759
1078,-0.200506,0.964294,-0.172991,0.505285,0.053833,-0.580137
1079,-0.195347,0.975315,-0.102915,0.161198,-0.069462,-0.280798
1080,-0.183979,0.980638,-0.067023,0.037082,-0.084382,-0.229653
1081,-0.16934,0.984812,-0.038202,-0.054659,0.031347,0.1740809999999999
1082,-0.154962,0.987883,-0.00805,-0.256034,-0.195753,0.206064
1083,-0.14617,0.989095,0.017748,-0.100641,-0.488638,0.07524
1084,-0.145653,0.988514,0.040201,-0.012352,-0.534931,0.1000429999999999
1085,-0.153089,0.986526,0.057624,-0.099383,-0.249984,-0.114173
1086,-0.167259,0.982192,0.0855139999999999,-0.129967,-0.005447,0.002163
1087,-0.187906,0.975241,0.116563,-0.0072989999999999,0.173273,-0.045487
1088,-0.2049679999999999,0.966771,0.152748,0.1600609999999999,0.409572,-0.431785
1089,-0.207123,0.955903,0.20818,0.197998,0.456176,-0.377019
1090,-0.196155,0.943645,0.266546,0.5019100000000001,0.479741,-0.792211
1091,-0.196582,0.937044,0.2886039999999999,0.581394,0.469206,-0.8417049999999999
1092,-0.202899,0.943069,0.263517,0.4476189999999999,0.603318,-0.597929
1093,-0.200301,0.951177,0.2347969999999999,0.446227,0.778895,-0.389277
1094,-0.187654,0.95846,0.214779,0.28998,0.344809,-0.645184
1095,-0.172479,0.968122,0.181604,0.172906,0.30588,-0.8150729999999999
1096,-0.165999,0.979125,0.117255,-0.101411,0.431642,-0.352165
1097,-0.163606,0.985935,0.033993,0.109071,0.6420100000000001,0.609531
1098,-0.158818,0.986007,-0.050591,0.066227,0.581666,0.764031
1099,-0.152345,0.980009,-0.1279269999999999,-0.326827,0.728716,0.6499
1100,-0.155109,0.968552,-0.194529,-0.680615,0.972138,0.419947
1101,-0.179089,0.955352,-0.234994,-0.797473,0.495637,0.3090449999999999
1102,-0.204328,0.942694,-0.263763,-0.677035,-0.0295779999999999,0.499496
1103,-0.207934,0.930798,-0.300619,-0.396466,-0.287778,0.559362
1104,-0.193191,0.918177,-0.345865,0.043059,-0.229227,0.571512
1105,-0.1793259999999999,0.8980319999999999,-0.4017159999999999,0.246342,-0.254019,0.670667
1106,-0.192028,0.868816,-0.456377,0.6994739999999999,-0.176448,0.920885
1107,-0.201289,0.85169,-0.4838409999999999,0.548212,-0.284597,0.803269
1108,-0.204311,0.83445,-0.5118060000000001,0.097835,-0.521508,0.7842210000000001
1109,-0.2078699999999999,0.820242,-0.532907,0.008361,-0.564764,0.8209930000000001
1110,-0.213335,0.813183,-0.541495,-0.124449,-0.647763,0.883292
1111,-0.218128,0.813921,-0.5384680000000001,-0.120891,-0.702425,0.797196
1112,-0.2209539999999999,0.8226559999999999,-0.5238430000000001,-0.063424,-0.6322270000000001,0.7173390000000001
1113,-0.222854,0.838584,-0.4970989999999999,-0.173753,-0.198081,0.26161
1114,-0.230357,0.8576440000000001,-0.459758,-0.090337,0.587943,-0.985967
1115,-0.232929,0.868057,-0.438425,-0.129315,1.533509,-2.242804
1116,-0.234614,0.85403,-0.46431,0.041437,0.623448,-0.623153
1117,-0.231864,0.845074,-0.481751,-0.013345,-0.3089409999999999,-0.362304
1118,-0.2288329999999999,0.84421,-0.484706,-0.211139,-0.145189,-0.029073
1119,-0.2361329999999999,0.847744,-0.474938,-0.5444,0.096546,0.650948
1120,-0.237975,0.852677,-0.465085,-0.472306,0.20993,0.848722
1121,-0.233792,0.864668,-0.444617,-0.282855,0.5707409999999999,0.815497
1122,-0.193796,0.8748309999999999,-0.443968,-0.780646,0.514375,-0.6245890000000001
1123,-0.176088,0.889085,-0.42251,-0.474226,-0.533922,1.455301
1124,-0.154394,0.902425,-0.402226,-0.241587,-0.474568,1.094166
1125,-0.133153,0.92042,-0.367548,-0.301921,-0.192438,0.814692
1126,-0.131149,0.939223,-0.317258,-0.195344,0.084504,0.779416
1127,-0.146979,0.953725,-0.262294,0.091666,0.510478,1.050014
1128,-0.166092,0.958856,-0.230219,0.385453,0.371893,0.8814190000000001
1129,-0.182348,0.959327,-0.2154829999999999,0.463186,0.258126,0.286009
1130,-0.189377,0.966615,-0.1725819999999999,0.663147,0.008239,-0.4344739999999999
1131,-0.189612,0.975058,-0.1153309999999999,0.336081,-0.085226,-0.184886
1132,-0.180108,0.980118,-0.0831929999999999,0.1595089999999999,-0.1086579999999999,-0.146146
1133,-0.167538,0.984406,-0.053546,0.094723,0.040344,0.086138
1134,-0.154448,0.987742,-0.022436,-0.184114,-0.183588,0.288412
1135,-0.142322,0.98981,0.003238,-0.160305,-0.410678,0.154294
1136,-0.139467,0.989731,0.0311779999999999,-0.128081,-0.411514,0.1210589999999999
1137,-0.1451569999999999,0.987609,0.059562,-0.139099,-0.181014,-0.152686
1138,-0.1613609999999999,0.982534,0.092623,-0.052338,-0.04804,-0.100375
1139,-0.181789,0.975545,0.123511,0.093486,0.089061,-0.128226
1140,-0.196054,0.967328,0.160712,0.162943,0.361453,-0.330298
1141,-0.196999,0.957506,0.210625,0.132408,0.467055,-0.316857
1142,-0.187546,0.946857,0.261297,0.200638,0.378735,-0.642339
1143,-0.192093,0.942296,0.2741659999999999,0.4597779999999999,0.415523,-0.60664
1144,-0.200425,0.947289,0.249921,0.4628609999999999,0.495139,-0.393445
1145,-0.1975579999999999,0.953109,0.2292179999999999,0.4352899999999999,0.6558689999999999,-0.1404119999999999
1146,-0.184924,0.95794,0.219413,0.289096,0.47338,-0.61045
1147,-0.167178,0.965569,0.199287,0.098819,0.388206,-0.762901
1148,-0.157609,0.976243,0.148648,-0.018249,0.377959,-0.696607
1149,-0.156916,0.984841,0.07386,-0.114172,0.418327,-0.4385449999999999
1150,-0.158948,0.987256,-0.0071189999999999,0.132428,0.467395,0.725915
1151,-0.158596,0.983429,-0.087778,0.013821,0.486191,0.6658109999999999
1152,-0.158329,0.973772,-0.163376,-0.6132310000000001,0.941557,0.458572
1153,-0.173277,0.960524,-0.217625,-0.755404,0.855684,0.254948
1154,-0.198438,0.948919,-0.24529,-0.6892119999999999,0.088465,0.439321
1155,-0.2102,0.937594,-0.276994,-0.280309,-0.163973,0.5004890000000001
1156,-0.196852,0.925451,-0.323702,-0.001955,-0.2173969999999999,0.50316
1157,-0.175245,0.909401,-0.37719,0.1854839999999999,-0.197197,0.667946
1158,-0.17603,0.881868,-0.437396,0.621892,-0.270434,0.8601709999999999
1159,-0.194017,0.857662,-0.476202,0.6454479999999999,-0.3296469999999999,0.923818
1160,-0.198675,0.841741,-0.501991,0.357626,-0.369222,0.6882550000000001
1161,-0.196999,0.8257559999999999,-0.528502,0.052269,-0.6366689999999999,0.737761
1162,-0.195675,0.8152659999999999,-0.54502,-0.0415839999999999,-0.583485,0.847617
1163,-0.197948,0.812118,-0.548887,-0.097721,-0.580489,0.849225
1164,-0.201169,0.815527,-0.542624,-0.155642,-0.679221,0.788367
1165,-0.202463,0.825915,-0.526183,-0.13439,-0.5255449999999999,0.596038
1166,-0.205612,0.8419540000000001,-0.49883,-0.217621,-0.0118,-0.007167
1167,-0.211713,0.862358,-0.459902,-0.037646,1.13253,-1.535887
1168,-0.213827,0.861418,-0.460686,-0.014368,1.7433029999999998,-1.898506
1169,-0.224142,0.8473860000000001,-0.4813439999999999,-0.022165,0.247188,-0.552592
1170,-0.226705,0.841126,-0.491026,-0.064815,-0.428345,-0.344194
1171,-0.228606,0.843181,-0.486601,-0.1124579999999999,-0.314204,0.112501
1172,-0.2338039999999999,0.8503809999999999,-0.471361,-0.411612,0.088675,0.833208
1173,-0.230515,0.86092,-0.4535119999999999,-0.326675,0.5049399999999999,0.918813
1174,-0.200979,0.8735809999999999,-0.4432359999999999,-0.48556,0.874664,0.167372
1175,-0.177225,0.889116,-0.421969,-0.944494,0.2312,0.017398
1176,-0.1709,0.8919870000000001,-0.418504,-0.160826,-0.662083,1.5117200000000002
1177,-0.146895,0.899597,-0.411267,-0.242037,-0.411239,0.965818
1178,-0.1312569999999999,0.918738,-0.372405,-0.277129,-0.120459,0.8940110000000001
1179,-0.13766,0.939586,-0.313399,-0.02715,0.337605,1.041122
1180,-0.154193,0.951057,-0.267781,0.367038,0.487175,1.089513
1181,-0.172624,0.954606,-0.2427349999999999,0.44652,0.348831,0.695082
1182,-0.187644,0.95974,-0.208998,0.739356,0.187126,-0.698152
1183,-0.194658,0.970618,-0.141417,0.293734,-0.070914,-0.332261
1184,-0.192398,0.975832,-0.103565,0.119873,-0.169649,-0.25906
1185,-0.184303,0.979441,-0.081964,0.126563,-0.156992,-0.030448
1186,-0.169177,0.984223,-0.051717,-0.112089,-0.086533,0.264059
1187,-0.152293,0.988072,-0.022601,-0.2122239999999999,-0.270115,0.289752
1188,-0.14164,0.9899,0.005082,-0.215141,-0.344651,0.117141
1189,-0.143279,0.989206,0.030521,-0.112702,-0.312952,0.07507
1190,-0.1541789999999999,0.9864,0.0568539999999999,-0.107051,-0.186123,-0.148819
1191,-0.172468,0.980682,0.092231,-0.092821,-0.127746,-0.1658089999999999
1192,-0.191733,0.973254,0.126504,0.089484,0.139371,-0.14338
1193,-0.202576,0.964665,0.168441,0.175065,0.39561,-0.344603
1194,-0.201246,0.954791,0.2187719999999999,0.206876,0.423505,-0.51966
1195,-0.193854,0.945874,0.260252,0.292532,0.4348939999999999,-0.67761
1196,-0.19979,0.945131,0.258455,0.495917,0.510985,-0.556825
1197,-0.202292,0.951182,0.233063,0.439947,0.58045,-0.431184
1198,-0.194378,0.956708,0.216596,0.2410699999999999,0.477893,-0.6096630000000001
1199,-0.181834,0.962753,0.200076,0.239116,0.3266449999999999,-0.874973
1200,-0.17464,0.971957,0.157441,0.114856,0.319379,-0.684739
1201,-0.172786,0.981178,0.0861649999999999,0.017253,0.401757,-0.371413
1202,-0.169254,0.985564,0.002619,0.264682,0.583787,0.8424590000000001
1203,-0.164591,0.983157,-0.079385,0.003489,0.580624,0.696924
1204,-0.160854,0.974588,-0.15587,-0.410451,0.905936,0.718355
1205,-0.169399,0.960377,-0.221296,-0.605641,1.080364,0.578092
1206,-0.1975319999999999,0.947006,-0.253284,-0.849877,0.2949219999999999,0.381565
1207,-0.2189449999999999,0.935755,-0.276441,-0.66167,-0.1590359999999999,0.40109
1208,-0.208246,0.924439,-0.3194369999999999,-0.067999,-0.132645,0.501337
1209,-0.1794319999999999,0.911345,-0.370471,0.039173,-0.200621,0.668383
1210,-0.165199,0.887491,-0.4301899999999999,0.435753,-0.274301,0.763992
1211,-0.185405,0.855022,-0.484311,0.699642,-0.289653,0.899335
1212,-0.203264,0.8359549999999999,-0.5097619999999999,0.444445,-0.3609949999999999,0.816388
1213,-0.206668,0.819166,-0.5350239999999999,0.146655,-0.526945,0.757375
1214,-0.209629,0.806067,-0.55345,-0.022167,-0.575156,0.826766
1215,-0.216531,0.799783,-0.559873,-0.110725,-0.602426,0.8753479999999999
1216,-0.222681,0.800503,-0.556421,-0.176656,-0.646068,0.828729
1217,-0.225018,0.809066,-0.542932,-0.201343,-0.626891,0.7572270000000001
1218,-0.22713,0.824893,-0.5176470000000001,-0.267987,-0.271716,0.299034
1219,-0.236504,0.8448889999999999,-0.4798159999999999,-0.059181,0.4605149999999999,-0.84605
1220,-0.237789,0.8518899999999999,-0.466621,-0.020374,2.202996,-2.596474
1221,-0.243855,0.833375,-0.4959989999999999,-0.069087,0.7611220000000001,-0.666995
1222,-0.2450409999999999,0.8212860000000001,-0.515208,-0.050079,-0.360807,-0.285513
1223,-0.244774,0.817481,-0.52135,-0.301735,-0.330726,-0.332349
1224,-0.252447,0.82252,-0.509633,-0.306558,-0.0217389999999999,-0.07046
1225,-0.25806,0.8277479999999999,-0.49823,-0.1932029999999999,1.216075,0.5707399999999999
1226,-0.2504659999999999,0.833025,-0.4932859999999999,-0.032798,0.860273,1.006241
1227,-0.2120639999999999,0.832471,-0.511876,-0.204653,0.271838,0.6394850000000001
1228,-0.189165,0.8489639999999999,-0.493429,-0.431654,-0.620021,1.181722
1229,-0.166605,0.875295,-0.453978,-0.376303,-0.4111229999999999,1.013609
1230,-0.15124,0.901368,-0.405778,-0.381155,-0.152955,1.024949
1231,-0.1537079999999999,0.924668,-0.348365,-0.264291,0.303375,0.898307
1232,-0.172854,0.942881,-0.2847659999999999,0.23041,0.705221,1.282019
1233,-0.190207,0.951907,-0.2401849999999999,0.426642,0.611829,1.137814
1234,-0.200825,0.957623,-0.2064489999999999,0.891972,0.284443,-0.236285
1235,-0.20438,0.96626,-0.156729,0.6105079999999999,0.047092,-0.490824
1236,-0.20257,0.971199,-0.125423,0.452127,-0.075447,-0.437184
1237,-0.19688,0.975614,-0.096996,0.165081,-0.07594,-0.1094859999999999
1238,-0.187464,0.9804,-0.060535,-0.114126,-0.004158,0.2525969999999999
1239,-0.17386,0.984362,-0.028216,-0.133162,-0.155169,0.018512
1240,-0.16341,0.986554,0.0003,-0.089245,-0.208081,0.049871
1241,-0.159801,0.986878,0.022958,0.020061,-0.364899,0.08068
1242,-0.162456,0.985882,0.04046,-0.034184,-0.211834,-0.1771329999999999
1243,-0.168724,0.983087,0.071159,-0.043633,-0.085412,-0.24398
1244,-0.180275,0.977636,0.108253,-0.033088,-0.0137229999999999,-0.016502
1245,-0.192253,0.970527,0.145281,0.034203,0.252145,-0.2917349999999999
1246,-0.1948869999999999,0.962605,0.188147,0.028719,0.31779,-0.329611
1247,-0.188187,0.955421,0.227475,-0.02333,0.316551,-0.4719359999999999
1248,-0.191226,0.952058,0.23876,0.494906,0.537505,-0.353873
1249,-0.200468,0.954762,0.219617,0.544508,0.526119,-0.253751
1250,-0.197328,0.95939,0.201545,0.5126970000000001,0.50527,-0.1350319999999999
1251,-0.187796,0.962657,0.19497,0.209388,0.414663,-0.6337520000000001
1252,-0.173864,0.966908,0.186678,0.183202,0.4212909999999999,-0.802462
1253,-0.164796,0.974678,0.151109,0.159425,0.41851,-0.7264109999999999
1254,-0.1657549999999999,0.982458,0.085395,-0.005586,0.410868,-0.172675
1255,-0.1653069999999999,0.986227,0.004516,0.163964,0.427164,0.639725
1256,-0.163057,0.983543,-0.077771,0.030458,0.49743,0.74342
1257,-0.162277,0.975099,-0.1511279999999999,-0.435105,0.734266,0.648854
1258,-0.174281,0.962908,-0.205976,-0.8022199999999999,0.797941,0.272016
1259,-0.198828,0.951938,-0.2329699999999999,-0.8374719999999999,0.50607,0.289717
1260,-0.213626,0.940091,-0.265681,-0.612668,-0.005673,0.35969
1261,-0.197997,0.930254,-0.308897,-0.107698,-0.125567,0.549864
1262,-0.16988,0.918247,-0.357712,0.222676,-0.173694,0.679673
1263,-0.17149,0.8947579999999999,-0.412303,0.70123,-0.2028329999999999,0.767314
1264,-0.179081,0.8759399999999999,-0.4479439999999999,0.50594,-0.196832,0.697975
1265,-0.16919,0.859611,-0.48212,0.154648,-0.43003,0.578311
1266,-0.16169,0.8437889999999999,-0.511734,0.045723,-0.5315479999999999,0.726746
1267,-0.161488,0.8318479999999999,-0.530986,-0.10725,-0.623093,0.8046220000000001
1268,-0.16702,0.8243659999999999,-0.540852,-0.136599,-0.633097,0.7887149999999999
1269,-0.17359,0.822738,-0.541262,-0.162287,-0.657775,0.770694
1270,-0.177976,0.827575,-0.532391,-0.126864,-0.658782,0.682217
1271,-0.179863,0.8389040000000001,-0.513698,-0.054817,-0.447028,0.482066
1272,-0.183202,0.854767,-0.485599,-0.021052,-0.2302239999999999,0.12659
1273,-0.187317,0.8598620000000001,-0.474916,0.103973,2.119768,-1.848448
1274,-0.202257,0.8439270000000001,-0.4968649999999999,0.062685,1.002783,-0.943366
1275,-0.212254,0.829857,-0.516025,-0.061946,-0.240684,-0.287167
1276,-0.2141449999999999,0.8260850000000001,-0.521269,-0.580716,0.241023,-0.194933
1277,-0.2130159999999999,0.832433,-0.511541,-0.763912,0.671305,0.266866
1278,-0.203288,0.8363309999999999,-0.5091359999999999,-0.7148939999999999,1.754139,-0.58173
1279,-0.193055,0.820522,-0.5380229999999999,-0.116408,-0.2148699999999999,1.590162
1280,-0.160642,0.8143729999999999,-0.557661,-0.482776,-1.609234,1.806075
1281,-0.121663,0.8411040000000001,-0.527008,-0.545573,-0.557153,0.705612
1282,-0.1018429999999999,0.886026,-0.4523069999999999,-0.439706,0.0619269999999999,1.293096
1283,-0.086617,0.918687,-0.385364,-0.651511,0.524794,1.102848
1284,-0.088837,0.938134,-0.3346719999999999,-0.0746309999999999,0.909964,1.085999
1285,-0.10797,0.949025,-0.29612,0.2209159999999999,0.789134,0.976174
1286,-0.133491,0.95845,-0.252084,0.718345,0.413254,0.133157
1287,-0.15337,0.971298,-0.181796,0.922565,-0.086655,-0.066343
1288,-0.163351,0.975022,-0.150467,0.581335,-0.119996,-0.224228
1289,-0.1666109999999999,0.97691,-0.133714,0.206864,-0.077832,-0.218536
1290,-0.170752,0.979563,-0.106264,0.06774,-0.172754,0.141222
1291,-0.16734,0.982882,-0.07701,-0.056415,-0.2395199999999999,0.382308
1292,-0.161204,0.985879,-0.045248,-0.031179,-0.024255,-0.0938669999999999
1293,-0.15489,0.987886,-0.008994,-0.014818,-0.327974,0.094687
1294,-0.150671,0.988443,0.016399,-0.002375,-0.391794,0.116428
1295,-0.150726,0.987992,0.033821,-0.009217,-0.331834,0.150322
1296,-0.154394,0.985999,0.062923,-0.006922,-0.083854,-0.3036
1297,-0.164186,0.981408,0.099362,0.077791,-0.04406,-0.0174229999999999
1298,-0.175468,0.976313,0.126546,0.0652539999999999,0.117238,-0.176198
1299,-0.181449,0.97068,0.157626,0.008659,0.289024,-0.247607
1300,-0.180448,0.964346,0.1935599999999999,0.08531,0.388804,-0.299502
1301,-0.180746,0.958644,0.219823,0.401754,0.4812369999999999,-0.397039
1302,-0.182871,0.957166,0.224455,0.534296,0.503206,-0.598448
1303,-0.179791,0.959898,0.215083,0.422909,0.465395,-0.554347
1304,-0.17435,0.963806,0.201667,0.335498,0.58519,-0.6159279999999999
1305,-0.167079,0.970033,0.176377,0.273418,0.464476,-0.745804
1306,-0.161897,0.97793,0.1320309999999999,0.169572,0.378821,-0.729001
1307,-0.158595,0.985481,0.060535,-0.0142099999999999,0.536064,-0.102603
1308,-0.154859,0.987379,-0.033056,0.199384,0.6062489999999999,0.771199
1309,-0.144853,0.981516,-0.125046,-0.271255,0.697592,0.635117
1310,-0.1373079999999999,0.970543,-0.197952,-0.497382,0.8853219999999999,0.5834189999999999
1311,-0.145708,0.958977,-0.243154,-0.698637,1.066489,0.456701
1312,-0.170446,0.947583,-0.270235,-1.051737,0.088809,0.157564
1313,-0.184942,0.933948,-0.305828,-1.037242,0.102444,0.193157
1314,-0.170041,0.91941,-0.354635,0.01376,-0.119697,0.587576
1315,-0.1489579999999999,0.900809,-0.407859,0.57628,-0.152259,0.8775700000000001
1316,-0.149833,0.8785940000000001,-0.453451,0.7630680000000001,-0.18966,0.8102020000000001
1317,-0.15011,0.8600770000000001,-0.487575,0.447626,-0.259461,0.765224
1318,-0.147647,0.8381700000000001,-0.525041,0.049411,-0.5787399999999999,0.7940689999999999
1319,-0.15032,0.817855,-0.555439,0.010046,-0.610931,0.875599
1320,-0.156442,0.804385,-0.573138,-0.121802,-0.6454949999999999,0.8703639999999999
1321,-0.163767,0.798562,-0.579202,-0.2105159999999999,-0.735574,0.871958
1322,-0.170507,0.799809,-0.575526,-0.148218,-0.817189,0.868922
1323,-0.17507,0.809747,-0.56005,-0.0552,-0.7126399999999999,0.780036
1324,-0.177191,0.828975,-0.530472,-0.198831,-0.146968,0.150238
1325,-0.179356,0.8552719999999999,-0.486146,-0.070476,0.955184,-1.333968
1326,-0.17625,0.8637940000000001,-0.472008,-0.152577,2.0131900000000003,-1.978737
1327,-0.187051,0.850497,-0.491592,0.019204,0.34126,-0.655975
1328,-0.195173,0.841508,-0.503754,-0.0443589999999999,-0.244401,-0.413834
1329,-0.19974,0.83773,-0.5082409999999999,-0.046186,-0.15995,-0.053542
1330,-0.205197,0.839124,-0.5037470000000001,-0.44498,0.265917,0.596245
1331,-0.2057639999999999,0.844425,-0.4945729999999999,-0.3271489999999999,0.583019,0.628209
1332,-0.190685,0.8589200000000001,-0.475279,-0.231953,0.510846,0.599562
1333,-0.147463,0.867778,-0.474564,-1.247648,0.167454,-0.321563
1334,-0.140651,0.8738879999999999,-0.4653319999999999,-0.459142,-0.659913,1.536834
1335,-0.1284549999999999,0.8835290000000001,-0.450412,-0.232492,-0.256637,0.935627
1336,-0.115016,0.900486,-0.4193939999999999,-0.2544599999999999,-0.060184,0.8394229999999999
1337,-0.1164859999999999,0.922582,-0.367788,-0.192046,0.437113,0.970922
1338,-0.133967,0.941791,-0.308344,0.450663,0.518475,1.148065
1339,-0.147866,0.9502,-0.274316,0.498605,0.353359,0.8907870000000001
1340,-0.1539,0.95488,-0.253994,0.771683,0.207062,-0.534061
1341,-0.1608,0.966316,-0.200924,0.369647,-0.07624,-0.253361
1342,-0.165183,0.974942,-0.148982,0.270728,-0.171124,-0.298742
1343,-0.16203,0.979519,-0.119505,0.084623,-0.08044,0.029814
1344,-0.153927,0.983694,-0.092983,-0.057789,0.010478,0.174678
1345,-0.141515,0.987966,-0.062366,-0.151347,-0.06754,0.0608549999999999
1346,-0.1282589999999999,0.991224,-0.0319029999999999,-0.079932,-0.324735,0.088666
1347,-0.119522,0.992823,-0.002891,-0.048629,-0.37826,0.1826539999999999
1348,-0.117006,0.99293,0.019799,-0.1151259999999999,-0.259806,-0.067147
1349,-0.121374,0.991649,0.043488,-0.158579,-0.110393,-0.146424
1350,-0.135013,0.98773,0.07844,-0.08035,-2.8000000000000003e-05,-0.030954
1351,-0.152542,0.982101,0.11045,0.086044,0.163101,-0.2348239999999999
1352,-0.164793,0.975744,0.144075,0.180586,0.35882,-0.222398
1353,-0.166453,0.968801,0.183596,0.1714119999999999,0.4436279999999999,-0.300081
1354,-0.159478,0.96179,0.222523,0.337945,0.526751,-0.516835
1355,-0.158526,0.957812,0.2396989999999999,0.40053,0.452345,-0.7386
1356,-0.159998,0.961324,0.224155,0.3829599999999999,0.591258,-0.55286
1357,-0.157907,0.966592,0.201878,0.31054,0.524467,-0.635304
1358,-0.151679,0.972234,0.178164,0.27378,0.312327,-0.7746609999999999
1359,-0.145663,0.979425,0.139631,0.128314,0.286123,-0.7458779999999999
1360,-0.144591,0.986627,0.075165,0.077407,0.546759,0.091812
1361,-0.143141,0.989605,-0.013487,0.265471,0.6261939999999999,0.8578020000000001
1362,-0.13365,0.98545,-0.10496,-0.148241,0.6428149999999999,0.632579
1363,-0.124537,0.976048,-0.178358,-0.589101,0.892329,0.577284
1364,-0.1294,0.964124,-0.23176,-0.880518,0.840609,0.406915
1365,-0.152935,0.952591,-0.263006,-1.045795,0.173095,0.273916
1366,-0.179309,0.93896,-0.29359,-0.738934,-0.143031,0.37321
1367,-0.1832109999999999,0.925234,-0.332216,-0.026124,-0.203753,0.5146350000000001
1368,-0.164802,0.912406,-0.37463,0.218086,-0.190574,0.691281
1369,-0.153505,0.893733,-0.4215109999999999,0.648012,-0.159053,0.737841
1370,-0.161676,0.873551,-0.4590899999999999,0.59173,-0.331605,0.822234
1371,-0.15978,0.859783,-0.485013,0.206517,-0.429058,0.644117
1372,-0.157357,0.843988,-0.5127550000000001,0.0716789999999999,-0.6453939999999999,0.770736
1373,-0.157369,0.8327459999999999,-0.5308149999999999,-0.02154,-0.664411,0.813621
1374,-0.160687,0.8280770000000001,-0.537087,-0.136417,-0.658552,0.8087850000000001
1375,-0.164189,0.82889,-0.534768,-0.177394,-0.657977,0.6995939999999999
1376,-0.166765,0.8354090000000001,-0.523714,-0.171248,-0.633672,0.638521
1377,-0.169061,0.8472069999999999,-0.50364,-0.173987,-0.473443,0.516228
1378,-0.175742,0.863309,-0.4730819999999999,0.0423959999999999,1.312427,-1.689714
1379,-0.186604,0.871267,-0.453946,-0.000362,1.918833,-2.19945
1380,-0.19569,0.8572850000000001,-0.476195,-0.101155,0.178924,-0.6463939999999999
1381,-0.198127,0.8409989999999999,-0.503448,-0.189949,-0.43713,-0.4356239999999999
1382,-0.195197,0.8327549999999999,-0.518085,-0.1203849999999999,-0.37406,-0.370419
1383,-0.1958,0.8336120000000001,-0.516476,-0.564469,0.594489,0.487713
1384,-0.198838,0.836009,-0.511415,-0.734923,1.047154,0.3511829999999999
1385,-0.2056849999999999,0.834642,-0.510941,-0.49036,0.36656,0.585953
1386,-0.193305,0.8215540000000001,-0.536355,-0.689721,-1.13941,1.710549
1387,-0.181661,0.8266979999999999,-0.532507,-0.40597,-0.774162,1.313666
1388,-0.158181,0.8556370000000001,-0.492807,-0.229987,-0.047165,1.314157
1389,-0.141044,0.889769,-0.434063,-0.425683,0.394227,1.049237
1390,-0.129224,0.917431,-0.376316,-0.075427,0.754703,1.140263
1391,-0.134115,0.938226,-0.318963,0.372931,0.631995,1.114831
1392,-0.145207,0.947964,-0.283323,0.47266,0.387257,0.667509
1393,-0.154102,0.95364,-0.2584849999999999,0.787098,0.188434,-0.5969220000000001
1394,-0.168209,0.964703,-0.202596,0.568569,0.039829,-0.384196
1395,-0.17861,0.971575,-0.15534,0.289327,-0.031786,-0.075907
1396,-0.17515,0.976258,-0.127408,0.256235,-0.01941,0.097669
1397,-0.165206,0.981688,-0.094792,0.092818,-0.006026,0.042897
1398,-0.148084,0.987318,-0.057121,-0.033221,-0.166365,0.154838
1399,-0.130842,0.991115,-0.023652,-0.058917,-0.298259,-0.035934
1400,-0.1221609999999999,0.99245,0.010351,-0.0399329999999999,-0.3860659999999999,0.132944
1401,-0.1207029999999999,0.992074,0.034753,-0.055094,-0.233987,0.011054
1402,-0.125421,0.990604,0.054419,-0.181387,-0.095691,-0.122427
1403,-0.139445,0.98658,0.084865,-0.070394,-0.084984,-0.06808
1404,-0.158777,0.980051,0.119489,0.030069,-0.038751,-0.066861
1405,-0.175177,0.972751,0.151839,0.153311,0.333829,-0.333968
1406,-0.181464,0.964327,0.192693,0.159598,0.469862,-0.328069
1407,-0.174693,0.955732,0.2367369999999999,0.162364,0.4483359999999999,-0.542767
1408,-0.170336,0.949749,0.262578,0.318621,0.505497,-0.613698
1409,-0.178883,0.951314,0.250973,0.348561,0.584117,-0.46246
1410,-0.182991,0.957022,0.22496,0.35366,0.736703,-0.301712
1411,-0.1805109999999999,0.961675,0.206357,0.349364,0.467174,-0.73097
1412,-0.1706,0.968277,0.182541,0.394432,0.495758,-0.601364
1413,-0.165683,0.977751,0.128601,0.124423,0.387087,-0.548279
1414,-0.165094,0.984961,0.050827,-0.05306,0.466959,0.262665
1415,-0.166491,0.985356,-0.036639,0.11333,0.536373,0.854358
1416,-0.164748,0.978359,-0.125147,-0.169251,0.635716,0.699381
1417,-0.163236,0.966174,-0.199631,-0.5189699999999999,0.8608370000000001,0.4749609999999999
1418,-0.176305,0.953603,-0.244026,-0.6490739999999999,0.505976,0.34629
1419,-0.195316,0.944553,-0.263939,-0.5651970000000001,0.250592,0.37423
1420,-0.204749,0.93495,-0.289721,-0.244378,-0.008742,0.439104
1421,-0.182827,0.92473,-0.33383,0.101406,-0.15204,0.5682050000000001
1422,-0.148871,0.911261,-0.383972,0.601553,-0.10253,0.7332609999999999
1423,-0.128965,0.8935379999999999,-0.43006,0.6813170000000001,-0.086531,0.690894
1424,-0.129247,0.872373,-0.4714399999999999,0.303838,-0.360486,0.6386149999999999
1425,-0.137568,0.8453950000000001,-0.516117,0.046061,-0.5371520000000001,0.800678
1426,-0.153837,0.818166,-0.554016,-0.038623,-0.627737,0.8531489999999999
1427,-0.1715809999999999,0.798874,-0.5765020000000001,-0.235722,-0.6165619999999999,0.8671979999999999
1428,-0.187884,0.787713,-0.586689,-0.2610449999999999,-0.631005,0.81171
1429,-0.197052,0.7853319999999999,-0.5868720000000001,-0.197251,-0.621163,0.748326
1430,-0.1976119999999999,0.793273,-0.575902,-0.182454,-0.385329,0.384633
1431,-0.1960569999999999,0.810334,-0.552191,-0.122822,0.278014,-0.5652560000000001
1432,-0.197681,0.830989,-0.519976,-0.0517549999999999,1.5019280000000002,-1.752668
1433,-0.203447,0.8295389999999999,-0.5200670000000001,0.186601,1.6681419999999998,-1.47444
1434,-0.222106,0.817619,-0.5311899999999999,0.177931,0.081978,-0.305892
1435,-0.234157,0.80666,-0.542647,0.07156,-0.461399,-0.183489
1436,-0.237413,0.801725,-0.5485140000000001,-0.138381,-0.11485,0.148047
1437,-0.23617,0.8104819999999999,-0.536038,-0.466101,0.754474,0.4633
1438,-0.223146,0.825625,-0.518213,-0.5203840000000001,0.788755,0.545617
1439,-0.19224,0.836319,-0.513429,-0.845724,0.347748,0.112565
1440,-0.1781329999999999,0.842089,-0.509067,-0.475584,-0.653628,1.499729
1441,-0.165009,0.851952,-0.496934,-0.227675,-0.422921,1.072053
1442,-0.149113,0.873445,-0.463522,-0.193081,-0.000582,1.059042
1443,-0.143665,0.900716,-0.409956,-0.125577,0.406657,1.154798
1444,-0.150972,0.925957,-0.346127,0.292848,0.5329050000000001,1.202084
1445,-0.166763,0.936428,-0.308682,0.381103,0.466129,0.772228
1446,-0.185305,0.938278,-0.292041,0.699068,0.4224239999999999,-0.364865
1447,-0.204597,0.947887,-0.244217,0.507225,0.042897,-0.123642
1448,-0.217819,0.958476,-0.1840359999999999,0.2219239999999999,-0.145152,-0.092194
1449,-0.217594,0.964123,-0.152022,0.169742,-0.0636559999999999,-0.0021079999999999
1450,-0.206188,0.970471,-0.125149,0.126629,-0.035565,0.17445
1451,-0.191288,0.977072,-0.093429,-0.008785,-0.1339779999999999,-0.079804
1452,-0.175228,0.982813,-0.0579919999999999,-0.086384,-0.2096199999999999,-0.0420139999999999
1453,-0.160802,0.986608,-0.027142,-0.026775,-0.364293,0.10574
1454,-0.152319,0.988299,-0.007259,-0.094904,-0.206805,-0.083409
1455,-0.152144,0.988154,0.019795,-0.166445,-0.123454,-0.234807
1456,-0.162329,0.984892,0.060197,0.036627,0.019411,-0.05269
1457,-0.179787,0.979015,0.0958779999999999,0.109734,0.094837,-0.246162
1458,-0.191872,0.972078,0.135036,0.160225,0.2191449999999999,-0.350643
1459,-0.191648,0.96411,0.1837079999999999,0.058789,0.461,-0.488563
1460,-0.183079,0.95706,0.2247239999999999,0.234654,0.490922,-0.503624
1461,-0.1885609999999999,0.954853,0.22953,0.461601,0.427914,-0.414176
1462,-0.197325,0.957707,0.209391,0.40753,0.492992,-0.313715
1463,-0.197258,0.961217,0.192707,0.400307,0.677425,-0.354084
1464,-0.191503,0.964318,0.1827599999999999,0.32131,0.377265,-0.6961729999999999
1465,-0.179347,0.970026,0.163916,0.332362,0.334081,-0.710318
1466,-0.175824,0.977108,0.119713,0.046491,0.4289439999999999,-0.238533
1467,-0.180716,0.982536,0.044164,0.2662719999999999,0.505272,0.661891
1468,-0.184477,0.981917,-0.042366,0.143904,0.639253,0.708213
1469,-0.179746,0.975504,-0.126778,-0.277942,0.759268,0.628167
1470,-0.174873,0.964913,-0.1958369999999999,-0.666924,0.935645,0.464819
1471,-0.187377,0.950971,-0.246036,-0.801988,0.40555,0.369571
1472,-0.216763,0.937721,-0.271447,-0.806659,0.213692,0.4048239999999999
1473,-0.235507,0.925398,-0.296926,-0.151288,-0.168517,0.5188649999999999
1474,-0.2224179999999999,0.913827,-0.339767,0.114569,-0.265954,0.589599
1475,-0.194553,0.900724,-0.38838,0.429019,-0.236661,0.751005
1476,-0.178224,0.879835,-0.44059,0.83481,-0.159025,0.860268
1477,-0.182715,0.856792,-0.482199,0.373145,-0.366039,0.73905
1478,-0.185056,0.838752,-0.512097,0.147046,-0.562186,0.689526
1479,-0.187409,0.8218620000000001,-0.5379729999999999,0.011201,-0.643456,0.805429
1480,-0.194793,0.810188,-0.552852,-0.049516,-0.606621,0.8815879999999999
1481,-0.205167,0.804161,-0.5578770000000001,-0.122317,-0.641746,0.811539
1482,-0.215238,0.803489,-0.555042,-0.112414,-0.622474,0.761417
1483,-0.222301,0.8113060000000001,-0.540702,-0.172443,-0.379544,0.5092840000000001
1484,-0.227261,0.828591,-0.511649,-0.136875,0.293724,-0.461099
1485,-0.228325,0.851558,-0.471922,-0.175941,1.764775,-2.284899
1486,-0.220961,0.8501860000000001,-0.477864,-0.1489579999999999,1.846836,-2.010448
1487,-0.222927,0.8360719999999999,-0.501279,0.127361,-0.066648,-0.393099
1488,-0.223435,0.828799,-0.512995,0.127122,-0.245303,-0.160223
1489,-0.228055,0.8251459999999999,-0.516835,0.227948,-0.431882,0.3608449999999999
1490,-0.234096,0.8288049999999999,-0.508208,-0.196232,0.1188109999999999,0.848051
1491,-0.231005,0.840774,-0.489622,-0.329893,0.321641,1.105436
1492,-0.202146,0.859448,-0.469553,-0.8719049999999999,1.314075,-0.7585810000000001
1493,-0.170346,0.889049,-0.424934,-1.29433,1.883611,-1.993416
1494,-0.161581,0.89155,-0.423112,-0.262705,-0.674768,1.256456
1495,-0.140814,0.89304,-0.427371,-0.318033,-0.239262,0.8278989999999999
1496,-0.1287309999999999,0.90806,-0.398559,-0.275368,-0.176523,0.862289
1497,-0.137554,0.929114,-0.3432469999999999,-0.032673,0.069207,1.132004
1498,-0.158076,0.944453,-0.288119,0.453959,0.442113,1.1339290000000002
1499,-0.179637,0.948547,-0.260733,0.449366,0.417191,0.892584
1500,-0.196844,0.948089,-0.24974,0.6112270000000001,0.381195,-0.14447
1501,-0.199917,0.958806,-0.2017779999999999,0.508679,0.033305,-0.355488
1502,-0.196016,0.971361,-0.134259,0.250871,-0.2156699999999999,-0.378894
1503,-0.184945,0.977947,-0.096982,0.0860679999999999,-0.167354,-0.211001
1504,-0.170225,0.982945,-0.069523,-0.02965,0.06686,0.161289
1505,-0.153577,0.98715,-0.044037,-0.142626,-0.2011089999999999,0.0288399999999999
1506,-0.1396359999999999,0.989946,-0.0223389999999999,-0.0298589999999999,-0.370149,0.134155
1507,-0.133379,0.991039,-0.006459,-0.010191,-0.378841,0.099492
1508,-0.136037,0.990631,0.011622,-0.119319,-0.22583,-0.123073
1509,-0.148138,0.988026,0.043007,-0.0284069999999999,0.031475,-0.012978
1510,-0.167494,0.983093,0.073919,0.049132,0.081177,-0.099737
1511,-0.185717,0.976916,0.105516,0.18265,0.243024,-0.165346
1512,-0.193023,0.970319,0.145642,0.300277,0.353686,-0.186017
1513,-0.190904,0.964239,0.1838119999999999,0.381745,0.496561,-0.214833
1514,-0.187873,0.959753,0.2087239999999999,0.53733,0.5063880000000001,-0.349029
1515,-0.184906,0.959235,0.213698,0.321686,0.582925,-0.487624
1516,-0.179174,0.96247,0.203807,0.28626,0.677316,-0.5277350000000001
1517,-0.173833,0.966036,0.191165,0.264287,0.34181,-0.6655760000000001
1518,-0.163881,0.971384,0.171888,0.243761,0.365454,-0.7818579999999999
1519,-0.1569849999999999,0.978667,0.132498,0.155093,0.323426,-0.685339
1520,-0.154905,0.985834,0.064222,0.129331,0.494131,0.359026
1521,-0.150696,0.988324,-0.022279,0.130753,0.511554,0.758775
1522,-0.143998,0.983925,-0.1055789999999999,-0.28485,0.688286,0.601016
1523,-0.138487,0.974131,-0.178553,-0.686235,1.1409049999999998,0.5466409999999999
1524,-0.151168,0.959694,-0.236913,-0.8660899999999999,0.576836,0.360037
1525,-0.1804619999999999,0.94654,-0.267371,-0.891605,-0.0434639999999999,0.294379
1526,-0.2076059999999999,0.933129,-0.293534,-0.5690810000000001,-0.283852,0.490266
1527,-0.2092969999999999,0.921783,-0.32635,-0.03196,-0.231628,0.592738
1528,-0.181304,0.910892,-0.370673,0.292632,-0.184345,0.708167
1529,-0.166213,0.886447,-0.4319479999999999,0.760207,-0.2463409999999999,0.783342
1530,-0.182361,0.859196,-0.478039,0.609897,-0.22089,0.817746
1531,-0.18957,0.8438969999999999,-0.501891,0.182948,-0.485926,0.666458
1532,-0.187663,0.8291700000000001,-0.52655,0.022975,-0.62873,0.734711
1533,-0.189869,0.818404,-0.5423640000000001,-0.109691,-0.654311,0.793814
1534,-0.197941,0.812973,-0.547622,-0.151134,-0.735596,0.811538
1535,-0.2097369999999999,0.81255,-0.543845,-0.097834,-0.724568,0.7769689999999999
1536,-0.221457,0.818814,-0.529619,-0.022287,-0.554623,0.657213
1537,-0.229931,0.831834,-0.505151,-0.110996,-0.0105,-0.01879
1538,-0.238234,0.8499950000000001,-0.469839,-0.040361,1.223629,-1.7390849999999998
1539,-0.2346,0.8542200000000001,-0.463967,0.057476,2.039396,-1.966636
1540,-0.242457,0.837527,-0.489651,-0.054738,0.139982,-0.484745
1541,-0.248148,0.824326,-0.508826,-0.133581,-0.483781,-0.3788849999999999
1542,-0.250194,0.821993,-0.511592,-0.518392,0.056608,0.17512
1543,-0.252975,0.826773,-0.5024390000000001,-0.7487189999999999,0.659662,0.4441199999999999
1544,-0.250629,0.8299989999999999,-0.498278,-0.165188,0.8267540000000001,0.7050810000000001
1545,-0.232752,0.827399,-0.511108,-0.508657,-0.335685,0.662384
1546,-0.203589,0.831368,-0.517083,-0.8044520000000001,-0.802177,1.152489
1547,-0.19183,0.851601,-0.4878229999999999,-0.1834599999999999,-0.513848,1.244522
1548,-0.171018,0.8801399999999999,-0.442833,-0.176669,0.186251,1.140969
1549,-0.153991,0.912,-0.38018,-0.241761,0.611926,1.151237
1550,-0.1457119999999999,0.936607,-0.318636,0.138479,0.5538109999999999,1.120378
1551,-0.142663,0.950453,-0.276188,0.2435699999999999,0.382479,0.7597689999999999
1552,-0.142648,0.956763,-0.253476,0.4215029999999999,0.234918,0.028332
1553,-0.149056,0.964614,-0.217473,0.669045,0.123109,-0.308589
1554,-0.1645859999999999,0.971182,-0.172362,0.211034,-0.029272,0.011565
1555,-0.173427,0.973498,-0.14905,0.161495,-0.064578,0.143587
1556,-0.170776,0.977777,-0.12157,0.109924,-0.1185089999999999,0.135913
1557,-0.164982,0.982481,-0.086622,0.0074959999999999,-0.147337,0.108457
1558,-0.157032,0.986323,-0.049974,-0.042385,-0.170467,0.158891
1559,-0.150047,0.988526,-0.0170939999999999,-0.020455,-0.36406,0.189366
1560,-0.144252,0.989501,0.008298,-0.0528309999999999,-0.21585,0.134021
1561,-0.146457,0.98865,0.033317,-0.061124,-0.143726,-0.133918
1562,-0.156093,0.985531,0.0659759999999999,-0.000554,-0.111416,-0.176923
1563,-0.169829,0.980282,0.100967,0.106596,0.039616,-0.1040339999999999
1564,-0.184356,0.974011,0.131545,0.098602,0.3017309999999999,-0.286238
1565,-0.192647,0.966178,0.171392,0.072972,0.430886,-0.26383
1566,-0.1911,0.957468,0.2161539999999999,0.240248,0.338568,-0.459227
1567,-0.18582,0.948888,0.255086,0.517409,0.4919229999999999,-0.5968829999999999
1568,-0.193118,0.945628,0.261688,0.524341,0.5357569999999999,-0.5839529999999999
1569,-0.199455,0.950567,0.237967,0.527564,0.60348,-0.439246
1570,-0.189974,0.958288,0.213498,0.375734,0.540155,-0.4605979999999999
1571,-0.1728559999999999,0.966802,0.188158,0.102162,0.49145,-0.482439
1572,-0.155816,0.977416,0.142715,-0.2391889999999999,0.332078,-0.5674739999999999
1573,-0.144465,0.98617,0.081172,-0.373403,0.2961789999999999,-0.352717
1574,-0.142242,0.989808,0.006206,-0.117752,0.299575,0.595326
1575,-0.1444619999999999,0.986613,-0.075613,-0.367836,0.708746,0.618581
1576,-0.1494839999999999,0.976983,-0.152153,-0.65589,0.847922,0.331169
1577,-0.162476,0.964321,-0.208996,-0.759109,0.317494,0.329251
1578,-0.176691,0.953545,-0.243981,-0.74085,-0.049309,0.371483
1579,-0.187825,0.942718,-0.275679,-0.366863,-0.1557,0.510939
1580,-0.184937,0.931404,-0.3134949999999999,0.106583,-0.149696,0.5326569999999999
1581,-0.176128,0.914158,-0.365088,0.313289,-0.142872,0.555411
1582,-0.182626,0.884842,-0.4285989999999999,0.6073850000000001,-0.175889,0.858485
1583,-0.194632,0.861088,-0.469725,0.491782,-0.236393,0.7777229999999999
1584,-0.200375,0.8441209999999999,-0.4972979999999999,0.1608089999999999,-0.439717,0.7255689999999999
1585,-0.199856,0.8275459999999999,-0.524616,0.0526549999999999,-0.571763,0.7631720000000001
1586,-0.19787,0.815566,-0.543779,-0.052221,-0.589446,0.8227709999999999
1587,-0.200351,0.810552,-0.5503279999999999,-0.1049619999999999,-0.616582,0.8077439999999999
1588,-0.206311,0.811611,-0.546552,-0.057589,-0.661678,0.7916850000000001
1589,-0.213805,0.819507,-0.531687,-0.0311439999999999,-0.599567,0.652704
1590,-0.221706,0.834585,-0.504292,-0.184467,-0.1519829999999999,0.267994
1591,-0.2320449999999999,0.856218,-0.461564,-0.084986,0.612486,-0.94844
1592,-0.229567,0.8735870000000001,-0.429116,-0.369127,2.385309,-3.1795720000000003
1593,-0.235536,0.858736,-0.4550729999999999,-0.00778,0.683363,-0.8208059999999999
1594,-0.245219,0.8451559999999999,-0.474948,0.152766,-0.379457,-0.208875
1595,-0.245619,0.8384889999999999,-0.4864189999999999,-0.1187609999999999,-0.298923,0.007797
1596,-0.249681,0.8371350000000001,-0.486683,-0.431533,-0.041176,0.8284950000000001
1597,-0.250363,0.841572,-0.478613,-0.4357029999999999,0.4365189999999999,0.946035
1598,-0.2298369999999999,0.8488899999999999,-0.47598,-0.868643,0.951312,0.332944
1599,-0.206709,0.858416,-0.469456,-0.355455,-0.491167,1.689167
1600,-0.218528,0.85864,-0.463658,0.080192,-0.39137,1.322743
1601,-0.201897,0.86787,-0.45391,0.011712,-0.051006,1.178779
1602,-0.1856809999999999,0.8915629999999999,-0.413077,0.2100179999999999,0.436562,1.25791
1603,-0.178329,0.918857,-0.351989,0.4146109999999999,0.522031,1.147445
1604,-0.176876,0.936383,-0.303145,0.406033,0.348102,0.6993090000000001
1605,-0.1797099999999999,0.945084,-0.272974,0.510093,0.173294,0.117502
1606,-0.185384,0.953622,-0.237134,0.400045,-0.025811,-0.2120989999999999
1607,-0.187968,0.967148,-0.17113,0.169826,-0.10701,-0.076123
1608,-0.180716,0.975529,-0.125215,0.038824,-0.15778,-0.118788
1609,-0.168463,0.981419,-0.09181,-0.0220889999999999,-0.170476,-0.036577
1610,-0.153667,0.986448,-0.057436,-0.136769,-0.0590799999999999,0.1391619999999999
1611,-0.138745,0.989907,-0.0287639999999999,-0.15813,-0.4253159999999999,0.11728
1612,-0.126819,0.991864,-0.010711,-0.1602289999999999,-0.347959,0.017486
1613,-0.123482,0.992221,0.015519,-0.168648,-0.212558,-0.131364
1614,-0.133338,0.989671,0.052576,-0.029763,-0.089952,-0.0396829999999999
1615,-0.153821,0.984635,0.082611,0.048307,0.037811,-0.129776
1616,-0.177428,0.978442,0.105655,0.105681,0.119093,-0.301594
1617,-0.191961,0.971675,0.1378059999999999,0.127767,0.247548,-0.180973
1618,-0.193719,0.965317,0.175005,0.265451,0.290695,-0.23012
1619,-0.188248,0.959673,0.208761,0.465577,0.4868449999999999,-0.2559869999999999
1620,-0.185474,0.957368,0.221442,0.459309,0.509887,-0.4126189999999999
1621,-0.1814,0.95946,0.215688,0.015049,0.413114,-0.495656
1622,-0.17385,0.961993,0.210565,-0.127069,0.475202,-0.578073
1623,-0.175285,0.963152,0.203971,-0.054909,0.619596,-0.751746
1624,-0.17728,0.967766,0.178866,0.5403479999999999,0.435112,-0.7442340000000001
1625,-0.179551,0.974627,0.133622,0.5263680000000001,0.511441,-0.640839
1626,-0.183701,0.981247,0.058311,0.2104489999999999,0.506088,0.313881
1627,-0.1801559999999999,0.98308,-0.033033,0.277919,0.552,0.708539
1628,-0.170977,0.978156,-0.118199,-0.133055,0.649148,0.641041
1629,-0.167046,0.967315,-0.190765,-0.587242,1.112763,0.731475
1630,-0.183259,0.950563,-0.250682,-0.817886,0.638152,0.256038
1631,-0.216008,0.934808,-0.281902,-0.779048,0.138297,0.3321949999999999
1632,-0.246441,0.921244,-0.30095,-0.578159,-0.325403,0.5002300000000001
1633,-0.250271,0.908982,-0.333334,0.056622,-0.2119599999999999,0.556326
1634,-0.229979,0.895442,-0.381168,0.29788,-0.1849309999999999,0.6823
1635,-0.220051,0.867431,-0.446248,0.740436,-0.103896,0.649403
1636,-0.23803,0.8337700000000001,-0.498162,0.781975,-0.1796559999999999,1.046349
1637,-0.252154,0.812343,-0.525845,0.229006,-0.460262,0.775266
1638,-0.260791,0.792222,-0.551697,0.150546,-0.509812,0.8343200000000001
1639,-0.271771,0.776976,-0.567843,0.0276459999999999,-0.5797859999999999,0.900317
1640,-0.286031,0.769967,-0.57038,-0.089503,-0.630761,0.929679
1641,-0.297176,0.772429,-0.561282,-0.08144,-0.7015060000000001,0.82973
1642,-0.303193,0.785177,-0.53997,-0.033523,-0.659506,0.775123
1643,-0.3038599999999999,0.807412,-0.505718,-0.179507,-0.210061,0.357769
1644,-0.303242,0.8351700000000001,-0.458837,-0.33694,1.6654099999999998,-2.233302
1645,-0.290734,0.850347,-0.438611,-0.559303,2.511378,-3.3148980000000003
1646,-0.2919469999999999,0.833392,-0.469277,0.06601,-0.219348,-0.439033
1647,-0.293484,0.823048,-0.486267,0.103528,-0.487767,-0.338013
1648,-0.2943989999999999,0.819509,-0.4916609999999999,-0.179752,-0.074529,0.3624489999999999
1649,-0.303126,0.8213,-0.483299,-0.435857,0.536473,0.8666450000000001
1650,-0.303423,0.8264370000000001,-0.474271,-0.433256,1.385431,0.8625010000000001
1651,-0.280804,0.8350049999999999,-0.4731939999999999,-0.909672,0.374605,-0.286969
1652,-0.254325,0.8309129999999999,-0.4948729999999999,-0.3721239999999999,-0.968517,1.875122
1653,-0.234353,0.839929,-0.489485,-0.21714,-0.4707119999999999,1.143369
1654,-0.207683,0.8637100000000001,-0.459205,-0.250569,-0.111497,0.978264
1655,-0.18927,0.891892,-0.410732,-0.226868,0.305953,1.051876
1656,-0.191539,0.918419,-0.346144,0.232784,0.625221,1.3571
1657,-0.200745,0.932714,-0.299569,0.427902,0.3794349999999999,1.026803
1658,-0.203769,0.939196,-0.276378,0.364383,0.333891,0.5037189999999999
1659,-0.203468,0.945808,-0.253067,0.688591,0.154747,-0.673294
1660,-0.2086489999999999,0.961152,-0.180688,0.336564,-0.110215,-0.178123
1661,-0.207267,0.96989,-0.127859,0.200522,-0.108165,-0.183451
1662,-0.19445,0.975736,-0.100607,0.107566,-0.049513,-0.039988
1663,-0.178776,0.981154,-0.073277,-0.0364639999999999,-0.014464,0.188191
1664,-0.163993,0.985496,-0.043568,-0.082192,-0.247809,0.155399
1665,-0.151809,0.988259,-0.017078,-0.0321199999999999,-0.414635,0.227451
1666,-0.145879,0.989299,-0.0004849999999999,-0.19247,-0.213633,-0.1856259999999999
1667,-0.147768,0.988758,0.022663,-0.175398,-0.08997,-0.1754339999999999
1668,-0.160693,0.985035,0.062244,-0.046659,0.0566669999999999,0.018185
1669,-0.180717,0.978912,0.095205,0.111701,0.203431,-0.276631
1670,-0.198629,0.971613,0.128474,0.148366,0.3224849999999999,-0.313517
1671,-0.206508,0.963003,0.173115,0.136973,0.4006139999999999,-0.2827949999999999
1672,-0.20352,0.954169,0.219388,0.595854,0.44285,-0.459302
1673,-0.2039369999999999,0.947755,0.245276,0.6461979999999999,0.456893,-0.504004
1674,-0.2116719999999999,0.950377,0.227964,0.570238,0.457704,-0.555662
1675,-0.206089,0.957163,0.2033599999999999,0.331577,0.589651,-0.392203
1676,-0.197608,0.961496,0.190961,0.085242,0.290366,-0.764096
1677,-0.186901,0.967442,0.170628,0.066844,0.261684,-0.787007
1678,-0.187431,0.974776,0.121126,0.123191,0.408815,0.002302
1679,-0.195402,0.979753,0.043506,0.3013889999999999,0.593535,0.5353060000000001
1680,-0.194913,0.979714,-0.046488,0.270108,0.6267010000000001,0.780192
1681,-0.183553,0.974108,-0.131962,-0.185587,0.694837,0.628895
1682,-0.1747369999999999,0.96273,-0.2064219999999999,-0.621604,1.037941,0.614595
1683,-0.189661,0.946265,-0.261924,-0.8252010000000001,0.5996640000000001,0.295661
1684,-0.224984,0.931239,-0.286652,-0.789146,0.112126,0.402833
1685,-0.258431,0.916692,-0.304766,-0.62284,-0.296331,0.3405019999999999
1686,-0.264158,0.902734,-0.339537,0.09416,-0.1466309999999999,0.500685
1687,-0.249142,0.884531,-0.394371,0.253613,-0.279459,0.691871
1688,-0.238821,0.856793,-0.457017,0.493414,-0.214429,0.8548600000000001
1689,-0.256458,0.826556,-0.501029,0.5691109999999999,-0.244418,0.8531709999999999
1690,-0.269594,0.810393,-0.5201720000000001,0.339479,-0.39102,0.721191
1691,-0.27095,0.795525,-0.5419619999999999,0.109588,-0.572975,0.788987
1692,-0.2771929999999999,0.784469,-0.554769,0.00342,-0.573928,0.908773
1693,-0.287677,0.7795949999999999,-0.5563,-0.035626,-0.587975,0.911082
1694,-0.295978,0.782345,-0.548024,-0.040311,-0.671215,0.826573
1695,-0.300464,0.794043,-0.528405,0.020816,-0.4391239999999999,0.649514
1696,-0.303271,0.814367,-0.494802,-0.0410279999999999,-0.195379,0.399816
1697,-0.3079469999999999,0.8412,-0.444463,-0.275336,1.388598,-2.025309
1698,-0.297294,0.856859,-0.4211939999999999,-0.440774,1.768355,-1.757944
1699,-0.300559,0.837564,-0.45623,0.066581,-0.029077,-0.437889
1700,-0.303768,0.8248530000000001,-0.4768,0.002193,-0.207406,-0.244742
1701,-0.301799,0.822823,-0.481534,-0.47112,0.301856,0.35629
1702,-0.308652,0.822995,-0.4768739999999999,-0.308932,0.933368,0.426703
1703,-0.308126,0.824708,-0.4742479999999999,-0.025584,1.5836940000000002,-0.15919
1704,-0.296634,0.8203229999999999,-0.488952,-0.268476,-0.6974600000000001,1.5824120000000002
1705,-0.2494449999999999,0.8039729999999999,-0.539816,-0.502355,-1.241015,1.523306
1706,-0.2015839999999999,0.820616,-0.534742,-0.484574,-0.65518,0.97891
1707,-0.178195,0.860824,-0.476681,-0.4344909999999999,-0.128707,1.132184
1708,-0.164292,0.900302,-0.403062,-0.455413,0.282025,0.937303
1709,-0.164155,0.929205,-0.331097,-0.353988,0.473749,0.959194
1710,-0.173827,0.939689,-0.294556,0.234938,0.506494,0.922272
1711,-0.188701,0.941518,-0.279159,0.721874,0.376063,-0.685685
1712,-0.19677,0.947745,-0.251107,0.932778,0.206369,-0.6488109999999999
1713,-0.201123,0.964626,-0.170409,0.820157,0.088002,-0.1969769999999999
1714,-0.198123,0.97197,-0.126549,0.210529,-0.1150359999999999,-0.14254
1715,-0.185124,0.976698,-0.108552,0.179188,-0.0013859999999999,0.08542
1716,-0.170047,0.981718,-0.0854679999999999,0.040607,0.04825,0.331669
1717,-0.153632,0.986375,-0.058771,-0.159341,-0.347657,0.238473
