,gravity.x,gravity.y,gravity.z,userAcceleration.x,userAcceleration.y,userAcceleration.z
0,-0.381922,0.874484,-0.299017,-0.0364899999999999,0.025617,0.172933
1,-0.386268,0.868384,-0.310971,0.095435,0.007928,0.166622
2,-0.382943,0.8622,-0.331606,0.0810179999999999,-0.1766829999999999,0.111605
3,-0.379607,0.856993,-0.348509,-0.192628,-0.183318,0.06909
4,-0.387094,0.8550200000000001,-0.345104,-0.166663,-0.22471,0.2219199999999999
5,-0.391691,0.856368,-0.336466,0.060545,-0.270065,0.198053
6,-0.390719,0.8579600000000001,-0.333528,0.114061,-0.244679,0.1266789999999999
7,-0.386834,0.8621340000000001,-0.327234,0.02958,-0.041058,0.073785
8,-0.384396,0.8684459999999999,-0.313112,-0.149052,-0.1176059999999999,0.14287
9,-0.383722,0.8749020000000001,-0.295467,-0.149725,-0.124063,0.125225
10,-0.383119,0.879331,-0.282832,-0.002623,0.084551,-0.030874
11,-0.38226,0.88292,-0.272628,-0.0452459999999999,0.092254,-0.032685
12,-0.3871679999999999,0.882122,-0.26825,-0.195825,0.128406,-0.07962
13,-0.394038,0.878009,-0.2717179999999999,-0.294118,0.1544,-0.140849
14,-0.397108,0.874066,-0.279839,-0.225939,-0.017789,-0.25814
15,-0.395023,0.8726139999999999,-0.287224,-0.2280239999999999,-0.016337,-0.250755
16,-0.393418,0.872798,-0.288865,-0.0127409999999999,-0.225382,-0.129089
17,-0.385233,0.876676,-0.28815,0.2463469999999999,-0.27429,-0.033932
18,-0.3680719999999999,0.887391,-0.277591,0.229186,-0.285004,-0.044492
19,-0.339771,0.902149,-0.265854,-0.129803,0.129498,-0.055633
20,-0.307323,0.916273,-0.256891,-0.071126,0.262469,-0.234457
21,-0.279057,0.9263,-0.253162,-0.030254,0.316192,-0.214687
22,-0.261542,0.931996,-0.250949,-0.061121,0.149349,0.040622
23,-0.253715,0.933191,-0.254517,-0.139809,0.064123,0.0927279999999999
24,-0.249303,0.932096,-0.262756,-0.097544,-0.056349,0.175125
25,-0.2453739999999999,0.934312,-0.258552,0.076566,-0.21074,0.4253
26,-0.2394639999999999,0.941182,-0.23839,0.180198,-0.002355,0.378816
27,-0.232788,0.94865,-0.2141719999999999,0.18129,0.07343,0.266052
28,-0.227842,0.955315,-0.188299,0.241804,0.0187139999999999,0.138006
29,-0.222502,0.960679,-0.166089,0.09532,0.160705,0.169293
30,-0.216189,0.965723,-0.1436579999999999,0.003375,0.0663049999999999,0.178845
31,-0.206894,0.970543,-0.123441,-0.074494,-0.053535,0.107679
32,-0.199958,0.974459,-0.1021909999999999,-0.0129319999999999,0.091429,0.108813
33,-0.197603,0.976995,-0.080178,0.0218669999999999,0.074518,0.0938799999999999
34,-0.195429,0.978443,-0.066726,0.151316,0.010495,0.018295
35,-0.193568,0.979386,-0.0577059999999999,0.149165,0.045379,0.032376
36,-0.1921109999999999,0.980368,-0.044343,0.147448,0.0562379999999999,0.019013
37,-0.189801,0.981512,-0.024589,0.1675839999999999,0.029368,0.056282
38,-0.186878,0.98238,-0.000384,0.149021,-0.003819,0.112857
39,-0.1834609999999999,0.982709,0.024876,0.11234,0.012148,0.102519
40,-0.1809339999999999,0.982353,0.047324,-0.018834,-0.1155009999999999,0.067499
41,-0.180903,0.98136,0.064823,-0.07073,-0.129065,0.010006
42,-0.182749,0.979786,0.081353,-0.1123869999999999,-0.174289,-0.082741
43,-0.186415,0.97747,0.098974,0.095412,0.016365,-0.094336
44,-0.191846,0.974364,0.117494,0.102445,0.052919,-0.1144119999999999
45,-0.197494,0.9709,0.135439,0.171173,0.092607,-0.196398
46,-0.201818,0.967798,0.150437,0.135778,0.088644,-0.225175
47,-0.205127,0.965852,0.158267,0.103473,0.086028,-0.273838
48,-0.2070429999999999,0.96498,0.161064,0.186382,0.1827859999999999,-0.1721869999999999
49,-0.210344,0.964359,0.160501,0.024645,0.267986,-0.170664
50,-0.2150719999999999,0.963775,0.157723,-0.149201,0.085557,-0.328103
51,-0.221127,0.963031,0.153847,-0.0529059999999999,0.100613,-0.24453
52,-0.228755,0.962622,0.145005,0.140025,0.302546,-0.132615
53,-0.234548,0.963795,0.126814,0.280675,0.19984,-0.022321
54,-0.237866,0.966288,0.098508,0.183239,0.192144,0.032443
55,-0.241821,0.96842,0.060673,-0.1247109999999999,0.174127,0.082485
56,-0.25031,0.968032,0.015979,-0.247356,0.1267859999999999,0.096845
57,-0.2631239999999999,0.964217,-0.03238,-0.210173,0.207796,0.145738
58,-0.270771,0.959017,-0.08346,-0.110576,0.324567,0.16392
59,-0.268687,0.954188,-0.131642,0.085719,0.197896,0.112522
60,-0.266531,0.950261,-0.161131,0.071158,0.300838,0.194624
61,-0.274985,0.946237,-0.170342,-0.012643,0.22515,0.411095
62,-0.286796,0.940252,-0.183498,-0.002419,0.015238,0.503841
63,-0.298603,0.931289,-0.208648,0.012943,-0.0201259999999999,0.525008
64,-0.308431,0.918939,-0.245804,0.041753,-0.0064629999999999,0.434372
65,-0.316102,0.903414,-0.289689,-0.02925,-0.0597409999999999,0.311921
66,-0.323115,0.885757,-0.33321,-0.03452,-0.084472,0.2289769999999999
67,-0.3321739999999999,0.8685950000000001,-0.367698,-0.029581,-0.127353,0.225501
68,-0.340091,0.8549760000000001,-0.391601,0.013141,-0.192379,0.161545
69,-0.346509,0.84535,-0.406587,0.022351,-0.2120949999999999,0.155412
70,-0.349725,0.839939,-0.4149609999999999,0.062769,-0.228626,0.127088
71,-0.348418,0.838039,-0.4198739999999999,-0.018174,-0.279323,0.142424
72,-0.3456619999999999,0.839133,-0.419965,-0.045451,-0.31388,0.183881
73,-0.343753,0.8429200000000001,-0.413904,0.0140259999999999,-0.357081,0.253213
74,-0.3426949999999999,0.849065,-0.402053,0.022321,-0.247701,0.18782
75,-0.339369,0.8588370000000001,-0.3836989999999999,-0.011187,-0.234112,0.1267859999999999
76,-0.334023,0.8718030000000001,-0.358308,-0.0619269999999999,-0.1479869999999999,-0.013274
77,-0.326448,0.8855700000000001,-0.330444,-0.076262,0.1950569999999999,-0.315308
78,-0.31903,0.8968379999999999,-0.306427,-0.066315,0.61839,-0.521454
79,-0.319721,0.8974850000000001,-0.303803,-0.200985,0.573417,-0.665115
80,-0.326096,0.884193,-0.334457,-0.142654,0.2245869999999999,-0.6461640000000001
81,-0.33432,0.8725930000000001,-0.356102,0.043854,-0.46645,-0.432274
82,-0.340043,0.871848,-0.352489,0.2294469999999999,-0.5532600000000001,0.063854
83,-0.331484,0.882058,-0.334798,-0.002012,0.112068,0.1955
84,-0.309515,0.897466,-0.314249,-0.179224,0.122279,0.146616
85,-0.287807,0.911759,-0.293017,-0.303807,0.723052,0.175219
86,-0.281794,0.922564,-0.2635619999999999,-0.464193,0.8887,0.543988
87,-0.288028,0.924091,-0.251182,-0.495237,0.1544309999999999,0.6893229999999999
88,-0.288582,0.922054,-0.25794,0.39341,-0.478802,0.1920059999999999
89,-0.274985,0.9323,-0.234938,0.394232,0.011196,-0.043688
90,-0.264271,0.944773,-0.193806,0.375798,0.415533,-0.193859
91,-0.252357,0.953144,-0.166816,0.168663,0.190182,0.274467
92,-0.227875,0.962829,-0.145016,0.0538019999999999,-0.168746,0.34483
93,-0.209814,0.970833,-0.1160079999999999,-0.068781,-0.357658,0.234629
94,-0.216085,0.972922,-0.082012,-0.254831,-0.239127,0.200588
95,-0.227555,0.972273,-0.053854,-0.212082,0.139223,0.195776
96,-0.226066,0.973811,-0.024114,-0.149163,0.171391,0.119924
97,-0.2171719999999999,0.976044,0.013038,0.246073,-0.045258,0.289956
98,-0.210111,0.976692,0.043842,0.260449,-0.0555649999999999,0.255032
99,-0.207394,0.976161,0.063968,0.1763569999999999,0.007161,0.206677
100,-0.206425,0.975422,0.077043,0.04836,0.054195,0.086882
101,-0.2043559999999999,0.974767,0.089797,0.0100349999999999,0.005931,-0.0568529999999999
102,-0.2018319999999999,0.973764,0.105082,0.019153,-0.08349,-0.183131
103,-0.20139,0.971765,0.122918,-0.001018,-0.073831,-0.229242
104,-0.203003,0.968682,0.142965,0.011063,-0.0481959999999999,-0.156194
105,-0.206207,0.964938,0.162381,0.023071,-0.007556,-0.148755
106,-0.210209,0.961065,0.179331,0.138813,0.036142,-0.2194159999999999
107,-0.213058,0.958704,0.188377,0.181289,0.099569,-0.2182849999999999
108,-0.214799,0.957969,0.190132,0.126694,0.169991,-0.175942
109,-0.214376,0.958833,0.186211,0.019949,0.175597,-0.0618059999999999
110,-0.216065,0.959338,0.181603,-0.133575,0.169568,-0.222817
111,-0.219978,0.959522,0.175838,-0.11657,0.112789,-0.333828
112,-0.226311,0.959565,0.167365,0.121575,0.309051,-0.09835
113,-0.230134,0.961514,0.150071,0.289323,0.28165,-0.0432139999999999
114,-0.229919,0.965575,0.12163,0.287598,0.368181,-0.016894
115,-0.229173,0.96991,0.0821279999999999,-0.116606,0.242919,0.005167
116,-0.232504,0.971962,0.0349839999999999,-0.267267,0.0223009999999999,0.104222
117,-0.246131,0.969061,-0.018226,-0.314629,0.099161,0.178337
118,-0.2631239999999999,0.961758,-0.076024,-0.247969,0.3381989999999999,0.202032
119,-0.27046,0.953003,-0.13649,-0.056322,0.206711,0.107773
120,-0.2707449999999999,0.944099,-0.1880619999999999,-0.056037,0.215615,0.159345
121,-0.275758,0.933956,-0.2273239999999999,-0.01158,0.31319,0.512541
122,-0.290784,0.918424,-0.268207,0.0578889999999999,0.108538,0.518894
123,-0.3068099999999999,0.896438,-0.319782,0.058274,0.103684,0.452655
124,-0.323966,0.8715649999999999,-0.367989,0.010214,0.0200669999999999,0.341728
125,-0.339988,0.8458450000000001,-0.411035,-0.0616539999999999,-0.100239,0.2398469999999999
126,-0.350296,0.8220870000000001,-0.448845,-0.065064,-0.1342819999999999,0.258934
127,-0.360295,0.802916,-0.4748779999999999,0.10761,-0.234205,0.4165439999999999
128,-0.372105,0.787443,-0.491393,0.128911,-0.417081,0.29782
129,-0.381416,0.77846,-0.4985159999999999,0.016853,-0.430285,0.265026
130,-0.382269,0.778497,-0.4978039999999999,0.0471399999999999,-0.447213,0.249574
131,-0.379562,0.783708,-0.49166,0.094665,-0.441804,0.209052
132,-0.374651,0.7932939999999999,-0.479914,0.072328,-0.461064,0.195124
133,-0.367372,0.807531,-0.461439,0.028505,-0.353201,0.136656
134,-0.357529,0.82742,-0.433064,-0.023056,-0.356869,-0.019939
135,-0.3483159999999999,0.8510620000000001,-0.392891,-0.094997,-0.308048,-0.123207
136,-0.338468,0.87316,-0.350751,-0.075839,0.708246,-0.6149319999999999
137,-0.335029,0.8833629999999999,-0.3277489999999999,0.008217,1.266936,-0.722834
138,-0.33618,0.867295,-0.367119,-0.531115,1.2525620000000002,-0.687736
139,-0.341853,0.8449979999999999,-0.41123,-0.099553,-0.851269,-0.4576659999999999
140,-0.356428,0.835451,-0.418302,0.375746,-0.537355,-0.037631
141,-0.365021,0.84188,-0.397484,0.539215,-0.236625,0.284661
142,-0.355455,0.8579620000000001,-0.370874,-0.179915,0.960138,0.459451
143,-0.34558,0.8641120000000001,-0.365897,-0.679902,0.815591,0.6713319999999999
144,-0.346601,0.855518,-0.384644,-0.436403,-0.928486,0.3582619999999999
145,-0.350224,0.8596469999999999,-0.3719469999999999,0.141408,-0.770475,0.8684069999999999
146,-0.3418719999999999,0.880074,-0.329527,0.114104,0.289635,-0.202501
147,-0.339571,0.893232,-0.294656,0.4980489999999999,0.790118,0.14895
148,-0.317926,0.911536,-0.260804,0.281549,0.4333579999999999,0.511613
149,-0.287301,0.930001,-0.229238,-0.073325,-0.036126,0.369711
150,-0.265212,0.942876,-0.201595,-0.190064,-0.294591,0.080486
151,-0.260636,0.950044,-0.171692,-0.1041859999999999,0.002501,0.152314
152,-0.256326,0.956687,-0.137984,-0.001288,0.106988,0.144332
153,-0.2454579999999999,0.963603,-0.1058809999999999,0.090566,0.056844,0.167725
154,-0.235705,0.96858,-0.079294,0.155231,-0.065519,0.133966
155,-0.22826,0.971967,-0.056284,0.187671,-0.014524,0.013437
156,-0.222951,0.974269,-0.032915,0.182362,-0.016826,-0.009932
157,-0.218979,0.975693,-0.007851,0.162659,-0.069092,0.0338829999999999
158,-0.215934,0.976208,0.019483,0.1361,-0.106992,0.045336
159,-0.214278,0.97558,0.0481529999999999,0.0907419999999999,-0.099588,0.0483899999999999
160,-0.212592,0.974223,0.075394,-0.050989,-0.123713,-0.10608
161,-0.209394,0.97233,0.103528,-0.038958,-0.1111549999999999,-0.204266
162,-0.208396,0.969322,0.130287,-0.011635,-0.073814,-0.168785
163,-0.212111,0.964902,0.154799,0.1623369999999999,0.140079,-0.188384
164,-0.218378,0.960665,0.171532,0.066461,0.208891,-0.336556
165,-0.222759,0.958283,0.179054,0.003948,0.24736,-0.3297489999999999
166,-0.225555,0.957475,0.179874,0.0754389999999999,0.275252,-0.20325
167,-0.228917,0.957071,0.177764,-0.221599,0.289435,-0.276565
168,-0.233802,0.95644,0.174776,-0.214761,0.240414,-0.315615
169,-0.2380789999999999,0.957065,0.165325,-0.0145759999999999,0.194913,-0.202983
170,-0.240281,0.960317,0.141577,0.269929,0.164592,-0.13732
171,-0.240657,0.965105,0.103166,0.220607,0.177976,-0.094209
172,-0.245727,0.967833,0.053912,-0.216493,0.197939,0.149503
173,-0.254986,0.966938,-0.001359,-0.218662,0.127636,0.2409369999999999
174,-0.264112,0.962788,-0.057212,-0.254824,0.2331349999999999,0.343833
175,-0.2683239999999999,0.955648,-0.121358,-0.1426859999999999,0.455988,0.223882
176,-0.266148,0.945813,-0.185994,-0.18269,0.5678890000000001,0.22846
177,-0.265502,0.935781,-0.231979,-0.162827,0.484492,0.471496
178,-0.2776679999999999,0.922983,-0.266449,-0.053005,0.2675079999999999,0.599136
179,-0.295456,0.903351,-0.310893,0.0078129999999999,0.1635589999999999,0.5934550000000001
180,-0.314155,0.8769100000000001,-0.363769,-0.000725,-0.08681,0.371596
181,-0.330719,0.847248,-0.415678,-0.032059,-0.177342,0.282271
182,-0.343729,0.8201309999999999,-0.4574149999999999,0.008707,-0.212023,0.327959
183,-0.356722,0.797636,-0.486334,0.086199,-0.313734,0.41802
184,-0.371444,0.779107,-0.504991,0.144027,-0.342706,0.408219
185,-0.386294,0.76502,-0.515282,0.1035789999999999,-0.421422,0.414315
186,-0.395156,0.756895,-0.520534,0.1028119999999999,-0.4116649999999999,0.30183
187,-0.399633,0.7557619999999999,-0.51876,0.110021,-0.446558,0.268882
188,-0.398813,0.762066,-0.510096,0.131525,-0.407589,0.2196139999999999
189,-0.394124,0.774894,-0.494166,0.133229,-0.35665,0.153437
190,-0.387503,0.793554,-0.469156,0.0428529999999999,-0.376226,0.044061
191,-0.3789909999999999,0.817841,-0.433006,-0.030357,-0.282166,-0.15194
192,-0.367228,0.8447,-0.389381,-0.118047,0.074902,-0.3877489999999999
193,-0.357444,0.865137,-0.3518,-0.105492,1.031042,-0.752067
194,-0.356168,0.86445,-0.354771,-0.465152,1.207907,-0.5482130000000001
195,-0.353838,0.8448180000000001,-0.401338,-0.471174,-0.27211,-0.758696
196,-0.354858,0.8328979999999999,-0.424677,0.0554039999999999,-0.820019,-0.363714
197,-0.366469,0.831468,-0.417558,0.254271,-0.164567,0.302797
198,-0.369929,0.842198,-0.392233,0.076594,0.405421,0.331763
199,-0.366906,0.8534940000000001,-0.370028,-0.4238189999999999,1.367163,0.376848
200,-0.367905,0.846928,-0.383863,-0.486221,0.6796220000000001,0.531187
201,-0.371182,0.8352450000000001,-0.4056869999999999,0.306973,-1.372065,0.780473
202,-0.354951,0.8589979999999999,-0.368952,0.271211,-0.4257399999999999,0.5599310000000001
203,-0.351689,0.875445,-0.331518,0.203282,0.412016,-0.181758
204,-0.354281,0.885841,-0.299604,0.5312060000000001,0.911293,0.179808
205,-0.33121,0.906667,-0.261241,0.2505219999999999,0.351039,0.421947
206,-0.305338,0.925055,-0.225906,-0.086996,-0.050436,0.272858
207,-0.286249,0.939744,-0.186904,-0.185049,-0.257692,0.214385
208,-0.279413,0.94897,-0.146201,-0.185553,-0.240794,0.137504
209,-0.275676,0.955472,-0.10519,-0.12685,0.036807,0.200772
210,-0.2671699999999999,0.961232,-0.068142,0.049916,0.001049,0.2180139999999999
211,-0.259356,0.965114,-0.035762,0.165972,-0.034709,0.220211
212,-0.254158,0.967122,-0.008267,0.175361,-0.012059,0.147976
213,-0.249381,0.968267,0.016028,0.167868,-0.033193,0.081903
214,-0.243684,0.969124,0.037482,0.13965,-0.092689,-0.030448
215,-0.2391239999999999,0.969204,0.058746,0.0992919999999999,-0.159221,-0.103729
216,-0.235564,0.968098,0.085334,0.091155,-0.127431,-0.115257
217,-0.233417,0.965501,0.115372,0.051014,-0.15648,-0.068803
218,-0.234131,0.961717,0.142369,-0.034637,-0.059373,-0.169209
219,-0.236948,0.956803,0.168431,0.011972,0.063827,-0.229436
220,-0.240078,0.952248,0.188605,0.0697899999999999,0.049171,-0.342276
221,-0.243227,0.949504,0.198158,0.092638,0.088124,-0.377205
222,-0.246585,0.948356,0.1995029999999999,0.184268,0.203484,-0.295725
223,-0.2487349999999999,0.94815,0.197805,0.108705,0.353562,-0.062612
224,-0.251218,0.94808,0.194982,-0.083773,0.313608,-0.1460779999999999
225,-0.251851,0.949156,0.188836,-0.1999,0.138506,-0.310006
226,-0.2528559999999999,0.951835,0.173377,0.126024,0.280099,-0.166541
227,-0.253986,0.956443,0.1438559999999999,0.348193,0.18345,-0.050991
228,-0.256628,0.96121,0.101016,0.002478,0.264422,0.085569
229,-0.265253,0.962961,0.048322,-0.369711,0.238623,0.190691
230,-0.277828,0.960584,-0.008801,-0.385685,0.201159,0.197949
231,-0.287979,0.955565,-0.062863,-0.339997,0.431093,0.231701
232,-0.290541,0.949239,-0.120494,-0.009248,0.476008,0.242625
233,-0.2866309999999999,0.942069,-0.174178,-0.015142,0.554132,0.212126
234,-0.287036,0.934556,-0.210252,-0.166394,0.370467,0.6171270000000001
235,-0.294532,0.924577,-0.2416579999999999,-0.057321,0.209777,0.679952
236,-0.309229,0.906228,-0.288304,0.151667,0.096427,0.537968
237,-0.325897,0.8794280000000001,-0.346971,0.118774,0.045529,0.441759
238,-0.336556,0.850992,-0.403156,-0.0680149999999999,-0.19459,0.228946
239,-0.343226,0.825989,-0.447137,-0.099493,-0.302765,0.25065
240,-0.349662,0.807504,-0.4750439999999999,-0.046731,-0.325922,0.301811
241,-0.360073,0.794018,-0.4897729999999999,0.136486,-0.452846,0.4143949999999999
242,-0.371192,0.784177,-0.4972689999999999,0.1296759999999999,-0.474088,0.34639
243,-0.3784929999999999,0.779518,-0.499087,0.123655,-0.466912,0.31676
244,-0.380759,0.780439,-0.4959149999999999,0.115042,-0.426175,0.270482
245,-0.378288,0.787486,-0.486577,0.082893,-0.406825,0.241689
246,-0.373275,0.800041,-0.469674,0.080673,-0.410942,0.210946
247,-0.367812,0.817774,-0.442667,0.061034,-0.387491,0.0256139999999999
248,-0.3592849999999999,0.8401860000000001,-0.406195,-0.009367,-0.140891,-0.2134039999999999
249,-0.347367,0.8619209999999999,-0.369352,-0.124023,0.015566,-0.368853
250,-0.341052,0.873166,-0.348219,-0.142163,0.973102,-0.6973590000000001
251,-0.34419,0.8626389999999999,-0.370647,-0.342455,0.570802,-0.722493
252,-0.3507969999999999,0.844673,-0.404304,-0.015612,-0.349647,-0.674614
253,-0.360009,0.836875,-0.412342,0.226723,-0.542854,-0.349163
254,-0.366453,0.8413719999999999,-0.397237,0.173444,0.0696389999999999,0.112417
255,-0.364901,0.8497389999999999,-0.380503,-0.469251,1.548058,0.224787
256,-0.37003,0.84119,-0.394295,-0.457729,1.5190549999999998,0.567239
257,-0.381284,0.8228700000000001,-0.421307,0.392713,-1.84823,1.56802
258,-0.367298,0.848375,-0.38124,0.1096839999999999,-0.976304,0.937499
259,-0.359175,0.869609,-0.3387679999999999,-0.179796,0.508778,-0.513573
260,-0.354198,0.8866649999999999,-0.297253,0.546825,1.263298,0.457058
261,-0.31686,0.917507,-0.240353,0.336285,0.509892,0.571347
262,-0.284389,0.939073,-0.193012,-0.061055,-0.168046,0.454105
263,-0.2646719999999999,0.952003,-0.153711,-0.148719,-0.359687,0.162546
264,-0.263255,0.957901,-0.114501,-0.153065,-0.253326,0.079375
265,-0.266081,0.961087,-0.074164,-0.087465,-0.067761,0.0205139999999999
266,-0.260574,0.964788,-0.035667,0.049301,-0.007406,0.08387
267,-0.251906,0.967735,-0.004295,0.103728,-0.003547,0.130882
268,-0.2427389999999999,0.969942,0.016647,0.1448839999999999,-0.111619,0.172913
269,-0.234565,0.971555,0.032325,0.237434,-0.223646,0.057794
270,-0.2247199999999999,0.973204,0.0485769999999999,0.279392,-0.203246,-0.011041
271,-0.219325,0.97315,0.069719,0.2620949999999999,-0.0955559999999999,-0.086748
272,-0.217194,0.971482,0.095055,0.013336,-0.114167,-0.057564
273,-0.2143219999999999,0.968862,0.123929,-0.0268279999999999,-0.084722,-0.0415769999999999
274,-0.212113,0.964651,0.156336,0.003861,-0.012029,-0.201746
275,-0.21213,0.959369,0.185997,0.024279,0.05766,-0.313057
276,-0.213817,0.954136,0.209499,0.026042,0.118557,-0.3755
277,-0.215283,0.951219,0.2209489999999999,0.157162,0.3609449999999999,-0.3240369999999999
278,-0.216044,0.951163,0.2204469999999999,0.236048,0.347573,-0.288242
279,-0.215834,0.952075,0.216685,0.207457,0.288648,-0.178385
280,-0.218529,0.952482,0.2121449999999999,-0.335807,0.162889,-0.241365
281,-0.221631,0.953827,0.202676,-0.283694,-0.0064849999999999,-0.311029
282,-0.225782,0.956688,0.183721,-0.14873,-0.050301,-0.265234
283,-0.232121,0.961069,0.149831,0.07346,-0.025278,-0.043081
284,-0.240117,0.965735,0.098414,0.011372,0.342737,0.032567
285,-0.249191,0.967686,0.038394,-0.0500339999999999,0.6161310000000001,0.129269
286,-0.251896,0.967566,-0.018725,-0.284359,0.449685,0.322176
287,-0.255037,0.964429,-0.069424,-0.304701,0.40346,0.32481
288,-0.260631,0.957337,-0.124758,-0.222966,0.346511,0.361392
289,-0.262782,0.947503,-0.182131,-0.0919389999999999,0.585975,0.222292
290,-0.270977,0.935067,-0.2284969999999999,-0.129444,0.495841,0.356655
291,-0.285868,0.919223,-0.270737,-0.208928,0.251538,0.611236
292,-0.30228,0.8954129999999999,-0.326884,-0.02197,-0.033368,0.27801
293,-0.315627,0.865168,-0.389687,0.008879,-0.087839,0.226327
294,-0.325236,0.8375549999999999,-0.4389939999999999,0.020335,-0.149246,0.2556739999999999
295,-0.333556,0.816076,-0.471968,0.0688,-0.4223689999999999,0.410506
296,-0.345582,0.798261,-0.493301,0.117142,-0.544187,0.480041
297,-0.359673,0.7851100000000001,-0.504212,0.2411579999999999,-0.581238,0.378037
298,-0.37238,0.779219,-0.504127,0.168737,-0.4720439999999999,0.362205
299,-0.381369,0.779101,-0.497546,0.177725,-0.471926,0.355624
300,-0.384855,0.784718,-0.4858989999999999,0.225874,-0.454533,0.288496
301,-0.383312,0.796457,-0.467677,0.263317,-0.491189,0.159419
302,-0.378242,0.81433,-0.440218,0.133598,-0.470595,-0.02548
303,-0.36979,0.8377709999999999,-0.401729,0.07026,-0.3493219999999999,-0.1817359999999999
304,-0.363396,0.8594729999999999,-0.3595,-0.211342,0.784127,-0.670712
305,-0.366257,0.8665709999999999,-0.338971,-0.701752,1.7112029999999998,-0.72211
306,-0.371384,0.8448319999999999,-0.38513,-0.650893,-0.005674,-0.8261440000000001
307,-0.375496,0.817298,-0.437056,0.153603,-1.227043,-0.43593
308,-0.389496,0.801025,-0.454582,0.3123329999999999,-0.519775,0.039039
309,-0.399617,0.807713,-0.4334729999999999,-0.02647,0.1855119999999999,0.394136
310,-0.390994,0.8281350000000001,-0.401631,-0.718778,1.549596,0.078496
311,-0.3892199999999999,0.832308,-0.394667,-0.498201,1.46121,0.300566
312,-0.402074,0.810473,-0.4259819999999999,-0.125391,-0.027835,0.387042
313,-0.4066329999999999,0.808605,-0.4252039999999999,0.384263,-0.654583,1.011234
314,-0.390681,0.836111,-0.3850679999999999,0.086314,0.866022,-0.015323
315,-0.407588,0.8457520000000001,-0.344334,0.103221,0.856381,-0.0560559999999999
316,-0.391049,0.867842,-0.306464,0.244779,0.738725,0.643698
317,-0.353693,0.893727,-0.27594,-0.258703,-0.208775,0.151016
318,-0.322834,0.913616,-0.247125,-0.289562,-0.228665,0.122202
319,-0.30984,0.929357,-0.200706,-0.163046,-0.347997,0.20565
320,-0.304753,0.941073,-0.146607,0.08025,0.01312,0.236603
321,-0.293973,0.950335,-0.102131,0.1183289999999999,-0.019091,0.186436
322,-0.280936,0.957472,-0.065632,0.260978,-0.199309,0.138982
323,-0.2711719999999999,0.961799,-0.03734,0.186928,-0.2468179999999999,0.0385
324,-0.2641449999999999,0.964412,-0.011093,0.1497339999999999,-0.229396,0.024887
325,-0.259211,0.965718,0.013528,0.083612,-0.141149,0.008476
326,-0.255333,0.966083,0.038395,0.122627,-0.183032,-0.060337
327,-0.251881,0.965512,0.065778,0.083073,-0.181882,-0.117414
328,-0.251228,0.963414,0.093282,-0.073846,-0.008381,-0.184972
329,-0.254283,0.959499,0.121182,-0.063863,0.065312,-0.2263
330,-0.260078,0.954041,0.148821,0.008583,0.101013,-0.282442
331,-0.2651679999999999,0.949018,0.170389,0.109391,0.294329,-0.293634
332,-0.267868,0.946342,0.1807349999999999,0.12648,0.3750989999999999,-0.281779
333,-0.268162,0.946238,0.180845,0.109654,0.363302,-0.219664
334,-0.2677739999999999,0.94726,0.176005,-0.25078,0.293066,-0.4021099999999999
335,-0.269314,0.948384,0.167391,-0.016559,0.1481589999999999,-0.363848
336,-0.274599,0.949734,0.150276,0.0963,0.002415,-0.258934
337,-0.2781,0.952915,0.1208109999999999,0.18052,-0.083698,-0.037971
338,-0.280367,0.957033,0.073924,-0.056303,0.29878,0.06931
339,-0.286447,0.957994,0.013408,-0.320242,0.722426,0.235264
340,-0.290463,0.955667,-0.048131,-0.266803,0.495505,0.2806599999999999
341,-0.291755,0.950392,-0.107796,-0.091394,0.469942,0.423455
342,-0.288923,0.938698,-0.1880369999999999,0.0973639999999999,0.474281,0.208667
343,-0.284975,0.919559,-0.2705329999999999,-0.138685,0.74757,0.182795
344,-0.290884,0.901838,-0.319474,-0.049387,0.461,0.380677
345,-0.311254,0.883936,-0.348954,-0.102289,0.241263,0.420045
346,-0.333447,0.8620120000000001,-0.381759,-0.115925,0.004749,0.470397
347,-0.3487119999999999,0.8371940000000001,-0.421305,-0.007229,-0.0684559999999999,0.41308
348,-0.355042,0.812067,-0.463125,0.115296,-0.201181,0.436834
349,-0.358959,0.788261,-0.4997859999999999,0.223858,-0.421852,0.387252
350,-0.370008,0.767163,-0.5239729999999999,0.1957829999999999,-0.5883,0.424425
351,-0.387664,0.752784,-0.5320020000000001,0.1825099999999999,-0.498771,0.480199
352,-0.402584,0.74687,-0.529249,0.220211,-0.482084,0.418562
353,-0.41251,0.7477050000000001,-0.520352,0.180057,-0.4578489999999999,0.388257
354,-0.4172079999999999,0.754862,-0.506078,0.191943,-0.44317,0.348592
355,-0.416935,0.767984,-0.486167,0.16547,-0.466028,0.2202059999999999
356,-0.413179,0.787161,-0.457879,0.012911,-0.286611,-0.0296089999999999
357,-0.408116,0.811365,-0.418473,-0.080745,-0.137965,-0.151107
358,-0.402908,0.8339540000000001,-0.377064,-0.287552,1.190109,-0.659756
359,-0.404759,0.8439979999999999,-0.351892,-0.4146229999999999,1.516598,-0.740958
360,-0.40992,0.826782,-0.385212,-0.4855109999999999,1.189637,-0.769161
361,-0.413193,0.7983319999999999,-0.438097,0.052063,-0.684593,-0.616804
362,-0.425917,0.7835340000000001,-0.452395,0.4010599999999999,0.000493,0.1605859999999999
363,-0.43596,0.79063,-0.429924,0.169389,0.57465,0.2546469999999999
364,-0.431447,0.804257,-0.408676,-0.524654,1.79224,0.359146
365,-0.424977,0.799218,-0.425014,-0.111324,-0.862298,0.413875
366,-0.426967,0.7769590000000001,-0.46263,0.1033589999999999,-1.699216,1.220549
367,-0.431584,0.790417,-0.434705,-0.3599199999999999,-0.421689,0.61929
368,-0.443063,0.803452,-0.397684,0.334862,1.239547,-0.263632
369,-0.461984,0.809021,-0.363384,0.8784420000000001,1.405441,0.0688889999999999
370,-0.433874,0.8365020000000001,-0.334677,0.289725,0.382507,0.64353
371,-0.396656,0.8646739999999999,-0.30821,-0.279918,-0.115422,0.116972
372,-0.367818,0.888144,-0.2755,-0.29246,-0.225608,0.00719
373,-0.35953,0.903091,-0.23485,0.073336,-0.018677,0.1363849999999999
374,-0.355668,0.91403,-0.195035,0.2035529999999999,0.014528,0.180738
375,-0.345607,0.924579,-0.1603089999999999,0.281551,0.0265779999999999,0.231415
376,-0.33465,0.933087,-0.131713,0.297723,-0.095532,0.159468
377,-0.3261489999999999,0.939198,-0.107344,0.258126,-0.160222,0.096159
378,-0.321222,0.943508,-0.08123,0.147424,-0.267727,-0.0142289999999999
379,-0.315955,0.947253,-0.053595,0.1151789999999999,-0.337955,-0.1172119999999999
380,-0.310521,0.950254,-0.024133,0.080433,-0.283186,-0.029731
381,-0.30714,0.951622,0.008341,0.0539809999999999,-0.25399,-0.0016879999999999
382,-0.3080699999999999,0.95022,0.046518,0.022349,-0.170923,-0.0300839999999999
383,-0.312101,0.94624,0.084915,0.076048,-0.0159419999999999,-0.203888
384,-0.31684,0.940916,0.119486,0.110313,0.051057,-0.268839
385,-0.3201179999999999,0.935933,0.146773,0.178898,0.329982,-0.351912
386,-0.319646,0.933239,0.163949,0.265096,0.393986,-0.3482449999999999
387,-0.314971,0.933559,0.171026,0.220076,0.442082,-0.283742
388,-0.311519,0.93494,0.169799,-0.095555,0.3681,-0.134154
389,-0.313317,0.93669,0.156308,0.060403,0.269792,0.00394
390,-0.313857,0.941203,0.1249789999999999,0.240126,0.108098,-0.005045
391,-0.31105,0.946974,0.080484,-0.231598,0.572603,0.06069
392,-0.315651,0.9486,0.02264,-0.399071,0.5027550000000001,0.148732
393,-0.321634,0.946153,-0.036566,-0.209952,0.329925,0.357107
394,-0.3231989999999999,0.941107,-0.099255,-0.080197,0.4649149999999999,0.3724639999999999
395,-0.319777,0.931502,-0.173318,-0.116701,0.5060439999999999,0.316033
396,-0.31179,0.916928,-0.249045,-0.248986,0.5638920000000001,0.239157
397,-0.314218,0.899251,-0.304313,-0.2096,0.323023,0.578529
398,-0.329916,0.8776930000000001,-0.347567,-0.095667,0.2053449999999999,0.514788
399,-0.34692,0.8479479999999999,-0.400779,0.054867,0.178251,0.325584
400,-0.359007,0.815573,-0.453817,0.02751,-0.079351,0.30657
401,-0.3663099999999999,0.78598,-0.498043,0.050071,-0.291412,0.3411369999999999
402,-0.371772,0.7610779999999999,-0.5315449999999999,0.1261509999999999,-0.439637,0.4126329999999999
403,-0.382324,0.742251,-0.5503520000000001,0.154998,-0.550829,0.4392979999999999
404,-0.396051,0.729935,-0.557077,0.230294,-0.4919739999999999,0.4302609999999999
405,-0.407571,0.724879,-0.555366,0.215707,-0.404917,0.411643
406,-0.414286,0.727279,-0.5472,0.213069,-0.472854,0.413014
407,-0.417492,0.736323,-0.53247,0.222851,-0.489481,0.298064
408,-0.41728,0.752877,-0.5089670000000001,0.15489,-0.408776,0.196711
409,-0.4162409999999999,0.775455,-0.4747699999999999,0.1507069999999999,-0.417102,0.068124
410,-0.411491,0.802683,-0.431704,-0.123376,0.027807,-0.337888
411,-0.402733,0.8293379999999999,-0.387295,-0.195778,0.330468,-0.531177
412,-0.398468,0.84357,-0.360008,-0.406388,1.13815,-0.834267
413,-0.404036,0.8293790000000001,-0.385849,-0.104768,-0.068865,-0.8133699999999999
414,-0.411764,0.803363,-0.430177,0.105596,-0.6104149999999999,-0.696746
415,-0.420125,0.789852,-0.446791,0.198002,-0.3801989999999999,-0.28206
416,-0.4298189999999999,0.7926989999999999,-0.4322939999999999,-0.492377,1.909709,0.247327
417,-0.4336069999999999,0.7918149999999999,-0.430125,-0.495714,2.824625,0.612971
418,-0.430905,0.767019,-0.47539,-0.067462,-1.326269,1.536623
419,-0.43365,0.770532,-0.467142,-0.60938,-0.316782,0.148645
420,-0.4282649999999999,0.79138,-0.436235,-0.601474,0.278017,-0.987929
421,-0.4476949999999999,0.797343,-0.40473,0.783632,1.619649,0.362265
422,-0.4149239999999999,0.8349989999999999,-0.3613949999999999,-0.038781,0.3463969999999999,0.466116
423,-0.375296,0.867193,-0.327294,-0.267984,-0.006536,0.104531
424,-0.339788,0.8933030000000001,-0.294186,-0.193674,-0.246132,0.071621
425,-0.321768,0.915741,-0.2405719999999999,-0.063822,-0.188492,0.301317
426,-0.3114099999999999,0.933292,-0.178828,-0.087638,-0.122806,0.239787
427,-0.297727,0.945491,-0.131889,0.009489,-0.21725,0.171104
428,-0.286784,0.952909,-0.098533,0.205196,-0.2225929999999999,0.172843
429,-0.282037,0.956684,-0.07211,0.210428,-0.160038,0.1577579999999999
430,-0.281006,0.958562,-0.046732,0.172363,-0.141943,0.070185
431,-0.27918,0.960003,-0.021012,0.182668,-0.266324,-0.079909
432,-0.274801,0.961455,0.0088069999999999,0.1748859999999999,-0.20317,-0.114352
433,-0.271956,0.961431,0.040984,0.114684,-0.227621,-0.040526
434,-0.272768,0.959211,0.07417,-0.054228,-0.0618419999999999,-0.012036
435,-0.277435,0.954552,0.108855,-0.025284,-0.004631,-0.1103809999999999
436,-0.282343,0.949546,0.1365029999999999,0.12179,0.104775,-0.302244
437,-0.287087,0.945656,0.152659,0.188118,0.175636,-0.304911
438,-0.29077,0.943723,0.157569,0.271483,0.2903159999999999,-0.295539
439,-0.290475,0.943775,0.157802,0.033379,0.462978,-0.145702
440,-0.2882369999999999,0.94434,0.158523,-0.144014,0.4252729999999999,-0.2242579999999999
441,-0.289742,0.94459,0.1542329999999999,-0.035866,0.244589,-0.25845
442,-0.293541,0.945854,0.138496,0.176125,0.165001,-0.048271
443,-0.294704,0.949005,0.111921,0.126857,0.047348,-0.006376
444,-0.295415,0.952657,0.071859,-0.074901,0.049479,0.034952
445,-0.303034,0.952792,0.0186199999999999,-0.4443569999999999,0.251324,0.164104
446,-0.312242,0.949159,-0.039917,-0.176451,0.342391,0.399551
447,-0.317315,0.942491,-0.104945,-0.041999,0.594329,0.379008
448,-0.315918,0.931307,-0.1812609999999999,-0.10495,0.420363,0.2438519999999999
449,-0.305938,0.91698,-0.256013,-0.215546,0.563642,0.130434
450,-0.305656,0.9006270000000001,-0.308932,-0.243492,0.437813,0.474764
451,-0.319362,0.882125,-0.346204,-0.145024,0.1373609999999999,0.470822
452,-0.3373739999999999,0.856907,-0.389721,-0.009718,0.052288,0.388073
453,-0.352885,0.827958,-0.435834,0.093302,-0.055284,0.454359
454,-0.36241,0.797565,-0.482228,0.086104,-0.089939,0.39127
455,-0.369959,0.769234,-0.520965,0.082362,-0.327263,0.45642
456,-0.3833809999999999,0.7442380000000001,-0.5469229999999999,0.107395,-0.434164,0.4437279999999999
457,-0.401934,0.725543,-0.5585979999999999,0.122271,-0.342334,0.413533
458,-0.420191,0.7134,-0.5608,0.144922,-0.286917,0.376946
459,-0.43223,0.707429,-0.559211,0.156199,-0.2852639999999999,0.303855
460,-0.438036,0.7074779999999999,-0.554613,0.111376,-0.287403,0.263857
461,-0.439737,0.713067,-0.546042,0.08964,-0.278711,0.205832
462,-0.437911,0.724496,-0.532293,0.1026599999999999,-0.266427,0.136602
463,-0.434197,0.741788,-0.511097,0.099373,-0.280392,0.075824
464,-0.428287,0.764861,-0.4812,0.091296,-0.232223,-0.05092
465,-0.418559,0.792194,-0.444109,-0.014898,0.015515,-0.27603
466,-0.407411,0.816112,-0.409844,-0.1075119999999999,0.614934,-0.618476
467,-0.403122,0.8210860000000001,-0.4041079999999999,-0.619049,0.705326,-0.608312
468,-0.405409,0.803277,-0.436331,-0.433413,0.079048,-0.51359
469,-0.411753,0.785886,-0.461342,0.002726,-0.7732060000000001,-0.380394
470,-0.423029,0.780593,-0.460127,0.23797,-0.179488,-0.065737
471,-0.43087,0.791956,-0.4326109999999999,0.177574,-0.042154,0.076486
472,-0.424162,0.811538,-0.401855,-0.313417,0.987931,0.074889
473,-0.4218449999999999,0.8195049999999999,-0.387882,-0.1950069999999999,0.774093,0.486378
474,-0.423971,0.8108029999999999,-0.403536,-0.066126,0.041904,0.337176
475,-0.429562,0.7952,-0.427935,0.333187,-1.144076,1.006686
476,-0.420785,0.816317,-0.395677,-0.239478,0.117459,-0.011504
477,-0.4151479999999999,0.8372649999999999,-0.355856,-0.078337,0.535935,-0.3331389999999999
478,-0.4121609999999999,0.851136,-0.32509,0.56037,0.973067,0.2438219999999999
479,-0.386003,0.8734639999999999,-0.29674,0.016847,0.10644,0.586245
480,-0.3538,0.895049,-0.271486,-0.183477,-0.270309,0.262835
481,-0.3321429999999999,0.912381,-0.239235,-0.205454,-0.210584,0.165291
482,-0.326474,0.927347,-0.182848,-0.196078,-0.15011,0.181627
483,-0.317082,0.93877,-0.134765,-0.018382,-0.047809,0.16574
484,-0.3058659999999999,0.947043,-0.097706,0.224735,0.003534,0.2450139999999999
485,-0.296736,0.952316,-0.070944,0.230376,-0.022781,0.1577059999999999
486,-0.291612,0.955256,-0.049381,0.198686,-0.041301,0.134113
487,-0.289846,0.95666,-0.027932,0.138417,-0.131679,0.035104
488,-0.285788,0.95828,-0.003991,0.174292,-0.066922,-0.0719669999999999
489,-0.280284,0.959686,0.020814,0.1896769999999999,-0.084884,-0.116914
490,-0.275329,0.960314,0.044504,0.093688,-0.172701,-0.038431
491,-0.272462,0.959596,0.070207,-0.029937,-0.139299,-0.008759
492,-0.273287,0.956626,0.100848,-0.039518,-0.10607,-0.066958
493,-0.276419,0.951826,0.132696,0.025656,0.013323,-0.157247
494,-0.282226,0.945522,0.162251,0.1017899999999999,0.037327,-0.186466
495,-0.287416,0.940544,0.180988,0.133806,0.058601,-0.245716
496,-0.289333,0.938785,0.186969,0.260677,0.323513,-0.298281
497,-0.289528,0.938673,0.1872319999999999,0.016731,0.436526,-0.12342
498,-0.290961,0.938356,0.186596,-0.167489,0.418318,-0.134426
499,-0.295119,0.938138,0.181083,-0.1180119999999999,0.255985,-0.264243
500,-0.299006,0.939092,0.169383,0.142039,0.388667,-0.140254
501,-0.298902,0.942761,0.14781,0.239744,0.283771,-7.4e-05
502,-0.295301,0.948756,0.112467,-0.088519,0.299275,0.015082
503,-0.290277,0.954649,0.06614,-0.277548,0.167269,0.030311
504,-0.291557,0.956447,0.013963,-0.228462,0.022877,0.150053
505,-0.299187,0.953065,-0.046326,-0.242332,0.282653,0.316819
506,-0.304962,0.944424,-0.122692,-0.117783,0.355625,0.21223
507,-0.3014469999999999,0.932305,-0.199823,-0.156332,0.4264439999999999,0.038186
508,-0.300764,0.919644,-0.252563,-0.1187,0.411624,0.326919
509,-0.3119619999999999,0.905051,-0.289059,-0.06609,0.243829,0.520108
510,-0.327182,0.8844549999999999,-0.3326929999999999,0.0379209999999999,0.173681,0.490255
511,-0.340343,0.8574799999999999,-0.385862,0.019359,0.0045049999999999,0.417203
512,-0.350076,0.8270040000000001,-0.439893,-0.069388,-0.085869,0.416181
513,-0.364189,0.796137,-0.483246,0.036766,-0.156107,0.466217
514,-0.383772,0.765397,-0.516606,0.150725,-0.251664,0.373784
515,-0.404701,0.740258,-0.536872,0.14164,-0.279076,0.342505
516,-0.4235609999999999,0.72178,-0.54738,0.0873179999999999,-0.312494,0.347231
517,-0.43509,0.710356,-0.5532520000000001,0.127991,-0.349165,0.319304
518,-0.441414,0.706563,-0.553098,0.141029,-0.354452,0.337034
519,-0.4448609999999999,0.709863,-0.546067,0.162345,-0.3528219999999999,0.300782
520,-0.4455739999999999,0.719885,-0.532189,0.168092,-0.298911,0.215096
521,-0.444187,0.736409,-0.510289,0.112171,-0.380666,0.083196
522,-0.43812,0.759945,-0.480135,0.082148,-0.371532,-0.0550059999999999
523,-0.4245069999999999,0.788389,-0.445231,-0.0850139999999999,-0.075148,-0.409582
524,-0.411761,0.811612,-0.414406,-0.301267,1.08414,-0.725349
525,-0.41358,0.810049,-0.415652,-0.4868409999999999,0.661845,-0.689237
526,-0.4234189999999999,0.786963,-0.448776,-0.026211,-0.579108,-0.589188
527,-0.430903,0.7706430000000001,-0.469496,0.057352,-0.667387,-0.4366319999999999
528,-0.4417979999999999,0.7672939999999999,-0.464833,0.25413,-0.005315,0.224767
529,-0.4434689999999999,0.780146,-0.44125,-0.367139,1.114782,0.335232
530,-0.436101,0.791248,-0.428645,-0.435878,1.590801,0.686839
531,-0.431092,0.7839119999999999,-0.4468069999999999,-0.129699,0.583001,0.50531
532,-0.438204,0.7692899999999999,-0.464935,0.218493,-1.138232,1.353348
533,-0.4289439999999999,0.7971779999999999,-0.4248619999999999,-0.372814,0.200624,-0.202564
534,-0.432218,0.812948,-0.390254,0.438779,1.315623,-0.114294
535,-0.420112,0.8340920000000001,-0.357476,0.363426,0.2430409999999999,0.7101069999999999
536,-0.378601,0.868452,-0.3200719999999999,-0.043427,-0.057661,0.5498390000000001
537,-0.338962,0.8968079999999999,-0.284311,-0.259503,-0.193469,0.3202
538,-0.317994,0.918634,-0.234486,-0.243438,-0.328042,0.2255599999999999
539,-0.312446,0.933978,-0.17336,-0.18377,-0.231616,0.251317
540,-0.303494,0.944387,-0.126548,-0.0732299999999999,-0.162176,0.189949
541,-0.294479,0.951538,-0.088588,0.281616,0.030792,0.2878219999999999
542,-0.287445,0.956013,-0.058351,0.268372,-0.0421029999999999,0.2465679999999999
543,-0.281918,0.958786,-0.035224,0.200604,-0.123429,0.131385
544,-0.2751659999999999,0.96132,-0.011729,0.125752,-0.114442,-0.095677
545,-0.268378,0.963191,0.014999,0.181663,-0.143672,-0.120056
546,-0.262706,0.963914,0.042944,0.141871,-0.148011,-0.092474
547,-0.259075,0.963222,0.0712179999999999,0.061367,-0.16325,0.014475
548,-0.259278,0.960654,0.099532,-0.0178979999999999,-0.019553,-0.138045
549,-0.262391,0.956199,0.1297029999999999,-0.014785,-0.015097,-0.168216
550,-0.266874,0.950885,0.156791,0.09712,0.038602,-0.405998
551,-0.270637,0.946836,0.1739109999999999,0.190788,0.283511,-0.319434
552,-0.273102,0.945462,0.177496,0.243103,0.357593,-0.252386
553,-0.272981,0.945742,0.1761849999999999,0.0606549999999999,0.329709,-0.1744
554,-0.272201,0.946629,0.172592,-0.208054,0.3775739999999999,-0.289123
555,-0.274968,0.947585,0.162676,-0.0739399999999999,0.167496,-0.199907
556,-0.276892,0.950759,0.139205,0.152578,0.234757,-0.044707
557,-0.273736,0.956514,0.1006919999999999,0.157586,0.266142,-0.041686
558,-0.271126,0.961355,0.047718,-0.282463,0.469095,0.061733
559,-0.2735869999999999,0.961746,-0.013647,-0.375537,0.348634,0.271581
560,-0.277526,0.958094,-0.070899,-0.2904219999999999,0.469991,0.331687
561,-0.280273,0.950508,-0.1340609999999999,-0.148758,0.392952,0.3815429999999999
562,-0.276677,0.937916,-0.209181,-0.125148,0.516659,0.309859
563,-0.2762719999999999,0.919879,-0.2783719999999999,-0.224537,0.482709,0.453054
564,-0.2926559999999999,0.899234,-0.325152,-0.122902,0.319394,0.557208
565,-0.316827,0.8726299999999999,-0.371659,-0.017752,0.199986,0.526139
566,-0.336462,0.8402459999999999,-0.425175,0.041296,-0.072577,0.495427
567,-0.350629,0.805924,-0.477012,0.039166,-0.14087,0.5113449999999999
568,-0.366014,0.770762,-0.521493,0.1274269999999999,-0.366221,0.397577
569,-0.386342,0.738507,-0.552579,0.176198,-0.415051,0.399365
570,-0.410196,0.715007,-0.566127,0.191523,-0.4174449999999999,0.449428
571,-0.431131,0.7009449999999999,-0.568153,0.182169,-0.437502,0.410102
572,-0.4427979999999999,0.696228,-0.564972,0.186847,-0.401535,0.388992
573,-0.446431,0.700275,-0.557055,0.1496019999999999,-0.340518,0.3107789999999999
574,-0.443764,0.712063,-0.544091,0.128762,-0.342618,0.240334
575,-0.437475,0.73061,-0.524233,0.135076,-0.396503,0.187823
576,-0.427403,0.756968,-0.494289,0.075627,-0.306559,-0.148808
577,-0.41372,0.789044,-0.454136,-0.047019,0.106601,-0.535366
578,-0.402758,0.815578,-0.415468,-0.109495,0.536046,-0.74539
579,-0.405109,0.814767,-0.4147729999999999,-0.662686,1.481513,-0.55886
580,-0.415168,0.7851,-0.459618,-0.106896,-0.713689,-0.6563329999999999
581,-0.425548,0.7618159999999999,-0.488406,0.1468,-0.8596860000000001,-0.343717
582,-0.4399189999999999,0.756961,-0.4831939999999999,0.501396,-0.499759,0.187067
583,-0.441051,0.777788,-0.447789,0.228008,-0.088075,0.387746
584,-0.4186109999999999,0.8066810000000001,-0.4171649999999999,-0.103728,0.602713,0.485356
585,-0.391139,0.834599,-0.387879,-0.727055,1.7272299999999998,0.866517
586,-0.38979,0.842025,-0.372897,-0.683879,1.003968,-0.227368
587,-0.417389,0.815682,-0.400555,0.887589,-1.441597,1.1615879999999998
588,-0.402946,0.82909,-0.387607,0.619758,-1.2916450000000002,0.879703
589,-0.388354,0.8546090000000001,-0.344702,0.141787,0.786138,-0.273538
590,-0.382348,0.8757010000000001,-0.294877,0.479577,1.142991,0.6236430000000001
591,-0.343562,0.904718,-0.251881,0.33839,0.6805939999999999,0.674428
592,-0.307152,0.926479,-0.217457,-0.183693,-0.203381,0.292851
593,-0.289103,0.939946,-0.181424,-0.3346449999999999,-0.419804,0.161405
594,-0.28775,0.94784,-0.137088,-0.2100989999999999,-0.310785,0.17377
595,-0.280367,0.954935,-0.097396,0.2055679999999999,0.0323699999999999,0.231063
596,-0.268844,0.960999,-0.064773,0.240676,-0.0569159999999999,0.143645
597,-0.2586239999999999,0.965099,-0.041102,0.219928,-0.14619,0.100885
598,-0.2509699999999999,0.967841,-0.017004,0.161874,-0.149848,0.1044369999999999
599,-0.2427929999999999,0.970024,0.009852,0.158305,-0.066566,0.07604
600,-0.235655,0.970976,0.04078,0.151167,-0.067519,0.045112
601,-0.230312,0.970651,0.069157,0.027859,-0.196191,-0.098713
602,-0.227979,0.968986,0.095297,-0.055362,-0.134346,-0.109732
603,-0.229784,0.965387,0.123358,-0.053557,-0.130747,-0.137793
604,-0.234587,0.959989,0.152902,0.018752,0.0511649999999999,-0.223963
605,-0.238748,0.955181,0.174979,0.233987,0.276371,-0.413672
606,-0.240875,0.953254,0.182417,0.1607819999999999,0.316323,-0.324247
607,-0.242776,0.9533,0.179632,0.041818,0.344231,-0.184805
608,-0.2437889999999999,0.95368,0.1762099999999999,-0.288987,0.240626,-0.253923
609,-0.2470389999999999,0.953649,0.171796,-0.300767,0.314967,-0.281323
610,-0.254044,0.953556,0.1618099999999999,-0.0133509999999999,0.17265,-0.28034
611,-0.26069,0.95512,0.140631,0.142343,-0.015224,-0.2266449999999999
612,-0.263536,0.958883,0.105268,0.160066,-0.004553,-0.108106
613,-0.2639559999999999,0.962929,0.055539,-0.2088679999999999,0.618247,0.275958
614,-0.2681449999999999,0.963368,-0.003356,-0.275038,0.674205,0.4071639999999999
615,-0.26831,0.961173,-0.064413,-0.246522,0.582178,0.478201
616,-0.2666929999999999,0.954413,-0.134023,-0.033676,0.404794,0.236211
617,-0.2621989999999999,0.941319,-0.212517,-0.043328,0.48315,0.182426
618,-0.261237,0.924133,-0.2787949999999999,-0.10267,0.597061,0.242403
619,-0.273412,0.905657,-0.324076,-0.187541,0.203153,0.444483
620,-0.296572,0.880526,-0.369747,-0.133268,0.169507,0.454495
621,-0.318476,0.850183,-0.4192329999999999,0.006586,0.0302029999999999,0.393598
622,-0.3315099999999999,0.818024,-0.4700359999999999,0.15492,-0.069672,0.349842
623,-0.339594,0.788075,-0.513429,0.141916,-0.223988,0.429322
624,-0.351944,0.761177,-0.5447390000000001,0.138931,-0.378258,0.470001
625,-0.369988,0.739491,-0.5623670000000001,0.156045,-0.4106189999999999,0.525868
626,-0.388457,0.724838,-0.568952,0.113814,-0.46756,0.483075
627,-0.400586,0.717924,-0.569308,0.169919,-0.477812,0.420184
628,-0.406625,0.717947,-0.564982,0.166817,-0.4506739999999999,0.374552
629,-0.408678,0.725007,-0.554385,0.1865099999999999,-0.405732,0.3075739999999999
630,-0.40745,0.739258,-0.536169,0.182017,-0.396027,0.250051
631,-0.404544,0.76056,-0.507826,0.103626,-0.391831,0.044218
632,-0.398576,0.788495,-0.468409,0.015946,-0.176954,-0.237478
633,-0.39103,0.816228,-0.425278,-0.096565,0.4588109999999999,-0.569595
634,-0.390775,0.829893,-0.398204,-0.381183,1.413332,-0.61498
635,-0.395385,0.81419,-0.4251569999999999,-0.437714,0.5574680000000001,-0.677183
636,-0.402776,0.786808,-0.467653,0.118353,-0.7516510000000001,-0.694563
637,-0.415596,0.772111,-0.480749,0.179481,-0.559922,-0.252436
638,-0.428652,0.776849,-0.461257,0.144427,0.185996,0.298278
639,-0.42549,0.795519,-0.431395,-0.053453,0.555983,0.331191
640,-0.412385,0.80911,-0.4186569999999999,-0.316191,1.382678,0.729509
641,-0.410281,0.804769,-0.428964,-0.176008,-0.707403,0.695871
642,-0.432778,0.783511,-0.445878,0.541131,-1.20618,1.241471
643,-0.426402,0.796426,-0.428814,-0.144215,-0.313058,0.062817
644,-0.42965,0.8094020000000001,-0.400329,0.5456479999999999,1.215836,0.456543
645,-0.417297,0.8316100000000001,-0.366444,0.553161,1.165506,0.6812779999999999
646,-0.380615,0.865152,-0.326555,-0.200181,0.050391,0.297991
647,-0.349901,0.8891979999999999,-0.29477,-0.197706,-0.200355,0.183411
648,-0.329729,0.907995,-0.2584869999999999,-0.172285,-0.317923,0.173205
649,-0.323021,0.922038,-0.213297,-0.126793,-0.2731119999999999,0.2080179999999999
650,-0.3150139999999999,0.93392,-0.168972,0.14497,-0.004888,0.228009
651,-0.303907,0.943517,-0.131936,0.2380659999999999,-0.055822,0.207452
652,-0.293819,0.950141,-0.104373,0.293819,-0.188452,0.16547
653,-0.286339,0.954795,-0.079788,0.1865619999999999,-0.181159,0.1059869999999999
654,-0.281649,0.957938,-0.054933,0.187777,-0.133536,0.024217
655,-0.277909,0.960122,-0.030362,0.152253,-0.132638,-0.035449
656,-0.274102,0.96168,-0.0053289999999999,0.072625,-0.130168,-0.047848
657,-0.270798,0.962432,0.019546,0.046021,-0.098296,-0.088027
658,-0.268385,0.962139,0.047398,0.003584,-0.0601,-0.0913279999999999
659,-0.267995,0.959914,0.082044,-0.002788,-0.013656,-0.093442
660,-0.270183,0.955608,0.11748,-0.0114489999999999,0.148304,-0.238025
661,-0.272334,0.951351,0.144062,0.1310069999999999,0.279683,-0.307652
662,-0.2722199999999999,0.949629,0.155203,0.240085,0.409517,-0.309713
663,-0.271474,0.94952,0.157167,0.150563,0.489399,-0.168764
664,-0.271555,0.949599,0.156551,-0.2331599999999999,0.379091,-0.282161
665,-0.2750329999999999,0.949468,0.1511809999999999,0.008355,0.246821,-0.352032
666,-0.279389,0.950067,0.138935,0.183686,0.216101,-0.217884
667,-0.282757,0.952579,0.1123859999999999,0.200908,0.032925,-0.039984
668,-0.284359,0.956295,0.068038,0.033611,0.098026,0.040132
669,-0.287663,0.957638,0.012999,-0.284206,0.489658,0.19658
670,-0.293338,0.954884,-0.046269,-0.22894,0.166073,0.343419
671,-0.298173,0.948428,-0.1075599999999999,-0.190551,0.360593,0.395387
672,-0.301144,0.935853,-0.1829829999999999,-0.093464,0.412535,0.2313079999999999
673,-0.298894,0.917147,-0.2636219999999999,-0.082393,0.562391,0.076152
674,-0.302817,0.8969360000000001,-0.322183,-0.060236,0.494467,0.380548
675,-0.322758,0.8764940000000001,-0.357183,-0.057598,0.2235579999999999,0.453665
676,-0.3423739999999999,0.851217,-0.3977489999999999,0.0543639999999999,0.031306,0.443754
677,-0.356413,0.821629,-0.444849,0.084669,0.007412,0.456431
678,-0.367475,0.79047,-0.490015,0.105847,-0.188892,0.404856
679,-0.378863,0.759827,-0.52832,0.1363089999999999,-0.207062,0.391891
680,-0.396277,0.7336229999999999,-0.552049,0.163412,-0.335842,0.413804
681,-0.414224,0.7154689999999999,-0.562601,0.168267,-0.466659,0.473001
682,-0.4268909999999999,0.704836,-0.566539,0.175762,-0.361651,0.430979
683,-0.4332149999999999,0.7012609999999999,-0.566174,0.153277,-0.344785,0.399609
684,-0.436557,0.704438,-0.5596270000000001,0.180545,-0.368989,0.372584
685,-0.436399,0.714511,-0.546833,0.15785,-0.35445,0.199909
686,-0.432589,0.7313069999999999,-0.527307,0.107928,-0.367659,0.099603
687,-0.426338,0.7551140000000001,-0.498031,0.070549,-0.347704,-0.0031899999999999
688,-0.416195,0.784072,-0.460443,-0.150318,0.11702,-0.523383
689,-0.403532,0.811546,-0.422552,-0.149508,0.967903,-0.8275399999999999
690,-0.401288,0.8218700000000001,-0.404342,-0.151751,0.95758,-0.845749
691,-0.410101,0.8033100000000001,-0.4318619999999999,-0.232828,0.369984,-0.693367
692,-0.4169819999999999,0.782148,-0.462997,0.176946,-0.620054,-0.373978
693,-0.4247689999999999,0.774908,-0.468064,0.1847329999999999,-0.6128140000000001,-0.368911
694,-0.426253,0.78615,-0.447517,0.28894,0.010633,0.2818219999999999
695,-0.411863,0.805999,-0.425124,-0.5422239999999999,1.636109,0.74211
696,-0.405115,0.812326,-0.419529,-0.598791,1.762839,0.825276
697,-0.416351,0.7905439999999999,-0.449097,0.397919,-1.667344,1.280106
698,-0.422093,0.791408,-0.4421609999999999,-0.277842,-0.4275319999999999,0.381141
699,-0.413326,0.813844,-0.40843,-0.367649,0.202025,-0.507586
700,-0.4229189999999999,0.826725,-0.371027,0.616324,1.473354,0.093378
701,-0.389272,0.8598600000000001,-0.330308,0.141836,0.272815,0.654191
702,-0.344573,0.890893,-0.295929,-0.165238,-0.048211,0.358887
703,-0.310754,0.912898,-0.264659,-0.295158,-0.411555,0.260387
704,-0.304656,0.929805,-0.206502,-0.2260599999999999,-0.311061,0.23975
705,-0.301823,0.940301,-0.157266,-0.112789,-0.180153,0.166421
706,-0.29485,0.948205,-0.1181779999999999,0.299886,0.067298,0.236998
707,-0.28865,0.953636,-0.085171,0.369201,0.038216,0.221051
708,-0.284863,0.95653,-0.062432,0.310529,-0.098589,0.114846
709,-0.2816079999999999,0.958658,-0.04081,0.1219099999999999,-0.25184,-0.087929
710,-0.276022,0.961018,-0.015853,0.13355,-0.247364,-0.084596
711,-0.2702,0.962736,0.011219,0.107251,-0.213331,-0.011768
712,-0.267303,0.962811,0.039204,0.041,-0.167493,0.005489
713,-0.267307,0.960932,0.071761,0.021488,-0.14686,-0.026122
714,-0.270458,0.957025,0.104639,0.0677909999999999,0.035911,-0.205348
715,-0.275734,0.951517,0.1363069999999999,0.084755,0.175177,-0.265092
716,-0.28254,0.945953,0.159173,0.0514159999999999,0.124314,-0.3788849999999999
717,-0.287713,0.942958,0.167465,0.269464,0.316579,-0.347961
718,-0.290544,0.942229,0.166678,0.197954,0.5576800000000001,-0.147147
719,-0.291236,0.942768,0.162368,-0.131158,0.4741479999999999,-0.16693
720,-0.291409,0.944293,0.152916,-0.003406,0.394056,0.012336
721,-0.28572,0.94953,0.129416,0.398635,0.272821,0.043924
722,-0.273481,0.957518,0.091432,-0.090853,0.426302,0.01715
723,-0.264701,0.963546,0.038792,-0.412576,0.2315829999999999,0.093745
724,-0.269103,0.962883,-0.020818,-0.3910079999999999,0.114693,0.233525
725,-0.275206,0.957235,-0.089197,-0.287371,0.510386,0.31344
726,-0.2741639999999999,0.94606,-0.172622,-0.102377,0.471649,0.321258
727,-0.261956,0.930701,-0.255281,-0.247885,0.534234,0.277284
728,-0.264987,0.912747,-0.310917,-0.290326,0.424335,0.69936
729,-0.290724,0.8876850000000001,-0.357059,0.098707,0.323802,0.388965
730,-0.316608,0.854513,-0.411781,0.050739,0.166514,0.3786239999999999
731,-0.329395,0.8196969999999999,-0.468607,-0.029782,-0.232157,0.333292
732,-0.341013,0.786075,-0.515552,0.048868,-0.278949,0.375552
733,-0.3579199999999999,0.755901,-0.548183,0.145716,-0.352504,0.3981429999999999
734,-0.380509,0.730962,-0.566483,0.109177,-0.297048,0.430467
735,-0.402088,0.713681,-0.573569,0.14101,-0.250287,0.42539
736,-0.417281,0.7043510000000001,-0.57425,0.190245,-0.477727,0.430787
737,-0.422434,0.704379,-0.5704359999999999,0.184245,-0.377291,0.408738
738,-0.421855,0.7105640000000001,-0.5631470000000001,0.205577,-0.320717,0.383291
739,-0.4174819999999999,0.721385,-0.552547,0.190721,-0.34283,0.2956809999999999
740,-0.4117659999999999,0.735716,-0.5377430000000001,0.086266,-0.348051,0.207726
741,-0.407172,0.75554,-0.513193,0.04203,-0.342377,0.139246
742,-0.4032699999999999,0.781403,-0.476214,-0.079595,-0.160263,-0.111219
743,-0.398605,0.8073859999999999,-0.4350159999999999,-0.134919,0.904864,-0.769605
744,-0.399466,0.818152,-0.4135819999999999,-0.31077,1.339044,-0.8330299999999999
745,-0.399579,0.797744,-0.4515949999999999,-0.538639,0.576234,-0.912785
746,-0.406699,0.771321,-0.489547,-0.026666,-0.641011,-0.19484
747,-0.421917,0.759239,-0.495518,0.075008,-0.327507,-0.170482
748,-0.431358,0.765598,-0.4772699999999999,0.016502,0.534878,0.274816
749,-0.424689,0.783315,-0.4539289999999999,-0.288232,1.108729,0.204464
750,-0.4195359999999999,0.7845880000000001,-0.456517,-0.534825,1.4466290000000002,0.246282
751,-0.4288079999999999,0.7631939999999999,-0.483378,0.5710649999999999,-1.461192,1.577052
752,-0.42444,0.7801359999999999,-0.459603,-0.229628,-0.103241,0.328301
753,-0.416758,0.803901,-0.424325,0.098597,0.8725360000000001,-0.295478
754,-0.424738,0.815897,-0.392308,0.712137,0.797842,0.601719
755,-0.388806,0.8491620000000001,-0.3574219999999999,0.029477,0.090414,0.449951
756,-0.352953,0.878149,-0.322916,-0.184767,-0.139974,0.1753019999999999
757,-0.327501,0.9005049999999999,-0.286057,-0.098219,-0.134987,0.250947
758,-0.310955,0.919405,-0.240825,-0.102925,-0.094683,0.2467
759,-0.299171,0.934873,-0.1910619999999999,0.015419,-0.017697,0.250617
760,-0.287007,0.946974,-0.144439,0.136402,-0.012617,0.282195
761,-0.278239,0.954373,-0.108394,0.2020819999999999,-0.073026,0.2438
762,-0.271801,0.958691,-0.083848,0.209698,-0.124539,0.137345
763,-0.268992,0.961039,-0.063562,0.137355,-0.1128339999999999,0.006159
764,-0.265545,0.963152,-0.042631,0.144771,-0.112566,-0.060076
765,-0.26147,0.965004,-0.019839,0.127101,-0.099236,-0.0597049999999999
766,-0.256873,0.966427,0.005309,0.077217,-0.090847,-0.022765
767,-0.252751,0.966958,0.033214,0.0545549999999999,-0.090661,-0.071498
768,-0.25085,0.965878,0.06439,0.032192,-0.104993,-0.128279
769,-0.252608,0.962751,0.096401,0.010085,0.0349149999999999,-0.2136809999999999
770,-0.256478,0.958429,0.125002,0.050683,0.100088,-0.263796
771,-0.260533,0.955043,0.141455,0.124974,0.288976,-0.260138
772,-0.263893,0.953436,0.145996,0.148155,0.449472,-0.1988369999999999
773,-0.266991,0.952942,0.143569,-0.196449,0.395554,-0.2565449999999999
774,-0.272231,0.952561,0.136061,-0.184693,0.396072,-0.32646
775,-0.279827,0.952523,0.119966,0.094479,0.2445449999999999,-0.174242
776,-0.283215,0.954789,0.090347,0.244671,0.1230769999999999,-0.048569
777,-0.281703,0.958529,0.043141,0.148784,0.158506,0.0020559999999999
778,-0.278984,0.960113,-0.018603,-0.239952,0.397949,0.335375
779,-0.2776,0.957561,-0.077524,-0.167605,0.3084139999999999,0.31695
780,-0.278645,0.951632,-0.12942,-0.130413,0.41995,0.236109
781,-0.2828739999999999,0.940073,-0.190373,-0.066582,0.348975,0.309102
782,-0.282376,0.921521,-0.266571,-0.2424349999999999,0.365512,0.085998
783,-0.289889,0.8970600000000001,-0.3335329999999999,-0.224301,0.372715,0.1892609999999999
784,-0.313313,0.870693,-0.379111,-0.224041,0.21677,0.5076510000000001
785,-0.335407,0.8410549999999999,-0.424413,0.088703,0.234476,0.535223
786,-0.349305,0.804984,-0.479567,0.095276,0.1804589999999999,0.554305
787,-0.358531,0.767883,-0.5308579999999999,0.058574,0.051926,0.436589
788,-0.369131,0.734876,-0.568944,0.060049,-0.3693059999999999,0.453572
789,-0.383419,0.709025,-0.591837,0.133984,-0.403377,0.446039
790,-0.401495,0.693099,-0.598677,0.085471,-0.374923,0.4277479999999999
791,-0.415257,0.686821,-0.596521,0.1537059999999999,-0.310783,0.373224
792,-0.4246,0.687627,-0.588967,0.175745,-0.368978,0.367241
793,-0.428401,0.694641,-0.577879,0.2229719999999999,-0.40593,0.306197
794,-0.4284479999999999,0.7072729999999999,-0.5623130000000001,0.240994,-0.390882,0.284207
795,-0.425879,0.723877,-0.5427960000000001,0.206061,-0.3301699999999999,0.180628
796,-0.420922,0.743667,-0.519406,0.099648,-0.125808,-0.164325
797,-0.413634,0.7656930000000001,-0.492564,0.020796,0.042473,-0.36968
798,-0.410267,0.778725,-0.474622,-0.221004,0.58892,-0.7063470000000001
799,-0.4165689999999999,0.763191,-0.493972,-0.327816,0.004326,-0.546983
800,-0.429073,0.731504,-0.529903,-0.0703169999999999,-0.450574,-0.34409
801,-0.4476449999999999,0.709993,-0.543618,-0.004717,-0.650469,-0.2901829999999999
802,-0.462629,0.7033729999999999,-0.539667,0.074796,-0.210163,-0.010748
803,-0.466763,0.713102,-0.5230819999999999,0.0066799999999999,-0.10449,0.213344
804,-0.459776,0.731072,-0.504121,-0.054247,0.347953,0.193101
805,-0.451963,0.750602,-0.482,-0.477602,1.815331,0.7324890000000001
806,-0.4384909999999999,0.7603340000000001,-0.479182,-0.6842050000000001,1.089962,0.379771
807,-0.452692,0.746223,-0.4880779999999999,-0.145086,-0.691108,0.628855
808,-0.442759,0.7630100000000001,-0.470933,-0.159719,-0.26388,0.134629
809,-0.4303,0.787817,-0.440664,0.243151,0.929224,-0.134104
810,-0.415359,0.812234,-0.409573,0.481826,0.94422,0.37669
811,-0.375409,0.8489180000000001,-0.372026,0.1215789999999999,0.063527,0.293138
812,-0.33975,0.879033,-0.334467,-0.150531,-0.219167,0.141199
813,-0.314278,0.902213,-0.295362,-0.215522,-0.263617,0.1836829999999999
814,-0.298907,0.921123,-0.2493679999999999,-0.1980559999999999,-0.15208,0.262842
815,-0.288502,0.935743,-0.20285,0.141376,-0.054075,0.303238
816,-0.276792,0.946912,-0.163521,0.129667,-0.065244,0.263909
817,-0.267467,0.954367,-0.132818,0.315563,-0.008734,0.137762
818,-0.260477,0.959264,-0.1093609999999999,0.2368719999999999,-0.007238,0.066163
819,-0.254005,0.963472,-0.084855,0.2303989999999999,-0.011445,0.041657
820,-0.246084,0.967572,-0.056949,0.15029,-0.075223,0.088108
821,-0.237082,0.971145,-0.025809,0.000739,-0.1822349999999999,0.036444
822,-0.229025,0.973394,0.006993,-0.0837649999999999,-0.139348,-0.033208
823,-0.226327,0.97318,0.041148,-0.178581,-0.212575,-0.101893
824,-0.228119,0.97071,0.075364,0.023896,-0.018165,-0.228425
825,-0.230712,0.966697,0.110751,0.126174,0.055276,-0.239978
826,-0.232323,0.962651,0.139019,0.234841,0.107113,-0.189022
827,-0.232771,0.960878,0.150095,0.087935,0.293471,-0.3467659999999999
828,-0.230169,0.961236,0.151802,-0.025797,0.3049989999999999,-0.260673
829,-0.2266389999999999,0.962185,0.151098,-0.291,0.299473,-0.188742
830,-0.225512,0.962691,0.149554,-0.2178929999999999,0.177797,-0.351825
831,-0.226796,0.963637,0.141292,-0.073116,0.1480119999999999,-0.329127
832,-0.228757,0.966159,0.119175,0.167051,0.120694,0.003368
833,-0.2292489999999999,0.970056,0.080201,0.241898,0.25759,0.140121
834,-0.2294119999999999,0.972945,0.027284,0.038951,0.517015,0.241179
835,-0.234446,0.971593,-0.032216,-0.295538,0.232188,0.3252
836,-0.246277,0.964252,-0.09779,-0.191864,0.295788,0.27229
837,-0.260055,0.949347,-0.176379,-0.032212,0.381861,0.235217
838,-0.267288,0.927488,-0.261381,-0.038163,0.501162,-0.021578
839,-0.272007,0.905497,-0.325708,-0.008434,0.61817,0.195443
840,-0.291297,0.8829239999999999,-0.368224,0.056983,0.3222,0.506057
841,-0.320048,0.852785,-0.412704,-0.022893,0.063429,0.473632
842,-0.342316,0.817851,-0.4625329999999999,0.020982,0.034444,0.463525
843,-0.359075,0.783623,-0.50695,0.119085,-0.131966,0.428597
844,-0.3740679999999999,0.751699,-0.543158,0.145491,-0.269521,0.42243
845,-0.389391,0.724683,-0.568513,0.126666,-0.407804,0.45073
846,-0.405868,0.704345,-0.582381,0.1101369999999999,-0.3493949999999999,0.432784
847,-0.4202189999999999,0.692257,-0.586681,0.134514,-0.34158,0.424785
848,-0.4302569999999999,0.687527,-0.584965,0.1719109999999999,-0.407254,0.426288
849,-0.434559,0.689222,-0.579766,0.173085,-0.406447,0.401208
850,-0.433278,0.6978489999999999,-0.570329,0.146275,-0.330723,0.280534
851,-0.428522,0.7141350000000001,-0.5535140000000001,0.135142,-0.3619159999999999,0.215258
852,-0.422637,0.736808,-0.527722,0.088759,-0.40116,0.110272
853,-0.41567,0.7649819999999999,-0.491954,0.015355,-0.3160679999999999,-0.118275
854,-0.406263,0.7946850000000001,-0.451025,-0.02817,0.248971,-0.519861
855,-0.403111,0.814127,-0.417967,-0.254146,1.267385,-0.7276779999999999
856,-0.4075539999999999,0.804088,-0.432828,-0.51394,0.023106,-0.64458
857,-0.412408,0.776379,-0.476606,0.012246,-0.93797,-0.363116
858,-0.423671,0.7573840000000001,-0.4968609999999999,0.048274,-0.6422260000000001,-0.334438
859,-0.4378149999999999,0.757476,-0.484299,0.367793,-0.338287,0.013215
860,-0.439622,0.775944,-0.4523729999999999,-0.2346489999999999,0.904125,0.391765
861,-0.428781,0.796428,-0.426436,-0.493857,1.837193,0.71237
862,-0.419141,0.803917,-0.421942,-0.445284,1.508873,0.61962
863,-0.435233,0.782399,-0.445445,0.8420479999999999,-1.462667,1.250423
864,-0.4303899999999999,0.790297,-0.4361109999999999,0.8372040000000001,-1.470565,1.241088
865,-0.418614,0.8160229999999999,-0.398582,0.016178,1.166811,0.004722
866,-0.427701,0.833461,-0.349876,0.513074,1.130651,0.63021
867,-0.398013,0.8629540000000001,-0.311276,0.260638,0.4897069999999999,0.630704
868,-0.360475,0.890316,-0.278194,-0.229384,-0.077145,0.250606
869,-0.330658,0.910791,-0.247231,-0.271393,-0.411355,0.0444569999999999
870,-0.319332,0.925628,-0.20307,-0.282719,-0.426192,0.000296
871,-0.309531,0.93817,-0.155,0.009344,-0.253264,0.157014
872,-0.2969449999999999,0.947829,-0.115934,0.3332,-0.004195,0.205717
873,-0.285019,0.954612,-0.086472,0.343368,-0.058753,0.167786
874,-0.276597,0.95881,-0.064604,0.276734,-0.243661,0.068983
875,-0.272389,0.96146,-0.03737,0.146642,-0.262332,-0.031631
876,-0.266394,0.963846,-0.005582,0.180777,-0.187723,-0.083148
877,-0.2599889999999999,0.965261,0.025934,0.165415,-0.199697,-0.046229
878,-0.256902,0.964791,0.056357,-0.067958,-0.17228,-0.0250759999999999
879,-0.257845,0.962091,0.0888429999999999,-0.06584,-0.107385,-0.139518
880,-0.260317,0.957105,0.127201,0.022295,0.169604,-0.292179
881,-0.265415,0.949979,0.164593,0.042865,0.204806,-0.361202
882,-0.2717989999999999,0.94448,0.184601,0.075083,0.206811,-0.429993
883,-0.276052,0.942902,0.186349,0.17954,0.411437,-0.310616
884,-0.278712,0.943529,0.179075,0.009059,0.355146,-0.288283
885,-0.281669,0.944641,0.16826,-0.27401,0.2544099999999999,-0.344225
886,-0.2876829999999999,0.945774,0.150817,0.078791,0.036144,-0.184249
887,-0.292642,0.948646,0.120114,0.281198,0.162148,0.035694
888,-0.29268,0.953391,0.073345,0.269579,0.262185,0.114628
889,-0.29246,0.956238,0.008462,-0.383031,0.7348779999999999,0.479224
890,-0.291155,0.95449,-0.064607,-0.413191,0.551949,0.410997
891,-0.290953,0.947474,-0.132803,-0.24225,0.507574,0.440802
892,-0.288644,0.934819,-0.206871,0.015253,0.639766,0.2636489999999999
893,-0.2812719999999999,0.916456,-0.284591,-0.100579,0.815753,0.2585139999999999
894,-0.278261,0.897956,-0.340944,-0.004438,0.6342399999999999,0.510454
895,-0.296695,0.8746430000000001,-0.383367,-0.0085569999999999,0.2168639999999999,0.528112
896,-0.324818,0.8433280000000001,-0.428123,-0.017711,0.061885,0.463188
897,-0.3456599999999999,0.811653,-0.47089,0.131106,-0.1411359999999999,0.441441
898,-0.355542,0.781647,-0.5124609999999999,0.180706,-0.3271179999999999,0.4647779999999999
899,-0.366911,0.7549130000000001,-0.543582,0.177137,-0.4741979999999999,0.510516
900,-0.385731,0.7334350000000001,-0.559717,0.189381,-0.592474,0.5943390000000001
901,-0.404473,0.718952,-0.56525,0.258615,-0.471333,0.548771
902,-0.4191149999999999,0.710384,-0.5654170000000001,0.1938339999999999,-0.458293,0.525775
903,-0.428467,0.708064,-0.5613020000000001,0.240281,-0.434917,0.514656
904,-0.431875,0.713262,-0.552033,0.227194,-0.388204,0.419434
905,-0.4297109999999999,0.726601,-0.536096,0.097222,-0.4170149999999999,0.157769
906,-0.4242189999999999,0.747646,-0.510943,0.0917299999999999,-0.43806,0.132617
907,-0.416364,0.774935,-0.475517,-0.279238,0.059065,-0.318932
908,-0.4082639999999999,0.8002319999999999,-0.439258,-0.237427,0.957245,-0.629147
909,-0.409459,0.8103899999999999,-0.419059,-0.236232,0.947087,-0.649346
910,-0.418202,0.790143,-0.448085,-0.22578,0.542117,-0.88564
911,-0.425066,0.762918,-0.487108,0.150301,-0.435403,-0.615675
912,-0.432237,0.7529020000000001,-0.4962939999999999,0.1730819999999999,-0.260654,-0.301786
913,-0.441596,0.757987,-0.48005,0.353217,0.049814,0.03898
914,-0.43678,0.77172,-0.4622449999999999,0.172543,0.8402799999999999,0.238108
915,-0.423708,0.7759510000000001,-0.467302,-0.16493,1.640843,0.667253
916,-0.42375,0.763402,-0.4874949999999999,-0.460176,-0.8867079999999999,1.480186
917,-0.426137,0.768357,-0.477529,-0.30244,-0.936585,1.0703790000000002
918,-0.435205,0.779443,-0.450625,-0.394583,0.0433259999999999,-0.891126
919,-0.453665,0.789099,-0.414137,0.854392,1.389902,0.302503
920,-0.4143229999999999,0.8327120000000001,-0.367322,0.0846259999999999,0.5506949999999999,0.5994079999999999
921,-0.3719429999999999,0.870926,-0.321161,-0.124471,0.179855,0.279368
922,-0.336838,0.898908,-0.280186,-0.211456,-0.185803,0.178135
923,-0.31685,0.921925,-0.2228429999999999,-0.2270489999999999,-0.381504,0.258823
924,-0.30543,0.937071,-0.169142,-0.162496,-0.328001,0.213637
925,-0.295186,0.946594,-0.1297029999999999,0.02683,-0.064636,0.1950869999999999
926,-0.288194,0.952348,-0.0998759999999999,0.296465,-0.050416,0.201118
927,-0.28441,0.955554,-0.077619,0.259996,-0.118655,0.121427
928,-0.281415,0.957815,-0.058245,0.196332,-0.184378,-0.037519
929,-0.2772239999999999,0.960084,-0.03719,0.242861,-0.176194,-0.0790049999999999
930,-0.270391,0.96266,-0.013046,0.218786,-0.174346,-0.034805
931,-0.2641739999999999,0.96437,0.014119,0.12709,-0.197661,0.080623
932,-0.261038,0.964293,0.04467,-0.085062,-0.123075,-0.01165
933,-0.261842,0.961959,0.077914,-0.051299,-0.0447529999999999,-0.237033
934,-0.2644869999999999,0.957723,0.113178,0.126243,0.009928,-0.300617
935,-0.267863,0.952424,0.145379,0.223277,0.030181,-0.213418
936,-0.271304,0.949345,0.158539,0.2379489999999999,0.353145,-0.292405
937,-0.272488,0.949059,0.15822,0.057141,0.424141,-0.249971
938,-0.273128,0.950068,0.150892,-0.112706,0.434484,-0.245283
939,-0.274657,0.951149,0.140977,-0.12253,0.356361,-0.40413
940,-0.277515,0.952102,0.128385,0.140369,0.376007,-0.117079
941,-0.276003,0.955588,0.103302,0.287004,0.225122,0.1089319999999999
942,-0.269923,0.961014,0.059923,-0.096578,0.301712,0.067427
943,-0.263845,0.964559,0.003021,-0.403559,0.314616,0.109116
944,-0.265289,0.962484,-0.056954,-0.327851,0.1904549999999999,0.315346
945,-0.270158,0.954848,-0.123598,-0.156539,0.505418,0.434435
946,-0.271975,0.939896,-0.206453,-0.131314,0.518875,0.14348
947,-0.266874,0.922503,-0.278864,-0.231417,0.592939,0.244928
948,-0.271804,0.903149,-0.332328,-0.201371,0.491382,0.461021
949,-0.2947849999999999,0.877035,-0.379355,-0.093261,0.113291,0.431204
950,-0.323372,0.84393,-0.4280319999999999,-0.032249,0.075824,0.4918899999999999
951,-0.345099,0.8084899999999999,-0.476706,0.034049,0.031964,0.510351
952,-0.361986,0.775736,-0.516911,0.159548,-0.16363,0.509969
953,-0.3791989999999999,0.745282,-0.548417,0.203464,-0.274609,0.511079
954,-0.397917,0.720194,-0.568315,0.198866,-0.336084,0.544435
955,-0.418346,0.701749,-0.5766560000000001,0.169841,-0.437452,0.4762229999999999
956,-0.435974,0.6917810000000001,-0.575642,0.259659,-0.472695,0.499684
957,-0.4458819999999999,0.690806,-0.569188,0.251805,-0.4696909999999999,0.4345449999999999
958,-0.449071,0.698817,-0.556766,0.238988,-0.4546,0.337573
959,-0.4457569999999999,0.715093,-0.538462,0.222536,-0.392171,0.1799869999999999
960,-0.4360489999999999,0.7389359999999999,-0.5136470000000001,0.128188,-0.418074,0.010763
961,-0.4218949999999999,0.768034,-0.481795,-0.028941,-0.2300239999999999,-0.249498
962,-0.408868,0.795751,-0.446772,-0.156546,0.2672219999999999,-0.5044
963,-0.408973,0.8059649999999999,-0.4279699999999999,-0.4118739999999999,1.314518,-0.627984
964,-0.420253,0.781853,-0.4605329999999999,-0.648259,1.095588,-0.56855
965,-0.4309,0.749486,-0.502587,-0.083855,-0.591222,-0.395026
966,-0.444831,0.727797,-0.521953,-0.429818,-0.027037,-0.404683
967,-0.4747439999999999,0.7134149999999999,-0.515418,-0.373583,1.092265,-0.169396
968,-0.5023340000000001,0.69881,-0.509239,0.326919,-0.301318,0.104515
969,-0.5085270000000001,0.669293,-0.5417069999999999,0.2413449999999999,-1.063381,1.265355
970,-0.4871319999999999,0.7063119999999999,-0.5136390000000001,0.491832,-0.8664069999999999,1.740552
971,-0.4655939999999999,0.744252,-0.478862,-0.244825,1.293635,-0.072148
972,-0.485206,0.748133,-0.452626,0.580162,1.162603,0.246175
973,-0.459554,0.7783939999999999,-0.427681,0.531316,0.3614679999999999,0.444587
974,-0.431936,0.8105100000000001,-0.395605,-0.114481,-0.2192469999999999,0.148351
975,-0.4134069999999999,0.8389540000000001,-0.353906,-0.100036,-0.183467,0.109247
976,-0.393026,0.867675,-0.304417,0.03597,0.182069,0.231938
977,-0.36964,0.893697,-0.254302,0.136684,0.064631,0.245986
978,-0.348319,0.91273,-0.213533,0.112678,-0.054469,0.202058
979,-0.333951,0.925889,-0.176645,0.105832,-0.137742,0.19053
980,-0.331849,0.933011,-0.139153,0.093171,-0.159772,0.161294
981,-0.331855,0.936855,-0.110329,0.1519839999999999,-0.144558,0.039101
982,-0.331507,0.939415,-0.087174,0.198817,-0.137352,-0.023651
983,-0.330841,0.941595,-0.062776,0.24588,-0.194341,-0.037444
984,-0.329367,0.943542,-0.035248,0.192816,-0.202148,-0.050827
985,-0.327536,0.944796,-0.008851,0.092887,-0.041018,-0.042144
986,-0.32736,0.944775,0.015236,0.072431,-0.046216,-0.08796
987,-0.32733,0.944024,0.040867,0.084837,-0.053247,-0.133702
988,-0.32544,0.942769,0.072608,0.133927,0.0323899999999999,-0.1231299999999999
989,-0.324632,0.939889,0.105925,0.111131,0.184318,-0.173567
990,-0.325419,0.93596,0.134458,0.09402,0.242919,-0.2242559999999999
991,-0.325358,0.933252,0.152253,0.183634,0.358298,-0.242112
992,-0.327611,0.93195,0.155359,-0.0220889999999999,0.430431,-0.136606
993,-0.3346659999999999,0.930199,0.150749,-0.119847,0.4294199999999999,-0.194877
994,-0.342866,0.927902,0.146415,0.025682,0.423859,-0.18943
995,-0.347248,0.92818,0.1337799999999999,0.375782,0.364438,0.144205
996,-0.345172,0.933216,0.0998039999999999,0.395739,0.260769,0.208988
997,-0.339517,0.939347,0.0485019999999999,-0.2380429999999999,0.313079,-0.135706
998,-0.336978,0.941468,-0.008966,-0.239591,0.064513,0.011529
999,-0.336904,0.938812,-0.071586,-0.16624,0.144058,0.2420119999999999
1000,-0.333102,0.930294,-0.153601,-0.0762149999999999,0.627827,0.335852
1001,-0.321241,0.918191,-0.23179,-0.231035,0.545371,0.276971
1002,-0.311155,0.902863,-0.296681,-0.241121,0.560699,0.341863
1003,-0.308094,0.8824549999999999,-0.355456,-0.168728,0.4021969999999999,0.5597409999999999
1004,-0.318365,0.856883,-0.405456,0.094335,0.278416,0.507003
1005,-0.3432469999999999,0.824608,-0.4496699999999999,0.130554,0.124885,0.434151
1006,-0.364928,0.7891229999999999,-0.494076,0.024901,-0.095123,0.4582489999999999
1007,-0.378713,0.757323,-0.532012,-0.005045,-0.3925619999999999,0.4211569999999999
1008,-0.395374,0.730295,-0.5570890000000001,0.137943,-0.248727,0.530142
1009,-0.4157869999999999,0.709806,-0.568592,0.131226,-0.283673,0.544895
1010,-0.429174,0.695129,-0.576719,0.133703,-0.472884,0.4751109999999999
1011,-0.436388,0.68726,-0.580723,0.186998,-0.558033,0.4415779999999999
1012,-0.438144,0.687238,-0.5794239999999999,0.132327,-0.410368,0.372042
1013,-0.436775,0.692279,-0.574436,0.221214,-0.266361,0.3175389999999999
1014,-0.434146,0.701806,-0.564787,0.228564,-0.316186,0.32083
1015,-0.4324739999999999,0.7157899999999999,-0.54828,0.181024,-0.349731,0.273652
1016,-0.429579,0.737213,-0.521515,0.0998059999999999,-0.214646,0.036926
1017,-0.423212,0.764703,-0.485922,-0.018438,-0.095041,-0.140894
1018,-0.416772,0.790844,-0.448181,-0.095572,0.339634,-0.5154569999999999
1019,-0.419992,0.799528,-0.429372,-0.373984,1.165956,-0.7685649999999999
1020,-0.426291,0.775947,-0.464954,-0.441263,0.81434,-0.78532
1021,-0.436673,0.746826,-0.5015649999999999,0.2182739999999999,-0.501861,-0.37429
1022,-0.454634,0.731851,-0.507642,0.247664,-0.37768,-0.268741
1023,-0.473806,0.730031,-0.492505,0.041678,0.477412,0.023679
1024,-0.478497,0.730234,-0.487645,-0.05907,1.07839,0.0036509999999999
1025,-0.476943,0.7146,-0.511734,0.093123,1.010864,0.321976
1026,-0.4748989999999999,0.71003,-0.51993,0.067322,-0.846398,1.918093
1027,-0.4609899999999999,0.7380909999999999,-0.492655,-0.8579180000000001,0.305992,0.146784
1028,-0.469288,0.7460859999999999,-0.472359,0.320668,0.852577,-0.148612
1029,-0.464589,0.765822,-0.444605,0.670689,0.8707450000000001,0.447321
1030,-0.432256,0.8012090000000001,-0.413786,0.044347,0.292633,0.4391
1031,-0.399789,0.83454,-0.379091,-0.10697,-0.036994,0.162355
1032,-0.371658,0.863395,-0.3412,-0.094895,-0.078483,0.11714
1033,-0.347165,0.8892110000000001,-0.297958,0.055798,-0.0403339999999999,0.066115
1034,-0.328328,0.910965,-0.249686,0.1084789999999999,-0.039291,0.164344
1035,-0.314474,0.926566,-0.206348,0.106802,-0.117851,0.19382
1036,-0.308218,0.936613,-0.166601,0.169546,-0.19937,0.107199
1037,-0.305005,0.943692,-0.128122,0.180036,-0.207502,0.004633
1038,-0.302433,0.94851,-0.094141,0.1567869999999999,-0.1887589999999999,-0.064139
1039,-0.299912,0.951652,-0.066398,0.163239,-0.224083,-0.091027
1040,-0.2987039999999999,0.953494,-0.040304,0.2108739999999999,-0.363742,0.0329649999999999
1041,-0.296346,0.955021,-0.010616,0.2379349999999999,-0.358067,0.04977
1042,-0.294586,0.955338,0.023371,0.093277,-0.09076,0.077551
1043,-0.294277,0.953911,0.05877,0.1096299999999999,-0.028557,-0.110848
1044,-0.292131,0.951333,0.0981,0.1184099999999999,-0.043511,-0.183015
1045,-0.292096,0.946315,0.138438,-0.03876,0.006489,-0.186671
1046,-0.297183,0.939477,0.170479,0.133991,0.1504579999999999,-0.304543
1047,-0.300187,0.935444,0.18663,0.259522,0.320782,-0.319382
1048,-0.302521,0.934335,0.188404,0.051987,0.4359949999999999,-0.2117949999999999
1049,-0.306206,0.93407,0.1837089999999999,-0.079032,0.32031,-0.290567
1050,-0.311534,0.933751,0.17622,-0.0737039999999999,0.320629,-0.283077
1051,-0.315727,0.935344,0.159515,0.286049,0.2323349999999999,0.023407
1052,-0.314534,0.940659,0.127384,0.089421,0.2206719999999999,0.021176
1053,-0.310769,0.947446,0.075936,0.085656,0.213885,0.072624
1054,-0.309532,0.950822,0.011195,-0.394875,0.377349,0.171713
1055,-0.310679,0.948932,-0.054813,-0.296193,0.681515,0.441486
1056,-0.306976,0.942937,-0.128976,-0.184754,0.7867850000000001,0.4939199999999999
1057,-0.29675,0.93202,-0.208031,-0.243198,0.717547,0.298455
1058,-0.28622,0.915493,-0.282755,-0.345936,0.703389,0.2017
1059,-0.283916,0.8939030000000001,-0.346884,-0.346104,0.436144,0.471945
1060,-0.29207,0.86835,-0.400827,-0.087157,0.317807,0.57229
1061,-0.309254,0.834586,-0.455881,-0.038113,-0.0895,0.427149
1062,-0.32343,0.795343,-0.512662,-0.048717,-0.17373,0.374906
1063,-0.340711,0.762108,-0.550552,0.022428,-0.255135,0.455657
1064,-0.362555,0.735379,-0.572513,0.120749,-0.383603,0.4705229999999999
1065,-0.385482,0.7159840000000001,-0.5820390000000001,0.1980579999999999,-0.4897579999999999,0.503869
1066,-0.407746,0.703683,-0.581871,0.23845,-0.478539,0.516197
1067,-0.421828,0.699417,-0.576955,0.279921,-0.4970699999999999,0.476811
1068,-0.42716,0.702962,-0.5686640000000001,0.228613,-0.428029,0.395629
1069,-0.426393,0.712942,-0.556688,0.1889819999999999,-0.3669489999999999,0.307894
1070,-0.421106,0.7279180000000001,-0.5411159999999999,0.167733,-0.4130979999999999,0.253274
1071,-0.412509,0.747833,-0.520175,0.1039,-0.399032,0.015765
1072,-0.401472,0.772877,-0.491408,0.0017829999999999,-0.102924,-0.319032
1073,-0.3910949999999999,0.797786,-0.458892,-0.105624,0.479603,-0.681077
1074,-0.390181,0.808384,-0.440764,-0.401262,1.04092,-0.781312
1075,-0.398833,0.7891279999999999,-0.467128,-0.465501,0.513942,-0.68221
1076,-0.408612,0.762712,-0.501305,-0.151019,-0.531709,-0.390968
1077,-0.4198949999999999,0.745616,-0.517441,-0.154644,-0.198481,-0.2984469999999999
1078,-0.440289,0.7384189999999999,-0.5107659999999999,-0.2954739999999999,0.7520899999999999,-0.096747
1079,-0.465785,0.729636,-0.500674,-0.21909,1.520135,0.009081
1080,-0.481739,0.69304,-0.536304,0.210575,-0.6947800000000001,1.39513
1081,-0.483353,0.695185,-0.5320590000000001,0.224656,-0.8979600000000001,1.6969759999999998
1082,-0.456906,0.72932,-0.509245,-0.91283,0.657094,-0.797732
1083,-0.473302,0.73755,-0.481668,0.644903,1.342909,0.4351899999999999
1084,-0.439896,0.776015,-0.4519869999999999,0.319611,0.587495,0.719504
1085,-0.40142,0.8193389999999999,-0.4093239999999999,-0.121575,0.053174,0.189765
1086,-0.369784,0.8565290000000001,-0.360023,0.019977,-0.008827,0.1927859999999999
1087,-0.337575,0.890511,-0.305011,0.032094,0.057441,0.253315
1088,-0.305714,0.919196,-0.248227,0.074955,0.030007,0.317853
1089,-0.276943,0.941214,-0.193439,0.06187,-0.063971,0.269932
1090,-0.25816,0.954302,-0.150532,0.047299,-0.2316909999999999,0.268223
1091,-0.249328,0.961699,-0.11388,0.116409,-0.162871,0.213367
1092,-0.243513,0.96617,-0.0849429999999999,0.0958379999999999,-0.139708,0.132947
1093,-0.2400739999999999,0.968715,-0.062871,0.090324,-0.199734,-0.049693
1094,-0.235576,0.970932,-0.042334,0.185435,-0.216889,-0.100091
1095,-0.230413,0.972964,-0.015755,0.180349,-0.192599,-0.080497
1096,-0.227542,0.973647,0.015324,0.017153,-0.253065,0.094036
1097,-0.227165,0.972629,0.048854,-0.043679,-0.10239,0.049596
1098,-0.2291969999999999,0.969336,0.088622,-0.033101,0.017083,-0.073196
1099,-0.231011,0.964615,0.127082,0.051064,0.0108799999999999,-0.295158
1100,-0.232201,0.960197,0.155246,0.144493,0.193581,-0.339969
1101,-0.23321,0.958001,0.166868,0.243113,0.310264,-0.316831
1102,-0.233328,0.957627,0.168839,0.108572,0.456909,-0.154755
1103,-0.234107,0.957731,0.16716,-0.233194,0.3528159999999999,-0.335511
1104,-0.239678,0.957192,0.162277,-0.120765,0.2787239999999999,-0.3007039999999999
1105,-0.2421719999999999,0.958614,0.149694,0.201828,0.361652,-0.088399
1106,-0.238378,0.963304,0.123366,0.1202599999999999,0.239501,0.1107799999999999
1107,-0.2306099999999999,0.969615,0.081621,-0.118221,0.269597,0.081526
1108,-0.2227719999999999,0.97444,0.0289329999999999,-0.354438,0.2368179999999999,0.075269
1109,-0.223252,0.97425,-0.0315149999999999,-0.386917,0.238229,0.254262
1110,-0.2302,0.967854,-0.10131,-0.391137,0.4407149999999999,0.405326
1111,-0.233104,0.955591,-0.180298,-0.3306469999999999,0.581,0.136063
1112,-0.229086,0.939077,-0.256229,-0.288019,0.526652,0.216221
1113,-0.232132,0.919925,-0.315994,-0.255325,0.4518859999999999,0.369079
1114,-0.250596,0.897143,-0.36378,-0.049819,0.1588109999999999,0.514292
1115,-0.277803,0.867143,-0.413384,-0.042006,0.156569,0.541482
1116,-0.300281,0.8328530000000001,-0.464958,-0.102597,-0.077055,0.5693739999999999
1117,-0.317486,0.796824,-0.514074,0.0173919999999999,-0.255793,0.447714
1118,-0.341995,0.764173,-0.54688,0.074921,-0.268339,0.448079
1119,-0.365534,0.737302,-0.568129,0.1224619999999999,-0.316663,0.495481
1120,-0.388775,0.716705,-0.5789529999999999,0.164853,-0.4371939999999999,0.459752
1121,-0.405837,0.705072,-0.5815229999999999,0.216079,-0.4134,0.41125
1122,-0.4160319999999999,0.704125,-0.575435,0.236131,-0.436867,0.360209
1123,-0.41831,0.713828,-0.561663,0.184347,-0.3630739999999999,0.267931
1124,-0.4142229999999999,0.731125,-0.5421020000000001,0.1998059999999999,-0.33342,0.149677
1125,-0.404628,0.7534270000000001,-0.518288,0.159709,-0.304239,-0.021934
1126,-0.3906679999999999,0.779118,-0.490256,0.043271,-0.264836,-0.2162099999999999
1127,-0.377783,0.8034789999999999,-0.460108,-0.155024,0.158648,-0.466711
1128,-0.377042,0.814789,-0.440403,-0.401751,0.911773,-0.497539
1129,-0.388495,0.797601,-0.461412,-0.6193930000000001,0.78266,-0.599715
1130,-0.399101,0.768785,-0.499685,-0.212853,-0.646456,-0.4240819999999999
1131,-0.409246,0.749912,-0.519757,-0.128519,-0.705295,-0.337832
1132,-0.4296529999999999,0.745238,-0.509918,-0.027699,-0.110442,0.101196
1133,-0.445953,0.750981,-0.486981,-0.176072,0.748881,0.112088
1134,-0.4511779999999999,0.7480479999999999,-0.486684,-0.375604,1.911315,0.536168
1135,-0.451718,0.730116,-0.512717,0.026105,-0.7917,0.947883
1136,-0.449943,0.736808,-0.5046430000000001,-0.307748,-0.2442389999999999,0.247715
1137,-0.437424,0.764904,-0.472843,-0.353118,0.355809,-0.620053
1138,-0.439704,0.783158,-0.439683,0.479743,1.099975,0.50821
1139,-0.407058,0.82278,-0.396654,0.075927,0.278325,0.46158
1140,-0.372183,0.8591030000000001,-0.35131,-0.110666,0.0133789999999999,0.228232
1141,-0.343651,0.886748,-0.309157,-0.113823,-0.160888,0.244383
1142,-0.318891,0.910387,-0.263631,-0.005618,-0.011293,0.325246
1143,-0.298858,0.928985,-0.21833,-0.001862,-0.009032,0.282661
1144,-0.281654,0.942999,-0.177258,0.065421,-0.1529299999999999,0.220471
1145,-0.270234,0.951944,-0.144125,0.090775,-0.2265869999999999,0.221503
1146,-0.261948,0.958111,-0.115776,0.11789,-0.185055,0.223213
1147,-0.255431,0.962318,-0.093253,0.148161,-0.104148,0.129325
1148,-0.250942,0.965538,-0.068994,0.15556,-0.185372,0.072152
1149,-0.245865,0.968414,-0.041489,0.143204,-0.156417,0.066803
1150,-0.2417699999999999,0.97024,-0.013324,0.084696,-0.101573,0.0624269999999999
1151,-0.238981,0.970902,0.01526,-0.042498,-0.032746,-0.0829179999999999
1152,-0.2377699999999999,0.97016,0.047435,-0.061515,-0.020377,-0.182948
1153,-0.23763,0.967678,0.084425,0.068563,0.116337,-0.250745
1154,-0.238831,0.963637,0.119831,0.098969,0.134187,-0.278339
1155,-0.2399619999999999,0.960432,0.141365,0.072527,0.167055,-0.286858
1156,-0.2401989999999999,0.959589,0.146591,0.09576,0.332433,-0.257217
1157,-0.2380469999999999,0.960218,0.145983,-0.141012,0.327395,-0.139116
1158,-0.237351,0.960587,0.144682,-0.247604,0.313201,-0.170011
1159,-0.241954,0.959902,0.141572,-0.05869,0.074568,-0.2300579999999999
1160,-0.2468659999999999,0.95996,0.132396,0.179651,0.133851,-0.197154
1161,-0.249158,0.962108,0.110744,0.208783,0.162679,-0.085995
1162,-0.246912,0.966166,0.074515,0.0935,0.2289929999999999,0.032907
1163,-0.242611,0.969763,0.026373,-0.161914,0.374308,0.226679
1164,-0.242801,0.969588,-0.0307029999999999,-0.271619,0.315645,0.342897
1165,-0.250244,0.963937,-0.090545,-0.323837,0.307425,0.36261
1166,-0.258735,0.952869,-0.158405,-0.079796,0.2873949999999999,0.379184
1167,-0.257504,0.936455,-0.238202,-0.063282,0.373832,0.345639
1168,-0.256521,0.916226,-0.307773,-0.176386,0.4739569999999999,0.296542
1169,-0.273794,0.8958719999999999,-0.3499239999999999,-0.023584,0.225954,0.473764
1170,-0.304959,0.869585,-0.388355,-0.0337709999999999,0.156492,0.494007
1171,-0.330319,0.837255,-0.4357649999999999,-0.0571929999999999,-0.094167,0.4591409999999999
1172,-0.347227,0.803095,-0.484221,0.06381,-0.1053109999999999,0.460738
1173,-0.366388,0.7704439999999999,-0.521704,0.086466,-0.097196,0.363653
1174,-0.388047,0.743985,-0.543971,0.109803,-0.230603,0.451442
1175,-0.410864,0.724417,-0.553543,0.084921,-0.349463,0.4832149999999999
1176,-0.429755,0.711773,-0.555597,0.115469,-0.375607,0.393838
1177,-0.442779,0.7073020000000001,-0.5510619999999999,0.198562,-0.394375,0.365057
1178,-0.448492,0.710943,-0.541676,0.209936,-0.3206239999999999,0.326619
1179,-0.446618,0.7214659999999999,-0.529166,0.16488,-0.381775,0.278541
1180,-0.4405739999999999,0.737122,-0.51239,0.140677,-0.362687,0.192627
1181,-0.432134,0.758214,-0.4882319999999999,0.072911,-0.3764699999999999,0.064709
1182,-0.421151,0.7842560000000001,-0.455602,-0.04853,-0.168899,-0.239619
1183,-0.410908,0.808431,-0.421417,-0.250256,0.333766,-0.51564
1184,-0.409752,0.813855,-0.411997,-0.6114569999999999,1.212314,-0.6304069999999999
1185,-0.417138,0.789926,-0.449456,-0.5571050000000001,0.3176179999999999,-0.783668
1186,-0.424658,0.765437,-0.483497,0.041571,-0.8654280000000001,-0.383874
1187,-0.438518,0.752858,-0.490821,0.325282,-0.2152599999999999,0.0200419999999999
1188,-0.452323,0.7598199999999999,-0.466985,0.310614,-0.042199,0.189397
1189,-0.44672,0.7751819999999999,-0.44669,-0.23663,1.0446879999999998,0.074818
1190,-0.4340529999999999,0.777702,-0.454726,-0.453322,1.8919,0.412718
1191,-0.441158,0.760603,-0.4762979999999999,0.037563,-1.05438,0.791896
1192,-0.438366,0.773117,-0.458391,0.254635,-0.826034,1.377962
1193,-0.426285,0.797966,-0.4260609999999999,0.128648,1.011757,-0.150217
1194,-0.433179,0.8151010000000001,-0.384659,0.670575,1.244408,0.421677
1195,-0.399469,0.851107,-0.340642,0.509622,0.746412,0.8445940000000001
1196,-0.3589239999999999,0.88045,-0.309801,-0.206002,-0.075137,0.1042039999999999
1197,-0.32588,0.902369,-0.282006,-0.1923089999999999,-0.188182,0.096658
1198,-0.312093,0.921874,-0.229655,-0.209941,-0.21054,0.260706
1199,-0.299856,0.937944,-0.174191,0.028036,-0.035753,0.230893
1200,-0.285127,0.949493,-0.130995,0.079728,-0.106613,0.203367
1201,-0.270676,0.957386,-0.100704,0.196778,-0.247944,0.140896
1202,-0.262429,0.962094,-0.074166,0.128991,-0.198117,0.067742
1203,-0.257611,0.965086,-0.047324,0.102261,-0.2052139999999999,-0.001962
1204,-0.2499429999999999,0.968077,-0.01871,0.073979,-0.25012,-0.050046
1205,-0.244309,0.969606,0.013073,0.144288,-0.161684,-0.0516169999999999
1206,-0.24094,0.969563,0.043452,0.1200599999999999,-0.158803,-0.063472
1207,-0.241046,0.967721,0.073527,-0.00015,-0.157388,-0.106669
1208,-0.2447099999999999,0.963842,0.105447,-0.014674,0.021723,-0.192468
1209,-0.250564,0.958737,0.134291,0.013137,0.101337,-0.296736
1210,-0.25459,0.954691,0.154086,0.194912,0.205587,-0.326159
1211,-0.255178,0.953033,0.163109,0.24053,0.351227,-0.271263
1212,-0.252716,0.95344,0.1645619999999999,0.167969,0.349112,-0.113399
1213,-0.2514099999999999,0.954746,0.15889,-0.25651,0.309658,-0.243607
1214,-0.254051,0.956727,0.141868,-0.143548,0.274169,-0.136803
1215,-0.251404,0.961336,0.112352,0.258789,0.255445,0.012068
1216,-0.2432929999999999,0.967274,0.071996,-0.103097,0.40385,0.0218
1217,-0.238704,0.970882,0.020106,-0.4777869999999999,0.396901,0.217443
1218,-0.241257,0.96956,-0.041753,-0.318573,0.195357,0.337682
1219,-0.249326,0.962168,-0.109838,-0.226122,0.388921,0.405813
1220,-0.252671,0.948491,-0.191098,-0.0619809999999999,0.4927319999999999,0.336132
1221,-0.248881,0.931647,-0.264743,-0.19875,0.640299,0.357502
1222,-0.2544079999999999,0.914661,-0.314114,-0.121706,0.50938,0.571682
1223,-0.277827,0.8915780000000001,-0.357627,-0.02332,0.301079,0.5286930000000001
1224,-0.308911,0.859188,-0.407881,-0.0278199999999999,0.151386,0.4725319999999999
1225,-0.331187,0.822982,-0.4615329999999999,-0.040685,-0.106826,0.39885
1226,-0.345563,0.788207,-0.509228,0.044355,-0.279433,0.365262
1227,-0.360776,0.757674,-0.543846,0.111874,-0.267547,0.433357
1228,-0.376711,0.733717,-0.565461,0.150621,-0.405791,0.5200199999999999
1229,-0.394305,0.715601,-0.576573,0.1328609999999999,-0.433817,0.4665569999999999
1230,-0.406952,0.705321,-0.580439,0.220627,-0.405944,0.456813
1231,-0.4133189999999999,0.703469,-0.578184,0.183232,-0.484597,0.441694
1232,-0.415778,0.70927,-0.5692649999999999,0.155204,-0.3044389999999999,0.381734
1233,-0.415462,0.722019,-0.553244,0.1580619999999999,-0.315616,0.3243769999999999
1234,-0.412131,0.741207,-0.529867,0.131705,-0.367031,0.159276
1235,-0.405084,0.7665,-0.498379,-0.042182,-0.10845,-0.3327969999999999
1236,-0.396629,0.792315,-0.4635939999999999,-0.159356,0.071699,-0.527678
1237,-0.3947969999999999,0.806049,-0.440928,-0.367715,0.883358,-0.630315
1238,-0.404097,0.791283,-0.458883,-0.316911,0.227165,-0.631205
1239,-0.413147,0.7652180000000001,-0.493708,-0.036209,-0.275075,-0.588857
1240,-0.420919,0.751366,-0.508206,0.130712,-0.603356,-0.452701
1241,-0.4359479999999999,0.753814,-0.4916399999999999,0.188054,0.100953,0.141466
1242,-0.438532,0.767441,-0.467677,-0.082678,0.548157,0.134822
1243,-0.433063,0.7733770000000001,-0.462971,-0.3784909999999999,1.704117,0.5160100000000001
1244,-0.431408,0.757758,-0.4895779999999999,-0.046711,-1.019034,0.661453
1245,-0.442884,0.743187,-0.501522,0.55177,-1.463051,1.4791530000000002
1246,-0.432393,0.771746,-0.466306,-0.420467,-0.252596,0.594648
1247,-0.440553,0.786144,-0.43346,0.176667,1.038548,-0.253048
1248,-0.42027,0.814034,-0.400897,0.915967,1.377876,0.694873
1249,-0.379359,0.849475,-0.366709,-0.018667,0.22804,0.713221
1250,-0.348112,0.8764040000000001,-0.332762,-0.236711,-0.238724,0.126464
1251,-0.331308,0.8982129999999999,-0.2888679999999999,-0.183508,-0.248844,0.0853309999999999
1252,-0.321754,0.916929,-0.236034,0.079948,0.026782,0.2376059999999999
1253,-0.3058869999999999,0.933163,-0.188775,0.152032,-0.053997,0.222696
1254,-0.2909219999999999,0.944928,-0.149902,0.182111,-0.134549,0.218917
1255,-0.2797699999999999,0.952878,-0.117251,0.185501,-0.220303,0.191927
1256,-0.2742239999999999,0.957507,-0.0893159999999999,0.130471,-0.1892569999999999,0.136175
1257,-0.269961,0.960832,-0.0625889999999999,0.121874,-0.202562,-0.013217
1258,-0.263612,0.963923,-0.036812,0.185533,-0.153102,-0.037041
1259,-0.259281,0.96573,-0.0115859999999999,0.171177,-0.156709,-0.0523179999999999
1260,-0.256626,0.966374,0.016092,0.0331,-0.118916,0.005666
1261,-0.255748,0.965508,0.0488069999999999,-0.025533,-0.039574,-0.028314
1262,-0.256957,0.962685,0.0848889999999999,-0.008591,0.131767,-0.172352
1263,-0.259335,0.958396,0.119238,0.04829,0.089761,-0.3055469999999999
1264,-0.259734,0.955607,0.1391,0.192153,0.134176,-0.325959
1265,-0.257928,0.955363,0.14405,0.248284,0.393453,-0.145546
1266,-0.255269,0.956346,0.142252,-0.100947,0.433532,-0.1328069999999999
1267,-0.254771,0.956988,0.138785,-0.180608,0.16496,-0.260275
1268,-0.260067,0.956419,0.1327539999999999,-0.036366,0.07274,-0.236696
1269,-0.264398,0.956874,0.120346,0.13009,0.046041,-0.250306
1270,-0.26661,0.95921,0.09398,0.232232,0.10622,-0.040238
1271,-0.264523,0.962851,0.054248,0.182217,0.141016,0.091138
1272,-0.261308,0.965251,0.002621,0.107438,0.2876329999999999,0.173694
1273,-0.261067,0.963737,-0.055254,-0.355968,0.443749,0.441881
1274,-0.26474,0.957418,-0.115157,-0.3548429999999999,0.337763,0.423751
1275,-0.269333,0.944578,-0.1877,-0.3093869999999999,0.329226,0.5011
1276,-0.266071,0.925794,-0.268532,-0.177777,0.502993,0.156808
1277,-0.269886,0.906622,-0.324342,-0.073147,0.373835,0.4405229999999999
1278,-0.2917949999999999,0.885848,-0.360732,-0.017699,0.244782,0.458754
1279,-0.3204909999999999,0.85772,-0.401996,-0.002537,0.098334,0.466815
1280,-0.3411949999999999,0.8260200000000001,-0.448639,0.039956,-0.039994,0.43721
1281,-0.355027,0.794147,-0.4932399999999999,0.043946,-0.070056,0.45729
1282,-0.3714429999999999,0.763293,-0.528595,0.065962,-0.103488,0.433243
1283,-0.391111,0.73729,-0.550849,0.032103,-0.290284,0.465338
1284,-0.408124,0.719653,-0.561723,0.093808,-0.316669,0.454729
1285,-0.420828,0.7092430000000001,-0.565577,0.148047,-0.392944,0.412256
1286,-0.4279,0.7047899999999999,-0.5658380000000001,0.181592,-0.351854,0.386608
1287,-0.429859,0.705849,-0.563025,0.185093,-0.355416,0.397086
1288,-0.427517,0.712541,-0.55634,0.181911,-0.34755,0.327382
1289,-0.423008,0.72595,-0.5422739999999999,0.146473,-0.314496,0.194419
1290,-0.417963,0.7461220000000001,-0.518275,0.112345,-0.332807,0.129664
1291,-0.412209,0.772317,-0.483332,0.063775,-0.218362,-0.076513
1292,-0.40752,0.798122,-0.443766,-0.1270109999999999,0.593785,-0.586843
1293,-0.408211,0.807986,-0.424878,-0.250282,1.079816,-0.7711060000000001
1294,-0.408109,0.789701,-0.458059,-0.680941,0.6954670000000001,-0.800638
1295,-0.414775,0.764154,-0.4939939999999999,-0.190815,-0.4520659999999999,-0.375238
1296,-0.430537,0.7513350000000001,-0.5001329999999999,0.0301,-0.39286,-0.2447099999999999
1297,-0.4471,0.75669,-0.476992,0.132372,0.335565,0.200075
1298,-0.446607,0.772934,-0.4506819999999999,-0.08298,0.8318180000000001,0.048018
1299,-0.440928,0.78138,-0.441619,-0.294912,1.236336,0.158157
1300,-0.440117,0.770184,-0.461642,-0.075172,-0.463284,0.663791
1301,-0.44736,0.7639,-0.4651079999999999,0.345935,-1.24742,1.12032
1302,-0.437602,0.788151,-0.4328079999999999,-0.2056329999999999,-0.2499579999999999,0.674797
1303,-0.442376,0.802796,-0.399776,0.437936,0.933852,0.098705
1304,-0.4291899999999999,0.8245870000000001,-0.36858,0.614432,0.77815,0.655751
1305,-0.392743,0.8547399999999999,-0.339371,-0.08063,0.1583369999999999,0.505783
1306,-0.358446,0.8796639999999999,-0.312583,-0.170363,-0.07139,0.160423
1307,-0.337931,0.898538,-0.2800559999999999,-0.209722,-0.214761,0.1377519999999999
1308,-0.329843,0.914529,-0.23418,-0.074469,-0.0817809999999999,0.2382389999999999
1309,-0.320271,0.927799,-0.191352,0.152912,-0.048862,0.24308
1310,-0.310297,0.937377,-0.158238,0.187143,-0.042297,0.222737
1311,-0.3028409999999999,0.943698,-0.133122,0.216324,-0.117892,0.16425
1312,-0.299107,0.947482,-0.113193,0.172459,-0.156665,0.128467
1313,-0.295825,0.950969,-0.090254,0.153414,-0.170985,0.127745
1314,-0.2898929999999999,0.954899,-0.064263,0.15975,-0.166203,0.08648
1315,-0.285484,0.95771,-0.035936,0.116218,-0.132499,0.061586
1316,-0.283645,0.958898,-0.00775,0.049454,-0.124517,0.011275
1317,-0.283069,0.958882,0.020452,0.01601,-0.102116,-0.047094
1318,-0.281928,0.957992,0.052612,0.038779,-0.065811,-0.05577
1319,-0.282167,0.955568,0.08527,0.046023,0.161818,-0.1158339999999999
1320,-0.284639,0.951595,0.115961,0.048494,0.165791,-0.146524
1321,-0.284641,0.948442,0.139418,0.132816,0.1814869999999999,-0.317366
1322,-0.281319,0.947836,0.149885,0.246728,0.41865,-0.254667
1323,-0.278544,0.948392,0.151539,0.0126439999999999,0.394152,-0.1539039999999999
1324,-0.279833,0.948753,0.146837,-0.184354,0.291253,-0.230516
1325,-0.286993,0.948254,0.135822,-0.025415,0.158328,-0.240589
1326,-0.291014,0.949423,0.1179279999999999,0.244429,0.2420139999999999,-0.118767
1327,-0.290827,0.952941,0.085577,0.241953,0.153962,-0.005254
1328,-0.287072,0.957162,0.03782,-0.164146,0.3375309999999999,0.076987
1329,-0.282936,0.958931,-0.019938,-0.242027,0.302788,0.2495679999999999
1330,-0.282083,0.95602,-0.080337,-0.220388,0.143833,0.32373
1331,-0.281948,0.94828,-0.14584,-0.175526,0.353417,0.361401
1332,-0.277127,0.934693,-0.222596,-0.139499,0.357925,0.2837989999999999
1333,-0.270269,0.918042,-0.290091,-0.248865,0.5358149999999999,0.185324
1334,-0.27858,0.900372,-0.3342489999999999,-0.174346,0.260837,0.53945
1335,-0.299122,0.877841,-0.374058,-0.092175,0.230877,0.51276
1336,-0.322209,0.849673,-0.417417,0.040776,0.253202,0.498075
1337,-0.340301,0.8181689999999999,-0.463458,-0.042328,-0.123513,0.376666
1338,-0.351837,0.787062,-0.506698,-0.025833,-0.1310869999999999,0.385207
1339,-0.3703079999999999,0.7591140000000001,-0.535367,0.100624,-0.147328,0.470334
1340,-0.3926989999999999,0.735308,-0.552367,0.101485,-0.340258,0.526137
1341,-0.413588,0.717316,-0.560716,0.11714,-0.375488,0.504793
1342,-0.42878,0.706982,-0.562426,0.199959,-0.403057,0.382144
1343,-0.438062,0.7054729999999999,-0.557144,0.201474,-0.390242,0.351593
1344,-0.4408359999999999,0.712016,-0.546532,0.190515,-0.303507,0.284508
1345,-0.438197,0.72392,-0.532844,0.187297,-0.305676,0.192405
1346,-0.431812,0.740505,-0.514967,0.175296,-0.336284,0.142728
1347,-0.423152,0.762285,-0.4897579999999999,0.057582,-0.268221,-0.08118
1348,-0.4135149999999999,0.7881600000000001,-0.455859,-0.109342,0.067156,-0.361493
1349,-0.409176,0.808708,-0.422569,-0.184529,0.343086,-0.4691689999999999
1350,-0.412672,0.805607,-0.4250859999999999,-0.604815,1.000255,-0.788888
1351,-0.419592,0.78035,-0.463676,-0.266214,-0.289871,-0.6158680000000001
1352,-0.430071,0.759062,-0.488735,0.030657,-0.8074479999999999,-0.250736
1353,-0.449669,0.752116,-0.481786,0.24311,-0.044871,0.128072
1354,-0.459614,0.763641,-0.453437,0.068226,0.532196,0.348853
1355,-0.453634,0.776142,-0.4379699999999999,-0.310008,1.389568,0.4864779999999999
1356,-0.4450159999999999,0.772794,-0.452492,-0.188056,0.485934,0.372078
1357,-0.454341,0.7563529999999999,-0.4706399999999999,0.129894,-0.619955,1.108854
1358,-0.446939,0.7759,-0.445222,-0.325278,-0.1200619999999999,0.444062
1359,-0.443421,0.794461,-0.41498,-0.275833,0.335209,-0.234984
1360,-0.43613,0.814401,-0.382805,0.79903,0.978263,0.518151
1361,-0.400011,0.8481790000000001,-0.347248,0.149309,0.261318,0.696613
1362,-0.365222,0.876817,-0.312734,-0.1265079999999999,0.073989,0.4768729999999999
1363,-0.343871,0.896797,-0.2783989999999999,-0.1739359999999999,-0.190818,0.192263
1364,-0.333113,0.913143,-0.234952,0.035079,-0.024288,0.249769
1365,-0.322437,0.927943,-0.1869559999999999,0.123218,-0.017818,0.213171
1366,-0.310772,0.939036,-0.147068,0.196591,-0.08642,0.191746
1367,-0.300092,0.947176,-0.113131,0.181547,-0.175036,0.144549
1368,-0.290205,0.953149,-0.08535,0.148924,-0.1794059999999999,0.075004
1369,-0.282501,0.957548,-0.057361,0.155395,-0.183394,0.066196
1370,-0.2748739999999999,0.961124,-0.026093,0.1882349999999999,-0.132129,0.086136
1371,-0.269327,0.963025,0.006412,0.1696099999999999,-0.137815,0.044552
1372,-0.266268,0.963235,0.035697,0.1005419999999999,-0.152277,-0.063331
1373,-0.266013,0.961645,0.066868,0.029044,-0.10787,-0.104847
1374,-0.267446,0.958703,0.09672,0.0304769999999999,-0.104928,-0.134699
1375,-0.270606,0.954739,0.123453,0.1062839999999999,0.094745,-0.177591
1376,-0.272142,0.952034,0.139869,0.2757739999999999,0.258934,-0.243446
1377,-0.27109,0.951688,0.1442,0.339281,0.351336,-0.2524
1378,-0.270504,0.952217,0.141793,-0.2471809999999999,0.3145219999999999,-0.22715
1379,-0.271487,0.952804,0.135844,-0.179838,0.221955,-0.301494
1380,-0.277014,0.953089,0.121978,0.060934,0.163381,-0.273467
1381,-0.2791369999999999,0.954935,0.100876,0.263772,0.21134,-0.067108
1382,-0.277823,0.958246,0.067637,0.128302,0.1252049999999999,0.015661
1383,-0.27602,0.960952,0.019482,-0.15237,0.372697,0.170841
1384,-0.276859,0.960161,-0.037885,-0.334759,0.398741,0.262631
1385,-0.280765,0.955234,-0.093251,-0.260083,0.3840449999999999,0.380528
1386,-0.2821349999999999,0.947099,-0.152968,-0.143768,0.3633099999999999,0.427413
1387,-0.27528,0.934263,-0.226651,-0.27631,0.520983,0.246746
1388,-0.269424,0.918017,-0.29095,-0.291611,0.329282,0.445842
1389,-0.280765,0.901123,-0.330373,-0.185254,0.231537,0.538579
1390,-0.300878,0.880359,-0.366657,-0.010981,0.1950339999999999,0.477863
1391,-0.321936,0.85315,-0.410475,0.061957,0.024353,0.486326
1392,-0.33821,0.823052,-0.4562859999999999,0.019927,-0.0738299999999999,0.470752
1393,-0.350759,0.793166,-0.497849,0.01444,-0.2285449999999999,0.4679569999999999
1394,-0.36873,0.765839,-0.5268079999999999,0.120072,-0.429367,0.428877
1395,-0.388798,0.7445649999999999,-0.5426380000000001,0.162754,-0.437268,0.472524
1396,-0.407128,0.729801,-0.5492130000000001,0.201715,-0.424168,0.396121
1397,-0.419174,0.7229949999999999,-0.549153,0.196396,-0.406116,0.391423
1398,-0.425747,0.72432,-0.542307,0.198071,-0.397752,0.36883
1399,-0.427101,0.732433,-0.5302100000000001,0.1655049999999999,-0.322323,0.280134
1400,-0.423313,0.746609,-0.513204,0.155582,-0.318249,0.210027
1401,-0.41625,0.76627,-0.489451,0.0567679999999999,-0.197774,-0.112951
1402,-0.4062969999999999,0.7899649999999999,-0.459211,-0.148634,0.173338,-0.426958
1403,-0.397493,0.811347,-0.428616,-0.288313,0.86895,-0.624943
1404,-0.397752,0.8150850000000001,-0.421221,-0.532699,0.851923,-0.895566
1405,-0.40374,0.7923520000000001,-0.45735,-0.171012,-0.302316,-0.554704
1406,-0.412454,0.768861,-0.488601,0.093988,-0.77173,-0.192063
1407,-0.426588,0.758149,-0.493184,0.256926,-0.157608,0.0767559999999999
1408,-0.4368939999999999,0.767789,-0.4686359999999999,-0.130443,0.878985,0.095529
1409,-0.4291359999999999,0.786559,-0.444031,-0.312471,1.262101,0.2373199999999999
1410,-0.421485,0.7951699999999999,-0.43595,-0.431314,1.487682,0.478736
1411,-0.426799,0.782976,-0.452535,0.500255,-1.203646,1.425115
1412,-0.432832,0.7823859999999999,-0.447801,-0.001983,-0.610831,0.73755
1413,-0.4152189999999999,0.807438,-0.419087,-0.26366,0.036098,-0.237346
1414,-0.41896,0.8233520000000001,-0.382832,0.8531639999999999,1.290509,0.57076
1415,-0.391074,0.854966,-0.3407219999999999,0.19892,0.320571,0.8483360000000001
1416,-0.351769,0.8866149999999999,-0.300282,-0.240166,-0.10712,0.299184
1417,-0.324715,0.907071,-0.267916,-0.207817,-0.2720309999999999,0.165102
1418,-0.31263,0.922599,-0.225986,-0.073554,-0.1296,0.276309
1419,-0.302996,0.936602,-0.175972,0.1084609999999999,0.00485,0.268226
1420,-0.2904219999999999,0.947487,-0.1338589999999999,0.177751,-0.028176,0.282037
1421,-0.278816,0.955258,-0.098685,0.1741859999999999,-0.130154,0.259773
1422,-0.269406,0.960435,-0.070565,0.146405,-0.205278,0.116418
1423,-0.262773,0.963796,-0.045195,0.117097,-0.193593,0.046843
1424,-0.256322,0.966389,-0.0196229999999999,0.110784,-0.119221,0.002853
1425,-0.249659,0.968309,0.006489,0.167215,-0.17,-0.017918
1426,-0.2435369999999999,0.969263,0.034836,0.077384,-0.156351,-0.0594019999999999
1427,-0.239101,0.968861,0.064295,-0.03185,-0.133045,-0.073359
1428,-0.238664,0.966279,0.096637,-0.056883,-0.0561529999999999,-0.105915
1429,-0.242052,0.961872,0.127301,0.027636,0.129955,-0.196606
1430,-0.246211,0.957268,0.151695,0.210551,0.2445139999999999,-0.315178
1431,-0.2482739999999999,0.954992,0.162304,0.186858,0.3291719999999999,-0.31448
1432,-0.250546,0.954558,0.161368,0.06744,0.357363,-0.174521
1433,-0.2530949999999999,0.954967,0.154837,-0.250994,0.289479,-0.244757
1434,-0.25811,0.955543,0.142515,-0.164162,0.259362,-0.2340679999999999
1435,-0.26271,0.957459,0.119367,0.157165,0.3406969999999999,-0.04855
1436,-0.260399,0.961718,0.085352,0.038292,0.212278,-0.03277
1437,-0.255578,0.965934,0.04056,-0.1898109999999999,0.303689,0.0329879999999999
1438,-0.254058,0.967043,-0.016604,-0.300859,0.232465,0.294344
1439,-0.26014,0.962334,-0.078962,-0.2864,0.301353,0.3857239999999999
1440,-0.2659849999999999,0.952718,-0.146884,-0.0815029999999999,0.426066,0.424411
1441,-0.262707,0.937679,-0.227461,-0.187763,0.622853,0.244887
1442,-0.253513,0.920103,-0.298558,-0.250836,0.6188060000000001,0.358846
1443,-0.262239,0.901234,-0.344971,-0.109527,0.44772,0.602158
1444,-0.287472,0.875028,-0.389464,-0.070987,0.194705,0.4726859999999999
1445,-0.315438,0.840636,-0.4402569999999999,-0.051246,0.112275,0.4586739999999999
1446,-0.333665,0.804848,-0.490801,0.033509,-0.164696,0.351641
1447,-0.347177,0.77199,-0.5324439999999999,0.096383,-0.281436,0.365025
1448,-0.363477,0.744059,-0.560588,0.091886,-0.370875,0.405024
1449,-0.381264,0.723984,-0.574876,0.158181,-0.470047,0.497133
1450,-0.400449,0.710144,-0.57908,0.200864,-0.461792,0.496407
1451,-0.415508,0.703026,-0.577153,0.218532,-0.4147109999999999,0.498585
1452,-0.424158,0.703341,-0.570438,0.216638,-0.3940909999999999,0.473835
1453,-0.427575,0.710925,-0.5583560000000001,0.180032,-0.3315,0.360328
1454,-0.426401,0.725082,-0.540773,0.149194,-0.349914,0.233461
1455,-0.422232,0.745622,-0.515524,0.102392,-0.374056,0.123022
1456,-0.41393,0.771913,-0.482504,-0.006908,0.042739,-0.494943
1457,-0.402796,0.798505,-0.447374,-0.282355,0.684497,-0.6219319999999999
1458,-0.399715,0.809778,-0.429517,-0.548481,1.066321,-0.628375
1459,-0.410437,0.787977,-0.458946,-0.196069,0.162676,-0.536583
1460,-0.4227979999999999,0.762704,-0.48941,0.097725,-0.794244,-0.30951
1461,-0.432439,0.751699,-0.497938,0.063298,-0.5720569999999999,-0.283388
1462,-0.4426229999999999,0.759303,-0.477014,0.035992,0.221334,0.1507349999999999
1463,-0.442468,0.776486,-0.448652,-0.282966,1.321551,0.26692
1464,-0.439891,0.7817109999999999,-0.442064,-0.3155719999999999,1.68475,0.53943
1465,-0.444438,0.76668,-0.46333,0.2112679999999999,-1.385835,1.164563
1466,-0.444805,0.767894,-0.4609609999999999,-0.328205,-0.000774,-0.152045
1467,-0.433347,0.791736,-0.430537,-0.339663,-0.024615,-0.182469
1468,-0.444461,0.802665,-0.3977179999999999,0.614887,0.908791,0.80055
1469,-0.411768,0.834324,-0.366536,0.1734099999999999,0.431118,0.719334
1470,-0.370703,0.8663719999999999,-0.334627,-0.203242,0.039771,0.261553
1471,-0.343483,0.889234,-0.302125,-0.152855,-0.143338,0.272782
1472,-0.328175,0.90627,-0.266406,0.026142,0.045024,0.230426
1473,-0.315323,0.922338,-0.223294,0.07959,0.042155,0.199628
1474,-0.301761,0.935957,-0.18144,0.111499,-0.106429,0.199064
1475,-0.289166,0.946023,-0.146353,0.194699,-0.135827,0.207831
1476,-0.279088,0.95319,-0.116336,0.180043,-0.130528,0.157169
1477,-0.272932,0.957669,-0.091515,0.160017,-0.160031,0.077919
1478,-0.266822,0.961528,-0.065324,0.169303,-0.17065,0.086671
1479,-0.2601469999999999,0.964917,-0.035445,0.1598359999999999,-0.165219,0.083434
1480,-0.254875,0.966965,-0.003738,0.103614,-0.178742,0.0240319999999999
1481,-0.253056,0.967107,0.025773,-0.047787,-0.118749,-0.145646
1482,-0.2540739999999999,0.965615,0.05505,-0.030747,-0.04432,-0.187313
1483,-0.256671,0.962472,0.088112,0.159487,0.053076,-0.1237109999999999
1484,-0.260496,0.958165,0.118567,0.174543,0.107356,-0.193442
1485,-0.262999,0.955491,0.133659,0.222319,0.399169,-0.3003
1486,-0.263633,0.955423,0.132893,0.003196,0.407828,-0.188038
1487,-0.263679,0.956331,0.126096,-0.177208,0.3140239999999999,-0.169477
1488,-0.267409,0.956218,0.11889,-0.155809,0.090321,-0.313653
1489,-0.274674,0.955204,0.110163,0.174622,0.065441,-0.2540219999999999
1490,-0.278404,0.956082,0.091626,0.23368,0.108814,-0.1400269999999999
1491,-0.279077,0.958568,0.0571039999999999,0.097207,0.190404,0.035913
1492,-0.276386,0.961002,0.009064,-0.110317,0.572414,0.21936
1493,-0.274844,0.960286,-0.04805,-0.320752,0.439372,0.442947
1494,-0.272465,0.955948,-0.109196,-0.299587,0.361755,0.368519
1495,-0.272954,0.945774,-0.176087,-0.128459,0.2914239999999999,0.353806
1496,-0.268703,0.93005,-0.250606,-0.203877,0.5378609999999999,0.175548
1497,-0.262582,0.910594,-0.319165,-0.181616,0.493718,0.362683
1498,-0.271623,0.890741,-0.3644159999999999,-0.0883159999999999,0.265173,0.50794
1499,-0.294876,0.8664200000000001,-0.402943,-0.0148469999999999,0.203603,0.4813729999999999
1500,-0.322775,0.835932,-0.4438829999999999,0.049856,0.05657,0.4671369999999999
1501,-0.342252,0.8029350000000001,-0.488014,0.01959,-0.072924,0.384528
1502,-0.352483,0.772069,-0.528832,0.1061759999999999,-0.198202,0.4288109999999999
1503,-0.368118,0.7442529999999999,-0.557293,0.077408,-0.378271,0.466
1504,-0.386657,0.722861,-0.572685,0.162322,-0.387824,0.536323
1505,-0.404748,0.708692,-0.577871,0.160988,-0.3578159999999999,0.449514
1506,-0.41426,0.703567,-0.577392,0.222487,-0.353805,0.419585
1507,-0.419927,0.7047720000000001,-0.571802,0.188344,-0.396117,0.389246
1508,-0.420359,0.712866,-0.561355,0.160578,-0.329917,0.266784
1509,-0.417097,0.7275729999999999,-0.544672,0.150816,-0.367496,0.195795
1510,-0.411146,0.749346,-0.519075,0.094053,-0.329882,-0.017775
1511,-0.400396,0.777641,-0.484724,-0.121378,-0.001182,-0.329531
1512,-0.388218,0.805207,-0.4482489999999999,-0.18304,0.647704,-0.60711
1513,-0.386382,0.81605,-0.429849,-0.364671,1.105214,-0.622275
1514,-0.393443,0.797608,-0.45719,-0.032536,-0.310426,-0.715188
1515,-0.401201,0.772058,-0.492914,0.054933,-0.613351,-0.436407
1516,-0.411757,0.758472,-0.50515,-0.02379,-0.209553,-0.126244
1517,-0.428985,0.759825,-0.488506,-0.1264809999999999,1.2324389999999998,0.32896
1518,-0.4366899999999999,0.768599,-0.467501,-0.2230239999999999,1.536394,0.597766
1519,-0.430043,0.761437,-0.4850529999999999,-0.1265359999999999,-0.2611469999999999,0.737997
1520,-0.4289,0.752847,-0.499266,-0.140894,-0.442407,0.897292
1521,-0.4182689999999999,0.7793220000000001,-0.466592,-0.453099,0.147344,0.082146
1522,-0.425774,0.7937890000000001,-0.434299,0.329659,1.075336,0.022587
1523,-0.416056,0.815938,-0.401427,0.263803,0.480693,0.6543720000000001
1524,-0.379754,0.8492350000000001,-0.366861,-0.013191,0.176949,0.4484039999999999
1525,-0.3448489999999999,0.8769399999999999,-0.3347449999999999,-0.153137,-0.0891899999999999,0.23364
1526,-0.319934,0.899058,-0.2988929999999999,-0.091,-0.0590309999999999,0.281361
1527,-0.303204,0.91871,-0.253058,-0.077686,-0.017053,0.2042759999999999
1528,-0.2873219999999999,0.934808,-0.208759,0.1537319999999999,-0.097314,0.261127
1529,-0.274091,0.946076,-0.172666,0.1872839999999999,-0.100281,0.2669809999999999
1530,-0.2646449999999999,0.954167,-0.13974,0.219479,-0.088292,0.287476
1531,-0.2585,0.959537,-0.111652,0.155747,-0.11713,0.140003
1532,-0.252281,0.963732,-0.087024,0.131645,-0.147326,0.0555909999999999
1533,-0.244676,0.967667,-0.061272,0.0833899999999999,-0.148483,-0.017006
1534,-0.237584,0.970747,-0.034695,0.093664,-0.18585,-0.00188
1535,-0.232327,0.972621,-0.005646,0.105755,-0.161647,0.006363
1536,-0.229589,0.972873,0.028398,0.025564,-0.12424,0.1077559999999999
1537,-0.2312409999999999,0.970787,0.064029,0.005624,-0.001854,-0.056109
1538,-0.234126,0.967275,0.09779,0.075252,0.120295,-0.26225
1539,-0.235552,0.964117,0.122446,0.190951,0.132975,-0.296473
1540,-0.236425,0.962224,0.135008,0.150457,0.3658099999999999,-0.13217
1541,-0.2358219999999999,0.962125,0.136759,0.009489,0.406467,-0.080225
1542,-0.234819,0.962636,0.134873,-0.173369,0.368526,-0.10991
1543,-0.236485,0.962933,0.129741,-0.17335,0.166431,-0.292904
1544,-0.241598,0.962801,0.1210099999999999,0.055319,0.172255,-0.196572
1545,-0.2441559999999999,0.964079,0.104588,0.142395,0.2010819999999999,-0.1045109999999999
1546,-0.242907,0.967286,0.073158,0.101137,0.170775,-0.044975
1547,-0.237638,0.970918,0.02908,-0.1315339999999999,0.3150929999999999,0.061633
1548,-0.2329639999999999,0.972115,-0.026819,-0.235114,0.295219,0.224985
1549,-0.2346219999999999,0.96814,-0.087501,-0.378324,0.2579349999999999,0.379768
1550,-0.2392429999999999,0.95855,-0.1547349999999999,-0.116211,0.397834,0.262767
1551,-0.238071,0.942371,-0.235069,-0.1173829999999999,0.414013,0.343101
1552,-0.230589,0.92197,-0.3111239999999999,-0.237062,0.60693,0.2402929999999999
1553,-0.237943,0.901555,-0.361358,-0.118426,0.350901,0.515716
1554,-0.260806,0.8763569999999999,-0.404942,-0.098966,0.277986,0.507756
1555,-0.285832,0.844852,-0.452244,-0.069668,0.047573,0.530277
1556,-0.307962,0.8108770000000001,-0.497631,-0.035193,-0.105677,0.452663
1557,-0.326897,0.776656,-0.538463,0.017021,-0.078887,0.436626
1558,-0.350918,0.746323,-0.5655600000000001,0.08746,-0.316299,0.480492
1559,-0.376328,0.722109,-0.580461,0.118119,-0.4429949999999999,0.513383
1560,-0.3986929999999999,0.704872,-0.586684,0.195232,-0.4147109999999999,0.438399
1561,-0.415977,0.6965180000000001,-0.584657,0.248741,-0.377366,0.415193
1562,-0.425699,0.6970609999999999,-0.576963,0.222315,-0.321969,0.330426
1563,-0.427688,0.704671,-0.566145,0.20314,-0.323156,0.289061
1564,-0.423044,0.71754,-0.553326,0.1602869999999999,-0.31895,0.206738
1565,-0.41448,0.735801,-0.535539,0.078665,-0.320106,0.017503
1566,-0.403535,0.7601140000000001,-0.509299,0.04802,-0.244856,-0.135446
1567,-0.391667,0.787366,-0.476078,-0.164317,0.170504,-0.420635
1568,-0.387671,0.805146,-0.448831,-0.656717,1.21968,-0.70043
1569,-0.3924,0.795095,-0.462435,-0.7149449999999999,0.851817,-0.742399
1570,-0.397909,0.769856,-0.498988,-0.213556,-0.6309859999999999,-0.404119
1571,-0.4052699999999999,0.750664,-0.521785,0.03259,-0.184502,-0.07958
1572,-0.4280899999999999,0.747726,-0.507587,0.221303,-0.070754,0.186908
1573,-0.437949,0.763346,-0.474872,-0.113977,0.950735,0.237369
1574,-0.429591,0.779871,-0.45525,-0.3345079999999999,1.295828,0.398884
1575,-0.42039,0.781392,-0.4611909999999999,-0.169789,-0.567662,0.411142
1576,-0.430831,0.764184,-0.4800069999999999,0.386092,-0.798852,1.197155
1577,-0.423235,0.782094,-0.457384,-0.089765,-0.362096,0.6851520000000001
1578,-0.4111069999999999,0.808229,-0.4216109999999999,0.484792,1.1011030000000002,0.056865
1579,-0.40602,0.82686,-0.389165,0.60768,0.77046,0.735967
1580,-0.371727,0.8573850000000001,-0.355962,-0.069634,0.057822,0.616857
1581,-0.335484,0.884397,-0.3244869999999999,-0.22755,-0.145566,0.220529
1582,-0.312886,0.903555,-0.292729,-0.155239,-0.237753,0.240102
1583,-0.303984,0.919111,-0.250655,-0.02376,-0.055021,0.284987
1584,-0.2928739999999999,0.933835,-0.205369,0.0932429999999999,-0.0066349999999999,0.268159
1585,-0.280496,0.945472,-0.165541,0.193933,-0.0457529999999999,0.268996
1586,-0.268002,0.9544,-0.13151,0.220105,-0.165048,0.200205
1587,-0.2570429999999999,0.960868,-0.10325,0.140466,-0.217994,0.11532
1588,-0.2494849999999999,0.965585,-0.073508,0.092594,-0.114892,0.0825559999999999
1589,-0.242976,0.969109,-0.042307,0.103449,-0.101556,0.04127
1590,-0.238012,0.971183,-0.012372,0.101903,-0.194328,0.003904
1591,-0.234998,0.971877,0.015207,-0.03667,-0.1476579999999999,-0.140451
1592,-0.234828,0.971177,0.0408829999999999,-0.054525,-0.093827,-0.187948
1593,-0.237029,0.969159,0.0674299999999999,-0.039719,-0.0200319999999999,-0.233339
1594,-0.2408739999999999,0.965745,0.096513,0.0742169999999999,0.093855,-0.143906
1595,-0.244108,0.962267,0.120217,0.132429,0.167814,-0.211357
1596,-0.245096,0.960557,0.13137,0.205042,0.355545,-0.2475349999999999
1597,-0.243467,0.960899,0.131892,-0.075305,0.4237439999999999,-0.178385
1598,-0.241337,0.962063,0.1272339999999999,-0.30389,0.333301,-0.296225
1599,-0.243259,0.962817,0.117502,-0.153225,0.091672,-0.313959
1600,-0.247214,0.963637,0.101423,0.0810309999999999,0.010484,-0.321226
1601,-0.2497739999999999,0.965631,0.071891,0.1089359999999999,0.123206,0.045556
1602,-0.252694,0.967267,0.0231889999999999,0.076623,0.280078,0.142644
1603,-0.2581449999999999,0.965197,-0.041898,-0.136036,0.7707350000000001,0.4203
1604,-0.260563,0.958739,-0.1136869999999999,-0.314419,0.339616,0.371683
1605,-0.25924,0.946745,-0.190962,-0.310553,0.325685,0.339369
1606,-0.260602,0.927671,-0.267418,-0.170322,0.486377,0.387185
1607,-0.261449,0.902416,-0.342473,-0.135219,0.739536,0.361989
1608,-0.273948,0.8763,-0.396295,-0.062875,0.557172,0.349466
1609,-0.300076,0.8473639999999999,-0.4380949999999999,-0.143101,0.227358,0.354232
1610,-0.32576,0.814908,-0.47938,0.006302,-0.007474,0.445917
1611,-0.342359,0.781525,-0.521545,0.105451,-0.010681,0.469146
1612,-0.3527349999999999,0.7488,-0.561138,0.1965309999999999,-0.12113,0.4185439999999999
1613,-0.3664969999999999,0.721445,-0.587534,0.109203,-0.437906,0.513926
1614,-0.382575,0.701329,-0.601476,0.1577059999999999,-0.4713029999999999,0.556539
1615,-0.400147,0.6884979999999999,-0.604857,0.183625,-0.443579,0.562774
1616,-0.414275,0.682646,-0.6019720000000001,0.210783,-0.433913,0.51785
1617,-0.421975,0.682916,-0.59629,0.207421,-0.436716,0.453926
1618,-0.424037,0.689056,-0.587701,0.14767,-0.354172,0.338403
1619,-0.422026,0.701625,-0.574122,0.138197,-0.352428,0.295039
1620,-0.418012,0.7208680000000001,-0.552824,0.0874149999999999,-0.35394,0.1629779999999999
1621,-0.4112189999999999,0.747291,-0.521971,-0.04566,-0.029426,-0.319642
1622,-0.402003,0.7750859999999999,-0.487477,-0.150777,0.203765,-0.5128739999999999
1623,-0.400784,0.7894,-0.464995,-0.481251,1.155516,-0.5605640000000001
1624,-0.40799,0.772212,-0.487066,-0.277328,0.008413,-0.691829
1625,-0.4146319999999999,0.7456189999999999,-0.521664,-0.007823,-0.6725140000000001,-0.53542
1626,-0.421789,0.732408,-0.534483,0.071813,-0.160646,-0.185411
1627,-0.439871,0.732116,-0.520115,-0.125498,0.8273020000000001,0.254414
1628,-0.450283,0.743405,-0.494564,-0.260563,1.43436,0.413113
1629,-0.450637,0.7479899999999999,-0.487275,-0.38997,1.759273,0.6587689999999999
1630,-0.4472689999999999,0.7291770000000001,-0.51793,0.372897,-1.616613,1.382187
1631,-0.4413189999999999,0.734505,-0.5154989999999999,0.120702,-1.064522,1.426052
1632,-0.432013,0.763818,-0.4795279999999999,-0.099436,0.661856,-0.375773
1633,-0.448035,0.773403,-0.448455,0.930915,1.26215,0.5897819999999999
1634,-0.415688,0.809995,-0.413656,0.276238,0.4538899999999999,0.604345
1635,-0.375899,0.847141,-0.375569,-0.064103,-0.065494,0.299702
1636,-0.344561,0.875229,-0.339488,-0.019209,-0.14685,0.284648
1637,-0.322839,0.8973479999999999,-0.300902,-0.0653909999999999,-0.133279,0.233076
1638,-0.311643,0.914953,-0.256398,0.025358,0.022334,0.2141
1639,-0.300933,0.928674,-0.216805,0.128249,-0.008157,0.153099
1640,-0.292257,0.937768,-0.187557,0.204199,-0.053216,0.095913
1641,-0.284645,0.944203,-0.165706,0.2489849999999999,-0.132847,0.042598
1642,-0.278201,0.949575,-0.1446059999999999,0.229113,-0.12966,0.0183699999999999
1643,-0.272762,0.954327,-0.121902,0.187893,-0.174008,0.116699
1644,-0.265252,0.959098,-0.098858,0.16607,-0.232215,0.079632
1645,-0.25686,0.963616,-0.073946,0.088082,-0.195305,0.054567
1646,-0.2514389999999999,0.966779,-0.046011,-0.061305,-0.129636,-0.011012
1647,-0.250531,0.96794,-0.018034,-0.037722,-0.110839,-0.0621809999999999
1648,-0.251576,0.967752,0.012841,-0.008968,-0.067713,-0.091912
1649,-0.253283,0.966238,0.047247,0.083315,0.1282299999999999,-0.148398
1650,-0.254287,0.964099,0.076489,0.158263,0.2605099999999999,-0.1522339999999999
1651,-0.251215,0.963342,0.094145,0.249689,0.483955,-0.1215349999999999
1652,-0.2468179999999999,0.963661,0.1021649999999999,-0.334069,0.351799,-0.130287
1653,-0.244892,0.963854,0.104938,-0.353528,0.377241,-0.177341
1654,-0.248658,0.963482,0.099358,-0.089462,0.298939,-0.229759
1655,-0.253226,0.963846,0.082927,0.250266,0.232337,-0.054515
1656,-0.252605,0.96618,0.051821,0.208263,0.133094,-0.005679
1657,-0.24975,0.968285,0.00685,-0.064383,0.329017,0.099488
1658,-0.248802,0.967314,-0.048984,-0.209389,0.2036609999999999,0.269901
1659,-0.25074,0.962121,-0.1070089999999999,-0.177254,0.1724619999999999,0.32344
1660,-0.254117,0.951913,-0.171128,-0.132205,0.289069,0.323289
1661,-0.2535699999999999,0.934847,-0.248521,-0.164796,0.372404,0.157869
1662,-0.248427,0.913654,-0.321747,-0.193514,0.425824,0.1666099999999999
1663,-0.256728,0.893285,-0.368962,-0.107606,0.324824,0.49065
1664,-0.279206,0.869258,-0.407964,-0.061737,0.214131,0.48908
1665,-0.305987,0.838126,-0.451572,-0.040556,0.201867,0.4958369999999999
1666,-0.326801,0.8037569999999999,-0.497168,-0.028347,0.071976,0.469809
1667,-0.343198,0.770424,-0.537272,0.104047,-0.090722,0.435343
1668,-0.36474,0.7397600000000001,-0.565438,0.074197,-0.22029,0.511162
1669,-0.386527,0.71497,-0.582593,0.084952,-0.331517,0.5499539999999999
1670,-0.405516,0.696462,-0.592028,0.122496,-0.357504,0.501879
1671,-0.420329,0.684906,-0.595169,0.189997,-0.3729409999999999,0.404023
1672,-0.42927,0.681126,-0.593122,0.214427,-0.323109,0.388517
1673,-0.432079,0.683892,-0.5878770000000001,0.193355,-0.295479,0.380632
1674,-0.4308479999999999,0.692084,-0.5791270000000001,0.111238,-0.281989,0.278102
1675,-0.427433,0.705505,-0.565299,0.089207,-0.318374,0.176276
1676,-0.421558,0.7253609999999999,-0.544187,0.067066,-0.328877,0.075025
1677,-0.4120529999999999,0.751472,-0.515269,-0.103465,0.065697,-0.36907
1678,-0.400573,0.776812,-0.485906,-0.222016,0.844404,-0.717616
1679,-0.397813,0.7836989999999999,-0.477033,-0.395323,1.03344,-0.730807
1680,-0.407636,0.75989,-0.506359,-0.079226,-0.181048,-0.514545
1681,-0.415438,0.736801,-0.533419,0.038958,-0.550247,-0.386381
1682,-0.427868,0.728477,-0.5350229999999999,0.197659,-0.246619,-0.005382
1683,-0.440449,0.735541,-0.5147649999999999,0.141163,0.100732,0.3200929999999999
1684,-0.435339,0.754546,-0.4910609999999999,-0.193369,0.986848,0.415606
1685,-0.4243729999999999,0.772022,-0.47317,-0.569951,1.559781,0.707316
1686,-0.422654,0.768246,-0.4807909999999999,-0.206512,-0.604337,0.318056
1687,-0.434152,0.752163,-0.4957439999999999,0.155374,-0.8085899999999999,1.127992
1688,-0.424098,0.777514,-0.46434,-0.178548,0.081342,-0.007751
1689,-0.41968,0.799309,-0.430085,0.109179,0.688912,-0.277846
1690,-0.405571,0.824074,-0.39549,0.671013,0.802665,0.647382
1691,-0.3625,0.860333,-0.358357,-0.2007779999999999,-0.038693,0.4276319999999999
1692,-0.321065,0.8894569999999999,-0.325241,-0.255794,-0.187401,0.24739
1693,-0.298182,0.91043,-0.2867119999999999,-0.2437949999999999,-0.27954,0.264953
1694,-0.292354,0.927161,-0.234308,0.033916,-0.119056,0.237069
1695,-0.281613,0.940547,-0.189907,0.155194,-0.042781,0.2569079999999999
1696,-0.269886,0.950546,-0.153698,0.285893,0.02121,0.308346
1697,-0.260034,0.957748,-0.1228809999999999,0.198251,-0.137298,0.185991
1698,-0.253585,0.962441,-0.096954,0.1595599999999999,-0.2122889999999999,0.129546
1699,-0.2463489999999999,0.966696,-0.069358,0.147213,-0.174765,0.084175
1700,-0.237783,0.970539,-0.038887,0.10758,-0.156971,-0.012642
1701,-0.231313,0.972829,-0.009864,0.084767,-0.192326,-0.027231
1702,-0.227804,0.973553,0.017294,-0.005213,-0.1738849999999999,-0.027472
1703,-0.228314,0.972529,0.045359,-0.0149259999999999,-0.0038399999999999,-0.086482
1704,-0.231811,0.969709,0.0769779999999999,0.003921,0.101595,-0.1497619999999999
1705,-0.236427,0.965755,0.106851,0.107368,0.102833,-0.277963
1706,-0.239891,0.962403,0.127398,0.207862,0.290984,-0.259234
1707,-0.2409,0.961705,0.130725,0.252695,0.386791,-0.23041
1708,-0.2390989999999999,0.962464,0.128426,-0.043173,0.406387,-0.100548
1709,-0.2374949999999999,0.963438,0.124021,-0.184686,0.270784,-0.297666
1710,-0.238404,0.964669,0.112139,0.003144,0.184333,-0.291811
1711,-0.238821,0.967098,0.0876649999999999,0.1441859999999999,0.185582,-0.081348
1712,-0.236044,0.970551,0.048092,0.084234,0.182464,0.036472
1713,-0.2315019999999999,0.972825,-0.0042049999999999,-0.026524,0.303008,0.1307309999999999
1714,-0.2291889999999999,0.971011,-0.067878,-0.325621,0.434384,0.4176399999999999
1715,-0.228871,0.964411,-0.13239,-0.302959,0.336889,0.436376
1716,-0.228173,0.952709,-0.200699,-0.1067569999999999,0.315189,0.312363
1717,-0.222498,0.934603,-0.277508,-0.157171,0.496885,0.228527
1718,-0.22024,0.909814,-0.351754,-0.184835,0.614417,0.243707
1719,-0.2432659999999999,0.8830459999999999,-0.401311,-0.1679119999999999,0.234386,0.4276779999999999
1720,-0.2752449999999999,0.851136,-0.4469979999999999,-0.042977,0.196472,0.4992279999999999
1721,-0.30088,0.8153130000000001,-0.494708,0.018272,0.079341,0.478488
1722,-0.317177,0.77976,-0.539788,0.128182,-0.039251,0.4313439999999999
1723,-0.333316,0.745092,-0.5777,0.042148,-0.32839,0.511095
1724,-0.355353,0.715312,-0.601708,0.078711,-0.384471,0.5620649999999999
1725,-0.38143,0.692796,-0.612,0.148977,-0.388627,0.57576
1726,-0.402801,0.679612,-0.613088,0.209503,-0.394059,0.51032
1727,-0.416721,0.675762,-0.60802,0.185123,-0.32687,0.4519069999999999
