,gravity.x,gravity.y,gravity.z,userAcceleration.x,userAcceleration.y,userAcceleration.z
0,-0.0873169999999999,0.99596,-0.020022,-0.015893,0.074474,-0.014325
1,-0.084199,0.996254,-0.0186889999999999,-0.00627,0.083702,-0.030993
2,-0.080899,0.996534,-0.018348,0.018033,0.078097,-0.039818
3,-0.076644,0.996852,-0.019311,0.074263,0.033238,-0.033103
4,-0.07229,0.997136,-0.021355,0.1001669999999999,-0.026112,-0.0147009999999999
5,-0.068763,0.99734,-0.023369,0.109581,-0.053126,-0.002769
6,-0.066457,0.99747,-0.0244659999999999,0.094914,-0.021122,-0.011788
7,-0.065195,0.997541,-0.024975,0.068094,-0.004484,-0.0036049999999999
8,-0.064658,0.997571,-0.025178,0.048972,-0.017224,0.002579
9,-0.0637929999999999,0.997631,-0.025006,-0.025212,-0.0253259999999999,0.03468
10,-0.064203,0.997618,-0.024464,-0.068762,-0.004134,0.017491
11,-0.065682,0.997537,-0.023815,-0.076347,0.030554,0.027737
12,-0.0667,0.997456,-0.024377,-0.0993,0.019481,0.062814
13,-0.067106,0.99741,-0.02514,-0.080797,-0.00864,0.02659
14,-0.066474,0.997456,-0.0249889999999999,-0.0741049999999999,-0.009891,0.008723
15,-0.065948,0.997514,-0.024038,0.019897,0.036696,0.0054979999999999
16,-0.064625,0.997633,-0.022666,0.06284,0.006151,0.027229
17,-0.06216,0.99783,-0.020784,0.069423,-0.01048,0.0109719999999999
18,-0.06007,0.998003,-0.01851,0.08015,-0.0123159999999999,0.008164
19,-0.0583559999999999,0.998138,-0.01662,0.089712,0.020188,-0.019574
20,-0.056276,0.998277,-0.015374,0.077928,0.022566,-0.026771
21,-0.05396,0.998413,-0.0148729999999999,0.044774,-0.01091,-0.023655
22,-0.0524139999999999,0.998491,-0.0151949999999999,0.021484,-0.009431,-0.0167259999999999
23,-0.051439,0.99853,-0.015929,0.017595,0.007223,0.0064069999999999
24,-0.0512049999999999,0.998533,-0.0164729999999999,0.020657,0.00873,0.011071
25,-0.050428,0.998571,-0.016596,0.010953,0.011759,0.020853
26,-0.049426,0.998631,-0.016023,0.006518,0.020855,0.039048
27,-0.048722,0.998682,-0.014929,0.002823,0.025869,0.040854
28,-0.048293,0.99872,-0.0137949999999999,-0.004457,0.021102,0.036149
29,-0.048116,0.998745,-0.012509,0.001455,-0.00259,0.0222139999999999
30,-0.048325,0.998748,-0.011454,0.0101319999999999,-0.009093,0.021876
31,-0.048773,0.998736,-0.010546,0.019506,-0.012347,0.022403
32,-0.0494519999999999,0.998715,-0.009288,0.039412,-0.01199,0.022258
33,-0.050509,0.998672,-0.008101,0.044864,6.1e-05,0.01599
34,-0.051871,0.998608,-0.007367,0.042792,0.010776,0.014233
35,-0.0535389999999999,0.998521,-0.00724,0.06422,0.013335,0.013618
36,-0.0555059999999999,0.998411,-0.0075819999999999,0.066599,0.011431,0.026717
37,-0.057771,0.998279,-0.008014,0.070039,0.010388,0.039615
38,-0.060413,0.99812,-0.00828,0.061527,0.009693,0.052119
39,-0.063527,0.997923,-0.008703,0.056829,0.005907,0.051687
40,-0.066312,0.997738,-0.009128,0.051298,0.025013,0.042972
41,-0.069248,0.99753,-0.0100299999999999,0.051136,0.030699,0.0588429999999999
42,-0.072057,0.99732,-0.011129,0.040547,0.021281,0.076299
43,-0.074732,0.997111,-0.012158,0.027201,0.028112,0.067212
44,-0.077099,0.996912,-0.013605,0.0281949999999999,0.046973,0.059671
45,-0.079068,0.996726,-0.015709,0.036756,0.0310899999999999,0.048683
46,-0.080675,0.99656,-0.017962,0.024705,-0.00779,0.046237
47,-0.083014,0.996313,-0.020756,0.027045,-0.0075439999999999,0.049031
48,-0.085816,0.996021,-0.023236,0.010896,0.000606,0.060376
49,-0.088656,0.995731,-0.0249789999999999,-0.030286,0.04646,0.020921
50,-0.091425,0.99541,-0.027631,-0.027121,0.039548,0.0209479999999999
51,-0.093596,0.995142,-0.0299329999999999,-0.046647,0.00025,0.039256
52,-0.0957679999999999,0.994908,-0.030808,-0.036724,-0.016759,0.019012
53,-0.0975029999999999,0.994723,-0.0313569999999999,-0.032746,-0.016436,0.009217
54,-0.099,0.994552,-0.032068,-0.029693,-0.015258,-0.0071769999999999
55,-0.10055,0.994359,-0.033201,-0.014883,-0.014958,0.006117
56,-0.10192,0.994186,-0.034176,-0.0048909999999999,-0.016876,-0.008151
57,-0.102852,0.994051,-0.035296,-0.005211,-0.015383,0.00336
58,-0.1035799999999999,0.993931,-0.0365329999999999,-0.022778,-0.0119519999999999,0.014927
59,-0.104069,0.993826,-0.03797,-0.037822,-0.0068569999999999,0.018469
60,-0.105149,0.993629,-0.040093,-0.054245,0.004143,0.023232
61,-0.106398,0.993385,-0.042761,-0.046617,0.000558,0.01351
62,-0.107557,0.993143,-0.045385,-0.039126,0.002477,0.016424
63,-0.108725,0.992911,-0.047631,-0.030436,-0.003181,0.016839
64,-0.1101359999999999,0.992635,-0.050088,-0.0288709999999999,-0.007039,0.0049369999999999
65,-0.11175,0.992301,-0.053045,-0.032217,-0.004645,0.008672
66,-0.113684,0.991872,-0.056832,-0.046,0.003764,0.016564
67,-0.1155119999999999,0.9914,-0.061199,-0.047986,-0.007254,0.007992
68,-0.117443,0.990894,-0.065576,-0.045551,-0.013385,0.029718
69,-0.119601,0.990347,-0.0698,-0.035337,-0.010046,0.0287839999999999
70,-0.122377,0.989727,-0.073675,-0.022078,-0.013165,0.029287
71,-0.125411,0.988979,-0.07846,-0.027406,0.00246,0.029723
72,-0.128619,0.988034,-0.084918,-0.032285,0.009174,0.046969
73,-0.131608,0.986952,-0.0925769999999999,-0.061812,-0.004759,0.041856
74,-0.134067,0.98578,-0.101143,-0.064465,-0.049806,-0.003746
75,-0.135514,0.984652,-0.109825,-0.065734,-0.042269,-0.0051649999999999
76,-0.136131,0.983627,-0.117948,-0.060234,-0.031342,-0.0099049999999999
77,-0.136473,0.982664,-0.125351,-0.037325,-0.008864,-0.047455
78,-0.136524,0.981808,-0.131842,-0.030132,0.021519,-0.095133
79,-0.1366089999999999,0.981096,-0.136954,-0.007861,0.056151,-0.124384
80,-0.136741,0.980449,-0.1413819999999999,0.020575,0.053608,-0.136603
81,-0.137182,0.979767,-0.145623,0.0235949999999999,0.018097,-0.1338109999999999
82,-0.1381339999999999,0.979003,-0.149802,0.0182,-0.004088,-0.100549
83,-0.139632,0.978254,-0.153266,-0.003267,-0.014066,-0.095025
84,-0.141525,0.977547,-0.156014,-0.0231789999999999,-0.016564,-0.076362
85,-0.143649,0.976869,-0.158302,-0.0297519999999999,-0.037797,-0.049507
86,-0.145771,0.976424,-0.159102,-0.029461,-0.056258,-0.039888
87,-0.147669,0.976178,-0.158863,-0.02123,-0.04208,-0.038449
88,-0.149296,0.976033,-0.158228,-0.008922,-0.017995,-0.044424
89,-0.15043,0.97607,-0.156924,-0.00579,-0.01559,-0.044644
90,-0.151423,0.976139,-0.155528,-0.007848,-0.01598,-0.040547
91,-0.152143,0.976272,-0.1539839999999999,-0.023714,-0.007781,-0.037041
92,-0.152469,0.976517,-0.152098,-0.026623,-0.004822,-0.037859
93,-0.152531,0.97678,-0.150337,-0.034725,0.002896,-0.036278
94,-0.152415,0.97705,-0.148689,-0.042043,-0.01155,-0.022911
95,-0.152255,0.977396,-0.146564,-0.041455,-0.0237819999999999,-0.02438
96,-0.1519859999999999,0.977836,-0.143879,-0.041114,-0.023277,-0.0299029999999999
97,-0.151562,0.978331,-0.140934,-0.0415839999999999,-0.02635,-0.042354
98,-0.150538,0.979085,-0.136731,-0.037725,-0.013585,-0.0506779999999999
99,-0.149509,0.979936,-0.131671,-0.045453,0.037795,-0.01254
100,-0.149063,0.980677,-0.126557,-0.058685,0.028341,0.024415
101,-0.149366,0.981344,-0.120901,-0.0306579999999999,0.024256,0.017904
102,-0.150163,0.981868,-0.11554,-0.005705,0.038731,0.016617
103,-0.150821,0.982251,-0.11135,-0.003201,0.021609,0.001166
104,-0.15116,0.98251,-0.108566,-0.024056,0.011722,0.014435
105,-0.15135,0.98268,-0.106746,-0.031023,-0.01303,0.0437269999999999
106,-0.1513509999999999,0.982947,-0.1042579999999999,-0.025498,-0.036048,0.036143
107,-0.151057,0.983342,-0.1009019999999999,-0.020376,-0.032567,0.035198
108,-0.150575,0.983784,-0.09725,-0.006194,-0.014286,0.032201
109,-0.149835,0.984231,-0.093804,-0.002966,0.015143,0.036766
110,-0.148887,0.984666,-0.090697,-0.007164,0.027435,0.041518
111,-0.147942,0.985051,-0.088024,-0.0136789999999999,0.022152,0.0464889999999999
112,-0.147109,0.985383,-0.085671,-0.0139169999999999,0.01445,0.053139
113,-0.146169,0.985714,-0.083442,-0.001368,0.00417,0.050071
114,-0.144898,0.986083,-0.0812669999999999,-0.000244,0.014283,0.042098
115,-0.143421,0.986432,-0.079632,0.004703,0.01604,0.024304
116,-0.142005,0.986679,-0.079108,-0.007455,0.0006259999999999,0.041236
117,-0.140745,0.986812,-0.0797,-0.0119189999999999,-0.007487,0.040149
118,-0.139726,0.986937,-0.079949,-0.007201,-0.008101,0.016335
119,-0.138746,0.987119,-0.079396,0.002592,-0.017072,0.027486
120,-0.137538,0.987396,-0.07805,0.0100349999999999,-0.0180509999999999,0.024171
121,-0.135688,0.987807,-0.0760639999999999,0.0129,-0.022963,0.018553
122,-0.1333339999999999,0.988352,-0.0730799999999999,0.02933,-0.027598,0.010534
123,-0.130973,0.988939,-0.069307,0.016883,0.012724,-0.007948
124,-0.1294,0.989454,-0.064763,0.01772,0.072069,-0.009685
125,-0.128503,0.989805,-0.061083,0.036539,0.044329,0.007189
126,-0.12789,0.990064,-0.058096,0.0270899999999999,-0.017194,0.028631
127,-0.127643,0.990304,-0.054425,0.014743,-0.045221,0.032331
128,-0.127372,0.990599,-0.049463,-0.008859,-0.020919,0.022302
129,-0.127139,0.990885,-0.044039,-0.013257,-0.010249,0.0129259999999999
130,-0.126847,0.991132,-0.039043,-0.018432,0.002871,0.007076
131,-0.126494,0.99133,-0.034967,-0.015184,0.0286139999999999,-0.000601
132,-0.126301,0.991446,-0.0322649999999999,-0.003979,0.043207,-0.002266
133,-0.126163,0.991508,-0.030856,0.005344,0.035256,-0.005139
134,-0.126113,0.991532,-0.030277,0.0120989999999999,0.033767,-0.009137
135,-0.126373,0.991508,-0.029997,0.016708,0.032296,-0.019716
136,-0.126863,0.991438,-0.030239,0.0285649999999999,0.007998,-0.016925
137,-0.127123,0.991408,-0.0301199999999999,0.0345629999999999,-0.001998,-0.018007
138,-0.12716,0.991424,-0.0294459999999999,0.028435,-0.002288,-0.0283839999999999
139,-0.127098,0.991459,-0.0285279999999999,0.034172,-0.00597,-0.01528
140,-0.126939,0.991516,-0.027195,0.0284889999999999,-0.006592,-0.014096
141,-0.126538,0.991617,-0.025329,0.027096,-0.006326,-0.018098
142,-0.12598,0.99174,-0.023159,0.008106,-0.0031079999999999,-0.004215
143,-0.125527,0.991855,-0.020557,0.008629,-0.010745,-0.005215
144,-0.1250339999999999,0.991968,-0.017894,0.011921,-0.008265,-0.0092819999999999
145,-0.124363,0.992091,-0.015611,0.00449,0.015584,-0.0018449999999999
146,-0.123815,0.992192,-0.013415,0.009359,0.0140639999999999,-0.000882
147,-0.123217,0.99229,-0.011474,0.009341,0.011967,0.000305
148,-0.1226309999999999,0.992376,-0.010161,-0.00275,0.01066,0.010237
149,-0.122121,0.992452,-0.008786,0.00176,-0.001073,0.011853
150,-0.12155,0.992536,-0.007072,0.004637,-0.004254,0.005302
151,-0.1207859999999999,0.992637,-0.005631,-0.004046,0.0070569999999999,0.004533
152,-0.1200079999999999,0.992737,-0.004536,0.000761,0.017349,0.0042759999999999
153,-0.1192579999999999,0.992829,-0.004228,0.010829,0.013641,0.00081
154,-0.118355,0.992936,-0.00441,0.009331,-0.000901,-0.004226
155,-0.117322,0.993059,-0.004427,0.004026,0.0009289999999999,-0.001021
156,-0.116538,0.993153,-0.004034,0.000739,-0.000294,0.009466
157,-0.116102,0.993207,-0.003149,7.4e-05,0.0134,0.018408
158,-0.115888,0.993235,-0.002207,-0.002215,0.0237639999999999,0.015482
159,-0.115828,0.993243,-0.001766,-0.007127,0.024061,0.014736
160,-0.115951,0.993228,-0.001696,0.005508,0.008084,0.021044
161,-0.116053,0.993217,-0.001615,0.014705,-0.004249,0.022642
162,-0.116057,0.993216,-0.001481,0.009077,-0.001975,0.02292
163,-0.1160609999999999,0.993216,-0.001167,0.004702,0.004877,0.021248
164,-0.116021,0.993221,-0.00077,0.005182,0.004261,0.022208
165,-0.11594,0.993231,-0.000537,0.005893,0.003702,0.020908
166,-0.1157609999999999,0.993252,-0.000396,0.002434,0.004154,0.034957
167,-0.115589,0.993272,-0.000252,-0.000424,-0.002916,0.029945
168,-0.1153839999999999,0.993296,-0.000107,-0.00223,0.002782,0.020249
169,-0.115219,0.993316,-0.0001189999999999,0.001312,0.018266,0.0064519999999999
170,-0.115118,0.993327,-0.000585,0.008886,0.016301,0.002859
171,-0.1149289999999999,0.993348,-0.001376,0.007645,0.00183,0.008059
172,-0.114712,0.993372,-0.002017,0.003811,-0.004297,0.0133389999999999
173,-0.1146109999999999,0.993383,-0.002029,0.000247,-0.005971,0.009781
174,-0.114815,0.993359,-0.001831,0.006874,0.008411,0.006317
175,-0.1152869999999999,0.993304,-0.00197,0.009192,0.011732,0.008272
176,-0.115763,0.993247,-0.002506,0.009165,0.004007,0.017764
177,-0.116159,0.993198,-0.003091,0.003046,0.002651,0.029077
178,-0.116401,0.993169,-0.003378,-0.004907,0.008784,0.0307829999999999
179,-0.116568,0.993149,-0.003703,-0.009501,0.031708,0.035456
180,-0.1168039999999999,0.993117,-0.004598,-0.011995,0.030076,0.0402579999999999
181,-0.117175,0.993066,-0.006012,-0.010053,0.022315,0.045837
182,-0.11762,0.993004,-0.007353,-0.005213,0.00248,0.040587
183,-0.118163,0.99293,-0.0085519999999999,-0.003709,0.004263,0.028007
184,-0.1188029999999999,0.992843,-0.009648,-0.004412,-0.0041189999999999,0.022541
185,-0.119418,0.992756,-0.010933,-0.008741,-0.0150949999999999,0.014183
186,-0.119913,0.992679,-0.012388,-0.010931,-0.019778,0.017606
187,-0.1202869999999999,0.992621,-0.013338,-0.01747,0.002664,0.011217
188,-0.12062,0.992569,-0.0141599999999999,-0.018266,0.010925,0.008301
189,-0.1209369999999999,0.992516,-0.015155,-0.006612,0.010582,0.002094
190,-0.12137,0.992438,-0.0166639999999999,-0.000746,0.002877,0.0088209999999999
191,-0.1219079999999999,0.992345,-0.018197,0.000769,-0.001332,0.007303
192,-0.1226,0.992233,-0.019565,-0.004033,0.001755,0.004093
193,-0.123344,0.992112,-0.021004,-0.005807,0.017425,-0.007728
194,-0.1240589999999999,0.991979,-0.022934,-0.003443,0.016718,-0.01091
195,-0.12476,0.991829,-0.025496,0.000828,0.008858,-0.010576
196,-0.125418,0.991671,-0.0282329999999999,0.007056,-0.00545,-0.003307
197,-0.1260619999999999,0.991515,-0.0307269999999999,0.005991,-0.012176,-0.006261
198,-0.1267619999999999,0.991361,-0.0327589999999999,0.0003129999999999,-0.005964,0.001326
199,-0.127444,0.991227,-0.034138,0.00606,0.009643,-0.012753
200,-0.128042,0.991105,-0.035421,0.011602,0.003478,-0.021174
201,-0.128611,0.990971,-0.037083,0.0184569999999999,0.003399,-0.012676
202,-0.129147,0.990841,-0.038648,0.01875,-0.004116,-0.005862
203,-0.129597,0.990745,-0.039591,0.0127,-0.006309,-0.005499
204,-0.130072,0.990679,-0.039687,0.013266,-0.004229,-0.002839
205,-0.130509,0.990638,-0.039298,0.01143,-0.005194,-0.008508
206,-0.130851,0.990616,-0.038704,0.005363,-0.003968,-0.01455
207,-0.131168,0.990607,-0.037846,0.00745,0.000726,-0.0096239999999999
208,-0.131439,0.990619,-0.03658,0.003525,-0.014835,0.015568
209,-0.1318089999999999,0.990632,-0.034861,-0.011044,-0.016297,0.021571
210,-0.132428,0.990636,-0.032281,-0.022693,-0.004919,0.028054
211,-0.13321,0.990626,-0.0292339999999999,-0.0298459999999999,0.006399,0.014311
212,-0.133901,0.990604,-0.026718,-0.02856,0.025342,0.002274
213,-0.134478,0.990562,-0.025309,-0.025495,0.029686,-0.000814
214,-0.135138,0.990489,-0.024673,-0.0106439999999999,0.021444,0.000579
215,-0.135917,0.990388,-0.024443,0.005241,0.0074,-0.002977
216,-0.136415,0.990314,-0.024647,0.003618,0.008785,-0.001934
217,-0.13671,0.99026,-0.025199,0.000388,0.008687,-0.0014119999999999
218,-0.136842,0.990229,-0.025691,0.009995,0.006566,-0.0066269999999999
219,-0.1367,0.990235,-0.026241,0.007153,-0.003754,0.00526
220,-0.136413,0.990263,-0.026672,0.0032189999999999,-0.004286,0.007736
221,-0.136191,0.990286,-0.02694,-0.005685,-0.000281,0.003395
222,-0.136033,0.990308,-0.0269529999999999,-0.007339,-0.005383,0.0049039999999999
223,-0.135896,0.990331,-0.026775,-0.0132889999999999,-0.003957,0.000774
224,-0.1358859999999999,0.990338,-0.026594,-0.013848,0.001133,-0.009875
225,-0.135932,0.990335,-0.02645,-0.007195,0.001639,-0.003701
226,-0.135909,0.990348,-0.026083,-0.004274,-0.003028,0.005026
227,-0.135857,0.990364,-0.025755,-0.001701,0.0054399999999999,0.000868
228,-0.135797,0.990376,-0.0256279999999999,-0.005163,0.009273,-0.0038979999999999
229,-0.135802,0.990382,-0.025342,-0.0012369999999999,0.001042,0.003582
230,-0.135704,0.990407,-0.024908,0.000144,0.000743,0.003515
231,-0.135534,0.990439,-0.0245349999999999,-0.000498,-0.000953,-0.003709
232,-0.135389,0.990473,-0.023984,0.003691,-0.002802,5.8e-05
233,-0.135233,0.990513,-0.023188,0.007975,-0.002171,-0.001837
234,-0.135054,0.990563,-0.022071,0.010389,-0.004738,-0.009302
235,-0.134841,0.990622,-0.020638,0.009917,-0.0070409999999999,0.00428
236,-0.134527,0.990698,-0.018999,0.011205,-0.006551,0.005221
237,-0.134055,0.990788,-0.017498,0.005134,0.0020859999999999,0.0059619999999999
238,-0.133589,0.990879,-0.015805,-0.002626,0.006405,0.015744
239,-0.133223,0.990955,-0.014036,-0.007402,0.013455,0.0139289999999999
240,-0.132997,0.991004,-0.012596,-0.0139,0.022362,0.0179509999999999
241,-0.132934,0.991025,-0.011621,-0.011292,0.020435,0.004114
242,-0.132952,0.991028,-0.011112,-0.005765,0.010589,-0.004894
243,-0.132961,0.99103,-0.010888,0.000149,0.0045299999999999,-0.002753
244,-0.132877,0.991043,-0.010704,0.005695,-0.001267,-0.00312
245,-0.1325049999999999,0.991094,-0.010686,0.008039,-0.000249,-0.005427
246,-0.131847,0.991178,-0.010988,0.005458,0.005892,-0.005949
247,-0.130969,0.991288,-0.011515,0.001773,0.006163,-0.0018969999999999
248,-0.1301109999999999,0.991398,-0.01181,0.001907,0.004559,0.0037229999999999
249,-0.129327,0.991503,-0.011656,0.0008029999999999,0.000273,-0.0005059999999999
250,-0.128635,0.9916,-0.010999,0.00095,-0.007301,-0.009692
251,-0.128053,0.991684,-0.010148,-0.0021809999999999,0.002945,1.6e-05
252,-0.127607,0.991752,-0.008997,-0.005953,0.007104,0.0100489999999999
253,-0.127201,0.991814,-0.007735,-0.004605,-0.0001149999999999,0.008636
254,-0.126658,0.991891,-0.006701,-0.002554,-0.003121,0.010562
255,-0.125923,0.991991,-0.005654,-0.003105,0.004347,0.006554
256,-0.125276,0.992078,-0.004576,-0.0064069999999999,0.010577,0.005278
257,-0.1248089999999999,0.992141,-0.003627,-0.004799,0.017259,0.005443
258,-0.124386,0.992197,-0.002997,-0.00449,0.009757,0.006064
259,-0.12394,0.992253,-0.002745,-0.003426,0.002269,0.009459
260,-0.123467,0.992313,-0.002706,-0.005088,-0.0007509999999999,0.011831
261,-0.123009,0.99237,-0.002545,-0.003471,0.000168,0.0074129999999999
262,-0.122544,0.992428,-0.002269,0.00351,0.00626,0.010387
263,-0.122093,0.992484,-0.002018,0.00344,0.000161,0.013477
264,-0.12168,0.992535,-0.001768,-0.00451,0.001712,0.019438
265,-0.121388,0.992572,-0.00146,-0.005398,0.005475,0.0167949999999999
266,-0.12112,0.992605,-0.0011279999999999,-0.007954,0.00944,0.014266
267,-0.120858,0.992637,-0.000967,-0.003745,0.0096969999999999,0.018362
268,-0.1205619999999999,0.992673,-0.001065,-0.006101,0.005343,0.024487
269,-0.120181,0.992719,-0.0012109999999999,-0.010083,0.0001699999999999,0.024923
270,-0.119754,0.992771,-0.001236,-0.011243,0.004971,0.015946
271,-0.119365,0.992818,-0.001302,-0.007298,0.0136669999999999,0.015997
272,-0.1189119999999999,0.992872,-0.001694,-3e-05,0.010378,0.020752
273,-0.118347,0.992938,-0.002244,-0.002991,0.001553,0.03
274,-0.1176849999999999,0.993016,-0.002669,-0.008032,0.0008039999999999,0.02365
275,-0.11696,0.993101,-0.003013,-0.008177,0.006075,0.021506
276,-0.116227,0.993186,-0.003485,-0.007201,0.01304,0.012198
277,-0.115494,0.993268,-0.004305,-0.0070799999999999,0.002567,0.019625
278,-0.1147869999999999,0.993344,-0.005271,-0.006459,-0.003995,0.022788
279,-0.1141869999999999,0.993411,-0.005834,-0.00625,-0.009417,0.01238
280,-0.113778,0.993456,-0.00605,-0.004142,0.000318,0.0063549999999999
281,-0.113547,0.993481,-0.006295,-0.007456,-0.001584,0.009606
282,-0.1136079999999999,0.993472,-0.006644,-0.00863,-0.010592,0.0172189999999999
283,-0.113991,0.993427,-0.006779,-0.007637,-0.013309,0.015172
284,-0.114673,0.99335,-0.0064849999999999,-0.007977,-0.006381,0.00946
285,-0.11577,0.993227,-0.005914,-0.001493,0.001234,0.012308
286,-0.117183,0.993065,-0.005287,-0.002019,-0.00663,0.027504
287,-0.118889,0.992865,-0.004673,0.001183,-0.004477,0.028324
288,-0.120738,0.992645,-0.00389,-0.001058,0.004425,0.036681
289,-0.122404,0.992443,-0.003021,0.002546,0.033725,0.038131
290,-0.123579,0.992299,-0.0025039999999999,0.001189,0.040477,0.048387
291,-0.123942,0.992254,-0.002629,-0.007741,0.029826,0.054707
292,-0.12347,0.992311,-0.003125,-0.0147139999999999,0.0133949999999999,0.0461699999999999
293,-0.122566,0.992422,-0.0037159999999999,-0.015312,0.000819,0.023477
294,-0.121542,0.992545,-0.004402,-0.010278,0.0006799999999999,-0.001488
295,-0.120609,0.992654,-0.005285,0.002613,0.005683,-0.012842
296,-0.119683,0.992761,-0.006234,0.0085989999999999,-0.000299,-0.014091
297,-0.118718,0.99287,-0.007292,0.007131,-0.001979,-0.01256
298,-0.117915,0.992959,-0.00818,-0.002355,-0.005028,-0.010924
299,-0.1173109999999999,0.993024,-0.0089459999999999,-0.010298,0.0004759999999999,-0.009868
300,-0.116925,0.993062,-0.009709,-0.005755,-0.001104,-0.006175
301,-0.1166799999999999,0.993083,-0.010516,0.004742,-0.009089,0.005389
302,-0.116631,0.993083,-0.0110879999999999,0.0001149999999999,-0.0152539999999999,0.010218
303,-0.116826,0.993058,-0.0112129999999999,-0.0052899999999999,-0.006272,0.006192
304,-0.117268,0.993008,-0.011082,-0.008922,0.007175,0.003682
305,-0.117915,0.992931,-0.011155,-0.0068709999999999,0.005757,0.007127
306,-0.1186319999999999,0.99284,-0.0116189999999999,-0.006352,0.001621,0.0152509999999999
307,-0.119301,0.992753,-0.012197,-0.0038369999999999,0.002746,0.0182699999999999
308,-0.1199099999999999,0.992675,-0.012558,0.004828,0.005769,0.014603
309,-0.1204109999999999,0.992613,-0.012636,0.00449,0.0107739999999999,0.01703
310,-0.120875,0.992557,-0.012676,0.014612,0.015576,0.02087
311,-0.1212099999999999,0.992514,-0.012778,0.0066319999999999,0.004556,0.0273649999999999
312,-0.1214799999999999,0.992482,-0.012753,-0.000453,0.00082,0.031445
313,-0.121768,0.99245,-0.012442,-0.0030039999999999,0.003125,0.021262
314,-0.121948,0.992436,-0.011838,-0.001115,0.011608,0.005964
315,-0.122096,0.992421,-0.011556,0.00532,0.009639,0.007344
316,-0.122194,0.992411,-0.0114,0.008241,0.002874,0.008333
317,-0.12212,0.992422,-0.011219,0.001865,-0.014425,0.009983
318,-0.122017,0.992441,-0.010641,-0.0044329999999999,-0.009454,0.002416
319,-0.12204,0.992447,-0.009752,-0.004806,0.005386,0.001024
320,-0.1222819999999999,0.992425,-0.008917,0.001493,0.010901,0.00109
321,-0.122617,0.992388,-0.008515,-0.000156,0.006971,0.002259
322,-0.122852,0.992359,-0.0084689999999999,-0.003139,0.003613,0.005631
323,-0.1230579999999999,0.992334,-0.008495,-0.007176,0.0044469999999999,0.004573
324,-0.123323,0.9923,-0.0086,-0.005934,0.008524,-0.001074
325,-0.1237019999999999,0.992249,-0.009003,-0.000672,0.012924,0.0014349999999999
326,-0.124094,0.992193,-0.009745,0.0034579999999999,0.006388,0.006312
327,-0.124426,0.992143,-0.010577,0.002051,0.004164,0.008609
328,-0.12468,0.992105,-0.0111569999999999,0.003143,0.001883,0.00957
329,-0.1249059999999999,0.992074,-0.011381,0.008756,0.007682,0.003996
330,-0.125101,0.992049,-0.011482,0.008066,0.005571,0.004707
331,-0.125246,0.992028,-0.011683,0.00612,0.001411,0.007518
332,-0.125339,0.992014,-0.011866,0.006397,-0.000788,0.0074099999999999
333,-0.125382,0.992008,-0.011927,0.00026,0.002117,0.005121
334,-0.125408,0.992006,-0.011858,-0.001682,0.002791,0.002261
335,-0.125439,0.992002,-0.011886,0.000713,0.0070069999999999,-0.003678
336,-0.125529,0.991987,-0.012124,0.00233,0.00464,0.002251
337,-0.125615,0.991972,-0.012489,-2.6e-05,0.000826,0.003975
338,-0.125697,0.991959,-0.012675,-0.002034,0.000579,0.005931
339,-0.125825,0.991944,-0.012555,0.001527,0.003997,0.005933
340,-0.126024,0.991922,-0.012292,0.001436,0.005407,0.001885
341,-0.126228,0.991898,-0.012145,0.002723,0.002242,0.001418
342,-0.126396,0.991878,-0.01207,0.002738,-0.001018,0.0038909999999999
343,-0.126533,0.991864,-0.0117939999999999,0.002647,0.004001,0.0011279999999999
344,-0.126712,0.991847,-0.011269,-0.002042,0.004796,0.00251
345,-0.126951,0.991822,-0.010714,4.4e-05,0.005492,-0.000562
346,-0.127139,0.991802,-0.010343,0.003924,-0.003536,0.000379
347,-0.127282,0.991788,-0.010001,0.002908,-0.002698,0.004783
348,-0.127361,0.991783,-0.009484,4.1e-05,0.000786,0.004677
349,-0.12744,0.991779,-0.008751,-0.000673,0.008648,-0.000816
350,-0.127557,0.991769,-0.008178,-0.002341,0.009284,0.000319
351,-0.127637,0.991761,-0.007929,-0.0034049999999999,0.002288,0.002741
352,-0.127542,0.991774,-0.007855,-0.012946,0.0077069999999999,0.007001
353,-0.1272059999999999,0.991818,-0.007773,-0.015555,0.012409,0.007773
354,-0.1267319999999999,0.991878,-0.007781,-0.011879,0.012669,0.007887
355,-0.1262319999999999,0.991939,-0.008176,-0.009419,-0.000133,0.0111209999999999
356,-0.125708,0.991999,-0.0089319999999999,-0.008279,-0.005274,0.011633
357,-0.125167,0.99206,-0.009642,-0.007233,0.002218,0.0083299999999999
358,-0.1246869999999999,0.992117,-0.010036,-0.00161,0.010156,0.008083
359,-0.1243089999999999,0.992161,-0.010375,0.001887,0.0019489999999999,0.007705
360,-0.123981,0.992197,-0.010898,0.003924,-0.003061,0.011768
361,-0.123681,0.992229,-0.011352,0.0001,-0.0033979999999999,0.011809
362,-0.123389,0.992264,-0.0115,-0.003824,0.002884,0.012065
363,-0.123165,0.992292,-0.011424,-0.005208,0.004458,0.009517
364,-0.122991,0.992314,-0.011437,-0.000605,0.007702,0.011635
365,-0.122813,0.992332,-0.011767,-0.001637,0.000893,0.014284
366,-0.122622,0.99235,-0.012249,-0.005643,-0.000834,0.018688
367,-0.122432,0.992368,-0.012652,-0.009252,0.009143,0.016742
368,-0.122278,0.99238,-0.013182,-0.003851,0.010901,0.012403
369,-0.122149,0.992385,-0.013951,0.000643,0.005051,0.0127459999999999
370,-0.12199,0.992391,-0.014893,-0.000721,0.00088,0.01503
371,-0.121848,0.992397,-0.01566,-0.008783,-0.0002549999999999,0.019261
372,-0.1216869999999999,0.99241,-0.016097,-0.006334,0.008201,0.0164939999999999
373,-0.121611,0.992412,-0.016554,-0.007097,0.012959,0.016753
374,-0.1216569999999999,0.992393,-0.017302,-0.0074629999999999,-0.001594,0.024809
375,-0.121698,0.992375,-0.018054,-0.007437,-0.004063,0.0222039999999999
376,-0.1217,0.992367,-0.018459,-0.012958,-0.000149,0.01907
377,-0.121666,0.992366,-0.0187449999999999,-0.011422,0.008565,0.014534
378,-0.121602,0.992365,-0.019211,-0.008937,0.005789,0.018539
379,-0.12157,0.992355,-0.01991,-0.008039,-0.000412,0.024884
380,-0.121502,0.992351,-0.0205319999999999,-0.009143,-0.002513,0.026269
381,-0.121393,0.992356,-0.0209199999999999,-0.01171,0.001632,0.023239
382,-0.121325,0.992358,-0.021241,-0.012662,0.011594,0.015412
383,-0.121323,0.992344,-0.021883,-0.008392,0.011486,0.017809
384,-0.121305,0.992326,-0.0228039999999999,-0.00609,-0.003327,0.024482
385,-0.121295,0.992311,-0.0234909999999999,-0.011227,-0.00963,0.024437
386,-0.121306,0.992304,-0.0237199999999999,-0.012422,0.00028,0.016594
387,-0.121374,0.992291,-0.0239169999999999,-0.00825,0.012927,0.01261
388,-0.1215339999999999,0.992258,-0.024487,-0.005999,0.0016079999999999,0.022626
389,-0.121677,0.99222,-0.025332,-0.007779,-0.003145,0.0256519999999999
390,-0.121791,0.992193,-0.025829,-0.010075,-0.002553,0.022243
391,-0.121949,0.99217,-0.025972,-0.011062,0.0146509999999999,0.018785
392,-0.122156,0.992135,-0.026333,-0.0075739999999999,0.013541,0.023449
393,-0.122418,0.992077,-0.027252,-0.015003,-0.005688,0.0269769999999999
394,-0.1227359999999999,0.992009,-0.0282889999999999,-0.023321,-0.010915,0.029708
395,-0.1231839999999999,0.991936,-0.028855,-0.0298,0.0064769999999999,0.019715
396,-0.123803,0.991854,-0.029054,-0.035392,0.019591,0.0139479999999999
397,-0.124662,0.991729,-0.029622,-0.031375,0.010651,0.012883
398,-0.12566,0.991562,-0.030956,-0.0351519999999999,-0.0015869999999999,0.021038
399,-0.126772,0.991368,-0.032598,-0.033964,-0.01238,0.0250759999999999
400,-0.127974,0.991176,-0.03374,-0.036409,-0.015178,0.009601
401,-0.129199,0.990991,-0.034487,-0.03761,-0.0011539999999999,0.001223
402,-0.130573,0.990779,-0.035397,-0.0311089999999999,0.000188,0.008862
403,-0.131998,0.990544,-0.036672,-0.025412,-0.004247,0.009145
404,-0.133345,0.990305,-0.038216,-0.024416,-0.008906,0.012444
405,-0.134581,0.990083,-0.039608,-0.024797,-0.004579,0.013928
406,-0.135627,0.989903,-0.040541,-0.022881,0.007503,0.001173
407,-0.136431,0.989748,-0.041596,-0.024687,0.022947,-0.006225
408,-0.137051,0.989595,-0.043181,-0.0169099999999999,0.029296,-0.004945
409,-0.137436,0.989448,-0.045266,-0.009155,0.0154349999999999,-0.0073
410,-0.137427,0.989323,-0.047947,-0.00155,-0.0048259999999999,-0.007854
411,-0.137117,0.989221,-0.050864,-0.003172,-0.005685,-0.015801
412,-0.136744,0.989146,-0.053258,-0.002722,-0.0081129999999999,-0.023402
413,-0.136487,0.989086,-0.055004,4.3e-05,-0.0055049999999999,-0.0267069999999999
414,-0.136204,0.989037,-0.056558,0.002446,-0.003732,-0.028724
415,-0.135684,0.989002,-0.0583929999999999,0.001452,0.00108,-0.026705
416,-0.134916,0.988988,-0.060383,-0.0019089999999999,0.000636,-0.03146
417,-0.134039,0.989001,-0.0621049999999999,-0.000162,-0.001955,-0.031599
418,-0.133117,0.98904,-0.063447,0.002501,-0.002926,-0.025939
419,-0.132083,0.989115,-0.06443,0.001987,0.000173,-0.020791
420,-0.130931,0.989216,-0.065223,-0.000921,0.00021,-0.019646
421,-0.129659,0.989332,-0.065994,-0.006663,0.000872,-0.014527
422,-0.128291,0.989477,-0.0664889999999999,-0.004841,-0.00025,-0.017877
423,-0.1268369999999999,0.989648,-0.0667389999999999,-0.003839,-0.00158,-0.016941
424,-0.12515,0.989871,-0.066624,-0.008716,-0.005877,-0.008572
425,-0.1233119999999999,0.99016,-0.065744,-0.015924,-0.0074629999999999,-0.010306
426,-0.121496,0.99049,-0.064126,-0.013041,-0.007824,-0.015433
427,-0.119673,0.99084,-0.062102,-0.00934,-0.0126299999999999,-0.015092
428,-0.117691,0.991228,-0.05966,-0.007736,-0.024202,-0.00252
429,-0.115389,0.991668,-0.05677,-0.0065439999999999,-0.001159,0.001853
430,-0.113173,0.992109,-0.053419,-0.014146,-0.008772,0.002867
431,-0.110674,0.992574,-0.04992,-0.028013,-0.013158,0.023003
432,-0.107578,0.993078,-0.046531,-0.039334,-0.007879,0.0328899999999999
433,-0.1044089999999999,0.993561,-0.043344,-0.023948,-0.0068969999999999,0.032404
434,-0.101868,0.993941,-0.040576,-0.021713,-0.015472,0.035739
435,-0.100202,0.994208,-0.038126,0.032148,-0.032355,0.015955
436,-0.09981,0.994303,-0.03663,0.077639,-0.0136669999999999,0.019219
437,-0.100522,0.994227,-0.036763,0.0927559999999999,-0.003275,0.0351449999999999
438,-0.101987,0.994078,-0.036757,0.098722,0.030733,0.055694
439,-0.1034809999999999,0.993939,-0.036343,0.059033,0.0571169999999999,0.0794179999999999
440,-0.103963,0.993935,-0.035042,0.013524,0.057762,0.056038
441,-0.102906,0.994115,-0.032996,0.003831,0.0426589999999999,0.045356
442,-0.100962,0.994357,-0.0316759999999999,0.015696,0.044873,0.0473009999999999
443,-0.0989,0.994581,-0.0311439999999999,0.0151449999999999,0.058596,0.036988
444,-0.096771,0.994783,-0.0313769999999999,0.03598,0.037505,0.020986
445,-0.094146,0.995007,-0.032234,0.0537559999999999,0.009326,0.0046159999999999
446,-0.090541,0.995318,-0.032954,0.074077,0.0055969999999999,0.004496
447,-0.086186,0.995697,-0.0332019999999999,0.082738,0.001175,0.018645
448,-0.081945,0.996061,-0.033009,0.083136,-0.002302,0.018208
449,-0.078921,0.996305,-0.033003,0.07651,-0.004896,0.013715
450,-0.077292,0.996406,-0.033826,0.0738279999999999,-0.0032259999999999,0.006818
451,-0.07678,0.996392,-0.035344,0.063688,0.011298,0.028249
452,-0.077267,0.996281,-0.037357,0.0369839999999999,-0.000584,0.045368
453,-0.078512,0.996094,-0.039673,0.00498,0.008346,0.048599
454,-0.080488,0.995812,-0.042687,-0.023409,0.013831,0.037347
455,-0.082968,0.995439,-0.046468,-0.015558,0.040068,0.055959
456,-0.084597,0.995114,-0.050348,-0.02728,0.025623,0.062753
457,-0.0846799999999999,0.994985,-0.0526919999999999,-0.057074,0.001032,0.037769
458,-0.083814,0.995019,-0.0534279999999999,-0.077135,-0.00921,0.028923
459,-0.0823909999999999,0.995161,-0.052997,-0.0461339999999999,0.005632,0.033755
460,-0.080707,0.995348,-0.052062,-0.006695,0.015058,0.02478
461,-0.079294,0.995504,-0.051252,0.012064,0.014796,0.0189949999999999
462,-0.078525,0.995573,-0.051093,0.032199,-0.007826,0.017737
463,-0.0783,0.995597,-0.050966,0.041481,-3.8e-05,-0.009382
464,-0.078273,0.995619,-0.050585,0.061198,0.010836,-0.014418
465,-0.078025,0.99565,-0.050354,0.067481,0.003267,-0.008606
466,-0.077808,0.995672,-0.050253,0.051395,0.004938,-0.007441
467,-0.077543,0.99568,-0.050511,0.03488,-0.005125,0.006565
468,-0.077449,0.995676,-0.050719,0.006434,0.0090689999999999,0.021315
469,-0.0775899999999999,0.995671,-0.050607,-0.016053,0.019298,0.0271839999999999
470,-0.077849,0.995668,-0.050267,-0.015321,0.002913,0.021397
471,-0.078453,0.995642,-0.049823,-0.000801,0.006235,0.025805
472,-0.079327,0.995602,-0.0492509999999999,0.01492,0.0032229999999999,0.029673
473,-0.080552,0.995544,-0.048417,0.043962,0.001847,0.035707
474,-0.082189,0.995456,-0.0474529999999999,0.045843,0.00784,0.0291269999999999
475,-0.084086,0.995331,-0.046756,0.051051,0.012451,0.022907
476,-0.085949,0.995177,-0.046639,0.04916,0.022386,0.013177
477,-0.088047,0.994965,-0.047242,0.0524179999999999,0.025161,0.025254
478,-0.090421,0.994691,-0.048517,0.050413,0.025237,0.033899
479,-0.092842,0.994383,-0.050222,0.050698,0.028566,0.073003
480,-0.095211,0.994063,-0.052099,0.049877,0.023699,0.072073
481,-0.097506,0.993735,-0.054068,0.044604,0.015008,0.068503
482,-0.0996259999999999,0.993412,-0.0561,0.0300149999999999,0.044826,0.069879
483,-0.101359,0.993112,-0.058271,0.024775,0.049979,0.069486
484,-0.102011,0.992918,-0.060394,0.005697,0.037325,0.069427
485,-0.101957,0.9928,-0.062396,0.002989,0.01396,0.0681789999999999
486,-0.101459,0.992784,-0.063451,0.011447,-0.003786,0.060125
487,-0.101089,0.992785,-0.0640169999999999,-0.024033,-0.01195,0.014746
488,-0.101646,0.992619,-0.065685,-0.0289839999999999,-0.010731,0.0085709999999999
489,-0.102888,0.992342,-0.067892,-0.021654,-0.011584,-0.00213
490,-0.10411,0.992068,-0.070009,0.0068349999999999,-0.007571,-0.0032939999999999
491,-0.105253,0.991812,-0.071892,0.028318,-0.011145,0.00039
492,-0.1065619999999999,0.991559,-0.073439,0.029444,-0.002225,0.02281
493,-0.108307,0.991262,-0.07488,0.028442,0.0284069999999999,0.054143
494,-0.109402,0.99105,-0.076089,-0.023365,0.0448089999999999,0.050698
495,-0.1092009999999999,0.990977,-0.077315,-0.045844,0.027532,0.044203
496,-0.107713,0.991064,-0.078279,-0.064787,-0.032431,0.042177
497,-0.106,0.991225,-0.07858,-0.050586,-0.044478,0.043194
498,-0.104721,0.991386,-0.07825,0.013718,-0.0250169999999999,0.052279
499,-0.104582,0.991488,-0.077134,0.03047,-0.0027489999999999,0.03032
500,-0.105616,0.991462,-0.076058,0.020624,0.00306,-0.008582
501,-0.1074359999999999,0.991217,-0.076695,-0.015,0.023156,-0.0217699999999999
502,-0.1091819999999999,0.990822,-0.079301,-0.058162,0.019051,-0.0151669999999999
503,-0.11077,0.990289,-0.0836399999999999,-0.082589,0.006049,0.000709
504,-0.112297,0.989661,-0.088877,-0.076942,0.006601,0.010767
505,-0.1137369999999999,0.98903,-0.093924,-0.043611,0.007949,0.0205449999999999
506,-0.115015,0.988492,-0.097948,-0.011099,0.003543,0.015489
507,-0.116465,0.988025,-0.100906,0.011439,4.3e-05,0.006164
508,-0.118225,0.987479,-0.104148,0.004517,0.0005269999999999,0.007194
509,-0.120484,0.986725,-0.108616,-0.015655,-0.004105,0.0074659999999999
510,-0.123204,0.985742,-0.114344,-0.025539,-0.006127,0.006434
511,-0.125948,0.984619,-0.120841,-0.038694,-0.025254,-0.002526
512,-0.128401,0.983446,-0.127629,-0.02318,-0.046037,0.00594
513,-0.130472,0.982303,-0.1341619999999999,-0.010092,-0.0533029999999999,0.002799
514,-0.132319,0.981224,-0.140119,-0.00324,-0.02903,-0.0523559999999999
515,-0.133929,0.980125,-0.146155,-0.0083439999999999,-0.004905,-0.071862
516,-0.135453,0.978949,-0.1525,-0.023467,0.005442,-0.079678
517,-0.137401,0.977772,-0.1582,-0.026723,0.006862,-0.083454
518,-0.140047,0.97668,-0.162565,-0.047605,0.047322,-0.0471209999999999
519,-0.143572,0.975741,-0.165106,-0.036345,0.051938,-0.034494
520,-0.147152,0.975168,-0.16534,-0.029713,0.043432,-0.036549
521,-0.150057,0.974846,-0.16463,-0.055616,0.0216449999999999,-0.04823
522,-0.152222,0.974614,-0.164014,-0.0610809999999999,0.005306,-0.050936
523,-0.15389,0.974224,-0.164768,-0.0545909999999999,-0.005169,-0.0475279999999999
524,-0.154678,0.973684,-0.167203,-0.017075,-0.086111,0.001721
525,-0.154196,0.9731,-0.171009,-0.022073,-0.11667,0.013675
526,-0.152438,0.972629,-0.175216,-0.027402,-0.141192,0.033462
527,-0.149775,0.972578,-0.177772,-0.090673,0.003145,-0.095162
528,-0.148058,0.972714,-0.178468,-0.007948,0.206607,-0.119613
529,-0.1487349999999999,0.972564,-0.178723,0.1143869999999999,0.321473,-0.070239
530,-0.148317,0.973062,-0.176343,0.1098339999999999,-0.133508,-0.009967
531,-0.146872,0.973453,-0.175391,-0.002496,-0.052845,0.003593
532,-0.146178,0.973681,-0.174705,-0.149018,0.107801,-0.007775
533,-0.148042,0.973514,-0.174067,-0.107406,0.036557,-0.005178
534,-0.151508,0.97267,-0.175794,-0.06152,0.014177,-0.00925
535,-0.154052,0.971266,-0.181263,-0.0307779999999999,-0.02281,0.033116
536,-0.15411,0.970276,-0.186441,-0.025943,-0.027924,0.058663
537,-0.152603,0.970234,-0.187895,-0.028962,-0.041874,0.048658
538,-0.151623,0.970699,-0.186275,-0.008381,-0.005337,-0.009403
539,-0.151192,0.971074,-0.184664,0.030648,0.015971,-0.057112
540,-0.150545,0.970994,-0.185612,0.041048,0.026717,-0.0585899999999999
541,-0.149752,0.970549,-0.188559,0.024935,-0.000502,-0.019678
542,-0.149031,0.970116,-0.19134,-0.006639,-0.012505,0.018733
543,-0.1484069999999999,0.96987,-0.1930609999999999,-0.043137,-0.013266,0.021735
544,-0.147829,0.96996,-0.193052,-0.060774,-0.002492,0.006956
545,-0.147315,0.970326,-0.191601,-0.065301,0.005977,-0.00632
546,-0.146955,0.970751,-0.189714,-0.07506,0.00778,-0.013624
547,-0.146779,0.971129,-0.187906,-0.07069,0.005784,-0.035345
548,-0.146502,0.971432,-0.186553,-0.062864,0.0007509999999999,-0.042008
549,-0.145893,0.971668,-0.185802,-0.056621,-0.019168,-0.037343
550,-0.14513,0.971914,-0.185109,-0.065426,-0.029592,-0.045955
551,-0.144518,0.972228,-0.183936,-0.068053,-0.0327589999999999,-0.048409
552,-0.143943,0.972609,-0.182366,-0.06556,-0.03607,-0.058448
553,-0.143315,0.973072,-0.180377,-0.05865,-0.056995,-0.068783
554,-0.142289,0.973793,-0.177273,-0.042037,-0.047249,-0.077824
555,-0.140845,0.974837,-0.172624,-0.064584,0.029557,-0.06729
556,-0.139761,0.975917,-0.167321,-0.071604,0.10967,-0.079246
557,-0.139345,0.976771,-0.162617,-0.042494,0.1024829999999999,-0.052501
558,-0.139391,0.977252,-0.159659,-0.030851,0.0754519999999999,-0.057092
559,-0.139449,0.977345,-0.159039,-0.021333,0.044307,-0.060062
560,-0.138895,0.977263,-0.160026,0.0309699999999999,-0.030882,0.041313
561,-0.137675,0.97752,-0.159505,0.036891,-0.049099,0.038152
562,-0.136032,0.978169,-0.156914,0.0453029999999999,-0.056035,0.026986
563,-0.134146,0.979056,-0.1529589999999999,0.0239629999999999,-0.0162259999999999,0.04044
564,-0.132456,0.980087,-0.147738,0.015879,-0.010513,0.039537
565,-0.131426,0.981056,-0.14212,-0.000837,-0.006141,0.036514
566,-0.130713,0.981894,-0.1368849999999999,0.002707,-0.014563,0.034697
567,-0.1297309999999999,0.982626,-0.1325,0.003388,-0.00881,0.0423819999999999
568,-0.128315,0.983206,-0.129541,-0.010509,0.009821,0.04722
569,-0.1268369999999999,0.983813,-0.126344,-0.0075159999999999,0.005811,0.059175
570,-0.124704,0.984557,-0.122623,-0.009405,-0.008208,0.0564
571,-0.122142,0.985357,-0.118708,-0.011784,-0.024191,0.065653
572,-0.119248,0.986235,-0.114273,0.001496,-0.0308519999999999,0.072814
573,-0.116645,0.987032,-0.1100039999999999,0.0053939999999999,-0.015123,0.082432
574,-0.1146869999999999,0.987642,-0.106527,0.034304,0.028105,0.088003
575,-0.1128589999999999,0.988108,-0.104131,0.036946,0.02976,0.0873309999999999
576,-0.11085,0.988504,-0.102518,0.033336,0.028388,0.081827
577,-0.108626,0.988912,-0.1009549999999999,0.026717,0.015987,0.082171
578,-0.105637,0.989417,-0.099163,0.004013,-0.011008,0.086499
579,-0.101932,0.990084,-0.096334,0.0122099999999999,-0.030047,0.081487
580,-0.097368,0.990925,-0.092325,0.0441149999999999,-0.022923,0.060617
581,-0.092858,0.991728,-0.088256,0.06347,0.007493,0.059798
582,-0.088652,0.992399,-0.084978,0.096937,0.041628,0.051485
583,-0.085002,0.992917,-0.082631,0.089412,0.014209,0.034566
584,-0.082104,0.993343,-0.08041,0.07861,-0.00349,0.022808
585,-0.079519,0.993777,-0.077595,0.068471,-0.013094,-0.003047
586,-0.076788,0.994226,-0.074526,0.0741629999999999,0.04917,0.005709
587,-0.0735929999999999,0.994744,-0.070747,0.0749659999999999,0.053291,0.014809
588,-0.069618,0.995409,-0.0652,0.069282,-0.019136,0.028533
589,-0.065985,0.996105,-0.0579299999999999,0.070211,-0.041622,0.042686
590,-0.06342,0.996721,-0.049594,0.073857,-0.0296959999999999,0.048114
591,-0.062064,0.997181,-0.0414,0.041022,0.012936,0.067508
592,-0.061644,0.997463,-0.034664,0.024444,0.0597269999999999,0.0621139999999999
593,-0.0619059999999999,0.997591,-0.030232,0.0152139999999999,0.08386,0.021137
594,-0.062596,0.997587,-0.028898,0.009495,0.071947,-0.031283
595,-0.063685,0.997452,-0.031093,0.003534,0.041183,-0.052006
596,-0.065093,0.997234,-0.034942,-0.015153,0.005376,-0.042496
597,-0.066764,0.997017,-0.037853,-0.037316,0.06765,0.023693
598,-0.067676,0.996837,-0.040857,-0.123761,-0.039638,0.0693299999999999
599,-0.066896,0.996846,-0.041891,-0.1198859999999999,-0.117681,-0.03477
600,-0.06587,0.996951,-0.041017,-0.114824,-0.096286,-0.0554789999999999
601,-0.065001,0.99707,-0.039468,0.050933,0.080399,-0.012381
602,-0.063429,0.997245,-0.037571,0.111296,0.091546,0.05582
603,-0.0616899999999999,0.997427,-0.035571,0.071608,0.005686,0.0296959999999999
604,-0.061424,0.997473,-0.034711,0.044243,-0.017508,0.00694
605,-0.06207,0.997415,-0.035225,0.036893,0.024008,0.0046159999999999
606,-0.062298,0.997411,-0.034943,0.034023,0.018428,0.0073849999999999
607,-0.0618289999999999,0.997481,-0.0337649999999999,0.026917,0.015169,0.010526
608,-0.061175,0.997545,-0.033045,-0.011502,-0.0042899999999999,0.020945
609,-0.0606019999999999,0.997595,-0.032586,-0.007376,-0.008612,0.024652
610,-0.059794,0.997681,-0.031422,-0.0026149999999999,-0.005601,0.029057
611,-0.058727,0.997805,-0.029443,0.006892,0.006437,0.036752
612,-0.057905,0.997915,-0.027222,0.006132,0.014505,0.0283509999999999
613,-0.057411,0.997994,-0.02532,0.009254,0.022697,0.014197
614,-0.056825,0.998062,-0.023883,0.053712,0.01091,0.027744
615,-0.05601,0.998143,-0.022346,0.0573679999999999,0.002696,0.0194009999999999
616,-0.055135,0.998233,-0.020425,0.048756,0.003919,0.01983
617,-0.0544659999999999,0.998303,-0.018695,0.008079,0.006611,-0.013516
618,-0.0545159999999999,0.998314,-0.017921,0.007061,-0.004113,-0.024468
619,-0.055209,0.998278,-0.0178389999999999,0.0215789999999999,-0.03406,-0.0290519999999999
620,-0.056561,0.998202,-0.017877,0.042904,-0.026354,-0.006628
621,-0.058377,0.998104,-0.01749,0.048474,0.000813,0.016132
622,-0.060474,0.99799,-0.016821,0.04726,0.048686,0.0036829999999999
623,-0.062393,0.99788,-0.016363,0.045928,0.032318,0.01206
624,-0.063838,0.997793,-0.0160419999999999,0.038691,0.016474,0.021047
625,-0.064857,0.997739,-0.015346,0.025718,0.0057399999999999,0.035762
626,-0.065945,0.997682,-0.014315,0.029202,0.020201,0.03435
627,-0.067097,0.99762,-0.0132449999999999,0.031132,0.026276,0.022065
628,-0.068161,0.997557,-0.012422,0.045853,-0.001174,-0.000319
629,-0.069602,0.997467,-0.0116379999999999,0.077704,-0.0112,0.01411
630,-0.071459,0.997347,-0.0105379999999999,0.083498,-0.0144219999999999,0.025293
631,-0.073757,0.997195,-0.008918,0.054745,0.004132,0.029181
632,-0.076739,0.996983,-0.0074099999999999,0.03464,0.026608,0.009394
633,-0.080223,0.996714,-0.0065969999999999,0.0290449999999999,0.027578,-0.0130099999999999
634,-0.083891,0.996411,-0.006693,0.046751,0.021304,-0.006827
635,-0.087345,0.996112,-0.006937,0.066593,0.037945,0.026789
636,-0.090096,0.995868,-0.006868,0.072518,0.061948,0.072069
637,-0.0906899999999999,0.99582,-0.005894,0.044319,0.0771169999999999,0.0649
638,-0.089377,0.995946,-0.004324,0.031439,0.016398,0.044225
639,-0.087881,0.996084,-0.003012,0.002951,-0.028417,0.028617
640,-0.087619,0.996109,-0.002264,0.003665,-0.038589,0.023214
641,-0.088516,0.99603,-0.00173,-0.0076599999999999,-0.0459269999999999,0.034628
642,-0.0895929999999999,0.995935,-0.000874,-0.023993,-0.043543,0.030751
643,-0.0903549999999999,0.995867,0.0002379999999999,-0.072457,-0.00522,0.004278
644,-0.090878,0.995819,0.000604,-0.079822,0.002472,-0.0006799999999999
645,-0.0912019999999999,0.995789,0.000155,-0.082382,0.005874,0.002561
646,-0.091599,0.995753,-7.5e-05,-0.0578299999999999,-0.004084,0.027663
647,-0.092206,0.995697,0.000308,-0.039279,0.00351,0.019941
648,-0.093151,0.995609,0.000799,-0.0240979999999999,0.0045899999999999,0.005992
649,-0.094634,0.995468,0.001078,-0.014253,-0.004318,0.010031
650,-0.096619,0.995278,0.0009289999999999,-0.018356,-0.020378,0.010393
651,-0.098862,0.995057,0.000548,-0.030716,-0.029802,0.025301
652,-0.101401,0.994802,0.0008089999999999,-0.032587,-0.025838,0.020447
653,-0.104126,0.994519,0.001926,-0.036225,-0.006527,0.0052
654,-0.1071119999999999,0.994196,0.003645,-0.036199,-0.004847,0.001985
655,-0.110341,0.993835,0.005371,-0.0350139999999999,-0.0025329999999999,-0.001541
656,-0.113844,0.993433,0.006555,-0.016238,0.019339,0.031836
657,-0.117073,0.993052,0.007217,-0.01313,0.029943,0.041306
658,-0.119529,0.992755,0.007878,-0.01841,0.040662,0.047435
659,-0.121004,0.992569,0.008586,-0.066023,0.0276029999999999,0.02306
660,-0.121775,0.992474,0.008648,-0.0713559999999999,0.0151849999999999,0.0163
661,-0.122544,0.99239,0.007409,-0.071426,0.009899,0.011253
662,-0.123471,0.992291,0.0048439999999999,-0.061939,-0.0083439999999999,0.017251
663,-0.124351,0.992192,0.001578,-0.049142,-0.020421,0.01806
664,-0.1252049999999999,0.992086,-0.001256,-0.029809,-0.0279279999999999,0.001851
665,-0.126273,0.991945,-0.003332,-0.011346,-0.032747,-0.0114989999999999
666,-0.12791,0.991732,-0.004356,0.003123,-0.018663,-0.015175
667,-0.130148,0.991441,-0.004254,0.000784,-0.007814,-0.011355
668,-0.132681,0.991109,-0.0032329999999999,-0.001719,-0.007756,-0.005617
669,-0.135047,0.990793,-0.001299,0.001853,-0.005488,-0.000304
670,-0.13702,0.990523,0.001179,0.011669,0.002977,0.003887
671,-0.138478,0.990314,0.003621,0.015645,0.0057799999999999,0.003276
672,-0.139338,0.990184,0.005571,0.010753,0.0100299999999999,0.001357
673,-0.139727,0.990123,0.00662,-0.0153169999999999,0.022588,0.005023
674,-0.139796,0.990113,0.0066099999999999,-0.0371439999999999,0.030044,0.0070459999999999
675,-0.1396079999999999,0.990146,0.005472,-0.046198,0.0394259999999999,0.0043549999999999
676,-0.139288,0.990201,0.003175,-0.0353029999999999,0.022754,0.002654
677,-0.139067,0.990238,0.000207,-0.02292,-0.00011,0.007849
678,-0.139213,0.990214,-0.0026579999999999,-0.014687,0.00266,0.010684
679,-0.139876,0.990112,-0.004737,-0.004441,0.008301,0.006568
680,-0.140942,0.989953,-0.006189,0.005917,0.007926,0.004633
681,-0.14219,0.989766,-0.007454,0.017037,0.0019329999999999,0.0047079999999999
682,-0.143364,0.989585,-0.0088939999999999,0.017723,-0.001349,0.004469
683,-0.144289,0.989435,-0.010499,0.011706,-0.008493,0.013169
684,-0.144768,0.989347,-0.012009,0.002877,-0.0139289999999999,0.011994
685,-0.144797,0.989326,-0.013364,-0.006829,-0.011466,0.013288
686,-0.144617,0.989334,-0.01459,-0.006598,0.005569,0.021838
687,-0.144507,0.989333,-0.015765,-0.004968,0.004518,0.02701
688,-0.144415,0.989327,-0.016915,-0.001596,0.001746,0.030068
689,-0.144344,0.989319,-0.017975,-0.001393,0.00267,0.030213
690,-0.144294,0.989309,-0.01889,-0.000863,0.007517,0.035675
691,-0.144312,0.989292,-0.019649,0.000482,0.009456,0.030208
692,-0.144392,0.989264,-0.020494,0.005888,0.0001159999999999,0.027239
693,-0.14456,0.989221,-0.021357,0.001692,-0.004663,0.021403
694,-0.144637,0.989191,-0.022207,-0.001085,-0.013209,0.019659
695,-0.144572,0.989187,-0.022789,-0.005422,-0.013479,0.022026
696,-0.144564,0.989183,-0.023029,-0.0075349999999999,-0.00522,0.019992
697,-0.144806,0.989147,-0.023056,-0.00705,0.005177,0.029129
698,-0.14527,0.989082,-0.022934,-0.002862,0.002968,0.040527
699,-0.145692,0.989026,-0.022673,1.7e-05,0.000491,0.048552
700,-0.14599,0.988992,-0.022253,-0.010794,0.013206,0.042914
701,-0.146295,0.988957,-0.021775,-0.011542,0.02444,0.037965
702,-0.146665,0.988906,-0.021609,-0.010042,0.016373,0.0364709999999999
703,-0.147045,0.98884,-0.022056,-0.006245,0.0035909999999999,0.038734
704,-0.147411,0.988766,-0.022907,-0.016133,-0.002408,0.037418
705,-0.147731,0.988702,-0.023613,-0.017018,0.000708,0.028068
706,-0.148086,0.988636,-0.024159,-0.0224919999999999,0.0096239999999999,0.025272
707,-0.148568,0.988545,-0.024926,-0.017096,0.0080069999999999,0.024834
708,-0.149233,0.988416,-0.026038,-0.0153169999999999,-0.013471,0.038321
709,-0.15008,0.988263,-0.026958,-0.016515,-0.003247,0.030117
710,-0.151056,0.988106,-0.027245,-0.017553,0.014381,0.02494
711,-0.152104,0.987945,-0.027247,-0.0148569999999999,0.005432,0.0306649999999999
712,-0.153136,0.987777,-0.027571,-0.014772,-0.013229,0.041136
713,-0.154128,0.987614,-0.027863,-0.023347,-0.026539,0.037705
714,-0.155277,0.98745,-0.027287,-0.0253259999999999,-0.016579,0.026295
715,-0.156918,0.987239,-0.025458,-0.01511,0.007863,0.018653
716,-0.159144,0.986943,-0.023007,-0.004659,0.008922,0.018429
717,-0.161763,0.986566,-0.0208,-0.0035659999999999,-0.008447,0.024385
718,-0.164388,0.986169,-0.018941,-0.003734,-0.017648,0.028447
719,-0.166676,0.985822,-0.016908,-0.006816,-0.0085569999999999,0.0220199999999999
720,-0.168593,0.985535,-0.014435,-0.007554,0.0147699999999999,0.012695
721,-0.17032,0.985272,-0.011936,-0.002669,0.035419,0.013447
722,-0.171928,0.985011,-0.010218,-0.0004969999999999,0.031087,0.014125
723,-0.173464,0.98475,-0.009447,0.001635,0.010368,0.008837
724,-0.174943,0.984492,-0.009081,0.006486,0.0060479999999999,0.010607
725,-0.176493,0.984219,-0.0086819999999999,0.004709,0.007252,0.012466
726,-0.178226,0.983912,-0.0080299999999999,0.008289,0.002828,-0.000515
727,-0.18002,0.983592,-0.007184,0.016477,0.005529,-0.008288
728,-0.181569,0.983312,-0.006473,0.02422,-0.001058,-0.0101129999999999
729,-0.182764,0.983094,-0.005937,0.018701,-0.000733,-0.0068959999999999
730,-0.183716,0.982919,-0.005412,0.0173949999999999,-0.000574,-0.0056359999999999
731,-0.184413,0.982792,-0.00475,0.010051,0.001567,-0.002864
732,-0.1849309999999999,0.982698,-0.004076,0.012232,0.0113049999999999,-0.005659
733,-0.185329,0.982625,-0.003531,0.012645,0.015834,-0.0037939999999999
734,-0.18554,0.982586,-0.003149,0.015206,0.006611,-0.004771
735,-0.185657,0.982564,-0.0030399999999999,0.0133699999999999,0.005549,-0.0077329999999999
736,-0.185628,0.982569,-0.003356,0.004186,0.009588,-0.006181
737,-0.185544,0.982582,-0.003935,0.002241,0.013863,-0.004014
738,-0.185427,0.982602,-0.004513,0.005511,0.0092959999999999,-0.0008269999999999
739,-0.185275,0.982627,-0.0051329999999999,0.005145,0.001671,-0.003199
740,-0.185068,0.982662,-0.005928,0.002985,0.002018,-0.002266
741,-0.184794,0.982708,-0.006801,0.003718,0.005802,-0.003408
742,-0.184463,0.982765,-0.0076209999999999,0.0099329999999999,0.007912,-0.001153
743,-0.184132,0.982821,-0.0083209999999999,0.0141639999999999,0.00044,0.0045829999999999
744,-0.1837869999999999,0.982881,-0.008798,0.013377,-0.003084,-0.00025
745,-0.183391,0.982954,-0.008936,0.008784,0.001604,0.000589
746,-0.182875,0.98305,-0.008873,0.006209,0.0068489999999999,-0.004585
747,-0.182272,0.983162,-0.008845,0.004354,0.0086439999999999,-0.002309
748,-0.181611,0.983282,-0.00896,0.002748,0.006967,-0.000149
749,-0.180919,0.983408,-0.009209,0.003062,0.006644,0.001534
750,-0.180216,0.983534,-0.009545,-0.000494,0.007601,0.003152
751,-0.179554,0.983651,-0.009906,0.000629,0.007453,0.002124
752,-0.17895,0.983758,-0.010231,0.001276,0.005164,0.0029519999999999
753,-0.178386,0.983856,-0.01065,-0.00147,0.001419,-0.000397
754,-0.177832,0.983951,-0.01109,-0.000726,-0.000461,0.0027429999999999
755,-0.177279,0.984047,-0.011439,-0.00044,-0.002709,0.00619
756,-0.176689,0.984152,-0.011561,-0.0046159999999999,-0.002432,0.009105
757,-0.176084,0.984262,-0.01144,-0.0071129999999999,0.001929,0.008357
758,-0.175478,0.984374,-0.011143,-0.001447,0.00612,0.007404
759,-0.174919,0.984477,-0.010786,-0.000145,0.007115,0.0067569999999999
760,-0.1743839999999999,0.984575,-0.010505,-0.00094,-0.002687,0.005958
761,-0.173781,0.984684,-0.010267,-0.005678,-0.001393,0.004575
762,-0.173104,0.984807,-0.009947,-0.00428,0.006739,0.004484
763,-0.172391,0.984937,-0.009481,-0.004717,0.007189,0.00617
764,-0.171735,0.985056,-0.008999,-0.00664,0.006933,0.008069
765,-0.1711089999999999,0.985167,-0.008729,-0.008685,0.004197,0.010942
766,-0.170431,0.985286,-0.00863,-0.011103,0.00063,0.007867
767,-0.169725,0.985408,-0.008487,-0.010191,0.006489,0.003085
768,-0.1691119999999999,0.985516,-0.008202,-0.009553,0.0169099999999999,0.00422
769,-0.1686369999999999,0.985597,-0.008097,-0.0014529999999999,0.011381,0.006312
770,-0.16816,0.985676,-0.008361,-0.00251,-0.002293,0.010772
771,-0.167595,0.985768,-0.0088,-0.0038979999999999,-0.005178,0.01324
772,-0.166996,0.985869,-0.008928,-0.009243,-0.006178,0.014009
773,-0.166438,0.985966,-0.0085379999999999,-0.0129439999999999,-0.0004769999999999,0.012033
774,-0.165949,0.986053,-0.007984,-0.009222,0.0128639999999999,0.00777
775,-0.165476,0.986134,-0.007682,-0.0001889999999999,0.012111,0.002707
776,-0.164975,0.986217,-0.007756,0.003964,0.008884,0.006993
777,-0.164403,0.98631,-0.008065,0.004125,0.00487,0.007501
778,-0.163866,0.986398,-0.008196,0.0072349999999999,0.000602,0.011629
779,-0.163388,0.986478,-0.008102,0.002896,-0.0004849999999999,0.0139
780,-0.162974,0.986547,-0.007956,-0.003407,0.0097299999999999,0.009314
781,-0.162526,0.986621,-0.007973,-0.003093,0.0074129999999999,0.007393
782,-0.161912,0.98672,-0.0081879999999999,-0.004043,0.021001,-0.000662
783,-0.161168,0.986838,-0.008579,0.010839,0.025262,0.0005679999999999
784,-0.160325,0.986966,-0.009545,0.0131849999999999,0.022753,-0.0021739999999999
785,-0.159381,0.9871,-0.011389,0.021578,0.009238,0.002463
786,-0.158189,0.987259,-0.013952,0.021409,0.00238,0.002752
787,-0.156776,0.987442,-0.016661,0.015358,0.005783,0.002501
788,-0.155288,0.987632,-0.019171,0.021682,0.004098,0.001852
789,-0.15378,0.987822,-0.021393,0.019197,-0.001235,0.002381
790,-0.1522069999999999,0.988019,-0.023451,0.0189669999999999,-0.005857,0.006392
791,-0.150478,0.988239,-0.025253,0.013912,-0.017307,0.001312
792,-0.148654,0.988485,-0.0264189999999999,0.012912,-0.013052,0.002829
793,-0.14685,0.988745,-0.026748,0.012222,-0.008185,0.00685
794,-0.145007,0.989027,-0.026374,0.009631,-0.007734,0.031699
795,-0.143131,0.989321,-0.025581,-0.004254,-0.00458,0.038597
796,-0.141294,0.989608,-0.024684,-0.031421,0.021638,0.0521809999999999
797,-0.1398339999999999,0.989836,-0.023835,-0.044645,0.041399,0.055161
798,-0.138822,0.98999,-0.023346,-0.0411399999999999,0.036973,0.039947
799,-0.138152,0.990063,-0.024188,-0.024217,0.024158,0.023059
800,-0.137512,0.990084,-0.026841,-0.004104,0.0093969999999999,0.016846
801,-0.136826,0.990082,-0.030222,0.000489,-0.005676,0.020136
802,-0.1363079999999999,0.99006,-0.03315,0.003022,-0.020806,0.021752
803,-0.136038,0.990036,-0.0349149999999999,0.000891,-0.025742,0.025836
804,-0.135979,0.990032,-0.035265,0.000512,-0.017986,0.028383
805,-0.135974,0.990056,-0.03461,0.004946,-0.014836,0.0309029999999999
806,-0.1358,0.990121,-0.0334029999999999,0.009747,-0.012246,0.038469
807,-0.135343,0.990233,-0.031892,-0.000323,-0.009368,0.050447
808,-0.134777,0.990362,-0.030235,-0.0149419999999999,0.006327,0.05471
809,-0.134305,0.990481,-0.028394,-0.023532,0.019941,0.04382
810,-0.133847,0.990589,-0.026711,-0.030811,0.024364,0.04046
811,-0.133456,0.99067,-0.025635,-0.04086,0.023124,0.03717
812,-0.13315,0.990717,-0.025415,-0.033018,0.015585,0.034539
813,-0.132817,0.990751,-0.0258189999999999,-0.022502,0.008303,0.032182
814,-0.132388,0.990794,-0.026369,-0.00517,-0.001719,0.040056
815,-0.131896,0.990854,-0.026599,0.000609,-0.00123,0.036044
816,-0.131415,0.990921,-0.026473,0.006431,-0.0017239999999999,0.033171
817,-0.131039,0.990976,-0.0262699999999999,0.005047,-0.008371,0.0309699999999999
818,-0.130791,0.991021,-0.025809,0.000801,-0.010918,0.031898
819,-0.130624,0.991069,-0.024801,-0.002814,-0.002482,0.0300339999999999
820,-0.130482,0.991123,-0.023321,-0.002102,0.005261,0.022772
821,-0.1303109999999999,0.991184,-0.021615,-0.009628,0.008114,0.015496
822,-0.130088,0.991247,-0.0200319999999999,-0.010431,0.012675,0.011243
823,-0.12986,0.991299,-0.018859,-0.013496,0.006519,0.008513
824,-0.129589,0.991347,-0.018136,-0.010288,0.000413,0.006067
825,-0.1292819999999999,0.991394,-0.017771,-0.011648,0.004242,0.0021149999999999
826,-0.128902,0.991446,-0.017679,-0.010411,0.011179,0.00532
827,-0.128467,0.991502,-0.017687,-0.008832,0.003783,0.007189
828,-0.128052,0.991555,-0.017734,-0.00975,0.003043,0.010227
829,-0.127656,0.991605,-0.017773,-0.0060409999999999,0.005785,0.017605
830,-0.127255,0.991658,-0.017724,0.005033,0.0028179999999999,0.018334
831,-0.126756,0.991724,-0.017602,0.005448,0.002447,0.016992
832,-0.126279,0.991786,-0.017528,0.000959,0.005131,0.0139569999999999
833,-0.125916,0.991832,-0.0175449999999999,0.001358,0.004414,0.016721
834,-0.125711,0.99186,-0.017458,0.001275,0.003929,0.012896
835,-0.125568,0.991878,-0.017429,-0.000866,0.009236,0.006809
836,-0.12542,0.991892,-0.017697,-0.004646,0.010931,0.003857
837,-0.125212,0.99191,-0.018205,-0.002962,0.007572,0.001497
838,-0.12497,0.99193,-0.018759,-0.003616,0.005797,0.003195
839,-0.1247549999999999,0.991946,-0.019346,0.000121,0.004209,0.0096569999999999
840,-0.124615,0.99195,-0.020033,0.006222,0.004693,0.00984
841,-0.124456,0.991953,-0.020838,0.009283,0.006155,0.011058
842,-0.124306,0.991954,-0.02167,0.011742,0.005757,0.011553
843,-0.124117,0.991958,-0.0225889999999999,0.010378,0.006852,0.010214
844,-0.123859,0.991965,-0.02367,0.007664,0.004999,0.012241
845,-0.12355,0.991975,-0.024841,0.004089,0.006118,0.013138
846,-0.123254,0.991983,-0.025988,0.005883,0.0040799999999999,0.014346
847,-0.122983,0.991989,-0.0270329999999999,0.003446,0.001755,0.014536
848,-0.12277,0.991986,-0.028107,0.001173,0.006137,0.014633
849,-0.122664,0.991963,-0.029352,0.001784,0.004482,0.020197
850,-0.1226859999999999,0.991918,-0.030754,0.00266,0.001307,0.01931
851,-0.1227819999999999,0.991864,-0.032088,0.00416,0.003833,0.014648
852,-0.122917,0.991806,-0.033358,-0.000328,0.004578,0.013018
853,-0.1230079999999999,0.991753,-0.034591,0.000251,0.00808,0.012725
854,-0.1229089999999999,0.991723,-0.035758,-0.001603,0.002189,0.015159
855,-0.122738,0.991707,-0.0367899999999999,0.001339,0.0021899999999999,0.011918
856,-0.122666,0.991683,-0.037661,0.0010539999999999,0.006623,0.011508
857,-0.122781,0.991636,-0.038538,0.001611,0.010897,0.00355
858,-0.123022,0.991552,-0.0399029999999999,-8.6e-05,0.013499,0.003449
859,-0.123305,0.99144,-0.041773,-0.0025039999999999,0.014496,0.014475
860,-0.123516,0.991317,-0.044018,-0.000675,0.007798,0.008969
861,-0.123698,0.991182,-0.0464689999999999,-0.0026449999999999,0.0036,0.008734
862,-0.1239519999999999,0.991031,-0.04894,0.000889,0.00552,0.015386
863,-0.124239,0.990888,-0.05106,0.003038,-0.0013859999999999,0.011509
864,-0.1245069999999999,0.990757,-0.052919,0.001277,-0.003177,0.008028
865,-0.1248079999999999,0.990623,-0.054678,0.001135,0.003991,0.004629
866,-0.125053,0.990501,-0.056294,0.01017,0.000847,0.00095
867,-0.125039,0.990426,-0.0576429999999999,0.014962,-0.00103,0.000193
868,-0.124825,0.990388,-0.058735,0.010719,-0.001191,0.009251
869,-0.124696,0.990369,-0.059325,0.003343,0.00159,0.018737
870,-0.124806,0.990335,-0.0596549999999999,0.008427,0.000327,0.016701
871,-0.124848,0.990318,-0.059844,0.002503,0.003166,0.010115
872,-0.1247839999999999,0.990327,-0.0598309999999999,-0.00664,0.005019,0.010606
873,-0.124721,0.990342,-0.059721,-0.008076,0.004974,0.005782
874,-0.124654,0.990359,-0.0595809999999999,-0.003947,0.006589,0.010189
875,-0.124477,0.990375,-0.059694,-0.000234,0.003461,0.015092
876,-0.124123,0.990402,-0.0599809999999999,0.0014269999999999,0.002991,0.0169969999999999
877,-0.123754,0.990438,-0.060148,0.00063,0.003581,0.013105
878,-0.123412,0.99048,-0.0601649999999999,-0.0005809999999999,0.003691,0.012237
879,-0.123047,0.990532,-0.060047,-0.000214,0.0013039999999999,0.020298
880,-0.122617,0.990599,-0.059814,-0.001254,-0.000243,0.028854
881,-0.122188,0.990672,-0.059498,-0.000691,0.002676,0.02396
882,-0.121788,0.990752,-0.0589679999999999,-0.007377,0.0028239999999999,0.021859
883,-0.1215,0.990836,-0.058144,-0.011983,0.002572,0.025994
884,-0.1212589999999999,0.990925,-0.057127,-0.009432,-0.002155,0.0259529999999999
885,-0.121041,0.991017,-0.055976,-0.007361,-0.005589,0.03147
886,-0.120905,0.991111,-0.054573,-0.006566,-0.006004,0.034371
887,-0.120861,0.991206,-0.052921,-0.010502,0.001455,0.032672
888,-0.120946,0.991283,-0.051246,-0.0115909999999999,0.011097,0.0305089999999999
889,-0.12102,0.991345,-0.049856,-0.0070319999999999,0.0124549999999999,0.033087
890,-0.120895,0.991422,-0.048611,-0.009323,0.003513,0.037075
891,-0.120667,0.991508,-0.047399,-0.013122,0.002938,0.0324
892,-0.120476,0.991583,-0.0463079999999999,-0.016502,0.007792,0.034329
893,-0.120416,0.991632,-0.045406,-0.015097,0.007285,0.03184
894,-0.1203839999999999,0.991668,-0.044699,-0.012795,0.006043,0.033072
895,-0.120392,0.991694,-0.044088,-0.00917,0.006719,0.031363
896,-0.120459,0.991713,-0.04347,-0.008036,-0.002074,0.0344519999999999
897,-0.120591,0.991731,-0.042707,-0.010513,0.002837,0.0282259999999999
898,-0.1208359999999999,0.991734,-0.041928,-0.005995,0.001018,0.029293
899,-0.121249,0.991722,-0.041002,-0.000913,-0.007882,0.040392
900,-0.1217829999999999,0.991716,-0.039545,-0.010587,-0.0132,0.045893
901,-0.122423,0.991714,-0.037558,-0.0131659999999999,-0.00154,0.040076
902,-0.123142,0.991698,-0.035559,-0.009701,0.009126,0.038077
903,-0.123911,0.99166,-0.033887,-0.005697,0.015847,0.041517
904,-0.1247,0.991602,-0.032657,-0.00262,0.015493,0.0454279999999999
905,-0.125338,0.991543,-0.031989,-0.001768,0.017994,0.044547
906,-0.125807,0.991487,-0.031896,-0.003542,0.021163,0.043295
907,-0.126114,0.991437,-0.032233,0.000901,0.013293,0.0412509999999999
908,-0.126335,0.9914,-0.032516,-0.004036,0.012308,0.0321339999999999
909,-0.126541,0.991355,-0.033088,-0.005127,0.0075159999999999,0.032035
910,-0.1268099999999999,0.99129,-0.033985,-0.006246,0.001157,0.034168
911,-0.127113,0.991224,-0.034783,-0.005745,-0.001966,0.039635
912,-0.127364,0.991173,-0.035316,-0.009553,-0.004799,0.041572
913,-0.127625,0.991129,-0.0356029999999999,-0.008987,-0.001673,0.039677
914,-0.127935,0.991081,-0.035841,-0.007425,0.004128,0.031797
915,-0.128385,0.991009,-0.0362069999999999,-0.003268,0.012104,0.031401
916,-0.128903,0.990919,-0.036828,0.00288,0.009463,0.030389
917,-0.129328,0.990841,-0.037423,-0.00295,0.0005679999999999,0.042855
918,-0.129574,0.990787,-0.037999,-0.002705,0.0006219999999999,0.043431
919,-0.129751,0.990745,-0.038508,-0.010173,0.006554,0.03036
920,-0.129893,0.9907,-0.0391629999999999,-0.008153,0.003684,0.016886
921,-0.130158,0.990631,-0.040029,-0.008666,0.00441,0.020604
922,-0.130511,0.990555,-0.040763,-0.004835,0.004959,0.018882
923,-0.1308109999999999,0.990486,-0.041477,-0.000461,0.003121,0.015461
924,-0.13095,0.990434,-0.042251,-0.008256,0.007963,0.014358
925,-0.131025,0.990396,-0.042904,-0.007845,-0.000147,0.0092129999999999
926,-0.131167,0.990362,-0.043264,-0.004835,-0.002783,0.0068099999999999
927,-0.131427,0.990313,-0.043595,-0.004331,-0.0005059999999999,0.005448
928,-0.131742,0.990265,-0.043739,-0.002459,-0.000778,0.011146
929,-0.132123,0.990225,-0.0435,0.003659,-0.00231,0.007977
930,-0.132525,0.990201,-0.042818,0.002291,-1.2e-05,0.005297
931,-0.13299,0.990178,-0.041894,0.0057929999999999,0.003169,0.006234
932,-0.133481,0.990165,-0.040629,0.004575,0.003213,0.004649
933,-0.1340859999999999,0.990139,-0.0392519999999999,0.011176,3.4e-05,0.002768
934,-0.134756,0.990105,-0.03778,0.016333,0.005424,0.004729
935,-0.135434,0.990072,-0.036191,0.017407,0.003535,0.0047729999999999
936,-0.136195,0.990028,-0.034502,0.023966,0.0012289999999999,0.003527
937,-0.136927,0.989981,-0.032919,0.02096,0.010309,0.003333
938,-0.137511,0.989947,-0.031463,0.018126,0.009778,0.001953
939,-0.137766,0.989945,-0.030414,0.011301,0.018234,-0.006314
940,-0.1378059999999999,0.989945,-0.030218,0.010823,0.032088,-0.0119569999999999
941,-0.137712,0.989932,-0.031082,0.002535,0.0155919999999999,0.011932
942,-0.137503,0.989941,-0.0317319999999999,-0.004297,0.000904,0.029032
943,-0.137442,0.989994,-0.0302829999999999,0.002111,-0.002903,0.01275
944,-0.137527,0.990049,-0.028019,0.003662,0.002597,0.0001409999999999
945,-0.137576,0.990091,-0.02623,-0.001248,0.004966,0.003693
946,-0.137447,0.990138,-0.025109,0.002651,0.012578,-0.007575
947,-0.137101,0.99018,-0.025323,0.0067599999999999,0.008263,-0.003577
948,-0.13672,0.99022,-0.025811,0.008027,-0.000245,0.0070269999999999
949,-0.136475,0.990256,-0.025745,0.0079189999999999,-0.0032869999999999,0.008732
950,-0.136289,0.990287,-0.025536,0.0005009999999999,0.0037619999999999,0.002236
951,-0.135978,0.990324,-0.025748,-0.003472,0.006883,-0.001291
952,-0.1355309999999999,0.990372,-0.0262649999999999,-0.0062229999999999,0.003616,0.001866
953,-0.1351089999999999,0.990422,-0.0265439999999999,0.000389,0.000697,0.007745
954,-0.134716,0.990468,-0.0268269999999999,0.001064,0.007884,0.005404
955,-0.1343329999999999,0.990501,-0.027512,-0.002111,0.010704,0.001602
956,-0.134048,0.990512,-0.028504,-0.000168,0.008939,0.004578
957,-0.1337809999999999,0.990515,-0.029631,0.001762,0.0016879999999999,0.008818
958,-0.133375,0.990544,-0.030474,0.001509,-0.0026899999999999,0.009096
959,-0.132934,0.990596,-0.030723,-0.000504,-0.0042369999999999,0.016106
960,-0.1325309999999999,0.990652,-0.03067,-0.000206,-0.0058189999999999,0.015304
961,-0.132115,0.990714,-0.030447,-0.002559,-0.006141,0.013159
962,-0.131724,0.990786,-0.029793,-0.003942,-0.0046409999999999,0.021629
963,-0.131288,0.990869,-0.028941,-0.004378,-0.004724,0.020778
964,-0.130749,0.990963,-0.028151,-0.002994,-0.001675,0.0260149999999999
965,-0.130179,0.991065,-0.02719,-0.0065239999999999,0.00335,0.0360399999999999
966,-0.1297039999999999,0.991157,-0.026086,-0.007,0.003258,0.034936
967,-0.1292849999999999,0.991232,-0.025309,-0.013736,0.015008,0.034205
968,-0.128822,0.991299,-0.025043,-0.02575,0.014743,0.032276
969,-0.128468,0.991351,-0.02481,-0.024577,0.018247,0.0366509999999999
970,-0.128216,0.991386,-0.024681,-0.020267,0.019524,0.03318
971,-0.1278,0.991428,-0.025154,-0.004631,0.013364,0.022834
972,-0.127131,0.991477,-0.026536,0.000331,0.005745,0.025941
973,-0.1262059999999999,0.991538,-0.028618,0.005417,0.0020989999999999,0.0270769999999999
974,-0.125103,0.991609,-0.030907,-0.001728,-0.001176,0.03402
975,-0.1240319999999999,0.991679,-0.032889,-0.002799,-0.001247,0.036002
976,-0.123113,0.991756,-0.034023,-0.00674,-0.00735,0.030711
977,-0.122329,0.991843,-0.034297,7.5e-05,-0.005256,0.013713
978,-0.1217369999999999,0.991917,-0.034275,-0.001844,0.002804,0.0129439999999999
979,-0.121341,0.991965,-0.034259,-0.000927,0.012338,0.016528
980,-0.121195,0.991991,-0.034041,0.00471,0.007262,0.019545
981,-0.121276,0.991987,-0.0338269999999999,0.010177,-0.004667,0.021071
982,-0.121421,0.991984,-0.03341,0.013358,-0.011729,0.02546
983,-0.121719,0.991979,-0.03245,0.012665,-0.006628,0.0192199999999999
984,-0.122253,0.991961,-0.0309899999999999,0.010055,0.008345,0.009811
985,-0.122894,0.991929,-0.0294089999999999,0.009048,0.014769,0.013631
986,-0.123451,0.991901,-0.028022,0.006309,0.012006,0.023933
987,-0.123803,0.991887,-0.02693,0.003686,0.014537,0.0278449999999999
988,-0.123905,0.991894,-0.026179,-0.000744,0.01984,0.030177
989,-0.123792,0.991915,-0.025943,-0.004702,0.029112,0.025715
990,-0.123541,0.991933,-0.026431,0.000494,0.027308,0.02434
991,-0.123175,0.991942,-0.027783,0.003424,0.011873,0.036023
992,-0.1225609999999999,0.991955,-0.029934,-0.003339,0.006351,0.04205
993,-0.121878,0.991972,-0.032068,-0.0049229999999999,-0.00157,0.046824
994,-0.121291,0.991984,-0.033867,-0.0098739999999999,0.000646,0.044792
995,-0.120833,0.991993,-0.035209,-0.006807,0.001827,0.045707
996,-0.1205329999999999,0.99199,-0.036326,-0.0042689999999999,-0.003129,0.060511
997,-0.120238,0.99199,-0.037295,-0.005082,-0.0143439999999999,0.071306
998,-0.119942,0.992003,-0.037913,-0.007042,-0.011564,0.07696
999,-0.119767,0.992026,-0.037856,-0.005477,-0.003363,0.066756
1000,-0.1197579999999999,0.992052,-0.037203,-0.0074849999999999,-0.0002,0.054064
1001,-0.119844,0.992072,-0.036372,-0.0040729999999999,0.001032,0.0547289999999999
1002,-0.120051,0.992086,-0.035262,-0.002477,-0.00762,0.047866
1003,-0.120367,0.992101,-0.033732,-0.00207,-0.0109909999999999,0.042323
1004,-0.120776,0.992113,-0.031861,-0.003782,-0.004472,0.036271
1005,-0.121205,0.992129,-0.029647,-0.005504,0.001814,0.033736
1006,-0.121592,0.992146,-0.027405,-0.0069939999999999,0.009289,0.030701
1007,-0.121956,0.992152,-0.02547,-0.00692,0.0140889999999999,0.025623
1008,-0.122288,0.992148,-0.023993,-0.010463,0.0197229999999999,0.0163169999999999
1009,-0.1225089999999999,0.992147,-0.022894,-0.00446,0.0136979999999999,0.004248
1010,-0.122579,0.992155,-0.022124,-0.002985,0.009599,0.000533
1011,-0.122624,0.992161,-0.021618,-0.002955,0.00671,-0.000782
1012,-0.122748,0.992153,-0.021217,-0.002435,0.008106,-0.003777
1013,-0.122904,0.992139,-0.020967,-0.003088,0.009203,-0.004301
1014,-0.122927,0.992135,-0.0210449999999999,-0.004056,0.00872,-0.003125
1015,-0.122804,0.992138,-0.021565,-0.006331,0.0070379999999999,0.00208
1016,-0.122549,0.992149,-0.022463,-0.005487,0.002754,0.003085
1017,-0.12222,0.992161,-0.023704,-0.003253,0.003353,0.008888
1018,-0.121804,0.992177,-0.025098,-0.005012,0.009455,0.017088
1019,-0.1213559999999999,0.992193,-0.0265839999999999,-0.000806,0.011606,0.023837
1020,-0.120971,0.992199,-0.028075,-0.000916,0.01015,0.026076
1021,-0.1207029999999999,0.992191,-0.029505,0.001135,0.004483,0.032694
1022,-0.120503,0.992172,-0.030916,0.004979,-0.003098,0.02025
1023,-0.120347,0.992148,-0.032288,0.005845,-0.011588,0.013108
1024,-0.120398,0.99211,-0.033253,0.005179,-0.0038439999999999,0.012287
1025,-0.120698,0.992064,-0.033553,0.008393,-0.000746,0.00125
1026,-0.12112,0.99201,-0.033621,0.005642,0.0056549999999999,0.001166
1027,-0.121549,0.991953,-0.033747,0.005445,0.003087,0.003657
1028,-0.121859,0.991909,-0.033946,0.005603,-0.0006519999999999,0.001979
1029,-0.121983,0.991884,-0.03423,-0.002788,0.003035,0.00855
1030,-0.121996,0.991873,-0.034519,-0.003676,0.00535,0.019733
1031,-0.121866,0.991881,-0.034742,-0.0036369999999999,0.013505,0.018903
1032,-0.121639,0.991896,-0.035085,-0.002323,0.0083319999999999,0.0242509999999999
1033,-0.121348,0.991914,-0.035595,-0.002325,0.006453,0.026333
1034,-0.121023,0.991939,-0.036006,-0.014444,-0.005931,0.037593
1035,-0.12069,0.991978,-0.036059,-0.0171729999999999,-0.00594,0.0403769999999999
1036,-0.120421,0.992027,-0.035617,-0.025331,0.0060659999999999,0.039401
1037,-0.1202589999999999,0.992068,-0.035006,-0.0257209999999999,0.0159729999999999,0.0369899999999999
1038,-0.1201869999999999,0.992087,-0.034718,-0.023063,0.027963,0.033329
1039,-0.120171,0.992074,-0.035126,-0.018593,0.0281589999999999,0.0309149999999999
1040,-0.12017,0.992021,-0.036598,-0.013055,0.022353,0.038292
1041,-0.120125,0.991934,-0.03903,-0.011589,0.021188,0.046964
1042,-0.120076,0.991825,-0.04185,-0.0077459999999999,0.007428,0.055552
1043,-0.119991,0.991709,-0.044742,-0.003071,-0.003015,0.052112
1044,-0.119951,0.991594,-0.047313,-0.002424,-0.00699,0.0462
1045,-0.120174,0.99146,-0.049507,7.2e-05,-0.0055439999999999,0.038948
1046,-0.12084,0.99129,-0.051274,-0.001108,-0.007067,0.032445
1047,-0.121848,0.991105,-0.0524549999999999,-0.0024809999999999,-0.009263,0.019603
1048,-0.123053,0.990932,-0.052897,-0.0018859999999999,-0.008098,0.012919
1049,-0.124289,0.990778,-0.0528929999999999,-0.0039759999999999,-0.010278,0.016928
1050,-0.125398,0.990662,-0.052443,-0.003463,-0.008499,0.011229
1051,-0.126356,0.990575,-0.0517629999999999,0.000258,0.000865,0.01209
1052,-0.127089,0.99052,-0.051017,0.005949,0.0079849999999999,0.019187
1053,-0.127504,0.990496,-0.050432,0.008653,0.0106489999999999,0.023988
1054,-0.12766,0.990493,-0.050074,0.00591,0.019272,0.026088
1055,-0.127722,0.990494,-0.0499029999999999,-0.002298,0.0229949999999999,0.027641
1056,-0.127762,0.990492,-0.04983,-0.008499,0.016482,0.0310459999999999
1057,-0.1277609999999999,0.990478,-0.050093,-0.014619,0.006714,0.034834
1058,-0.12774,0.990449,-0.050704,-0.016104,0.004302,0.036544
1059,-0.127695,0.990414,-0.051502,-0.012762,0.006885,0.036289
1060,-0.127651,0.990367,-0.052486,-0.005711,0.011708,0.02914
1061,-0.127584,0.990306,-0.053771,-0.003047,0.004185,0.03775
1062,-0.127547,0.990242,-0.055037,-0.002397,0.000329,0.0425399999999999
1063,-0.127626,0.990187,-0.0558279999999999,0.006959,-0.009978,0.041683
1064,-0.127825,0.990147,-0.056093,0.008929,-0.009007,0.029574
1065,-0.128289,0.990107,-0.055738,0.00779,-0.007273,0.020932
1066,-0.129131,0.990058,-0.054648,0.010845,-0.0047979999999999,0.018897
1067,-0.13018,0.990011,-0.052969,0.005989,-0.008642,0.014563
1068,-0.131209,0.989975,-0.051066,0.005232,-0.0019079999999999,0.0151919999999999
1069,-0.132116,0.989953,-0.049116,0.002752,0.002876,0.01341
1070,-0.132865,0.989934,-0.047441,-0.004571,0.019282,0.0193039999999999
1071,-0.13352,0.989907,-0.046144,-0.003184,0.016623,0.020677
1072,-0.133993,0.989889,-0.045162,-0.0034729999999999,0.015818,0.024105
1073,-0.134225,0.989883,-0.044591,-0.009055,0.015854,0.027562
1074,-0.1342269999999999,0.989886,-0.044516,-0.010076,0.0180789999999999,0.023978
1075,-0.134151,0.989879,-0.044916,-0.012578,0.01888,0.020929
1076,-0.134081,0.989852,-0.045701,-0.0092909999999999,0.011521,0.018677
1077,-0.133993,0.989812,-0.0468149999999999,-0.012293,0.011439,0.019105
1078,-0.133914,0.98976,-0.048126,-0.010526,0.009553,0.0174409999999999
1079,-0.13385,0.989699,-0.049538,-0.0061189999999999,0.0028239999999999,0.0163509999999999
1080,-0.133699,0.989648,-0.0509579999999999,-0.00392,0.005454,0.017556
1081,-0.133438,0.98961,-0.05237,0.00206,0.013519,0.0296959999999999
1082,-0.132914,0.989594,-0.053972,0.006801,0.005309,0.035829
1083,-0.13205,0.989615,-0.055685,0.007279,0.005182,0.040731
1084,-0.1308619999999999,0.989677,-0.057357,0.004123,0.00686,0.050506
1085,-0.129631,0.989723,-0.0593169999999999,0.005455,-0.001854,0.054327
1086,-0.128433,0.989761,-0.061263,0.005111,-0.003982,0.056334
1087,-0.127352,0.989817,-0.062601,-0.004011,-0.003092,0.046671
1088,-0.126506,0.989876,-0.063373,-0.010655,-0.002419,0.04195
1089,-0.125866,0.989935,-0.063732,-0.016071,-0.004949,0.031887
1090,-0.1254829999999999,0.989986,-0.063686,-0.019537,-0.003414,0.024944
1091,-0.1254,0.99001,-0.063488,-0.02197,-0.00385,0.022991
1092,-0.12558,0.990009,-0.063148,-0.024628,-0.0039549999999999,0.023292
1093,-0.125958,0.989999,-0.062545,-0.021778,-0.003396,0.023742
1094,-0.126436,0.989975,-0.061943,-0.0182319999999999,0.005768,0.021843
1095,-0.1269549999999999,0.989932,-0.061567,-0.0155319999999999,0.009183,0.016935
1096,-0.127448,0.989872,-0.061502,-0.01249,0.021434,0.019952
1097,-0.127884,0.989786,-0.061992,-0.003967,0.0194,0.018443
1098,-0.128304,0.989668,-0.062989,0.001137,0.016329,0.018296
1099,-0.128649,0.989538,-0.064317,0.004809,0.013392,0.0237129999999999
1100,-0.1288369999999999,0.989401,-0.0660289999999999,0.000678,0.010935,0.028294
1101,-0.128804,0.989279,-0.067898,-0.002727,0.007578,0.037091
1102,-0.128591,0.98917,-0.069862,-0.0036409999999999,0.0045899999999999,0.037834
1103,-0.128271,0.989059,-0.071985,-0.0037479999999999,0.004151,0.045359
1104,-0.127929,0.988936,-0.07425,-0.004883,0.001436,0.050767
1105,-0.127601,0.988823,-0.076289,-0.002098,-0.002968,0.051326
1106,-0.127335,0.988737,-0.077839,-0.0016469999999999,-0.005293,0.044545
1107,-0.1272339999999999,0.988675,-0.078787,-0.001764,-0.0055509999999999,0.033744
1108,-0.127371,0.988633,-0.07909,0.003943,-0.008134,0.023472
1109,-0.127859,0.988608,-0.078619,0.006948,-0.009345,0.017004
1110,-0.128649,0.988591,-0.077538,0.010897,-0.000935,0.010506
1111,-0.129624,0.98857,-0.076161,0.006837,-0.000472,0.007954
1112,-0.130596,0.98856,-0.074617,0.004543,-0.004735,0.008974
1113,-0.131563,0.988554,-0.072974,0.003038,-0.002287,0.008826
1114,-0.1325569999999999,0.988535,-0.071416,0.001438,0.002539,0.007818
1115,-0.13352,0.9885,-0.070095,0.000722,0.010509,0.020656
1116,-0.1343599999999999,0.988463,-0.068991,0.001563,0.010545,0.019552
1117,-0.13494,0.98844,-0.068189,0.004264,0.017908,0.0258149999999999
1118,-0.135263,0.988432,-0.06766,0.008157,0.020082,0.029437
1119,-0.1353099999999999,0.988453,-0.0672649999999999,0.007304,0.013012,0.028522
1120,-0.135127,0.988513,-0.066748,0.008342,0.00308,0.028525
1121,-0.134798,0.988617,-0.065871,0.014375,-0.004379,0.029921
1122,-0.134451,0.988742,-0.064683,0.008505,-0.002445,0.032487
1123,-0.134225,0.988875,-0.063101,0.001336,-0.003096,0.02851
1124,-0.134128,0.988994,-0.06142,-0.004727,0.006245,0.025531
1125,-0.134126,0.989088,-0.0599009999999999,-0.0123439999999999,0.012515,0.018184
1126,-0.134229,0.989143,-0.058743,-0.0134,0.017647,0.0211449999999999
1127,-0.134462,0.989159,-0.05794,-0.005828,0.018806,0.013949
1128,-0.134686,0.989145,-0.057661,-0.002566,0.019126,0.014371
1129,-0.134846,0.989115,-0.0578,-0.001308,0.016332,0.01973
1130,-0.134997,0.989069,-0.058233,0.002428,0.009573,0.0284019999999999
1131,-0.134983,0.989031,-0.0589049999999999,0.001071,0.0065739999999999,0.032004
1132,-0.134763,0.989022,-0.05957,-0.003176,0.00695,0.031097
1133,-0.134392,0.989029,-0.0602809999999999,-0.008324,0.01564,0.0351649999999999
1134,-0.133868,0.989032,-0.061402,-0.010419,0.016172,0.042191
1135,-0.1332279999999999,0.989032,-0.0627799999999999,-0.01463,-0.011172,0.043463
1136,-0.1327289999999999,0.989025,-0.063935,-0.0100629999999999,-0.014172,0.039109
1137,-0.132436,0.989026,-0.064528,-0.004618,-0.0097019999999999,0.028136
1138,-0.132418,0.989028,-0.064535,-0.0018899999999999,0.0028539999999999,0.018011
1139,-0.132698,0.989009,-0.06425,0.002784,-0.003917,0.017924
1140,-0.1331099999999999,0.988994,-0.0636299999999999,0.006706,0.0009199999999999,0.020661
1141,-0.1334779999999999,0.988996,-0.062829,8.6e-05,0.0069459999999999,0.027001
1142,-0.133732,0.989004,-0.062159,-0.008862,0.013636,0.026148
1143,-0.1339,0.988997,-0.061901,-0.012798,0.0237129999999999,0.029278
1144,-0.133873,0.988981,-0.062214,-0.014122,0.0191509999999999,0.03429
1145,-0.133543,0.988975,-0.063026,-0.014284,0.014291,0.043739
1146,-0.132973,0.988983,-0.064101,-0.0104739999999999,0.002045,0.046096
1147,-0.132352,0.989004,-0.065055,-0.009753,-0.0022789999999999,0.038352
1148,-0.131856,0.989027,-0.065712,-0.005534,0.005556,0.032066
1149,-0.131572,0.989037,-0.066123,-0.005711,-0.000543,0.023124
1150,-0.131409,0.989048,-0.066283,-0.002074,0.004711,0.019698
1151,-0.13126,0.989056,-0.066461,0.002766,0.003452,0.0250479999999999
1152,-0.131009,0.98907,-0.06676,-0.003894,-0.002223,0.036487
1153,-0.130683,0.989095,-0.067024,-0.004738,-0.002095,0.0365819999999999
1154,-0.130271,0.989139,-0.067182,-0.005563,0.0068629999999999,0.035856
1155,-0.1298089999999999,0.989192,-0.067299,-0.005994,0.00916,0.037071
1156,-0.12937,0.989238,-0.067459,0.002935,0.0068709999999999,0.030991
1157,-0.128914,0.989281,-0.067713,0.002846,0.002815,0.0357
1158,-0.128496,0.98933,-0.0677919999999999,0.002443,0.000767,0.035398
1159,-0.128194,0.989386,-0.067538,-0.0013369999999999,0.00123,0.035693
1160,-0.127989,0.989445,-0.067064,-0.004503,0.003002,0.031465
1161,-0.127828,0.989486,-0.066762,-0.003947,0.003678,0.030599
1162,-0.127551,0.989528,-0.0666549999999999,-0.006284,0.007069,0.032628
1163,-0.127119,0.989577,-0.066755,-0.003527,0.011796,0.034483
1164,-0.1266509999999999,0.989616,-0.067057,-0.002758,0.010674,0.033763
1165,-0.12622,0.989637,-0.067553,0.007537,0.011614,0.038974
1166,-0.125804,0.989646,-0.0682,0.008907,0.005792,0.042565
1167,-0.125384,0.989661,-0.068756,0.009219,0.007303,0.0406339999999999
1168,-0.12503,0.989669,-0.069273,0.004043,0.007004,0.038405
1169,-0.1248099999999999,0.989653,-0.069899,-0.000754,0.006898,0.048842
1170,-0.124695,0.989624,-0.070508,0.003296,0.003921,0.048581
1171,-0.124616,0.989618,-0.070741,-0.0031609999999999,0.002005,0.044756
1172,-0.1245609999999999,0.98963,-0.070673,0.000217,0.0031219999999999,0.043131
1173,-0.124538,0.989646,-0.070483,0.000301,0.003884,0.042605
1174,-0.124445,0.989678,-0.070201,-0.002203,0.001243,0.0471139999999999
1175,-0.1243099999999999,0.98973,-0.0697049999999999,-0.0070989999999999,0.0007639999999999,0.041538
1176,-0.1242369999999999,0.989764,-0.069342,-0.004578,0.0026219999999999,0.045523
1177,-0.12419,0.989793,-0.069011,-0.001374,0.008025,0.039394
1178,-0.124207,0.989811,-0.068718,0.001084,0.013531,0.034996
1179,-0.124217,0.989808,-0.068729,-0.00063,0.010222,0.036579
1180,-0.124249,0.989792,-0.0689039999999999,-0.000614,0.010742,0.03326
1181,-0.124304,0.989763,-0.069213,0.002966,0.010466,0.035217
1182,-0.124397,0.989726,-0.06957,0.0038979999999999,0.006764,0.033422
1183,-0.1244609999999999,0.989702,-0.069797,0.001506,0.001387,0.03223
1184,-0.124472,0.989688,-0.069979,-0.00178,0.001142,0.034533
1185,-0.124414,0.989692,-0.0700139999999999,0.000634,0.003182,0.033988
1186,-0.124259,0.989714,-0.069964,-0.0001149999999999,0.004731,0.025729
1187,-0.124093,0.989725,-0.070116,-0.001273,0.007956,0.027041
1188,-0.123879,0.989738,-0.0703049999999999,-6.8e-05,0.009529,0.023171
1189,-0.123718,0.989736,-0.070625,0.003021,0.009868,0.023293
1190,-0.123575,0.98972,-0.071094,0.006205,0.008891,0.0231819999999999
1191,-0.123413,0.989707,-0.071562,0.0099329999999999,0.0018399999999999,0.0171039999999999
1192,-0.123271,0.989695,-0.071977,0.007808,0.004065,0.016939
1193,-0.123079,0.989685,-0.07243,0.008287,0.006531,0.01112
1194,-0.122741,0.989693,-0.07289,0.008056,0.001823,0.014098
1195,-0.122371,0.989712,-0.073255,0.009791,0.000782,0.016507
1196,-0.121931,0.989751,-0.073449,0.006667,0.002543,0.01722
1197,-0.121431,0.989806,-0.073544,0.001451,0.001939,0.020581
1198,-0.1209809999999999,0.989873,-0.073375,0.00297,0.00262,0.020503
1199,-0.1206319999999999,0.98994,-0.073042,0.001232,0.00443,0.026061
1200,-0.120229,0.990005,-0.072808,0.001638,0.009811,0.025811
1201,-0.119832,0.990057,-0.072757,-0.0036119999999999,0.006174,0.027866
1202,-0.119555,0.990098,-0.072645,-0.001035,0.001586,0.023542
1203,-0.119299,0.99013,-0.072634,-0.003702,0.001005,0.034197
1204,-0.119,0.990165,-0.072643,-0.009784,0.005318,0.03561
1205,-0.118675,0.990206,-0.072624,-0.005516,0.0071239999999999,0.035485
1206,-0.118324,0.990245,-0.072658,-0.006188,0.0069019999999999,0.0316269999999999
1207,-0.1179559999999999,0.990274,-0.072861,-0.002344,0.004157,0.039094
1208,-0.1176069999999999,0.990309,-0.072957,-0.003792,0.009264,0.043157
1209,-0.1172869999999999,0.990323,-0.07328,-0.008537,0.012561,0.043831
1210,-0.117024,0.990304,-0.073957,-0.008633,0.01258,0.050901
1211,-0.116728,0.990306,-0.074398,-0.014772,0.001287,0.0497089999999999
1212,-0.1165109999999999,0.990287,-0.0749789999999999,-0.015111,0.0053939999999999,0.04846
1213,-0.116463,0.990246,-0.075593,-0.012993,0.010806,0.048143
1214,-0.116465,0.990186,-0.076373,-0.0085659999999999,0.0037409999999999,0.042406
1215,-0.116321,0.990129,-0.077329,-0.008709,0.0037979999999999,0.043363
1216,-0.116324,0.990081,-0.077931,0.000143,-0.000991,0.052845
1217,-0.116648,0.99005,-0.077845,0.008234,0.003129,0.037485
1218,-0.1170099999999999,0.990017,-0.077714,0.007284,0.005207,0.036882
1219,-0.117281,0.990005,-0.077455,0.003802,0.00586,0.035539
1220,-0.117463,0.990012,-0.077092,0.001573,0.005273,0.035633
1221,-0.117639,0.990015,-0.076773,0.0049689999999999,0.0072689999999999,0.038306
1222,-0.117846,0.990012,-0.076504,0.007372,0.0104459999999999,0.035946
1223,-0.118001,0.990005,-0.076352,0.005391,0.0149539999999999,0.03433
1224,-0.118078,0.989984,-0.076511,0.00855,0.012931,0.033115
1225,-0.118078,0.989941,-0.077058,0.009665,0.0122099999999999,0.035142
1226,-0.117934,0.989911,-0.077673,0.0129389999999999,0.004749,0.030157
1227,-0.117725,0.989889,-0.078271,0.008258,0.007456,0.029794
1228,-0.11755,0.989862,-0.078873,0.003475,0.0099709999999999,0.030548
1229,-0.117401,0.98983,-0.079495,0.00151,0.008385,0.039455
1230,-0.117296,0.989792,-0.080119,-0.000334,0.004273,0.043361
1231,-0.117283,0.989743,-0.0807399999999999,-0.004192,0.004947,0.052344
1232,-0.117391,0.989693,-0.081187,-0.004725,0.009406,0.047221
1233,-0.1175349999999999,0.989634,-0.081706,-0.003956,0.009542,0.046336
1234,-0.117672,0.989567,-0.082312,-0.004138,0.008098,0.05445
1235,-0.117796,0.989503,-0.082902,-0.001283,0.007826,0.054185
1236,-0.1178859999999999,0.989441,-0.083519,0.000637,0.007294,0.048119
1237,-0.118041,0.989361,-0.084246,-0.003358,0.0077239999999999,0.044893
1238,-0.11828,0.989268,-0.08501,-0.002127,0.008306,0.035434
1239,-0.1185539999999999,0.989172,-0.085737,0.0028,0.001703,0.032957
1240,-0.118851,0.989103,-0.086123,0.009461,0.0031,0.0271779999999999
1241,-0.119001,0.989061,-0.086398,0.012022,0.003584,0.026538
1242,-0.118979,0.989046,-0.086598,0.01325,0.003981,0.027516
1243,-0.118819,0.989076,-0.086475,0.010223,0.008513,0.020588
1244,-0.118538,0.98911,-0.08648,0.005257,0.009303,0.031838
1245,-0.118246,0.989138,-0.0865539999999999,0.003439,0.008466,0.023001
1246,-0.1179119999999999,0.989164,-0.086715,-0.00866,0.011797,0.026504
1247,-0.117495,0.989171,-0.0872039999999999,-0.007825,0.006145,0.030411
1248,-0.117141,0.989149,-0.0879279999999999,-0.005357,0.004824,0.017646
1249,-0.1168859999999999,0.989086,-0.0889669999999999,0.00156,0.011966,0.013909
1250,-0.116626,0.989003,-0.090223,-0.000699,0.006923,0.021696
1251,-0.1164579999999999,0.988895,-0.091613,0.0072819999999999,0.0068319999999999,0.023955
1252,-0.116316,0.988768,-0.09316,0.012052,0.008043,0.0311329999999999
1253,-0.116093,0.988654,-0.094634,0.012608,0.007226,0.03427
1254,-0.115837,0.988571,-0.095817,0.009529,0.008896,0.03762
1255,-0.115571,0.988499,-0.0968789999999999,0.009218,0.008297,0.049714
1256,-0.115299,0.988416,-0.098039,-0.003597,0.011706,0.057313
1257,-0.11498,0.988333,-0.0992519999999999,-0.008876,0.007303,0.0610289999999999
1258,-0.114699,0.98825,-0.100396,-0.017961,0.003617,0.058938
1259,-0.11457,0.988157,-0.101459,-0.020852,-0.002287,0.056797
1260,-0.114603,0.988083,-0.10214,-0.019155,-0.00029,0.055722
1261,-0.114784,0.988024,-0.102506,-0.016137,0.011167,0.047956
1262,-0.115001,0.98796,-0.10288,-0.003179,0.010422,0.0314529999999999
1263,-0.115275,0.987869,-0.103451,0.003535,0.0093239999999999,0.025891
1264,-0.115771,0.987757,-0.103959,0.019198,-0.002162,0.023607
1265,-0.116344,0.987654,-0.104304,0.024258,0.004457,0.021709
1266,-0.116749,0.98758,-0.1045519999999999,0.019459,0.009063,0.0192099999999999
1267,-0.116974,0.987518,-0.1048839999999999,0.022491,0.016068,0.016276
1268,-0.1170339999999999,0.987462,-0.105348,0.011703,0.009349,0.030184
1269,-0.117058,0.98741,-0.105807,0.006859,0.0077069999999999,0.0311
1270,-0.116999,0.987383,-0.106124,0.005365,0.010786,0.036208
1271,-0.1168599999999999,0.987357,-0.10652,-0.002021,0.0120629999999999,0.03192
1272,-0.116809,0.987288,-0.107216,-0.002805,0.012346,0.034554
1273,-0.116658,0.987219,-0.108011,-0.001582,0.006952,0.038218
1274,-0.1163869999999999,0.987179,-0.108664,0.001855,0.013202,0.041037
1275,-0.11603,0.987122,-0.1095609999999999,0.0042439999999999,0.012878,0.040316
1276,-0.1156619999999999,0.987022,-0.110845,0.002472,0.01313,0.039266
1277,-0.1153579999999999,0.986892,-0.112313,0.000993,0.007905,0.040338
1278,-0.115047,0.986733,-0.114015,-0.0002029999999999,0.007667,0.0396899999999999
1279,-0.114616,0.986594,-0.11565,-0.00132,0.005456,0.035099
1280,-0.11416,0.986482,-0.117046,0.001367,-0.000459,0.034374
1281,-0.113865,0.986379,-0.118202,0.000995,0.001887,0.029517
1282,-0.113694,0.986287,-0.119127,-0.001067,0.004756,0.031236
1283,-0.113571,0.986243,-0.119613,0.000168,0.003702,0.028945
1284,-0.113567,0.986214,-0.119853,0.001491,0.005317,0.0282089999999999
1285,-0.113615,0.986218,-0.119778,-0.002123,0.0068239999999999,0.032925
1286,-0.113712,0.986232,-0.119565,0.000705,0.006703,0.03616
1287,-0.11382,0.986234,-0.11945,-0.0017649999999999,0.008761,0.0359079999999999
1288,-0.1138609999999999,0.986221,-0.119521,0.001846,0.010743,0.031325
1289,-0.113803,0.986209,-0.119673,0.004565,0.0128449999999999,0.0374279999999999
1290,-0.1137,0.986197,-0.119872,0.0041719999999999,0.0130099999999999,0.035735
1291,-0.113594,0.986164,-0.120246,-0.008934,0.009625,0.0337279999999999
1292,-0.113526,0.98611,-0.120749,-0.009307,0.006169,0.03826
1293,-0.1134049999999999,0.986064,-0.121239,-0.008726,0.004476,0.043114
1294,-0.11324,0.986022,-0.121733,-0.011287,0.007112,0.049163
1295,-0.113093,0.985978,-0.122223,-0.009206,0.011397,0.044907
1296,-0.113023,0.985921,-0.122748,-0.008666,0.007945,0.044974
1297,-0.113173,0.985845,-0.123224,-0.009447,0.001826,0.051965
1298,-0.1134569999999999,0.985786,-0.1234339999999999,-0.004753,0.000817,0.044851
1299,-0.113724,0.985761,-0.123386,-0.0026089999999999,0.007098,0.039524
1300,-0.114102,0.985717,-0.123393,-0.003284,0.006776,0.023448
1301,-0.114575,0.985616,-0.1237569999999999,0.000104,0.009608,0.01957
1302,-0.115075,0.985503,-0.124195,0.009195,0.007905,0.011829
1303,-0.115462,0.985406,-0.124609,0.009002,0.005759,0.016485
1304,-0.115692,0.985343,-0.124896,0.0126959999999999,0.004571,0.01929
1305,-0.115688,0.985318,-0.125093,0.012905,0.008563,0.0257279999999999
1306,-0.115441,0.985312,-0.125367,0.0109489999999999,0.01098,0.029206
1307,-0.115141,0.985298,-0.1257589999999999,0.005049,0.011284,0.036098
1308,-0.114826,0.985251,-0.12641,0.005833,0.006051,0.042273
1309,-0.1144029999999999,0.985201,-0.127186,-0.00135,0.012495,0.05048
1310,-0.113918,0.985156,-0.12797,0.000774,0.019926,0.053354
1311,-0.113428,0.985105,-0.128795,0.001169,0.012484,0.049022
1312,-0.112982,0.985053,-0.1295849999999999,0.0016079999999999,0.000757,0.047111
1313,-0.1127609999999999,0.985017,-0.130051,-0.004045,-0.001496,0.054108
1314,-0.112776,0.985037,-0.129883,0.006529,0.0067079999999999,0.0334319999999999
1315,-0.112914,0.985072,-0.129494,0.010375,0.006703,0.0373
1316,-0.113256,0.985148,-0.128616,0.010366,0.0011949999999999,0.0263209999999999
1317,-0.113765,0.985244,-0.127423,0.008357,0.006501,0.022885
1318,-0.114295,0.985339,-0.126208,0.008033,0.012372,0.0222039999999999
1319,-0.114746,0.985426,-0.12512,0.005692,0.005511,0.031004
1320,-0.11512,0.985498,-0.124205,0.008202,0.004309,0.028655
1321,-0.1152329999999999,0.985577,-0.123472,0.005034,0.0114939999999999,0.021055
1322,-0.1151359999999999,0.985631,-0.1231299999999999,0.002648,0.017497,0.031379
1323,-0.114913,0.985649,-0.123195,0.005279,0.009758,0.031779
1324,-0.114532,0.985649,-0.123545,0.004058,0.007591,0.0354709999999999
1325,-0.114025,0.985655,-0.123968,0.004451,0.017046,0.03533
1326,-0.113594,0.985617,-0.1246599999999999,0.0010609999999999,0.010492,0.037135
1327,-0.11325,0.985576,-0.125297,7.6e-05,-0.003933,0.0492779999999999
1328,-0.112863,0.98555,-0.125851,-0.008322,-0.008194,0.0429649999999999
1329,-0.112255,0.985529,-0.126559,-0.009571,-0.001917,0.037691
1330,-0.111593,0.985535,-0.127101,-0.002863,0.008713,0.034816
1331,-0.111174,0.985548,-0.127363,0.008818,0.017687,0.035383
1332,-0.1110869999999999,0.985567,-0.127297,0.0102569999999999,0.022933,0.027947
1333,-0.1113059999999999,0.985585,-0.126964,0.003381,0.0176039999999999,0.0250349999999999
1334,-0.111667,0.985608,-0.126466,-0.001599,0.009631,0.024888
1335,-0.112025,0.985643,-0.125879,-0.0002029999999999,-0.001298,0.017328
1336,-0.112327,0.985699,-0.125171,-8e-06,-0.002728,0.017291
1337,-0.112509,0.985766,-0.124475,-5.5e-05,0.006925,0.020013
1338,-0.112479,0.985827,-0.124015,0.0044469999999999,0.010404,0.028572
1339,-0.11232,0.985903,-0.123554,0.0075069999999999,0.011899,0.027241
1340,-0.112076,0.985959,-0.1233339999999999,0.008819,0.013904,0.030881
1341,-0.11169,0.985997,-0.123376,0.004863,0.016932,0.03135
1342,-0.111269,0.985997,-0.1237569999999999,0.003023,0.005427,0.032799
1343,-0.110914,0.985976,-0.124241,0.002653,0.002351,0.032124
1344,-0.110618,0.985957,-0.1246559999999999,0.001045,0.0040939999999999,0.035469
1345,-0.110274,0.985959,-0.12495,0.000227,0.006793,0.035945
1346,-0.110079,0.98598,-0.124957,0.002688,0.006193,0.031695
1347,-0.109952,0.986017,-0.124778,0.002896,0.0062619999999999,0.031043
1348,-0.1099049999999999,0.986061,-0.124471,0.007244,0.0047079999999999,0.02712
1349,-0.1099329999999999,0.986118,-0.123994,0.007241,0.0061,0.034059
1350,-0.109983,0.986182,-0.1234359999999999,0.0041789999999999,0.010415,0.029686
1351,-0.109975,0.986234,-0.123026,0.005009,0.010088,0.036189
1352,-0.109911,0.986283,-0.122697,0.004366,0.009704,0.039887
1353,-0.109768,0.986318,-0.122539,0.004818,0.012125,0.038478
1354,-0.109544,0.986343,-0.1225359999999999,0.0047469999999999,0.008194,0.0393149999999999
1355,-0.1092539999999999,0.98639,-0.122419,0.001877,0.005522,0.04141
1356,-0.108988,0.986456,-0.1221309999999999,0.000788,0.006357,0.043487
1357,-0.108778,0.98653,-0.121715,-0.003039,0.009197,0.04771
1358,-0.108598,0.986592,-0.121373,-0.002395,0.009547,0.049749
1359,-0.108428,0.986654,-0.121019,-0.002534,0.009012,0.056276
1360,-0.108303,0.986716,-0.120627,-0.00211,0.00834,0.053962
1361,-0.108322,0.986782,-0.12007,-0.0006259999999999,0.007252,0.046415
1362,-0.108477,0.986847,-0.119387,0.000842,0.005065,0.038469
1363,-0.108742,0.986936,-0.1184099999999999,0.005089,0.004443,0.040407
1364,-0.109092,0.987046,-0.117163,0.005622,0.008376,0.035025
1365,-0.1094869999999999,0.987163,-0.115803,0.0099849999999999,0.0079849999999999,0.034031
1366,-0.109924,0.98727,-0.114463,0.009231,0.008411,0.0297459999999999
1367,-0.110396,0.987354,-0.1132799999999999,0.006103,0.009426,0.0295399999999999
1368,-0.110817,0.987419,-0.112302,0.004768,0.008736,0.0309879999999999
1369,-0.111078,0.987468,-0.1116099999999999,0.001383,0.014195,0.035118
1370,-0.111233,0.987468,-0.111456,0.000759,0.018315,0.036871
1371,-0.111206,0.987423,-0.1118859999999999,-0.001862,0.015034,0.041848
1372,-0.111072,0.987371,-0.112474,-0.00137,0.009547,0.041887
1373,-0.110894,0.987335,-0.112965,0.0001,0.010056,0.035985
1374,-0.110721,0.987292,-0.113513,-0.000134,0.006391,0.038486
1375,-0.110543,0.987236,-0.114166,-0.001914,0.005699,0.040497
1376,-0.110417,0.987187,-0.114716,-0.000774,0.006923,0.053437
1377,-0.110221,0.987141,-0.115295,-0.002389,0.00761,0.057815
1378,-0.110071,0.987105,-0.115749,-0.002036,0.006258,0.055843
1379,-0.110028,0.9871,-0.1158319999999999,0.005154,0.000815,0.053942
1380,-0.110168,0.987133,-0.115417,0.004242,0.002217,0.049605
1381,-0.110468,0.987184,-0.114691,0.004953,0.003829,0.043311
1382,-0.110999,0.987256,-0.113554,0.001991,0.004917,0.0317519999999999
1383,-0.111649,0.987339,-0.1121839999999999,0.008133,0.007885,0.017519
1384,-0.11225,0.987434,-0.110743,0.00585,0.0004509999999999,0.024165
1385,-0.112898,0.987541,-0.109113,0.005614,0.002098,0.022565
1386,-0.1135309999999999,0.987648,-0.107477,0.001562,0.00782,0.019571
1387,-0.113995,0.987749,-0.106049,-0.000354,0.005354,0.024003
1388,-0.114226,0.987857,-0.1047859999999999,-0.0012519999999999,0.008588,0.026143
1389,-0.1142869999999999,0.987954,-0.1038029999999999,-0.002595,0.011786,0.026929
1390,-0.114247,0.988035,-0.103078,0.000722,0.014346,0.032842
1391,-0.114145,0.988093,-0.1026339999999999,0.002894,0.014242,0.036503
1392,-0.114001,0.988136,-0.102374,0.002444,0.011436,0.034869
1393,-0.113923,0.988154,-0.102294,0.004457,0.009969,0.037429
1394,-0.113934,0.988131,-0.1025069999999999,0.005352,0.008284,0.034621
1395,-0.1138859999999999,0.988117,-0.102696,0.00413,0.000882,0.033955
1396,-0.11384,0.988136,-0.1025609999999999,0.005488,-0.000511,0.031897
1397,-0.113898,0.988176,-0.102109,0.005301,0.001219,0.028287
1398,-0.114123,0.988218,-0.101444,0.008135,0.012743,0.02251
1399,-0.1145119999999999,0.988238,-0.100811,0.000162,0.006528,0.026257
1400,-0.114993,0.988264,-0.100012,0.000125,0.008715,0.0252289999999999
1401,-0.1154039999999999,0.988305,-0.099132,-0.000654,0.0055,0.021785
1402,-0.115703,0.988347,-0.098356,0.00323,0.001521,0.020124
1403,-0.11597,0.988388,-0.0976269999999999,0.001499,0.0083,0.022996
1404,-0.116301,0.988398,-0.097132,0.003584,0.007558,0.0300399999999999
1405,-0.116549,0.98839,-0.096914,0.005984,0.009687,0.027425
1406,-0.116665,0.988378,-0.096901,0.00491,0.012614,0.026833
1407,-0.116742,0.988392,-0.096665,0.009366,0.011516,0.02826
1408,-0.116724,0.988447,-0.096121,0.0109959999999999,-0.00128,0.03298
1409,-0.116717,0.988523,-0.095349,0.008319,0.003375,0.029293
1410,-0.116931,0.988597,-0.094309,0.007404,-0.0016899999999999,0.022882
1411,-0.117334,0.988733,-0.092361,0.013635,-0.012949,0.0315089999999999
1412,-0.1178119999999999,0.988937,-0.089532,0.007506,-0.018829,0.04287
1413,-0.1183,0.989209,-0.0858,0.000884,-0.016568,0.042877
1414,-0.118844,0.989515,-0.081397,-0.009223,-0.0102519999999999,0.043754
1415,-0.119393,0.989847,-0.076408,-0.021156,0.003912,0.044884
1416,-0.120121,0.990126,-0.071478,-0.024212,0.00757,0.041983
1417,-0.1210789999999999,0.990325,-0.066969,-0.028213,0.013658,0.048429
1418,-0.122082,0.99045,-0.063179,-0.024128,0.019849,0.044945
1419,-0.122997,0.990527,-0.0601299999999999,-0.019764,0.019834,0.049006
1420,-0.123951,0.990529,-0.058095,-0.003872,0.033671,0.046361
1421,-0.124941,0.990466,-0.057032,0.009326,0.024076,0.046229
1422,-0.125821,0.990382,-0.056553,0.016034,0.021443,0.040913
1423,-0.126566,0.9903,-0.056339,0.0297029999999999,0.006252,0.0605809999999999
1424,-0.127238,0.990245,-0.0557799999999999,0.021495,0.00031,0.073831
1425,-0.127887,0.990225,-0.054653,0.0155819999999999,0.001292,0.07191
1426,-0.128279,0.990252,-0.0532059999999999,-0.00847,0.018765,0.053008
1427,-0.128426,0.990305,-0.05185,-0.009147,0.012258,0.050797
1428,-0.128529,0.990347,-0.050797,-0.006267,0.002055,0.058579
1429,-0.128727,0.990369,-0.049856,-0.001125,0.00246,0.058401
1430,-0.128908,0.990397,-0.048818,-0.0048649999999999,0.0055899999999999,0.0520529999999999
1431,-0.129063,0.990433,-0.047658,0.000935,0.011795,0.039143
1432,-0.129261,0.990454,-0.046669,0.016529,0.013055,0.042442
1433,-0.1295859999999999,0.990443,-0.046014,0.025338,0.003652,0.047036
1434,-0.1300069999999999,0.990415,-0.045417,0.030489,0.000857,0.048591
1435,-0.130413,0.9904,-0.044567,0.013393,0.0049,0.053127
1436,-0.130727,0.990397,-0.043722,0.007115,0.006338,0.051778
1437,-0.130908,0.990395,-0.04323,0.002978,0.009514,0.044038
1438,-0.1310849999999999,0.990372,-0.043218,0.002225,0.021622,0.039007
1439,-0.131418,0.990308,-0.043662,0.0067079999999999,0.020296,0.041236
1440,-0.131731,0.990242,-0.0442139999999999,0.009096,0.01522,0.041131
1441,-0.1318099999999999,0.990212,-0.044649,0.0127,-0.000878,0.038042
1442,-0.131867,0.990203,-0.044695,0.011307,-0.006957,0.040743
1443,-0.132133,0.990184,-0.044312,0.015953,-0.00703,0.041337
1444,-0.132509,0.990161,-0.043694,0.013613,-0.000125,0.042275
1445,-0.132948,0.990135,-0.042945,0.009275,0.005837,0.042075
1446,-0.133398,0.990112,-0.042056,0.005071,0.004868,0.042316
1447,-0.133793,0.99011,-0.040826,0.002155,0.00516,0.041543
1448,-0.134035,0.990128,-0.039545,-0.004576,0.0002279999999999,0.026636
1449,-0.134339,0.99014,-0.038175,-0.002166,-0.001066,0.029142
1450,-0.13474,0.990142,-0.036679,0.000249,-0.001174,0.03088
1451,-0.135151,0.990142,-0.035116,0.000187,0.0066989999999999,0.020269
1452,-0.135538,0.990146,-0.033476,0.000574,0.006696,0.018629
1453,-0.135941,0.990149,-0.031674,0.005585,0.003931,0.017987
1454,-0.136343,0.990151,-0.029802,0.006506,0.0033179999999999,0.014574
1455,-0.136893,0.990126,-0.028044,0.006629,0.002687,0.018691
1456,-0.137589,0.990076,-0.026331,0.002594,0.005727,0.0205169999999999
1457,-0.138237,0.990018,-0.0251039999999999,0.002998,0.0034509999999999,0.013477
1458,-0.138663,0.989976,-0.024378,-2.4e-05,0.006895,0.014124
1459,-0.13902,0.989941,-0.023796,-0.002567,0.011936,0.026725
1460,-0.139515,0.98989,-0.0229669999999999,0.000401,0.0073019999999999,0.028536
1461,-0.139921,0.989846,-0.022406,0.001234,0.006996,0.024359
1462,-0.139945,0.989832,-0.022867,0.000617,0.014624,0.02839
1463,-0.139488,0.989856,-0.0245629999999999,-0.00515,0.015027,0.022168
1464,-0.1385539999999999,0.989921,-0.0270769999999999,-0.005809,0.00692,0.020561
1465,-0.137548,0.990001,-0.029224,-0.001109,-0.006572,0.022174
1466,-0.136856,0.990058,-0.030511,0.001495,-0.0046,0.025247
1467,-0.13677,0.990063,-0.030726,0.0014089999999999,-0.004605,0.025462
1468,-0.13735,0.990009,-0.0298879999999999,0.00234,0.004208,0.01852
1469,-0.13812,0.989943,-0.028498,0.00372,-0.0045299999999999,0.018702
1470,-0.138712,0.989902,-0.026993,0.007227,-0.011935,0.028367
1471,-0.139085,0.989891,-0.02541,0.003663,-0.0067519999999999,0.0428819999999999
1472,-0.139337,0.9899,-0.02361,-0.004828,0.005248,0.04958
1473,-0.139604,0.989907,-0.021634,-0.007765,0.013572,0.048672
1474,-0.139945,0.989899,-0.0196949999999999,-0.0109489999999999,0.014648,0.0446579999999999
1475,-0.140368,0.989871,-0.018005,-0.007123,0.013791,0.046905
1476,-0.140866,0.989822,-0.016734,-0.003986,0.010147,0.046671
1477,-0.141344,0.989768,-0.015877,0.002809,-0.0004179999999999,0.043343
1478,-0.141796,0.989714,-0.0151289999999999,0.002712,-0.008361,0.040718
1479,-0.142228,0.989664,-0.014291,0.002427,-0.0034119999999999,0.041253
1480,-0.142792,0.989599,-0.0131259999999999,-0.000472,0.001353,0.0277129999999999
1481,-0.143485,0.989519,-0.011501,0.0091159999999999,-0.005556,0.020549
1482,-0.144235,0.989431,-0.009458,0.019403,-0.000341,0.032835
1483,-0.145122,0.989319,-0.007226,0.021526,0.008468,0.0330899999999999
1484,-0.146155,0.989181,-0.00499,0.024725,0.018067,0.030289
1485,-0.147177,0.989036,-0.003016,0.027731,0.022438,0.027766
1486,-0.1479599999999999,0.988923,-0.001332,0.033779,0.021194,0.023732
1487,-0.148397,0.988859,-0.000152,0.03185,0.011386,0.02037
1488,-0.148463,0.988848,0.0002529999999999,0.030848,0.0076879999999999,0.017402
1489,-0.148099,0.988903,9.9e-05,0.029035,0.011432,0.018059
1490,-0.147418,0.989005,-0.000145,0.023532,0.029412,0.013558
1491,-0.146179,0.989189,-0.0002569999999999,0.023758,0.02871,0.011991
1492,-0.144068,0.989498,-0.000398,0.025706,0.014728,0.017106
1493,-0.141476,0.989871,-0.001301,0.021908,0.006543,0.032551
1494,-0.1388619999999999,0.990236,-0.003462,0.020957,-0.002336,0.037244
1495,-0.136709,0.990524,-0.005918,0.018209,-0.000213,0.023618
1496,-0.1350839999999999,0.990733,-0.0079,0.012922,0.011434,0.020458
1497,-0.133711,0.990909,-0.00911,0.020567,0.020383,0.0113379999999999
1498,-0.1323609999999999,0.991075,-0.010574,0.027426,0.0071239999999999,0.023483
1499,-0.131067,0.991226,-0.012366,0.027888,0.0031579999999999,0.032676
1500,-0.13003,0.991337,-0.014275,0.015132,0.0052899999999999,0.050804
1501,-0.129393,0.9914,-0.015627,0.006499,0.023736,0.032488
1502,-0.1290619999999999,0.991421,-0.016975,-0.007672,0.0131259999999999,0.033591
1503,-0.128913,0.991401,-0.019158,-0.007821,0.013146,0.035774
1504,-0.1289809999999999,0.991342,-0.021608,-0.007402,0.001929,0.040803
1505,-0.129192,0.991257,-0.024121,-0.001713,7.6e-05,0.0346649999999999
1506,-0.12933,0.991163,-0.027076,-0.001697,0.0090049999999999,0.028129
1507,-0.129513,0.991043,-0.030405,0.017986,0.008591,0.041651
1508,-0.129617,0.990927,-0.033578,0.0225919999999999,0.000543,0.0423819999999999
1509,-0.12962,0.99083,-0.036349,0.018749,-0.000519,0.045916
1510,-0.12963,0.990736,-0.0387949999999999,0.0038369999999999,-0.0041329999999999,0.028342
1511,-0.129619,0.990622,-0.04165,-0.000127,-0.00025,0.048486
1512,-0.129615,0.990505,-0.044354,-0.004021,-0.002971,0.066799
1513,-0.129698,0.9904,-0.0464199999999999,-0.004335,0.002261,0.04993
1514,-0.129806,0.990275,-0.048724,-0.006989,0.005331,0.038546
1515,-0.129892,0.99014,-0.051172,-0.009207,0.002337,0.054208
1516,-0.130042,0.990025,-0.052974,-0.007623,-0.007039,0.0522269999999999
1517,-0.1300579999999999,0.989955,-0.054236,-0.004402,-0.0024059999999999,0.0389459999999999
1518,-0.1298359999999999,0.989911,-0.0555429999999999,-0.005495,0.005053,0.04419
1519,-0.129664,0.98987,-0.05667,-0.004262,0.0074909999999999,0.048888
1520,-0.129584,0.989822,-0.05767,0.000388,0.001282,0.052711
1521,-0.1295609999999999,0.989777,-0.0585049999999999,-0.003434,-0.001022,0.055804
1522,-0.129592,0.989738,-0.059099,-0.003617,0.0007559999999999,0.054048
1523,-0.129582,0.989707,-0.059638,-0.008998,0.007379,0.04476
1524,-0.129583,0.989658,-0.0604419999999999,-0.00622,0.0072599999999999,0.048449
1525,-0.129574,0.989612,-0.0612059999999999,-0.009709,0.002255,0.051043
1526,-0.12958,0.989583,-0.061665,-0.008314,0.006038,0.041295
1527,-0.129683,0.989548,-0.0620059999999999,-0.0056619999999999,0.005386,0.045191
1528,-0.129932,0.989504,-0.062192,0.001972,0.0026379999999999,0.048016
1529,-0.130139,0.989473,-0.062241,-0.002094,0.00688,0.033997
1530,-0.130279,0.989449,-0.062324,0.002318,0.009025,0.034736
1531,-0.130457,0.989413,-0.062514,0.004297,0.008145,0.046858
1532,-0.130609,0.989398,-0.0624409999999999,0.004617,0.00633,0.040667
1533,-0.130632,0.989397,-0.062398,0.005342,0.012464,0.0377399999999999
1534,-0.130369,0.989415,-0.062668,0.010282,0.009792,0.028702
1535,-0.130149,0.989416,-0.063095,0.0174789999999999,0.002252,0.03952
1536,-0.130053,0.989405,-0.063473,0.015826,0.000525,0.041836
1537,-0.130079,0.989404,-0.063426,0.021757,0.006812,0.03889
1538,-0.130269,0.989383,-0.063357,0.027212,0.008008,0.0351589999999999
1539,-0.1305049999999999,0.989363,-0.063178,0.033536,0.003389,0.039084
1540,-0.1307579999999999,0.989355,-0.062772,0.031316,0.001184,0.03793
1541,-0.131169,0.989338,-0.062189,0.025914,0.003368,0.041147
1542,-0.131677,0.989311,-0.06155,0.023919,0.004388,0.053051
1543,-0.132246,0.989288,-0.060683,0.016432,0.008911,0.0459269999999999
1544,-0.132785,0.989263,-0.059907,0.0152,0.0109959999999999,0.039719
1545,-0.133367,0.989213,-0.059445,0.015737,0.005447,0.044217
1546,-0.134076,0.989142,-0.0590299999999999,0.018674,0.005304,0.040796
1547,-0.134763,0.989073,-0.0586169999999999,0.016111,0.009447,0.039849
1548,-0.135421,0.988992,-0.05847,0.016768,0.009528,0.039701
1549,-0.13595,0.988913,-0.058571,0.017679,0.00831,0.041268
1550,-0.136478,0.988834,-0.0586779999999999,0.010623,0.005917,0.048287
1551,-0.137166,0.988733,-0.0587809999999999,0.009175,0.003165,0.049183
1552,-0.137956,0.988622,-0.058793,0.006883,0.001872,0.039125
1553,-0.138646,0.988511,-0.059049,-0.005138,0.015212,0.033002
1554,-0.139284,0.988376,-0.059798,-0.004499,0.015347,0.033752
1555,-0.13981,0.988235,-0.0609059999999999,-0.001762,0.006089,0.0399259999999999
1556,-0.140337,0.988084,-0.062132,-0.0054,0.006148,0.035185
1557,-0.140917,0.987938,-0.063128,-0.004729,0.0078049999999999,0.02962
1558,-0.1416369999999999,0.987762,-0.064263,-0.003016,0.0115819999999999,0.033913
1559,-0.142347,0.987579,-0.065499,-0.004809,0.005676,0.0297009999999999
1560,-0.142921,0.987392,-0.067062,-0.004601,0.008611,0.028762
1561,-0.143365,0.987191,-0.069026,-0.004111,0.013419,0.03738
1562,-0.143681,0.987002,-0.0710399999999999,-0.001034,0.008267,0.021419
1563,-0.143905,0.986828,-0.072982,-0.00113,0.007359,0.020415
1564,-0.144018,0.986682,-0.074712,-0.0021,0.000638,0.022298
1565,-0.144091,0.986551,-0.076274,-0.0012029999999999,-0.000208,0.029597
1566,-0.144075,0.986445,-0.077667,0.001405,0.004522,0.020141
1567,-0.144041,0.986337,-0.079086,0.004912,0.006217,0.020812
1568,-0.144077,0.986216,-0.080505,0.006199,-0.001444,0.025024
1569,-0.144192,0.986108,-0.0816139999999999,0.00845,0.001258,0.025797
1570,-0.144319,0.986013,-0.082528,0.002915,0.0104319999999999,0.028985
1571,-0.144512,0.985918,-0.083319,0.003811,0.004927,0.0276709999999999
1572,-0.144754,0.98583,-0.08394,0.005136,0.006434,0.027818
1573,-0.145023,0.985739,-0.084552,0.006977,0.005533,0.0331
1574,-0.145313,0.985636,-0.085249,0.005496,0.004171,0.0292949999999999
1575,-0.1456039999999999,0.98555,-0.085751,0.003957,0.003784,0.028821
1576,-0.145925,0.985484,-0.085962,0.0044,0.006368,0.029306
1577,-0.146279,0.985427,-0.086018,0.00602,0.004548,0.023549
1578,-0.146598,0.985369,-0.086144,0.007026,0.003904,0.020958
1579,-0.146888,0.98531,-0.086333,0.003593,0.00404,0.031905
1580,-0.147229,0.985251,-0.086413,0.001782,0.004571,0.036608
1581,-0.147605,0.985206,-0.086286,0.004462,0.004143,0.035062
1582,-0.147955,0.985172,-0.086074,-0.000834,0.010708,0.039825
1583,-0.148342,0.985127,-0.085927,-0.0010869999999999,0.00967,0.042302
1584,-0.148827,0.985073,-0.085709,0.002053,0.008228,0.040559
1585,-0.149344,0.985023,-0.085382,0.002799,0.003365,0.042231
1586,-0.149791,0.984992,-0.084957,0.005122,0.0069819999999999,0.043987
1587,-0.1502119999999999,0.98497,-0.084466,0.003896,0.010208,0.039468
1588,-0.150619,0.984941,-0.084084,0.007689,0.012969,0.034935
1589,-0.15103,0.984902,-0.083798,0.007842,0.007575,0.038068
1590,-0.151463,0.984871,-0.08338,0.010487,0.007362,0.036672
1591,-0.15188,0.984852,-0.082849,0.005518,0.007336,0.038888
1592,-0.152277,0.984835,-0.082321,0.004526,0.014524,0.038742
1593,-0.1527069999999999,0.984802,-0.0819179999999999,0.004437,0.013687,0.037225
1594,-0.153125,0.984769,-0.0815289999999999,0.007922,0.0037869999999999,0.0365
1595,-0.153519,0.984748,-0.081038,0.003388,0.0009689999999999,0.041136
1596,-0.153834,0.984737,-0.080576,0.004832,0.003803,0.043756
1597,-0.154003,0.984742,-0.0802,-0.0016059999999999,0.011779,0.041519
1598,-0.154021,0.984772,-0.079783,0.003829,0.004607,0.038416
1599,-0.153905,0.984817,-0.07946,0.00498,0.0051119999999999,0.038093
1600,-0.153696,0.984863,-0.079287,0.006769,0.008499,0.044436
1601,-0.153539,0.984899,-0.0791429999999999,0.009755,0.012079,0.039516
1602,-0.153556,0.984915,-0.078919,0.011786,0.0086,0.034577
1603,-0.15369,0.984918,-0.0786159999999999,0.017551,0.007987,0.033618
1604,-0.154027,0.98491,-0.078057,0.020925,0.005996,0.039407
1605,-0.15465,0.984874,-0.0772679999999999,0.019778,0.004429,0.039136
1606,-0.155447,0.984837,-0.076133,0.019339,0.004116,0.035194
1607,-0.1562309999999999,0.984808,-0.074884,0.009579,0.0085849999999999,0.040094
1608,-0.157097,0.984753,-0.073783,0.004295,0.008777,0.041267
1609,-0.157888,0.984708,-0.072687,0.003484,0.008639,0.0399259999999999
1610,-0.158236,0.984718,-0.071785,0.004351,0.002633,0.036644
1611,-0.158169,0.984777,-0.071123,0.003307,0.019801,0.041856
1612,-0.1579279999999999,0.984847,-0.070683,0.004577,0.021012,0.042714
1613,-0.157642,0.984914,-0.070385,0.013111,0.010828,0.038707
1614,-0.157479,0.984952,-0.070217,0.016061,0.004412,0.042125
1615,-0.157522,0.984968,-0.069897,0.02326,0.000734,0.038586
1616,-0.15772,0.984979,-0.0693049999999999,0.0241289999999999,0.004081,0.0321959999999999
1617,-0.1579829999999999,0.984999,-0.068414,0.021921,0.005739,0.035989
1618,-0.158243,0.985041,-0.067191,0.0262089999999999,0.007543,0.045081
1619,-0.158654,0.985072,-0.065756,0.021401,0.010182,0.046575
1620,-0.159332,0.985055,-0.064348,0.0175169999999999,0.009604,0.047899
1621,-0.160039,0.985029,-0.062973,0.018605,0.002505,0.044174
1622,-0.160477,0.985033,-0.0617789999999999,0.021592,0.008833,0.042584
1623,-0.160518,0.985096,-0.060648,0.024303,0.009181,0.04217
1624,-0.1602589999999999,0.985202,-0.0596169999999999,0.027813,0.012967,0.0439
1625,-0.1599529999999999,0.985302,-0.058778,0.031611,0.009876,0.045609
1626,-0.159678,0.985398,-0.057913,0.03361,0.006729,0.041326
1627,-0.15947,0.985498,-0.0567779999999999,0.034531,0.001548,0.049164
1628,-0.159501,0.985569,-0.055421,0.0274209999999999,0.0088,0.050432
1629,-0.159752,0.985619,-0.0537789999999999,0.024056,0.006614,0.044411
1630,-0.160066,0.98567,-0.051883,0.01822,-0.000791,0.038333
1631,-0.160407,0.985717,-0.049894,0.0123819999999999,0.005998,0.035245
1632,-0.160917,0.985729,-0.047966,0.0131659999999999,0.016666,0.038414
1633,-0.161566,0.985703,-0.046292,0.016897,0.0160669999999999,0.036389
1634,-0.162227,0.985651,-0.045063,0.01913,0.013083,0.03516
1635,-0.162801,0.98559,-0.044314,0.017217,0.0146539999999999,0.034808
1636,-0.163244,0.985527,-0.044093,0.012212,0.015679,0.034541
1637,-0.163596,0.985463,-0.044223,0.014823,0.016994,0.040957
1638,-0.163864,0.985406,-0.044499,0.0173949999999999,0.015677,0.040379
1639,-0.163983,0.985369,-0.044883,0.016385,0.0032939999999999,0.037544
1640,-0.163954,0.985334,-0.0457459999999999,0.005934,0.012697,0.045761
1641,-0.163839,0.985283,-0.047231,0.00852,0.010414,0.0501
1642,-0.163592,0.985229,-0.049178,0.015216,0.003159,0.055724
1643,-0.1632289999999999,0.985184,-0.051236,0.008597,0.00267,0.054532
1644,-0.1627569999999999,0.985148,-0.0533779999999999,-0.003396,0.002095,0.054416
1645,-0.1623119999999999,0.985069,-0.0561299999999999,-0.009777,0.005288,0.056863
1646,-0.161936,0.984909,-0.059896,-0.011114,-0.0133509999999999,0.049993
1647,-0.161429,0.984717,-0.0642669999999999,-0.014703,-0.020941,0.0493899999999999
1648,-0.160777,0.984513,-0.068869,-0.019872,-0.0221099999999999,0.047888
1649,-0.1600859999999999,0.984308,-0.073266,-0.029047,0.016653,0.021005
1650,-0.1593109999999999,0.984094,-0.077695,-0.020835,0.02822,0.015912
1651,-0.158434,0.983866,-0.082251,-0.015196,0.039511,0.01876
1652,-0.157609,0.983587,-0.087031,-0.01654,0.04426,0.011744
1653,-0.156951,0.983256,-0.0918399999999999,-0.018662,0.05155,0.014372
1654,-0.156746,0.982841,-0.096511,-0.011436,0.051903,0.018202
1655,-0.156729,0.982369,-0.101232,-0.014581,-0.011635,0.010107
1656,-0.156721,0.981908,-0.10562,-0.018877,-0.028982,0.007353
1657,-0.156362,0.981561,-0.109313,-0.022486,-0.05105,0.0037979999999999
1658,-0.155442,0.981382,-0.112202,-0.021941,-0.034604,0.002888
1659,-0.15419,0.981307,-0.114558,-0.020585,-0.025085,-0.003042
1660,-0.152703,0.981286,-0.11671,-0.0239629999999999,-0.003426,-0.002156
1661,-0.150768,0.981295,-0.119126,-0.020527,-0.00374,0.000825
1662,-0.1484079999999999,0.981313,-0.1219069999999999,-0.015074,-0.0093739999999999,0.004201
1663,-0.14564,0.981378,-0.124696,0.008723,-0.004266,-0.001707
1664,-0.142483,0.981539,-0.12705,0.020885,0.0209479999999999,0.008962
1665,-0.1389,0.981882,-0.1283619999999999,0.021224,0.029547,0.023229
1666,-0.135425,0.982443,-0.1277829999999999,-0.0087549999999999,0.0279939999999999,0.052374
1667,-0.132682,0.983169,-0.12504,-0.039361,0.108292,0.054544
1668,-0.131759,0.983715,-0.12168,-0.042939,0.134434,0.051154
1669,-0.132659,0.983936,-0.118877,-0.010483,0.01318,0.0422019999999999
1670,-0.133812,0.983947,-0.1174849999999999,-0.026848,-0.020751,0.053962
1671,-0.134786,0.983954,-0.116299,-0.044306,-0.0205139999999999,0.061627
1672,-0.1360569999999999,0.98407,-0.1138059999999999,-0.065832,-0.022065,0.079016
1673,-0.138022,0.984288,-0.1094789999999999,-0.058802,-0.0152629999999999,0.073849
1674,-0.1404089999999999,0.98444,-0.104973,-0.037478,-0.009037,0.047295
1675,-0.142466,0.984442,-0.102141,-0.005208,-0.00434,0.0261519999999999
1676,-0.143305,0.98441,-0.1012769999999999,0.0313209999999999,0.017071,0.012272
1677,-0.142529,0.984432,-0.102146,0.021862,0.033726,0.019672
1678,-0.141203,0.984427,-0.104015,0.016707,0.018609,0.048656
1679,-0.140132,0.984407,-0.105642,0.029033,-0.008409,0.045965
1680,-0.139363,0.984443,-0.106326,0.037007,0.002648,0.043872
1681,-0.138567,0.98454,-0.106468,0.036669,0.017566,0.033119
1682,-0.137786,0.984681,-0.106174,0.017822,0.020217,0.032901
1683,-0.137545,0.984748,-0.105865,0.005632,0.016182,0.0428459999999999
1684,-0.137947,0.984746,-0.105363,-0.018105,-0.003682,0.058885
1685,-0.138646,0.984804,-0.1038839999999999,-0.016277,-0.019228,0.088488
1686,-0.139589,0.985105,-0.0996799999999999,0.00052,-0.020155,0.07818
1687,-0.140192,0.985621,-0.093541,0.029597,-0.010264,0.040227
1688,-0.140433,0.986203,-0.086793,0.045172,0.010287,0.046083
1689,-0.140665,0.986754,-0.079881,0.045222,0.027101,0.025209
1690,-0.141362,0.987146,-0.073549,0.050374,0.025488,0.02379
1691,-0.142294,0.987422,-0.067821,0.05248,0.004918,0.038234
1692,-0.14307,0.987696,-0.0619269999999999,0.0548289999999999,-0.020502,0.043708
1693,-0.143573,0.98799,-0.055748,0.048267,-0.0317529999999999,0.04966
1694,-0.143755,0.988303,-0.049372,0.047777,-0.0218259999999999,0.036966
1695,-0.143515,0.988623,-0.043272,0.044913,-0.021643,0.031172
1696,-0.142798,0.988966,-0.037388,0.0284029999999999,-0.0187659999999999,0.055347
1697,-0.141896,0.989301,-0.031491,0.020513,-0.0133479999999999,0.069913
1698,-0.140719,0.989634,-0.025768,0.000308,0.019018,0.083157
1699,-0.139619,0.989892,-0.021454,-0.019821,0.079337,0.0702059999999999
1700,-0.138895,0.990026,-0.019898,-0.018728,0.102091,0.016816
1701,-0.138473,0.990055,-0.021363,-0.000916,0.095333,0.022889
1702,-0.138403,0.989999,-0.024215,0.050024,0.023856,0.0051719999999999
1703,-0.138378,0.98991,-0.027756,0.062771,-0.01585,0.0128479999999999
1704,-0.1381349999999999,0.98984,-0.0312529999999999,0.059064,-0.024782,0.0258519999999999
1705,-0.137768,0.989808,-0.033769,0.059246,-0.029573,0.036134
1706,-0.137034,0.989854,-0.035371,0.03773,-0.023546,0.041139
1707,-0.135944,0.989959,-0.036618,0.0257139999999999,-0.013824,0.03613
1708,-0.134373,0.990115,-0.038174,-0.002163,0.0067569999999999,0.058575
1709,-0.132654,0.990302,-0.039314,-0.0124879999999999,0.011789,0.064583
1710,-0.131203,0.990491,-0.039393,-0.017769,0.0136289999999999,0.058772
1711,-0.130238,0.990632,-0.039061,-0.022182,0.031554,0.0378709999999999
1712,-0.129879,0.99068,-0.039046,-0.003971,0.036954,0.0344379999999999
1713,-0.129753,0.990663,-0.039886,0.011482,0.033675,0.0335839999999999
1714,-0.129346,0.990636,-0.041823,0.049115,-0.007589,0.054885
1715,-0.12857,0.990658,-0.043664,0.0438529999999999,-0.000393,0.059747
1716,-0.1278359999999999,0.990685,-0.045153,0.032194,0.0022649999999999,0.052569
1717,-0.127367,0.990704,-0.0460449999999999,0.014131,0.013034,0.047907
1718,-0.127288,0.99068,-0.046777,0.0058439999999999,0.002164,0.06724
1719,-0.127304,0.990648,-0.047404,0.002914,-0.009081,0.070964
1720,-0.126989,0.990678,-0.047626,-0.010294,-0.008698,0.059039
1721,-0.126654,0.990724,-0.0475649999999999,-0.004999,0.002547,0.053745
1722,-0.126639,0.990733,-0.047405,-0.000802,0.008122,0.053158
1723,-0.1270079999999999,0.990694,-0.0472389999999999,0.007486,0.003401,0.06828
1724,-0.127419,0.99066,-0.046832,0.002389,0.001603,0.061572
1725,-0.127669,0.990633,-0.046724,0.002639,0.00163,0.061464
1726,-0.127924,0.990613,-0.046465,0.000268,0.020603,0.046282
1727,-0.1283619999999999,0.990552,-0.046553,0.005575,0.01575,0.0607129999999999
1728,-0.1288619999999999,0.990486,-0.046577,0.008714,0.00573,0.0613019999999999
1729,-0.129197,0.990443,-0.046561,0.001694,0.001073,0.04888
1730,-0.12933,0.99042,-0.04668,-0.003101,0.01312,0.049472
1731,-0.129334,0.990408,-0.046928,-0.001877,0.013025,0.046944
1732,-0.129196,0.990401,-0.047442,-0.000168,0.0043799999999999,0.0541559999999999
1733,-0.128998,0.990401,-0.047988,-0.005721,0.001314,0.058273
1734,-0.128926,0.990397,-0.04827,-0.0059619999999999,0.003881,0.0550909999999999
1735,-0.128984,0.990387,-0.0483209999999999,-0.003829,0.01181,0.047802
1736,-0.129143,0.990362,-0.04841,0.001671,0.009623,0.045205
1737,-0.1293099999999999,0.990323,-0.048753,0.002311,0.001987,0.046968
1738,-0.129473,0.99028,-0.04918,0.004626,-3.1e-05,0.048158
1739,-0.129717,0.990233,-0.049473,0.000399,0.00763,0.047245
1740,-0.130134,0.990174,-0.049576,5.3e-05,0.014129,0.0415339999999999
1741,-0.130608,0.990101,-0.049794,0.003167,0.008541,0.039555
1742,-0.130972,0.990029,-0.050256,0.008643,-0.0022199999999999,0.03956
1743,-0.13118,0.98998,-0.050667,0.0064849999999999,-0.0008289999999999,0.041588
1744,-0.13141,0.989941,-0.050822,-0.000685,0.003375,0.038966
1745,-0.1317829999999999,0.989894,-0.050768,0.001457,0.010609,0.029497
1746,-0.132181,0.989834,-0.050901,0.003153,0.0153389999999999,0.026136
1747,-0.132489,0.989768,-0.051375,0.014173,-0.000373,0.032225
1748,-0.13274,0.989708,-0.051873,0.011005,-0.0033799999999999,0.032647
1749,-0.133013,0.989662,-0.052051,0.005725,-0.001991,0.034869
1750,-0.133399,0.989621,-0.051832,0.001853,0.00719,0.028837
1751,-0.133909,0.989572,-0.051453,0.0067269999999999,0.0064459999999999,0.021454
1752,-0.134469,0.989514,-0.0511089999999999,0.011819,0.000171,0.026023
1753,-0.135022,0.989458,-0.050732,0.015057,-0.00519,0.030774
1754,-0.135604,0.989409,-0.050128,0.012893,-0.002409,0.0330079999999999
1755,-0.136223,0.989371,-0.049173,0.004693,0.004098,0.028742
1756,-0.13692,0.98933,-0.048061,0.003512,0.013112,0.026912
1757,-0.137633,0.989276,-0.047106,0.006483,0.0146139999999999,0.03438
1758,-0.13828,0.989216,-0.046481,0.006672,0.008694,0.0408959999999999
1759,-0.13867,0.989185,-0.04596,0.011351,0.00288,0.059587
1760,-0.138924,0.989187,-0.045148,0.008416,0.011103,0.055219
1761,-0.139092,0.989212,-0.044063,0.005273,0.0221099999999999,0.051662
1762,-0.13929,0.989222,-0.0432,0.003121,0.016836,0.04851
1763,-0.139457,0.989212,-0.042883,0.001029,0.001312,0.054464
1764,-0.139488,0.989207,-0.0429149999999999,-0.000481,-0.002253,0.05326
1765,-0.1393619999999999,0.989226,-0.04289,-0.002636,-0.002821,0.051587
1766,-0.139222,0.989258,-0.042597,-0.001693,0.007034,0.046305
1767,-0.139181,0.989275,-0.042336,0.000128,0.0057659999999999,0.044045
1768,-0.13921,0.98927,-0.042375,-0.000362,0.002857,0.049622
1769,-0.139273,0.989249,-0.042641,-0.0024809999999999,0.004098,0.050438
1770,-0.13932,0.98923,-0.042924,0.002357,0.005017,0.050523
1771,-0.139381,0.989213,-0.043137,0.007209,0.0095819999999999,0.051056
1772,-0.139402,0.98919,-0.043575,0.006392,0.001776,0.052211
1773,-0.139347,0.989169,-0.044229,0.006626,1.2e-05,0.0586029999999999
1774,-0.139258,0.989156,-0.044805,-0.0008179999999999,0.0073799999999999,0.0517629999999999
1775,-0.13918,0.989151,-0.045149,-0.001582,0.010254,0.046522
1776,-0.139121,0.989145,-0.04546,0.000586,0.012106,0.042866
