,gravity.x,gravity.y,gravity.z,userAcceleration.x,userAcceleration.y,userAcceleration.z
0,-0.283589,0.926166,0.2485659999999999,-0.0020559999999999,-0.007114,0.09909
1,-0.290446,0.925339,0.2436829999999999,-0.0006309999999999,0.00705,-0.016556
2,-0.296534,0.923443,0.2435409999999999,0.008509,-0.004177,-0.05984
3,-0.300596,0.920876,0.2482329999999999,0.01457,-0.002496,-0.05968
4,-0.304183,0.917797,0.25517,0.044982,-0.0303459999999999,-0.04405
5,-0.308682,0.915508,0.257976,0.063687,0.021443,-0.0990409999999999
6,-0.312988,0.913581,0.259611,0.015685,0.095604,-0.0769789999999999
7,-0.314775,0.912222,0.262219,0.039034,0.033014,-0.08627
8,-0.315729,0.912131,0.261387,-0.034795,0.001367,-0.018131
9,-0.316983,0.91241,0.258884,-0.039721,0.002064,-0.005817
10,-0.318247,0.913119,0.254804,-0.026923,-0.010897,0.017107
11,-0.319981,0.913364,0.251732,0.00626,-0.0075569999999999,0.016411
12,-0.321623,0.913431,0.249389,0.026686,0.0096189999999999,0.010072
13,-0.3226969999999999,0.91347,0.247851,0.037526,0.009916,0.004987
14,-0.323061,0.91342,0.2475619999999999,0.0348529999999999,0.003008,0.004467
15,-0.322419,0.913584,0.24779,0.0237129999999999,0.002538,0.0040869999999999
16,-0.320811,0.913907,0.248686,0.040874,-0.006024,-0.007445
17,-0.318177,0.914597,0.249533,0.015915,-0.003235,-0.005286
18,-0.315035,0.91554,0.250063,-0.009382,-0.006177,0.007643
19,-0.312085,0.916598,0.249887,-0.029255,-0.008684,0.01676
20,-0.309869,0.917657,0.248753,-0.003622,0.0064,-0.0083349999999999
21,-0.3080699999999999,0.918635,0.247375,-0.005422,0.005422,-0.006957
22,-0.305673,0.919733,0.2462659999999999,0.005715,0.004507,-0.000263
23,-0.303509,0.92075,0.245142,0.00198,0.002483,-0.002985
24,-0.3009739999999999,0.921985,0.2436219999999999,-0.00617,0.00308,0.001709
25,-0.298715,0.923135,0.242038,-0.020086,0.002814,0.011701
26,-0.297101,0.924071,0.2404489999999999,-0.029407,-0.011763,0.020019
27,-0.296303,0.924756,0.238788,-0.027031,-0.021879,0.020016
28,-0.295638,0.925377,0.237202,-0.010301,-0.003075,0.018047
29,-0.294989,0.925878,0.236051,0.004965,0.00561,0.012407
30,-0.294164,0.926276,0.2355159999999999,0.004522,-0.004218,0.015765
31,-0.293753,0.926289,0.23598,-0.008066,0.014889,0.018155
32,-0.293914,0.925751,0.2378809999999999,-0.012971,0.001617,0.021244
33,-0.293699,0.925305,0.239875,-0.032915,-0.015179,0.022759
34,-0.29381,0.92486,0.24145,-0.027357,-0.008615,0.012563
35,-0.294259,0.924478,0.242364,-0.010581,-0.00506,0.006706
36,-0.2948409999999999,0.924207,0.24269,0.002269,-0.007245,0.01117
37,-0.295516,0.924074,0.242373,-0.006089,-0.009432,0.017255
38,-0.295774,0.924294,0.241218,-0.0125,-0.006417,0.013237
39,-0.2957869999999999,0.92446,0.240564,-0.013615,-0.008338,0.008734
40,-0.295635,0.924622,0.2401309999999999,0.003078,0.006973,-0.003055
41,-0.295664,0.92464,0.240026,0.0023899999999999,0.011014,-0.006475
42,-0.295707,0.924464,0.24065,0.00315,0.012395,-0.02016
43,-0.29554,0.924447,0.240919,-0.000648,0.01554,-0.024778
44,-0.295017,0.924727,0.2404869999999999,-0.0042689999999999,0.0071579999999999,-0.017511
45,-0.294672,0.92503,0.239742,-0.003957,-0.004941,-0.002087
46,-0.2945239999999999,0.925429,0.2383849999999999,-0.0077379999999999,0.007921,-0.002286
47,-0.2943739999999999,0.925887,0.236784,-0.0108019999999999,0.003907,0.007647
48,-0.294361,0.926098,0.235976,0.000553,0.00275,0.007295
49,-0.2944449999999999,0.926261,0.235229,-0.007892,8.499999999999999e-05,0.004685
50,-0.294563,0.926309,0.234891,-0.020074,0.009573,0.005877
51,-0.294902,0.926334,0.234366,-0.021047,0.0034289999999999,0.0042049999999999
52,-0.295409,0.926287,0.2339119999999999,-0.010072,0.0018739999999999,0.007955
53,-0.296086,0.926216,0.233338,-0.006663,-0.0001149999999999,0.0143889999999999
54,-0.296769,0.926063,0.233078,0.000993,-0.004188,0.019867
55,-0.2973909999999999,0.925894,0.232957,0.006344,-0.000113,0.007277
56,-0.297666,0.925793,0.233009,0.013685,-0.00082,0.005867
57,-0.297776,0.925823,0.23275,0.005967,0.005818,-0.003563
58,-0.297727,0.925829,0.232789,-0.0067469999999999,0.000655,-0.005463
59,-0.297692,0.92577,0.233067,-0.009071,-0.011662,0.008968
60,-0.2979969999999999,0.925733,0.232825,-0.008766,-0.011625,0.00921
61,-0.298386,0.925735,0.232318,0.0008699999999999,0.0014039999999999,0.004804
62,-0.298798,0.925641,0.2321639999999999,0.00589,0.00867,0.005004
63,-0.299066,0.92555,0.232181,0.004633,0.0071129999999999,-0.001728
64,-0.299238,0.925449,0.232361,0.001585,0.006695,-0.012589
65,-0.299286,0.925449,0.2322989999999999,0.00644,0.000866,-0.012435
66,-0.299309,0.925601,0.2316619999999999,-0.001625,0.015774,-0.011508
67,-0.299274,0.925737,0.2311659999999999,-0.002484,-0.002946,0.00861
68,-0.299315,0.92584,0.230698,0.001357,-0.000807,0.009078
69,-0.299251,0.925957,0.230312,0.003459,0.001259,0.009037
70,-0.299083,0.926039,0.2302,0.009364,0.000307,0.001795
71,-0.2988679999999999,0.926101,0.230228,0.009012,0.001007,0.00021
72,-0.298486,0.926193,0.230357,7e-05,0.011963,0.005743
73,-0.29815,0.926259,0.230526,-0.001823,-0.004857,0.016743
74,-0.297977,0.926448,0.2299909999999999,-0.016339,0.016729,0.011678
75,-0.297778,0.92655,0.2298369999999999,-0.031125,-0.005056,0.021064
76,-0.2975239999999999,0.92653,0.230244,-0.039084,-0.023499,0.006954
77,-0.297369,0.926328,0.231256,-0.0077,-0.021237,-0.013437
78,-0.2974429999999999,0.926293,0.231301,0.039066,0.000877,-0.025872
79,-0.297411,0.926507,0.230482,0.033724,0.010505,-0.011579
80,-0.296761,0.927007,0.2293059999999999,0.019433,0.0102329999999999,-0.010159
81,-0.29578,0.92771,0.2277269999999999,0.007603,0.001459,-0.00179
82,-0.294428,0.928684,0.225498,-0.006033,0.008633,0.023312
83,-0.293102,0.929782,0.22268,-0.032505,0.011777,0.042823
84,-0.292135,0.930673,0.220215,-0.086268,0.009223,0.0737
85,-0.291911,0.93095,0.219336,-0.093038,-0.0253259999999999,0.079309
86,-0.292531,0.930678,0.219663,-0.0796159999999999,-0.012328,0.049609
87,-0.293795,0.929982,0.220919,-0.045118,-0.0069319999999999,0.022626
88,-0.2957079999999999,0.928826,0.2232199999999999,0.001946,-0.007851,-0.012343
89,-0.2978449999999999,0.927479,0.225962,0.035531,0.002712,-0.041178
90,-0.299353,0.92634,0.228628,0.052435,0.00524,-0.050497
91,-0.300128,0.925592,0.230627,0.057254,0.012793,-0.055838
92,-0.300178,0.925324,0.2316349999999999,0.047401,0.013092,-0.05857
93,-0.299571,0.925438,0.2319659999999999,0.029155,0.0119709999999999,-0.046785
94,-0.298846,0.925762,0.231605,0.020007,0.012089,-0.023185
95,-0.298087,0.926216,0.2307699999999999,0.009711,0.021401,-0.018124
96,-0.297362,0.926579,0.2302489999999999,0.017272,0.010341,0.0002189999999999
97,-0.296925,0.926811,0.229878,0.00713,0.010338,0.010067
98,-0.2964449999999999,0.927004,0.229721,0.004224,0.0064069999999999,0.006439
99,-0.295953,0.926957,0.2305449999999999,-0.009223,0.003143,0.003403
100,-0.295456,0.92689,0.231451,-0.018448,-0.005991,0.001627
101,-0.295167,0.926811,0.232133,-0.022552,-0.018013,0.015151
102,-0.294984,0.92683,0.232288,-0.015547,-0.0192379999999999,0.024838
103,-0.294855,0.926877,0.232267,0.0020239999999999,-0.018872,0.039782
104,-0.294678,0.9269,0.232398,0.010483,-0.016012,0.035164
105,-0.29431,0.926907,0.232838,-0.005724,-0.0073209999999999,0.025493
106,-0.293809,0.926863,0.233643,1e-06,-0.0003799999999999,0.009521
107,-0.293155,0.926901,0.234314,0.012439,-0.0008759999999999,0.003922
108,-0.29252,0.927077,0.234415,0.008539,0.0035409999999999,0.0041259999999999
109,-0.29202,0.927156,0.234722,0.000745,0.007963,0.005039
110,-0.291619,0.927191,0.235084,-0.000358,-0.006552,0.011895
111,-0.291373,0.92725,0.235155,-0.000787,0.001415,0.004912
112,-0.290998,0.927283,0.2354889999999999,-0.001452,-0.000586,0.004837
113,-0.290483,0.927257,0.236221,0.007509,-0.0076709999999999,0.012085
114,-0.2897619999999999,0.927395,0.236567,0.011548,0.000996,0.004262
115,-0.288742,0.927791,0.23626,0.001557,0.0145,0.001961
116,-0.288219,0.928213,0.235237,-0.046651,0.004175,0.010628
117,-0.288496,0.928221,0.234866,-0.040285,-0.003203,0.014752
118,-0.288778,0.928067,0.235128,-0.02711,-0.006253,0.016489
119,-0.28886,0.927952,0.235482,-0.001057,0.000591,0.000358
120,-0.288703,0.927877,0.2359659999999999,0.012031,0.010813,-0.00504
121,-0.287998,0.928049,0.236148,0.014103,0.001913,-0.017184
122,-0.28707,0.928216,0.2366239999999999,0.023231,0.008033,-0.044943
123,-0.285836,0.928719,0.236143,0.035439,0.015693,-0.0274339999999999
124,-0.284402,0.929585,0.234457,0.03605,0.0085709999999999,-0.003194
125,-0.283016,0.930633,0.2319639999999999,0.010402,-0.007415,0.009675
126,-0.281174,0.931733,0.229775,-0.013412,-0.024186,0.005272
127,-0.278734,0.932893,0.228036,-0.0354439999999999,-0.00351,0.004431
128,-0.276242,0.933945,0.226759,-0.030368,0.01384,0.009127
129,-0.274042,0.934903,0.2254739999999999,-0.01267,0.005161,0.002782
130,-0.272294,0.935814,0.223803,-0.023833,0.009864,0.01077
131,-0.27108,0.936648,0.22178,-0.038017,0.006834,0.024283
132,-0.270443,0.937306,0.219764,-0.037876,-0.010777,0.029717
133,-0.270366,0.937747,0.2179699999999999,-0.020238,-0.01546,0.043017
134,-0.270923,0.937945,0.216421,-0.010006,-0.018405,0.043696
135,-0.271598,0.937967,0.215477,-0.013574,-0.004831,0.035072
136,-0.272239,0.937852,0.215167,-0.003426,-0.004334,0.022946
137,-0.272669,0.937703,0.215273,0.004115,-0.002171,0.016478
138,-0.272986,0.937557,0.215508,0.0172949999999999,-0.000576,0.005287
139,-0.27318,0.937541,0.215329,0.0145889999999999,0.001668,-0.000775
140,-0.273204,0.937638,0.214876,0.012554,0.006698,-0.005877
141,-0.273005,0.93781,0.214377,0.0160319999999999,0.009089,-0.004874
142,-0.272692,0.938023,0.2138449999999999,0.021899,0.0108609999999999,0.00106
143,-0.272494,0.938218,0.2132409999999999,0.0183289999999999,0.007095,0.0036479999999999
144,-0.272514,0.938349,0.212639,0.000664,0.010458,0.0029519999999999
145,-0.2727989999999999,0.93833,0.212357,-0.001356,-0.007422,0.010589
146,-0.273039,0.938236,0.212464,-0.007585,0.008221,0.008117
147,-0.273542,0.938035,0.212703,-0.0070819999999999,0.008422,0.007878
148,-0.274049,0.937786,0.2131469999999999,-0.000441,0.003101,0.008167
149,-0.274679,0.937498,0.213604,-0.00773,-0.003019,0.0077859999999999
150,-0.2752489999999999,0.937214,0.214113,-0.0075569999999999,-0.006016,0.0078409999999999
151,-0.275667,0.936959,0.214693,0.000413,0.006736,-0.0122849999999999
152,-0.275856,0.936821,0.21505,0.010201,0.012703,-0.0147479999999999
153,-0.27598,0.936802,0.2149719999999999,0.016321,0.014019,-0.016822
154,-0.275943,0.936896,0.214615,0.006701,0.008417,-0.016678
155,-0.275808,0.937068,0.214034,-0.004267,-0.004802,-0.006728
156,-0.2756369999999999,0.937249,0.213463,-0.004118,-0.003365,-0.0053939999999999
157,-0.275361,0.937414,0.213094,0.009294,0.001932,-0.005116
158,-0.274954,0.937589,0.212853,0.010611,0.0016359999999999,-0.013283
159,-0.274307,0.937833,0.21261,0.009751,0.0063799999999999,-0.0177699999999999
160,-0.2733239999999999,0.938188,0.212312,-0.0032869999999999,0.0184919999999999,-0.001832
161,-0.2723239999999999,0.938593,0.211808,-0.019592,0.016745,0.005492
162,-0.271942,0.938804,0.211364,-0.0222169999999999,0.002755,0.00496
163,-0.272182,0.938771,0.2112,-0.015736,-0.008855,0.012921
164,-0.2727969999999999,0.938629,0.21104,0.001511,-0.004303,0.011006
165,-0.273428,0.938429,0.211114,0.01145,0.001894,0.002662
166,-0.273921,0.938191,0.211532,0.023509,0.010876,-0.020278
167,-0.2738219999999999,0.938115,0.211998,0.021121,0.001094,-0.0178
168,-0.273466,0.938179,0.212173,0.02278,0.00251,-0.007369
169,-0.273135,0.938323,0.211961,0.015628,0.001847,-0.002061
170,-0.272816,0.938524,0.2114849999999999,0.0003399999999999,-0.001344,0.0021379999999999
171,-0.272417,0.938738,0.2110449999999999,-0.008909,-0.006014,0.009216
172,-0.272037,0.938933,0.210668,-0.0077329999999999,-0.008284,0.012308
173,-0.271727,0.9391,0.2103239999999999,-0.002779,-0.0017519999999999,0.01192
174,-0.2715059999999999,0.939231,0.210025,-0.004999,0.002694,0.0125709999999999
175,-0.271329,0.939319,0.20986,-0.01456,0.002637,0.008921
176,-0.271155,0.939361,0.2098949999999999,-0.020074,0.0068819999999999,0.007116
177,-0.271128,0.939343,0.210011,-0.035299,0.011234,0.012859
178,-0.271496,0.939215,0.210108,-0.039524,0.007043,0.031042
179,-0.272338,0.938976,0.210086,-0.017258,0.015125,0.037808
180,-0.273378,0.938697,0.209981,-0.009337,0.0046619999999999,0.014613
181,-0.273943,0.938408,0.210537,-0.0037979999999999,0.006416,-0.0134389999999999
182,-0.274179,0.938223,0.211055,0.012597,0.00686,-0.026835
183,-0.273973,0.938128,0.211745,0.037401,0.005979,-0.021071
184,-0.2736909999999999,0.938176,0.211898,0.0535519999999999,-0.002522,-0.019561
185,-0.273348,0.938336,0.211628,0.043993,-0.007199,-0.018695
186,-0.272902,0.93858,0.2111219999999999,0.0233139999999999,-0.0007599999999999,-0.012956
187,-0.272511,0.938715,0.211027,-0.000881,-0.022959,-0.007093
188,-0.272101,0.938851,0.21095,0.022574,-0.000604,-0.011136
189,-0.27175,0.938921,0.211092,0.023016,0.004622,-0.004
190,-0.27116,0.939157,0.210799,0.0124319999999999,0.0074069999999999,-0.000975
191,-0.270377,0.939516,0.210206,-0.025293,0.007018,6e-05
192,-0.269667,0.939759,0.210027,-0.026003,0.006774,0.000239
193,-0.269028,0.939912,0.210159,-0.011871,0.005034,-0.010482
194,-0.268464,0.939971,0.210617,0.002702,0.008744,-0.023239
195,-0.267859,0.940036,0.211096,0.005255,0.0126769999999999,-0.024237
196,-0.267293,0.940171,0.2112079999999999,0.004064,0.014938,-0.023448
197,-0.266863,0.940339,0.211003,0.008669,0.004012,0.010616
198,-0.266413,0.940534,0.210703,0.008219,0.003817,0.010916
199,-0.265939,0.940734,0.2104059999999999,-0.001242,-0.001464,0.0201849999999999
200,-0.265372,0.940875,0.21049,-0.016443,-0.001864,0.017812
201,-0.264853,0.940897,0.21104,-0.019555,0.000951,0.010197
202,-0.264471,0.940857,0.211694,-0.023066,0.005874,0.006384
203,-0.264296,0.940813,0.21211,-0.007875,-0.005723,0.00989
204,-0.264221,0.94078,0.2123449999999999,-0.012527,-0.0004269999999999,0.008312
205,-0.264076,0.94075,0.212661,-0.014931,-0.000595,-0.000671
206,-0.263917,0.940719,0.2129909999999999,-0.002136,-0.005874,-0.003061
207,-0.263821,0.940727,0.2130719999999999,-0.000415,0.002602,0.002107
208,-0.263736,0.940774,0.21297,0.001331,0.000617,0.009229
209,-0.263756,0.940816,0.21276,-0.01342,0.010249,0.008874
210,-0.263741,0.940852,0.2126219999999999,-0.004188,0.00414,0.009043
211,-0.263648,0.940893,0.212556,-0.005334,0.0002379999999999,0.00122
212,-0.263509,0.940969,0.2123949999999999,-0.005122,0.0059159999999999,0.002205
213,-0.263403,0.941077,0.2120449999999999,-0.008447,0.000299,0.0017
214,-0.263392,0.941195,0.211536,-0.003988,-0.001925,0.016217
215,-0.263399,0.94132,0.210972,-0.006376,-0.003392,0.0211449999999999
216,-0.263339,0.941419,0.210602,-0.002027,-0.0082989999999999,0.018997
217,-0.263209,0.941504,0.210386,-0.001348,-0.00733,0.010454
218,-0.2629849999999999,0.941614,0.2101739999999999,-0.004013,-0.001001,0.00853
219,-0.262853,0.941723,0.209852,-0.010523,-0.0012929999999999,0.007678
220,-0.262873,0.941794,0.209509,-0.009557,-0.009497,0.014841
221,-0.262986,0.941821,0.209246,-0.007872,-0.005297,0.021665
222,-0.263139,0.941825,0.209037,-0.006987,-0.002112,0.021065
223,-0.263288,0.941801,0.208956,-0.007311,-0.0007769999999999,0.013883
224,-0.263465,0.941735,0.209031,-0.011071,-0.001718,0.00035
225,-0.263707,0.94158,0.209427,-0.006709,-0.001592,-0.009704
226,-0.263964,0.941413,0.209851,0.0036799999999999,-8.3e-05,-0.018277
227,-0.264157,0.941264,0.210273,0.010617,0.006306,-0.019263
228,-0.264193,0.941155,0.210718,0.008989,0.012596,-0.0263
229,-0.264013,0.941121,0.211096,-0.00059,0.026195,-0.033575
230,-0.26378,0.941148,0.211267,0.007325,0.030593,-0.035334
231,-0.263463,0.941304,0.2109639999999999,0.026128,0.01948,-0.042217
232,-0.2625159999999999,0.94176,0.21011,0.030659,0.0314459999999999,-0.012798
233,-0.261236,0.942586,0.2079889999999999,-0.0303139999999999,0.005321,0.046894
234,-0.260027,0.943727,0.204299,-0.05905,-0.021913,0.074952
235,-0.259979,0.944733,0.199656,-0.084198,-0.053544,0.105245
236,-0.26128,0.945027,0.196546,-0.039257,-0.065647,0.098575
237,-0.263262,0.944367,0.197067,-0.001615,-0.053361,0.0699159999999999
238,-0.265131,0.943193,0.2001619999999999,0.02685,-0.036272,0.03403
239,-0.266541,0.94162,0.2056219999999999,0.042114,0.014206,-0.0911049999999999
240,-0.266489,0.940328,0.211515,0.043528,0.019007,-0.106153
241,-0.265391,0.939312,0.217334,0.04011,0.031163,-0.118747
242,-0.263433,0.938819,0.2217989999999999,0.001485,0.065713,-0.094891
243,-0.261827,0.938881,0.223431,-0.0147229999999999,0.062676,-0.088361
244,-0.260963,0.93937,0.22238,-0.023262,0.0522679999999999,-0.0904529999999999
245,-0.260449,0.940194,0.219482,0.002621,0.044288,-0.007522
246,-0.260552,0.941076,0.215547,0.0071189999999999,0.032359,0.023589
247,-0.260861,0.942116,0.2105679999999999,0.003415,0.013587,0.053501
248,-0.26143,0.943028,0.205726,-0.021956,-0.0503889999999999,0.1138839999999999
249,-0.262034,0.943455,0.202983,-0.01238,-0.0518529999999999,0.114049
250,-0.262148,0.943512,0.20257,0.0030989999999999,-0.046402,0.100225
251,-0.2615949999999999,0.94334,0.204077,0.004118,-0.031536,0.0142
252,-0.2610719999999999,0.943124,0.2057389999999999,-0.005652,-0.026208,0.003825
253,-0.260978,0.942779,0.207429,-0.032097,-0.006653,-0.035112
254,-0.261338,0.942302,0.209136,-0.018813,0.013631,-0.030151
255,-0.2618,0.941766,0.210965,-0.004786,0.0218569999999999,-0.039792
256,-0.2620619999999999,0.941294,0.212738,0.0273209999999999,0.03713,-0.051025
257,-0.262241,0.941012,0.213763,0.025638,0.027707,-0.048815
258,-0.2624039999999999,0.940896,0.2140719999999999,0.0256029999999999,0.023032,-0.0409
259,-0.262471,0.941019,0.213448,0.020589,0.0146539999999999,-0.023888
260,-0.26228,0.941346,0.2122389999999999,0.015805,0.006057,0.007487
261,-0.262381,0.941726,0.2104199999999999,-0.012994,-0.021758,0.0347279999999999
262,-0.262754,0.942001,0.208718,-0.035021,-0.017456,0.038596
263,-0.263228,0.942161,0.2073969999999999,-0.0239729999999999,-0.039573,0.042496
264,-0.26402,0.942108,0.20663,0.002118,-0.0081319999999999,0.015172
265,-0.264623,0.941874,0.206923,0.01824,-0.000712,0.006349
266,-0.264661,0.941693,0.2076989999999999,-0.00342,0.00655,-0.016094
267,-0.264454,0.94143,0.20915,-0.018764,0.016914,-0.0304389999999999
268,-0.264128,0.941168,0.210732,-0.00934,0.017542,-0.04554
269,-0.263702,0.941095,0.2115909999999999,0.003281,0.018164,-0.045301
270,-0.263295,0.941231,0.211493,0.0186199999999999,0.022788,-0.027411
271,-0.2630159999999999,0.941465,0.210798,0.012192,0.007921,-0.005415
272,-0.262733,0.941705,0.210078,-0.0046619999999999,0.005561,0.002843
273,-0.262265,0.941894,0.209815,-0.006762,0.000672,0.014336
274,-0.261772,0.941989,0.210005,-0.010811,-0.0026579999999999,0.015993
275,-0.2613,0.941995,0.2105639999999999,-0.012702,-0.00448,0.008979
276,-0.260914,0.941894,0.211492,-0.014309,-0.0054009999999999,0.004252
277,-0.2606719999999999,0.941715,0.212587,-0.002176,-0.001819,0.000731
278,-0.260579,0.941534,0.2135,-0.002391,-0.000921,0.001008
279,-0.260476,0.941341,0.2144739999999999,-0.000266,-0.001537,0.001025
280,-0.260466,0.941111,0.21549,-0.002305,0.0072989999999999,-0.004522
281,-0.26052,0.940846,0.216582,0.002982,0.007244,-0.002089
282,-0.260705,0.940523,0.217759,0.008431,0.003783,-0.001634
283,-0.260921,0.940172,0.219016,0.005153,0.003676,0.004113
284,-0.26105,0.939862,0.220188,-0.006467,0.001727,0.004513
285,-0.261218,0.939589,0.221152,-0.006299,0.002,0.003549
286,-0.261439,0.939421,0.221607,-0.000265,0.0039689999999999,-0.008411
287,-0.261363,0.939534,0.221216,0.001841,0.010783,-0.0682779999999999
288,-0.26047,0.939766,0.221282,-0.025755,0.014549,-0.029281
289,-0.260423,0.940208,0.219455,-0.015975,0.00512,-0.0129729999999999
290,-0.261324,0.94087,0.2155119999999999,0.01697,-0.003568,0.031116
291,-0.262251,0.941411,0.211992,0.022093,-0.00472,0.049468
292,-0.262935,0.94174,0.2096719999999999,0.029369,-0.005033,0.054183
293,-0.263024,0.941799,0.2092929999999999,0.01931,-0.005154,0.033261
294,-0.262614,0.941687,0.210309,0.014247,-0.001074,0.01694
295,-0.261921,0.941535,0.21185,0.007755,0.0012439999999999,-0.002561
296,-0.261334,0.941357,0.21336,-0.007236,0.006534,-0.024457
297,-0.261297,0.941252,0.2138679999999999,-0.006586,0.0088209999999999,-0.024766
298,-0.2614849999999999,0.941212,0.2138139999999999,-0.008001,0.012019,-0.020363
299,-0.261651,0.941222,0.213571,0.006402,0.009904,0.004523
300,-0.261776,0.941241,0.21333,0.00372,0.006177,0.004275
301,-0.261841,0.941179,0.213527,-0.003006,0.001646,0.006291
302,-0.261878,0.941111,0.213782,-0.006295,0.0026449999999999,-0.005179
303,-0.261964,0.941063,0.213888,0.001985,0.006356,-0.0080769999999999
304,-0.2620099999999999,0.94101,0.214065,0.000703,-0.002441,0.002427
305,-0.262237,0.940966,0.213976,-0.001176,-0.001391,0.002302
306,-0.262375,0.94093,0.213965,-0.003525,-0.0007599999999999,0.0081879999999999
307,-0.262497,0.94088,0.2140369999999999,0.002762,0.005287,0.000197
308,-0.262556,0.940782,0.2143969999999999,0.005308,0.008864,-0.00909
309,-0.262637,0.940709,0.2146179999999999,0.004092,0.007137,-0.0134159999999999
310,-0.262621,0.940683,0.2147489999999999,0.0016809999999999,0.0065209999999999,-0.01225
311,-0.262611,0.940701,0.2146829999999999,0.004005,0.008472,-0.007164
312,-0.262677,0.940734,0.214457,-0.00362,0.0083629999999999,-0.003169
313,-0.262778,0.940766,0.214194,-0.016046,0.002532,-0.00904
314,-0.262738,0.940865,0.213808,-0.008289,0.003242,-0.014758
315,-0.2624579999999999,0.94112,0.213024,-0.0038689999999999,0.001934,0.002277
316,-0.262471,0.941335,0.212056,0.005147,-0.002126,0.0140949999999999
317,-0.262831,0.941415,0.211257,0.012602,-0.004617,0.023225
318,-0.263132,0.941415,0.210882,0.004999,-0.005746,0.01803
319,-0.263237,0.94133,0.21113,0.000709,-0.000671,0.002768
320,-0.263216,0.941211,0.211686,0.001619,0.003507,-0.0085
321,-0.263221,0.941114,0.212109,-0.001092,0.010668,-0.017163
322,-0.263303,0.941074,0.212188,-0.002475,0.005917,-0.009063
323,-0.263424,0.94108,0.212011,-0.003757,0.000678,0.000696
324,-0.263569,0.941066,0.2118929999999999,-0.00259,0.00475,0.006873
325,-0.263644,0.941048,0.211878,0.002002,0.0058969999999999,0.0069939999999999
326,-0.263734,0.941015,0.211915,-0.000136,-0.005331,0.0028829999999999
327,-0.263795,0.940955,0.212105,0.001313,-0.004202,-0.002495
328,-0.263885,0.940899,0.21224,0.001495,-0.002957,-0.00414
329,-0.2639559999999999,0.940869,0.212286,0.001413,0.002368,-0.003744
330,-0.263975,0.940866,0.212277,-4.8e-05,0.002662,-0.002393
331,-0.263951,0.940857,0.212344,0.001866,0.002655,-0.0030239999999999
332,-0.26397,0.940826,0.2124599999999999,-0.002311,0.0066989999999999,0.0009339999999999
333,-0.264007,0.940784,0.2126019999999999,-0.002274,0.006741,0.000793
334,-0.263991,0.940739,0.212819,0.00099,0.005809,-0.00327
335,-0.264003,0.9407,0.212973,0.002407,0.008381,-0.009131
336,-0.263974,0.940692,0.213048,0.001859,0.0072299999999999,-0.005758
337,-0.263947,0.940693,0.213073,0.0039829999999999,0.004909,-0.0074
338,-0.263928,0.940702,0.213057,0.001126,0.003679,-0.010161
339,-0.2639039999999999,0.940723,0.212995,0.00069,0.001614,-0.008345
340,-0.263878,0.940753,0.212894,0.000251,0.0033539999999999,-0.00716
341,-0.263834,0.940788,0.212797,0.001795,0.002343,-0.004301
342,-0.263823,0.940802,0.2127489999999999,0.004774,0.003107,-0.004772
343,-0.263778,0.940823,0.2127119999999999,0.004821,0.005115,-0.0038799999999999
344,-0.26368,0.940852,0.212706,0.002144,0.00498,-0.009276
345,-0.263585,0.940875,0.2127219999999999,0.000783,0.005476,-0.008376
346,-0.2635119999999999,0.940906,0.212671,0.001046,0.00404,-0.008157
347,-0.263421,0.940933,0.212664,0.000634,0.004181,-0.005312
348,-0.263345,0.940955,0.212661,0.001214,0.005456,-0.003127
349,-0.263301,0.940972,0.212639,0.000408,0.00373,-0.003014
350,-0.26328,0.940975,0.212657,0.001134,0.002095,-0.002558
351,-0.263241,0.940958,0.212778,0.001537,0.000753,-0.005121
352,-0.263169,0.940935,0.212971,0.003952,0.00389,-0.0052829999999999
353,-0.263038,0.940928,0.213161,-0.000588,0.000753,-0.006587
354,-0.262915,0.940918,0.213359,0.006445,0.002487,-0.004543
355,-0.262787,0.940943,0.2134039999999999,0.003814,0.002676,-0.0063729999999999
356,-0.262611,0.940962,0.2135389999999999,0.0038829999999999,0.003023,-0.002892
357,-0.262428,0.940982,0.213677,0.0037,0.0037359999999999,-0.004464
358,-0.262233,0.940996,0.213851,0.004833,0.004698,-0.011138
359,-0.262021,0.94101,0.214049,0.00195,0.008361,-0.006178
360,-0.2618769999999999,0.941014,0.2142099999999999,-0.000666,0.010631,-0.007683
361,-0.261823,0.940983,0.214412,0.003706,0.006435,-0.0056409999999999
362,-0.261791,0.940947,0.214609,0.004513,0.002672,-0.003046
363,-0.261757,0.940897,0.214869,-0.000847,0.004263,0.000569
364,-0.261784,0.940828,0.215141,0.0018809999999999,0.0043479999999999,0.001183
365,-0.261891,0.94072,0.215482,0.008794,-0.0017399999999999,0.000186
366,-0.2620099999999999,0.940574,0.2159719999999999,0.011003,0.000405,-0.005248
367,-0.2619849999999999,0.940426,0.21665,0.006186,3.5e-05,-0.010351
368,-0.261943,0.940291,0.2172849999999999,0.007228,0.000184,-0.014374
369,-0.261905,0.940175,0.217833,0.010654,0.005839,-0.011961
370,-0.261823,0.940093,0.2182849999999999,0.011503,0.006639,-0.0093
371,-0.261653,0.940075,0.2185679999999999,0.000621,0.0045969999999999,-0.005113
372,-0.261481,0.940035,0.2189469999999999,0.000449,0.004637,-0.0054909999999999
373,-0.261309,0.940001,0.219296,0.005953,0.0028699999999999,-0.003415
374,-0.261101,0.939989,0.219594,-0.000618,0.004622,-0.004735
375,-0.260915,0.939973,0.219885,-0.0008039999999999,0.004638,-0.005026
376,-0.26075,0.939976,0.220065,-0.004859,0.003307,-0.005771
377,-0.260671,0.93994,0.2203119999999999,0.005331,0.001924,0.0016719999999999
378,-0.2606699999999999,0.939888,0.220538,0.007206,0.004967,0.000867
379,-0.260687,0.939835,0.220744,0.001471,-0.000549,0.007436
380,-0.260694,0.939751,0.221094,-0.004535,-0.004204,0.006475
381,-0.2607219999999999,0.939648,0.221496,-0.0012259999999999,-0.002102,0.007279
382,-0.260774,0.93952,0.221976,-0.0055369999999999,-0.002402,0.0073939999999999
383,-0.260857,0.939367,0.222527,-0.001808,0.003443,0.001839
384,-0.260948,0.939214,0.223066,0.001945,0.004771,-0.001615
385,-0.26102,0.939076,0.223561,-0.0002109999999999,0.008037,-0.00887
386,-0.261048,0.938965,0.2239969999999999,0.0031739999999999,0.011169,-0.014173
387,-0.261078,0.938924,0.224133,0.0070959999999999,0.010875,-0.015194
388,-0.261146,0.938946,0.223961,0.003227,0.007511,-0.007668
389,-0.261244,0.938973,0.223734,0.005522,0.003196,-0.001001
390,-0.261285,0.939006,0.223546,0.002801,0.000264,0.001643
391,-0.261247,0.939058,0.223372,0.004868,0.002409,0.000551
392,-0.261214,0.939087,0.223289,0.00627,0.0026089999999999,-0.0028
393,-0.261175,0.939099,0.223286,0.006399,0.0001409999999999,-0.004292
394,-0.261185,0.939102,0.223259,0.002671,0.00206,-0.004921
395,-0.261266,0.939095,0.2231949999999999,0.002385,0.000709,-0.001912
396,-0.2613,0.939103,0.223123,0.003747,0.001098,-0.003717
397,-0.261298,0.939123,0.223041,0.003104,0.002116,-0.005527
398,-0.261306,0.939145,0.22294,0.000884,0.0072819999999999,-0.00477
399,-0.261354,0.939164,0.222803,0.0039689999999999,0.001968,-0.0034579999999999
400,-0.261432,0.93917,0.222684,0.003314,0.0014269999999999,-0.004148
401,-0.261471,0.939189,0.2225619999999999,0.001431,0.007909,-0.0057799999999999
402,-0.261466,0.939211,0.2224719999999999,6.8e-05,0.01074,-0.009719
403,-0.261495,0.939235,0.22234,0.001547,0.009267,-0.014957
404,-0.261571,0.939265,0.2221219999999999,-0.00323,0.0068709999999999,-0.023941
405,-0.261658,0.939324,0.221773,-0.0083,0.0096049999999999,-0.037385
406,-0.261635,0.939457,0.221236,-0.008614,0.024441,-0.041594
407,-0.261553,0.939661,0.220463,-0.003859,0.028341,-0.0371439999999999
408,-0.261714,0.939878,0.219344,0.011333,0.013811,-0.01953
409,-0.262183,0.940076,0.21793,0.017096,-0.006162,0.016003
410,-0.262757,0.940188,0.216756,0.01564,-0.025439,0.0377459999999999
411,-0.263019,0.940171,0.216509,0.017246,-0.024567,0.0369699999999999
412,-0.26286,0.940074,0.2171199999999999,0.014554,-0.00909,0.025327
413,-0.262468,0.939951,0.218128,-0.00807,0.0143639999999999,-0.018406
414,-0.262262,0.939852,0.218801,-0.008276,0.014463,-0.019079
415,-0.262368,0.939759,0.219074,-0.013953,0.019912,-0.027317
416,-0.262712,0.939707,0.218887,-0.005599,0.017126,-0.01181
417,-0.26314,0.939705,0.218381,-0.000135,0.01014,-0.008451
418,-0.26356,0.939728,0.2177739999999999,0.004527,0.003433,-0.004639
419,-0.264049,0.939743,0.217115,0.017054,-0.000443,0.004366
420,-0.264523,0.939745,0.216532,0.0241669999999999,-0.002641,0.007406
421,-0.264841,0.939706,0.216313,0.024606,-0.000741,0.007823
422,-0.264947,0.939658,0.216388,0.025064,-0.002433,0.00604
423,-0.264973,0.939611,0.2165639999999999,0.011906,-2e-05,0.003239
424,-0.265023,0.939532,0.216844,0.009301,-0.0004599999999999,0.003477
425,-0.265055,0.939457,0.21713,0.0071049999999999,0.00198,-0.000394
426,-0.265032,0.939402,0.2173949999999999,0.007326,0.0050869999999999,-0.003864
427,-0.265018,0.939358,0.217602,0.008609,0.008106,-0.00729
428,-0.2650369999999999,0.939333,0.21769,0.007194,0.005202,-0.002908
429,-0.265086,0.939302,0.2177599999999999,0.006816,0.002867,-0.002764
430,-0.2651179999999999,0.939278,0.217828,0.006039,0.007546,-0.006845
431,-0.265107,0.939254,0.217941,0.010637,0.008088,-0.011459
432,-0.2650969999999999,0.939245,0.217994,0.0105799999999999,0.009089,-0.012199
433,-0.265081,0.939266,0.217923,0.012289,0.002766,-0.0018739999999999
434,-0.26505,0.939281,0.217898,0.010091,0.000325,0.003797
435,-0.2649559999999999,0.93926,0.218103,0.002154,0.005564,-0.004953
436,-0.264772,0.939223,0.2184829999999999,0.0011619999999999,0.008241,-0.0095599999999999
437,-0.2645929999999999,0.9392,0.218798,0.001761,0.0091939999999999,-0.018282
438,-0.26441,0.939214,0.218959,0.009009,0.0077,-0.019099
439,-0.264186,0.939276,0.218962,0.008281,0.014856,-0.022291
440,-0.263894,0.93936,0.218954,-0.005194,0.023561,-0.017462
441,-0.263626,0.939461,0.2188449999999999,0.010803,0.004966,-0.026218
442,-0.263136,0.939666,0.218556,0.01689,0.004609,-0.0187419999999999
443,-0.262439,0.940073,0.21764,0.002567,0.004446,0.008297
444,-0.261847,0.940623,0.2159719999999999,-0.019937,-0.004146,0.033967
445,-0.261602,0.941093,0.214214,-0.035731,-0.020133,0.054371
446,-0.261746,0.941233,0.2134199999999999,-0.014194,-0.018595,0.050084
447,-0.262109,0.941006,0.2139739999999999,0.006936,-0.005521,0.022553
448,-0.262498,0.940575,0.21539,0.012131,-0.0038229999999999,-0.013013
449,-0.26281,0.94011,0.217032,0.0081409999999999,-0.004258,-0.043052
450,-0.263065,0.939726,0.218386,0.012729,0.020495,-0.0540789999999999
451,-0.26321,0.939513,0.219128,0.015346,0.027315,-0.057644
452,-0.263134,0.939497,0.2192869999999999,0.025402,0.0219439999999999,-0.052798
453,-0.262627,0.939784,0.218663,0.008659,0.0291339999999999,-0.026876
454,-0.26214,0.940279,0.2171159999999999,-0.0144409999999999,0.020857,0.002748
455,-0.261982,0.940771,0.215163,-0.021847,-0.001302,0.036134
456,-0.262226,0.94108,0.213508,-0.009595,-0.016627,0.053201
457,-0.262559,0.941068,0.213153,0.00403,-0.014051,0.049497
458,-0.2626679999999999,0.940894,0.213785,0.01868,-0.009635,-0.013911
459,-0.262432,0.940755,0.214686,0.018444,-0.009496,-0.014811
460,-0.262191,0.94066,0.215398,0.00537,0.004454,-0.032049
461,-0.261969,0.940646,0.21573,0.0050409999999999,0.01463,-0.0412
462,-0.261601,0.94079,0.21555,0.004674,0.014487,-0.04102
463,-0.261153,0.941142,0.214556,-0.004762,0.019902,-0.0127739999999999
464,-0.2609579999999999,0.941517,0.213144,-0.003888,0.013363,0.021261
465,-0.260978,0.941777,0.211969,0.0025239999999999,0.011714,0.025778
466,-0.260897,0.941935,0.211365,0.005251,0.009954,0.025253
467,-0.2606699999999999,0.94201,0.211313,0.009419,0.000495,-0.019784
468,-0.26044,0.942092,0.21123,0.014575,-0.00859,-0.019656
469,-0.260327,0.942198,0.210898,0.0117299999999999,-0.011732,-0.003913
470,-0.260181,0.942334,0.210468,0.009067,-0.0100069999999999,-0.004169
471,-0.259866,0.942432,0.2104199999999999,0.005807,-0.0042,0.0004559999999999
472,-0.259459,0.942553,0.2103789999999999,-0.005251,0.007352,-0.011343
473,-0.2590469999999999,0.942682,0.210308,-0.011491,0.0152039999999999,-0.014583
474,-0.258939,0.942818,0.209834,-0.004458,0.0139389999999999,-0.002803
475,-0.258983,0.942941,0.209223,0.007625,0.009588,0.0062159999999999
476,-0.259034,0.943038,0.208726,0.013444,0.0038619999999999,0.0146629999999999
477,-0.258951,0.943137,0.20838,0.003763,0.004113,0.009394
478,-0.258814,0.943199,0.2082699999999999,-0.0033009999999999,-0.005363,0.002393
479,-0.258862,0.943226,0.208087,-0.003193,-0.007145,0.004162
480,-0.259057,0.943205,0.20794,0.008019,-0.00807,0.00817
481,-0.259152,0.943186,0.2079079999999999,0.003629,0.0004179999999999,0.001808
482,-0.259223,0.943133,0.208062,0.00698,0.011473,-0.007486
483,-0.25922,0.943085,0.208279,0.010395,0.013793,-0.013486
484,-0.25923,0.943067,0.20835,0.009535,0.010729,-0.009284
485,-0.259195,0.943102,0.2082389999999999,0.001519,0.009856,-0.011812
486,-0.259096,0.943126,0.208252,0.00342,0.008306,-0.017166
487,-0.259006,0.943153,0.2082409999999999,0.009829,0.009575,-0.020665
488,-0.25897,0.943196,0.208091,0.009168,0.012202,-0.014273
489,-0.258942,0.943249,0.207885,0.011597,0.005954,-0.013824
490,-0.258914,0.943283,0.207767,0.0134,0.006104,-0.014088
491,-0.258928,0.943274,0.20779,0.008486,0.006494,-0.017391
492,-0.25899,0.943207,0.2080199999999999,0.008806,0.00882,-0.024472
493,-0.25895,0.943145,0.2083469999999999,0.012673,0.010422,-0.026905
494,-0.258736,0.943169,0.208503,0.00547,0.010856,-0.027168
495,-0.258449,0.943227,0.2085989999999999,0.000179,0.017695,-0.021572
496,-0.258191,0.943277,0.208695,0.008451,0.0192169999999999,-0.024658
497,-0.257925,0.943312,0.208865,0.028616,0.024187,-0.03464
498,-0.257259,0.943485,0.208901,0.033107,0.019802,-0.0274589999999999
499,-0.256188,0.943887,0.208401,0.027169,0.023719,-0.007427
500,-0.25495,0.944535,0.206976,0.005683,0.013931,0.021021
501,-0.25378,0.945349,0.204683,-0.008305,0.008051,0.042311
502,-0.253201,0.946095,0.2019359999999999,-0.042118,-0.038349,0.0849289999999999
503,-0.253601,0.946442,0.199793,-0.024475,-0.046769,0.0914669999999999
504,-0.254613,0.946391,0.198747,0.009572,-0.056834,0.0778799999999999
505,-0.256089,0.946037,0.1985309999999999,0.00998,-0.045708,0.057237
506,-0.258108,0.94523,0.199757,0.008291,-0.0329529999999999,0.036815
507,-0.260531,0.944017,0.2023319999999999,-0.00253,-0.021089,0.018539
508,-0.2630349999999999,0.942504,0.206109,-0.004726,-0.016189,0.00518
509,-0.264879,0.940738,0.2117389999999999,0.005236,0.018811,-0.072793
510,-0.265336,0.939,0.218764,0.005692,0.020548,-0.079818
511,-0.264634,0.937273,0.2268739999999999,0.005143,0.0517409999999999,-0.140341
512,-0.263284,0.935797,0.2344099999999999,-0.010626,0.082376,-0.147847
513,-0.26226,0.935029,0.238583,-0.01165,0.083144,-0.15202
514,-0.262646,0.935079,0.237965,-0.040927,0.053844,-0.126057
515,-0.264144,0.935512,0.234579,-0.003068,0.020924,-0.031561
516,-0.266072,0.93605,0.2302139999999999,0.011571,0.018128,-0.005879
517,-0.267975,0.936669,0.225437,0.031967,0.0129919999999999,0.0138819999999999
518,-0.2689809999999999,0.937444,0.220977,0.075957,-0.014745,0.039597
519,-0.268719,0.938133,0.218354,0.060864,-0.013557,0.038452
520,-0.267692,0.938434,0.218323,0.023781,-0.017352,0.037292
521,-0.266472,0.938514,0.2194699999999999,0.036354,-0.016791,0.009061
522,-0.2650639999999999,0.938656,0.220563,0.056445,0.009189,0.00458
523,-0.263464,0.938881,0.22152,0.0509089999999999,0.021965,0.007606
524,-0.261667,0.93916,0.222463,0.0285589999999999,0.0264769999999999,0.005671
525,-0.259776,0.939526,0.223132,0.021174,0.017459,0.005124
526,-0.258042,0.940045,0.222959,0.01796,0.020954,0.0114159999999999
527,-0.2564909999999999,0.940734,0.221835,0.00257,0.017335,0.024503
528,-0.255374,0.941427,0.220178,-0.018857,0.001887,0.045706
529,-0.254973,0.94188,0.218702,-0.043748,-0.034119,0.073793
530,-0.255465,0.942,0.217607,-0.039243,-0.035613,0.073332
531,-0.256428,0.941731,0.217636,-0.00883,-0.029957,0.0608059999999999
532,-0.257665,0.941086,0.218964,0.011998,-0.033066,0.024002
533,-0.258928,0.940162,0.22143,0.004305,-0.019462,-0.0043729999999999
534,-0.260049,0.939071,0.224719,-0.01934,-0.007278,-0.019824
535,-0.261036,0.937871,0.228554,-0.0405839999999999,0.006862,-0.03904
536,-0.262148,0.936565,0.2325989999999999,-0.041716,0.016102,-0.063913
537,-0.263348,0.935306,0.236278,-0.031284,0.032833,-0.085628
538,-0.2642739999999999,0.934316,0.239144,-0.00718,0.031794,-0.091851
539,-0.265107,0.933844,0.240064,0.003144,0.051279,-0.092252
540,-0.265432,0.933942,0.2393219999999999,0.021261,0.054705,-0.071262
541,-0.264797,0.9345,0.2378429999999999,0.018871,0.02955,-0.062199
542,-0.263059,0.935459,0.235996,-0.0259889999999999,-0.005085,-0.027775
543,-0.261704,0.93649,0.2333989999999999,-0.057602,-0.012601,-0.007203
544,-0.2615159999999999,0.937473,0.229636,-0.05042,0.011563,0.0102329999999999
545,-0.261598,0.938649,0.224687,-0.019301,0.002849,0.049895
546,-0.262104,0.939788,0.219269,0.009983,-0.034942,0.092529
547,-0.262936,0.94047,0.2153119999999999,0.028714,-0.058985,0.121343
548,-0.263926,0.940366,0.214554,0.0477089999999999,-0.056516,0.1025089999999999
549,-0.264805,0.939672,0.216503,0.042424,-0.017873,0.02573
550,-0.265442,0.938545,0.220569,0.056732,0.0079569999999999,-0.029255
551,-0.265536,0.937411,0.22523,0.0566429999999999,0.034802,-0.067774
552,-0.265053,0.936539,0.229388,0.048805,0.043502,-0.084995
553,-0.264044,0.935994,0.232752,0.036261,0.049861,-0.102122
554,-0.263154,0.935917,0.2340679999999999,0.0238199999999999,0.048,-0.087629
555,-0.262477,0.936195,0.2337119999999999,0.01913,0.045464,-0.073007
556,-0.261709,0.936685,0.2326099999999999,0.013265,0.045477,-0.051671
557,-0.260892,0.937344,0.230867,0.031522,0.0293149999999999,-0.006212
558,-0.260002,0.937901,0.229607,0.0312879999999999,0.028713,-0.002312
559,-0.258952,0.938486,0.2284,0.0270949999999999,0.028738,0.005945
560,-0.257946,0.939151,0.226801,0.001552,-0.004184,0.036108
561,-0.257333,0.939685,0.22528,-0.002326,-0.015323,0.035843
562,-0.257148,0.939956,0.224361,-0.00216,-0.021148,0.044011
563,-0.257275,0.939935,0.224304,0.027416,-0.020318,0.033707
564,-0.257521,0.939684,0.225071,0.029799,-0.017763,0.029568
565,-0.257648,0.939299,0.226526,0.026279,-0.014403,0.020452
566,-0.257701,0.938777,0.22862,-0.004963,-0.00613,-0.003461
567,-0.257778,0.938238,0.230737,-0.004886,-0.0055899999999999,-0.005578
568,-0.257807,0.937676,0.232978,-0.012426,0.011649,-0.023795
569,-0.257785,0.937169,0.235032,-0.001324,0.030055,-0.040879
570,-0.2577,0.936875,0.2362909999999999,0.003718,0.0312339999999999,-0.042733
571,-0.2575179999999999,0.936865,0.23653,0.002788,0.0307399999999999,-0.033283
572,-0.257411,0.937155,0.235496,-0.019872,0.008768,0.003594
573,-0.257612,0.937521,0.233814,-0.021761,-0.000692,0.020123
574,-0.257914,0.937878,0.23204,-0.017721,-0.008404,0.029632
575,-0.258002,0.938206,0.230613,-0.010324,-0.0245699999999999,0.044915
576,-0.258083,0.938464,0.229471,-0.013341,-0.026782,0.050025
577,-0.258196,0.938601,0.228784,-0.0287,-0.0359209999999999,0.0522679999999999
578,-0.258525,0.93855,0.22862,-0.026219,-0.027035,0.040346
579,-0.259071,0.938291,0.229062,-0.004647,-0.011427,0.020877
580,-0.259729,0.937861,0.230075,0.009287,0.003331,-0.004565
581,-0.260322,0.937349,0.231486,0.020041,0.008909,-0.025233
582,-0.260981,0.936872,0.232669,0.035914,0.018542,-0.037051
583,-0.261412,0.936627,0.233169,0.0175,0.0278959999999999,-0.033966
584,-0.2616469999999999,0.936466,0.233555,-0.021678,0.017987,-0.023319
585,-0.262046,0.936217,0.234102,-0.027642,0.011659,-0.022264
586,-0.26263,0.935939,0.23456,-0.014836,0.014012,-0.02318
587,-0.263346,0.935679,0.2347949999999999,0.000819,0.0083819999999999,-0.02935
588,-0.263859,0.935481,0.23501,0.005284,0.009084,-0.027887
589,-0.264167,0.93538,0.235066,0.002037,-0.001283,-0.022373
590,-0.2645,0.935342,0.234843,-0.0032909999999999,-0.001519,-0.021433
591,-0.264795,0.935316,0.234615,-0.00109,0.001376,-0.009533
592,-0.264969,0.935316,0.234415,0.008423,0.0166949999999999,-0.001184
593,-0.2651219999999999,0.935246,0.234523,0.021683,0.024944,-0.012721
594,-0.265267,0.935073,0.235048,0.034448,0.022538,-0.021272
595,-0.265448,0.934859,0.235694,0.0365819999999999,0.02118,-0.036201
596,-0.265465,0.934715,0.2362449999999999,0.0258569999999999,0.026375,-0.044808
597,-0.265505,0.934607,0.236625,0.025469,0.014627,-0.045951
598,-0.265707,0.934636,0.236283,0.021872,0.005076,-0.025254
599,-0.266006,0.934758,0.2354619999999999,0.01773,0.008693,-0.009326
600,-0.266227,0.934879,0.234731,0.0110549999999999,-0.001819,0.001338
601,-0.266332,0.934969,0.234252,-0.00117,0.001493,0.004076
602,-0.26631,0.935008,0.234119,0.006392,-5.6000000000000006e-05,0.004681
603,-0.266375,0.935019,0.234002,0.0153979999999999,-0.00086,0.000755
604,-0.26634,0.935062,0.233871,0.022947,0.003186,0.00119
605,-0.265999,0.935206,0.233683,0.024162,-0.0096379999999999,-0.002497
606,-0.2655119999999999,0.935398,0.2334679999999999,0.023675,-0.009831,-0.002282
607,-0.264873,0.935643,0.233212,0.025478,0.0008039999999999,-0.006512
608,-0.264208,0.935881,0.233011,0.0276209999999999,0.014726,-0.011545
609,-0.263733,0.936039,0.2329159999999999,0.028336,0.020443,-0.014761
610,-0.263395,0.936156,0.2328309999999999,0.028348,0.023241,-0.015424
611,-0.263132,0.936305,0.232527,0.0286649999999999,0.014119,0.003831
612,-0.263028,0.936485,0.231919,0.016569,0.005333,0.018432
613,-0.263133,0.936625,0.231235,0.009288,0.006124,0.019879
614,-0.263204,0.936684,0.2309159999999999,0.020391,0.006142,0.014186
615,-0.263293,0.936659,0.2309119999999999,0.019305,0.021822,0.0068349999999999
616,-0.263231,0.936576,0.231319,0.010347,0.010766,-0.004009
617,-0.263412,0.936366,0.23196,0.001831,0.003118,-0.009777
618,-0.263822,0.936123,0.232474,-0.004671,-0.00497,-0.01644
619,-0.264232,0.935936,0.232761,-0.004064,-0.004845,-0.016483
620,-0.264585,0.935827,0.2327989999999999,0.008985,0.006388,-0.015895
621,-0.264832,0.935821,0.232541,0.015854,0.0144199999999999,-0.01756
622,-0.264978,0.935915,0.231996,0.012399,0.019759,-0.023332
623,-0.265015,0.93607,0.231328,0.0148169999999999,0.022518,-0.027791
624,-0.2649829999999999,0.936296,0.23045,0.023558,0.019255,-0.02441
625,-0.264751,0.936647,0.229285,0.027447,0.01689,-0.016623
626,-0.264309,0.93715,0.227736,0.021374,0.012603,-0.011565
627,-0.263686,0.93771,0.226147,0.01927,0.009845,-0.012494
628,-0.262997,0.938232,0.224777,0.018612,0.00589,-0.0135039999999999
629,-0.262337,0.938753,0.223371,0.02015,0.001067,-0.009153
630,-0.261741,0.939307,0.221732,0.0130229999999999,0.006448,0.000802
631,-0.261252,0.93988,0.2198699999999999,0.0064909999999999,-0.007644,0.020715
632,-0.260909,0.94044,0.217871,-0.001253,-0.010631,0.0330149999999999
633,-0.260782,0.940913,0.21597,-0.004049,-0.010051,0.041628
634,-0.260784,0.941238,0.214553,0.004802,-0.0130759999999999,0.042283
635,-0.260777,0.941438,0.2136829999999999,0.006046,-0.013505,0.039522
636,-0.260742,0.941548,0.21324,0.006912,-0.011219,0.029619
637,-0.260631,0.94162,0.213058,0.012065,-0.0134729999999999,0.014588
638,-0.260392,0.941686,0.213059,0.0159,-0.008229,0.0007769999999999
639,-0.2600679999999999,0.941757,0.213139,0.017941,-0.0106349999999999,-0.00745
640,-0.259717,0.941812,0.213321,0.017652,-0.012445,-0.0033759999999999
641,-0.2594599999999999,0.941811,0.213638,0.025374,-0.003792,0.001801
642,-0.259153,0.941735,0.214344,0.0234039999999999,0.005424,-0.001361
643,-0.2586429999999999,0.941606,0.215521,0.007758,0.025069,-0.013144
644,-0.257918,0.941426,0.217175,0.002837,0.024669,-0.040066
645,-0.257208,0.941308,0.218525,-0.0049229999999999,0.029716,-0.045826
646,-0.256784,0.941191,0.219525,-0.018347,0.017275,-0.058148
647,-0.256554,0.941116,0.2201139999999999,-0.008033,0.023315,-0.050513
648,-0.256398,0.941258,0.219692,0.00475,0.023143,-0.047802
649,-0.256343,0.941504,0.218701,0.018916,0.013178,-0.0310639999999999
650,-0.256179,0.941825,0.217507,0.022902,0.019524,-0.007104
651,-0.255879,0.942151,0.2164449999999999,0.028432,0.005114,0.00522
652,-0.2554389999999999,0.942471,0.215573,0.021033,0.007297,0.001422
653,-0.2548,0.94282,0.214801,0.003838,0.004781,0.004895
654,-0.254275,0.943063,0.214359,-0.002317,0.00141,0.007977
655,-0.2539599999999999,0.943189,0.214177,0.000679,0.004427,0.017055
656,-0.253934,0.943205,0.214137,0.005445,0.006365,0.012731
657,-0.253983,0.943164,0.2142619999999999,0.003708,0.005033,0.0079519999999999
658,-0.254032,0.943086,0.214547,0.002705,0.003249,-0.010095
659,-0.254125,0.943,0.214812,0.0014089999999999,0.005272,-0.013854
660,-0.2543,0.942933,0.2149039999999999,-0.001285,0.005416,-0.012618
661,-0.2545489999999999,0.94284,0.2150139999999999,0.008105,0.008667,-0.015155
662,-0.254801,0.942736,0.2151719999999999,0.013285,0.008161,-0.022438
663,-0.255061,0.942625,0.215353,0.024028,0.007372,-0.02677
664,-0.255329,0.942522,0.2154849999999999,0.032108,0.008787,-0.026307
665,-0.255548,0.942437,0.2155969999999999,0.033975,0.013099,-0.019918
666,-0.255579,0.942389,0.215768,0.028437,0.011529,-0.012734
667,-0.25526,0.942462,0.215826,0.011501,0.001401,-0.014349
668,-0.254811,0.94258,0.2158429999999999,0.01656,0.00705,-0.012352
669,-0.254406,0.942711,0.2157489999999999,0.012005,0.012153,-0.009099
670,-0.254142,0.942845,0.215475,0.010978,0.010036,-0.011633
671,-0.2540199999999999,0.942915,0.215315,0.023566,0.0136889999999999,-0.010679
672,-0.254033,0.942875,0.215473,0.032476,0.012615,-0.009464
673,-0.2540199999999999,0.942832,0.215677,0.036765,0.016274,-0.000985
674,-0.253898,0.942804,0.2159449999999999,0.02256,0.010855,-0.001055
675,-0.253786,0.942697,0.216542,0.024248,0.007834,-0.0059549999999999
676,-0.253764,0.942543,0.217231,0.016825,0.012229,-0.002479
677,-0.253754,0.942391,0.2179019999999999,0.009736,0.004966,-0.000357
678,-0.253761,0.942259,0.218465,0.0094069999999999,0.003084,0.003581
679,-0.253917,0.942118,0.21889,0.023311,0.00765,0.000333
680,-0.254088,0.941994,0.219227,0.024885,0.0074849999999999,0.000332
681,-0.254063,0.941952,0.219433,0.021092,0.002002,0.002933
682,-0.25395,0.941936,0.219631,0.001615,0.003224,0.004337
683,-0.253864,0.9419,0.219886,0.0018809999999999,0.004099,-0.000709
684,-0.253789,0.941841,0.220227,0.002232,0.012871,-0.008404
685,-0.253654,0.941777,0.220656,0.007362,0.009105,-0.010405
686,-0.253561,0.941748,0.220885,-0.003321,0.012704,-0.0103439999999999
687,-0.2535739999999999,0.941735,0.2209269999999999,-0.003155,0.004005,-0.010798
688,-0.25366,0.94173,0.22085,-0.005586,0.011762,-0.007441
689,-0.253835,0.941753,0.220551,0.0071,0.004887,-0.004121
690,-0.2539369999999999,0.941788,0.2202849999999999,0.008362,0.00325,0.002218
691,-0.254003,0.94186,0.2198969999999999,-0.007502,-0.002041,0.0005769999999999
692,-0.254059,0.941882,0.219742,-0.004349,-0.001467,-0.002121
693,-0.254169,0.941898,0.219546,-0.007336,0.005536,0.002759
694,-0.254309,0.941875,0.2194809999999999,-0.007364,0.0033759999999999,-0.000991
695,-0.25456,0.941802,0.219506,-0.000933,0.006715,-0.004083
696,-0.254923,0.941683,0.2195949999999999,0.004343,0.011426,-0.007162
697,-0.255289,0.941566,0.2196719999999999,0.00796,0.011009,-0.008673
698,-0.255693,0.941458,0.2196659999999999,0.01285,0.008051,-0.011857
699,-0.256111,0.94136,0.219602,0.010247,0.008897,-0.00813
700,-0.256454,0.941278,0.219552,0.010131,0.007712,-0.008431
701,-0.256792,0.941203,0.219479,0.009509,0.003881,-0.006298
702,-0.257153,0.941113,0.219442,0.0129819999999999,0.003513,-0.003927
703,-0.257441,0.941047,0.21939,0.0167639999999999,0.006753,-0.007873
704,-0.257671,0.941008,0.219284,0.013225,0.013215,-0.0065769999999999
705,-0.257927,0.940982,0.219098,0.010338,0.011579,-0.006406
706,-0.258264,0.940964,0.218776,0.004312,0.0065299999999999,0.0009199999999999
707,-0.258693,0.940901,0.218544,0.0059619999999999,0.001116,0.006356
708,-0.259233,0.940788,0.218388,0.012834,0.002678,0.002971
709,-0.259803,0.940636,0.2183659999999999,0.019447,0.007942,0.001086
710,-0.2603,0.940481,0.218446,0.021835,0.006663,-0.001939
711,-0.26063,0.940356,0.21859,0.017085,0.008115,-0.0001909999999999
712,-0.260961,0.940233,0.218726,0.015142,0.0077959999999999,-0.007178
713,-0.261253,0.940136,0.218795,0.0205449999999999,0.009708,-0.010695
714,-0.261416,0.940099,0.218757,0.018771,0.01034,-0.010688
715,-0.261556,0.940098,0.2185949999999999,0.014669,0.011623,-0.0093969999999999
716,-0.261783,0.940101,0.21831,0.01633,0.01313,-0.007998
717,-0.262054,0.940098,0.218,0.020858,0.010509,-0.007886
718,-0.262294,0.940117,0.217632,0.021022,0.005776,-0.0067709999999999
719,-0.262515,0.940149,0.217227,0.02431,0.005515,-0.006579
720,-0.262696,0.940196,0.216804,0.022629,0.002767,-0.005104
721,-0.262792,0.94027,0.216364,0.018514,0.001105,-0.001932
722,-0.262791,0.940356,0.215991,0.013477,0.002484,0.002469
723,-0.262751,0.940456,0.215605,0.011881,0.005055,0.000108
724,-0.262702,0.940555,0.215231,0.013725,0.002423,0.002741
725,-0.262635,0.940663,0.2148429999999999,0.011109,0.004833,0.001984
726,-0.262536,0.940789,0.214412,0.011926,0.002693,0.002537
727,-0.262423,0.94092,0.213976,0.019106,0.002378,0.0001199999999999
728,-0.262336,0.941024,0.213627,0.023094,0.001008,0.0035659999999999
729,-0.262198,0.941115,0.2133929999999999,0.023413,0.002259,0.005159
730,-0.262038,0.941177,0.213315,0.0218949999999999,0.004867,0.000857
731,-0.261878,0.941225,0.213303,0.019813,0.006957,0.000137
732,-0.261771,0.94124,0.2133659999999999,0.02468,0.006254,-0.00252
733,-0.261524,0.941277,0.213509,0.027652,0.014702,-0.012246
734,-0.261125,0.941336,0.213738,0.023454,0.020975,-0.0210349999999999
735,-0.260742,0.941389,0.213971,0.020035,0.0248129999999999,-0.0199699999999999
736,-0.26044,0.941481,0.213934,0.010959,0.017626,-0.014136
737,-0.260325,0.941558,0.2137349999999999,0.011301,0.009797,-0.011663
738,-0.260229,0.94164,0.21349,0.018164,0.007029,-0.010762
739,-0.260126,0.941735,0.213198,0.023355,0.004478,-0.011934
740,-0.259914,0.94185,0.212948,0.0211139999999999,0.005186,-0.012661
741,-0.259575,0.941991,0.21274,0.0208509999999999,0.006282,-0.014207
742,-0.2592,0.942129,0.212586,0.016906,0.009973,-0.0155039999999999
743,-0.258766,0.942289,0.2124079999999999,0.00898,0.0103629999999999,-0.01383
744,-0.258428,0.942429,0.212196,0.010686,0.006698,-0.011864
745,-0.2581719999999999,0.942533,0.2120449999999999,0.011667,0.008272,-0.011789
746,-0.257973,0.942612,0.211941,0.025963,0.008728,-0.007107
747,-0.257821,0.942677,0.211835,0.0257339999999999,0.013377,-0.0048189999999999
748,-0.257536,0.942764,0.211796,0.00604,0.006989,-0.0099379999999999
749,-0.257252,0.942835,0.211826,0.008778,0.002584,-0.01044
750,-0.2569849999999999,0.942943,0.211669,0.010083,-0.0002089999999999,-0.008056
751,-0.256913,0.943028,0.211376,0.0106819999999999,0.005443,-0.0067709999999999
752,-0.256978,0.943036,0.211265,0.036168,0.017886,0.000664
753,-0.256967,0.943036,0.211277,0.037012,0.0193349999999999,0.002667
754,-0.256801,0.943031,0.211505,0.035792,0.023858,-0.00188
755,-0.256479,0.943029,0.2119,0.026483,0.018915,-0.013002
756,-0.256026,0.943047,0.2123699999999999,0.011336,0.012779,-0.018018
757,-0.2556489999999999,0.943126,0.2124719999999999,0.000492,0.004277,-0.015191
758,-0.2554659999999999,0.943291,0.211961,-0.009076,-0.00251,0.003401
759,-0.255446,0.943471,0.211179,-0.00615,-0.009786,0.0199
760,-0.255447,0.943607,0.210571,-0.000794,-0.010013,0.019653
761,-0.255325,0.9437,0.210303,-0.002289,-0.006581,0.01188
762,-0.25517,0.943771,0.210173,0.001675,0.002426,0.005465
763,-0.255013,0.94385,0.210007,0.002068,0.001889,-0.001496
764,-0.254893,0.943913,0.209871,0.0066939999999999,0.0042369999999999,-0.001527
765,-0.254814,0.943958,0.2097639999999999,0.007866,0.009945,-0.002412
766,-0.254781,0.943982,0.2096969999999999,0.006093,0.0108519999999999,-0.0137139999999999
767,-0.254842,0.94396,0.20972,0.00678,0.011606,-0.018284
768,-0.25497,0.943898,0.2098449999999999,0.017497,-0.001637,-0.027167
769,-0.2551239999999999,0.943906,0.2096199999999999,0.017255,0.0127739999999999,-0.0132699999999999
770,-0.255189,0.943971,0.209249,0.009705,0.008315,-0.010473
771,-0.255158,0.944026,0.209038,0.00908,0.007573,-0.011375
772,-0.255111,0.944061,0.20894,0.005752,0.007798,-0.013109
773,-0.255151,0.944083,0.208788,0.00509,0.005807,-0.009645
774,-0.25529,0.944109,0.2085,0.010355,0.005445,-0.004414
775,-0.255386,0.944158,0.208163,0.010558,0.003627,-0.001925
776,-0.25545,0.944202,0.2078809999999999,0.014194,0.005779,-0.001155
777,-0.255511,0.94423,0.207684,0.013186,0.010543,-0.0017809999999999
778,-0.255552,0.944255,0.2075159999999999,0.01428,0.010975,-0.010403
779,-0.255657,0.944241,0.207453,0.019481,0.011234,-0.0158479999999999
780,-0.255798,0.944198,0.207471,0.025543,0.01181,-0.015211
781,-0.2559,0.944176,0.207448,0.029688,0.009529,-0.005956
782,-0.25592,0.944191,0.207353,0.018859,0.007377,0.002501
783,-0.2558,0.944231,0.207317,0.014666,0.004255,0.001011
784,-0.255716,0.944234,0.2074079999999999,0.009333,0.0037329999999999,-0.007167
785,-0.255661,0.944223,0.207527,0.005615,0.006293,-0.010689
786,-0.25567,0.944196,0.20764,0.011239,0.006518,-0.010008
787,-0.255747,0.94418,0.207617,0.017206,0.005145,-0.006247
788,-0.255884,0.944161,0.207533,0.016428,0.007941,-0.007231
789,-0.255954,0.944127,0.207605,0.015979,0.009059,-0.010431
790,-0.255934,0.944087,0.207808,0.013549,0.009999,-0.010528
791,-0.255861,0.944063,0.208009,0.014283,0.012907,-0.0131539999999999
792,-0.255893,0.94402,0.208163,0.0143159999999999,0.01295,-0.013308
793,-0.255929,0.944006,0.208181,0.017877,0.011087,-0.007773
794,-0.255976,0.943997,0.208166,0.01182,0.005603,-6.7e-05
795,-0.2560199999999999,0.943968,0.2082429999999999,0.008812,0.005418,-0.001105
796,-0.256059,0.943922,0.208407,0.0076459999999999,0.007815,-0.000842
797,-0.256079,0.943879,0.2085719999999999,0.011633,0.006575,-0.006058
798,-0.25617,0.943825,0.208708,0.013128,0.005928,-0.005659
799,-0.256285,0.943757,0.208873,0.015761,0.004134,-0.004131
800,-0.25634,0.943716,0.208992,0.022011,0.006953,-0.005562
801,-0.256366,0.943675,0.209146,0.019382,0.010778,-0.008477
802,-0.256331,0.943629,0.2093949999999999,0.0179889999999999,0.01238,-0.011428
803,-0.256278,0.943584,0.209662,0.012931,0.012394,-0.011008
804,-0.256334,0.94354,0.2097929999999999,0.012834,0.010149,-0.006851
805,-0.256391,0.943531,0.2097619999999999,0.012525,0.0076409999999999,-0.006515
806,-0.256457,0.943531,0.209682,0.017428,0.008511,-5.7e-05
807,-0.256484,0.943536,0.209626,0.0159139999999999,0.00611,0.001906
808,-0.2564929999999999,0.943546,0.2095719999999999,0.018074,0.002194,0.003945
809,-0.256526,0.943519,0.209653,0.017619,0.0028309999999999,0.003253
810,-0.2565469999999999,0.943479,0.209809,0.014268,0.004382,0.0011279999999999
811,-0.2565199999999999,0.943442,0.210004,0.01096,0.006234,-0.0030489999999999
812,-0.2565199999999999,0.94339,0.210238,0.014119,0.007537,-0.006716
813,-0.256567,0.943323,0.210479,0.017111,0.008413,-0.008499
814,-0.2566239999999999,0.943266,0.210667,0.017107,0.012941,-0.008839
815,-0.256684,0.943203,0.210875,0.01642,0.012592,-0.011031
816,-0.256729,0.943147,0.2110719999999999,0.021133,0.013182,-0.011212
817,-0.256803,0.943088,0.211242,0.018888,0.012341,-0.010101
818,-0.256856,0.943051,0.211342,0.0166979999999999,0.009158,-0.011894
819,-0.256878,0.94304,0.211369,0.0151479999999999,0.0068959999999999,-0.005207
820,-0.256916,0.943027,0.211377,0.018177,0.004986,-0.003186
821,-0.256965,0.943007,0.211407,0.016364,0.008485,-0.001034
822,-0.256988,0.942981,0.211495,0.008941,0.006284,-0.002084
823,-0.257022,0.942952,0.211585,0.012119,0.007717,-0.0050869999999999
824,-0.2570489999999999,0.942923,0.21168,0.015869,0.010279,-0.0049229999999999
825,-0.257115,0.942884,0.211773,0.020314,0.009036,-0.005291
826,-0.257168,0.942853,0.2118489999999999,0.019772,0.007358,-0.0035659999999999
827,-0.257155,0.942828,0.211975,0.01625,0.009321,-0.006821
828,-0.257155,0.942793,0.212131,0.019103,0.009966,-0.005984
829,-0.2571719999999999,0.942763,0.212246,0.020035,0.00757,-0.00642
830,-0.257195,0.942724,0.21239,0.02047,0.006159,-0.010364
831,-0.257204,0.942701,0.212481,0.017916,0.005342,-0.008394
832,-0.257206,0.942701,0.21248,0.014561,0.007189,-0.005647
833,-0.257198,0.942689,0.212542,0.017177,0.008528,-0.005404
834,-0.257179,0.942678,0.212614,0.017418,0.009211,-0.00601
835,-0.257167,0.942672,0.212654,0.016048,0.009873,-0.00576
836,-0.257177,0.942672,0.2126449999999999,0.014303,0.008714,-0.003172
837,-0.25718,0.942668,0.212657,0.0152819999999999,0.00826,-0.004161
838,-0.25715,0.942667,0.2127,0.014855,0.00675,-0.004448
839,-0.257115,0.942671,0.2127219999999999,0.016483,0.0079659999999999,-0.006026
840,-0.257101,0.942674,0.212728,0.014608,0.009399,-0.004675
841,-0.257054,0.942682,0.212746,0.012044,0.006018,-0.006493
842,-0.257032,0.942688,0.2127489999999999,0.017759,0.006043,-0.003352
843,-0.257033,0.942698,0.2126989999999999,0.01599,0.006917,-0.003257
844,-0.256992,0.942701,0.2127349999999999,0.016162,0.006884,-0.0064819999999999
845,-0.256904,0.942711,0.2128,0.016746,0.008003,-0.008637
846,-0.256831,0.942729,0.212807,0.015437,0.0085799999999999,-0.005882
847,-0.2568,0.942755,0.212729,0.0131169999999999,0.0095,-0.0073599999999999
848,-0.256733,0.942792,0.2126449999999999,0.014149,0.006259,-0.00447
849,-0.25672,0.942775,0.2127369999999999,0.014609,0.004918,-0.004501
850,-0.256758,0.942726,0.212908,0.009062,0.00814,-0.003588
851,-0.256883,0.942602,0.213307,0.00609,0.015299,-0.015293
852,-0.257138,0.942424,0.213785,0.016675,0.021321,-0.024256
853,-0.257252,0.94231,0.214151,0.0556679999999999,0.01495,-0.037119
854,-0.256742,0.942535,0.213774,0.024427,0.016648,0.0035259999999999
855,-0.255983,0.943096,0.212203,0.006914,0.011555,0.019776
856,-0.255384,0.943819,0.2097,-0.033587,-0.012941,0.068941
857,-0.2555199999999999,0.944245,0.207605,-0.01247,-0.018021,0.074775
858,-0.256304,0.944117,0.20722,0.022783,-0.02186,0.051813
859,-0.257315,0.943595,0.2083429999999999,0.023062,-0.004523,0.0032049999999999
860,-0.258553,0.942662,0.211017,0.027535,0.008205,-0.039691
861,-0.259827,0.9415,0.214609,0.03183,0.0170729999999999,-0.063166
862,-0.260789,0.940333,0.218523,0.034089,0.038595,-0.098605
863,-0.2611199999999999,0.939431,0.22198,0.018642,0.032905,-0.098277
864,-0.260976,0.938938,0.2242199999999999,0.00086,0.035259,-0.090705
865,-0.261061,0.938892,0.2243139999999999,-0.0205699999999999,0.031582,-0.064509
866,-0.261765,0.939076,0.2227199999999999,0.021912,0.022167,-0.048297
867,-0.262273,0.939573,0.220007,0.055593,0.028841,-6e-06
868,-0.262315,0.940431,0.2162599999999999,0.028917,0.003737,0.0573759999999999
869,-0.262213,0.941337,0.212412,-0.005594,-0.030829,0.089194
870,-0.262389,0.941906,0.209653,-0.008485,-0.03738,0.092014
871,-0.262729,0.941944,0.209056,0.0396759999999999,-0.019535,0.066365
872,-0.263067,0.941523,0.2105199999999999,0.054037,-0.005488,0.017339
873,-0.263476,0.94086,0.212956,0.0557429999999999,-0.000339,-0.010731
874,-0.263691,0.940113,0.21597,0.039036,0.016766,-0.045682
875,-0.26368,0.939384,0.219133,0.019799,0.033486,-0.080568
876,-0.263459,0.938765,0.222031,0.017151,0.037294,-0.088776
877,-0.262708,0.938495,0.22405,0.009518,0.038067,-0.0790309999999999
878,-0.262067,0.938631,0.2242309999999999,-0.004794,0.025526,-0.049839
879,-0.261707,0.939074,0.222794,-0.005154,0.025084,-0.048401
880,-0.261758,0.9397,0.220073,-0.001196,0.005994,0.021931
881,-0.262004,0.940235,0.217481,0.017482,-0.004581,0.055041
882,-0.26223,0.94053,0.21593,0.023247,-0.008401,0.057309
883,-0.262237,0.940569,0.21575,0.0260149999999999,-0.007036,0.051722
884,-0.262119,0.940428,0.216507,0.035664,0.0016649999999999,0.0035859999999999
885,-0.262187,0.940143,0.21766,0.036219,0.0019649999999999,-0.010308
886,-0.262203,0.939776,0.219217,0.034893,0.002393,-0.017053
887,-0.2619579999999999,0.939422,0.221021,0.0114849999999999,0.010102,-0.04083
888,-0.261681,0.939139,0.222548,0.003747,0.0158169999999999,-0.04724
889,-0.261416,0.938976,0.2235469999999999,-0.004224,0.022237,-0.049444
890,-0.261251,0.938974,0.2237449999999999,0.005895,0.0196889999999999,-0.0261589999999999
891,-0.261193,0.939094,0.2233099999999999,0.011743,0.024026,-0.014097
892,-0.261134,0.939352,0.222291,0.012568,0.017694,0.010818
893,-0.261049,0.939664,0.221068,0.013613,0.004305,0.028307
894,-0.261006,0.939933,0.219977,0.013218,-0.008307,0.036493
895,-0.261013,0.940062,0.219413,0.0138509999999999,-0.008498,0.031686
896,-0.261236,0.940002,0.219406,0.023901,-0.000778,0.017609
897,-0.2616469999999999,0.939763,0.2199429999999999,0.027943,-0.001576,0.0063289999999999
898,-0.2620619999999999,0.939354,0.221191,0.033531,-0.000557,-0.022704
899,-0.262351,0.938901,0.222766,0.030784,0.005893,-0.040103
900,-0.262419,0.938531,0.2242429999999999,0.024153,0.011603,-0.044968
901,-0.262306,0.938306,0.2253119999999999,0.009651,0.027239,-0.049226
902,-0.2621719999999999,0.938219,0.225831,0.013118,0.0300269999999999,-0.044114
903,-0.261903,0.938291,0.225846,0.014421,0.028049,-0.034867
904,-0.261452,0.938618,0.225007,0.0061719999999999,0.0209,0.0088799999999999
905,-0.261085,0.939151,0.223202,-0.00631,-6.4e-05,0.038715
906,-0.260957,0.939672,0.2211489999999999,-0.010634,-0.0117849999999999,0.054959
907,-0.261196,0.939964,0.219619,0.013699,-0.015144,0.059052
908,-0.2616739999999999,0.939924,0.219219,0.037126,-0.009642,0.03542
909,-0.2621199999999999,0.939619,0.219994,0.0519149999999999,0.001574,-0.0016719999999999
910,-0.262544,0.939079,0.221784,0.058824,0.003456,-0.032026
911,-0.262756,0.938512,0.223921,0.050033,0.012568,-0.049681
912,-0.262625,0.938075,0.225896,0.02825,0.017659,-0.059636
913,-0.262287,0.937798,0.227434,0.005253,0.026695,-0.0570539999999999
914,-0.261945,0.937677,0.228329,-0.0009339999999999,0.0311959999999999,-0.054623
915,-0.261652,0.937728,0.228453,0.01124,0.025956,-0.0383279999999999
916,-0.261246,0.938024,0.227702,0.009278,0.031214,-0.011653
917,-0.260801,0.938542,0.2260719999999999,0.005156,0.023266,0.002825
918,-0.260526,0.939128,0.2239409999999999,-0.006212,0.0007059999999999,0.031476
919,-0.260664,0.939561,0.221957,0.01628,-0.013642,0.0571559999999999
920,-0.261018,0.939727,0.220835,0.041154,-0.011245,0.053045
921,-0.261262,0.93968,0.220748,0.045167,-0.010237,0.042924
922,-0.261409,0.939457,0.2215219999999999,0.041423,-0.008442,0.008276
923,-0.261488,0.939097,0.222953,0.041152,-0.006846,-0.0081549999999999
924,-0.261524,0.938733,0.22444,0.036991,-0.00166,-0.017851
925,-0.261283,0.938426,0.2259989999999999,0.0166389999999999,0.009664,-0.027635
926,-0.261007,0.938177,0.227345,0.00823,0.025079,-0.029988
927,-0.260701,0.938008,0.228392,0.0090689999999999,0.027111,-0.032179
928,-0.260278,0.937975,0.229007,0.011865,0.026029,-0.03107
929,-0.259828,0.938126,0.2289,0.0105,0.0270529999999999,-0.019275
930,-0.2594619999999999,0.938414,0.228133,0.004595,0.023088,-0.0111989999999999
931,-0.259266,0.938756,0.226948,0.006351,0.011805,0.011669
932,-0.259307,0.93903,0.225764,0.019943,0.00587,0.025137
933,-0.2594309999999999,0.939193,0.2249409999999999,0.029664,-0.0074459999999999,0.0339089999999999
934,-0.2595639999999999,0.939197,0.224773,0.030606,-0.010898,0.023488
935,-0.259577,0.939092,0.2251949999999999,0.027964,-0.007879,0.01095
936,-0.259434,0.938916,0.226091,0.028553,0.0034969999999999,-0.009111
937,-0.259175,0.938742,0.227111,0.02184,0.0126439999999999,-0.021499
938,-0.25895,0.93861,0.22791,0.0076989999999999,0.017551,-0.025029
939,-0.258789,0.938508,0.228512,0.003585,0.018675,-0.025921
940,-0.258704,0.938481,0.2287219999999999,0.009177,0.020489,-0.023201
941,-0.258715,0.938528,0.228516,0.012697,0.021525,-0.017121
942,-0.258801,0.938601,0.2281159999999999,0.015652,0.019651,-0.013807
943,-0.258955,0.938682,0.227609,0.0243199999999999,0.009163,-0.003442
944,-0.2590909999999999,0.938737,0.227229,0.0267,0.007079,0.0001419999999999
945,-0.259154,0.938778,0.226986,0.026747,0.002506,-0.002102
946,-0.2590909999999999,0.938816,0.226901,0.018506,0.005779,-0.007449
947,-0.258932,0.938857,0.2269159999999999,0.015463,0.010255,-0.015612
948,-0.258793,0.938898,0.226903,0.010929,0.012777,-0.017552
949,-0.258728,0.938956,0.226735,-0.00267,0.010262,-0.0078319999999999
950,-0.258844,0.939004,0.226404,0.004632,0.009879,-0.002466
951,-0.2590409999999999,0.939025,0.226092,0.012948,0.011033,-0.001086
952,-0.259213,0.939046,0.225809,0.016003,0.01063,-0.00857
953,-0.259351,0.939074,0.225536,0.0158199999999999,0.009245,-0.013713
954,-0.2595139999999999,0.9391,0.22524,0.014427,0.010165,-0.018621
955,-0.259751,0.939135,0.22482,0.015809,0.005964,-0.008527
956,-0.260049,0.939183,0.224276,0.0151759999999999,-0.000218,-0.0019399999999999
957,-0.260424,0.939178,0.2238619999999999,0.017337,0.004258,-0.001801
958,-0.260778,0.93912,0.2236929999999999,0.023137,0.003324,-0.00801
959,-0.261044,0.939039,0.2237239999999999,0.027524,0.007571,-0.0102379999999999
960,-0.26115,0.93901,0.223721,0.022518,0.011537,-0.010754
961,-0.261188,0.939005,0.2236969999999999,0.0176729999999999,0.012106,-0.008975
962,-0.26123,0.939018,0.223593,0.01274,0.012795,-0.00878
963,-0.261331,0.939019,0.2234719999999999,0.012445,0.01197,-0.011192
964,-0.261444,0.939004,0.223404,0.016723,0.010093,-0.016296
965,-0.2616449999999999,0.938957,0.223365,0.014667,0.016441,-0.015006
966,-0.261936,0.938893,0.2232969999999999,0.022647,0.011043,-0.015045
967,-0.262271,0.938866,0.223013,0.020374,0.008308,-0.010046
968,-0.2625929999999999,0.938855,0.222681,0.018529,0.006167,-0.013849
969,-0.262783,0.938831,0.222559,0.024242,0.006893,-0.0120489999999999
970,-0.262907,0.938848,0.222344,0.021391,0.0068,-0.003777
971,-0.26295,0.938894,0.222099,0.019663,0.0080819999999999,-0.001182
972,-0.262971,0.938932,0.221913,0.018205,0.007754,0.001719
973,-0.262984,0.938947,0.2218369999999999,0.0132129999999999,0.0102569999999999,0.005824
974,-0.263003,0.938921,0.221921,0.012255,0.008939,0.000216
975,-0.263055,0.938892,0.221985,0.011193,0.009274,-0.000167
976,-0.263106,0.938884,0.22196,0.012664,0.008718,0.000712
977,-0.2632219999999999,0.938878,0.221846,0.0135419999999999,0.009868,0.001786
978,-0.263366,0.93888,0.2216679999999999,0.012588,0.007959,0.003247
979,-0.263479,0.938884,0.221516,0.010473,0.006169,-0.000721
980,-0.263571,0.938899,0.221345,0.013708,0.004827,-0.003679
981,-0.263666,0.938933,0.2210889999999999,0.019693,0.006502,-0.004735
982,-0.263794,0.938983,0.220721,0.021592,0.007794,-4.8e-05
983,-0.263953,0.939027,0.2203449999999999,0.02024,0.0054,0.003776
984,-0.264126,0.939058,0.220007,0.015988,0.004698,0.006189
985,-0.264261,0.939073,0.219783,0.018487,0.004363,0.00913
986,-0.264298,0.939108,0.219586,0.02292,0.008524,0.000598
987,-0.264332,0.939144,0.2193929999999999,0.021717,0.006794,0.002378
988,-0.264386,0.939191,0.219127,0.0222139999999999,0.006763,0.001027
989,-0.264461,0.939252,0.218771,0.017086,0.002093,0.0133759999999999
990,-0.264619,0.939301,0.2183719999999999,0.01764,0.000594,0.0152699999999999
991,-0.264745,0.939326,0.218112,0.020894,-0.002254,0.014859
992,-0.264843,0.939345,0.217913,0.025219,-0.000197,0.014952
993,-0.264832,0.939363,0.217848,0.025024,0.003904,0.010408
994,-0.264719,0.939389,0.217875,0.026087,0.005481,0.005422
995,-0.2645389999999999,0.939421,0.2179579999999999,0.027174,0.003939,0.007506
996,-0.264353,0.939438,0.21811,0.027338,0.000457,0.012588
997,-0.26416,0.939429,0.218386,0.0282589999999999,-0.004385,0.012342
998,-0.26391,0.939373,0.218928,0.022424,0.004109,0.010426
999,-0.26356,0.939298,0.2196699999999999,0.016978,0.0173819999999999,-0.000249
1000,-0.263211,0.939219,0.220427,0.011136,0.027441,-0.01782
1001,-0.262957,0.939166,0.2209539999999999,0.009996,0.030194,-0.031882
1002,-0.262852,0.939158,0.221113,0.006382,0.02886,-0.043104
1003,-0.262862,0.93924,0.220752,0.009444,0.025711,-0.039401
1004,-0.263078,0.939418,0.219737,0.020204,0.011266,-0.022701
1005,-0.263413,0.93963,0.218427,0.0236669999999999,0.009528,-0.009991
1006,-0.263654,0.93985,0.217183,0.029462,0.0021969999999999,0.005702
1007,-0.26371,0.940025,0.216354,0.027687,0.002495,0.003266
1008,-0.263717,0.940148,0.2158139999999999,0.024794,0.00193,-0.0008179999999999
1009,-0.263655,0.940257,0.215411,0.022627,0.001454,5.8e-05
1010,-0.2636239999999999,0.940332,0.215125,0.0211009999999999,0.002799,0.003258
1011,-0.263604,0.940396,0.2148699999999999,0.018029,0.0045049999999999,0.002156
1012,-0.2635429999999999,0.94045,0.214707,0.01072,0.0089819999999999,-0.005128
1013,-0.263462,0.940466,0.214738,0.008778,0.0104319999999999,-0.011674
1014,-0.263486,0.940452,0.214768,0.011014,0.0115129999999999,-0.009187
1015,-0.2635619999999999,0.940447,0.2146949999999999,0.017881,0.0081459999999999,-0.00539
1016,-0.263661,0.940438,0.214612,0.024312,0.0070709999999999,-0.0040409999999999
1017,-0.263689,0.940426,0.214631,0.0263079999999999,0.006504,-0.006242
1018,-0.263635,0.940403,0.214799,0.0217979999999999,0.008236,-0.01027
1019,-0.263555,0.940372,0.215033,0.018346,0.008572,-0.0152039999999999
1020,-0.263531,0.940334,0.21523,0.014386,0.010869,-0.014638
1021,-0.263577,0.940299,0.215325,0.01524,0.010537,-0.0090569999999999
1022,-0.263636,0.940268,0.215387,0.015116,0.010385,-0.004908
1023,-0.263686,0.94023,0.215495,0.016402,0.011873,-0.005763
1024,-0.263713,0.940199,0.215598,0.015071,0.012026,-0.008872
1025,-0.263719,0.940184,0.2156539999999999,0.015535,0.011247,-0.008378
1026,-0.263762,0.940164,0.215687,0.018233,0.01052,-0.004902
1027,-0.263781,0.940151,0.215718,0.022448,0.009785,-0.004369
1028,-0.263748,0.940156,0.215739,0.015946,0.010375,-0.005794
1029,-0.263716,0.940149,0.215808,0.013533,0.010641,-0.005526
1030,-0.263696,0.940132,0.215905,0.0129639999999999,0.010673,-0.009789
1031,-0.263683,0.94012,0.2159739999999999,0.019619,0.009847,-0.003313
1032,-0.263687,0.940133,0.215913,0.018006,0.011863,-0.001969
1033,-0.263688,0.940143,0.215867,0.015306,0.01022,-0.002518
1034,-0.263687,0.940147,0.215851,0.015839,0.00515,-0.004334
1035,-0.263729,0.940127,0.215887,0.018001,0.006071,-0.003881
1036,-0.263757,0.940115,0.215903,0.013986,0.005975,-0.006399
1037,-0.263744,0.94014,0.21581,0.011959,0.01004,-0.007115
1038,-0.263736,0.940172,0.215682,0.012195,0.010924,-0.0043479999999999
1039,-0.263769,0.940196,0.2155369999999999,0.016973,0.013524,-0.00286
1040,-0.263834,0.940216,0.2153699999999999,0.015711,0.0132909999999999,-0.002327
1041,-0.263949,0.940222,0.2151989999999999,0.014667,0.010934,-0.0026899999999999
1042,-0.264018,0.940246,0.215011,0.019175,0.008896,-0.005142
1043,-0.2640699999999999,0.940288,0.214767,0.011689,0.0079849999999999,-0.002594
1044,-0.264171,0.940338,0.2144239999999999,0.013134,0.005601,-0.000725
1045,-0.264317,0.940377,0.214074,0.011738,0.00373,0.004249
1046,-0.264452,0.940403,0.2137889999999999,0.016238,0.005108,0.003832
1047,-0.264574,0.940431,0.2135159999999999,0.0164659999999999,0.005996,0.005539
1048,-0.264721,0.940455,0.21323,0.015362,0.004995,0.005947
1049,-0.264906,0.940449,0.213027,0.015303,0.00433,0.004167
1050,-0.265071,0.940438,0.2128699999999999,0.021159,6.8e-05,0.006918
1051,-0.265176,0.940441,0.212727,0.020333,-0.000484,0.011226
1052,-0.265215,0.940452,0.212628,0.017611,0.0038229999999999,0.012149
1053,-0.265202,0.94045,0.212654,0.0155979999999999,0.004893,0.008873
1054,-0.265159,0.940434,0.212779,0.0166699999999999,0.0086319999999999,-0.000666
1055,-0.265131,0.940408,0.212926,0.019022,0.010489,-0.0019579999999999
1056,-0.265179,0.940399,0.212909,0.017453,0.008912,0.000271
1057,-0.265213,0.940413,0.212804,0.0159449999999999,0.005724,0.002009
1058,-0.265255,0.940413,0.212754,0.019527,0.00519,0.004593
1059,-0.265295,0.940418,0.2126809999999999,0.021536,0.006345,0.00404
1060,-0.265262,0.940445,0.212601,0.019794,0.0073849999999999,-0.0006259999999999
1061,-0.2651969999999999,0.940478,0.212538,0.01866,0.009122,-0.003401
1062,-0.265165,0.940518,0.212398,0.020048,0.008701,-0.001766
1063,-0.265103,0.94057,0.212246,0.0180479999999999,0.005841,-0.000759
1064,-0.2650389999999999,0.940619,0.212107,0.017313,0.008325,0.002126
1065,-0.264974,0.940667,0.211975,0.015966,0.01142,-0.001175
1066,-0.264915,0.94072,0.2118159999999999,0.016807,0.007614,0.001975
1067,-0.264892,0.940757,0.211682,0.017638,0.001474,0.00188
1068,-0.264862,0.94077,0.21166,0.018417,-0.002003,0.003336
1069,-0.264778,0.940798,0.211642,0.017006,-0.000246,0.0026219999999999
1070,-0.2646739999999999,0.940811,0.211713,0.02093,0.003388,0.002581
1071,-0.264515,0.940825,0.21185,0.019886,0.005998,0.000553
1072,-0.26431,0.940829,0.212086,0.017164,0.007245,-0.0017289999999999
1073,-0.264176,0.940805,0.212361,0.01445,0.007376,-0.004933
1074,-0.264044,0.940779,0.212637,0.015006,0.009858,-0.007513
1075,-0.263826,0.940784,0.212887,0.016298,0.015988,-0.016842
1076,-0.263576,0.940832,0.2129849999999999,0.013484,0.018168,-0.022448
1077,-0.263365,0.940911,0.212898,0.015074,0.017738,-0.021186
1078,-0.263233,0.940998,0.212678,0.015171,0.0153169999999999,-0.01851
1079,-0.2631159999999999,0.941085,0.212437,0.018731,0.007478,-0.004658
1080,-0.262982,0.941171,0.212221,0.021084,0.0036229999999999,0.000334
1081,-0.262745,0.941258,0.2121239999999999,0.018315,0.004985,-0.001507
1082,-0.262444,0.94134,0.212133,0.014824,0.009053,-0.004919
1083,-0.262206,0.941398,0.212175,0.013899,0.008462,-0.0052049999999999
1084,-0.262024,0.941458,0.212131,0.012909,0.009836,-0.00629
1085,-0.261845,0.94151,0.2121199999999999,0.015675,0.006488,0.001289
1086,-0.261705,0.941537,0.212175,0.016084,0.0069489999999999,0.002837
1087,-0.261532,0.941558,0.2122969999999999,0.0157889999999999,0.008699,7.5e-05
1088,-0.261331,0.941587,0.212415,0.0146729999999999,0.010333,-0.005933
1089,-0.261156,0.941616,0.212501,0.0137949999999999,0.009113,-0.004127
1090,-0.261046,0.941652,0.212475,0.015685,0.009901,-0.004025
1091,-0.260968,0.941684,0.212429,0.017133,0.007077,0.004444
1092,-0.260897,0.941703,0.212434,0.016772,0.009774,0.006118
1093,-0.26081,0.941717,0.212478,0.011787,0.008387,0.0061649999999999
1094,-0.260732,0.941713,0.21259,0.017935,0.008055,-0.003606
1095,-0.260668,0.941717,0.212654,0.017549,0.008463,-0.003639
1096,-0.2605909999999999,0.941738,0.212654,0.013765,0.007695,-0.000252
1097,-0.2605409999999999,0.941762,0.212608,0.017713,0.0077319999999999,0.004418
1098,-0.26053,0.941782,0.212532,0.020326,0.003592,0.0064319999999999
1099,-0.260523,0.941773,0.212583,0.016855,0.004547,0.002978
1100,-0.260472,0.941759,0.212704,0.013524,0.005186,-4.2e-05
1101,-0.260464,0.941744,0.212781,0.01411,0.006056,-0.00166
1102,-0.260428,0.941744,0.2128219999999999,0.021033,0.010389,-0.001564
1103,-0.260361,0.941761,0.212833,0.019349,0.0081599999999999,0.000195
1104,-0.260288,0.941788,0.212799,0.019107,0.0092769999999999,-0.000443
1105,-0.26024,0.941816,0.212736,0.0172289999999999,0.007754,0.00313
1106,-0.260205,0.941837,0.2126829999999999,0.022808,0.005825,0.001855
1107,-0.2601699999999999,0.941854,0.212652,0.022331,0.0067239999999999,-0.000982
1108,-0.260088,0.941884,0.212619,0.020693,0.007869,-0.000278
1109,-0.2599869999999999,0.941927,0.212552,0.020103,0.010756,-0.003812
1110,-0.259899,0.941959,0.2125159999999999,0.02,0.008251,-0.004111
1111,-0.25987,0.941984,0.212442,0.019209,0.00635,0.001303
1112,-0.25982,0.942027,0.2123139999999999,0.017587,0.006002,0.002117
1113,-0.259776,0.942064,0.212205,0.018397,0.005644,0.001403
1114,-0.259709,0.942099,0.21213,0.019535,0.007623,0.002729
1115,-0.259642,0.942126,0.212094,0.018553,0.006239,-0.001599
1116,-0.259611,0.942137,0.212082,0.0208719999999999,0.009081,-0.001342
1117,-0.2595639999999999,0.94215,0.21208,0.020474,0.006672,-0.000609
1118,-0.259495,0.942164,0.212104,0.014088,0.005468,0.000344
1119,-0.259449,0.942164,0.212162,0.013462,0.005651,-0.000508
1120,-0.2594349999999999,0.942136,0.212301,0.015721,0.006518,0.0013369999999999
1121,-0.2594309999999999,0.942073,0.212588,0.017457,0.0011949999999999,0.008832
1122,-0.2594889999999999,0.941959,0.2130179999999999,0.016508,0.000851,0.008067
1123,-0.259472,0.941836,0.213583,0.019115,0.005292,0.00532
1124,-0.25935,0.941727,0.214211,0.014324,0.020385,-0.017815
1125,-0.259261,0.941647,0.214669,0.014235,0.020465,-0.0182729999999999
1126,-0.259246,0.941634,0.214745,0.010985,0.019486,-0.026375
1127,-0.259354,0.941661,0.214495,0.008454,0.0133099999999999,-0.006884
1128,-0.2595699999999999,0.941698,0.2140699999999999,0.011981,0.010466,0.000148
1129,-0.259759,0.941741,0.2136539999999999,0.016503,0.008347,0.007324
1130,-0.259897,0.94178,0.213312,0.017328,0.000267,0.001303
1131,-0.260017,0.941775,0.213187,0.0174479999999999,0.000272,0.001428
1132,-0.2600969999999999,0.941789,0.213026,0.021709,-0.001268,0.005068
1133,-0.260109,0.941801,0.212959,0.022774,0.00223,0.008721
1134,-0.260052,0.941797,0.213047,0.021359,0.007361,0.0042229999999999
1135,-0.259978,0.941776,0.213227,0.013885,0.009533,4.5e-05
1136,-0.260017,0.941736,0.213357,0.011482,0.010931,-0.005059
1137,-0.260138,0.941698,0.21338,0.012763,0.010512,-0.008561
1138,-0.260236,0.941681,0.213333,0.0207949999999999,0.010513,-0.003632
1139,-0.260309,0.941678,0.213256,0.0192969999999999,0.005633,-0.001418
1140,-0.260341,0.941699,0.213123,0.018841,0.005642,0.000332
1141,-0.260356,0.941717,0.213029,0.019099,0.006037,0.002547
1142,-0.260336,0.941724,0.213021,0.017355,0.003863,0.0025859999999999
1143,-0.26031,0.941719,0.213076,0.012721,0.003914,0.002836
1144,-0.260305,0.941698,0.213171,0.0124409999999999,0.004621,0.002359
1145,-0.260302,0.941677,0.21327,0.0148949999999999,0.005879,-0.001493
1146,-0.260287,0.941663,0.2133469999999999,0.014194,0.006579,-0.001081
1147,-0.260246,0.941664,0.2133949999999999,0.014,0.008639,-0.006196
1148,-0.260247,0.941663,0.213394,0.016336,0.011599,-0.008423
1149,-0.260267,0.941681,0.213292,0.017515,0.009826,-0.004765
1150,-0.260293,0.941701,0.2131739999999999,0.0202259999999999,0.00616,-0.001062
1151,-0.260308,0.94171,0.213114,0.016762,0.006044,0.0006309999999999
1152,-0.26027,0.941714,0.213142,0.0144509999999999,0.0057799999999999,-0.005546
1153,-0.260229,0.941712,0.213202,0.018972,0.00804,-0.002173
1154,-0.260204,0.941717,0.2132119999999999,0.017909,0.009989,-0.0075239999999999
1155,-0.260191,0.941727,0.2131809999999999,0.013563,0.010971,-0.005219
1156,-0.260189,0.94174,0.213126,0.011593,0.011308,-0.005545
1157,-0.260245,0.941747,0.21303,0.009558,0.00822,-0.006945
1158,-0.260301,0.941757,0.212918,0.014512,0.00499,-0.002088
1159,-0.260319,0.941783,0.212781,0.014896,0.003575,0.000933
1160,-0.260351,0.941797,0.2126809999999999,0.011892,0.007208,0.005489
1161,-0.260392,0.9418,0.212615,0.0139169999999999,0.009219,0.004258
1162,-0.260515,0.941762,0.212634,0.015153,0.0060979999999999,0.003568
1163,-0.260641,0.941707,0.212726,0.015737,0.002827,0.0008359999999999
1164,-0.260741,0.941656,0.212826,0.017379,0.003168,-0.001019
1165,-0.260803,0.941616,0.212926,0.020981,0.008319,-0.008291
1166,-0.260844,0.941579,0.213044,0.019038,0.010066,-0.006287
1167,-0.260883,0.941557,0.213089,0.015903,0.010835,-0.006943
1168,-0.260944,0.941543,0.213077,0.014819,0.009537,-0.005526
1169,-0.2609889999999999,0.941552,0.212984,0.020281,0.0058049999999999,-0.002917
1170,-0.261002,0.941564,0.212913,0.019882,0.0037479999999999,-0.002738
1171,-0.2609869999999999,0.941589,0.2128219999999999,0.015534,0.004334,0.000251
1172,-0.260969,0.941599,0.2128,0.0145849999999999,0.005987,-6.2e-05
1173,-0.260968,0.941599,0.212805,0.014416,0.00794,-0.002432
1174,-0.261002,0.941592,0.212794,0.013993,0.0067569999999999,-0.003734
1175,-0.2610119999999999,0.941597,0.212761,0.018885,0.005577,0.002663
1176,-0.261007,0.941601,0.212748,0.02027,0.006062,0.001546
1177,-0.260957,0.941605,0.212792,0.017396,0.007339,-0.000207
1178,-0.260894,0.941622,0.2127929999999999,0.014861,0.008192,-0.005365
1179,-0.260895,0.941645,0.21269,0.015656,0.007009,-0.002806
1180,-0.260913,0.94166,0.2126019999999999,0.014911,0.005545,-0.000337
1181,-0.260878,0.941678,0.2125639999999999,0.017302,0.00603,-0.001657
1182,-0.260825,0.941692,0.2125659999999999,0.013877,0.004887,-0.002971
1183,-0.260782,0.941702,0.2125739999999999,0.012613,0.004266,-0.002263
1184,-0.260772,0.941702,0.212588,0.012984,0.005945,0.0001189999999999
1185,-0.260781,0.941695,0.212609,0.012749,0.0070659999999999,-0.001381
1186,-0.260774,0.941688,0.212648,0.0147409999999999,0.00863,-0.006762
1187,-0.260753,0.941687,0.212676,0.0130879999999999,0.0081269999999999,-0.009612
1188,-0.260711,0.941705,0.212648,0.015182,0.008383,-0.007539
1189,-0.260659,0.941732,0.2125909999999999,0.014183,0.007608,-0.001974
1190,-0.2606179999999999,0.941764,0.212503,0.0131659999999999,0.006845,-0.001992
1191,-0.26056,0.941797,0.2124239999999999,0.013673,0.005163,-0.000739
1192,-0.2605119999999999,0.94182,0.2123789999999999,0.010894,0.007231,-0.004188
1193,-0.260457,0.94185,0.212315,0.011678,0.009017,-0.001088
1194,-0.26047,0.941869,0.212213,0.0152,0.008265,-0.000177
1195,-0.260467,0.941886,0.212139,0.016388,0.004906,0.000248
1196,-0.260421,0.941883,0.2122099999999999,0.0141599999999999,0.003536,-0.004751
1197,-0.260383,0.941892,0.212217,0.015968,0.001803,-0.007383
1198,-0.260327,0.941913,0.212194,0.0206879999999999,0.010648,-0.007116
1199,-0.260242,0.941939,0.2121829999999999,0.018466,0.0106819999999999,-0.005213
1200,-0.260134,0.941971,0.212173,0.015108,0.008331,0.000916
1201,-0.260069,0.941996,0.212144,0.0130289999999999,0.00849,0.002013
1202,-0.259995,0.942012,0.212163,0.014771,0.0062299999999999,-0.00359
1203,-0.25991,0.942032,0.212178,0.014411,0.004974,-0.00182
1204,-0.259846,0.942055,0.212152,0.01627,0.004051,0.001623
1205,-0.259784,0.942083,0.2121019999999999,0.017169,0.006739,0.0024059999999999
1206,-0.259713,0.942096,0.212135,0.016,0.0081459999999999,0.002525
1207,-0.259598,0.942113,0.2121989999999999,0.014374,0.0044659999999999,-0.0008039999999999
1208,-0.259517,0.942129,0.212225,0.014766,0.00448,5.6000000000000006e-05
1209,-0.2594869999999999,0.942119,0.212307,0.015987,0.006977,-0.003155
1210,-0.259353,0.942128,0.2124309999999999,0.02423,0.011119,-0.008833
1211,-0.259111,0.94221,0.212364,0.02144,0.010381,-0.0072549999999999
1212,-0.258851,0.942406,0.211812,0.0149539999999999,0.006584,0.010005
1213,-0.258669,0.942629,0.2110389999999999,0.009051,-0.002123,0.024541
1214,-0.258629,0.942738,0.210601,0.004448,-0.0034219999999999,0.028748
1215,-0.258773,0.942639,0.210871,0.0116569999999999,0.007648,0.017172
1216,-0.259084,0.942361,0.211726,0.013692,0.016043,-0.006053
1217,-0.259483,0.942003,0.21283,0.021705,0.009276,-0.030182
1218,-0.259743,0.941752,0.213625,0.0244069999999999,0.009451,-0.039018
1219,-0.259776,0.941702,0.213805,0.013972,0.0089819999999999,-0.033172
1220,-0.259767,0.941769,0.213517,-0.006224,0.010776,-0.015412
1221,-0.259847,0.941822,0.213187,0.004476,0.008892,-0.013159
1222,-0.259733,0.941941,0.2128,0.017744,0.008956,-0.0093239999999999
1223,-0.259536,0.942168,0.2120369999999999,0.010772,0.00464,0.018509
1224,-0.2594329999999999,0.942358,0.2113179999999999,0.008654,-0.002157,0.02591
1225,-0.259465,0.942432,0.2109469999999999,0.009434,-0.0053289999999999,0.031653
1226,-0.259473,0.94236,0.211257,0.027433,0.006034,0.006516
1227,-0.259471,0.942216,0.211903,0.0264389999999999,0.009673,-0.008564
1228,-0.259548,0.94209,0.2123679999999999,0.0212669999999999,0.007693,-0.012447
1229,-0.259696,0.941977,0.21269,0.018287,0.006998,-0.01277
1230,-0.259798,0.941871,0.213031,0.014559,0.009224,-0.010196
1231,-0.259803,0.941792,0.213376,0.0146699999999999,0.0140639999999999,-0.020322
1232,-0.259792,0.941754,0.213555,0.023525,0.012515,-0.01954
1233,-0.259767,0.941787,0.213443,0.021394,0.011689,-0.011325
1234,-0.259759,0.941868,0.2130929999999999,0.014504,0.0069689999999999,0.007701
1235,-0.25973,0.941933,0.2128429999999999,0.014872,0.006645,0.016436
1236,-0.2596449999999999,0.941945,0.212894,0.01529,0.005611,0.011517
1237,-0.259549,0.941932,0.213069,0.016186,0.007836,-0.005091
1238,-0.259551,0.941915,0.21314,0.0193169999999999,0.010264,-0.005209
1239,-0.259575,0.941907,0.2131429999999999,0.017662,0.010531,-0.004998
1240,-0.259606,0.941887,0.213193,0.013619,0.008018,-0.010281
1241,-0.2596179999999999,0.941892,0.213159,0.017476,0.0046869999999999,-0.0080959999999999
1242,-0.259603,0.941921,0.213049,0.015737,0.008244,-0.002875
1243,-0.259544,0.941965,0.2129239999999999,0.016609,0.007406,-0.0031609999999999
1244,-0.2595,0.942005,0.212804,0.017282,0.007473,-0.004353
1245,-0.25945,0.942049,0.212668,0.018849,0.009871,0.000802
1246,-0.259371,0.942091,0.212578,0.016817,0.006594,0.000557
1247,-0.259278,0.942121,0.212559,0.014588,0.005129,0.000454
1248,-0.259217,0.942131,0.21259,0.012208,0.0038829999999999,-5e-05
1249,-0.259191,0.942126,0.212646,0.014302,0.004148,-0.002578
1250,-0.259195,0.942118,0.212673,0.017084,0.006734,-0.002071
1251,-0.259202,0.942115,0.21268,0.0155039999999999,0.0075769999999999,-0.000278
1252,-0.259195,0.94211,0.2127119999999999,0.015405,0.007994,-0.001134
1253,-0.259167,0.942106,0.2127619999999999,0.0140039999999999,0.006853,-0.00216
1254,-0.259156,0.942098,0.21281,0.0131539999999999,0.005213,-0.000865
1255,-0.259129,0.942094,0.212863,0.01009,0.007308,-0.002185
1256,-0.259065,0.942106,0.212887,0.0134139999999999,0.008227,-0.005306
1257,-0.259046,0.942113,0.21288,0.013303,0.007808,-0.00327
1258,-0.259065,0.942117,0.212839,0.014223,0.007651,-0.001428
1259,-0.259058,0.942119,0.212839,0.0151919999999999,0.003881,0.001882
1260,-0.2590429999999999,0.942112,0.212887,0.013316,0.004727,-0.000195
1261,-0.2590369999999999,0.942112,0.2128949999999999,0.012943,0.008953,-0.002522
1262,-0.2590469999999999,0.942121,0.2128409999999999,0.014509,0.008486,0.000995
1263,-0.259087,0.942109,0.212848,0.012306,0.007781,0.001263
1264,-0.2591199999999999,0.942071,0.2129739999999999,0.0140639999999999,0.005637,-0.000251
1265,-0.259128,0.942052,0.213051,0.013568,0.006053,-0.0037
1266,-0.259166,0.942046,0.21303,0.015575,0.0083629999999999,-0.005709
1267,-0.259178,0.94205,0.212997,0.01455,0.008985,-0.001236
1268,-0.259195,0.942049,0.212983,0.017908,0.005995,-0.000672
1269,-0.2592239999999999,0.942043,0.21297,0.0163199999999999,0.0072209999999999,-0.00095
1270,-0.259247,0.942028,0.213013,0.016694,0.005192,-0.002395
1271,-0.25921,0.942028,0.213057,0.015268,0.006763,-0.0034159999999999
1272,-0.259194,0.942034,0.213048,0.0128569999999999,0.00694,-0.003774
1273,-0.25922,0.942037,0.213007,0.0181,0.009456,-0.001276
1274,-0.259263,0.942031,0.212978,0.017625,0.006867,-0.002865
1275,-0.259285,0.942015,0.213021,0.017037,0.006868,-0.002098
1276,-0.259251,0.942026,0.213015,0.015446,0.004751,0.00073
1277,-0.259221,0.942039,0.212992,0.014516,0.006386,-0.001734
1278,-0.259156,0.942053,0.2130099999999999,0.013581,0.006067,-0.003111
1279,-0.259112,0.94207,0.212992,0.0142389999999999,0.007042,-0.002619
1280,-0.259109,0.942082,0.21294,0.013015,0.009212,-0.000965
1281,-0.259109,0.94209,0.2129059999999999,0.012451,0.0087459999999999,-0.000824
1282,-0.259082,0.9421,0.212894,0.016712,0.007256,-0.0031309999999999
1283,-0.25909,0.9421,0.212885,0.017422,0.0056229999999999,-0.005671
1284,-0.259086,0.942101,0.212886,0.016746,0.00782,-0.002208
1285,-0.259019,0.942118,0.212891,0.013428,0.006566,-0.001419
1286,-0.258974,0.942132,0.212883,0.012712,0.004828,-0.00541
1287,-0.258959,0.942147,0.212836,0.013506,0.007667,-0.0022649999999999
1288,-0.258954,0.942157,0.2127949999999999,0.012052,0.007748,-0.002788
1289,-0.258953,0.942158,0.2127929999999999,0.014431,0.007808,-0.001138
1290,-0.258969,0.942163,0.212751,0.016262,0.007376,-0.001371
1291,-0.258937,0.942178,0.212726,0.0160009999999999,0.0072549999999999,-0.000216
1292,-0.258867,0.942204,0.212693,0.011049,0.0081129999999999,-0.002869
1293,-0.258823,0.942228,0.212639,0.011005,0.008089,-0.002815
1294,-0.25884,0.942251,0.212519,0.011373,0.007807,-0.000498
1295,-0.258868,0.942271,0.212391,0.014743,0.001851,0.004665
1296,-0.258909,0.942285,0.212283,0.014784,0.001838,0.004774
1297,-0.258917,0.942295,0.212226,0.015631,0.007381,0.003411
1298,-0.25892,0.942308,0.212165,0.013116,0.009825,-0.000587
1299,-0.258978,0.942309,0.21209,0.013174,0.009824,-0.000511
1300,-0.259015,0.942309,0.212044,0.016232,0.005277,-0.000695
1301,-0.259017,0.942328,0.211961,0.01483,0.00477,-0.000886
1302,-0.259023,0.942347,0.211867,0.014913,0.006551,-0.001601
1303,-0.259025,0.942362,0.211798,0.015449,0.01064,-0.004477
1304,-0.259031,0.942392,0.211657,0.0137,0.0074819999999999,-0.001834
1305,-0.259096,0.942416,0.211472,0.014177,0.0081,-0.0003819999999999
1306,-0.259135,0.942445,0.211296,0.017695,0.0072159999999999,0.002678
1307,-0.259125,0.942467,0.211209,0.01503,0.005699,-0.004864
1308,-0.2590969999999999,0.942486,0.211157,0.014346,0.007084,-0.0086579999999999
1309,-0.2590639999999999,0.942523,0.211035,0.011612,0.010145,-0.007284
1310,-0.259084,0.942548,0.2109,0.010137,0.009769,-0.0060659999999999
1311,-0.259171,0.942542,0.210819,0.011856,0.008615,-0.002323
1312,-0.2592489999999999,0.942522,0.21081,0.014773,0.006697,-0.003016
1313,-0.259239,0.942529,0.210792,0.024056,0.008307,-0.010979
1314,-0.259003,0.942675,0.210427,0.033722,0.005811,-0.014215
1315,-0.258396,0.943135,0.209108,0.01215,0.009395,0.034407
1316,-0.257939,0.943745,0.2069079999999999,-0.019496,-0.0033759999999999,0.075349
1317,-0.258038,0.944214,0.204629,-0.026829,-0.0236819999999999,0.085517
1318,-0.258667,0.944216,0.203827,0.010254,-0.03966,0.063095
1319,-0.259538,0.943753,0.20486,0.032441,-0.02609,0.02451
1320,-0.260779,0.942823,0.207548,0.03855,-0.00897,-0.0017829999999999
1321,-0.262104,0.941563,0.211563,0.029743,0.031704,-0.075287
1322,-0.263133,0.940275,0.215968,0.045055,0.025164,-0.1106369999999999
1323,-0.263694,0.939146,0.220158,0.02793,0.0529809999999999,-0.110356
1324,-0.263646,0.938356,0.2235579999999999,0.020115,0.047698,-0.107347
1325,-0.263393,0.937995,0.2253639999999999,-0.0093879999999999,0.038522,-0.08213
1326,-0.263376,0.93811,0.224905,-0.022192,0.032822,-0.068899
1327,-0.263824,0.938519,0.222659,-0.020081,0.02338,-0.012393
1328,-0.264571,0.938952,0.219932,-0.003022,0.016554,0.016762
1329,-0.265157,0.939266,0.217876,0.008199,0.010365,0.022816
1330,-0.265278,0.939513,0.216659,0.025166,-0.004485,0.040635
1331,-0.264964,0.939622,0.216572,0.025966,-0.004762,0.035976
1332,-0.264404,0.939594,0.217379,0.028213,-0.003879,0.024213
1333,-0.26359,0.939511,0.218721,0.027658,0.011753,-0.008638
1334,-0.262723,0.939465,0.2199559999999999,0.024701,0.013462,-0.0135509999999999
1335,-0.261937,0.939497,0.220754,0.02593,0.01671,-0.016119
1336,-0.26122,0.939634,0.22102,0.02625,0.02138,-0.016521
1337,-0.2605099999999999,0.939884,0.220796,0.012356,0.015576,-0.0056159999999999
1338,-0.259883,0.940182,0.220266,0.011729,0.015278,-0.0050869999999999
1339,-0.25937,0.940479,0.2196,0.01529,0.002376,0.013035
1340,-0.258869,0.940771,0.218944,0.024173,-0.0006309999999999,0.017216
1341,-0.258266,0.941116,0.2181719999999999,0.023571,-0.000976,0.017988
1342,-0.257605,0.941497,0.21731,0.005362,-0.0088799999999999,0.032659
1343,-0.257027,0.941799,0.216682,-0.001197,-0.0086629999999999,0.0304189999999999
1344,-0.256604,0.942009,0.216273,-0.00162,-0.008873,0.0308279999999999
1345,-0.25635,0.942151,0.215953,0.011034,-0.006146,0.032048
1346,-0.256312,0.94226,0.215521,0.023219,-0.008117,0.0412839999999999
1347,-0.256333,0.94233,0.215192,0.02324,-0.008187,0.041614
1348,-0.256346,0.942256,0.215498,0.011931,-0.008983,0.024263
1349,-0.256427,0.94204,0.2163449999999999,0.0051909999999999,0.002784,-0.010504
1350,-0.256625,0.941713,0.217532,0.003314,0.0036149999999999,-0.019259
1351,-0.257029,0.941351,0.218621,0.0016129999999999,0.008311,-0.026146
1352,-0.257606,0.940999,0.219453,0.001014,0.005473,-0.024187
1353,-0.25822,0.940655,0.220208,0.008495,0.006947,-0.027047
1354,-0.25873,0.940324,0.221021,0.012179,0.016784,-0.03227
1355,-0.259053,0.940046,0.221821,0.017888,0.024798,-0.045322
1356,-0.259166,0.93989,0.22235,0.023326,0.02384,-0.046798
1357,-0.259163,0.939939,0.2221449999999999,0.022728,0.024981,-0.042427
1358,-0.259141,0.940159,0.221239,0.006135,0.012279,-0.014269
1359,-0.259059,0.940404,0.220291,0.007289,0.011683,-0.00615
1360,-0.258826,0.940697,0.219315,0.0156009999999999,0.006798,0.016525
1361,-0.258401,0.940996,0.21853,0.004464,0.004393,0.015174
1362,-0.257816,0.941259,0.21809,0.002979,0.003489,0.009342
1363,-0.257247,0.941527,0.217602,0.008101,0.006532,0.007083
1364,-0.256886,0.941789,0.2168949999999999,0.009053,0.012816,0.003411
1365,-0.256521,0.942025,0.216301,0.014593,0.010093,0.011543
1366,-0.256143,0.942304,0.215529,0.010293,0.003679,0.03354
1367,-0.255819,0.942634,0.2144719999999999,0.006292,-0.0035159999999999,0.0363519999999999
1368,-0.255362,0.942964,0.213562,0.003745,-0.0095079999999999,0.0368649999999999
1369,-0.2548559999999999,0.94323,0.2129909999999999,0.004993,-0.009072,0.034506
1370,-0.254602,0.943404,0.212526,0.009378,-0.001769,0.026121
1371,-0.254749,0.943443,0.2121719999999999,0.0114019999999999,-0.000511,0.026048
1372,-0.255156,0.943317,0.212247,0.0295709999999999,0.002393,0.0132319999999999
1373,-0.255658,0.943049,0.212831,0.0305,0.00649,0.000761
1374,-0.256215,0.94265,0.213925,0.026021,0.0029059999999999,-0.004361
1375,-0.2568539999999999,0.942114,0.215513,0.019168,0.006586,-0.021955
1376,-0.257775,0.941538,0.216926,0.02073,0.018042,-0.034949
1377,-0.258705,0.940922,0.2184849999999999,0.018608,0.020565,-0.040263
1378,-0.259326,0.940409,0.219951,0.012362,0.024862,-0.057003
1379,-0.259866,0.94001,0.221015,0.0154659999999999,0.012398,-0.048606
1380,-0.260703,0.939693,0.221376,0.0081549999999999,0.019825,-0.039293
1381,-0.2616469999999999,0.939511,0.221038,0.027074,0.019733,-0.017318
1382,-0.262331,0.939408,0.220664,0.031954,0.019454,-0.019859
1383,-0.262506,0.939413,0.220435,0.0306329999999999,0.028147,-0.01879
1384,-0.262442,0.939533,0.22,0.008338,0.0199699999999999,-0.008773
1385,-0.262365,0.939641,0.219632,0.026297,0.0031079999999999,0.000216
1386,-0.2621679999999999,0.939849,0.218978,0.021766,0.003571,0.0126349999999999
1387,-0.26184,0.940062,0.2184579999999999,0.011886,0.002001,0.013766
1388,-0.261428,0.94023,0.218226,0.016021,0.003724,0.01615
1389,-0.260965,0.940396,0.218065,0.0149319999999999,0.01044,0.0148759999999999
1390,-0.260421,0.940566,0.217984,0.015883,0.004884,0.00629
1391,-0.259883,0.940796,0.217634,0.0147199999999999,0.00296,0.00957
1392,-0.259471,0.941073,0.216926,0.012461,0.00073,0.013909
1393,-0.259305,0.94126,0.2163119999999999,0.012799,-0.002936,0.02731
1394,-0.259365,0.941279,0.216157,0.019512,0.000448,0.0260459999999999
1395,-0.259526,0.941111,0.2166949999999999,0.024953,0.001669,0.020915
1396,-0.259708,0.940796,0.2178389999999999,0.021243,0.000366,-0.0110829999999999
1397,-0.259896,0.940403,0.219308,0.013527,-8e-05,-0.0224389999999999
1398,-0.260084,0.940059,0.220553,0.007795,0.008473,-0.028612
1399,-0.260213,0.939795,0.221526,0.014821,0.004846,-0.0305769999999999
1400,-0.2605159999999999,0.939596,0.222014,0.015261,0.022486,-0.024062
1401,-0.260798,0.939425,0.222404,0.029567,0.0200319999999999,-0.0186689999999999
1402,-0.260996,0.939332,0.222567,0.0158479999999999,0.017837,-0.016391
1403,-0.261059,0.939261,0.222794,0.011319,0.011667,-0.011139
1404,-0.261005,0.93927,0.22282,0.012591,0.006928,-0.007183
1405,-0.260896,0.939349,0.2226119999999999,0.010103,0.010709,-0.001024
1406,-0.260789,0.939446,0.222327,0.0200669999999999,0.006156,0.005776
1407,-0.26066,0.939568,0.221965,0.018045,-0.002037,0.0146229999999999
1408,-0.2604309999999999,0.93969,0.221715,0.015986,-0.003136,0.012477
1409,-0.260053,0.939832,0.221558,0.008832,-0.001859,0.014953
1410,-0.259683,0.939962,0.221441,0.009058,-0.002126,0.012735
1411,-0.259296,0.940083,0.221379,0.012226,0.002559,0.012065
1412,-0.258938,0.940185,0.2213679999999999,-0.000569,0.003266,0.008414
1413,-0.258714,0.940241,0.2213889999999999,-0.001067,0.004522,0.00235
1414,-0.258704,0.940249,0.2213679999999999,0.006339,0.004331,0.001289
1415,-0.258804,0.940206,0.221436,0.009201,0.004985,-0.005753
1416,-0.258846,0.940149,0.221626,0.0077319999999999,0.004965,-0.008583
1417,-0.25886,0.940102,0.221811,0.006144,0.005989,-0.011346
1418,-0.258885,0.940104,0.2217719999999999,0.005497,0.0083819999999999,-0.011551
1419,-0.258896,0.940158,0.221532,0.005539,0.0070319999999999,-0.007848
1420,-0.258875,0.940252,0.221156,0.014841,0.008723,0.004628
1421,-0.258807,0.940386,0.2206679999999999,0.01581,0.007109,0.008351
1422,-0.258575,0.940544,0.220263,0.017685,0.0061719999999999,0.009946
1423,-0.258221,0.9407,0.220011,0.005215,0.001789,0.008597
1424,-0.257942,0.940823,0.219815,-0.00161,-0.000423,0.005221
1425,-0.257799,0.940906,0.219625,0.0068379999999999,0.0045439999999999,0.007411
1426,-0.257716,0.94095,0.219534,0.01211,0.009795,0.000269
1427,-0.257619,0.940986,0.219492,0.0143639999999999,0.008278,-0.00155
1428,-0.257503,0.941023,0.2194699999999999,0.012356,0.009035,-0.002201
1429,-0.2574369999999999,0.941047,0.2194449999999999,0.010184,0.009255,-0.008767
1430,-0.2574,0.941081,0.219342,0.00798,0.006306,-0.011655
1431,-0.257405,0.941122,0.21916,0.01154,0.007593,-0.008345
1432,-0.25743,0.941168,0.218935,0.0148919999999999,0.004556,-0.001741
1433,-0.25742,0.941202,0.218803,0.014912,0.005545,0.0010609999999999
1434,-0.257349,0.941224,0.21879,0.0146729999999999,0.006194,-0.001795
1435,-0.257276,0.941244,0.218788,0.013318,0.0076849999999999,-0.003655
1436,-0.257222,0.941263,0.218769,0.0095269999999999,0.002539,0.000377
1437,-0.257191,0.941265,0.218797,0.00626,-0.00018,0.000243
1438,-0.25722,0.941258,0.218796,0.007388,0.009487,-0.0017699999999999
1439,-0.257278,0.941259,0.2187239999999999,0.014679,0.0129349999999999,-0.0065349999999999
1440,-0.257392,0.941265,0.218563,0.023322,0.0112959999999999,-0.005413
1441,-0.257465,0.941278,0.2184199999999999,0.02254,0.006934,0.000498
1442,-0.257412,0.941312,0.218335,0.019329,-0.001004,-0.00018
1443,-0.257289,0.941363,0.2182619999999999,0.023448,-0.001101,0.0017399999999999
1444,-0.257125,0.941419,0.218213,0.020339,0.004306,0.000583
1445,-0.256939,0.941437,0.218353,0.012051,0.007416,-0.005081
1446,-0.256838,0.941411,0.218586,0.0102099999999999,0.008418,-0.0072819999999999
1447,-0.256776,0.94137,0.218836,0.0132,0.011114,-0.009089
1448,-0.256768,0.941323,0.219045,0.013528,0.009361,-0.009359
1449,-0.256789,0.941286,0.219182,0.013548,0.009398,-0.009496
1450,-0.256767,0.941281,0.219229,0.0132819999999999,0.007801,-0.001715
1451,-0.25675,0.941271,0.2192909999999999,0.011175,0.0091989999999999,-0.0070709999999999
1452,-0.256677,0.941262,0.219414,0.0111019999999999,0.009208,-0.007195
1453,-0.256529,0.941341,0.2192469999999999,0.0256939999999999,0.006565,-0.001276
1454,-0.256308,0.941528,0.218704,0.013144,0.0028539999999999,0.011109
1455,-0.255985,0.941777,0.2180099999999999,0.007572,0.006267,0.007728
1456,-0.255655,0.942014,0.217369,0.003351,0.012759,0.014153
1457,-0.255721,0.942143,0.216731,0.0108019999999999,-0.01238,0.007756
1458,-0.255797,0.942166,0.216542,0.0086959999999999,-0.018415,0.02792
1459,-0.256298,0.94221,0.215757,0.008556,0.005315,0.014056
1460,-0.256412,0.942045,0.2163409999999999,0.027835,0.009142,0.003767
1461,-0.256359,0.941871,0.21716,0.029796,0.0082329999999999,-0.013227
1462,-0.256306,0.941688,0.218013,0.010532,0.0187,-0.024013
1463,-0.256373,0.941611,0.218269,0.010966,0.0171599999999999,-0.032035
1464,-0.256228,0.941601,0.2184809999999999,0.022844,0.01627,-0.033301
1465,-0.255759,0.941806,0.2181449999999999,0.021216,0.0106629999999999,0.00236
1466,-0.255371,0.942144,0.217138,-0.015488,-0.004568,0.0205169999999999
1467,-0.255243,0.942437,0.216017,-0.020208,-0.011742,0.032335
1468,-0.255386,0.942544,0.2153769999999999,0.007309,-0.001519,0.037674
1469,-0.255477,0.942449,0.215685,0.025268,0.000971,0.013807
1470,-0.255515,0.942321,0.216198,0.029166,0.0067909999999999,0.003925
1471,-0.2555699999999999,0.942156,0.216854,0.021485,0.011595,-0.0193449999999999
1472,-0.255588,0.942042,0.217327,0.012088,0.014471,-0.021908
1473,-0.255644,0.941977,0.217542,0.0132729999999999,0.010263,-0.02963
1474,-0.2555739999999999,0.942007,0.217492,0.0171699999999999,0.011163,-0.02755
1475,-0.2554369999999999,0.942175,0.2169239999999999,0.007345,0.006662,0.001887
1476,-0.2553539999999999,0.942422,0.2159469999999999,0.007261,0.006415,0.002864
1477,-0.255386,0.942638,0.214966,0.000732,-0.000698,0.032303
1478,-0.255406,0.942701,0.2146679999999999,0.011234,-0.000349,0.028221
1479,-0.255328,0.942668,0.2149039999999999,0.014972,0.0017289999999999,0.020204
1480,-0.255228,0.942607,0.2152909999999999,0.016245,0.002691,-0.012594
1481,-0.255256,0.942553,0.215491,0.016211,0.001325,-0.011908
1482,-0.255252,0.942539,0.215558,0.016895,0.0075349999999999,-0.010098
1483,-0.255167,0.942554,0.21559,0.010919,0.011868,-0.015685
1484,-0.255077,0.942615,0.215432,0.011821,0.011823,-0.013818
1485,-0.255042,0.942705,0.215077,0.009879,0.009901,-0.009297
1486,-0.255079,0.942795,0.214638,0.010618,0.001266,0.008415
1487,-0.255117,0.942847,0.214363,0.016469,0.001153,0.015984
1488,-0.2550199999999999,0.942871,0.2143719999999999,0.016083,0.000946,0.010573
1489,-0.254855,0.942886,0.214503,0.008639,0.0024879999999999,0.004399
1490,-0.254756,0.942897,0.214574,0.005565,0.001943,0.002574
1491,-0.254749,0.942892,0.214602,0.006367,0.005137,0.002561
1492,-0.254775,0.942864,0.214694,0.010771,0.008735,-0.000582
1493,-0.254768,0.942849,0.214768,0.011542,0.00997,-0.003678
1494,-0.254783,0.942854,0.214728,0.014503,0.011614,-0.0065829999999999
1495,-0.2548289999999999,0.942882,0.214551,0.0149,0.008473,-0.0015689999999999
1496,-0.254892,0.942928,0.214278,0.015497,0.0059549999999999,0.002123
1497,-0.254925,0.942961,0.2140929999999999,0.014691,0.004991,0.005878
1498,-0.254932,0.942977,0.214015,0.0103489999999999,0.002534,0.00594
1499,-0.254936,0.942977,0.214011,0.009651,0.005067,-0.001181
1500,-0.254998,0.942965,0.21399,0.012368,0.005339,-0.00145
1501,-0.255061,0.942962,0.213925,0.012156,0.005142,-0.000317
1502,-0.255117,0.94296,0.213867,0.008779,0.007174,0.005463
1503,-0.255222,0.942946,0.213805,0.007388,0.007295,0.004915
1504,-0.25536,0.942922,0.213745,0.0152319999999999,0.004206,0.006027
1505,-0.255558,0.942883,0.213679,0.012898,0.004306,0.0076349999999999
1506,-0.255709,0.942824,0.213761,0.014147,0.003572,0.004043
1507,-0.255753,0.942787,0.2138699999999999,0.016159,0.000297,-0.001987
1508,-0.255765,0.942769,0.213939,0.012937,0.007946,-0.005046
1509,-0.255778,0.942765,0.213939,0.0132389999999999,0.01039,-0.007319
1510,-0.255806,0.942775,0.213862,0.0129319999999999,0.012074,-0.001963
1511,-0.255888,0.942772,0.213777,0.010847,0.008202,0.003157
1512,-0.255943,0.942778,0.213688,0.012153,0.009462,-0.001515
1513,-0.255959,0.942779,0.213662,0.016045,0.0070799999999999,-0.003411
1514,-0.255913,0.942797,0.213638,0.010628,0.00395,-0.005065
1515,-0.255894,0.94281,0.213602,0.011967,0.0043939999999999,-0.002863
1516,-0.2559329999999999,0.942826,0.213488,0.010022,0.005279,-0.002169
1517,-0.255995,0.942832,0.213387,0.013609,0.004647,0.006492
1518,-0.256056,0.942822,0.213358,0.014006,0.005542,0.005682
1519,-0.256119,0.942792,0.213413,0.012604,0.003436,0.004818
1520,-0.2561489999999999,0.942754,0.213546,0.014175,0.002208,0.0039369999999999
1521,-0.2561469999999999,0.942725,0.213675,0.014188,0.0037159999999999,0.004586
1522,-0.25611,0.942716,0.213759,0.010749,-0.000486,0.004625
1523,-0.256062,0.942693,0.213917,0.011418,0.000986,-0.000523
1524,-0.256013,0.942638,0.2142219999999999,0.011109,0.008565,-0.009159
1525,-0.25599,0.94256,0.214592,0.01304,0.011511,-0.01815
1526,-0.255996,0.942487,0.214905,0.014434,0.0128199999999999,-0.0211039999999999
1527,-0.2559659999999999,0.942411,0.215272,0.01738,0.015124,-0.025208
1528,-0.255864,0.942376,0.21555,0.008656,0.024894,-0.026356
1529,-0.255759,0.942427,0.21545,0.005728,0.023698,-0.015895
1530,-0.255416,0.942673,0.21478,0.009719,0.014465,-0.015423
1531,-0.254763,0.943217,0.213162,-0.011519,-0.001521,0.052936
1532,-0.254422,0.943899,0.210533,-0.021945,-0.009588,0.076622
1533,-0.254655,0.944401,0.207984,-0.026106,-0.01952,0.088113
1534,-0.255103,0.944542,0.206789,0.009589,-0.025841,0.095014
1535,-0.25549,0.944367,0.207111,0.04881,-0.00789,0.041867
1536,-0.255907,0.943993,0.2082989999999999,0.042269,-0.005883,0.022918
1537,-0.256421,0.943391,0.210382,0.031689,-0.005342,-0.0157409999999999
1538,-0.2570119999999999,0.942615,0.213119,0.020715,0.014889,-0.052917
1539,-0.257532,0.941859,0.2158159999999999,0.019312,0.020543,-0.063564
1540,-0.257868,0.941245,0.218081,0.0091349999999999,0.029656,-0.075778
1541,-0.258177,0.940846,0.219434,0.005628,0.033779,-0.081846
1542,-0.258536,0.940709,0.219599,0.00785,0.033031,-0.074152
1543,-0.258993,0.940815,0.218602,0.003485,0.022625,-0.030431
1544,-0.259567,0.941023,0.21702,0.006058,0.014986,-0.007303
1545,-0.260109,0.941256,0.215354,0.013465,0.010908,0.005547
1546,-0.260439,0.941517,0.213806,0.028383,-0.000676,0.032456
1547,-0.260479,0.941708,0.212917,0.03152,-0.002682,0.0359089999999999
1548,-0.260103,0.941836,0.212812,0.024019,-0.001848,0.02463
1549,-0.259496,0.941948,0.213056,0.014028,-0.001182,0.01401
1550,-0.25898,0.942112,0.212959,0.0094989999999999,-0.00214,0.016518
1551,-0.258683,0.942284,0.212558,0.003709,-0.0021739999999999,0.023633
1552,-0.258583,0.942323,0.212507,-0.000953,-0.004563,0.027086
1553,-0.258659,0.942159,0.21314,0.003975,0.0021,0.006968
1554,-0.2589329999999999,0.941772,0.2145159999999999,0.010124,0.010407,-0.0086129999999999
1555,-0.259191,0.941276,0.2163679999999999,0.033391,0.015892,-0.046232
1556,-0.259354,0.940857,0.21799,0.034897,0.019043,-0.054568
1557,-0.259466,0.940626,0.218852,0.032202,0.018435,-0.0580549999999999
1558,-0.259476,0.940593,0.218982,0.0037229999999999,0.016087,-0.033511
1559,-0.259513,0.940678,0.218574,-0.008461,0.018047,-0.018425
1560,-0.259522,0.940821,0.2179449999999999,0.0049299999999999,0.012273,-0.00806
1561,-0.259207,0.94115,0.216898,0.018897,0.008191,0.00913
1562,-0.258779,0.941706,0.21499,0.009588,0.003454,0.035254
1563,-0.258434,0.942341,0.212608,-0.000325,-0.005101,0.0507899999999999
1564,-0.2584619999999999,0.942829,0.210401,-0.023505,-0.033009,0.085834
1565,-0.258764,0.942902,0.2097,0.002493,-0.028473,0.079698
1566,-0.259029,0.942601,0.210723,0.0238,-0.0214889999999999,0.061311
1567,-0.259181,0.942043,0.2130179999999999,0.041102,0.006962,-0.001333
1568,-0.259121,0.941388,0.215964,0.020566,0.018298,-0.051749
1569,-0.2590159999999999,0.940828,0.218517,0.02046,0.018859,-0.0543019999999999
1570,-0.258919,0.940373,0.220581,0.0017469999999999,0.03059,-0.074584
1571,-0.259029,0.94018,0.22127,0.005779,0.030355,-0.069156
1572,-0.259191,0.940244,0.220808,0.0059409999999999,0.030291,-0.0686929999999999
1573,-0.25893,0.940729,0.219042,0.015628,0.022924,-0.023089
1574,-0.25864,0.941519,0.215971,-0.020107,-0.006231,0.051744
1575,-0.2585719999999999,0.942247,0.212854,-0.029773,-0.022859,0.080664
1576,-0.258866,0.942632,0.210784,-0.009018,-0.038854,0.090486
1577,-0.259262,0.942528,0.210763,0.032227,-0.015648,0.051292
1578,-0.259503,0.942142,0.212184,0.0476959999999999,-0.002903,0.026601
1579,-0.25955,0.94164,0.2143409999999999,0.053755,0.008509,-0.015077
1580,-0.259332,0.941214,0.216467,0.021218,0.018396,-0.049642
1581,-0.259088,0.940958,0.2178699999999999,0.009149,0.02175,-0.0540059999999999
1582,-0.25886,0.940873,0.2185079999999999,-0.008139,0.022537,-0.055041
1583,-0.25869,0.940993,0.218189,0.006859,0.018739,-0.02721
1584,-0.258548,0.941326,0.2169199999999999,0.0078,0.0147139999999999,-0.008988
1585,-0.2585179999999999,0.941749,0.21511,-0.005215,-0.0058969999999999,0.04078
1586,-0.258615,0.941986,0.213952,0.004647,-0.012176,0.047935
1587,-0.258696,0.941971,0.213917,0.017897,-0.0093239999999999,0.040813
1588,-0.258646,0.941837,0.214569,0.036768,0.005184,0.002945
1589,-0.258565,0.941653,0.2154719999999999,0.028187,0.008924,-0.017245
1590,-0.258463,0.941515,0.216198,0.024272,0.0105569999999999,-0.021893
1591,-0.258321,0.941457,0.2166179999999999,0.00266,0.012324,-0.0151569999999999
1592,-0.258194,0.941476,0.216687,-0.002777,0.011329,-0.0147979999999999
1593,-0.2580639999999999,0.941525,0.216632,-0.00245,0.0079379999999999,-0.0130949999999999
1594,-0.257982,0.941618,0.216323,0.0047009999999999,0.005571,0.005128
1595,-0.257959,0.941715,0.215929,0.011972,0.001614,0.011595
1596,-0.257891,0.941786,0.2157,0.020022,0.003512,0.0144789999999999
1597,-0.257719,0.941836,0.215688,0.023802,0.000624,0.012828
1598,-0.25743,0.941869,0.215887,0.0162639999999999,0.001048,0.003626
1599,-0.257094,0.941911,0.216102,0.0095959999999999,0.003249,0.001656
1600,-0.256808,0.941954,0.216255,0.0008869999999999,0.004777,-0.001838
1601,-0.256701,0.941968,0.216319,0.004779,0.0056939999999999,0.003087
1602,-0.256637,0.941969,0.216394,0.002746,0.005602,0.004874
1603,-0.256546,0.941972,0.216488,0.007126,0.006499,-0.0004379999999999
1604,-0.256471,0.941993,0.216486,0.00908,0.005929,-0.000757
1605,-0.256363,0.94203,0.216452,0.014938,0.0074329999999999,0.000131
1606,-0.256247,0.942084,0.216354,0.013372,0.004571,0.003967
1607,-0.256117,0.942138,0.21627,0.009352,0.000977,0.00927
1608,-0.25598,0.942183,0.2162369999999999,0.005965,0.001298,0.0124459999999999
1609,-0.25579,0.942231,0.216253,0.00904,0.003295,0.006174
1610,-0.255555,0.942297,0.216243,0.007921,0.007868,0.001866
1611,-0.255382,0.942379,0.2160909999999999,0.0077469999999999,0.0077859999999999,0.002018
1612,-0.255263,0.942454,0.215903,0.011443,0.005681,0.0067079999999999
1613,-0.255223,0.942515,0.215686,0.01215,0.00234,0.0069549999999999
1614,-0.255168,0.942579,0.21547,0.0120959999999999,0.002276,0.0071709999999999
1615,-0.255048,0.942644,0.215329,0.014112,0.002409,0.007633
1616,-0.25487,0.942709,0.215253,0.011752,0.003351,0.002917
1617,-0.254688,0.942779,0.21516,0.01157,0.003281,0.00301
1618,-0.254512,0.942856,0.215031,0.0076709999999999,0.006118,0.001827
1619,-0.254398,0.942923,0.214873,0.010104,0.01011,-0.000792
1620,-0.254311,0.942993,0.214669,0.010018,0.010041,-0.000588
1621,-0.2542,0.943077,0.2144309999999999,0.011189,0.00785,-0.003325
1622,-0.2541239999999999,0.943164,0.214139,0.012776,0.006192,-0.004545
1623,-0.254109,0.943255,0.213755,0.014668,0.007367,-0.003215
1624,-0.254089,0.943342,0.213396,0.015549,0.008287,-0.002016
1625,-0.254038,0.94343,0.2130699999999999,0.017085,0.006018,-0.000805
1626,-0.253955,0.943525,0.212746,0.017459,0.003633,0.000404
1627,-0.253863,0.94363,0.212392,0.016711,0.003621,0.002132
1628,-0.253721,0.943733,0.212103,0.015074,0.007714,-0.001791
1629,-0.253555,0.943837,0.211842,0.013793,0.008709,-0.002506
1630,-0.253394,0.943932,0.211609,0.013175,0.0069349999999999,-0.008118
1631,-0.253282,0.944045,0.2112389999999999,0.0144669999999999,0.007386,-0.003918
1632,-0.253198,0.944184,0.210722,0.01072,0.009536,-0.0002109999999999
1633,-0.253141,0.944317,0.210192,0.014875,0.0069459999999999,0.00018
1634,-0.253148,0.944409,0.209774,0.0199169999999999,0.006031,-0.0023
1635,-0.253065,0.94451,0.209417,0.014372,0.00303,0.000742
1636,-0.252936,0.944614,0.209107,0.017432,0.004285,-0.000611
1637,-0.252803,0.94472,0.208787,0.018413,0.0067569999999999,0.003676
1638,-0.252621,0.944807,0.208616,0.0172389999999999,0.008013,0.004915
1639,-0.252388,0.944869,0.208613,0.013009,0.007264,-0.002986
1640,-0.252273,0.944914,0.2085489999999999,0.014678,0.006883,0.001701
1641,-0.252282,0.944941,0.208416,0.015969,0.004567,0.004749
1642,-0.252228,0.944984,0.20829,0.007645,0.001809,0.006356
1643,-0.252091,0.945028,0.208255,0.00586,0.004771,0.002759
1644,-0.2519119999999999,0.94508,0.2082369999999999,0.009297,0.006077,-0.000611
1645,-0.251778,0.945115,0.2082389999999999,0.001885,0.006164,-0.001467
1646,-0.251676,0.94514,0.208247,0.002607,0.004109,-0.002284
1647,-0.251668,0.945169,0.208128,0.005253,0.003852,0.003557
1648,-0.251684,0.945208,0.207931,0.004828,0.00186,0.005967
1649,-0.251685,0.945231,0.2078239999999999,0.007011,0.00031,0.004868
1650,-0.251687,0.945241,0.207777,0.006219,0.002864,0.006289
1651,-0.251716,0.945257,0.207668,0.008079,0.005717,0.001393
1652,-0.251753,0.945263,0.2075929999999999,0.007597,0.006473,0.0038179999999999
1653,-0.25178,0.945267,0.207544,0.008006,0.007019,0.004263
1654,-0.251823,0.945269,0.207482,0.003699,0.002927,0.003349
1655,-0.2519099999999999,0.945271,0.207368,0.004702,0.004375,0.000808
1656,-0.252036,0.945268,0.207229,0.004691,0.0060869999999999,0.0017399999999999
1657,-0.252163,0.945272,0.207056,0.007702,0.004817,0.006399
1658,-0.252307,0.945273,0.206877,0.0087,0.003152,0.005525
1659,-0.252456,0.945262,0.206746,0.0081319999999999,0.006307,0.003932
1660,-0.2525739999999999,0.945238,0.206713,0.01356,0.006163,0.004301
1661,-0.252727,0.945203,0.206686,0.0135,0.002643,0.004099
1662,-0.252917,0.945152,0.2066869999999999,0.0136889999999999,0.002694,0.004098
1663,-0.253083,0.9451,0.206717,0.010209,0.00215,0.0035789999999999
1664,-0.253256,0.94503,0.206826,0.012808,0.009224,0.002036
1665,-0.253447,0.944963,0.206901,0.012999,0.0092909999999999,0.001961
1666,-0.253633,0.944906,0.206933,0.015352,0.005396,0.001075
1667,-0.253825,0.944835,0.2070219999999999,0.0136669999999999,0.0033469999999999,0.001275
1668,-0.254021,0.944752,0.2071599999999999,0.017265,0.000103,5.5e-05
1669,-0.254166,0.944683,0.2072969999999999,0.015946,0.006184,-0.003073
1670,-0.254257,0.944621,0.2074659999999999,0.0172879999999999,0.007542,-0.007133
1671,-0.254331,0.944569,0.207614,0.015638,0.0080069999999999,-0.007709
1672,-0.254425,0.944526,0.207692,0.01535,0.007287,-0.004078
1673,-0.254515,0.944499,0.207704,0.015196,0.004735,-0.00258
1674,-0.254573,0.944469,0.207771,0.014094,0.005924,-0.0035009999999999
1675,-0.2545679999999999,0.944443,0.2078949999999999,0.012716,0.007598,-0.006205
1676,-0.2545429999999999,0.944417,0.208044,0.01115,0.00677,-0.0050409999999999
1677,-0.254575,0.944384,0.208156,0.009733,0.006391,-0.004405
1678,-0.2545659999999999,0.944344,0.2083489999999999,0.00922,0.006889,-0.00411
1679,-0.254536,0.944307,0.20855,0.015065,0.005934,-0.005593
1680,-0.2545139999999999,0.944268,0.208752,0.01132,0.005713,-0.005978
1681,-0.254474,0.944237,0.208942,0.007434,0.0046619999999999,-0.005558
1682,-0.254447,0.944202,0.2091329999999999,0.007056,0.005734,-0.0049549999999999
1683,-0.254442,0.944187,0.209209,0.009783,0.003094,-0.002239
1684,-0.254403,0.944191,0.2092369999999999,0.0084459999999999,0.00486,0.0038979999999999
1685,-0.254374,0.944187,0.2092929999999999,0.008829,0.00314,0.004345
1686,-0.254318,0.94417,0.2094349999999999,0.007278,0.0035689999999999,0.005806
1687,-0.254234,0.944142,0.209667,0.0093,0.001934,-0.000286
1688,-0.254167,0.944109,0.209893,0.008546,0.004026,-0.001473
1689,-0.254131,0.944079,0.210075,0.012218,0.003584,0.000725
1690,-0.254126,0.944056,0.210182,0.004477,-0.001383,0.009758
1691,-0.254106,0.94402,0.210366,0.00789,0.000834,0.0082469999999999
1692,-0.254073,0.943982,0.210579,0.008773,0.001117,0.008095
1693,-0.254021,0.943939,0.210835,0.005364,0.0041659999999999,0.002346
1694,-0.2539599999999999,0.943893,0.211117,0.0073019999999999,0.008546,-4.2e-05
1695,-0.253952,0.943854,0.211296,0.009293,0.009011,-0.000252
1696,-0.253982,0.943829,0.2113739999999999,0.009231,0.000522,0.004415
1697,-0.2540429999999999,0.943792,0.211467,0.006423,0.002177,0.01064
1698,-0.254094,0.943756,0.2115659999999999,0.0079849999999999,0.002625,0.006726
1699,-0.2541199999999999,0.943721,0.21169,0.008805,0.003789,0.005427
1700,-0.254169,0.943682,0.211805,0.012103,0.004011,-0.000242
1701,-0.254189,0.943637,0.211984,0.013406,0.003461,-0.000848
1702,-0.254187,0.943613,0.21209,0.008795,0.002035,0.00225
1703,-0.25421,0.943598,0.212132,0.012984,0.003515,0.001888
1704,-0.254195,0.94359,0.212187,0.01338,0.006987,0.002244
1705,-0.2541219999999999,0.943588,0.212283,0.011888,0.007309,-0.0003689999999999
1706,-0.254053,0.943594,0.212336,0.011118,0.008539,-0.003199
1707,-0.254039,0.943603,0.212315,0.014125,0.004762,0.000957
1708,-0.2540139999999999,0.94362,0.212267,0.010835,0.003035,0.001997
1709,-0.2539619999999999,0.943642,0.212232,0.016428,0.003944,0.0034049999999999
1710,-0.2539079999999999,0.943667,0.2121849999999999,0.012651,0.003904,0.004108
1711,-0.253834,0.943689,0.212175,0.0093569999999999,0.002203,0.002592
1712,-0.25376,0.943705,0.212195,0.011649,0.001867,0.004617
1713,-0.253733,0.943714,0.212187,0.012476,0.003888,0.0049299999999999
1714,-0.253687,0.943727,0.212182,0.011271,0.005293,0.0032719999999999
1715,-0.253633,0.943732,0.212228,0.012452,0.002832,0.003424
1716,-0.2535949999999999,0.94373,0.212282,0.011637,0.002209,0.002943
1717,-0.253537,0.943732,0.21234,0.013028,0.004968,0.001985
1718,-0.253442,0.943741,0.212414,0.012505,0.003021,0.000675
1719,-0.253364,0.943744,0.212495,0.014274,0.006619,0.001235
1720,-0.25327,0.943755,0.212555,0.012517,0.006547,0.0038759999999999
1721,-0.253187,0.943755,0.212654,0.012662,0.0054329999999999,-0.000222
1722,-0.253108,0.943746,0.2127889999999999,0.012339,0.005411,-0.001256
1723,-0.253033,0.943737,0.2129199999999999,0.01144,0.004581,-0.001341
1724,-0.252944,0.943735,0.213033,0.01329,0.006567,-0.001134
1725,-0.252871,0.943732,0.213133,0.01308,0.00715,-0.002012
1726,-0.252755,0.943729,0.213282,0.012948,0.011105,-0.0065099999999999
1727,-0.252666,0.94373,0.213384,0.011654,0.010326,-0.006795
1728,-0.252561,0.943753,0.2134059999999999,0.00958,0.010272,-0.005902
1729,-0.252482,0.943785,0.213361,0.00564,0.002184,-5.8e-05
1730,-0.252472,0.94381,0.213258,0.009033,0.001334,0.003386
1731,-0.252483,0.943821,0.213198,0.012188,0.002667,0.004606
1732,-0.2524639999999999,0.943831,0.213178,0.011177,0.002168,0.005954
1733,-0.2524099999999999,0.943836,0.213219,0.01068,0.000683,0.005028
1734,-0.252406,0.943816,0.2133139999999999,0.01269,0.0005809999999999,0.004292
1735,-0.252375,0.943785,0.213486,0.010584,0.002184,0.000839
1736,-0.252322,0.94377,0.2136159999999999,0.00954,0.004137,-0.001259
1737,-0.252277,0.94377,0.213671,0.010211,0.005632,-0.002779
1738,-0.252247,0.943758,0.213755,0.012653,0.008177,-0.001994
1739,-0.252237,0.943743,0.213834,0.013971,0.006178,0.000643
1740,-0.252242,0.943735,0.213862,0.0158069999999999,0.006094,-7.099999999999999e-05
1741,-0.2521739999999999,0.943742,0.213913,0.018562,0.006103,-0.0017399999999999
1742,-0.2520739999999999,0.943747,0.214008,0.015502,0.003885,-0.002002
1743,-0.2519659999999999,0.943764,0.21406,0.013654,0.004463,-0.003016
1744,-0.251868,0.943776,0.2141199999999999,0.010199,0.003764,0.000663
1745,-0.251834,0.943755,0.214251,0.0087459999999999,0.003953,-6.4e-05
1746,-0.251824,0.943726,0.2143929999999999,0.009621,0.00589,0.000176
1747,-0.251768,0.943728,0.214451,0.01074,0.008985,-0.007145
1748,-0.2516989999999999,0.94375,0.214435,0.008336,0.005163,-0.00365
1749,-0.25164,0.943791,0.214325,0.008781,0.001598,0.002014
1750,-0.251601,0.943823,0.214229,0.007201,0.00059,0.004613
1751,-0.251594,0.943842,0.2141539999999999,0.0119239999999999,0.0018679999999999,0.005527
1752,-0.251569,0.943856,0.2141219999999999,0.011839,0.003807,0.005758
1753,-0.251504,0.943864,0.214162,0.009805,0.004287,0.000162
1754,-0.25144,0.943859,0.2142619999999999,0.010901,0.0060009999999999,-0.002576
1755,-0.251402,0.943842,0.214378,0.0142949999999999,0.004598,-0.006004
1756,-0.251308,0.943825,0.214565,0.014461,0.00515,-0.008633
1757,-0.251202,0.943812,0.214746,0.009518,0.010381,-0.011316
1758,-0.251131,0.9438,0.214883,-0.003126,0.0186789999999999,-0.007882
1759,-0.251192,0.943765,0.214967,0.006548,0.012046,-0.009737
1760,-0.251081,0.943826,0.214829,0.028852,0.002112,-0.007325
1761,-0.250653,0.94416,0.21386,0.008984,0.011956,0.029869
1762,-0.2504,0.944655,0.2119599999999999,-0.025433,-0.025832,0.066223
1763,-0.250449,0.945014,0.210292,-0.002832,-0.029258,0.070088
1764,-0.250944,0.944984,0.2098409999999999,0.023191,-0.028205,0.057691
1765,-0.251378,0.944641,0.210863,0.047764,-0.004196,0.018904
1766,-0.251689,0.944057,0.2130949999999999,0.0438649999999999,0.018697,-0.0492
1767,-0.251712,0.943436,0.215801,0.0389129999999999,0.021927,-0.062435
1768,-0.251601,0.942946,0.218057,0.021712,0.024049,-0.072672
1769,-0.251408,0.942676,0.21944,-0.007075,0.019497,-0.063373
1770,-0.2513849999999999,0.942595,0.2198159999999999,-0.0117989999999999,0.013307,-0.049574
1771,-0.2514889999999999,0.942714,0.219188,-0.013144,0.022405,-0.012569
1772,-0.251739,0.942879,0.218186,-0.003678,0.021095,0.003203
1773,-0.251956,0.943022,0.217317,0.009021,0.017137,0.007704
1774,-0.251951,0.943224,0.216444,0.023283,-0.002398,0.029421
1775,-0.251686,0.943524,0.215444,0.012886,-0.0096709999999999,0.038859
1776,-0.251333,0.943895,0.214229,0.002538,-0.015306,0.04633
1777,-0.251156,0.944204,0.2130699999999999,-0.006412,-0.025366,0.058933
1778,-0.251282,0.94429,0.212542,0.003006,-0.023285,0.057249
1779,-0.251521,0.94409,0.2131449999999999,0.03274,-0.006804,0.0287529999999999
1780,-0.251662,0.943657,0.214889,0.0271889999999999,0.003013,-0.03392
1781,-0.251639,0.943173,0.217031,0.024496,0.011219,-0.04865
1782,-0.251406,0.942773,0.219025,0.0195949999999999,0.016531,-0.05391
1783,-0.251151,0.942511,0.220444,0.001685,0.026743,-0.065094
1784,-0.251027,0.94242,0.2209739999999999,-0.00352,0.0277339999999999,-0.048977
1785,-0.251098,0.94249,0.2205909999999999,0.002334,0.024261,-0.025462
1786,-0.251271,0.942713,0.219439,0.0033009999999999,0.013921,0.002439
1787,-0.251381,0.943034,0.217933,0.0013189999999999,0.00057,0.027795
1788,-0.251403,0.943384,0.216389,0.005691,-0.0090879999999999,0.0499379999999999
1789,-0.2513849999999999,0.943679,0.2151199999999999,0.012356,-0.014586,0.058272
