,gravity.x,gravity.y,gravity.z,userAcceleration.x,userAcceleration.y,userAcceleration.z
0,-0.173702,0.9841,-0.03698,-0.0359839999999999,0.003067,0.0094069999999999
1,-0.174612,0.98394,-0.036955,-0.03132,0.008659,0.012511
2,-0.17497,0.983861,-0.037377,-0.017657,0.008143,0.00927
3,-0.174627,0.983892,-0.038173,-0.012628,0.015437,0.007686
4,-0.1738589999999999,0.98399,-0.039159,-0.000808,0.0218389999999999,-0.002254
5,-0.172825,0.984127,-0.04027,-0.017269,0.028401,0.013399
6,-0.171296,0.984297,-0.042592,-0.014907,0.018984,0.013844
7,-0.169614,0.984455,-0.04555,-0.019046,-0.021824,-0.013806
8,-0.168298,0.984634,-0.046556,-0.043677,-0.015777,0.01375
9,-0.167686,0.984743,-0.046464,-0.051766,-0.005067,0.015916
10,-0.16771,0.984762,-0.0459759999999999,-0.039916,-0.0077569999999999,0.015443
11,-0.168538,0.984652,-0.0453019999999999,-0.011348,-0.010134,0.0103439999999999
12,-0.1695559999999999,0.984517,-0.044422,0.00386,-0.009023,0.006825
13,-0.170875,0.984334,-0.043419,0.026038,0.0010019999999999,0.000176
14,-0.172269,0.984144,-0.042186,0.0516029999999999,0.006731,-0.000874
15,-0.1733579999999999,0.983994,-0.041222,0.054477,0.0160669999999999,-0.00251
16,-0.174218,0.983861,-0.040774,0.060144,0.017528,-0.007504
17,-0.174455,0.983818,-0.040797,0.061875,0.025383,-0.015477
18,-0.174513,0.983799,-0.0410079999999999,0.059599,0.019924,-0.015068
19,-0.173867,0.983899,-0.041342,0.041116,0.007266,-0.011316
20,-0.1731069999999999,0.984016,-0.041745,0.031917,0.014946,-0.011066
21,-0.172341,0.984128,-0.042292,0.026177,0.01604,-0.007192
22,-0.171248,0.98428,-0.043179,0.017897,0.00716,0.00082
23,-0.170569,0.984354,-0.044163,0.007758,0.006567,0.003193
24,-0.170145,0.984395,-0.044887,0.004297,0.0049689999999999,0.005839
25,-0.169731,0.984446,-0.045328,-0.01017,-0.002177,0.007425
26,-0.169728,0.984451,-0.04523,-0.012584,-0.0074769999999999,0.012439
27,-0.1698869999999999,0.984449,-0.044673,-0.014302,-0.002058,0.008464
28,-0.170377,0.984399,-0.043919,-0.013522,0.004264,0.010731
29,-0.170951,0.984325,-0.043338,-0.010186,0.006779,0.008578
30,-0.171655,0.984215,-0.043065,-0.002585,0.001183,0.005925
31,-0.172257,0.984115,-0.042946,0.004974,0.006333,0.005302
32,-0.172822,0.984017,-0.042906,0.010178,0.005118,0.002059
33,-0.173178,0.983954,-0.042911,0.013358,0.002908,-0.001766
34,-0.173442,0.983915,-0.042767,0.014049,0.0071129999999999,0.000698
35,-0.173641,0.983887,-0.0426089999999999,0.011791,0.008499,0.004996
36,-0.173838,0.983853,-0.042586,0.007379,-0.001767,0.001448
37,-0.174083,0.983818,-0.042379,0.004345,0.001823,0.001775
38,-0.174335,0.983785,-0.042104,-0.003293,0.005808,0.005177
39,-0.17461,0.98375,-0.04177,-0.009381,0.001937,0.002677
40,-0.174869,0.98372,-0.041398,-0.0120209999999999,0.004424,0.0061649999999999
41,-0.175042,0.983701,-0.041095,-0.016578,0.007784,0.011294
42,-0.175243,0.98367,-0.040975,-0.021061,0.001529,0.010823
43,-0.175553,0.983611,-0.041067,-0.029647,0.010041,0.0098319999999999
44,-0.176029,0.983506,-0.041537,-0.027264,0.010055,0.008487
45,-0.176494,0.983385,-0.042414,-0.0205729999999999,-0.0015429999999999,0.001047
46,-0.176746,0.983317,-0.042933,-0.014294,-0.017955,-0.007512
47,-0.177246,0.983246,-0.042509,-0.008865,-0.004425,0.001921
48,-0.177569,0.983212,-0.041933,-0.002897,0.001346,0.003832
49,-0.177901,0.983174,-0.041427,0.003738,0.002742,0.010147
50,-0.178471,0.983081,-0.0411959999999999,0.004399,0.002714,0.00488
51,-0.179117,0.982981,-0.040764,0.005457,0.002035,0.0004349999999999
52,-0.179791,0.982877,-0.040285,0.001553,-0.00636,0.002825
53,-0.180207,0.982822,-0.039764,-0.008315,-0.001407,0.004608
54,-0.180521,0.982786,-0.039215,-0.011862,0.007967,0.004837
55,-0.180776,0.982755,-0.038831,-0.012828,0.00748,0.008482
56,-0.180951,0.982731,-0.038597,-0.01723,0.009044,0.007729
57,-0.1811019999999999,0.982708,-0.038498,-0.016377,0.010182,0.006592
58,-0.181283,0.982672,-0.038544,-0.015174,0.0084319999999999,0.0038299999999999
59,-0.181335,0.982663,-0.0385519999999999,-0.008042,0.003788,0.0065239999999999
60,-0.181297,0.982664,-0.038687,-0.008553,0.000612,0.004202
61,-0.181272,0.98267,-0.038653,0.0019809999999999,0.002941,0.002521
62,-0.181248,0.982685,-0.038385,-0.003917,-0.004002,-0.001593
63,-0.181272,0.982696,-0.037989,-0.0004599999999999,0.0071719999999999,0.0032909999999999
64,-0.181426,0.982685,-0.037543,-0.010133,0.00143,0.007895
65,-0.181566,0.982671,-0.037235,-0.011732,0.004801,0.007511
66,-0.181871,0.982629,-0.036858,-0.017928,-0.004892,0.007668
67,-0.182146,0.982596,-0.036389,-0.022063,0.0004059999999999,0.019024
68,-0.182314,0.982579,-0.035998,-0.030866,0.0014759999999999,0.018817
69,-0.182328,0.982589,-0.035656,-0.028426,0.0002299999999999,0.0140349999999999
70,-0.182328,0.982604,-0.035252,-0.0269009999999999,0.000154,0.012776
71,-0.1822119999999999,0.98264,-0.034841,-0.015328,0.001567,0.015203
72,-0.182063,0.982674,-0.034675,-0.010259,0.00277,0.007499
73,-0.182064,0.982683,-0.034391,-0.000691,0.006056,0.005964
74,-0.182005,0.982694,-0.034379,0.004881,0.00487,0.0071719999999999
75,-0.181904,0.982708,-0.034517,0.008961,0.005848,0.0058909999999999
76,-0.181872,0.982706,-0.0347339999999999,0.012515,0.002218,0.002874
77,-0.181782,0.982713,-0.035013,0.013249,0.002242,0.004114
78,-0.181663,0.982724,-0.035313,0.016273,0.0020329999999999,0.004704
79,-0.181303,0.982789,-0.035368,0.00244,0.011169,0.011198
80,-0.180841,0.982866,-0.03558,0.0081269999999999,0.007338,0.018978
81,-0.180417,0.982935,-0.035841,-0.001499,0.006125,0.020109
82,-0.17993,0.983014,-0.036117,-0.008531,-0.004483,0.018066
83,-0.179728,0.983045,-0.036275,-0.004354,0.000948,0.011251
84,-0.179821,0.983031,-0.036185,-0.003681,0.0031899999999999,0.002753
85,-0.18029,0.982954,-0.035942,-0.011345,-0.002501,0.00161
86,-0.1809339999999999,0.982849,-0.035588,-0.007268,0.003784,-0.0008039999999999
87,-0.181548,0.98275,-0.035192,-0.0056619999999999,0.005516,0.000188
88,-0.181945,0.98268,-0.0350889999999999,-0.005524,0.00818,-0.000602
89,-0.182113,0.982649,-0.035095,-0.00644,0.014299,0.0022129999999999
90,-0.18195,0.982669,-0.035396,-0.005993,0.004514,0.001689
91,-0.181469,0.98274,-0.035889,-0.005268,0.006976,0.005386
92,-0.180696,0.982857,-0.036562,-0.010527,0.000571,0.00905
93,-0.179864,0.982986,-0.037194,-0.005255,0.0036009999999999,0.010476
94,-0.1791569999999999,0.983093,-0.0377819999999999,-0.009152,-0.003311,0.0083629999999999
95,-0.178707,0.983159,-0.038189,-0.006291,-0.00147,0.008984
96,-0.178566,0.983174,-0.038472,-0.001976,0.000149,0.0053
97,-0.1788269999999999,0.983127,-0.038447,0.0006349999999999,-0.00066,0.006709
98,-0.179358,0.983038,-0.038264,0.000144,0.002879,0.004069
99,-0.179825,0.982966,-0.037913,-0.003281,0.005758,0.0085849999999999
100,-0.18017,0.982917,-0.037537,-0.007406,0.003426,0.010743
101,-0.180247,0.982912,-0.037295,-0.009268,0.005857,0.01015
102,-0.179982,0.982954,-0.0374839999999999,-0.008602,0.0076159999999999,0.010232
103,-0.179465,0.983034,-0.037867,-0.007852,0.00537,0.015253
104,-0.1789599999999999,0.983108,-0.038331,-0.004405,0.012391,0.011719
105,-0.178463,0.983171,-0.039031,-0.003895,0.0071709999999999,0.008239
106,-0.178106,0.983214,-0.039575,-0.009608,-0.004897,0.004281
107,-0.177834,0.983249,-0.039914,-0.009788,-0.001926,0.008465
108,-0.177653,0.983274,-0.04011,-0.012731,0.002688,0.005595
109,-0.177536,0.983291,-0.040193,-0.014801,0.003098,0.008638
110,-0.17748,0.983299,-0.040243,-0.011714,-0.001564,0.007604
111,-0.177345,0.983326,-0.040184,-0.011284,0.0003779999999999,0.006539
112,-0.177092,0.983376,-0.040082,-0.008973,0.006324,0.008939
113,-0.1768549999999999,0.983415,-0.040181,-0.004999,0.002212,0.008107
114,-0.176558,0.98346,-0.040373,-0.001527,0.002868,0.008909
115,-0.176284,0.983498,-0.04063,-0.002961,-0.004601,0.003994
116,-0.176019,0.983532,-0.040963,0.005471,0.001209,0.010064
117,-0.175584,0.983593,-0.041366,0.0058909999999999,0.006748,0.0081319999999999
118,-0.175163,0.983647,-0.041867,0.010383,0.004116,0.005475
119,-0.174916,0.983673,-0.0422839999999999,0.008366,0.002762,0.005831
120,-0.174771,0.983688,-0.042524,0.01077,0.004074,0.004667
121,-0.17473,0.983696,-0.042513,0.001573,0.002449,0.010424
122,-0.1747,0.983703,-0.042484,-0.001341,0.004441,0.00864
123,-0.174678,0.9837,-0.042651,-0.0007059999999999,0.0010869999999999,0.00458
124,-0.17457,0.983715,-0.042745,-0.006873,0.003529,0.0020039999999999
125,-0.174483,0.98373,-0.042749,-0.007448,0.005009,0.000543
126,-0.1744079999999999,0.98374,-0.042809,-0.005478,0.003564,0.0028309999999999
127,-0.17432,0.983748,-0.043003,0.001468,0.00522,0.001118
128,-0.174209,0.983755,-0.043288,-0.0016489999999999,0.001536,-0.0034189999999999
129,-0.174039,0.98377,-0.043625,-0.001819,0.001521,-0.003082
130,-0.173978,0.983769,-0.0438879999999999,0.006085,0.0049549999999999,-0.004025
131,-0.173934,0.983767,-0.0441149999999999,0.006286,0.002897,-0.006743
132,-0.173823,0.983784,-0.044172,0.006175,0.00288,-0.006686
133,-0.1736849999999999,0.983807,-0.044191,0.001367,0.0027649999999999,-0.001356
134,-0.1735539999999999,0.983827,-0.044266,-0.0041189999999999,0.00041,-0.000503
135,-0.1733869999999999,0.983856,-0.044273,-0.003904,0.002319,0.000434
136,-0.173255,0.983879,-0.044292,-0.004632,0.005104,0.004467
137,-0.173128,0.983898,-0.044361,-0.005323,-0.0016129999999999,0.002857
138,-0.173127,0.983896,-0.044404,-0.003066,0.0048579999999999,0.00409
139,-0.173199,0.983883,-0.0444149999999999,-0.004078,0.0014529999999999,0.003567
140,-0.1733869999999999,0.983857,-0.044265,-0.005874,0.003524,0.006911
141,-0.173668,0.983818,-0.044021,-0.0013039999999999,0.010689,0.006881
142,-0.17413,0.983739,-0.043973,-0.007297,0.008998,0.005932
143,-0.174622,0.983652,-0.043953,-0.0077659999999999,0.002523,0.003761
144,-0.174996,0.98359,-0.0438649999999999,-0.007148,0.002815,0.000759
145,-0.175275,0.983554,-0.04355,-0.004886,0.001004,0.003145
146,-0.175454,0.983544,-0.043071,-0.001045,0.001488,0.002544
147,-0.17548,0.983566,-0.042452,-0.0062829999999999,-0.002349,0.00371
148,-0.1754609999999999,0.983593,-0.041893,-0.000763,0.008976,0.003959
149,-0.175467,0.983609,-0.041486,0.002845,0.001269,0.003385
150,-0.175471,0.983625,-0.041113,0.004618,0.002154,0.003836
151,-0.1754369999999999,0.983647,-0.04073,0.005332,0.003963,0.0060009999999999
152,-0.175354,0.983677,-0.040354,0.0021969999999999,0.0064659999999999,0.003061
153,-0.175171,0.983726,-0.039941,0.002976,0.006294,0.019311
154,-0.174904,0.983782,-0.039741,0.003243,0.002119,0.021903
155,-0.174578,0.983839,-0.039776,0.009341,0.001742,0.015637
156,-0.174324,0.983881,-0.03985,0.011314,0.002676,0.015406
157,-0.174179,0.983908,-0.039804,0.006058,0.006829,0.016046
158,-0.174124,0.983921,-0.039734,0.004065,0.002163,0.017426
159,-0.174046,0.983943,-0.039547,-0.011562,-0.001429,0.0158199999999999
160,-0.1738299999999999,0.98399,-0.039312,-0.013441,0.001727,0.01705
161,-0.173729,0.984015,-0.03914,-0.012184,0.002038,0.014757
162,-0.17378,0.984013,-0.038973,-0.008364,0.0042229999999999,0.013705
163,-0.17397,0.983984,-0.038852,-0.014003,0.003855,0.015353
164,-0.1741079999999999,0.983962,-0.0388089999999999,-0.017283,-0.000105,0.0109769999999999
165,-0.174194,0.983949,-0.03875,-0.019303,0.0043479999999999,0.0148389999999999
166,-0.174232,0.983943,-0.038732,-0.021263,0.001912,0.014547
167,-0.1743019999999999,0.983932,-0.038675,-0.01538,0.001557,0.010782
168,-0.174421,0.983913,-0.038625,-0.010759,0.002018,0.010198
169,-0.174627,0.983878,-0.038591,-0.003931,0.005212,0.005754
170,-0.174873,0.983832,-0.038652,-0.003395,0.001214,0.00664
171,-0.175128,0.983784,-0.03872,-0.001813,0.001629,0.003717
172,-0.1753829999999999,0.983738,-0.03874,0.001051,0.005581,0.005827
173,-0.175562,0.983707,-0.038706,0.000605,0.005123,0.00387
174,-0.1756599999999999,0.983691,-0.038657,-0.0005639999999999,0.005261,0.006232
175,-0.175706,0.983685,-0.038604,0.002167,-0.001538,0.005462
176,-0.175744,0.983682,-0.038491,0.002664,0.0032259999999999,0.006295
177,-0.175791,0.983676,-0.038442,0.003031,0.004468,0.001302
178,-0.175877,0.983663,-0.038366,0.008137,0.002451,-0.001582
179,-0.17603,0.983641,-0.038236,0.00678,0.005693,-0.004214
180,-0.176207,0.983616,-0.038073,0.003126,0.004894,-0.0047729999999999
181,-0.176361,0.983593,-0.037938,0.005585,0.0066409999999999,9.7e-05
182,-0.176417,0.983586,-0.037882,-0.001256,0.007015,0.003672
183,-0.176406,0.983587,-0.0379,-0.001268,0.0070129999999999,0.003689
184,-0.176218,0.983615,-0.03804,-0.005621,0.004727,0.004685
185,-0.175986,0.983652,-0.038174,-0.003594,0.003028,0.007198
186,-0.175761,0.983684,-0.0383709999999999,-0.003423,0.0036969999999999,0.010783
187,-0.17545,0.983734,-0.038521,-0.00854,0.001633,0.015434
188,-0.175101,0.983792,-0.0386209999999999,-0.005807,-0.001447,0.021409
189,-0.174847,0.983829,-0.038844,-0.011493,0.000196,0.024745
190,-0.174706,0.983839,-0.039207,-0.0070409999999999,-0.001509,0.01699
191,-0.174706,0.983834,-0.039333,-0.002479,0.0073459999999999,0.017452
192,-0.174893,0.983799,-0.039387,-0.011844,0.002682,0.013508
193,-0.175154,0.983758,-0.039254,-0.013734,0.0082469999999999,0.017648
194,-0.175393,0.983719,-0.039159,-0.016624,-0.00148,0.017247
195,-0.175465,0.983709,-0.03908,-0.013912,-0.004553,0.0167569999999999
196,-0.175616,0.983683,-0.0390519999999999,-0.003217,0.000325,0.0057729999999999
197,-0.175816,0.983643,-0.039176,0.001256,0.002853,8.3e-05
198,-0.176084,0.983596,-0.039152,0.00279,0.004853,0.00041
199,-0.176313,0.983559,-0.039047,0.004453,0.002571,0.002487
200,-0.176483,0.983527,-0.039083,0.0057979999999999,0.0016719999999999,-4.1e-05
201,-0.1766579999999999,0.983494,-0.039122,0.008643,0.002712,-0.0021379999999999
202,-0.176857,0.983454,-0.039235,0.001152,0.004721,-0.006664
203,-0.177019,0.983421,-0.039322,0.006411,0.0056229999999999,-0.002487
204,-0.1771869999999999,0.983389,-0.039379,0.006884,0.001978,-0.002567
205,-0.177289,0.98337,-0.039392,0.0032619999999999,0.004545,-0.0021579999999999
206,-0.17733,0.983364,-0.039352,0.001518,0.009831,0.002776
207,-0.177254,0.983376,-0.039399,0.002968,0.01078,0.003251
208,-0.177121,0.983386,-0.039743,0.004925,0.006543,0.001703
209,-0.177005,0.983389,-0.0401889999999999,0.00191,0.0020239999999999,0.002682
210,-0.176832,0.983406,-0.0405209999999999,0.00247,0.002571,0.000268
211,-0.176619,0.983442,-0.04058,0.001036,0.001452,0.006675
212,-0.176428,0.98348,-0.040496,-0.003931,0.004207,0.010512
213,-0.176318,0.983501,-0.0404459999999999,-0.00398,0.002918,0.0120489999999999
214,-0.1762369999999999,0.983516,-0.0404459999999999,-0.00165,0.001744,0.0100959999999999
215,-0.176193,0.98353,-0.040303,-0.002716,0.004797,0.009755
216,-0.1761579999999999,0.983548,-0.040019,-0.004415,0.003757,0.012554
217,-0.176174,0.983555,-0.039766,-0.002049,0.002315,0.011446
218,-0.176256,0.983548,-0.039569,-0.001753,-0.000425,0.003803
219,-0.176378,0.983531,-0.039456,-0.0016309999999999,-0.000407,0.0036899999999999
220,-0.176554,0.983506,-0.039287,-0.002523,0.005645,0.0071819999999999
221,-0.176714,0.98348,-0.039219,-0.001417,0.002344,0.004063
222,-0.176822,0.983463,-0.039174,-0.0040409999999999,0.005017,0.003834
223,-0.176871,0.983455,-0.039147,-0.008004,0.006642,0.009759
224,-0.176832,0.983463,-0.039139,-0.007753,0.00137,0.0073549999999999
225,-0.176774,0.983477,-0.039048,-0.007445,0.002317,0.008744
226,-0.176731,0.983485,-0.039031,-0.002301,0.0035909999999999,0.008636
227,-0.176766,0.983479,-0.039011,-0.005988,-0.008244,0.009943
228,-0.176808,0.983474,-0.038965,-0.005565,0.001267,0.0109959999999999
229,-0.176903,0.983456,-0.038986,0.002282,0.0060609999999999,0.011978
230,-0.177043,0.983428,-0.039056,0.001475,0.0036479999999999,0.004998
231,-0.177235,0.983392,-0.039085,0.001789,0.00231,0.003013
232,-0.177522,0.983344,-0.038999,0.00229,0.0034119999999999,0.004026
233,-0.177751,0.983309,-0.038834,0.002198,0.004164,0.007935
234,-0.177894,0.983287,-0.038742,0.0021579999999999,0.007055,0.0088659999999999
235,-0.177992,0.983271,-0.038679,-0.002901,0.005117,0.0102519999999999
236,-0.178123,0.983245,-0.038755,-0.003167,-0.000243,0.0070319999999999
237,-0.178244,0.983218,-0.038887,-0.006144,-0.000735,0.006813
238,-0.178361,0.983195,-0.03893,-0.008666,0.000265,0.004582
239,-0.178607,0.983151,-0.0389129999999999,-0.004605,0.00095,0.005359
240,-0.178866,0.983106,-0.038847,-0.005125,0.00487,0.010389
241,-0.179041,0.983076,-0.038797,-0.012472,0.005709,0.012537
242,-0.179073,0.983071,-0.038782,-0.008427,0.006339,0.010828
243,-0.178983,0.983086,-0.0388079999999999,-0.015125,0.006095,0.02416
244,-0.178645,0.983141,-0.03899,-0.024267,-0.00049,0.0264779999999999
245,-0.1782369999999999,0.983202,-0.039309,-0.017473,-0.013491,0.019504
246,-0.1781579999999999,0.983213,-0.039403,-0.001637,-0.018384,0.007802
247,-0.1791839999999999,0.983045,-0.038937,0.013626,-0.016858,-0.013996
248,-0.181723,0.982626,-0.037703,0.025167,-0.0085209999999999,-0.026063
249,-0.1856809999999999,0.981948,-0.036065,0.013165,0.012117,-0.025886
250,-0.189859,0.981203,-0.034558,-8.2e-05,0.034956,-0.02196
251,-0.193226,0.980578,-0.033618,-0.002147,0.020597,-0.0272649999999999
252,-0.195446,0.980162,-0.032909,-0.000599,0.005495,-0.024326
253,-0.19649,0.979959,-0.0327519999999999,0.008334,0.010535,-0.019036
254,-0.196508,0.979949,-0.032943,0.020498,0.017274,-0.02681
255,-0.195415,0.980165,-0.033005,0.020656,0.015731,-0.027832
256,-0.193543,0.980533,-0.033111,0.033555,0.0132419999999999,-0.0153669999999999
257,-0.191297,0.980956,-0.033608,0.041867,0.003022,-0.010765
258,-0.189039,0.981373,-0.034199,0.02429,0.014049,0.001927
259,-0.186641,0.981806,-0.034932,0.018672,0.007208,0.017644
260,-0.1844309999999999,0.982206,-0.035417,0.024153,0.0038469999999999,0.0542159999999999
261,-0.182833,0.982493,-0.035745,0.008867,0.012487,0.094049
262,-0.181825,0.982639,-0.03684,-0.006057,-0.0204199999999999,0.074849
263,-0.181501,0.982674,-0.037494,-0.0080439999999999,-0.032097,0.03757
264,-0.181991,0.982619,-0.036554,-0.019334,0.00403,0.041223
265,-0.183033,0.982465,-0.0354649999999999,-0.027065,0.014453,0.030094
266,-0.184523,0.982207,-0.034867,-0.016511,0.004899,0.019425
267,-0.185945,0.981952,-0.034496,-0.00598,0.010984,0.003414
268,-0.187086,0.981753,-0.03397,0.001936,0.007047,0.002415
269,-0.1877069999999999,0.98165,-0.033502,-0.014854,0.015054,-0.00495
270,-0.187463,0.98171,-0.033107,-0.027808,0.019221,0.001674
271,-0.1861529999999999,0.981961,-0.033067,-0.05019,-0.008756,0.015946
272,-0.183595,0.982436,-0.033267,-0.099974,0.021913,0.091738
273,-0.180463,0.982958,-0.034944,-0.090624,0.001997,0.088457
274,-0.177874,0.983334,-0.037549,-0.052046,-0.036663,0.045926
275,-0.176497,0.983524,-0.039043,-0.009568,-0.016727,0.02061
276,-0.176522,0.983504,-0.039438,-0.006705,-0.015822,0.011667
277,-0.178169,0.983231,-0.038826,0.015709,-0.001389,-0.008827
278,-0.180613,0.982841,-0.0373709999999999,0.003261,-0.006233,6.4e-05
279,-0.182949,0.982471,-0.035707,0.000317,-0.021183,-0.006361
280,-0.185229,0.982098,-0.034194,-0.007215,0.009251,0.002013
281,-0.187013,0.981786,-0.033431,-0.020034,0.0265149999999999,0.003005
282,-0.188079,0.981588,-0.033254,-0.020859,0.030619,0.002828
283,-0.188213,0.981544,-0.033787,-0.004124,0.014336,-0.005749
284,-0.187463,0.981655,-0.0347149999999999,0.008813,-0.0019649999999999,-0.012465
285,-0.186374,0.981834,-0.035497,0.049395,-0.002327,-0.024562
286,-0.185308,0.982017,-0.036006,0.055609,0.0066,-0.0161639999999999
287,-0.184548,0.982142,-0.036521,0.038704,0.011251,-0.011727
288,-0.184179,0.98218,-0.037342,0.022955,-0.000796,-0.011868
289,-0.184192,0.982144,-0.0382259999999999,0.008472,-0.007275,-0.019391
290,-0.184582,0.982061,-0.0384759999999999,-0.003162,0.005808,-0.003379
291,-0.185166,0.981957,-0.038326,-0.018493,0.015113,0.009853
292,-0.185555,0.981886,-0.038268,-0.023841,0.0141919999999999,0.024993
293,-0.185805,0.98182,-0.03874,-0.022416,0.006552,0.016844
294,-0.186029,0.981747,-0.039523,-0.028922,0.000675,0.010867
295,-0.1859299999999999,0.981749,-0.0399259999999999,-0.019667,-0.008254,0.0090569999999999
296,-0.1854829999999999,0.981829,-0.040044,-0.001911,-0.007204,0.001469
297,-0.184988,0.981926,-0.039961,0.004721,0.004677,0.004103
298,-0.184942,0.981943,-0.03975,0.0118459999999999,0.000601,-0.001723
299,-0.1851809999999999,0.981915,-0.0393279999999999,0.0169379999999999,-0.006527,-0.001794
300,-0.1854839999999999,0.981885,-0.038641,0.017286,0.002902,0.0014089999999999
301,-0.185647,0.981878,-0.038041,0.010217,0.011561,0.009614
302,-0.185693,0.981878,-0.037801,0.001901,0.0115,0.006795
303,-0.185662,0.981887,-0.037736,0.0043869999999999,0.015062,0.009446
304,-0.1854,0.981931,-0.037881,0.015066,0.007876,0.001642
305,-0.185072,0.981988,-0.037998,0.011824,0.001761,0.001331
306,-0.1847849999999999,0.982047,-0.037891,0.011536,0.001703,0.001224
307,-0.184612,0.982088,-0.037676,0.001247,-0.0005809999999999,0.010454
308,-0.184463,0.982125,-0.037436,-0.00528,0.003196,0.013663
309,-0.184401,0.982147,-0.037167,-0.005342,0.0031739999999999,0.013394
310,-0.18433,0.982163,-0.037094,-0.010784,0.003234,0.015519
311,-0.1842089999999999,0.982181,-0.037235,-0.011775,0.006818,0.012592
312,-0.184071,0.982199,-0.037443,-0.004879,0.00326,0.009993
313,-0.1839589999999999,0.982215,-0.0375589999999999,-0.000916,0.000573,0.013893
314,-0.183772,0.982246,-0.037651,0.000651,0.0068439999999999,0.0104599999999999
315,-0.183568,0.982282,-0.037727,-0.000819,0.005527,0.0089489999999999
316,-0.183308,0.982327,-0.037798,-0.002193,0.0037869999999999,0.006456
317,-0.183004,0.982382,-0.037861,-0.007853,0.006113,0.0068099999999999
318,-0.1827359999999999,0.982428,-0.037944,-0.0060609999999999,0.003564,0.009075
319,-0.182489,0.98247,-0.038058,-0.002646,0.001951,0.00783
320,-0.1822609999999999,0.982508,-0.038151,-0.00083,0.000585,0.007969
321,-0.182045,0.982549,-0.038122,-0.004204,0.001185,0.010686
322,-0.181923,0.982578,-0.03797,-0.004372,0.003522,0.01087
323,-0.181854,0.982598,-0.037774,-0.004395,0.0033179999999999,0.009607
324,-0.181873,0.9826,-0.037641,-0.005994,0.003622,0.007428
325,-0.181979,0.982585,-0.037501,-0.004697,0.001622,0.008479
326,-0.182081,0.98257,-0.037406,-0.0024289999999999,0.005818,0.008186
327,-0.182179,0.982551,-0.0374139999999999,5e-05,0.002907,0.007584
328,-0.182199,0.982544,-0.037504,-0.002509,0.003509,0.008924
329,-0.182061,0.982565,-0.037611,-0.005958,-0.002203,0.0064069999999999
330,-0.181849,0.982598,-0.037784,-0.009222,0.005729,0.004566
331,-0.181567,0.982637,-0.0381279999999999,-0.001813,0.0196819999999999,0.015194
332,-0.18106,0.982708,-0.038715,-0.004349,0.0130199999999999,0.020359
333,-0.180453,0.982794,-0.0393569999999999,-0.013044,-0.004507,0.013768
334,-0.1800109999999999,0.982858,-0.039786,-0.015897,-0.004663,0.013541
335,-0.179671,0.982913,-0.039969,0.001204,-0.004946,0.010413
336,-0.1793809999999999,0.982965,-0.039986,0.008787,0.0018679999999999,0.007943
337,-0.179145,0.983013,-0.039854,0.012199,0.005375,0.0070019999999999
338,-0.179164,0.983015,-0.039715,0.003474,0.006593,0.0064659999999999
339,-0.17932,0.982987,-0.039714,-0.005113,0.000839,0.008708
340,-0.179427,0.982968,-0.039698,-0.004578,0.00455,0.008921
341,-0.179415,0.982967,-0.039764,-0.0041789999999999,0.005375,0.007614
342,-0.1792109999999999,0.983,-0.039892,-0.000843,0.004885,0.006002
343,-0.178865,0.983054,-0.04011,0.002107,0.004953,0.005579
344,-0.17852,0.983105,-0.040406,0.000511,0.004215,0.005921
345,-0.178182,0.983153,-0.04071,-0.001551,0.002091,0.005004
346,-0.177844,0.983201,-0.041032,-0.001492,0.004653,0.002091
347,-0.177517,0.983246,-0.041373,0.001873,0.006729,0.003867
348,-0.177207,0.983287,-0.041739,0.002539,0.00382,0.00588
349,-0.176914,0.983322,-0.0421389999999999,0.003528,0.006241,0.002954
350,-0.176536,0.983369,-0.0426449999999999,-0.007684,0.008895,0.003385
351,-0.175959,0.98345,-0.043164,-0.014471,0.001292,0.005825
352,-0.1748849999999999,0.983627,-0.043489,-0.017284,-0.012909,0.023698
353,-0.173756,0.983829,-0.043458,-0.03947,0.0193449999999999,0.057222
354,-0.172382,0.984025,-0.044475,-0.038098,-0.005219,0.056789
355,-0.171129,0.98418,-0.0458649999999999,-0.0163099999999999,-0.022021,0.026044
356,-0.170693,0.984241,-0.046164,0.010827,-0.00066,9.8e-05
357,-0.171507,0.984122,-0.045697,0.018003,0.009103,-0.0004309999999999
358,-0.17344,0.983824,-0.044794,0.0245449999999999,0.0070659999999999,-0.005194
359,-0.17592,0.983417,-0.044055,0.03058,0.004697,-0.02168
360,-0.178417,0.982999,-0.043335,0.028408,0.004993,-0.024475
361,-0.180555,0.982643,-0.042537,0.014509,0.007363,-0.028249
362,-0.182033,0.982413,-0.04153,0.002087,0.010781,-0.024861
363,-0.18262,0.982339,-0.040692,-0.007947,0.020468,-0.015338
364,-0.181805,0.982491,-0.040671,-0.011341,0.02999,-0.00657
365,-0.179557,0.982874,-0.0414089999999999,-0.018533,-0.0199069999999999,0.013257
366,-0.176193,0.983453,-0.042101,-0.020081,6e-06,0.040697
367,-0.172415,0.984048,-0.043813,-0.03753,0.013313,0.082707
368,-0.169404,0.984442,-0.046616,-0.000106,-0.033499,0.013383
369,-0.168098,0.984592,-0.0481529999999999,0.03466,0.006024,-0.014897
370,-0.168863,0.98445,-0.048365,0.053095,0.00702,-0.019368
371,-0.17153,0.984051,-0.047081,0.026129,-0.009762,-0.006111
372,-0.175036,0.983523,-0.045189,0.029422,-0.0117819999999999,-0.016334
373,-0.178723,0.982961,-0.042921,0.009045,-0.005849,-0.01169
374,-0.181868,0.982489,-0.040465,-0.033144,0.013163,-0.003908
375,-0.18447,0.982082,-0.038513,-0.036431,0.02332,-0.010147
376,-0.185857,0.981864,-0.037361,-0.027247,0.040841,-0.001137
377,-0.185813,0.981881,-0.0371439999999999,0.001014,0.017554,-0.0071519999999999
378,-0.184184,0.982175,-0.037474,0.005442,0.018878,-0.0002
379,-0.181083,0.982716,-0.038401,-0.006661,-0.01389,0.025415
380,-0.177039,0.983392,-0.039919,-0.032999,0.021506,0.0865809999999999
381,-0.172787,0.984022,-0.042913,-0.030964,-0.013884,0.0701799999999999
382,-0.169461,0.984442,-0.046414,0.008465,-0.044806,0.0287589999999999
383,-0.168118,0.984598,-0.047972,0.051403,0.015662,0.002882
384,-0.169193,0.984437,-0.0474889999999999,0.032413,-0.00557,0.008716
385,-0.172224,0.984012,-0.045347,0.015547,-0.009616,0.0176069999999999
386,-0.176188,0.983415,-0.043005,0.012461,-0.0088519999999999,0.0008609999999999
387,-0.180425,0.982752,-0.040532,-0.008265,-0.002482,-0.000606
388,-0.184518,0.98209,-0.038074,-0.029486,0.024151,-0.005475
389,-0.187781,0.981551,-0.035979,-0.027139,0.045015,-0.00171
390,-0.189462,0.981283,-0.0344379999999999,-0.033973,0.051615,0.008315
391,-0.188851,0.981416,-0.0340009999999999,-0.011482,0.013121,0.017689
392,-0.186213,0.981898,-0.034625,-0.014562,0.018453,0.049822
393,-0.182077,0.982613,-0.036304,-0.019797,0.007148,0.054706
394,-0.177857,0.983282,-0.039016,0.000901,-0.024465,0.015578
395,-0.174793,0.98373,-0.04149,0.023853,-0.003734,0.00049
396,-0.173489,0.983886,-0.0432279999999999,0.035611,0.003312,-0.002487
397,-0.174016,0.983772,-0.043689,0.035207,-0.0094989999999999,0.007648
398,-0.175797,0.983482,-0.043098,0.024567,-0.004279,0.005103
399,-0.178199,0.983097,-0.042002,0.023979,0.0064659999999999,0.005381
400,-0.180854,0.982664,-0.04076,-0.005014,0.005846,0.002552
401,-0.1834859999999999,0.982233,-0.039361,-0.021486,0.015707,0.006371
402,-0.185493,0.981906,-0.038066,-0.038902,0.018078,0.017131
403,-0.186143,0.981812,-0.0373379999999999,-0.0354149999999999,0.0123439999999999,0.0172569999999999
404,-0.18533,0.981972,-0.037159,-0.025424,0.004661,0.0275769999999999
405,-0.183363,0.982318,-0.037768,-0.009798,0.00958,0.023578
406,-0.180832,0.982731,-0.039207,-0.002182,-0.004657,0.013084
407,-0.1786869999999999,0.983062,-0.0407,0.006324,-0.007308,-0.000926
408,-0.177472,0.983239,-0.041732,0.011991,-0.003594,-0.001038
409,-0.177551,0.983206,-0.042158,0.020828,-0.004538,-0.001619
410,-0.178675,0.983013,-0.04192,0.016261,0.004719,-0.001232
411,-0.180533,0.982724,-0.040725,0.008291,0.006611,0.0027
412,-0.182625,0.982392,-0.039359,-0.001441,0.004317,0.002432
413,-0.184528,0.98208,-0.0382529999999999,-0.0106629999999999,0.010092,0.000563
414,-0.186076,0.981819,-0.037441,-0.011175,0.00837,0.00288
415,-0.187028,0.981655,-0.037012,-0.014999,0.0089459999999999,-0.001379
416,-0.187275,0.981612,-0.036898,0.008319,0.006578,0.00072
417,-0.1868369999999999,0.981688,-0.037082,0.012872,0.005525,-0.002255
418,-0.1860099999999999,0.981827,-0.037566,0.0180409999999999,0.01036,-0.005128
419,-0.185118,0.981975,-0.038097,0.014494,0.0046429999999999,-0.002568
420,-0.184413,0.98209,-0.038542,0.0114849999999999,0.002819,0.001951
421,-0.1840369999999999,0.982149,-0.038843,0.007951,0.000197,0.005076
422,-0.183884,0.982175,-0.038928,-0.002838,0.002612,0.00838
423,-0.184004,0.982155,-0.038862,-0.004533,0.004372,0.010451
424,-0.18433,0.9821,-0.038689,-0.007946,0.002687,0.0131
425,-0.184722,0.982029,-0.038619,-0.009858,0.004619,0.009947
426,-0.185068,0.981964,-0.0386209999999999,-0.007193,0.002319,0.007936
427,-0.185323,0.981918,-0.038569,-0.005107,0.004044,0.0136969999999999
428,-0.185504,0.981888,-0.038461,-0.0033539999999999,0.002304,0.01394
429,-0.185637,0.98187,-0.038283,-0.00139,-0.000165,0.01541
430,-0.185845,0.981842,-0.0379959999999999,-0.002234,-0.002121,0.014787
431,-0.186188,0.981793,-0.037593,0.008728,0.0003399999999999,0.010188
432,-0.186873,0.981679,-0.037152,0.007872,0.005214,0.009335
433,-0.18798,0.981486,-0.036661,0.004127,0.0069019999999999,-0.000571
434,-0.189381,0.98124,-0.036039,0.005986,0.006141,-0.002642
435,-0.190871,0.980985,-0.035126,0.000441,-0.000684,-0.001968
436,-0.192225,0.980757,-0.034095,-0.007497,0.0078599999999999,0.004706
437,-0.193376,0.980556,-0.033371,-0.0121599999999999,0.006383,-0.000306
438,-0.194011,0.980443,-0.033001,-0.004063,0.008876,-0.003071
439,-0.194262,0.980398,-0.032868,0.024538,0.0095459999999999,-0.008606
440,-0.1942849999999999,0.980397,-0.032757,0.032099,0.019038,0.003506
441,-0.194074,0.980424,-0.033207,0.034207,0.014922,0.001209
442,-0.193566,0.980508,-0.033682,0.032906,-0.002175,0.005011
443,-0.193131,0.980592,-0.033741,0.016495,-0.001954,0.0100439999999999
444,-0.1929519999999999,0.980634,-0.033539,-0.010386,-0.00314,0.019028
445,-0.193017,0.980625,-0.03341,-0.027014,-0.0033759999999999,0.020578
446,-0.1933,0.980573,-0.033295,-0.051878,0.007906,0.032242
447,-0.193623,0.980505,-0.033415,-0.061458,0.01272,0.027495
448,-0.194138,0.980386,-0.033928,-0.069137,0.0033179999999999,0.029472
449,-0.194632,0.980272,-0.034362,-0.058344,-0.01082,0.026503
450,-0.194746,0.980247,-0.034457,-0.050371,0.002908,0.027972
451,-0.19449,0.980293,-0.034572,-0.039427,-0.000359,0.01704
452,-0.193823,0.980415,-0.034858,-0.031915,-0.006218,0.01992
453,-0.192858,0.980604,-0.034904,-0.019346,-0.001814,0.023231
454,-0.191867,0.98081,-0.034599,0.001757,-0.002706,-0.005379
455,-0.190902,0.981041,-0.033352,0.0325769999999999,0.008537,0.023785
456,-0.190349,0.981172,-0.032668,0.03358,0.005675,0.010024
457,-0.190293,0.981183,-0.032671,0.0291449999999999,0.006214,0.005144
458,-0.190431,0.981167,-0.032316,0.017427,0.009067,0.020765
459,-0.1904809999999999,0.981157,-0.032335,0.013571,0.00862,0.01674
460,-0.19018,0.981212,-0.032435,0.018137,0.004719,0.004908
461,-0.189788,0.981294,-0.032272,0.025222,0.00656,0.003051
462,-0.189645,0.98133,-0.032011,0.025079,0.0065239999999999,0.00279
463,-0.189604,0.981344,-0.03182,0.020399,0.005152,-0.0046479999999999
464,-0.189638,0.981345,-0.031591,0.02263,0.002023,-0.005122
465,-0.189627,0.981347,-0.031577,0.0226199999999999,0.002021,-0.005135
466,-0.189371,0.981401,-0.031435,0.019296,0.009001,0.0032979999999999
467,-0.188992,0.981475,-0.031425,0.011807,0.0075239999999999,-0.000222
468,-0.188559,0.981557,-0.031441,0.002921,0.004908,0.004006
469,-0.188122,0.981637,-0.031556,-0.003315,-2.4e-05,0.008805
470,-0.187771,0.981701,-0.031641,-0.007862,0.0008269999999999,0.014185
471,-0.187478,0.981757,-0.031632,-0.0141509999999999,0.001779,0.023087
472,-0.18733,0.981786,-0.031611,-0.018267,0.000743,0.021784
473,-0.187331,0.981786,-0.031616,-0.017107,0.0012619999999999,0.023971
474,-0.187448,0.981757,-0.031807,-0.009436,0.004693,0.023628
475,-0.187656,0.981712,-0.03196,0.002582,0.005104,0.016717
476,-0.188024,0.98164,-0.032019,0.014638,0.001377,0.009726
477,-0.188422,0.981566,-0.031974,0.014777,0.005739,0.010718
478,-0.188861,0.981488,-0.031766,0.014559,0.004626,0.004926
479,-0.18916,0.981438,-0.03155,0.007565,0.006508,0.005457
480,-0.189263,0.981424,-0.031355,0.004021,0.007117,0.007887
481,-0.1892329999999999,0.981432,-0.031293,0.000604,0.003752,0.0018739999999999
482,-0.189222,0.981434,-0.031303,-0.003008,0.002956,0.002312
483,-0.18923,0.981432,-0.031323,-0.000437,0.00305,0.003827
484,-0.189346,0.981408,-0.031374,-0.006714,0.003959,0.008226
485,-0.189538,0.98137,-0.03141,-0.009268,0.002166,0.002937
486,-0.189773,0.981325,-0.031385,-0.013703,0.005308,0.0034
487,-0.190075,0.981272,-0.0312329999999999,-0.013493,0.002752,0.007415
488,-0.190389,0.981212,-0.031221,-0.0087689999999999,0.002828,0.009401
489,-0.190617,0.981151,-0.0317319999999999,-0.003032,0.005193,-0.00347
490,-0.1907299999999999,0.981118,-0.032082,0.003718,0.0037909999999999,0.005074
491,-0.190755,0.981103,-0.032385,0.00449,0.004462,0.003271
492,-0.1908089999999999,0.981085,-0.032638,0.002378,0.005411,0.003768
493,-0.190761,0.981087,-0.032846,0.003688,0.0041119999999999,0.004297
494,-0.190651,0.981103,-0.032991,0.004921,0.0043549999999999,0.003709
495,-0.190495,0.981136,-0.03293,0.004384,0.0073739999999999,0.003618
496,-0.19027,0.981182,-0.032847,0.001336,0.00452,0.004725
497,-0.190054,0.981224,-0.03284,0.002996,0.0089489999999999,0.008533
498,-0.189852,0.981254,-0.033117,-0.000852,0.001748,0.003897
499,-0.189715,0.98128,-0.033136,-0.0050479999999999,0.002729,0.010477
500,-0.189523,0.981319,-0.033082,-0.004478,0.00475,0.0068819999999999
501,-0.189317,0.981366,-0.03286,-0.00447,0.001956,0.012352
502,-0.189168,0.981403,-0.032598,-0.00735,0.002102,0.011266
503,-0.189078,0.981432,-0.032257,-0.007455,0.0017989999999999,0.0130009999999999
504,-0.189033,0.981452,-0.031897,-0.008797,0.002007,0.0148069999999999
505,-0.189003,0.981465,-0.031662,-0.011864,0.0010019999999999,0.0129389999999999
506,-0.188961,0.98148,-0.0314459999999999,-0.010227,0.000392,0.015974
507,-0.188925,0.981493,-0.031261,-0.010919,0.001066,0.015758
508,-0.188882,0.981506,-0.03113,-0.0227729999999999,0.000413,0.011218
509,-0.18882,0.981518,-0.031106,-0.0223009999999999,0.002551,0.0091939999999999
510,-0.18867,0.981546,-0.0311509999999999,-0.016652,0.004035,0.011757
511,-0.18855,0.981562,-0.031352,-0.018283,0.00443,0.008067
512,-0.188398,0.981583,-0.031644,-0.009539,0.005448,0.0111209999999999
513,-0.188217,0.981605,-0.032033,-0.00705,0.004098,0.011326
514,-0.188054,0.981623,-0.03245,-0.0066939999999999,0.007528,0.01034
515,-0.187919,0.981636,-0.032826,0.004569,0.004952,0.008854
516,-0.187749,0.981657,-0.033168,0.006963,0.004137,0.0101269999999999
517,-0.187619,0.981673,-0.0334319999999999,0.014218,0.003725,0.00998
518,-0.187515,0.981683,-0.033724,0.022781,0.0036079999999999,0.006731
519,-0.187476,0.981682,-0.033949,0.022742,0.0036079999999999,0.006957
520,-0.187354,0.981707,-0.033914,0.013831,0.004591,0.006402
521,-0.187136,0.981756,-0.033701,0.003313,0.004771,0.0096379999999999
522,-0.186918,0.981807,-0.033412,0.001691,0.008397,0.0091659999999999
523,-0.186608,0.98187,-0.033273,0.003503,0.0073569999999999,0.011163
524,-0.186291,0.981932,-0.033237,0.006573,0.0083629999999999,0.013599
525,-0.186031,0.981979,-0.033305,0.009334,0.008378,0.010661
526,-0.185794,0.98202,-0.033416,0.006931,0.006429,0.009521
527,-0.185569,0.982063,-0.033416,-0.004586,0.000908,0.011672
528,-0.185258,0.982121,-0.033415,-0.007842,0.000362,0.013243
529,-0.18483,0.982202,-0.033413,-0.0073849999999999,0.002951,0.010098
530,-0.184381,0.982281,-0.033559,-0.005148,0.001376,0.009633
531,-0.1839299999999999,0.982361,-0.03369,-0.003402,0.003234,0.0082069999999999
532,-0.183522,0.982432,-0.03385,-0.004024,0.002293,0.008734
533,-0.18314,0.982497,-0.034043,-0.0024219999999999,0.004838,0.008286
534,-0.182757,0.982558,-0.034354,-0.002835,0.002763,0.009787
535,-0.182382,0.982613,-0.034773,-0.0026609999999999,0.004417,0.008925
536,-0.182009,0.982665,-0.035237,-0.001432,0.007462,0.009679
537,-0.181654,0.982712,-0.03576,-0.001299,0.008056,0.008904
538,-0.181375,0.982743,-0.03631,0.002267,0.009566,0.016168
539,-0.180954,0.9828,-0.03688,0.0019379999999999,0.009312,0.021682
540,-0.180322,0.982888,-0.037624,0.0046939999999999,0.006584,0.019633
541,-0.179465,0.983009,-0.038557,0.017844,0.00927,0.016279
542,-0.178582,0.983136,-0.0394,0.0161669999999999,0.0032229999999999,0.015795
543,-0.177871,0.983243,-0.03995,0.017852,-0.0033079999999999,0.0097989999999999
544,-0.1774069999999999,0.983316,-0.040193,0.015985,-0.000208,0.008668
545,-0.177192,0.983358,-0.0401339999999999,0.004996,0.000926,0.00658
546,-0.17722,0.983361,-0.039927,-0.005885,0.001243,0.005503
547,-0.1774109999999999,0.983336,-0.039707,-0.012943,0.005602,0.008686
548,-0.17765,0.983297,-0.039583,-0.01925,0.003717,0.006837
549,-0.177897,0.983252,-0.039606,-0.012609,0.002664,0.0066159999999999
550,-0.178065,0.983216,-0.0397449999999999,-0.006444,-0.0016179999999999,0.00349
551,-0.178108,0.983202,-0.039902,-0.005028,0.002089,0.003662
552,-0.178043,0.983207,-0.040044,-0.005307,0.003502,0.002141
553,-0.177849,0.983229,-0.040365,-0.007453,0.002214,-0.002649
554,-0.177451,0.983281,-0.040863,-0.007088,0.001918,-0.005692
555,-0.176966,0.983342,-0.041495,-0.007573,0.001857,-0.005059
556,-0.17647,0.983406,-0.042089,-0.004621,0.007866,0.00234
557,-0.176071,0.983454,-0.042626,-0.007294,0.0073599999999999,0.003335
558,-0.175806,0.983481,-0.043092,-0.008978,-0.002494,0.003038
559,-0.175736,0.983481,-0.04338,-0.005325,-0.001197,0.00537
560,-0.17594,0.983438,-0.043521,0.009741,0.006613,0.004123
561,-0.176586,0.983321,-0.043557,0.01321,0.004167,0.004327
562,-0.177418,0.983184,-0.0432699999999999,0.02187,0.000443,0.009533
563,-0.178309,0.983039,-0.0429089999999999,0.024562,0.007425,0.005357
564,-0.179061,0.982921,-0.0424649999999999,0.024108,0.005497,0.005615
565,-0.179667,0.982835,-0.041893,0.025019,0.009322,0.003838
566,-0.180006,0.982798,-0.041305,0.023359,0.011221,0.008315
567,-0.180084,0.9828,-0.040914,0.024627,0.012378,0.0071769999999999
568,-0.179951,0.982838,-0.04058,0.018681,0.009365,0.006508
569,-0.179785,0.98288,-0.040307,0.022131,0.005371,0.000543
570,-0.179734,0.982901,-0.04001,0.023744,0.006677,0.006532
571,-0.179815,0.982899,-0.039685,0.017355,0.005122,0.005261
572,-0.180138,0.982853,-0.039373,0.010399,-0.000919,0.003881
573,-0.180544,0.982792,-0.039031,0.002596,0.000607,0.009566
574,-0.1806859999999999,0.982775,-0.038796,-0.0129639999999999,-0.0031149999999999,0.007775
575,-0.180687,0.982786,-0.038506,-0.025825,0.0013289999999999,0.011269
576,-0.180672,0.982798,-0.038282,-0.034126,0.007223,0.016905
577,-0.1807079999999999,0.982783,-0.038488,-0.0256069999999999,0.002904,0.006749
578,-0.1807099999999999,0.982773,-0.0387389999999999,-0.01889,0.000473,0.005445
579,-0.180951,0.982721,-0.038923,-0.001513,0.001913,-0.0017109999999999
580,-0.181526,0.982613,-0.03897,0.012596,0.003211,-0.007097
581,-0.182352,0.982473,-0.038654,0.02157,0.002436,-0.011501
582,-0.183383,0.982301,-0.03813,0.026874,0.010268,-0.0113239999999999
583,-0.1844589999999999,0.982122,-0.0375589999999999,0.025951,0.010935,-0.009392
584,-0.18538,0.981968,-0.037045,0.020112,0.0120959999999999,-0.001179
585,-0.185881,0.981886,-0.036717,0.0106489999999999,0.01491,0.0011949999999999
586,-0.1857349999999999,0.981922,-0.036488,0.002706,0.013012,0.010227
587,-0.184929,0.982078,-0.036395,-0.010139,0.0126579999999999,0.027301
588,-0.1834849999999999,0.982336,-0.036728,-0.024645,0.002619,0.053894
589,-0.181606,0.98266,-0.0374,-0.0394329999999999,-0.01011,0.070344
590,-0.179819,0.982956,-0.038217,-0.038122,-0.015687,0.0431
591,-0.178717,0.983142,-0.038627,-0.0115909999999999,-0.020083,0.016517
592,-0.178848,0.983143,-0.037963,0.014527,-0.00182,-0.011719
593,-0.1801869999999999,0.982951,-0.036584,0.01765,-0.000697,-0.0110689999999999
594,-0.1824579999999999,0.9826,-0.034724,0.014032,0.003606,-0.010869
595,-0.1849579999999999,0.982181,-0.0333209999999999,0.003409,0.001797,-0.014469
596,-0.1869859999999999,0.981833,-0.03222,-0.006786,0.005517,-0.010688
597,-0.1885,0.981567,-0.031485,-0.022087,0.019181,-0.004129
598,-0.189335,0.981415,-0.031218,-0.0308339999999999,0.029861,0.018172
599,-0.189319,0.981406,-0.031613,-0.027524,0.0090879999999999,0.042996
600,-0.188464,0.981536,-0.032664,-0.023648,-0.007552,0.0396529999999999
601,-0.1872349999999999,0.981728,-0.03395,0.005671,-0.023552,0.001967
602,-0.186364,0.981878,-0.034399,0.031655,-0.0059409999999999,-0.001825
603,-0.186551,0.981855,-0.034036,0.04147,0.001772,-0.00788
604,-0.188,0.981602,-0.033362,0.054135,0.016338,-0.014093
605,-0.190067,0.981227,-0.032661,0.050556,0.012303,-0.0056229999999999
606,-0.19204,0.980855,-0.032302,0.033928,0.0082659999999999,-0.008897
607,-0.193388,0.980601,-0.03196,0.018797,0.012869,-0.0065069999999999
608,-0.194067,0.98048,-0.031533,-0.0121409999999999,0.024158,0.0063869999999999
609,-0.194262,0.980449,-0.031304,-0.019269,0.025075,0.004067
610,-0.1937,0.980566,-0.031104,-0.030894,0.006754,0.006278
611,-0.192392,0.980832,-0.030846,-0.025595,0.005527,0.022546
612,-0.19084,0.981126,-0.031137,-0.022279,0.001601,0.02366
613,-0.189219,0.98143,-0.031452,-0.0152639999999999,-0.005325,0.036259
614,-0.187718,0.981703,-0.031947,-0.00854,-0.010389,0.035518
615,-0.186613,0.981898,-0.032424,-0.009111,-0.013499,0.02983
616,-0.1864829999999999,0.981922,-0.032457,-0.001887,-0.012821,0.017595
617,-0.187318,0.981783,-0.031839,-0.001662,-0.005312,0.003901
618,-0.188779,0.981542,-0.030604,-0.008273,0.000758,0.010112
619,-0.190489,0.981249,-0.0293569999999999,-0.017763,0.006101,0.007857
620,-0.191881,0.981001,-0.028582,-0.019056,0.007295,0.002016
621,-0.192725,0.980843,-0.028322,-0.016671,0.012565,0.003557
622,-0.193139,0.980756,-0.02852,-0.0036229999999999,0.014437,0.004258
623,-0.193215,0.980725,-0.029067,0.004631,0.0113099999999999,-0.001115
624,-0.193149,0.980722,-0.0296089999999999,0.031025,0.002188,-0.004998
625,-0.193183,0.980707,-0.029874,0.033835,0.003256,-0.009997
626,-0.193412,0.980663,-0.029832,0.031775,0.003162,-0.002364
627,-0.193826,0.980589,-0.029584,0.0230639999999999,0.003649,-0.001529
628,-0.194331,0.980495,-0.0293779999999999,0.014888,-0.001064,0.013769
629,-0.1948089999999999,0.98039,-0.029719,0.0182349999999999,0.022936,-0.014883
630,-0.195178,0.980316,-0.029747,0.012485,0.012589,0.004356
631,-0.1953359999999999,0.980299,-0.0292699999999999,0.000801,0.005419,0.008121
632,-0.1953339999999999,0.980296,-0.029373,-0.007043,0.004399,0.01413
633,-0.19498,0.980366,-0.029414,-0.01077,0.006085,0.018489
634,-0.194365,0.980476,-0.0298029999999999,-0.019533,0.002785,0.025896
635,-0.193543,0.98062,-0.0304,-0.023758,-0.000625,0.035558
636,-0.192582,0.980776,-0.031479,-0.023864,0.0018449999999999,0.023727
637,-0.191844,0.980896,-0.032235,-0.032399,0.0026089999999999,0.026025
638,-0.19128,0.980985,-0.032885,-0.034123,-0.006451,0.021212
639,-0.190849,0.981052,-0.033361,-0.029457,-0.005833,0.023321
640,-0.190663,0.98108,-0.033609,-0.022884,0.002044,0.0205169999999999
641,-0.190548,0.981095,-0.033839,-0.003453,-0.003189,0.0056409999999999
642,-0.190351,0.981127,-0.034005,-0.003649,-0.003222,0.005807
643,-0.190469,0.98111,-0.0338269999999999,-0.005682,0.016814,0.011336
644,-0.190356,0.98113,-0.033893,-0.012357,0.008479,0.00394
645,-0.189878,0.981205,-0.034406,-0.013247,0.0053219999999999,0.00337
646,-0.18914,0.98133,-0.0349,-0.004036,0.002084,0.011127
647,-0.188294,0.981469,-0.035557,0.003327,-0.001092,0.004093
648,-0.187425,0.98161,-0.036253,-0.0016309999999999,-0.003277,0.005674
649,-0.186621,0.981744,-0.036774,-0.003503,-0.0012439999999999,0.004196
650,-0.185886,0.981871,-0.03709,-0.010845,0.00464,0.004879
651,-0.185317,0.981965,-0.037462,-0.008867,0.0036009999999999,0.001604
652,-0.184885,0.982031,-0.037841,-0.001272,0.006906,0.0091849999999999
653,-0.184469,0.982092,-0.038284,-0.004649,0.003229,0.010879
654,-0.183953,0.982175,-0.038652,-0.012473,0.003558,0.009599
655,-0.183428,0.98226,-0.038975,0.002107,0.00358,0.010838
656,-0.183028,0.982322,-0.039287,0.024153,0.0039,0.0112719999999999
657,-0.182703,0.982367,-0.039649,0.034265,0.009637,0.014671
658,-0.182263,0.982428,-0.0401689999999999,0.040891,0.020059,0.019051
659,-0.181482,0.982544,-0.040864,0.032983,0.00679,0.011033
660,-0.180613,0.982673,-0.04161,0.040476,0.000848,0.009445
661,-0.1799,0.982779,-0.042194,0.041655,-0.001959,-0.002926
662,-0.179499,0.982851,-0.04222,0.03451,0.002073,-0.004823
663,-0.179364,0.982878,-0.042178,0.017498,0.003313,-0.0064519999999999
664,-0.179439,0.982868,-0.042093,-0.004964,0.003766,-0.007773
665,-0.179591,0.982847,-0.041928,-0.017781,-0.002348,-0.005848
666,-0.179783,0.982819,-0.041762,-0.02676,0.001205,-0.000795
667,-0.179976,0.982764,-0.042231,-0.0294199999999999,0.0080349999999999,0.0004219999999999
668,-0.179945,0.982751,-0.0426589999999999,-0.029742,0.0074519999999999,0.0122329999999999
669,-0.179671,0.982777,-0.043222,-0.0302899999999999,-0.000569,0.0156949999999999
670,-0.179368,0.982797,-0.044022,-0.020888,0.002601,0.011505
671,-0.178938,0.982858,-0.044395,-0.014803,0.008307,0.028374
672,-0.178452,0.98293,-0.044772,-0.003113,0.012172,0.028018
673,-0.1781609999999999,0.982959,-0.045277,0.025238,0.0027429999999999,0.0142099999999999
674,-0.17804,0.982969,-0.0455319999999999,0.027665,0.009279,0.008117
675,-0.178235,0.98293,-0.0456079999999999,0.031705,0.007167,0.007705
676,-0.178622,0.982872,-0.0453579999999999,0.027179,0.001076,-0.000967
677,-0.178965,0.982829,-0.044926,0.022349,0.003865,-0.003307
678,-0.179424,0.982767,-0.044444,0.017193,0.003729,-0.006673
679,-0.17978,0.982722,-0.043993,0.006761,0.0068099999999999,-0.011595
680,-0.179949,0.982703,-0.043737,0.000536,0.007684,-0.011286
681,-0.180054,0.982687,-0.043675,0.002396,0.007243,-0.012874
682,-0.180022,0.982686,-0.043821,0.011733,0.0059159999999999,-0.012972
683,-0.179893,0.982697,-0.044106,0.017509,0.009292,-0.0080489999999999
684,-0.179766,0.982705,-0.044447,0.0173819999999999,0.009284,-0.007708
685,-0.1796289999999999,0.98272,-0.044667,0.015734,0.006599,0.001714
686,-0.1795,0.982741,-0.044716,0.009089,0.003602,0.008263
687,-0.179313,0.982781,-0.044588,0.0043869999999999,0.002616,0.0144979999999999
688,-0.179058,0.982833,-0.044464,-0.000721,0.001725,0.020401
689,-0.17876,0.982884,-0.044549,-0.00401,0.002453,0.015878
690,-0.178601,0.982908,-0.0446579999999999,-0.003558,0.001696,0.013149
691,-0.17876,0.982883,-0.044565,-0.00108,0.003094,0.009698
692,-0.1792099999999999,0.982814,-0.044279,-0.001316,0.002751,0.010466
693,-0.17983,0.982719,-0.043866,-0.002833,-0.001228,0.007489
694,-0.180478,0.982624,-0.043335,-0.002322,-0.000965,0.006271
695,-0.18098,0.982552,-0.042867,0.0037649999999999,0.009208,0.003942
696,-0.181418,0.98248,-0.0426649999999999,0.006247,0.011432,-0.000151
697,-0.181756,0.982412,-0.0427899999999999,0.0084459999999999,0.014506,-0.003993
698,-0.18181,0.982389,-0.043091,0.00757,0.008669,-0.0008089999999999
699,-0.181478,0.982434,-0.043469,0.00031,0.009647,0.00317
700,-0.180564,0.982584,-0.043874,-0.00773,-0.008616,0.017324
701,-0.179248,0.982824,-0.043904,-0.0149509999999999,0.025324,0.064839
702,-0.177755,0.983086,-0.044105,-0.018503,0.021797,0.070869
703,-0.176611,0.983232,-0.045433,-0.005167,-0.024369,0.0235669999999999
704,-0.176568,0.983222,-0.045816,0.0134669999999999,-0.009863,-0.006094
705,-0.177885,0.983022,-0.044996,0.019255,0.011714,-0.011538
706,-0.180357,0.982628,-0.043749,0.01985,0.01754,-0.015989
707,-0.183146,0.98215,-0.042868,0.017694,0.013562,-0.018548
708,-0.185369,0.981756,-0.042336,0.006383,0.011179,-0.012779
709,-0.186725,0.981518,-0.041899,-0.005521,0.011158,-0.008318
710,-0.187096,0.981458,-0.0416459999999999,-0.00843,0.004504,-0.00851
711,-0.186522,0.981584,-0.04124,0.016875,0.013228,0.0203199999999999
712,-0.185516,0.981776,-0.041192,0.025009,0.010625,0.005898
713,-0.184685,0.981921,-0.041489,0.0242229999999999,0.005384,-0.003036
714,-0.184527,0.981943,-0.041679,0.02254,0.002905,-0.020836
715,-0.1852319999999999,0.981809,-0.041704,0.005086,0.0087,-0.007139
716,-0.1866,0.981555,-0.041604,-0.013946,0.002973,0.000283
717,-0.188051,0.981269,-0.041811,-0.0153789999999999,0.005212,0.003573
718,-0.189076,0.981064,-0.042006,-0.021831,-0.001144,0.009627
719,-0.1894549999999999,0.980999,-0.041807,-0.0175759999999999,0.003254,0.01103
720,-0.189343,0.981033,-0.041495,-0.018008,0.005554,0.012031
721,-0.188805,0.981132,-0.041613,-0.006889,0.007256,0.00809
722,-0.187769,0.981307,-0.042161,-0.008398,0.012467,0.025483
723,-0.18625,0.981562,-0.042966,-0.008864,0.012106,0.031827
724,-0.184623,0.981819,-0.044083,0.0029059999999999,0.000938,0.042206
725,-0.183454,0.981981,-0.045342,0.010313,-0.008165,0.022835
726,-0.183104,0.98202,-0.0459199999999999,0.01277,-0.002238,0.017905
727,-0.183988,0.981878,-0.045418,0.011686,-0.013708,0.0068439999999999
728,-0.185915,0.981586,-0.0438519999999999,0.000963,-0.0010869999999999,0.010938
729,-0.188349,0.981201,-0.042038,-0.004278,0.000458,0.012924
730,-0.190655,0.98082,-0.040516,-0.011021,0.007111,0.004459
731,-0.192403,0.980536,-0.039083,-0.012218,0.018579,0.0017289999999999
732,-0.193218,0.980408,-0.038263,-0.000843,0.019241,-0.0032719999999999
733,-0.193126,0.980439,-0.037947,0.001812,0.021225,0.0013109999999999
734,-0.192265,0.980596,-0.038258,-0.000118,0.006739,0.003254
735,-0.190789,0.980851,-0.039085,0.001092,0.004256,0.005134
736,-0.18922,0.981116,-0.040037,-0.001103,-0.003867,0.014586
737,-0.187891,0.981332,-0.040998,-0.002371,-0.005929,0.0170729999999999
738,-0.186974,0.981483,-0.041576,-0.0032869999999999,-0.0060799999999999,0.01765
739,-0.186425,0.981567,-0.042038,-0.003059,0.006668,0.024659
740,-0.186305,0.981576,-0.0423819999999999,0.00648,0.000236,0.0210349999999999
741,-0.18655,0.981525,-0.042474,0.006908,0.00082,0.01774
742,-0.186988,0.981452,-0.042236,-0.003518,0.012856,0.023895
743,-0.187378,0.981391,-0.041929,-0.00528,0.005609,0.019117
744,-0.18774,0.98133,-0.041737,0.001217,0.001046,0.010883
745,-0.188016,0.981276,-0.041766,0.000714,0.01024,0.004977
746,-0.188119,0.981247,-0.041991,0.003396,0.006318,0.000685
747,-0.187994,0.981252,-0.042422,0.0073459999999999,0.006434,0.001605
748,-0.187628,0.9813,-0.042938,0.0066739999999999,0.004143,0.005691
749,-0.187146,0.981369,-0.043453,0.003094,-0.003647,0.007915
750,-0.18665,0.981451,-0.04374,0.004933,-0.0014089999999999,0.010995
751,-0.186106,0.981545,-0.043935,0.009104,0.0085209999999999,0.01647
752,-0.185538,0.981638,-0.044254,0.012717,0.010473,0.017078
753,-0.185032,0.981714,-0.044688,0.014012,0.007711,0.016428
754,-0.184609,0.981776,-0.045087,0.011895,0.005605,0.011533
755,-0.184285,0.981826,-0.045321,0.00417,0.0038,0.011493
756,-0.184032,0.981869,-0.045423,0.000179,-8.8e-05,0.009519
757,-0.1838119999999999,0.981908,-0.045473,-0.008281,0.004146,0.006929
758,-0.183686,0.981926,-0.0456009999999999,-0.011718,0.0064319999999999,0.006966
759,-0.183603,0.981933,-0.045775,-0.014533,-0.004898,0.000624
760,-0.183498,0.981943,-0.045988,-0.00829,-0.005212,0.003614
761,-0.183311,0.981973,-0.046096,-0.000939,0.0076209999999999,0.010162
762,-0.183061,0.982012,-0.046261,-0.002043,0.012434,0.010602
763,-0.18274,0.982054,-0.0466269999999999,0.0017399999999999,0.005464,0.017772
764,-0.1823789999999999,0.982093,-0.04721,0.000204,0.008904,0.0122519999999999
765,-0.182071,0.982111,-0.048024,0.001132,0.0049039999999999,0.011021
766,-0.181702,0.982158,-0.048463,0.0019379999999999,0.005376,0.008027
767,-0.18131,0.982216,-0.048744,-0.00056,0.002159,0.003684
768,-0.180833,0.982299,-0.048862,-0.004104,0.006349,0.005649
769,-0.180323,0.982379,-0.049121,-0.010168,0.00903,0.004627
770,-0.17986,0.982439,-0.049621,-0.008907,0.005109,0.006683
771,-0.179373,0.982494,-0.050303,-0.010019,0.002171,0.004481
772,-0.178842,0.982554,-0.051008,-0.010367,0.003072,0.006209
773,-0.17829,0.98262,-0.051675,-0.013635,0.000214,0.009637
774,-0.177728,0.982688,-0.052321,-0.010809,-0.001059,0.012023
775,-0.17718,0.982752,-0.0529799999999999,-0.003896,0.002066,0.014375
776,-0.176541,0.982833,-0.053595,-0.0030239999999999,0.001146,0.009879
777,-0.175795,0.982935,-0.0541679999999999,-0.000399,0.002096,0.008178
778,-0.1751,0.983031,-0.0546539999999999,0.014868,0.003754,0.008008
779,-0.174471,0.983123,-0.055021,0.027239,0.005601,0.006758
780,-0.173847,0.98322,-0.055251,0.031742,0.0088,0.005309
781,-0.173232,0.983315,-0.0554919999999999,0.041884,0.010978,0.008037
782,-0.172781,0.983382,-0.055707,0.042242,0.006043,0.0069549999999999
783,-0.172568,0.983413,-0.055822,0.031622,0.00673,0.003317
784,-0.172465,0.983428,-0.0558809999999999,0.012187,0.006028,0.00069
785,-0.1721589999999999,0.983479,-0.055925,-0.005132,0.0045119999999999,0.001955
786,-0.171914,0.983522,-0.055925,-0.022711,0.003127,0.014223
787,-0.17153,0.983587,-0.055955,-0.032525,-0.004293,0.019593
788,-0.171124,0.983646,-0.056159,-0.042911,-0.002018,0.022101
789,-0.1708609999999999,0.983672,-0.0565059999999999,-0.04618,-0.004882,0.02283
790,-0.1706069999999999,0.983697,-0.056847,-0.053041,-0.002755,0.022012
791,-0.170277,0.983736,-0.057169,-0.0364639999999999,0.001921,0.015665
792,-0.170021,0.983769,-0.0573659999999999,-0.02285,4.2e-05,0.013558
793,-0.169897,0.983776,-0.0576049999999999,-0.006555,0.004429,0.005832
794,-0.169841,0.983769,-0.057877,0.008327,0.0074569999999999,0.002915
795,-0.169854,0.983743,-0.058284,0.027169,0.004935,-0.002492
796,-0.169944,0.983706,-0.058645,0.042671,0.005094,-0.006831
797,-0.170074,0.983662,-0.059009,0.063949,0.009441,-0.01492
798,-0.170238,0.983606,-0.059462,0.067638,0.010062,-0.012956
799,-0.170283,0.983579,-0.059771,0.06866,0.011355,-0.01637
800,-0.1701609999999999,0.983591,-0.059919,0.056758,0.01151,-0.015734
801,-0.169931,0.983633,-0.059878,0.048013,0.01359,-0.010572
802,-0.169468,0.983714,-0.059858,0.000722,0.0103959999999999,0.0012029999999999
803,-0.1690849999999999,0.983777,-0.059912,-0.009733,0.008884,0.005911
804,-0.168628,0.983842,-0.060126,-0.0261959999999999,0.004195,0.009955
805,-0.168098,0.983909,-0.0605169999999999,-0.033547,-0.00164,0.011429
806,-0.167667,0.98395,-0.061032,-0.037167,-0.003634,0.011517
807,-0.167388,0.983966,-0.061555,-0.03618,-0.0076319999999999,0.0149699999999999
808,-0.167507,0.983922,-0.0619309999999999,-0.0154919999999999,0.001628,0.009777
809,-0.1677519999999999,0.98387,-0.0620929999999999,-0.009692,0.001207,0.011235
810,-0.16805,0.98382,-0.0620789999999999,-0.002208,0.001257,0.010001
811,-0.16838,0.983763,-0.062081,0.012603,0.010164,0.007042
812,-0.168546,0.983726,-0.062222,0.027249,0.010735,0.00401
813,-0.168565,0.983705,-0.062513,0.031465,0.0101,0.005094
814,-0.168469,0.983704,-0.062786,0.0310779999999999,0.007187,-0.000217
815,-0.168262,0.983728,-0.062965,0.023639,0.00347,0.000557
816,-0.168051,0.983761,-0.0630169999999999,0.019324,0.000965,0.004957
817,-0.167875,0.983794,-0.062962,-0.00049,0.007142,0.00649
818,-0.167841,0.983792,-0.063082,-0.0090239999999999,0.004734,0.008303
819,-0.167874,0.983771,-0.063323,-0.01369,0.00416,0.011077
820,-0.167884,0.983752,-0.063588,-0.0072569999999999,0.004102,0.009328
821,-0.167894,0.983736,-0.063818,-0.003065,-0.000139,0.009237
822,-0.167848,0.983741,-0.063861,-0.000396,0.000848,0.009036
823,-0.167706,0.983766,-0.06384,0.006268,0.00305,0.004178
824,-0.167496,0.983809,-0.063739,0.009537,0.006594,0.000415
825,-0.167304,0.983852,-0.063569,0.012245,0.00774,-0.00064
826,-0.167186,0.983885,-0.063369,0.014415,0.008562,0.000991
827,-0.167049,0.983913,-0.063287,0.01379,0.007526,0.002954
828,-0.16687,0.983943,-0.063295,0.013947,0.007893,0.0039229999999999
829,-0.166638,0.98398,-0.063332,0.010419,0.006102,0.006401
830,-0.166356,0.984028,-0.06334,-0.001689,0.006741,0.006409
831,-0.166074,0.984077,-0.063325,-0.005053,0.007226,0.008027
832,-0.165718,0.984131,-0.0634179999999999,-0.013496,0.003998,0.00577
833,-0.165248,0.984195,-0.063649,-0.016469,0.005795,0.011021
834,-0.164615,0.984267,-0.06418,-0.015988,0.005251,0.010423
835,-0.163912,0.98434,-0.064847,-0.009778,0.008732,0.011548
836,-0.163239,0.9844,-0.06563,-0.008438,-0.0027559999999999,0.010423
837,-0.162659,0.984457,-0.066216,-0.005691,-0.0033009999999999,0.012886
838,-0.162321,0.984494,-0.066493,-0.006334,-0.004086,0.015452
839,-0.16215,0.984523,-0.066486,-0.009878,0.001531,0.017796
840,-0.162071,0.984546,-0.066335,-0.011803,0.000241,0.0180409999999999
841,-0.162091,0.984555,-0.066145,-0.012745,0.0037259999999999,0.018858
842,-0.162214,0.984542,-0.066039,-0.005526,-0.001907,0.0074909999999999
843,-0.16241,0.984509,-0.066058,-0.002263,0.0009339999999999,0.003604
844,-0.162618,0.984482,-0.065938,0.001928,0.009597,0.005772
845,-0.16274,0.984466,-0.065881,-0.008067,0.000611,0.006647
846,-0.162669,0.984486,-0.065762,-0.011831,0.006802,0.008069
847,-0.162433,0.984513,-0.065927,-0.008145,0.002334,0.0047079999999999
848,-0.16212,0.984544,-0.066244,-0.004673,0.007934,0.005926
849,-0.161827,0.984568,-0.066588,-0.004188,0.003224,0.004577
850,-0.161577,0.984592,-0.066853,0.009065,0.003796,0.006718
851,-0.161359,0.984616,-0.06702,0.014493,0.006778,0.015063
852,-0.161244,0.98462,-0.06725,0.009404,0.010284,0.0060009999999999
853,-0.161188,0.984617,-0.067422,-0.0105799999999999,0.0004599999999999,0.006265
854,-0.16089,0.984649,-0.067669,-0.002989,-0.000671,0.011608
855,-0.160365,0.984716,-0.067947,0.003459,0.001857,0.017105
856,-0.1597849999999999,0.984778,-0.068411,0.0080209999999999,0.008859,0.012976
857,-0.159195,0.984834,-0.068974,0.004517,0.004591,0.017536
858,-0.15859,0.984893,-0.069532,0.005696,0.002748,0.01428
859,-0.158165,0.98493,-0.069969,0.007484,0.004953,-0.000405
860,-0.157904,0.984948,-0.070308,0.01824,0.014915,0.003856
861,-0.157766,0.984947,-0.070635,0.0279139999999999,0.011452,0.007891
862,-0.157808,0.984906,-0.07111,0.017305,0.0069,0.004459
863,-0.157741,0.984883,-0.071576,-0.011006,0.000926,0.004971
864,-0.157378,0.984931,-0.0717179999999999,-0.02086,-0.002585,0.010164
865,-0.156953,0.985007,-0.071599,-0.014571,-0.005744,0.0221449999999999
866,-0.156667,0.985042,-0.07174,-0.007014,0.002781,0.0171139999999999
867,-0.156555,0.985041,-0.072001,-0.002487,-0.001109,0.009592
868,-0.1567329999999999,0.985033,-0.071724,-0.003164,-0.0152449999999999,-0.002861
869,-0.157015,0.985046,-0.070917,0.0018329999999999,0.004333,-0.0004639999999999
870,-0.157386,0.985064,-0.069844,0.008765,0.024,0.018315
871,-0.157795,0.985048,-0.069146,0.008809,0.016035,0.019158
872,-0.1582329999999999,0.984977,-0.069161,0.008606,0.006173,-0.014396
873,-0.158219,0.984969,-0.069302,-0.007065,0.011765,-0.006931
874,-0.157746,0.985052,-0.069197,0.000412,0.010248,0.0092909999999999
875,-0.157444,0.985088,-0.069371,0.02216,-0.003811,0.011998
876,-0.157338,0.985091,-0.069574,0.017537,-0.002486,-0.001364
877,-0.157378,0.985105,-0.069289,0.003997,0.000491,-0.0076159999999999
878,-0.157597,0.985108,-0.068746,0.004903,0.002731,-0.007487
879,-0.157971,0.985081,-0.068266,0.011136,0.012691,-0.001359
880,-0.158355,0.98504,-0.067969,0.007369,0.0090239999999999,0.000144
881,-0.158825,0.984982,-0.067707,0.0049549999999999,0.013309,-0.001477
882,-0.1592579999999999,0.984918,-0.067636,0.006914,0.013602,-0.006049
883,-0.159544,0.984875,-0.067582,0.020659,0.016361,-0.000549
884,-0.159467,0.984874,-0.06777,0.024869,0.027913,0.013052
885,-0.158916,0.984924,-0.068341,0.016994,0.0075689999999999,0.005871
886,-0.158077,0.985028,-0.0687919999999999,0.00581,-0.010464,0.003759
887,-0.157357,0.985138,-0.068857,0.005364,-0.0067909999999999,0.008143
888,-0.157078,0.9852,-0.068615,0.006,0.000289,0.007824
889,-0.157248,0.985206,-0.068141,0.001501,0.008767,0.006511
890,-0.157795,0.985155,-0.067601,-0.0026969999999999,0.004469,0.008184
891,-0.158516,0.985075,-0.067083,-0.009713,0.001848,0.008001
892,-0.1593099999999999,0.984991,-0.066429,-0.006354,0.00361,0.011146
893,-0.160237,0.984881,-0.065836,-0.001201,0.006773,0.00889
894,-0.161107,0.984779,-0.065239,0.002079,0.005746,0.001885
895,-0.161982,0.984675,-0.064636,-0.001333,0.0072989999999999,0.004257
896,-0.162842,0.984586,-0.063823,-0.001297,0.00867,0.005169
897,-0.163569,0.984507,-0.06318,-0.002797,0.00939,0.008065
898,-0.1640869999999999,0.984442,-0.062838,0.001551,0.00747,0.011355
899,-0.164348,0.984408,-0.062697,-0.002827,0.006422,0.007155
900,-0.164488,0.984389,-0.062625,-0.004076,0.006364,0.00336
901,-0.164622,0.984372,-0.062537,0.005382,0.010623,0.0100159999999999
902,-0.16479,0.984341,-0.0625889999999999,0.008845,0.007068,0.011976
903,-0.164937,0.984312,-0.062663,0.008656,0.002932,0.009776
904,-0.165133,0.984282,-0.0626039999999999,-0.000486,0.001405,0.0087099999999999
905,-0.1653069999999999,0.98426,-0.062492,-0.002677,0.002388,0.006141
906,-0.165494,0.984241,-0.062295,-0.003985,0.0027429999999999,0.007638
907,-0.165712,0.984215,-0.062136,-0.0007,0.0061719999999999,0.009463
908,-0.165938,0.984178,-0.062116,-0.002427,0.0029739999999999,0.008786
909,-0.166152,0.984137,-0.062186,-0.003877,0.002526,0.011084
910,-0.166311,0.984104,-0.062282,-0.003656,0.002132,0.0094709999999999
911,-0.166378,0.98409,-0.0623299999999999,-0.004352,0.003886,0.008771
912,-0.16648,0.984072,-0.062348,-0.002786,0.005354,0.00966
913,-0.166566,0.984057,-0.0623429999999999,-0.0022719999999999,0.000882,0.0133009999999999
914,-0.166593,0.984049,-0.062398,-0.002032,0.005331,0.011068
915,-0.166581,0.984044,-0.062515,-6e-05,0.005016,0.01181
916,-0.166513,0.984048,-0.062628,-0.00083,0.004721,0.012152
917,-0.166371,0.984069,-0.062679,-0.003704,0.004548,0.013973
918,-0.166153,0.984103,-0.062726,-0.00061,0.005506,0.014859
919,-0.165938,0.984133,-0.06282,-0.003221,0.002225,0.013336
920,-0.16575,0.984161,-0.062886,-0.001288,0.000459,0.013615
921,-0.165643,0.984177,-0.062915,-0.001121,0.002472,0.011264
922,-0.165595,0.984183,-0.062931,-0.000329,0.003457,0.010517
923,-0.165627,0.984176,-0.062961,0.000771,0.004578,0.005619
924,-0.165686,0.984165,-0.0629779999999999,-0.001001,0.004895,0.007238
925,-0.165708,0.984159,-0.0630179999999999,0.003614,0.003863,0.008254
926,-0.165676,0.984161,-0.063074,0.004527,0.006654,0.005411
927,-0.165606,0.984167,-0.06316,0.0066099999999999,0.004893,0.0045049999999999
928,-0.165473,0.98418,-0.063304,0.007606,0.00227,0.003551
929,-0.165286,0.984203,-0.063442,0.008792,0.006017,0.0043289999999999
930,-0.165041,0.984233,-0.063605,0.009539,0.004781,0.004996
931,-0.164776,0.98427,-0.063722,0.00671,0.004668,0.005113
932,-0.164542,0.984303,-0.063817,0.005347,0.004268,0.002919
933,-0.164298,0.984337,-0.0639179999999999,0.0053479999999999,0.001945,0.005309
934,-0.163984,0.984387,-0.06396,0.008008,0.006611,0.0024059999999999
935,-0.163716,0.984429,-0.0639899999999999,0.005788,0.006415,0.006007
936,-0.163498,0.984466,-0.063984,0.006775,0.004471,0.007206
937,-0.163287,0.984499,-0.064011,0.00339,0.006605,0.006271
938,-0.163092,0.984528,-0.064052,0.002432,0.005889,0.0068319999999999
939,-0.162918,0.984542,-0.064277,-0.000412,0.008942,0.009285
940,-0.1627569999999999,0.984551,-0.064554,-0.003259,0.006996,0.012171
941,-0.162567,0.984559,-0.064914,-0.0018,0.002227,0.013187
942,-0.162268,0.984583,-0.065295,-0.001458,-0.000131,0.011294
943,-0.162041,0.984598,-0.065635,0.005821,-0.002603,0.0070569999999999
944,-0.161896,0.98461,-0.065809,0.00789,0.002023,0.005354
945,-0.161864,0.984615,-0.06582,0.006393,0.005177,0.004724
946,-0.161913,0.98461,-0.065776,0.005389,0.0036869999999999,0.003093
947,-0.1620069999999999,0.984595,-0.065761,0.0048259999999999,0.005014,0.002239
948,-0.162077,0.98458,-0.065818,0.003172,0.0048,0.005042
949,-0.162146,0.984566,-0.065854,0.004889,0.00367,0.001691
950,-0.16222,0.984552,-0.065875,0.0053289999999999,0.003546,0.002948
951,-0.162244,0.984549,-0.065867,0.006909,0.005869,0.001094
952,-0.1622289999999999,0.984552,-0.0658509999999999,0.009717,0.003546,0.00062
953,-0.162197,0.984559,-0.065823,0.008846,0.004775,0.0008359999999999
954,-0.162152,0.984573,-0.065729,0.005002,0.005921,0.0027559999999999
955,-0.162079,0.98459,-0.065657,0.004379,0.003707,0.000975
956,-0.1619809999999999,0.984607,-0.065647,0.004464,0.0036439999999999,0.002231
957,-0.161909,0.984617,-0.065677,0.004469,0.006503,0.000995
958,-0.16179,0.984631,-0.065749,0.004548,0.005664,0.001586
959,-0.161643,0.98465,-0.065824,0.0067819999999999,0.004074,0.003095
960,-0.161548,0.984661,-0.065895,0.008609,0.003757,0.000695
961,-0.161491,0.984668,-0.065934,0.0065379999999999,0.003476,0.002534
962,-0.161434,0.984677,-0.065941,0.004635,0.005878,0.004585
963,-0.161387,0.984683,-0.065965,0.006617,0.00427,0.002259
964,-0.161364,0.984683,-0.066007,0.006045,0.005627,0.003614
965,-0.161348,0.984681,-0.066079,0.003069,0.002776,0.0016719999999999
966,-0.161326,0.984683,-0.066099,0.003215,0.004422,0.003751
967,-0.161294,0.984688,-0.066099,0.002282,0.0037909999999999,0.001814
968,-0.1612849999999999,0.984694,-0.066039,0.001251,0.004793,0.005111
969,-0.161277,0.984696,-0.066019,0.0025239999999999,0.004546,0.005259
970,-0.161232,0.984705,-0.066001,0.003853,0.004599,0.0038979999999999
971,-0.161156,0.984715,-0.0660299999999999,0.0010609999999999,0.006206,0.006139
972,-0.161044,0.984732,-0.066051,0.002597,0.004159,0.0070459999999999
973,-0.160929,0.984747,-0.066118,0.00416,0.005121,0.0071579999999999
974,-0.160805,0.984759,-0.066247,0.004875,0.004575,0.005029
975,-0.160652,0.984776,-0.06636,0.006279,0.006786,0.005829
976,-0.1605349999999999,0.984787,-0.066473,0.0055969999999999,0.004409,0.006414
977,-0.16042,0.984798,-0.066596,0.005375,0.003072,0.006034
978,-0.160254,0.984818,-0.066696,0.004691,0.003463,0.007873
979,-0.1601,0.984838,-0.066774,0.006795,0.00468,0.006975
980,-0.159978,0.984855,-0.066811,0.0065819999999999,0.002007,0.006493
981,-0.159886,0.984869,-0.066821,0.007923,0.004038,0.0042759999999999
982,-0.159796,0.984884,-0.066817,0.003821,0.0046939999999999,0.008666
983,-0.1597,0.984898,-0.066846,0.004442,0.0052299999999999,0.006238
984,-0.15965,0.984905,-0.066854,0.005765,0.004856,0.0048579999999999
985,-0.159638,0.984909,-0.066815,0.004044,0.004303,0.0052
986,-0.159637,0.984909,-0.066819,0.003432,0.004242,0.006181
987,-0.159649,0.984904,-0.066857,0.002102,0.004308,0.002618
988,-0.159643,0.984901,-0.066912,0.000906,0.002907,0.0009029999999999
989,-0.159658,0.984899,-0.066913,0.001013,0.0014449999999999,0.00101
990,-0.159706,0.984896,-0.066844,0.001198,0.0036299999999999,0.001979
991,-0.159825,0.984884,-0.066731,0.0026739999999999,0.00503,0.002126
992,-0.159961,0.984863,-0.06671,0.004703,0.005417,9e-05
993,-0.160067,0.984849,-0.06667,0.005007,0.004501,0.002186
994,-0.16016,0.984835,-0.066646,0.008686,0.006071,0.002895
995,-0.160244,0.984822,-0.066639,0.008449,0.003475,0.000736
996,-0.1603349999999999,0.98481,-0.066584,0.009334,0.00431,0.001917
997,-0.160376,0.984809,-0.0665,0.004507,0.0033799999999999,-0.000578
998,-0.160387,0.984811,-0.066457,0.002428,0.005607,0.003148
999,-0.160385,0.984806,-0.066537,0.005386,0.005871,0.005044
1000,-0.160369,0.984803,-0.066617,0.003143,0.0043479999999999,0.0042689999999999
1001,-0.160349,0.984802,-0.0666809999999999,0.001505,0.004288,0.0037689999999999
1002,-0.160323,0.984803,-0.066736,-0.000322,0.006256,0.004816
1003,-0.16035,0.984794,-0.066802,0.001521,0.004128,0.008499
1004,-0.160459,0.984774,-0.0668309999999999,0.005994,0.005582,0.004911
1005,-0.160647,0.984747,-0.066786,0.005587,0.004664,0.006499
1006,-0.160895,0.984712,-0.066696,0.00379,0.0067129999999999,0.004242
1007,-0.161146,0.984674,-0.066647,0.008832,0.005514,0.002346
1008,-0.161413,0.984632,-0.0666279999999999,0.011617,0.003985,0.0037159999999999
1009,-0.161634,0.984598,-0.066586,0.01341,0.0033619999999999,0.003506
1010,-0.1618119999999999,0.984574,-0.0665159999999999,0.008934,0.005447,0.002155
1011,-0.161957,0.984555,-0.066435,0.010742,0.002902,0.000669
1012,-0.1620349999999999,0.984548,-0.06635,0.012087,0.006006,-2.6e-05
1013,-0.16209,0.984547,-0.066242,0.007778,0.007473,0.005375
1014,-0.162176,0.984536,-0.066191,0.004735,0.005744,0.003371
1015,-0.162252,0.984523,-0.066192,0.005757,0.002995,0.004226
1016,-0.16236,0.984504,-0.066212,0.004859,0.003777,0.002034
1017,-0.162484,0.98449,-0.066121,0.005837,0.002571,0.0018809999999999
1018,-0.162628,0.984476,-0.065973,0.005035,0.002859,0.001612
1019,-0.1627559999999999,0.984466,-0.06581,0.005758,0.003739,0.005248
1020,-0.162846,0.98446,-0.06567,0.005039,0.006614,0.004253
1021,-0.162863,0.984466,-0.0655419999999999,0.0032869999999999,0.003846,0.00591
1022,-0.162874,0.984473,-0.0654059999999999,0.0034649999999999,0.005685,0.003257
1023,-0.162864,0.984486,-0.065241,0.004249,0.005535,0.002528
1024,-0.162919,0.98449,-0.0650289999999999,0.004685,0.002768,0.003536
1025,-0.162933,0.984503,-0.064809,0.003647,0.004099,0.007787
1026,-0.162912,0.984518,-0.064636,0.00094,0.005137,0.007858
1027,-0.16288,0.984533,-0.064482,0.0009689999999999,0.003077,0.007536
1028,-0.16283,0.984553,-0.0643059999999999,0.002002,0.002706,0.005514
1029,-0.1627809999999999,0.984572,-0.064132,0.001358,0.002916,0.006057
1030,-0.162749,0.984587,-0.0639769999999999,0.006286,0.004014,0.003171
1031,-0.162738,0.984602,-0.063782,0.003315,0.006884,0.005142
1032,-0.1627569999999999,0.98461,-0.063604,0.001563,0.005365,0.006078
1033,-0.162795,0.984614,-0.063447,-0.000612,0.007009,0.005678
1034,-0.162773,0.984621,-0.0634,0.002251,0.014387,0.0065
1035,-0.162742,0.984612,-0.063621,0.0060799999999999,0.019203,0.0072549999999999
1036,-0.162846,0.984553,-0.064265,0.008869,0.010366,0.002894
1037,-0.16299,0.984481,-0.0650039999999999,0.004757,-0.006011,0.007128
1038,-0.162968,0.984453,-0.06548,0.004734,-0.005983,0.007604
1039,-0.162739,0.984488,-0.065515,0.010243,0.0004509999999999,0.004145
1040,-0.16247,0.98454,-0.065408,0.010584,0.007663,0.007578
1041,-0.162333,0.984563,-0.065396,0.011561,0.0041909999999999,0.005398
1042,-0.162329,0.98456,-0.065443,0.014731,0.000837,0.000516
1043,-0.162431,0.984549,-0.065368,0.006639,0.006571,0.0075829999999999
1044,-0.162601,0.984511,-0.065513,0.001789,-0.004591,0.002616
1045,-0.1628079999999999,0.984469,-0.065635,0.0008359999999999,0.0032329999999999,0.000419
1046,-0.162974,0.984442,-0.065621,0.004588,0.0085849999999999,-0.000419
1047,-0.163041,0.984434,-0.065577,0.004914,0.014208,-0.000601
1048,-0.163029,0.984428,-0.065701,0.007435,0.017144,0.004452
1049,-0.163048,0.98439,-0.066212,0.008797,0.008041,-0.0004379999999999
1050,-0.163038,0.984352,-0.066804,0.008268,0.001961,-0.002013
1051,-0.16304,0.984306,-0.06747,0.011856,0.0070269999999999,-0.002126
1052,-0.163067,0.984261,-0.068067,0.016323,0.003059,-0.014025
1053,-0.163203,0.984231,-0.06817,0.020411,-0.006127,-0.009283
1054,-0.163551,0.984192,-0.067898,0.015968,0.011047,0.003475
1055,-0.163962,0.984129,-0.067823,0.004065,0.010607,0.005018
1056,-0.16434,0.984075,-0.067689,0.002521,0.002848,0.002595
1057,-0.164654,0.984038,-0.067462,-0.0010869999999999,-0.002364,0.002811
1058,-0.164908,0.984022,-0.067076,-0.0038079999999999,0.008379,0.0103439999999999
1059,-0.165187,0.983993,-0.06682,-0.00356,0.003678,0.011385
1060,-0.1653599999999999,0.983978,-0.066606,-0.008193,0.00415,0.009554
1061,-0.165456,0.983973,-0.066441,-0.00558,0.00179,0.004383
1062,-0.165537,0.983978,-0.0661669999999999,-0.005377,0.004715,0.0042159999999999
1063,-0.165596,0.983983,-0.06595,0.000496,-0.005177,-0.0034159999999999
1064,-0.165653,0.983992,-0.0656539999999999,0.005695,0.003434,-0.005361
1065,-0.165673,0.983998,-0.065522,0.013558,0.016277,-0.0077659999999999
1066,-0.165763,0.983982,-0.065524,0.017768,0.010311,-0.0075349999999999
1067,-0.165745,0.983987,-0.065502,0.011418,0.000846,-0.0067329999999999
1068,-0.1657,0.984004,-0.065356,0.01035,0.003331,-0.005369
1069,-0.165576,0.984034,-0.06523,0.012439,0.003958,-0.004487
1070,-0.165523,0.98405,-0.065126,0.0190229999999999,0.0089769999999999,-0.002852
1071,-0.1655299999999999,0.984056,-0.065022,0.013858,0.003768,-0.003551
1072,-0.165641,0.984047,-0.064875,0.018943,0.002571,-0.001989
1073,-0.165759,0.984033,-0.064789,0.019458,0.00637,-0.000366
1074,-0.1658619999999999,0.984023,-0.064671,0.021758,0.004945,-0.002925
1075,-0.165974,0.98401,-0.06459,0.020176,0.007873,0.00148
1076,-0.166018,0.984009,-0.064495,0.013323,0.009033,0.003048
1077,-0.166033,0.984011,-0.064419,0.013323,0.0036899999999999,0.001766
1078,-0.165979,0.984027,-0.064311,0.008753,0.009991,0.00912
1079,-0.1660029999999999,0.984021,-0.064348,0.009204,0.002017,0.003602
1080,-0.166106,0.984017,-0.064138,0.007781,0.00138,0.006002
1081,-0.166279,0.984009,-0.063815,0.004765,0.011138,0.007906
1082,-0.166563,0.983978,-0.063551,0.005201,-0.001663,0.005934
1083,-0.1668609999999999,0.983946,-0.063273,0.00614,0.0018629999999999,0.005106
1084,-0.167171,0.983909,-0.063024,0.005871,-0.000633,0.007192
1085,-0.16743,0.98388,-0.062791,0.006862,0.006202,0.006135
1086,-0.167734,0.983843,-0.062558,0.009943,0.009382,0.002851
1087,-0.168001,0.983815,-0.062289,0.010103,0.005504,0.002337
1088,-0.168197,0.983794,-0.062084,0.008071,0.005326,-0.001484
1089,-0.168418,0.98377,-0.061863,0.008307,0.00474,-0.001354
1090,-0.168572,0.983758,-0.061638,0.004967,0.002143,0.000877
1091,-0.168647,0.983757,-0.0614549999999999,0.006889,0.008568,0.005684
1092,-0.168701,0.983749,-0.061447,0.001831,0.002839,0.005188
1093,-0.1686099999999999,0.983762,-0.0614759999999999,-0.000976,0.003146,0.0028829999999999
1094,-0.168512,0.983779,-0.061479,-0.000235,0.002107,0.005601
1095,-0.168482,0.983787,-0.061434,-0.002417,0.005273,0.007326
1096,-0.168552,0.983775,-0.061426,-0.002484,0.0084879999999999,0.009103
1097,-0.168707,0.983747,-0.061451,-0.000452,0.005587,0.0076939999999999
1098,-0.168931,0.983703,-0.061546,0.005021,0.0061649999999999,0.0038369999999999
1099,-0.16925,0.983637,-0.061727,0.003143,0.003515,0.002263
1100,-0.169597,0.98357,-0.061838,0.003321,0.0018579999999999,0.001581
1101,-0.169873,0.983523,-0.061834,0.005093,0.003782,0.004171
1102,-0.170079,0.983485,-0.06187,0.005863,0.005605,0.0019329999999999
1103,-0.170205,0.983461,-0.0619039999999999,0.0096519999999999,0.004439,0.001784
1104,-0.170244,0.983449,-0.061985,0.007509,0.005656,0.002521
1105,-0.170193,0.98346,-0.0619669999999999,0.008144,-0.0008089999999999,0.000169
1106,-0.170073,0.983486,-0.061871,0.007155,0.002964,0.002728
1107,-0.169924,0.983522,-0.06172,0.004381,0.004302,0.005141
1108,-0.169774,0.983561,-0.061498,0.004567,0.002309,0.007589
1109,-0.1696359999999999,0.983598,-0.061299,0.003987,0.003981,0.006626
1110,-0.169622,0.983611,-0.0611289999999999,0.0064909999999999,0.008378,0.00548
1111,-0.169693,0.983605,-0.061021,0.004898,0.003471,0.000703
1112,-0.1698569999999999,0.983581,-0.0609539999999999,0.0076709999999999,0.006333,0.002314
1113,-0.169957,0.983573,-0.060805,0.0057729999999999,0.008493,0.002944
1114,-0.170017,0.98357,-0.06068,0.001423,0.011944,0.004161
1115,-0.170053,0.983566,-0.060645,0.003686,0.000443,0.00228
1116,-0.170076,0.983564,-0.06062,0.005846,0.001193,-0.0002319999999999
1117,-0.170063,0.983564,-0.060662,0.0104099999999999,0.003177,-3.8e-05
1118,-0.170058,0.983559,-0.060751,0.013305,0.0044329999999999,-0.004251
1119,-0.170094,0.983545,-0.0608779999999999,0.012822,0.00495,-0.0048259999999999
1120,-0.170154,0.983521,-0.061111,0.011096,0.002838,-0.002091
1121,-0.170255,0.983498,-0.061194,0.009122,0.010506,6e-06
1122,-0.170326,0.983472,-0.06141,0.007545,0.0050079999999999,0.000848
1123,-0.17038,0.98346,-0.06145,0.009293,0.0082239999999999,-0.005383
1124,-0.170488,0.983446,-0.0613779999999999,0.010392,0.00981,-0.00251
1125,-0.170587,0.983432,-0.061319,0.0095909999999999,0.003857,-0.002218
1126,-0.170732,0.983409,-0.061283,0.009111,0.002736,-0.0061909999999999
1127,-0.17088,0.983383,-0.061296,0.009106,0.000901,-0.007719
1128,-0.171006,0.983362,-0.061276,0.008897,0.0030269999999999,-0.006229
1129,-0.171091,0.983348,-0.06127,0.013346,0.006307,-0.002176
1130,-0.171155,0.983337,-0.061269,0.012906,0.004838,-0.003718
1131,-0.1711609999999999,0.983332,-0.061331,0.0111569999999999,0.0049039999999999,-0.005396
1132,-0.171094,0.983339,-0.0614059999999999,0.009381,0.006483,-0.004634
1133,-0.171038,0.983349,-0.0614049999999999,0.010637,0.0064129999999999,-0.004177
1134,-0.171049,0.983346,-0.061413,0.008986,0.004538,-0.004642
1135,-0.171119,0.983331,-0.061464,0.0064,0.00196,-0.005889
1136,-0.171178,0.983322,-0.061452,0.004857,0.000886,-0.000484
1137,-0.171251,0.983316,-0.06134,0.001192,0.000312,0.000671
1138,-0.171349,0.983313,-0.06111,-0.000328,0.004587,0.001814
1139,-0.171501,0.983302,-0.060859,0.000602,0.009389,0.001274
1140,-0.171658,0.98328,-0.060773,0.0036439999999999,0.003506,0.001187
1141,-0.171744,0.98327,-0.0606919999999999,0.006979,0.010627,0.001472
1142,-0.171816,0.983256,-0.060696,0.009692,0.005162,0.001737
1143,-0.171854,0.983252,-0.060663,0.009012,0.006082,0.002832
1144,-0.1718589999999999,0.983256,-0.0605929999999999,0.010253,0.005331,-0.000289
1145,-0.1718329999999999,0.983266,-0.060507,0.011509,0.007015,0.000936
1146,-0.1718329999999999,0.983268,-0.06047,0.013691,0.00512,-0.001893
1147,-0.171836,0.983266,-0.060489,0.009056,0.005595,0.000262
1148,-0.171806,0.983268,-0.0605389999999999,0.008964,0.003655,-0.0014119999999999
1149,-0.171757,0.983277,-0.060533,0.0067329999999999,0.003097,-0.0018449999999999
1150,-0.171666,0.983295,-0.060502,0.006246,0.002621,0.001527
1151,-0.171566,0.983316,-0.060446,0.004299,0.0034549999999999,0.002478
1152,-0.171443,0.983341,-0.0603799999999999,0.002299,0.004116,0.004411
1153,-0.171286,0.983371,-0.060332,0.002707,0.005703,0.004699
1154,-0.171178,0.983392,-0.060298,0.006536,0.005499,0.000331
1155,-0.171146,0.983401,-0.060245,0.008243,0.004514,-0.0005
1156,-0.171182,0.983403,-0.060109,0.010095,0.00584,-0.00053
1157,-0.17125,0.983404,-0.0599,0.0103299999999999,0.005656,4e-05
1158,-0.171279,0.983408,-0.059746,0.009674,0.00347,-0.002113
1159,-0.171218,0.983427,-0.059604,0.007125,0.0061049999999999,-0.002133
1160,-0.171121,0.983449,-0.059526,0.004526,0.005351,-0.002836
1161,-0.171016,0.98347,-0.059471,0.0073349999999999,0.004811,-0.000695
1162,-0.170892,0.983489,-0.059522,0.006051,0.006028,-0.001086
1163,-0.170774,0.983504,-0.059614,0.004713,0.00522,1.4e-05
1164,-0.170665,0.98352,-0.05965,0.005718,0.002091,0.003635
1165,-0.1706079999999999,0.98353,-0.0596559999999999,0.005981,0.002142,0.001855
1166,-0.1706369999999999,0.983528,-0.059601,0.004621,0.006904,0.000122
1167,-0.170706,0.983519,-0.059559,0.007819,0.005312,0.00153
1168,-0.170814,0.983504,-0.0595059999999999,0.008598,0.005068,0.00105
1169,-0.17093,0.983486,-0.059469,0.0078599999999999,0.004689,-0.000986
1170,-0.170991,0.983476,-0.05945,0.007173,0.004515,-0.000242
1171,-0.171002,0.983475,-0.059427,0.007763,0.006301,-0.000769
1172,-0.170984,0.98348,-0.059404,0.00799,0.004908,0.000856
1173,-0.17095,0.983485,-0.059417,0.007239,0.005987,0.001525
1174,-0.170878,0.983494,-0.059482,0.009669,0.005245,-0.00404
1175,-0.1708329999999999,0.983495,-0.059583,0.009334,0.0057929999999999,-0.000262
1176,-0.1708309999999999,0.983491,-0.059666,0.007287,0.004546,0.00214
1177,-0.170851,0.983486,-0.059683,0.010466,0.0026739999999999,0.000739
1178,-0.170855,0.983488,-0.059647,0.009189,0.0037409999999999,-0.001205
1179,-0.1708309999999999,0.983494,-0.059607,0.0095459999999999,0.005443,-0.0020989999999999
1180,-0.170706,0.983519,-0.059557,0.006887,0.001772,-0.001234
1181,-0.170532,0.983555,-0.059465,0.007218,0.004452,-0.001295
1182,-0.170393,0.983584,-0.059385,0.007704,0.005751,-0.0031609999999999
1183,-0.170271,0.983611,-0.059276,0.008528,0.005051,-0.000889
1184,-0.170201,0.98363,-0.05917,0.008809,0.005841,-0.001438
1185,-0.170174,0.983639,-0.059108,0.009179,0.008289,0.0008039999999999
1186,-0.170123,0.983644,-0.05917,0.0062439999999999,0.004515,-0.001361
1187,-0.170065,0.983651,-0.0592179999999999,0.006842,0.001731,-0.000261
1188,-0.170003,0.983666,-0.0591549999999999,0.007252,0.003105,-0.000965
1189,-0.169965,0.983678,-0.059051,0.0083439999999999,0.005381,-0.001495
1190,-0.16995,0.983684,-0.0590059999999999,0.0059479999999999,0.006795,-0.00058
1191,-0.1699,0.983691,-0.059028,0.006585,0.003919,-0.004463
1192,-0.169852,0.983701,-0.0590039999999999,0.0067959999999999,0.004718,0.000151
1193,-0.1698069999999999,0.983708,-0.059009,0.002739,0.005794,0.000248
1194,-0.169765,0.983714,-0.059043,0.004787,0.002172,-0.00039
1195,-0.169694,0.983724,-0.059075,0.005006,0.002787,0.000755
1196,-0.169595,0.983738,-0.0591289999999999,0.0040219999999999,0.008221,0.0015119999999999
1197,-0.169486,0.983748,-0.059271,0.008109,0.002412,0.00054
1198,-0.169364,0.983766,-0.059328,0.006492,0.007262,0.003114
1199,-0.169229,0.983785,-0.0593929999999999,0.00828,0.005396,0.001974
1200,-0.169139,0.983797,-0.059451,0.008495,0.005232,0.002689
1201,-0.169006,0.983817,-0.0595059999999999,0.007705,0.002404,0.004391
1202,-0.168863,0.983839,-0.059551,0.004099,0.005678,0.003993
1203,-0.168719,0.983859,-0.059619,0.00455,0.006634,0.005298
1204,-0.168523,0.98388,-0.059825,0.005392,0.005637,0.001567
1205,-0.168372,0.9839,-0.0599279999999999,0.009589,0.0038929999999999,8.3e-05
1206,-0.1683329999999999,0.98391,-0.059877,0.014036,0.0029519999999999,-0.008177
1207,-0.168304,0.983915,-0.059878,0.009979,0.011492,-0.004514
1208,-0.16821,0.983937,-0.0597759999999999,0.006193,0.009715,-0.00396
1209,-0.1682,0.983943,-0.059708,0.010317,0.005727,-0.003341
1210,-0.168217,0.983935,-0.059787,0.003163,0.003553,-0.004239
1211,-0.168156,0.98394,-0.059886,0.002995,0.001442,-0.004521
1212,-0.168016,0.983956,-0.06001,0.007936,-0.0001149999999999,-0.004
1213,-0.167891,0.983968,-0.0601559999999999,0.008528,0.008967,-0.005228
1214,-0.167799,0.983972,-0.0603559999999999,0.011442,0.006309,-0.0007099999999999
1215,-0.167764,0.983967,-0.0605309999999999,0.009759,-0.001713,-0.003785
1216,-0.167721,0.983975,-0.060525,0.0151639999999999,0.007358,0.000344
1217,-0.167717,0.98397,-0.0606059999999999,0.015923,0.0074849999999999,0.001265
1218,-0.167692,0.983971,-0.0606549999999999,0.018476,0.007362,-0.004576
1219,-0.167678,0.983975,-0.060631,0.0137159999999999,0.007571,-0.004981
1220,-0.167703,0.983979,-0.060509,0.010354,0.004638,-3.8e-05
1221,-0.1678,0.98397,-0.060373,0.006759,0.004799,-0.004889
1222,-0.167856,0.983972,-0.060194,0.005182,0.005652,-0.00197
1223,-0.1678319999999999,0.983984,-0.0600659999999999,0.0034649999999999,0.005533,-0.002724
1224,-0.167754,0.983998,-0.060047,0.001402,0.005839,-0.002544
1225,-0.167673,0.983999,-0.060264,0.000727,0.011988,0.0015789999999999
1226,-0.167617,0.983985,-0.060645,-0.0078739999999999,0.004922,0.010856
1227,-0.167579,0.983965,-0.0610669999999999,-0.010216,0.003751,0.010057
1228,-0.167563,0.983938,-0.061548,-0.008828,-0.001852,0.005045
1229,-0.167533,0.983918,-0.0619529999999999,-0.006173,-0.001954,0.004656
1230,-0.167507,0.983906,-0.062206,-0.003453,-0.001149,0.007701
1231,-0.167539,0.983892,-0.0623419999999999,-0.004672,0.001872,0.01063
1232,-0.167515,0.983889,-0.062462,-0.007183,0.007689,0.014977
1233,-0.167268,0.983917,-0.062684,-0.008239,0.006135,0.015611
1234,-0.166877,0.983971,-0.062863,-0.010308,-0.006722,0.002774
1235,-0.166424,0.984072,-0.062482,-0.004444,-0.0135979999999999,-0.005695
1236,-0.1660029999999999,0.984192,-0.0617,0.005435,0.004974,-0.00344
1237,-0.165719,0.984259,-0.061401,0.014077,0.012689,-0.0118409999999999
1238,-0.16569,0.984251,-0.061597,0.020716,-0.000166,-0.019809
1239,-0.165724,0.984242,-0.061651,0.047819,0.010204,-0.023722
1240,-0.166139,0.984177,-0.061571,0.041017,0.013046,-0.022276
1241,-0.166536,0.984111,-0.0615659999999999,0.046892,0.008825,-0.025119
1242,-0.16682,0.984058,-0.061636,0.046718,0.008099,-0.019083
1243,-0.167105,0.984012,-0.0615919999999999,0.0513669999999999,0.022229,-0.007973
1244,-0.16772,0.983899,-0.061735,0.040233,0.026126,0.0073069999999999
1245,-0.168544,0.983724,-0.062268,0.031886,0.018763,0.0059479999999999
1246,-0.169323,0.983562,-0.062722,0.00491,-0.00497,-0.007316
1247,-0.170032,0.98345,-0.062561,-0.00256,-0.014837,-0.000672
1248,-0.170455,0.983411,-0.062032,-0.004502,-0.0032619999999999,0.003515
1249,-0.17076,0.983375,-0.06175,-0.005906,-0.000526,-0.002627
1250,-0.170935,0.983359,-0.061523,-0.00535,0.007623,0.000625
1251,-0.171075,0.983348,-0.061297,-0.017005,-0.001888,0.00223
1252,-0.170945,0.983406,-0.0607299999999999,-0.025436,0.002709,0.0093379999999999
1253,-0.170531,0.983521,-0.060028,-0.025849,0.002594,0.008637
1254,-0.170118,0.983624,-0.059515,-0.027545,0.009723,0.008383
1255,-0.169766,0.983701,-0.059246,-0.022754,0.001926,0.005123
1256,-0.169462,0.983763,-0.0590889999999999,-0.020358,-0.005903,0.002097
1257,-0.169372,0.983793,-0.058837,-3.2e-05,0.001757,-0.001634
1258,-0.169367,0.983813,-0.0585179999999999,0.0143069999999999,0.007779,-0.003036
1259,-0.1695019999999999,0.983811,-0.0581669999999999,0.01696,0.013366,-0.002059
1260,-0.169706,0.983787,-0.057985,0.030256,0.006188,-0.010955
1261,-0.169932,0.983755,-0.057855,0.038767,0.010416,-0.012473
1262,-0.1701119999999999,0.983731,-0.057724,0.039344,0.0079069999999999,-0.0118409999999999
1263,-0.1701339999999999,0.983731,-0.057672,0.037779,0.01012,-0.003806
1264,-0.170052,0.983739,-0.057782,0.032006,0.015102,0.00195
1265,-0.170039,0.983728,-0.058012,0.01208,0.0210479999999999,0.009824
1266,-0.170041,0.9837,-0.058466,-0.008792,0.004535,0.012476
1267,-0.169988,0.983691,-0.058782,-0.019328,-0.01105,0.010228
1268,-0.169941,0.983696,-0.058834,-0.0206879999999999,-0.017051,0.007656
1269,-0.169864,0.983725,-0.058556,-0.016934,-0.012198,0.00364
1270,-0.1697509999999999,0.983775,-0.058039,-0.013614,0.00298,0.0016879999999999
1271,-0.169624,0.983826,-0.057558,-0.009682,0.009781,-0.001127
1272,-0.169648,0.983844,-0.057168,-0.00186,0.007871,0.001458
1273,-0.169758,0.983839,-0.056924,-1.1e-05,0.004213,-7.000000000000001e-06
1274,-0.169788,0.983844,-0.0567509999999999,-0.000363,0.007351,0.001407
1275,-0.169656,0.983861,-0.056863,0.0012289999999999,0.000819,-0.002341
1276,-0.169262,0.983926,-0.05691,0.0011099999999999,0.000388,-0.006292
1277,-0.168696,0.984023,-0.0569059999999999,0.001185,0.008012,-0.004617
1278,-0.168203,0.984103,-0.0569929999999999,-0.003169,-0.004626,-0.004088
1279,-0.167773,0.98418,-0.056928,0.008014,-0.000645,-0.009569
1280,-0.167602,0.984223,-0.056708,0.013,0.005142,-0.00274
1281,-0.1676079999999999,0.984226,-0.056633,0.016485,0.005871,-0.003624
1282,-0.167698,0.984211,-0.0566259999999999,0.021092,0.005886,-0.0071099999999999
1283,-0.167857,0.984194,-0.056444,0.020655,0.005521,-0.0093969999999999
1284,-0.16809,0.984172,-0.056144,0.021071,0.0109,-0.005242
1285,-0.168295,0.984146,-0.055971,0.01766,0.005417,-0.005186
1286,-0.168479,0.98413,-0.055701,0.018897,0.0033729999999999,-0.005487
1287,-0.168686,0.984116,-0.0553289999999999,0.014862,0.014953,0.000214
1288,-0.168923,0.984092,-0.055028,0.013772,0.005136,-0.002696
1289,-0.169169,0.984064,-0.054771,0.010447,0.005484,-0.00631
1290,-0.1693349999999999,0.984048,-0.054534,0.010384,0.003943,-0.003663
1291,-0.169433,0.984041,-0.05436,0.01036,0.0013859999999999,-0.003181
1292,-0.169541,0.984038,-0.054088,0.005326,-0.000746,-0.004872
1293,-0.1697509999999999,0.984028,-0.053612,0.00845,0.003552,-0.001869
1294,-0.170169,0.983984,-0.053076,0.009311,0.012445,6e-06
1295,-0.170749,0.983911,-0.0525809999999999,0.009051,0.008918,-0.003098
1296,-0.17135,0.983838,-0.051987,0.001596,0.004825,-0.002915
1297,-0.171863,0.983778,-0.051417,0.004184,0.007067,0.006403
1298,-0.172217,0.983733,-0.051098,0.008887,0.010057,0.0033829999999999
1299,-0.172485,0.983687,-0.051075,0.007995,0.008562,-0.000957
1300,-0.17276,0.983634,-0.051164,0.009705,0.003182,-0.011504
1301,-0.173004,0.983601,-0.050974,0.022201,0.005168,-0.012243
1302,-0.173008,0.983621,-0.0505759999999999,0.010563,0.002829,-0.000434
1303,-0.17289,0.983662,-0.05018,0.01989,0.004268,-0.007864
1304,-0.172762,0.98371,-0.049681,0.016191,0.006494,-0.009615
1305,-0.172678,0.983755,-0.049086,0.019952,0.009974,-0.008791
1306,-0.172472,0.983834,-0.048221,0.0142379999999999,0.000953,-0.0050479999999999
1307,-0.172262,0.983911,-0.0473779999999999,0.014028,0.0008759999999999,-0.00589
1308,-0.172052,0.98397,-0.046908,0.003671,0.003227,-0.005307
1309,-0.17174,0.984026,-0.046894,0.004366,-0.00197,-0.018902
1310,-0.17137,0.98412,-0.046257,-0.000871,0.004146,-0.008553
1311,-0.171018,0.984219,-0.045446,0.0128919999999999,-0.001218,-0.007578
1312,-0.170773,0.984298,-0.0446579999999999,0.015072,0.010346,0.001536
1313,-0.170811,0.984305,-0.0443589999999999,0.001576,0.008676,-0.002317
1314,-0.170993,0.984276,-0.044289,0.0033299999999999,-0.000329,-0.005485
1315,-0.171339,0.984223,-0.044144,0.004377,0.003326,-0.002472
1316,-0.171695,0.984166,-0.044031,0.014697,0.008464,-0.002112
1317,-0.172164,0.984091,-0.04386,0.0140669999999999,0.00451,0.000265
1318,-0.172711,0.984008,-0.043566,0.013257,0.0043799999999999,0.001924
1319,-0.173287,0.983919,-0.043272,0.008324,0.003462,0.002119
1320,-0.173808,0.983844,-0.042887,0.0106909999999999,0.003018,0.004541
1321,-0.174416,0.983756,-0.042432,0.0110549999999999,0.007379,0.00395
1322,-0.174852,0.983701,-0.041916,0.008028,0.005771,0.008239
1323,-0.175083,0.983679,-0.041454,0.004337,0.006021,0.010372
1324,-0.175065,0.983698,-0.0410769999999999,0.0029,0.007147,0.006775
1325,-0.175017,0.983723,-0.040671,-0.000566,0.004742,0.009894
1326,-0.174929,0.983752,-0.040318,-0.000334,0.003812,0.009098
1327,-0.174718,0.983802,-0.040021,-0.001979,0.0085379999999999,0.005078
1328,-0.174447,0.983857,-0.03985,-0.00434,0.001968,0.007151
1329,-0.174255,0.983899,-0.039643,-0.011018,0.002703,0.006364
1330,-0.174028,0.983943,-0.039566,-0.007338,0.0035909999999999,0.003326
1331,-0.17377,0.983992,-0.039484,-0.007047,0.004762,0.004618
1332,-0.173616,0.984023,-0.039389,-0.002669,0.006242,0.006751
1333,-0.173524,0.98404,-0.039372,-0.005415,0.002121,0.005131
1334,-0.173432,0.984056,-0.039382,-0.010116,0.0016769999999999,0.007033
1335,-0.173327,0.984076,-0.03933,-0.008832,0.005945,0.004769
1336,-0.173239,0.984091,-0.0393569999999999,-0.014093,0.003367,0.006032
1337,-0.173128,0.98411,-0.039342,-0.006742,0.001745,0.005407
1338,-0.172913,0.984147,-0.0393839999999999,-0.008606,0.003036,0.006792
1339,-0.172616,0.984193,-0.039537,-0.002769,0.005065,0.009477
1340,-0.172287,0.984243,-0.0397319999999999,-0.000458,0.008173,0.009351
1341,-0.171903,0.984303,-0.039907,-0.002948,0.0016589999999999,0.003164
1342,-0.171627,0.984351,-0.039922,0.003658,-0.00466,-0.001857
1343,-0.171617,0.984353,-0.039922,0.017335,-0.000649,-0.0039159999999999
1344,-0.171795,0.984324,-0.039864,0.027829,0.001989,-0.008766
1345,-0.172268,0.984251,-0.039628,0.039151,0.006853,-0.0060869999999999
1346,-0.172906,0.984152,-0.039311,0.030954,0.006784,-0.009807
1347,-0.173625,0.984043,-0.038862,0.021159,0.0060539999999999,-0.010546
1348,-0.174216,0.983957,-0.038404,0.013235,0.005835,-0.003771
1349,-0.174692,0.983888,-0.038014,0.012705,0.005446,-0.002849
1350,-0.174921,0.983859,-0.037712,0.0004219999999999,0.0036899999999999,9.9e-05
1351,-0.174968,0.983855,-0.037603,-0.010823,0.0039689999999999,-0.0016879999999999
1352,-0.174995,0.983849,-0.037638,-0.012703,0.001885,-0.0008439999999999
1353,-0.175053,0.983838,-0.037645,-0.007824,-0.001279,-0.006499
1354,-0.175197,0.983815,-0.037568,0.001552,0.0094709999999999,0.001496
1355,-0.175429,0.983767,-0.0377459999999999,0.002578,0.006742,-0.002781
1356,-0.175833,0.983693,-0.03781,0.002509,0.001384,-0.002352
1357,-0.176395,0.983589,-0.0378839999999999,0.013186,0.000359,-0.010731
1358,-0.177062,0.983479,-0.037645,0.019881,0.008617,-0.006697
1359,-0.177781,0.983353,-0.037535,0.022675,0.007537,-0.0103769999999999
1360,-0.178429,0.983244,-0.037323,0.0258569999999999,0.007326,-0.00705
1361,-0.179039,0.983143,-0.037066,0.023339,0.007977,-0.001828
1362,-0.17966,0.983038,-0.036851,0.02077,0.005457,-0.009886
1363,-0.180309,0.982935,-0.03642,0.019421,0.006704,-0.003222
1364,-0.180876,0.982843,-0.03608,0.014906,0.010702,-0.002464
1365,-0.18127,0.98278,-0.035814,0.008205,0.006004,-0.002623
1366,-0.181566,0.982729,-0.03573,0.003069,0.002165,-0.0009369999999999
1367,-0.181744,0.982701,-0.0355959999999999,0.0029879999999999,0.000774,-0.000308
1368,-0.18183,0.982685,-0.035617,-0.002023,0.0062829999999999,0.004184
1369,-0.181899,0.982665,-0.035802,-0.0002,0.000566,0.002049
1370,-0.18192,0.982655,-0.035958,0.000569,0.007304,0.001656
1371,-0.181943,0.982642,-0.036189,0.002133,0.0086909999999999,0.001552
1372,-0.182035,0.98262,-0.036335,0.0012029999999999,0.002365,0.003315
1373,-0.182082,0.982602,-0.036599,0.004546,9.5e-05,0.003411
1374,-0.182059,0.9826,-0.036747,0.004096,0.006963,0.0055119999999999
1375,-0.1819319999999999,0.982619,-0.036877,0.005296,0.006044,0.000241
1376,-0.181821,0.982634,-0.037016,0.0045899999999999,0.004854,-0.001299
1377,-0.18168,0.982656,-0.037135,0.004189,0.011348,0.002178
1378,-0.18155,0.982674,-0.037283,0.007111,0.004951,0.005469
1379,-0.181457,0.982691,-0.0373,0.007842,0.007147,-0.00187
1380,-0.181398,0.982701,-0.037307,0.008378,0.006297,-0.005219
1381,-0.181463,0.98269,-0.037284,0.009328,0.002784,-0.0019309999999999
1382,-0.181566,0.982669,-0.0373379999999999,0.013567,0.004285,-0.005326
1383,-0.181702,0.982641,-0.03741,0.0126489999999999,0.003946,-0.0066879999999999
1384,-0.1819059999999999,0.982603,-0.037415,0.013021,0.0028399999999999,-0.00476
1385,-0.182166,0.982559,-0.037312,0.009833,0.002319,-0.004207
1386,-0.182447,0.98251,-0.037249,0.0068189999999999,0.01067,0.000582
1387,-0.182732,0.982456,-0.037265,0.011177,0.009411,0.0042759999999999
1388,-0.183032,0.98241,-0.037015,-0.002271,0.014584,0.023237
1389,-0.1832349999999999,0.982383,-0.036732,-0.016441,0.000299,0.019871
1390,-0.183322,0.982378,-0.036417,-0.022183,-0.010073,0.0131169999999999
1391,-0.183289,0.982396,-0.036093,-0.016662,-0.001638,0.007605
1392,-0.183302,0.982403,-0.0358389999999999,-0.00609,0.000629,-0.000111
1393,-0.183336,0.982405,-0.035621,0.001482,0.002382,-0.0046619999999999
1394,-0.183371,0.982407,-0.035391,0.007315,0.006027,-0.000208
1395,-0.183307,0.982415,-0.035498,0.011722,0.004432,-0.012278
1396,-0.1832369999999999,0.982429,-0.035453,0.0105379999999999,0.004753,-0.009515
1397,-0.183193,0.982431,-0.035635,0.005291,0.00376,-0.0207919999999999
1398,-0.182942,0.982486,-0.035401,0.0072829999999999,-9.5e-05,-0.0222169999999999
1399,-0.182603,0.982561,-0.035073,0.000673,0.0017989999999999,-0.010261
1400,-0.182416,0.982601,-0.034912,-0.0020629999999999,0.0017739999999999,-0.014328
1401,-0.1824839999999999,0.982595,-0.034746,-0.003963,-0.002156,-0.011809
1402,-0.182825,0.982541,-0.03446,0.004511,0.007403,-0.006739
1403,-0.183413,0.982445,-0.0340769999999999,0.004305,0.005668,-0.005458
1404,-0.184004,0.982344,-0.033807,0.000426,0.002702,-0.004279
1405,-0.184378,0.982285,-0.033491,-0.002512,0.0068819999999999,0.003278
1406,-0.184565,0.982255,-0.033322,0.000178,0.007232,0.000958
1407,-0.184658,0.98224,-0.033244,0.012448,0.006148,0.004115
1408,-0.184686,0.982234,-0.033269,0.017999,0.011052,-0.0009109999999999
1409,-0.184674,0.982231,-0.033413,0.017422,0.009758,-0.001514
1410,-0.184635,0.982237,-0.033462,0.016391,0.003771,-0.001008
1411,-0.184543,0.982256,-0.033399,0.010227,0.006742,0.005124
1412,-0.184475,0.982275,-0.033218,0.00552,0.004984,0.0059039999999999
1413,-0.184471,0.982282,-0.033026,-0.004463,0.005114,0.006537
1414,-0.184478,0.982285,-0.032906,-0.004837,0.003952,0.005028
1415,-0.184516,0.982279,-0.032879,-0.007181,0.005407,0.006222
1416,-0.184565,0.982269,-0.032907,-0.00356,0.006211,0.0004669999999999
1417,-0.184689,0.982248,-0.032816,0.004575,0.005377,0.005396
1418,-0.184838,0.982223,-0.03274,0.006265,0.004838,0.003169
1419,-0.1849579999999999,0.982202,-0.032699,0.0072239999999999,0.004615,-0.002625
1420,-0.185027,0.982189,-0.032679,0.010925,0.004642,-0.002554
1421,-0.185103,0.982175,-0.032678,0.015928,0.0071129999999999,-0.00312
1422,-0.1852589999999999,0.982148,-0.032609,0.015444,0.004958,-0.004775
1423,-0.185504,0.982105,-0.032503,0.013186,0.005154,-0.003005
1424,-0.185747,0.982064,-0.032357,0.008226,0.005744,0.001488
1425,-0.185992,0.982023,-0.032217,0.002764,0.00635,0.000677
1426,-0.186215,0.981983,-0.0321269999999999,-0.000522,0.002499,0.000389
1427,-0.186389,0.981955,-0.031997,-0.0017519999999999,0.004633,-0.000398
1428,-0.186628,0.981912,-0.031905,-0.000841,0.0035,-0.003037
1429,-0.186922,0.981858,-0.031853,0.0011769999999999,0.0027,-0.000496
1430,-0.187188,0.981807,-0.031836,0.004815,0.004277,0.001059
1431,-0.187387,0.981768,-0.031872,0.008158,0.003247,-0.002415
1432,-0.187552,0.981738,-0.031841,0.0088709999999999,0.0040409999999999,-0.004536
1433,-0.187727,0.981711,-0.031656,0.014524,0.003229,-0.00492
1434,-0.187918,0.981681,-0.031443,0.020499,0.005257,-0.007589
1435,-0.188149,0.981642,-0.031283,0.020669,0.007234,-0.007261
1436,-0.18838,0.981602,-0.031145,0.018687,0.005031,-0.0064519999999999
1437,-0.188566,0.981574,-0.03091,0.008848,0.005517,-0.002125
1438,-0.188683,0.981559,-0.030663,0.0007559999999999,0.003304,-0.002021
1439,-0.188789,0.981546,-0.030445,-0.006325,0.006278,0.000599
1440,-0.188902,0.981526,-0.03038,-0.001634,0.006511,0.005584
1441,-0.189108,0.98148,-0.0305889999999999,0.005179,0.004986,0.005183
1442,-0.18936,0.981426,-0.030763,0.001433,-0.002208,-0.001097
1443,-0.189581,0.981389,-0.030585,-0.002176,-0.003117,0.003485
1444,-0.189816,0.981353,-0.0302759999999999,-0.002628,0.000673,0.005877
1445,-0.189967,0.981334,-0.0299399999999999,-0.003011,0.004552,0.0050219999999999
1446,-0.190072,0.98132,-0.029722,-0.0001899999999999,0.006595,0.0030039999999999
1447,-0.190168,0.981308,-0.029504,2.9e-05,0.004959,0.000436
1448,-0.190209,0.981305,-0.029344,-0.001518,0.005374,-0.000105
1449,-0.1902049999999999,0.981308,-0.0292589999999999,-0.001735,0.00621,-0.004906
1450,-0.190218,0.981308,-0.029173,0.001589,0.0046689999999999,-0.003313
1451,-0.190274,0.981297,-0.029181,0.004513,0.00494,-0.0004969999999999
1452,-0.190437,0.981265,-0.029174,0.003425,0.009564,-0.001893
1453,-0.190715,0.981211,-0.0291769999999999,0.0068769999999999,0.002172,0.006137
1454,-0.190956,0.981163,-0.029232,0.007225,0.001152,0.004711
1455,-0.191097,0.981138,-0.02914,0.00729,0.004091,0.004024
1456,-0.191298,0.981105,-0.028947,0.005065,0.004155,0.00499
1457,-0.191518,0.981065,-0.0288259999999999,0.008779,0.0055369999999999,0.003924
1458,-0.191668,0.981038,-0.028752,0.010256,0.006923,0.005803
1459,-0.191774,0.981017,-0.028769,0.009768,0.005464,-0.000101
1460,-0.191821,0.981009,-0.0287209999999999,0.008639,0.007455,0.000202
1461,-0.191831,0.981007,-0.028698,-0.001544,0.004344,-0.0037119999999999
1462,-0.1917309999999999,0.981023,-0.028834,0.002949,0.003154,-0.0033619999999999
1463,-0.191623,0.981043,-0.028862,0.001895,0.008001,-0.006859
1464,-0.191564,0.981053,-0.0289339999999999,0.003256,0.005413,-0.005414
1465,-0.191539,0.981055,-0.029012,0.00819,0.004876,-0.004374
1466,-0.19167,0.981028,-0.0290649999999999,0.005437,0.00234,-0.0002319999999999
1467,-0.192011,0.980964,-0.0289689999999999,0.002787,0.001778,-0.001015
1468,-0.192415,0.980889,-0.0288459999999999,0.004869,0.003364,0.003425
1469,-0.192726,0.980831,-0.02876,2.2e-05,0.002171,0.002972
1470,-0.192969,0.980786,-0.0286529999999999,0.0018989999999999,0.0026579999999999,0.0068629999999999
1471,-0.193167,0.980749,-0.028581,-0.00036,0.005991,0.006898
1472,-0.193275,0.98073,-0.028525,0.002677,0.008345,0.007819
1473,-0.193303,0.980724,-0.0285449999999999,0.00475,0.000889,0.003184
1474,-0.193316,0.980722,-0.028502,0.00725,0.0043549999999999,0.002242
1475,-0.193332,0.980719,-0.028498,0.0077849999999999,0.003717,0.000117
1476,-0.193418,0.980705,-0.0284069999999999,0.011182,0.003853,-5e-06
1477,-0.1935579999999999,0.980681,-0.028256,0.000503,0.005174,2.8000000000000003e-05
1478,-0.1937289999999999,0.980651,-0.028113,-0.008541,0.006775,0.003103
1479,-0.193857,0.980624,-0.028188,-0.008093,0.007718,0.0016989999999999
1480,-0.193948,0.980597,-0.0285139999999999,-0.010352,0.0036869999999999,0.005672
1481,-0.19394,0.980586,-0.028961,-0.011001,-0.000834,-0.000641
1482,-0.193919,0.980581,-0.0292459999999999,-0.0062,0.001734,0.002284
1483,-0.193972,0.98056,-0.029592,0.001619,0.0035399999999999,-0.003581
1484,-0.193964,0.980559,-0.029686,0.002696,0.009386,0.001945
1485,-0.193851,0.980581,-0.02968,-0.0047729999999999,-0.000708,0.0145889999999999
1486,-0.193648,0.980613,-0.0299639999999999,-0.005601,0.01629,-0.003987
1487,-0.193103,0.98072,-0.029962,0.000873,0.009087,0.0155729999999999
1488,-0.192339,0.980867,-0.030081,0.000261,-0.000368,0.021979
1489,-0.191459,0.981023,-0.03059,0.000206,0.005457,0.011105
1490,-0.190604,0.981174,-0.031116,0.008811,0.001889,0.01311
1491,-0.189842,0.981298,-0.031837,0.003654,0.005427,0.010414
1492,-0.189136,0.981407,-0.032675,-0.002454,0.005028,0.01261
1493,-0.188475,0.981515,-0.033236,-0.012559,0.002402,0.015581
1494,-0.187769,0.981629,-0.033877,-0.020361,0.0044859999999999,0.0166949999999999
1495,-0.187014,0.981744,-0.034699,-0.018934,0.004736,0.003037
1496,-0.186327,0.981855,-0.035262,-0.013655,0.00458,0.005416
1497,-0.1857869999999999,0.981928,-0.036071,-0.002582,0.004751,-0.003953
1498,-0.185369,0.981985,-0.036654,0.014821,-0.001928,-0.004651
1499,-0.185116,0.982021,-0.036965,0.014477,0.001362,-0.01197
1500,-0.185087,0.98202,-0.037133,0.018278,0.003346,-0.015602
1501,-0.185137,0.982013,-0.037072,0.015505,0.002469,-0.014625
1502,-0.185185,0.982013,-0.036846,0.014577,0.003766,-0.01241
1503,-0.185173,0.982019,-0.0367269999999999,0.011787,0.004202,-0.008317
1504,-0.18516,0.982017,-0.03686,0.008784,0.0075769999999999,-0.0065049999999999
1505,-0.185157,0.982005,-0.0371839999999999,0.000327,0.0121959999999999,0.001951
1506,-0.185086,0.981996,-0.037771,-0.0008269999999999,0.007887,0.002493
1507,-0.1849,0.982005,-0.0384339999999999,0.001551,0.005833,0.007291
1508,-0.184579,0.98204,-0.039101,0.003244,0.005006,0.0021899999999999
1509,-0.184014,0.98212,-0.039735,0.002008,0.002667,4.7e-05
1510,-0.18334,0.982239,-0.0399029999999999,-0.012598,0.000595,0.012025
1511,-0.1826819999999999,0.982341,-0.040414,-0.016888,0.003072,-0.000449
1512,-0.18213,0.982429,-0.0407579999999999,-0.0139449999999999,0.004326,0.001589
1513,-0.181753,0.982486,-0.04106,-0.0120489999999999,0.005108,0.004912
1514,-0.181418,0.982526,-0.0415899999999999,-0.002587,0.005893,0.006099
1515,-0.181239,0.982543,-0.041976,0.002574,0.006593,0.003081
1516,-0.181193,0.982542,-0.042199,0.0097,0.0013449999999999,0.007089
1517,-0.18116,0.982548,-0.0421949999999999,0.014565,-0.001911,0.004292
1518,-0.181078,0.982572,-0.04199,0.026125,0.004245,0.0009289999999999
1519,-0.1809079999999999,0.982615,-0.041706,0.035248,0.008123,0.004734
1520,-0.180706,0.982662,-0.041473,0.027386,0.019291,0.016998
1521,-0.180311,0.982721,-0.041809,0.0187349999999999,0.008506,0.013184
1522,-0.179575,0.982838,-0.042219,0.009745,0.004467,0.0043619999999999
1523,-0.17876,0.982971,-0.042566,0.007755,0.001785,0.000375
1524,-0.178089,0.983072,-0.043059,0.005405,0.001379,-0.006776
1525,-0.1775769999999999,0.983137,-0.043681,-0.003011,0.0042899999999999,-0.002904
1526,-0.177082,0.983196,-0.0443519999999999,-0.0111659999999999,0.003513,-0.000646
1527,-0.176451,0.983271,-0.045195,-0.00873,0.007421,-0.000566
1528,-0.1754099999999999,0.983413,-0.046159,-0.014424,0.010041,0.0136889999999999
1529,-0.174293,0.983559,-0.0472519999999999,-0.001152,0.016502,0.0091659999999999
1530,-0.173417,0.983666,-0.048253,0.006273,6.8e-05,0.0073739999999999
1531,-0.172766,0.983751,-0.048846,-0.005823,-0.01674,0.002596
1532,-0.172483,0.983811,-0.048621,-0.012927,-0.007142,0.004248
1533,-0.172519,0.983838,-0.047938,-0.019131,-0.011548,-5.1e-05
1534,-0.172835,0.983825,-0.047066,-0.0226759999999999,-0.002166,0.002617
1535,-0.173209,0.983801,-0.046194,-0.028451,0.007899,0.007941
1536,-0.173478,0.983773,-0.045767,-0.02394,0.009727,0.007986
1537,-0.173703,0.983731,-0.04581,-0.0195189999999999,0.01488,0.0057399999999999
1538,-0.173765,0.983687,-0.046533,-0.017199,0.029436,0.008661
1539,-0.173318,0.983685,-0.048187,0.0002529999999999,0.011065,-0.004639
1540,-0.172457,0.983745,-0.050016,0.0098599999999999,0.0003549999999999,-0.012896
1541,-0.171615,0.98382,-0.051403,0.06076,-0.010951,-0.029133
1542,-0.171185,0.983893,-0.051445,0.060849,0.014718,-0.004249
1543,-0.170893,0.983929,-0.0517309999999999,0.043909,-0.005124,-0.009914
1544,-0.171214,0.983877,-0.05167,0.027873,0.0080209999999999,0.003299
1545,-0.172116,0.98373,-0.051462,-0.033069,0.000889,0.004999
1546,-0.172996,0.983611,-0.050782,-0.0644,0.008775,0.010651
1547,-0.173264,0.983552,-0.051015,-0.0650179999999999,-0.0075689999999999,0.0080769999999999
1548,-0.173037,0.983595,-0.05094,-0.060239,0.004716,0.0302649999999999
1549,-0.1725269999999999,0.983685,-0.050939,-0.040852,-0.00636,0.0221
1550,-0.171893,0.983796,-0.050936,-0.01254,0.001509,0.018694
1551,-0.171317,0.983899,-0.050889,0.010551,0.002566,0.007737
1552,-0.170766,0.984003,-0.050726,0.029485,0.006186,-0.000299
1553,-0.17045,0.984055,-0.050782,0.033685,-0.001267,-0.0041189999999999
1554,-0.170353,0.984081,-0.050593,0.054691,0.008762,-0.015675
1555,-0.170355,0.984107,-0.0500959999999999,0.061682,0.015115,-0.018813
1556,-0.170466,0.984107,-0.049722,0.0667519999999999,0.015283,-0.031332
1557,-0.1706089999999999,0.984095,-0.049454,0.058533,0.022359,-0.0308839999999999
1558,-0.17062,0.984111,-0.049098,0.040768,0.017292,-0.016347
1559,-0.170189,0.984166,-0.049496,0.0436019999999999,0.000377,-0.020359
1560,-0.169593,0.984255,-0.049779,0.038993,0.004896,-0.015575
1561,-0.169062,0.984335,-0.050005,0.039576,0.009943,-0.004057
1562,-0.168957,0.984344,-0.05018,0.01495,0.0082709999999999,0.003015
1563,-0.169308,0.984277,-0.050303,0.003583,-0.000558,0.007532
1564,-0.170177,0.984138,-0.050101,-0.029698,-0.003715,0.0136479999999999
1565,-0.171094,0.984008,-0.049526,-0.053134,-0.007979,0.026562
1566,-0.1718599999999999,0.983905,-0.048913,-0.030319,0.001325,0.036233
1567,-0.17265,0.983778,-0.048685,-0.0134159999999999,0.006396,0.026132
1568,-0.173201,0.983691,-0.048481,-0.007127,0.0018739999999999,0.014302
1569,-0.173529,0.983654,-0.04805,-0.010401,0.007465,0.0112459999999999
1570,-0.173729,0.983629,-0.047839,-0.008705,0.016768,-0.002728
1571,-0.173781,0.983621,-0.047824,-0.001787,0.026496,-0.001645
1572,-0.173631,0.983629,-0.048195,-0.00273,0.007689,0.004799
1573,-0.173227,0.983664,-0.048921,0.008218,0.000573,-0.003325
1574,-0.173292,0.983634,-0.0493,-0.015352,-0.009192,0.000487
1575,-0.173682,0.98356,-0.049416,-0.016122,-0.00245,0.007851
1576,-0.174402,0.983435,-0.04937,-0.023825,-0.0158139999999999,0.005195
1577,-0.175208,0.98332,-0.048805,-0.015527,-0.01193,0.013038
1578,-0.175982,0.983219,-0.048041,-0.013822,0.003521,0.017462
1579,-0.176607,0.983129,-0.047595,-0.0139449999999999,0.0075629999999999,0.0140259999999999
1580,-0.177146,0.98305,-0.047222,-0.015207,-0.00252,0.011593
1581,-0.177483,0.982998,-0.047031,-0.024345,0.004566,0.0052369999999999
1582,-0.177454,0.983007,-0.0469529999999999,-0.026785,0.007075,0.004946
1583,-0.177064,0.983068,-0.047151,-0.020934,0.007396,0.005388
1584,-0.176464,0.983145,-0.04778,-0.016758,0.004678,-0.002421
1585,-0.175894,0.983215,-0.048451,0.004889,0.005982,-0.007442
1586,-0.175557,0.98325,-0.048949,0.010549,0.004695,-0.012803
1587,-0.17555,0.983238,-0.0492279999999999,0.024732,0.002526,-0.019009
1588,-0.175751,0.983204,-0.049187,0.034226,0.005428,-0.016701
1589,-0.176142,0.983136,-0.0491389999999999,0.0311839999999999,0.006488,-0.014933
1590,-0.176564,0.983065,-0.049047,0.018635,0.009016,0.004461
1591,-0.176941,0.982999,-0.049019,0.005646,0.0052369999999999,0.00576
1592,-0.177086,0.982968,-0.0491029999999999,0.0060659999999999,0.0154449999999999,0.01091
1593,-0.177091,0.982963,-0.0492,-0.001834,0.019235,0.023275
1594,-0.177022,0.982952,-0.049654,0.0154,0.010456,0.010454
1595,-0.177071,0.982919,-0.050143,0.006356,-0.010247,0.011019
1596,-0.17714,0.982909,-0.050099,-0.003982,-0.001814,0.014256
1597,-0.177126,0.982928,-0.049763,-0.010145,-0.007999,0.0060009999999999
1598,-0.177061,0.982968,-0.0492089999999999,-0.012606,-0.000592,0.011001
1599,-0.176927,0.983011,-0.048838,-0.015196,0.009909,0.013377
1600,-0.1767369999999999,0.983039,-0.0489519999999999,-0.003515,0.002587,0.000383
1601,-0.176519,0.983059,-0.049345,0.000783,0.00658,0.001906
1602,-0.176415,0.983065,-0.049594,-0.005317,0.002637,0.007739
1603,-0.176351,0.983068,-0.049761,-0.006266,-0.00318,0.009783
1604,-0.176201,0.983095,-0.049776,-0.0054859999999999,0.003111,0.0134139999999999
1605,-0.175949,0.983146,-0.04966,-0.010879,0.004724,0.01574
1606,-0.175705,0.98319,-0.049651,-0.010834,0.003703,0.020461
1607,-0.17547,0.983228,-0.0497279999999999,-0.01615,0.0037869999999999,0.023239
1608,-0.175201,0.983272,-0.0498129999999999,-0.018661,0.00266,0.020501
1609,-0.1749359999999999,0.983314,-0.0499019999999999,-0.023565,0.002739,0.0231539999999999
1610,-0.174729,0.983345,-0.05003,-0.020186,8e-06,0.020901
1611,-0.17453,0.98337,-0.050213,-0.018509,0.001905,0.01231
1612,-0.174298,0.983401,-0.050423,-0.0145449999999999,0.00401,0.010078
1613,-0.1741579999999999,0.983416,-0.050611,-0.0072239999999999,0.00073,0.005796
1614,-0.174028,0.983435,-0.050694,-0.006437,-0.001471,0.005971
1615,-0.173905,0.983452,-0.050791,-0.006195,-0.001259,0.0034729999999999
1616,-0.173827,0.983462,-0.050852,0.0007769999999999,0.004285,0.001795
1617,-0.173846,0.983456,-0.0509149999999999,0.000797,0.004292,0.0018579999999999
1618,-0.173878,0.983443,-0.051058,0.008213,0.0070209999999999,0.003481
1619,-0.173838,0.983439,-0.05127,0.001673,0.0058649999999999,0.005081
1620,-0.173768,0.983439,-0.051493,-0.0039049999999999,0.005513,0.004114
1621,-0.17357,0.983466,-0.05166,-0.006285,0.003213,0.004418
1622,-0.173266,0.983515,-0.051746,-0.010541,-0.000131,0.009174
1623,-0.172934,0.983565,-0.051891,-0.0122,0.003694,0.008601
1624,-0.172622,0.983605,-0.052174,-0.008317,0.0035009999999999,0.004445
1625,-0.172434,0.983624,-0.052443,-0.0036829999999999,0.002475,0.006117
1626,-0.172306,0.983635,-0.052649,0.002049,-0.0006799999999999,0.00202
1627,-0.172263,0.983639,-0.052724,0.012183,0.002018,0.000768
1628,-0.17225,0.983641,-0.052726,0.012215,0.004808,0.000892
1629,-0.1721589999999999,0.983657,-0.052732,0.011164,0.006868,0.004591
1630,-0.172003,0.983684,-0.052735,0.004843,0.004552,0.004868
1631,-0.171778,0.983721,-0.052774,0.000651,0.002439,0.004663
1632,-0.171498,0.983763,-0.052904,0.003987,0.005434,0.000841
1633,-0.17119,0.983805,-0.0531279999999999,0.002275,0.0080629999999999,0.003431
1634,-0.170926,0.983837,-0.053381,0.003018,0.006855,0.005407
1635,-0.170664,0.983862,-0.053744,0.001535,0.0053799999999999,0.00426
1636,-0.170435,0.983881,-0.054133,-0.002463,0.003317,0.0069069999999999
1637,-0.170226,0.983904,-0.054372,-0.00644,0.002577,0.011236
1638,-0.170023,0.983928,-0.0545659999999999,-0.0099239999999999,0.002217,0.012818
1639,-0.169754,0.983958,-0.054857,-0.008484,-0.002146,0.008287
1640,-0.169457,0.983998,-0.055045,-0.009879,0.001597,0.0095129999999999
1641,-0.169173,0.984042,-0.055142,-0.008409,0.005429,0.007397
1642,-0.168959,0.984071,-0.055281,-0.002764,-0.000551,0.00656
1643,-0.16882,0.984092,-0.055347,0.000607,0.004312,0.005695
1644,-0.168766,0.984098,-0.055393,0.003925,0.003481,0.003498
1645,-0.168727,0.984104,-0.055408,0.004863,0.006481,0.004367
1646,-0.168743,0.984099,-0.055459,0.005596,0.000948,0.00927
1647,-0.168659,0.984111,-0.055483,0.0036509999999999,0.006443,0.0044729999999999
1648,-0.168528,0.98413,-0.055553,-0.002768,0.003693,0.002696
1649,-0.168374,0.984151,-0.055639,0.001321,0.002314,0.006063
1650,-0.168139,0.984184,-0.055771,-0.00128,0.004021,0.0053869999999999
1651,-0.167847,0.984226,-0.0559049999999999,-0.007614,0.003338,0.00929
1652,-0.167574,0.984268,-0.05599,-0.009809,0.002182,0.008108
1653,-0.167375,0.984297,-0.0560769999999999,-0.010832,0.002825,0.0058909999999999
1654,-0.167203,0.984322,-0.056164,-0.010379,0.0019149999999999,0.008633
1655,-0.167053,0.984343,-0.056236,-0.006454,0.004366,0.008537
1656,-0.166953,0.984356,-0.0563049999999999,-0.002175,0.00214,0.010498
1657,-0.166848,0.984369,-0.056392,-0.003852,0.002219,0.01092
1658,-0.166762,0.984382,-0.056419,-0.0041979999999999,0.0033049999999999,0.008522
1659,-0.166628,0.984404,-0.05642,-0.0055369999999999,0.002519,0.008111
1660,-0.166471,0.984434,-0.05636,-0.006014,0.001558,0.0077909999999999
1661,-0.1663079999999999,0.984467,-0.056275,-0.004255,0.004196,0.010453
1662,-0.16616,0.984496,-0.056204,-0.003518,0.004182,0.009314
1663,-0.1660029999999999,0.984522,-0.0562019999999999,-0.004331,0.0050409999999999,0.010975
1664,-0.165804,0.98455,-0.056302,-0.002866,0.005364,0.0076269999999999
1665,-0.165592,0.984579,-0.056432,-0.002423,0.004298,0.0065959999999999
1666,-0.165405,0.984599,-0.0566179999999999,-0.001221,0.004552,0.007714
1667,-0.165265,0.984611,-0.056821,0.00105,0.003136,0.0066799999999999
1668,-0.1651109999999999,0.984627,-0.0569929999999999,0.001338,0.001655,0.008012
1669,-0.164985,0.984641,-0.057114,0.002082,0.002069,0.007111
1670,-0.164851,0.984661,-0.0571529999999999,-0.001698,0.004124,0.009789
1671,-0.164635,0.984695,-0.057187,-0.000374,0.001145,0.00845
1672,-0.164391,0.984731,-0.057266,0.001411,0.001627,0.00859
1673,-0.164164,0.984765,-0.0573269999999999,-0.005162,0.004202,0.014038
1674,-0.163895,0.984804,-0.057428,-0.005707,0.003614,0.0147949999999999
1675,-0.163606,0.984844,-0.0575669999999999,-0.00621,0.004108,0.016765
1676,-0.163394,0.984863,-0.057842,-0.006787,0.005524,0.013881
1677,-0.1633599999999999,0.984856,-0.0580559999999999,-0.003281,0.0021579999999999,0.004742
1678,-0.163564,0.98482,-0.058102,0.0060479999999999,0.001035,0.002606
1679,-0.163942,0.984762,-0.0580179999999999,0.007509,0.0023899999999999,-0.000347
1680,-0.164359,0.984701,-0.0578809999999999,0.003257,0.004817,-0.001094
1681,-0.164724,0.984651,-0.057689,0.004217,-0.0007639999999999,0.000621
1682,-0.164966,0.984624,-0.057459,0.004169,0.00497,4e-05
1683,-0.165038,0.984622,-0.057286,0.003554,0.006605,-0.000499
1684,-0.164998,0.984632,-0.057219,0.005589,0.009692,0.003051
1685,-0.164743,0.984665,-0.057386,0.0031829999999999,0.008331,0.0065739999999999
1686,-0.1643119999999999,0.984718,-0.057707,0.001989,0.006966,0.00543
1687,-0.163952,0.984761,-0.058,-0.002095,0.000865,0.00403
1688,-0.163605,0.98481,-0.058145,-0.005157,-0.0004509999999999,0.0067379999999999
1689,-0.163324,0.984853,-0.058214,-0.010855,-0.006169,0.008776
1690,-0.162989,0.984904,-0.058284,-0.013677,-0.003169,0.023158
1691,-0.16266,0.984958,-0.058287,-0.021055,-0.003757,0.032423
1692,-0.162477,0.984996,-0.058175,-0.022673,0.003194,0.03051
1693,-0.162414,0.985007,-0.058164,-0.017151,0.005792,0.02107
1694,-0.162645,0.984968,-0.0581789999999999,-0.007048,0.00548,0.014097
1695,-0.163164,0.98488,-0.0582059999999999,-0.001616,0.002318,0.009576
1696,-0.163816,0.984772,-0.058207,-0.000354,-0.002167,0.0035189999999999
1697,-0.164511,0.984665,-0.0580559999999999,-0.000956,-0.001801,-0.0024289999999999
1698,-0.165184,0.984573,-0.057701,0.003044,0.0058439999999999,-0.000344
1699,-0.165663,0.984517,-0.057287,0.0032329999999999,0.0059,-0.0015199999999999
1700,-0.165882,0.984495,-0.057026,0.001285,0.010073,0.003087
1701,-0.16584,0.984499,-0.057087,0.0032119999999999,0.008391,0.00098
1702,-0.165548,0.984536,-0.057297,-0.000437,0.005027,0.005386
1703,-0.1650059999999999,0.984611,-0.0575769999999999,-0.001925,0.003839,0.011023
1704,-0.164428,0.98469,-0.0578789999999999,-0.005418,0.001837,0.012347
1705,-0.163921,0.984758,-0.0581559999999999,-0.004109,0.001937,0.012762
1706,-0.163539,0.984812,-0.058307,-0.000661,0.0012259999999999,0.012821
1707,-0.163411,0.984827,-0.05842,5e-06,0.00263,0.013361
1708,-0.163591,0.984794,-0.0584679999999999,-0.003081,0.0035479999999999,0.01411
1709,-0.163919,0.984743,-0.058414,-0.003714,0.0022719999999999,0.0129889999999999
1710,-0.164328,0.984683,-0.058275,-0.004846,0.003827,0.011705
1711,-0.164748,0.984622,-0.058115,-0.000993,0.004941,0.008601
1712,-0.165123,0.984567,-0.057988,-0.0005269999999999,0.00373,0.008656
1713,-0.165347,0.984533,-0.057919,0.000736,0.005106,0.010067
1714,-0.165388,0.984528,-0.057892,-0.000598,0.00447,0.009476
1715,-0.165327,0.984537,-0.0579149999999999,-0.001161,0.001761,0.008019
1716,-0.165194,0.984559,-0.057921,-0.0025,0.00241,0.007598
1717,-0.165082,0.984581,-0.057871,-0.002368,0.002297,0.007532
1718,-0.165092,0.984587,-0.057735,0.0015019999999999,0.00107,0.01115
1719,-0.165267,0.984573,-0.0574659999999999,0.00389,0.00531,0.007982
1720,-0.165579,0.984535,-0.0572159999999999,0.006307,0.007195,0.00703
1721,-0.165933,0.984491,-0.056944,-0.001883,0.0071769999999999,0.0086349999999999
1722,-0.1662269999999999,0.984466,-0.056527,-0.017703,0.004471,0.02044
1723,-0.166076,0.984508,-0.056237,-0.022782,0.019337,0.044304
1724,-0.16512,0.984636,-0.056807,-0.031199,0.009398,0.069868
1725,-0.163638,0.984801,-0.058219,-0.041059,-0.018935,0.044242
1726,-0.162292,0.984936,-0.059686,-0.029817,-0.01115,0.025583
1727,-0.161682,0.98501,-0.060111,-0.013321,-0.00329,0.017478
1728,-0.162365,0.984927,-0.0596309999999999,-0.0123629999999999,-0.011615,0.01358
1729,-0.164157,0.984679,-0.0588039999999999,0.008197,0.007554,-0.007541
1730,-0.166659,0.984294,-0.058224,0.011995,0.017782,-0.022358
1731,-0.16921,0.983872,-0.05799,0.023504,-0.002518,-0.031229
1732,-0.171876,0.98343,-0.057634,0.030092,-0.004121,-0.043868
1733,-0.174454,0.983033,-0.0566559999999999,0.024033,0.007049,-0.040207
1734,-0.176572,0.98274,-0.05516,0.007475,0.022815,-0.0259709999999999
1735,-0.177668,0.982596,-0.054195,0.004649,0.030725,-0.020787
1736,-0.177191,0.982681,-0.054213,0.000632,0.004868,-0.01877
1737,-0.175296,0.98302,-0.054233,-0.0044979999999999,0.022275,0.026599
1738,-0.1721339999999999,0.983538,-0.054958,-0.027467,0.021268,0.05775
1739,-0.168549,0.984046,-0.05694,-0.037811,-0.0138919999999999,0.037454
1740,-0.165884,0.984358,-0.059322,-0.021601,-0.013304,0.006038
1741,-0.164735,0.984469,-0.060673,-0.0016309999999999,0.003461,0.008289
1742,-0.164855,0.984421,-0.061123,0.009826,-0.000824,0.0115319999999999
1743,-0.16583,0.984234,-0.061497,0.021849,-0.014233,0.001316
1744,-0.167593,0.983944,-0.0613509999999999,0.021963,-0.019436,-0.005864
1745,-0.170035,0.983624,-0.0597549999999999,0.0074069999999999,-0.002148,0.00908
1746,-0.172778,0.983269,-0.05769,0.009418,-0.005272,0.002774
1747,-0.175272,0.982932,-0.055869,-0.021124,0.025216,0.012397
1748,-0.176565,0.982779,-0.054475,-0.034754,0.013696,0.024019
1749,-0.176209,0.982898,-0.0534669999999999,-0.054992,0.020825,0.055679
1750,-0.174323,0.983227,-0.05361,-0.044641,0.012165,0.060262
1751,-0.171614,0.983609,-0.055321,-0.019593,-0.017559,0.0145189999999999
1752,-0.169346,0.983914,-0.0568549999999999,0.001835,0.012683,0.000336
1753,-0.168293,0.984017,-0.058187,0.0067329999999999,0.00843,-0.0199069999999999
1754,-0.168438,0.983941,-0.059042,0.0193139999999999,0.003089,-0.011713
1755,-0.1694099999999999,0.983736,-0.059674,0.032431,-0.0160389999999999,-0.015521
1756,-0.170758,0.983511,-0.0595309999999999,0.03378,-0.015707,-0.012124
1757,-0.172365,0.983307,-0.058251,0.014971,0.007232,0.0090569999999999
1758,-0.173793,0.983135,-0.056889,0.0004219999999999,0.0001409999999999,0.008626
1759,-0.174513,0.983095,-0.055352,-0.018098,0.004728,0.0339589999999999
1760,-0.1744619999999999,0.983172,-0.054129,-0.0469889999999999,0.032804,0.0627809999999999
1761,-0.173624,0.983302,-0.054473,-0.051519,0.000249,0.037185
1762,-0.172699,0.983419,-0.055294,-0.025406,-0.008458,0.019252
1763,-0.1721,0.983502,-0.055683,-0.013737,-0.0018579999999999,0.017292
1764,-0.171731,0.983552,-0.055945,-0.005942,-0.000504,0.0109319999999999
1765,-0.171767,0.983529,-0.056226,0.020781,0.00318,-0.010638
1766,-0.171866,0.983498,-0.056461,0.017141,-0.004143,3.4e-05
1767,-0.171965,0.983483,-0.056433,0.014555,0.004493,-0.005854
1768,-0.172245,0.983455,-0.0560559999999999,-0.0005,0.006962,-0.000509
1769,-0.172335,0.98348,-0.0553409999999999,-0.018553,0.030848,0.034559
1770,-0.17171,0.983596,-0.0552289999999999,-0.037015,0.014177,0.0520399999999999
1771,-0.170381,0.983768,-0.056261,-0.042311,-0.011814,0.041308
1772,-0.1687789999999999,0.983953,-0.0578299999999999,-0.036406,-0.0128379999999999,0.0197129999999999
1773,-0.167517,0.9841,-0.058985,-0.0147789999999999,-0.0025629999999999,0.01295
1774,-0.167044,0.984163,-0.0592629999999999,-0.005869,-0.004366,0.002241
1775,-0.167446,0.984111,-0.059008,0.0071819999999999,0.000478,-0.002454
1776,-0.168492,0.983956,-0.0586029999999999,0.015508,0.0074379999999999,-0.003912
1777,-0.169717,0.983773,-0.058157,0.016564,0.003364,-0.009668
1778,-0.170947,0.983594,-0.057569,0.019808,-0.001401,-0.006625
1779,-0.172074,0.983438,-0.056879,0.013062,0.00672,-0.008124
1780,-0.1729119999999999,0.983341,-0.056014,-0.00525,0.011608,-0.006807
1781,-0.17342,0.983305,-0.0550649999999999,-0.019329,0.010347,-0.002613
1782,-0.173492,0.983321,-0.054548,-0.017655,0.012162,0.004072
1783,-0.172798,0.983428,-0.0548289999999999,-0.0072099999999999,0.007951,0.005009
1784,-0.171431,0.983617,-0.055728,0.001814,0.001643,0.005511
1785,-0.169941,0.983827,-0.056573,0.004139,0.010603,0.011316
1786,-0.1687779999999999,0.983979,-0.057409,0.0092769999999999,-0.005571,0.002386
