,gravity.x,gravity.y,gravity.z,userAcceleration.x,userAcceleration.y,userAcceleration.z
0,-0.0540169999999999,0.98572,-0.159494,-0.003066,0.008421,0.003244
1,-0.054314,0.985768,-0.159094,-0.005149,0.0045579999999999,0.000387
2,-0.054719,0.985768,-0.158956,-0.002746,0.010692,-0.00265
3,-0.054814,0.985797,-0.158745,0.005085,0.010068,0.002144
4,-0.05474,0.98587,-0.158317,0.008597,0.005311,0.00341
5,-0.0546769999999999,0.985946,-0.157865,0.00971,0.004273,0.006742
6,-0.054536,0.986018,-0.15746,0.010942,0.007375,0.00449
7,-0.0540289999999999,0.986083,-0.1572319999999999,0.006696,0.005327,0.000249
8,-0.053875,0.986105,-0.157147,-0.002003,0.003764,0.0033539999999999
9,-0.053695,0.986123,-0.157095,-0.001481,0.00782,0.001349
10,-0.0534929999999999,0.986124,-0.157158,-0.001179,0.008887,-0.001671
11,-0.0533,0.986113,-0.157291,-0.0016469999999999,0.008669,-0.003445
12,-0.053173,0.986111,-0.157346,-0.001179,0.009662,-0.0006129999999999
13,-0.053045,0.986225,-0.156675,-0.001414,0.011288,0.010038
14,-0.053006,0.986303,-0.156193,-0.0034969999999999,0.0101409999999999,0.009998
15,-0.0531549999999999,0.986375,-0.155685,-0.008307,0.010374,0.0007019999999999
16,-0.054014,0.986352,-0.155541,-0.015948,0.00402,-0.005271
17,-0.054484,0.986359,-0.155332,-0.015172,0.005615,-0.005755
18,-0.0553419999999999,0.986328,-0.155221,-0.011903,0.0095819999999999,-0.003379
19,-0.0562029999999999,0.986341,-0.154829,-0.005229,0.00725,0.002653
20,-0.05674,0.986374,-0.154422,-0.0058969999999999,0.008605,0.004107
21,-0.057333,0.986462,-0.153639,-0.00474,0.012348,0.006117
22,-0.057654,0.986548,-0.152966,-0.00506,0.013635,0.005719
23,-0.058321,0.986659,-0.151996,-0.008787,0.007558,0.000598
24,-0.0591659999999999,0.986734,-0.151178,-0.016472,0.004385,0.000147
25,-0.0601299999999999,0.986788,-0.150448,-0.015813,0.003172,-0.002078
26,-0.061301,0.98684,-0.1496289999999999,-0.010064,0.005363,1.7e-05
27,-0.062227,0.986904,-0.148824,-0.006484,0.014057,-0.000682
28,-0.062833,0.986975,-0.148096,-0.003177,0.010797,-0.0036229999999999
29,-0.063604,0.987086,-0.147022,-0.006343,0.008107,0.0020329999999999
30,-0.064454,0.987171,-0.14608,-0.006134,0.007397,-0.001991
31,-0.065382,0.987264,-0.145032,-0.009584,0.009318,-0.001422
32,-0.066549,0.98734,-0.14398,-0.009455,0.006068,-0.00104
33,-0.068357,0.987444,-0.142413,-0.014025,0.009641,0.007723
34,-0.069849,0.987545,-0.140983,-0.010779,0.014454,0.009926
35,-0.071437,0.987699,-0.139097,-0.003484,0.014559,0.012083
36,-0.0728429999999999,0.987832,-0.137413,0.00308,0.014121,0.001411
37,-0.073998,0.987958,-0.135882,0.0074239999999999,0.013217,-0.000684
38,-0.075278,0.988133,-0.133889,0.00817,0.014629,0.003075
39,-0.076699,0.988364,-0.131356,0.001702,0.008676,0.007271
40,-0.078261,0.98852,-0.129241,0.003203,0.006094,-0.001832
41,-0.079676,0.98867,-0.127213,0.008722,0.005196,-0.002273
42,-0.080627,0.988817,-0.125462,0.013122,0.004149,-0.003276
43,-0.081108,0.98894,-0.12417,0.014808,0.000775,-0.00881
44,-0.08182,0.989054,-0.122791,0.019915,0.002294,-0.012051
45,-0.081838,0.989192,-0.121666,0.020086,0.0038659999999999,-0.011817
46,-0.081648,0.989331,-0.1206589999999999,0.009611,0.005649,-0.009956
47,-0.082197,0.989443,-0.1193559999999999,0.0075049999999999,0.002012,-0.012938
48,-0.082717,0.98951,-0.1184359999999999,0.005111,0.002845,-0.010104
49,-0.083506,0.9896,-0.117122,0.002909,0.009331,-0.003361
50,-0.0844559999999999,0.989711,-0.115496,0.004667,0.006856,-1.3e-05
51,-0.085451,0.98983,-0.1137339999999999,0.009294,0.006997,0.0036729999999999
52,-0.086176,0.989968,-0.111965,0.008189,0.007605,0.001934
53,-0.086791,0.990052,-0.110746,0.01036,0.005264,-0.0070819999999999
54,-0.086747,0.990182,-0.109613,0.018571,0.003577,-0.003668
55,-0.086164,0.990366,-0.108401,0.0148449999999999,0.0050869999999999,-0.004957
56,-0.086353,0.990474,-0.1072549999999999,0.011295,0.004917,-0.00801
57,-0.086003,0.990583,-0.106528,0.015111,0.004168,-0.009775
58,-0.0854029999999999,0.990635,-0.1065349999999999,0.01007,-0.00037,-0.014971
59,-0.085113,0.990668,-0.106456,0.00946,0.002023,-0.015676
60,-0.084145,0.990664,-0.107259,0.016197,0.004102,-0.019435
61,-0.082004,0.990736,-0.108248,0.026996,0.0098129999999999,-0.010603
62,-0.080702,0.990818,-0.108475,0.024367,0.008373,-0.010437
63,-0.078998,0.990941,-0.1086109999999999,0.017703,0.0056409999999999,-0.005754
64,-0.076898,0.99104,-0.109205,0.016763,-0.000669,-0.0146039999999999
65,-0.075185,0.991108,-0.109785,0.018285,-0.000385,-0.016924
66,-0.072285,0.991114,-0.111663,0.01743,-0.008295,-0.024079
67,-0.069934,0.991089,-0.113371,0.011706,-0.008987,-0.024752
68,-0.067218,0.991019,-0.115595,0.006228,-0.011375,-0.0268
69,-0.064152,0.990897,-0.118352,0.004399,-0.008353,-0.028072
70,-0.060723,0.990723,-0.1215789999999999,0.004235,-0.01001,-0.0265839999999999
71,-0.056427,0.990405,-0.126152,0.016755,-0.0181449999999999,-0.02961
72,-0.051648,0.989998,-0.1312839999999999,0.016309,-0.022225,-0.03084
73,-0.046616,0.989597,-0.136106,0.021683,-0.017566,-0.031237
74,-0.040862,0.989057,-0.141761,0.016707,-0.0150889999999999,-0.026116
75,-0.0355689999999999,0.988539,-0.146717,0.0031899999999999,0.000582,-0.015575
76,-0.031316,0.988074,-0.150763,-0.025782,0.018686,-0.02044
77,-0.0281259999999999,0.987673,-0.153981,-0.071346,0.030073,-0.017345
78,-0.025467,0.987475,-0.155709,-0.103973,0.057844,-0.002647
79,-0.027419,0.987613,-0.154493,-0.108903,0.092144,0.0389529999999999
80,-0.02951,0.987912,-0.1521829999999999,-0.099427,0.099018,0.059394
81,-0.033073,0.988457,-0.147847,-0.004525,0.0646279999999999,0.070241
82,-0.036459,0.98911,-0.142592,0.048208,0.026851,0.04228
83,-0.038702,0.989742,-0.137522,0.077917,-0.00053,0.017558
84,-0.039914,0.990353,-0.132696,0.069547,-0.006176,0.006765
85,-0.0405089999999999,0.990972,-0.127803,0.070142,-0.006795,0.001872
86,-0.040566,0.991563,-0.123116,0.014397,-0.0121319999999999,-0.0088569999999999
87,-0.040343,0.992073,-0.1190099999999999,-0.03383,-0.012062,0.010337
88,-0.040091,0.992426,-0.116116,-0.065882,-0.010355,0.0246699999999999
89,-0.040099,0.992619,-0.1144559999999999,-0.076707,-0.003147,0.038254
90,-0.040557,0.992756,-0.113092,-0.079026,0.013133,0.048562
91,-0.04137,0.99293,-0.111259,-0.0845,0.045141,0.0638649999999999
92,-0.0424649999999999,0.993171,-0.10867,-0.088029,0.044549,0.063748
93,-0.043887,0.993481,-0.1052099999999999,-0.087263,0.041156,0.070755
94,-0.045484,0.993844,-0.101025,-0.086383,0.017158,0.061963
95,-0.047155,0.99423,-0.096345,-0.079463,0.008104,0.0516519999999999
96,-0.048954,0.99459,-0.091619,-0.058819,-0.008628,0.022923
97,-0.0508329999999999,0.994889,-0.087251,-0.0461209999999999,-0.008133,-0.011169
98,-0.052907,0.995126,-0.083216,-0.04362,-0.004617,-0.019399
99,-0.0566259999999999,0.995137,-0.080591,-0.035843,-0.0147139999999999,-0.026922
100,-0.058524,0.995267,-0.077584,-0.045404,0.002719,-0.008171
101,-0.061387,0.995315,-0.074695,-0.04251,0.002091,0.004611
102,-0.061995,0.995462,-0.072194,-0.033967,-0.004053,0.0139969999999999
103,-0.062824,0.995636,-0.069012,-0.005917,-0.001343,0.008495
104,-0.06317,0.995829,-0.065842,-0.001985,-0.001703,0.008286
105,-0.063318,0.996057,-0.062146,0.005746,-0.005273,0.00546
106,-0.063737,0.99623,-0.058845,0.013429,-0.011703,-0.000786
107,-0.064234,0.996382,-0.0556539999999999,0.003901,0.006289,-0.013606
108,-0.064422,0.99653,-0.052702,-0.00763,0.027716,-0.017794
109,-0.065052,0.996611,-0.050354,-0.014477,-0.007353,-0.015
110,-0.065123,0.996749,-0.047443,-0.016679,-0.009795,-0.0131639999999999
111,-0.066351,0.996781,-0.045007,-0.025705,-0.004685,-0.012244
112,-0.0695669999999999,0.99671,-0.041589,-0.037672,0.002588,-6e-06
113,-0.071333,0.996753,-0.037363,-0.039323,0.009458,0.004434
114,-0.072447,0.996829,-0.032914,-0.040666,0.016904,0.012742
115,-0.0751899999999999,0.996791,-0.027478,-0.035574,0.018606,0.02345
116,-0.077008,0.996772,-0.022699,-0.035251,0.016122,0.022226
117,-0.080024,0.996646,-0.017136,-0.031518,0.006879,0.0209199999999999
118,-0.082086,0.996549,-0.012313,-0.020026,0.001315,0.022536
119,-0.0848059999999999,0.996376,-0.006517,-0.010501,-0.004799,0.018632
120,-0.087031,0.996205,-0.00124,-0.004292,0.003963,0.01363
121,-0.089269,0.995997,0.004557,0.001592,0.00852,0.008764
122,-0.091099,0.995787,0.010415,0.009816,0.007615,0.001014
123,-0.09325,0.995512,0.016132,0.002949,0.0046409999999999,0.007397
124,-0.095385,0.995197,0.0220129999999999,0.002535,0.005352,0.007086
125,-0.097617,0.994828,0.028091,-0.00245,0.014374,0.014938
126,-0.100546,0.994287,0.035836,-0.014521,0.026862,0.039085
127,-0.1038369999999999,0.993677,0.042699,-0.016326,0.037481,0.052622
128,-0.1081039999999999,0.992859,0.05044,-0.014516,0.044647,0.05367
129,-0.113519,0.991705,0.060279,-0.03385,0.0541009999999999,0.0609059999999999
130,-0.119112,0.99042,0.069866,-0.0339029999999999,0.036573,0.053364
131,-0.124787,0.988954,0.079989,-0.024123,0.021315,0.047422
132,-0.130468,0.987317,0.090465,-0.02653,-0.031964,0.047825
133,-0.136016,0.985531,0.101134,-0.020814,-0.050442,0.0361029999999999
134,-0.141729,0.983542,0.1120599999999999,-0.011134,-0.06092,0.022888
135,-0.146722,0.981586,0.122318,-0.005545,-0.034763,-0.001408
136,-0.1512119999999999,0.979673,0.131817,-0.00275,-0.014265,-0.0133169999999999
137,-0.15489,0.977825,0.140955,0.002699,-0.014522,-0.0144289999999999
138,-0.158355,0.976092,0.148888,-0.00615,-0.021289,0.002357
139,-0.162096,0.974449,0.155479,-0.004438,0.002129,0.004647
140,-0.1657829999999999,0.972998,0.160596,-0.00037,0.009683,0.001056
141,-0.169238,0.971507,0.165932,0.007342,0.02744,0.0247259999999999
142,-0.172942,0.97006,0.17051,0.003875,0.050249,0.036139
143,-0.175416,0.968408,0.177244,0.011094,0.07424,0.055087
144,-0.177924,0.966805,0.183388,0.022697,0.071861,0.0813059999999999
145,-0.180421,0.964651,0.1920849999999999,-0.023787,0.057886,0.113045
146,-0.182844,0.96349,0.1955869999999999,-0.0536059999999999,0.05897,0.126602
147,-0.1860089999999999,0.962572,0.197116,-0.107555,0.0771309999999999,0.166089
148,-0.189909,0.96154,0.198434,-0.100466,0.0292899999999999,0.175101
149,-0.197852,0.959425,0.200895,0.013572,-0.012327,0.018557
150,-0.208283,0.956135,0.205972,0.129456,-0.050144,-0.136575
151,-0.21284,0.952376,0.218357,0.071483,-0.0567909999999999,-0.0969889999999999
152,-0.211111,0.948601,0.2357719999999999,0.049566,-0.144035,-0.1122069999999999
153,-0.206184,0.945992,0.250176,-0.006966,-0.245857,-0.171944
154,-0.200239,0.945846,0.255499,-0.02289,-0.134719,-0.0936039999999999
155,-0.196413,0.94756,0.252096,0.0274519999999999,-0.117222,-0.101339
156,-0.1929809999999999,0.95086,0.2421219999999999,0.132831,-0.0487149999999999,-0.125255
157,-0.186991,0.955265,0.2291369999999999,0.1237279999999999,-0.013462,-0.068966
158,-0.178006,0.960188,0.215297,0.096402,-0.026304,-0.016826
159,-0.166911,0.965259,0.201034,0.07365,-0.014591,0.0168
160,-0.154466,0.969827,0.188615,0.03621,0.038428,0.115829
161,-0.143251,0.973295,0.179377,0.031434,0.042666,0.130895
162,-0.136439,0.975515,0.172496,0.0162,0.035242,0.1440779999999999
163,-0.134933,0.976753,0.166576,-0.04683,0.109002,0.13448
164,-0.136909,0.977467,0.160668,-0.072991,0.129024,0.120154
165,-0.139396,0.97763,0.157503,-0.202324,0.031784,0.131575
166,-0.142043,0.977077,0.158568,-0.216828,-0.036831,0.151811
167,-0.14773,0.975516,0.162926,-0.212302,-0.06539,0.204734
168,-0.157604,0.973447,0.166016,-0.061069,0.1080349999999999,0.059448
169,-0.169906,0.972067,0.161919,0.145171,0.143595,-0.041572
170,-0.180723,0.971624,0.152597,0.203718,0.092859,-0.017068
171,-0.185033,0.971891,0.145571,0.195485,-0.0235569999999999,0.113477
172,-0.182359,0.972415,0.145443,0.1321119999999999,-0.040347,0.183705
173,-0.176689,0.973168,0.147397,0.096733,-0.0538559999999999,0.145465
174,-0.169299,0.975073,0.143422,-0.001279,-0.101386,-0.0810289999999999
175,-0.162094,0.977165,0.137381,-0.105392,-0.09301,-0.1599799999999999
176,-0.157437,0.979064,0.129025,-0.137836,-0.055251,-0.168103
177,-0.153894,0.981128,0.117063,-0.093115,0.095776,-0.141538
178,-0.150497,0.983052,0.104689,-0.059662,0.12292,-0.049772
179,-0.147868,0.984561,0.093675,-0.056829,0.103879,-0.000291
180,-0.147813,0.985593,0.082205,0.030808,0.018664,0.052881
181,-0.150482,0.986219,0.0687509999999999,0.128113,-0.009184,0.046254
182,-0.152795,0.986698,0.055498,0.171044,-0.012882,0.053236
183,-0.151191,0.98746,0.0454279999999999,0.2087159999999999,0.032041,0.100187
184,-0.145702,0.988547,0.039324,0.091152,0.044183,0.121016
185,-0.138624,0.989725,0.035029,-0.022067,0.0152639999999999,0.071325
186,-0.132036,0.990766,0.030818,-0.095076,-0.019147,-0.023585
187,-0.127252,0.99153,0.025992,-0.132025,-0.053694,-0.101325
188,-0.1244849999999999,0.99204,0.019,-0.148296,-0.057668,-0.129474
189,-0.1236589999999999,0.992283,0.009047,-0.143812,-0.031193,-0.107664
190,-0.124219,0.992254,-0.001373,-0.110767,-0.024053,-0.064163
191,-0.125204,0.992077,-0.010387,-0.049677,-0.017193,-0.037724
192,-0.125765,0.991883,-0.018721,0.023897,0.029158,0.007063
193,-0.12561,0.991711,-0.027036,0.058792,0.035282,0.0614139999999999
194,-0.125383,0.991494,-0.034923,0.036302,0.021934,0.084591
195,-0.124966,0.991306,-0.041188,0.026913,0.003949,0.062566
196,-0.124053,0.991198,-0.0462259999999999,0.02928,-0.012469,0.038047
197,-0.1223359999999999,0.991137,-0.051786,0.020163,-0.010973,-0.039294
198,-0.12022,0.991067,-0.0577279999999999,-0.00977,-0.01095,-0.061184
199,-0.118557,0.990924,-0.063351,-0.060734,-0.008823,-0.025379
200,-0.117673,0.990719,-0.068031,-0.068408,0.019763,0.009468
201,-0.117354,0.990416,-0.072827,-0.02379,0.026872,0.008771
202,-0.117491,0.989955,-0.0786429999999999,-0.000521,0.0144389999999999,0.018356
203,-0.117972,0.989388,-0.084819,-0.013055,0.00402,0.027354
204,-0.118765,0.98884,-0.089942,-0.0307399999999999,0.008352,0.0366579999999999
205,-0.1198119999999999,0.988324,-0.0941299999999999,0.0028539999999999,0.0291779999999999,0.009322
206,-0.120993,0.987779,-0.098247,0.024405,0.030989,0.019405
207,-0.12079,0.987642,-0.099868,0.01729,0.040511,0.034133
208,-0.12189,0.987095,-0.10386,-0.040982,-0.018711,0.037485
209,-0.127275,0.986192,-0.105952,-0.050047,-0.02559,0.023891
210,-0.129069,0.985585,-0.1093789999999999,-0.015798,-0.005116,-0.008144
211,-0.130917,0.984943,-0.1129049999999999,-0.000401,0.002346,-0.005076
212,-0.132535,0.984406,-0.115671,0.003293,0.006149,0.021859
213,-0.134404,0.983751,-0.119032,-0.023967,0.018171,0.0292029999999999
214,-0.136489,0.983034,-0.1225329999999999,-0.0296939999999999,0.010237,0.009038
215,-0.140592,0.982,-0.126135,-0.016528,-0.004446,-0.000666
216,-0.14251,0.981302,-0.129373,0.010841,-0.018762,-0.000342
217,-0.143196,0.980702,-0.133107,0.013359,-0.017415,0.000768
218,-0.144469,0.979966,-0.137094,0.016005,-0.009462,0.004434
219,-0.145842,0.979079,-0.141894,0.0152419999999999,0.00734,-0.060972
220,-0.146997,0.977782,-0.149446,0.0047079999999999,0.005235,-0.039748
221,-0.149079,0.976824,-0.153594,0.004258,-0.000993,0.0282279999999999
222,-0.151436,0.975889,-0.157185,0.021126,-0.003325,0.024037
223,-0.152638,0.975287,-0.159741,0.015553,0.008463,0.016217
224,-0.154813,0.974421,-0.1629,-0.025744,0.035192,0.0118079999999999
225,-0.158444,0.973317,-0.165982,-0.0162539999999999,-0.043248,-0.010104
226,-0.160745,0.972398,-0.169127,-0.0130229999999999,-0.035371,-0.012575
227,-0.162993,0.971433,-0.172487,-0.0069599999999999,-0.019269,-0.01274
228,-0.166141,0.970062,-0.177135,-0.017865,0.027329,-0.020756
229,-0.1685289999999999,0.968858,-0.181419,0.014889,0.01538,-0.0019
230,-0.170405,0.967772,-0.185416,0.032832,0.017457,0.009192
231,-0.168917,0.967655,-0.187378,0.028094,0.015621,0.010864
232,-0.170573,0.966904,-0.189741,-0.04131,0.013992,-0.0076159999999999
233,-0.174999,0.965563,-0.192519,-0.034123,0.020017,-0.005495
234,-0.1773819999999999,0.964557,-0.195358,0.004988,0.0128289999999999,0.003249
235,-0.178526,0.964071,-0.196712,0.019072,0.014216,0.013424
236,-0.180845,0.963337,-0.198184,-0.016024,0.021008,-0.000561
237,-0.1849029999999999,0.962223,-0.199847,-0.05083,0.0180479999999999,-0.025861
238,-0.187516,0.96151,-0.200841,-0.055267,0.01487,-0.029231
239,-0.19027,0.96075,-0.2018839999999999,-0.040092,0.01035,-0.010457
240,-0.192735,0.960014,-0.203042,-0.017837,0.002464,-0.01406
241,-0.195107,0.959351,-0.203908,-0.024361,0.010269,-0.016825
242,-0.197406,0.958727,-0.204629,-0.028165,0.015745,-0.006064
243,-0.20034,0.957991,-0.205224,-0.014458,0.012102,-0.002341
244,-0.201829,0.95766,-0.20531,-0.003982,0.037701,-0.004651
245,-0.202647,0.957634,-0.204627,0.002878,0.029457,-0.002038
246,-0.205225,0.957029,-0.2048869999999999,-0.022207,-0.000181,-0.017022
247,-0.2116309999999999,0.955533,-0.205351,-0.062874,0.009524,-0.023958
248,-0.21414,0.955135,-0.204598,-0.071063,-0.003277,-0.025245
249,-0.219503,0.953939,-0.204499,-0.055476,0.009746,-0.02098
250,-0.2229679999999999,0.95338,-0.203352,-0.023996,0.00887,-0.009524
251,-0.226169,0.952898,-0.202073,-0.003796,5.9e-05,0.0002299999999999
252,-0.228805,0.952599,-0.200509,0.016037,0.006996,0.003427
253,-0.2312429999999999,0.952299,-0.199132,0.039485,0.002932,0.005086
254,-0.23334,0.952094,-0.197658,0.028186,0.0056689999999999,0.0154069999999999
255,-0.2349389999999999,0.951974,-0.196338,0.022735,0.006018,0.014408
256,-0.235942,0.951919,-0.195403,0.018413,-0.000915,0.011565
257,-0.236459,0.951949,-0.194631,0.005166,-0.008986,0.007817
258,-0.236697,0.952,-0.1940869999999999,-0.0022559999999999,-0.001637,-0.005315
259,-0.2367429999999999,0.951917,-0.19444,-0.0072299999999999,-0.0026829999999999,-0.002764
260,-0.236779,0.951863,-0.194661,-0.016395,0.000682,0.001637
261,-0.237354,0.951716,-0.194679,-0.032971,0.01,0.014259
262,-0.236986,0.951715,-0.195131,-0.014143,0.010245,0.015199
263,-0.236666,0.951912,-0.194555,-0.00311,0.015083,0.016394
264,-0.235686,0.952229,-0.194194,0.015593,0.013865,0.013392
265,-0.234546,0.95279,-0.192818,0.011554,0.021605,0.02195
266,-0.23418,0.953039,-0.192031,0.011066,0.021555,0.027022
267,-0.2337,0.953413,-0.190755,0.0305439999999999,0.031007,0.0320639999999999
268,-0.234169,0.953397,-0.1902599999999999,0.014763,0.020693,0.024397
269,-0.23448,0.953726,-0.18822,0.004347,0.021128,0.022433
270,-0.23512,0.953854,-0.186765,0.003247,-0.000683,0.004895
271,-0.235603,0.953931,-0.1857589999999999,0.006492,0.0001699999999999,0.00627
272,-0.235908,0.95398,-0.185121,0.010703,0.004302,0.0070819999999999
273,-0.235571,0.954182,-0.184505,0.009101,0.007259,0.005642
274,-0.235153,0.954426,-0.183778,0.0088349999999999,0.012081,0.008927
275,-0.234979,0.954498,-0.1836269999999999,0.008645,0.010178,0.008136
276,-0.234014,0.954803,-0.183271,0.013951,0.0154729999999999,0.012067
277,-0.232344,0.955513,-0.181692,0.015867,0.022637,0.01769
278,-0.232211,0.955638,-0.181203,0.01189,0.018605,0.018208
279,-0.232091,0.955893,-0.180008,0.007176,0.014215,0.015015
280,-0.2322159999999999,0.955993,-0.179312,0.006462,0.0071719999999999,0.003271
281,-0.232593,0.955948,-0.179062,0.005206,0.0061329999999999,-0.000213
282,-0.2329949999999999,0.955908,-0.178752,0.0051049999999999,0.008752,0.001277
283,-0.2332409999999999,0.955848,-0.178754,0.005534,0.004647,-0.001208
284,-0.2335469999999999,0.955717,-0.179054,0.012112,0.0052049999999999,-0.000847
285,-0.232967,0.955889,-0.178895,0.024562,0.0117019999999999,0.011293
286,-0.2322449999999999,0.956124,-0.178578,0.01882,0.006767,0.011036
287,-0.2318869999999999,0.956227,-0.17849,0.008911,0.003368,0.010674
288,-0.231801,0.956196,-0.178768,0.004063,0.0080069999999999,0.006176
289,-0.231894,0.956093,-0.179196,0.001867,0.007209,0.0033079999999999
290,-0.2320019999999999,0.956,-0.17955,6.9e-05,0.012216,0.004364
291,-0.231877,0.955898,-0.180254,0.003667,0.006992,0.000841
292,-0.23148,0.955942,-0.180531,0.0017289999999999,0.013632,0.0084879999999999
293,-0.23146,0.955852,-0.181033,0.000152,0.010472,0.0090049999999999
294,-0.231334,0.955801,-0.1814619999999999,0.003413,0.01478,0.005833
295,-0.231007,0.955897,-0.181375,0.003285,0.0161639999999999,0.005533
296,-0.231455,0.955736,-0.181652,-0.003912,0.016356,0.002987
297,-0.232326,0.955498,-0.181791,-0.009053,0.009437,0.001478
298,-0.233379,0.955319,-0.181383,-0.005803,0.006748,0.008837
299,-0.2343449999999999,0.955085,-0.18137,-0.009078,0.001519,-0.005718
300,-0.235638,0.954682,-0.181818,-0.013508,0.000244,-0.010183
301,-0.236586,0.954355,-0.182302,-0.010591,0.001669,-0.007319
302,-0.237503,0.954032,-0.182801,-0.009415,0.004632,-0.00035
303,-0.238312,0.953741,-0.183263,0.000657,0.005518,0.000722
304,-0.238868,0.953497,-0.183808,0.000754,0.009012,-0.00241
305,-0.239348,0.953302,-0.184196,-0.002763,0.007086,-0.000588
306,-0.239972,0.953045,-0.184714,-0.003314,-0.0008349999999999,-0.00631
307,-0.240477,0.952751,-0.185569,-0.000337,0.009239,-0.008629
308,-0.24099,0.95249,-0.186243,0.001396,0.015268,-0.004568
309,-0.241403,0.952302,-0.186672,-0.001243,0.010345,0.000972
310,-0.2417429999999999,0.952122,-0.187149,0.000776,0.011242,0.000244
311,-0.242009,0.951999,-0.1874289999999999,0.006307,0.007581,0.000676
312,-0.242846,0.951765,-0.1875349999999999,-0.015912,-0.002088,-0.00439
313,-0.243493,0.951506,-0.1880089999999999,-0.013969,-0.000136,-0.008203
314,-0.2439349999999999,0.951276,-0.188599,-0.005806,0.007586,0.001648
315,-0.244493,0.951066,-0.188933,-0.0111069999999999,0.012602,-1e-06
316,-0.245205,0.950831,-0.189195,-0.018833,0.002248,0.001466
317,-0.246206,0.950491,-0.189602,-0.01356,0.005487,-0.002155
318,-0.246932,0.950208,-0.190074,-0.00525,0.008959,-0.002934
319,-0.2473469999999999,0.950032,-0.190415,-0.000776,0.008464,-0.000289
320,-0.247919,0.949844,-0.190613,-0.00707,0.008149,0.002868
321,-0.248484,0.949651,-0.190834,-0.006612,0.008494,0.000817
322,-0.2490659999999999,0.949519,-0.190734,-0.0090049999999999,0.0103349999999999,0.005782
323,-0.249503,0.949448,-0.190517,-0.011025,0.01213,0.008587
324,-0.250502,0.949319,-0.189847,-0.025133,0.011801,0.005978
325,-0.252394,0.948935,-0.1892589999999999,-0.036516,0.004495,-0.002284
326,-0.254776,0.948413,-0.188686,-0.037766,0.003858,-0.000478
327,-0.256636,0.948029,-0.188094,-0.015047,0.012191,0.001143
328,-0.258216,0.947708,-0.187545,-0.0082329999999999,0.006439,-0.0028539999999999
329,-0.260075,0.947339,-0.186844,-0.0125989999999999,0.004169,-0.0
330,-0.261751,0.947053,-0.185949,-0.006651,0.011443,0.0003109999999999
331,-0.26318,0.94675,-0.185474,-0.003345,-0.0003689999999999,-0.007168
332,-0.264694,0.946434,-0.184929,-0.010452,-0.00248,-0.010262
333,-0.2665389999999999,0.945978,-0.184618,-0.012041,-0.001123,-0.009001
334,-0.2681179999999999,0.945514,-0.1847059999999999,-0.006464,0.0055969999999999,-0.013536
335,-0.268948,0.94528,-0.184697,0.011197,0.00339,-0.0023
336,-0.268779,0.945297,-0.184856,0.0282089999999999,0.003907,-0.000951
337,-0.267383,0.945664,-0.185005,0.025516,0.0054009999999999,-0.001442
338,-0.266898,0.945771,-0.185158,0.012747,0.009094,-0.002067
339,-0.266426,0.945875,-0.185307,-0.009789,0.006365,-0.003445
340,-0.266924,0.945559,-0.186199,-0.019834,0.001463,-0.015308
341,-0.26682,0.945449,-0.186901,-0.0144139999999999,0.005906,-0.0108519999999999
342,-0.2667239999999999,0.945373,-0.187427,-0.002884,0.0054329999999999,0.002704
343,-0.266061,0.945592,-0.1872609999999999,0.006783,0.017008,0.0118
344,-0.26546,0.945727,-0.187434,0.003635,0.0168889999999999,0.002558
345,-0.265105,0.945842,-0.187356,-0.008546,0.012959,0.003534
346,-0.264962,0.945905,-0.187238,-0.012259,0.010317,0.000882
347,-0.2650119999999999,0.945913,-0.187128,-0.010897,0.007135,-0.001944
348,-0.2651929999999999,0.945865,-0.187115,-0.00385,0.007031,-0.001133
349,-0.26521,0.945886,-0.1869829999999999,-0.002597,0.007559,0.000368
350,-0.265048,0.945951,-0.186887,-0.001539,0.009081,0.003629
351,-0.26484,0.94604,-0.1867319999999999,-0.002296,0.005559,0.003886
352,-0.264611,0.946097,-0.186767,-0.004737,0.006143,-0.000214
353,-0.264484,0.946096,-0.186953,-0.00729,0.0052899999999999,-0.005384
354,-0.2644829999999999,0.94611,-0.186882,-0.003171,0.011303,0.00309
355,-0.264162,0.946222,-0.186769,0.00609,0.01142,0.00168
356,-0.263862,0.946311,-0.186742,0.006217,0.004052,0.0010119999999999
357,-0.263324,0.946472,-0.186684,0.003192,0.006363,-0.000801
358,-0.262762,0.946627,-0.186693,-0.004435,0.01425,-0.001966
359,-0.262434,0.946715,-0.1867049999999999,-0.009645,0.005845,-0.001085
360,-0.2626489999999999,0.946644,-0.186764,-0.014008,0.001552,-0.001438
361,-0.262675,0.946646,-0.186716,-0.005193,0.0136199999999999,0.004907
362,-0.262405,0.946734,-0.186648,0.0008849999999999,0.013822,0.006701
363,-0.2616219999999999,0.946988,-0.1864589999999999,0.012492,0.009143,0.004315
364,-0.261053,0.947226,-0.186048,-0.003702,0.011209,0.010205
365,-0.2607219999999999,0.947372,-0.185771,-0.0093739999999999,0.01146,0.008448
366,-0.260736,0.947455,-0.185324,-0.0109769999999999,0.00625,0.002539
367,-0.26084,0.947452,-0.185197,-0.008844,0.010831,-0.006117
368,-0.261084,0.947439,-0.184917,-0.007562,0.0070129999999999,0.003078
369,-0.261267,0.947497,-0.184358,-0.000268,0.011212,0.009202
370,-0.261159,0.94769,-0.183519,0.00733,0.009311,0.010744
371,-0.2610659999999999,0.947842,-0.182868,0.005618,0.009815,-0.0004509999999999
372,-0.261303,0.94787,-0.182381,-0.004261,0.009878,-0.001838
373,-0.26164,0.947874,-0.181876,-0.003268,0.008119,-0.001169
374,-0.261978,0.947852,-0.181503,-0.000336,0.000863,-0.00264
375,-0.262102,0.947843,-0.181375,0.0049759999999999,0.0033439999999999,-0.004981
376,-0.262045,0.947875,-0.181288,0.006461,0.00934,-0.003328
377,-0.261858,0.947981,-0.181004,0.007219,0.011659,0.0024
378,-0.26136,0.948212,-0.1805119999999999,0.0113599999999999,0.007354,0.006028
379,-0.260947,0.948366,-0.1803,0.0086579999999999,0.000288,-0.002592
380,-0.260811,0.948422,-0.180202,-0.003044,0.0113099999999999,-0.002568
381,-0.260927,0.94845,-0.179889,-0.004729,0.015158,0.0026739999999999
382,-0.261017,0.948503,-0.179475,-0.001876,0.007689,0.0067599999999999
383,-0.2611239999999999,0.948555,-0.179047,0.005326,0.007897,0.000519
384,-0.261109,0.948633,-0.178654,0.0047469999999999,0.010946,0.002415
385,-0.261378,0.948664,-0.178093,-0.004796,0.006673,-0.001732
386,-0.2617489999999999,0.948633,-0.177717,-0.002655,0.0034549999999999,-0.003252
387,-0.262162,0.948575,-0.177415,-1.5e-05,0.005175,0.00026
388,-0.262397,0.948592,-0.176976,-0.001305,0.010713,0.000584
389,-0.262778,0.948577,-0.17649,-0.006235,0.007203,-0.0015949999999999
390,-0.263026,0.948573,-0.176146,0.005183,0.003408,-0.005647
391,-0.2627219999999999,0.948677,-0.176039,0.007824,0.002343,0.001891
392,-0.262601,0.948744,-0.175853,0.000226,0.0049299999999999,0.002208
393,-0.262713,0.948795,-0.1754119999999999,-0.006665,0.003414,0.006528
394,-0.262759,0.94883,-0.1751579999999999,-0.004774,0.004982,0.008715
395,-0.262759,0.948864,-0.174972,-0.0030489999999999,0.003239,0.002685
396,-0.262969,0.948823,-0.174878,-0.0139169999999999,-0.000108,0.00256
397,-0.263286,0.948739,-0.1748549999999999,-0.013936,-0.00036,0.005284
398,-0.263227,0.948714,-0.175082,-0.009097,4.7e-05,0.001727
399,-0.262962,0.948759,-0.1752369999999999,-0.002221,0.006609,0.008535
400,-0.262346,0.94889,-0.175449,-0.004118,0.009927,0.012012
401,-0.261991,0.94903,-0.175223,-0.015673,0.00524,0.005988
402,-0.262135,0.949013,-0.1751,-0.02206,0.003151,0.008108
403,-0.262219,0.948997,-0.175062,-0.018925,0.006966,0.005643
404,-0.261957,0.949062,-0.175099,-0.019019,0.005802,0.005726
405,-0.262682,0.948902,-0.174879,-0.033781,0.007565,0.003401
406,-0.263756,0.948639,-0.174689,-0.029274,0.005951,0.002479
407,-0.264239,0.948527,-0.17457,-0.023313,0.001302,0.002908
408,-0.264863,0.948394,-0.174344,-0.013549,0.004288,0.001188
409,-0.265275,0.948328,-0.174077,-0.012512,0.005132,0.004689
410,-0.265412,0.948306,-0.173989,-0.012191,0.003675,-0.000801
411,-0.266121,0.948099,-0.174036,-0.023018,0.004553,-0.0091159999999999
412,-0.2671,0.947812,-0.174099,-0.020635,0.006656,-0.0042299999999999
413,-0.2676389999999999,0.947636,-0.17423,-0.006439,-0.001072,-0.002864
414,-0.267658,0.947595,-0.174419,0.004627,-0.005686,-0.003315
415,-0.26735,0.947587,-0.1749369999999999,0.0036479999999999,0.003524,-0.0068099999999999
416,-0.2667989999999999,0.947614,-0.175627,0.00386,0.00783,-0.008165
417,-0.265971,0.947734,-0.1762369999999999,0.004755,0.009404,-0.004397
418,-0.264689,0.947937,-0.177073,0.009607,0.010498,-0.007421
419,-0.262968,0.948255,-0.1779349999999999,0.017088,0.0060149999999999,-0.009656
420,-0.261217,0.948541,-0.1789849999999999,0.01082,0.001471,-0.011674
421,-0.259306,0.948803,-0.180369,0.010313,-0.003399,-0.01566
422,-0.2568539999999999,0.949171,-0.181936,0.0201289999999999,0.001421,-0.013895
423,-0.25354,0.949699,-0.183819,0.035981,0.00512,-0.016071
424,-0.249879,0.950243,-0.186006,0.033418,0.009336,-0.017363
425,-0.24647,0.950723,-0.188093,0.024515,0.009299,-0.011675
426,-0.243633,0.95112,-0.189773,0.011531,0.026999,-0.008012
427,-0.241643,0.951442,-0.190701,0.0025989999999999,0.03658,0.003064
428,-0.240162,0.951735,-0.191106,0.006077,0.02234,0.0182699999999999
429,-0.2386349999999999,0.952195,-0.1907319999999999,0.010699,0.021057,0.0308649999999999
430,-0.237675,0.952542,-0.190197,-0.007228,0.019413,0.030498
431,-0.2372719999999999,0.952813,-0.189338,-0.030215,0.004813,0.031714
432,-0.237697,0.952845,-0.188644,-0.038929,0.00147,0.023208
433,-0.2377369999999999,0.952846,-0.188589,-0.038493,0.003743,0.018164
434,-0.237742,0.952877,-0.188426,-0.0333,-0.020046,0.02029
435,-0.238382,0.952968,-0.187155,-0.029639,0.014668,0.013647
436,-0.238421,0.953034,-0.186767,-0.039564,0.00592,0.005645
437,-0.2397099999999999,0.952905,-0.18577,-0.047323,0.005789,0.006784
438,-0.2422119999999999,0.952535,-0.184417,-0.036505,0.006769,0.0009449999999999
439,-0.2433969999999999,0.952364,-0.18374,-0.0281029999999999,0.003202,-0.004294
440,-0.244029,0.952127,-0.184133,0.005717,-0.0067069999999999,-0.019449
441,-0.243385,0.952199,-0.184613,0.018012,-0.000233,-0.011691
442,-0.2426429999999999,0.952413,-0.184481,0.012449,0.01034,0.00316
443,-0.2417639999999999,0.952703,-0.184139,0.00156,0.015315,0.007305
444,-0.2409639999999999,0.952876,-0.184293,0.005063,0.012731,0.018354
445,-0.23997,0.953139,-0.18423,0.003718,0.014162,0.019802
446,-0.238691,0.953598,-0.183515,-0.010805,0.011231,0.002393
447,-0.237482,0.954037,-0.1828,-0.045172,0.005054,-0.02269
448,-0.237929,0.953909,-0.182885,-0.064912,-0.007147,-0.025108
449,-0.237038,0.954139,-0.182843,-0.044563,-0.012123,-0.008838
450,-0.236109,0.954308,-0.183166,-0.009741,-0.002419,0.0132129999999999
451,-0.235284,0.954576,-0.182828,-0.005484,0.003691,0.01553
452,-0.234227,0.954827,-0.182877,-0.01469,0.002861,0.0064849999999999
453,-0.234292,0.95481,-0.182882,-0.036322,0.005884,0.002401
454,-0.23354,0.954904,-0.183352,-0.004451,0.008338,-0.000227
455,-0.232654,0.95503,-0.183818,0.012195,0.011644,0.0071519999999999
456,-0.2307489999999999,0.955575,-0.18339,0.027441,0.010947,0.027353
457,-0.2294159999999999,0.955928,-0.183222,0.004075,0.010869,0.014445
458,-0.228055,0.956274,-0.183116,-0.015964,0.006922,0.003459
459,-0.227359,0.956492,-0.182842,-0.020337,0.007711,0.005092
460,-0.2271429999999999,0.956734,-0.181839,-0.017028,0.011253,0.01384
461,-0.226782,0.957144,-0.180128,-0.013453,0.007578,0.01991
462,-0.226438,0.957442,-0.178972,-0.012744,0.003938,0.008836
463,-0.226376,0.95758,-0.17831,-0.017811,0.000229,0.0077769999999999
464,-0.226566,0.957711,-0.177363,-0.019391,0.0108709999999999,0.010463
465,-0.22689,0.95784,-0.176247,-0.019158,0.013946,0.0105209999999999
466,-0.227144,0.957948,-0.1753299999999999,-0.009428,0.0045,0.010215
467,-0.226752,0.958176,-0.174591,0.005683,0.003646,0.01207
468,-0.226147,0.95855,-0.173321,0.006497,0.010795,0.0171319999999999
469,-0.226069,0.958852,-0.171742,-0.004964,0.017237,0.008061
470,-0.226888,0.958779,-0.17107,-0.017848,0.005164,-0.014385
471,-0.227836,0.958485,-0.171455,-0.003426,-0.008839,-0.021797
472,-0.2275179999999999,0.958434,-0.172164,0.027444,0.0015119999999999,-0.02231
473,-0.22607,0.958655,-0.172841,0.040859,-0.001425,-0.01292
474,-0.226091,0.958668,-0.172738,0.021974,0.013622,-0.007682
475,-0.22603,0.958647,-0.172932,-0.007277,0.016206,-0.006267
476,-0.226029,0.95864,-0.172976,-0.005569,0.015649,-0.006284
477,-0.225588,0.958651,-0.173488,0.002916,0.003599,-0.012089
478,-0.224291,0.958999,-0.173246,0.00249,0.007126,0.014646
479,-0.22389,0.95929,-0.17215,-0.030261,0.012298,0.017594
480,-0.224021,0.959427,-0.171214,-0.058251,0.012085,0.002513
481,-0.224451,0.959431,-0.17063,-0.059439,0.004437,-0.000939
482,-0.22593,0.959128,-0.170377,-0.033164,0.001168,0.001737
483,-0.226155,0.959144,-0.169992,-0.007716,-0.019477,-0.006689
484,-0.226077,0.959238,-0.169564,-0.007139,-0.025003,-0.009712
485,-0.225847,0.959221,-0.169968,-0.000807,-0.020973,-0.003204
486,-0.224908,0.959257,-0.171007,0.027932,-0.008298,0.015902
487,-0.222588,0.959538,-0.172457,0.024635,0.004344,0.0155509999999999
488,-0.2198949999999999,0.959764,-0.174641,0.021393,0.019515,0.009251
489,-0.216332,0.960176,-0.176813,0.003289,0.012114,-0.013571
490,-0.212362,0.960528,-0.179689,0.002142,0.0013859999999999,-0.03047
491,-0.208564,0.960867,-0.182308,0.007499,0.0085849999999999,-0.027302
492,-0.2044,0.961189,-0.1853,0.01838,0.0268629999999999,-0.014773
493,-0.201174,0.961372,-0.187864,0.019869,0.031136,-0.007693
494,-0.1983869999999999,0.961545,-0.189932,0.006523,0.038394,-0.007075
495,-0.19585,0.961821,-0.191162,0.00658,0.047654,0.010757
496,-0.194011,0.962081,-0.1917299999999999,0.01675,0.039552,0.017459
497,-0.192726,0.962439,-0.191225,0.026253,0.026422,0.017702
498,-0.190768,0.963231,-0.189193,0.033831,0.001918,0.032623
499,-0.190031,0.963605,-0.188025,0.031278,0.01253,0.02767
500,-0.188398,0.964254,-0.186333,0.028348,0.018396,0.025444
501,-0.188072,0.964466,-0.185565,0.021889,0.022045,-0.0005009999999999
502,-0.187615,0.964768,-0.184453,0.009178,-0.005784,0.0040939999999999
503,-0.187319,0.965037,-0.183343,0.006334,-0.003688,0.00808
504,-0.186589,0.965443,-0.181943,0.0099379999999999,0.009319,0.00633
505,-0.186274,0.965767,-0.180546,-0.0036829999999999,0.025078,-0.004649
506,-0.186851,0.965889,-0.179291,-0.0121079999999999,0.0229879999999999,-0.0051259999999999
507,-0.188277,0.965818,-0.178178,-0.010209,0.003695,-0.004454
508,-0.188544,0.966078,-0.176477,0.015143,0.008745,0.003671
509,-0.188239,0.966397,-0.17505,0.02848,0.0109129999999999,0.00081
510,-0.187157,0.966803,-0.173965,0.017785,0.0004969999999999,-0.002076
511,-0.186934,0.967007,-0.173068,0.0016,0.002338,-0.004224
512,-0.186921,0.967173,-0.172155,-0.002516,0.000769,0.002264
513,-0.186967,0.967332,-0.171209,-0.0067129999999999,0.00418,-0.002589
514,-0.187088,0.967444,-0.170443,-0.012054,0.008905,-0.005705
515,-0.187725,0.967427,-0.169838,-0.019153,0.00613,-0.002495
516,-0.188506,0.96733,-0.169525,-0.015336,0.004564,-0.003266
517,-0.188486,0.967366,-0.169343,0.0046479999999999,0.008938,-0.0025629999999999
518,-0.1874289999999999,0.967625,-0.169031,0.019049,0.010326,0.003168
519,-0.185981,0.967983,-0.1685809999999999,0.0198889999999999,0.0071909999999999,0.004122
520,-0.184444,0.968333,-0.168263,0.0162919999999999,0.008749,3.5e-05
521,-0.1829,0.968606,-0.168374,0.010414,0.012687,-0.00637
522,-0.181518,0.968829,-0.1685849999999999,0.0068049999999999,0.0033229999999999,-0.004129
523,-0.180391,0.96907,-0.1684109999999999,0.005007,-0.00296,-0.000869
524,-0.17965,0.96925,-0.168169,-0.00431,0.002705,-0.001539
525,-0.179065,0.969437,-0.167714,-0.007473,0.01448,0.00446
526,-0.178892,0.969551,-0.167238,-0.009142,0.006279,0.002184
527,-0.178814,0.969583,-0.167134,-0.011814,0.000982,3.5e-05
528,-0.179241,0.969476,-0.167297,-0.01099,-0.0036409999999999,0.000701
529,-0.179073,0.969464,-0.16755,-0.010045,0.008152,-0.000113
530,-0.1789609999999999,0.969493,-0.167498,-0.009363,0.007664,0.004686
531,-0.17927,0.969489,-0.16719,-0.015356,0.011193,0.009552
532,-0.179113,0.969548,-0.167022,-0.010844,0.004467,0.013122
533,-0.179266,0.969536,-0.166925,-0.008631,0.0091019999999999,0.013041
534,-0.179835,0.969492,-0.16657,-0.016714,0.010596,0.0123489999999999
535,-0.180566,0.969439,-0.1660849999999999,-0.01937,0.018156,0.015053
536,-0.181816,0.969417,-0.164842,-0.01342,0.008167,0.017122
537,-0.183255,0.969394,-0.163377,-0.011722,0.008068,0.011964
538,-0.184617,0.969307,-0.162357,-0.01036,0.0081549999999999,0.010944
539,-0.186685,0.969109,-0.161172,-0.02024,0.012687,0.002557
540,-0.1894549999999999,0.968695,-0.1604259999999999,-0.017043,-0.002478,0.001353
541,-0.191851,0.9683,-0.159964,-0.008726,0.007408,-0.000269
542,-0.1938869999999999,0.968024,-0.159175,-0.003134,0.008554,0.004222
543,-0.196272,0.967768,-0.157803,-0.01523,0.00617,0.003887
544,-0.198856,0.967385,-0.156913,-0.0274769999999999,0.009528,-0.007882
545,-0.201701,0.966779,-0.157022,-0.012594,-0.001294,-0.017279
546,-0.2031069999999999,0.966419,-0.157425,0.018414,-0.011447,-0.007843
547,-0.204241,0.966143,-0.15765,0.033953,-0.0152,-0.008304
548,-0.203892,0.966167,-0.157953,0.032123,-0.000408,-0.009161
549,-0.20399,0.96605,-0.15854,-0.022527,0.002288,-0.016936
550,-0.2046349999999999,0.965769,-0.159418,-0.027756,0.000173,-0.022696
551,-0.2055699999999999,0.96535,-0.16075,-0.028607,-0.002093,-0.019625
552,-0.205706,0.965169,-0.16166,-0.010512,0.0028179999999999,-0.000236
553,-0.206009,0.96506,-0.161921,-0.01448,0.011731,0.010828
554,-0.205801,0.965048,-0.1622569999999999,-0.017985,0.0092859999999999,0.010478
555,-0.205618,0.965031,-0.162591,-0.035867,0.008601,-0.004035
556,-0.206715,0.964738,-0.16294,-0.0386009999999999,0.004912,0.000144
557,-0.207156,0.964615,-0.1631119999999999,-0.035764,0.007859,0.0085709999999999
558,-0.210037,0.964283,-0.161379,-0.042831,0.0136379999999999,0.01996
559,-0.213678,0.963703,-0.1600589999999999,-0.052451,0.004483,0.0027559999999999
560,-0.215892,0.963265,-0.159724,-0.048329,0.000404,-0.007619
561,-0.217932,0.962796,-0.159778,-0.01748,0.000842,-0.007687
562,-0.220004,0.962402,-0.159316,-0.021787,0.003114,-0.0010689999999999
563,-0.221886,0.962064,-0.158743,-0.023536,-0.002027,0.0014089999999999
564,-0.22354,0.961797,-0.158039,0.0002279999999999,0.003169,0.008229
565,-0.2234699999999999,0.96193,-0.157325,0.016911,0.009948,-0.0001909999999999
566,-0.224254,0.961807,-0.15696,0.017696,0.010071,-0.000556
567,-0.224219,0.961755,-0.15733,0.006263,0.008673,-0.015811
568,-0.223046,0.961879,-0.158235,0.02633,-0.000667,-0.003432
569,-0.222082,0.962107,-0.158208,0.032721,0.007879,0.006215
570,-0.2204699999999999,0.962576,-0.157609,0.016323,0.015909,0.007631
571,-0.2201719999999999,0.962714,-0.157182,-0.010938,0.0142,0.000947
572,-0.220836,0.962513,-0.1574839999999999,-0.0207259999999999,0.011425,-0.009417
573,-0.221226,0.962323,-0.158095,-0.00526,0.009693,-0.008378
574,-0.220685,0.962439,-0.158146,0.018429,0.000254,0.008579
575,-0.219501,0.962838,-0.157359,0.020297,0.007575,0.016108
576,-0.2187199999999999,0.96322,-0.156105,-0.001266,0.017356,0.01551
577,-0.218683,0.963295,-0.155694,-0.017401,0.004127,-0.001258
578,-0.21938,0.963076,-0.156065,-0.026104,0.00401,-0.009081
579,-0.219884,0.962921,-0.156317,-0.009394,0.005448,0.002523
580,-0.219644,0.962956,-0.156437,0.0105989999999999,0.006298,0.006931
581,-0.218723,0.963187,-0.156303,0.01929,0.0064629999999999,0.0090099999999999
582,-0.2176179999999999,0.963503,-0.155901,0.016187,0.009566,0.011339
583,-0.216784,0.963828,-0.155051,-0.001539,0.013315,0.01171
584,-0.216561,0.963926,-0.154751,-0.006691,0.0059229999999999,0.011563
585,-0.2168739999999999,0.963947,-0.1541789999999999,-0.00624,0.005886,0.005772
586,-0.2172489999999999,0.963949,-0.153639,-0.0022789999999999,0.017374,0.003966
587,-0.217451,0.963975,-0.153191,-0.000384,0.013015,0.011299
588,-0.217488,0.964078,-0.152492,0.0042,0.010395,0.009044
589,-0.217538,0.964119,-0.15216,0.001397,0.017556,0.000671
590,-0.218144,0.964099,-0.151416,-0.020595,0.013547,0.005252
591,-0.219054,0.964014,-0.150643,-0.020219,0.009604,0.004296
592,-0.219476,0.964004,-0.150086,-0.018836,0.007599,0.005601
593,-0.21999,0.964024,-0.149206,0.000873,0.012569,0.0026149999999999
594,-0.220271,0.964105,-0.1482619999999999,0.002741,0.008444,0.00872
595,-0.2205619999999999,0.964176,-0.147365,0.001797,0.002529,0.00648
596,-0.221326,0.964233,-0.145838,-0.019106,0.011398,0.029001
597,-0.221932,0.964161,-0.145399,-0.01789,0.027798,0.008619
598,-0.222565,0.963953,-0.145808,-0.005553,0.011816,-0.016896
599,-0.223431,0.963855,-0.145129,-0.002734,-0.005023,0.012637
600,-0.223489,0.963896,-0.144763,0.016885,-0.012267,-0.0372129999999999
601,-0.223494,0.964029,-0.143871,0.001478,-0.047449,-0.037999
602,-0.2228239999999999,0.964074,-0.144603,-0.01973,-0.036355,-0.0130509999999999
603,-0.22191,0.96388,-0.147282,0.003053,-0.002912,-0.024257
604,-0.220048,0.9638,-0.150563,0.035692,-0.023568,-0.0008039999999999
605,-0.21733,0.96386,-0.154081,0.023024,0.000465,-0.001238
606,-0.2152099999999999,0.963847,-0.15711,0.006683,0.025029,0.0065819999999999
607,-0.213423,0.963786,-0.159899,0.009611,0.027913,0.021791
608,-0.210863,0.964172,-0.160961,0.044328,0.022858,0.030971
609,-0.209344,0.964191,-0.162818,0.021432,0.018764,0.01519
610,-0.207217,0.964343,-0.164632,0.005297,0.0405089999999999,0.022421
611,-0.205648,0.964389,-0.166319,-0.004007,0.054059,0.02545
612,-0.204485,0.964594,-0.166567,-0.031691,0.036718,-0.001356
613,-0.203631,0.964656,-0.1672529999999999,-0.042569,0.025991,-0.027007
614,-0.204228,0.964236,-0.168939,-0.029674,-0.0128659999999999,-0.0205449999999999
615,-0.203944,0.964118,-0.16995,-0.012059,-0.031943,-0.0127739999999999
616,-0.203992,0.963941,-0.170897,-0.002062,-0.012235,0.00035
617,-0.203463,0.963849,-0.172041,-0.022978,0.007587,0.023161
618,-0.203697,0.963666,-0.172785,-0.040566,0.023272,0.016016
619,-0.203147,0.963616,-0.17371,-0.043481,0.019172,0.012791
620,-0.203868,0.963577,-0.1730799999999999,-0.038945,0.017929,0.0283959999999999
621,-0.204379,0.963595,-0.172377,-0.067212,0.028532,0.018569
622,-0.208083,0.962984,-0.1713569999999999,-0.085801,0.015349,-0.006743
623,-0.210394,0.962564,-0.170894,-0.060663,0.0085659999999999,-0.003529
624,-0.2133449999999999,0.962029,-0.170246,0.0066799999999999,-0.000298,0.009617
625,-0.2153699999999999,0.961776,-0.169121,0.033745,0.007645,0.021507
626,-0.217359,0.961581,-0.167684,-0.011553,0.016599,0.009038
627,-0.2195659999999999,0.961284,-0.1665039999999999,-0.042549,0.004841,-0.007767
628,-0.2216989999999999,0.960914,-0.165814,-0.017833,-0.002799,-0.00275
629,-0.2235079999999999,0.960623,-0.16507,0.00958,-0.004797,-0.001861
630,-0.2247989999999999,0.96045,-0.164322,0.019477,0.00563,0.005356
631,-0.225976,0.960311,-0.163518,0.0012439999999999,0.000489,-0.0140639999999999
632,-0.227234,0.960141,-0.162768,-0.0179439999999999,-0.0055509999999999,-0.025052
633,-0.228396,0.959955,-0.162241,-0.00134,0.002768,-0.006933
634,-0.229467,0.959755,-0.161912,0.005895,0.005745,0.0035409999999999
635,-0.2303349999999999,0.959711,-0.160938,0.004719,0.009039,0.013447
636,-0.23109,0.959399,-0.161713,0.0092269999999999,-0.00336,-0.018494
637,-0.231478,0.959151,-0.162626,0.019518,-0.005568,-0.023714
638,-0.231455,0.958989,-0.163613,0.0206699999999999,-0.006825,-0.021369
639,-0.231186,0.958987,-0.1640049999999999,0.002731,0.004514,0.000263
640,-0.231316,0.958997,-0.163761,-0.0055,0.012851,0.0045049999999999
641,-0.23259,0.958583,-0.16438,-0.025833,0.005208,-0.012118
642,-0.2342739999999999,0.958071,-0.16497,-0.023355,0.007917,-0.0051189999999999
643,-0.234765,0.957876,-0.165408,-0.012717,0.0086769999999999,-0.001844
644,-0.234949,0.957902,-0.164991,-0.004995,0.001326,0.00926
645,-0.2355789999999999,0.957825,-0.164539,-0.014436,0.004897,0.003574
646,-0.237071,0.957529,-0.16412,-0.0304,0.016592,0.004116
647,-0.2380739999999999,0.957241,-0.164347,-0.025903,0.007892,-0.004842
648,-0.2389389999999999,0.957043,-0.164246,-0.001067,0.004871,0.011933
649,-0.239098,0.957182,-0.163199,0.0018239999999999,0.0146039999999999,0.015982
650,-0.240328,0.95709,-0.161926,-0.022382,0.009767,0.00557
651,-0.2424849999999999,0.956657,-0.161273,-0.028404,0.002938,0.001361
652,-0.244109,0.956315,-0.160846,-0.010026,0.008223,-0.003811
653,-0.245192,0.956092,-0.160529,0.0005639999999999,0.004571,-0.002221
654,-0.246142,0.955996,-0.159642,0.000216,0.007795,0.005559
655,-0.247636,0.955741,-0.158857,-0.0164169999999999,0.009316,-0.01018
656,-0.249867,0.955181,-0.1587309999999999,-0.026073,-0.001263,-0.014975
657,-0.251559,0.95476,-0.158592,-0.005185,0.004896,-0.0098959999999999
658,-0.251992,0.954792,-0.157712,0.0139699999999999,0.017209,0.007825
659,-0.25237,0.954962,-0.156067,0.004614,0.0102329999999999,0.007797
660,-0.253791,0.954807,-0.1547059999999999,-0.016107,0.00285,-0.006519
661,-0.255681,0.954412,-0.154027,-0.018047,0.000971,-0.011134
662,-0.257021,0.954114,-0.153643,-0.002165,0.005755,-0.010862
663,-0.25738,0.954121,-0.152998,0.015391,0.006572,-0.002992
664,-0.257439,0.954244,-0.15213,0.014412,0.0076549999999999,-0.00026
665,-0.258023,0.954218,-0.151303,-0.008258,0.003592,-0.010929
666,-0.258892,0.954053,-0.150858,-0.017674,-0.000806,-0.019034
667,-0.259242,0.953926,-0.151061,0.0090739999999999,0.0095909999999999,-0.012955
668,-0.258277,0.954177,-0.1511279999999999,0.032462,0.010697,-0.003459
669,-0.256857,0.954654,-0.150533,0.026068,0.012525,0.004919
670,-0.256226,0.954722,-0.151177,-0.010406,-0.001627,-0.021598
671,-0.25585,0.954659,-0.1522089999999999,-0.008753,-0.000679,-0.026472
672,-0.254538,0.954583,-0.154863,0.021521,0.0088569999999999,-0.022017
673,-0.2530469999999999,0.954784,-0.15606,0.028956,0.013722,-0.002936
674,-0.251042,0.955338,-0.155908,0.020283,0.018066,0.022684
675,-0.250166,0.955548,-0.156026,-0.00583,0.0093569999999999,0.0003259999999999
676,-0.249738,0.95554,-0.1567609999999999,0.009565,0.019252,-0.006966
677,-0.248882,0.955585,-0.157845,0.02473,0.019574,-0.009529
678,-0.247125,0.955923,-0.158556,0.02424,0.024088,-0.000883
679,-0.2461989999999999,0.95619,-0.158388,0.0191789999999999,0.025744,0.006869
680,-0.24529,0.956464,-0.158142,0.0068099999999999,0.017703,-0.009506
681,-0.245073,0.956569,-0.157844,-0.000533,0.015034,-0.010186
682,-0.245517,0.956549,-0.157276,0.004901,0.010767,-0.006313
683,-0.2455389999999999,0.956639,-0.156691,0.022196,-0.000386,0.006514
684,-0.24503,0.956879,-0.156022,0.031697,-0.006546,0.006883
685,-0.244763,0.957005,-0.155671,0.029751,-0.010548,-1.4e-05
686,-0.244176,0.957233,-0.155186,0.0093739999999999,-0.002124,0.003087
687,-0.24388,0.957268,-0.155434,-0.003602,0.005043,-0.010993
688,-0.243484,0.957378,-0.155378,-0.007478,0.013783,0.009306
689,-0.243233,0.957439,-0.1554,-0.010903,0.006825,0.003835
690,-0.242782,0.95729,-0.1570109999999999,-0.007768,-0.002975,-0.01024
691,-0.2410909999999999,0.957303,-0.15952,0.01288,-0.008694,-0.0136979999999999
692,-0.237563,0.957614,-0.162908,0.039428,0.00015,-0.007365
693,-0.233461,0.958247,-0.165099,0.030443,0.012242,0.0150139999999999
694,-0.230817,0.958661,-0.166408,0.0050479999999999,0.017046,0.024471
695,-0.228826,0.959035,-0.1670039999999999,-0.010752,0.014232,0.0254639999999999
696,-0.22763,0.959249,-0.16741,-0.035279,0.029719,0.011496
697,-0.226375,0.959345,-0.168554,-0.002079,0.019918,0.024496
698,-0.225284,0.959554,-0.1688309999999999,0.002475,0.011149,0.030083
699,-0.224255,0.959717,-0.169273,-0.018299,-0.008011,0.026511
700,-0.224541,0.959755,-0.168678,-0.048836,-0.002449,0.022987
701,-0.223966,0.959897,-0.16863,-0.057985,0.005709,0.021199
702,-0.225151,0.959655,-0.168431,-0.068336,0.012421,0.01563
703,-0.22495,0.9596,-0.169013,-0.0915179999999999,0.024592,-0.005487
704,-0.226642,0.95908,-0.169701,-0.083966,0.006526,-0.011268
705,-0.226648,0.958994,-0.170179,-0.049017,-0.018702,-0.016878
706,-0.2269219999999999,0.958915,-0.170262,-0.033699,0.0224389999999999,-0.024318
707,-0.226992,0.958962,-0.169901,-0.021558,0.013053,-0.007406
708,-0.226703,0.959106,-0.169476,-0.001599,-0.003097,0.001675
709,-0.225946,0.959347,-0.169119,0.0091799999999999,-0.010464,0.018897
710,-0.2246369999999999,0.959713,-0.168786,0.009793,-0.0083579999999999,0.028558
711,-0.2228119999999999,0.960188,-0.168507,-0.015241,-0.004896,0.0116
712,-0.220797,0.960708,-0.168195,-0.045972,-0.01538,-0.007205
713,-0.21894,0.961077,-0.168511,-0.0695269999999999,-0.012423,-0.023704
714,-0.217437,0.961232,-0.169571,-0.074433,-0.004506,-0.024002
715,-0.216008,0.961336,-0.1708039999999999,-0.0457259999999999,0.009459,0.010786
716,-0.214437,0.961571,-0.171458,-0.0308029999999999,0.013588,0.018779
717,-0.213079,0.961865,-0.1715,-0.006923,0.0255,0.023368
718,-0.2121579999999999,0.962094,-0.1713589999999999,0.004685,0.010959,0.025286
719,-0.211243,0.962372,-0.170928,-0.007248,0.016433,0.0240319999999999
720,-0.209954,0.962797,-0.170121,-0.0275949999999999,0.018633,0.017411
721,-0.208529,0.963292,-0.169068,-0.036725,-0.000218,0.004639
722,-0.207191,0.963764,-0.168021,-0.04638,-0.014301,0.001242
723,-0.205865,0.964182,-0.16725,-0.0556549999999999,-0.014994,0.003859
724,-0.20651,0.964206,-0.166315,-0.049532,-0.008365,0.008631
725,-0.207139,0.964245,-0.165302,-0.050399,-0.00465,0.010135
726,-0.207701,0.964271,-0.164445,-0.0513929999999999,-0.007911,0.0054329999999999
727,-0.2081889999999999,0.964256,-0.163911,-0.053087,-0.006783,0.001207
728,-0.206528,0.964652,-0.163682,-0.0557549999999999,-0.0076359999999999,-0.000106
729,-0.206331,0.964678,-0.163778,-0.03575,-0.009844,0.000127
730,-0.207317,0.964491,-0.1636369999999999,-0.026402,-0.000731,0.001772
731,-0.206177,0.964787,-0.163328,-0.040115,0.015132,-0.003435
732,-0.206496,0.964774,-0.1630049999999999,-0.03998,0.001458,-3.5e-05
733,-0.204286,0.965268,-0.162866,-0.035704,0.005527,0.0031829999999999
734,-0.203668,0.965645,-0.1614,-0.025443,0.009514,0.01603
735,-0.20225,0.966122,-0.160321,-0.030539,0.006961,0.009519
736,-0.201022,0.966574,-0.159138,-0.036756,0.002695,0.008137
737,-0.200195,0.966892,-0.158249,-0.0446019999999999,-0.003696,0.0054009999999999
738,-0.200445,0.967004,-0.15724,-0.031123,-0.001215,0.010069
739,-0.199748,0.967382,-0.1558,-0.024937,-0.0004019999999999,0.015541
740,-0.19804,0.967959,-0.154391,-0.0270279999999999,0.004621,0.017199
741,-0.196687,0.968564,-0.15231,-0.021255,-0.000516,0.012295
742,-0.195028,0.969098,-0.15104,-0.021768,-0.003232,0.000161
743,-0.192685,0.969753,-0.149836,-0.028735,-0.0024219999999999,-0.001149
744,-0.1922039999999999,0.970033,-0.148642,-0.048549,-0.011567,-0.003901
745,-0.192391,0.970088,-0.148034,-0.053276,-0.012737,-0.004951
746,-0.19113,0.970391,-0.1476829999999999,-0.050172,-0.017815,-0.004524
747,-0.189894,0.970601,-0.147899,-0.022462,-0.00182,-0.011327
748,-0.187675,0.971061,-0.1477099999999999,-0.013985,0.01516,-0.005717
749,-0.184887,0.971692,-0.147074,-0.011143,0.020953,-0.003332
750,-0.181636,0.972445,-0.14615,0.019969,0.011152,-0.000182
751,-0.178671,0.973114,-0.145347,0.046835,0.0003509999999999,0.003165
752,-0.175611,0.973761,-0.144745,0.050397,-0.002508,0.002014
753,-0.172226,0.974477,-0.143986,0.057434,0.0006349999999999,0.010701
754,-0.168576,0.975292,-0.142782,0.055219,0.007267,0.013693
755,-0.164801,0.976087,-0.141757,0.037222,0.01311,0.002841
756,-0.160719,0.976809,-0.141467,0.022886,0.0076269999999999,-0.010053
757,-0.156345,0.977482,-0.141719,0.017902,-0.006886,-0.012486
758,-0.151849,0.978103,-0.142323,0.018288,-0.0129699999999999,-0.0136979999999999
759,-0.1459859999999999,0.97876,-0.1439339999999999,0.01917,0.006439,-0.015581
760,-0.139866,0.979457,-0.145261,0.0265089999999999,0.017476,-0.009723
761,-0.134746,0.980003,-0.146419,0.03361,0.013345,0.0020859999999999
762,-0.128893,0.980646,-0.147379,0.045641,0.01824,0.0028179999999999
763,-0.1244059999999999,0.981041,-0.1486,0.05806,0.01725,0.003992
764,-0.121196,0.981239,-0.1499359999999999,0.070842,0.015266,0.008975
765,-0.11565,0.98175,-0.150968,0.071201,-0.001602,0.004774
766,-0.112671,0.981961,-0.151846,0.039139,0.011279,-0.0006349999999999
767,-0.110322,0.982118,-0.152557,0.001466,0.018019,-0.005311
768,-0.108647,0.982084,-0.153972,-0.01617,0.001025,-0.018483
769,-0.10765,0.981805,-0.1564279999999999,-0.019517,-0.002908,-0.022115
770,-0.106372,0.981574,-0.158737,-0.0158659999999999,0.004083,-0.009643
771,-0.1056069999999999,0.981186,-0.161618,-0.013335,0.007339,0.009427
772,-0.105391,0.980724,-0.164537,-0.000779,0.008747,0.020173
773,-0.105693,0.980249,-0.167153,0.017939,0.020178,0.01928
774,-0.106357,0.979781,-0.169462,0.017307,0.058168,0.028975
775,-0.107498,0.979315,-0.171426,0.010865,0.123819,0.087274
776,-0.108988,0.978829,-0.173248,0.011804,0.12757,0.086959
777,-0.11116,0.978271,-0.175013,0.005035,0.1008309999999999,0.045206
778,-0.114447,0.977684,-0.176169,0.022071,0.073418,0.041923
779,-0.1180529999999999,0.977046,-0.177325,0.014659,-0.011333,0.0451839999999999
780,-0.121613,0.976019,-0.180547,0.01886,-0.023657,0.010534
781,-0.124219,0.975101,-0.183706,0.048093,-0.035922,-0.009073
782,-0.125569,0.974797,-0.184397,0.151769,-0.08225,-0.063024
783,-0.127324,0.974862,-0.182846,0.191106,-0.1163869999999999,-0.097885
784,-0.130373,0.974735,-0.18137,0.202959,-0.137485,-0.1090039999999999
785,-0.133103,0.974368,-0.181359,0.2381599999999999,-0.102465,-0.163719
786,-0.1342529999999999,0.974127,-0.181806,0.259863,-0.066412,-0.179507
787,-0.133987,0.973966,-0.182862,0.238784,0.190234,-0.131973
788,-0.132956,0.973643,-0.185317,0.1289269999999999,0.258291,-0.071229
789,-0.132627,0.973116,-0.188295,0.033872,0.129118,0.022783
790,-0.133113,0.972873,-0.1892059999999999,0.037349,0.033673,0.073636
791,-0.133703,0.973083,-0.187702,0.121496,-0.006637,0.044422
792,-0.133499,0.973601,-0.185146,0.09317,-0.036116,-0.05608
793,-0.132761,0.974086,-0.183112,0.036509,-0.042598,-0.063134
794,-0.132544,0.974142,-0.182972,-0.025553,-0.036368,-0.056454
795,-0.134305,0.973574,-0.1847079999999999,-0.120654,0.000822,0.0038299999999999
796,-0.13799,0.972838,-0.185864,-0.073817,0.078554,0.067898
797,-0.142111,0.972186,-0.186168,-0.040033,0.062848,0.059307
798,-0.145116,0.971721,-0.186279,0.001134,-0.010997,0.032364
799,-0.147241,0.971249,-0.187069,-0.011314,-0.0307889999999999,0.031826
800,-0.149222,0.970722,-0.1882319999999999,-0.019266,-0.033421,0.032593
801,-0.151502,0.970271,-0.188738,-0.036685,-0.002528,0.025469
802,-0.153838,0.969856,-0.188978,-0.0452889999999999,0.032585,0.011518
803,-0.15598,0.969387,-0.189628,-0.055736,0.0275459999999999,0.000419
804,-0.158045,0.968755,-0.191144,-0.045584,-0.007009,-0.001712
805,-0.159701,0.968074,-0.193205,-0.013257,-0.0223949999999999,0.006101
806,-0.159977,0.967898,-0.193856,0.024907,-0.0031309999999999,0.0211419999999999
807,-0.1605849999999999,0.967695,-0.19437,0.0070209999999999,0.02666,0.0153389999999999
808,-0.162502,0.967445,-0.194019,-0.042148,0.029061,0.001331
809,-0.164421,0.967025,-0.194495,-0.0577769999999999,0.014146,0.0047979999999999
810,-0.169054,0.966429,-0.193483,-0.028487,0.0289779999999999,0.031785
811,-0.171328,0.96614,-0.192924,0.012912,0.018754,0.055549
812,-0.1729089999999999,0.966702,-0.188654,0.013683,0.0140259999999999,0.046549
813,-0.176348,0.966337,-0.1873369999999999,-0.041304,0.0076319999999999,0.012166
814,-0.180284,0.965828,-0.186211,-0.047225,0.0258259999999999,-0.007087
815,-0.184376,0.965317,-0.184849,0.0004769999999999,0.026306,0.017734
816,-0.188373,0.96495,-0.18272,0.047336,0.025879,0.024319
817,-0.191698,0.964759,-0.180255,0.057314,0.008935,0.012057
818,-0.194126,0.964741,-0.177735,0.045215,-0.001133,-0.008559
819,-0.195851,0.964743,-0.175819,-0.0131939999999999,-0.024634,-0.041405
820,-0.197404,0.96461,-0.174812,-0.027862,-0.019435,-0.032631
821,-0.198968,0.964408,-0.174152,-0.021659,0.00367,-0.009091
822,-0.200598,0.964235,-0.173236,-0.0109959999999999,0.018126,0.00072
823,-0.202389,0.964075,-0.172043,-0.019474,0.034781,-0.007537
824,-0.204463,0.963905,-0.170534,-0.032567,0.0274589999999999,-0.007231
825,-0.207258,0.963659,-0.168537,-0.026491,0.030527,0.021671
826,-0.211135,0.963303,-0.165741,-0.006288,0.026108,0.03923
827,-0.215738,0.962884,-0.16221,0.002695,0.015907,0.036493
828,-0.220131,0.962552,-0.158227,0.010445,-0.015073,0.019951
829,-0.223514,0.962477,-0.153883,0.00133,-0.012495,-0.001696
830,-0.2256699999999999,0.962674,-0.149441,-0.0374829999999999,-0.01849,-0.021305
831,-0.227122,0.962926,-0.145568,-0.078726,-0.023427,-0.017869
832,-0.228725,0.962983,-0.142646,-0.0934789999999999,-0.0122239999999999,-0.018838
833,-0.230888,0.962796,-0.1404099999999999,-0.092873,-0.009137,-0.011094
834,-0.233334,0.962478,-0.138531,-0.0513039999999999,-0.0200039999999999,0.001598
835,-0.235389,0.962164,-0.137233,-0.024865,-0.017873,0.007396
836,-0.23665,0.961991,-0.136273,0.000933,-0.004944,0.0053219999999999
837,-0.237271,0.961975,-0.1353,-0.008884,0.002914,0.015686
838,-0.237573,0.96202,-0.13445,-0.021063,0.002137,0.014715
839,-0.2376849999999999,0.962053,-0.134015,-0.025484,-0.000871,0.00427
840,-0.2375699999999999,0.962043,-0.134288,-0.010355,-0.015052,-0.019551
841,-0.237092,0.962019,-0.135303,-0.001281,-0.017759,-0.02351
842,-0.236083,0.962069,-0.136703,0.019362,-0.01575,-0.0137939999999999
843,-0.234471,0.962312,-0.137762,0.0275009999999999,0.0239699999999999,0.0132199999999999
844,-0.230013,0.963548,-0.1366349999999999,0.0252699999999999,0.019972,0.021401
845,-0.227607,0.963953,-0.1378059999999999,0.024024,0.011618,0.019077
846,-0.224776,0.964391,-0.139376,0.0009449999999999,0.00413,0.005114
847,-0.222243,0.964813,-0.140516,-0.019228,0.0016179999999999,0.005323
848,-0.21944,0.965234,-0.142021,-0.030713,-0.004815,0.000252
849,-0.220125,0.964841,-0.143619,-0.044188,3e-06,-0.0004089999999999
850,-0.2180389999999999,0.965066,-0.145284,-0.033502,0.009025,0.002523
851,-0.216238,0.9652,-0.14707,-0.02955,0.0046479999999999,0.002219
852,-0.215123,0.965244,-0.148414,-0.009989,-0.000858,0.007606
853,-0.2131,0.965419,-0.15018,0.008083,0.00977,0.016162
854,-0.210511,0.965993,-0.150144,0.0076,0.002208,0.01962
855,-0.209059,0.966414,-0.149463,-0.006258,0.004732,0.007892
856,-0.2114489999999999,0.965808,-0.150014,-0.0277779999999999,0.012891,-0.003947
857,-0.2112389999999999,0.965587,-0.151725,-0.015384,0.00565,-0.00805
858,-0.210332,0.965582,-0.1530099999999999,0.019536,-0.003958,-0.003652
859,-0.209106,0.96573,-0.153754,0.013595,0.000731,0.011054
860,-0.209058,0.965903,-0.152731,-0.026355,0.0105379999999999,0.021384
861,-0.2097639999999999,0.965834,-0.152198,-0.039381,0.013613,0.0170349999999999
862,-0.210954,0.965314,-0.153839,-0.038055,-0.00514,-0.02153
863,-0.2104099999999999,0.965199,-0.155302,-0.013391,-0.007344,-0.02048
864,-0.209984,0.965126,-0.156328,0.003273,0.000755,0.010118
865,-0.209679,0.965263,-0.155888,-0.008537,0.0101549999999999,0.023183
866,-0.209635,0.965254,-0.156004,-0.029012,0.00461,0.015577
867,-0.209651,0.965216,-0.15622,-0.025274,0.006174,0.005234
868,-0.210411,0.965038,-0.156298,-0.012795,0.013783,0.000368
869,-0.211114,0.964801,-0.156809,-0.0112819999999999,0.000607,-0.004004
870,-0.2124349999999999,0.964409,-0.157435,-0.023084,-0.001992,-0.0109
871,-0.21728,0.963265,-0.157831,-0.034414,0.003593,0.000819
872,-0.220105,0.962736,-0.157139,-0.033587,0.009767,0.001637
873,-0.224602,0.961764,-0.1567319999999999,-0.032097,-0.001238,-0.003973
874,-0.2288849999999999,0.960736,-0.15684,-0.021573,0.001041,-0.0065969999999999
875,-0.23121,0.960246,-0.1564299999999999,-0.011008,0.008291,-0.011509
876,-0.232956,0.959915,-0.155869,0.007034,0.008087,-0.0071099999999999
877,-0.235474,0.95956,-0.154263,0.002091,-0.005077,-0.010959
878,-0.239369,0.959044,-0.15145,-0.0117299999999999,0.004808,0.006873
879,-0.244109,0.958299,-0.148573,-0.013261,0.0108019999999999,0.004194
880,-0.248775,0.957319,-0.147145,0.017391,0.01047,-0.038218
881,-0.25175,0.956334,-0.148481,0.06396,-0.002218,-0.0519429999999999
882,-0.255075,0.955523,-0.148029,0.089624,0.021772,0.011997
883,-0.257537,0.955146,-0.1461839999999999,0.0968929999999999,0.029229,0.005788
884,-0.259535,0.954995,-0.143619,0.053495,0.019782,-0.025387
885,-0.26122,0.95482,-0.141713,0.015325,0.01808,-0.052746
886,-0.2626199999999999,0.954491,-0.14134,0.030824,0.017616,-0.059802
887,-0.2636449999999999,0.954103,-0.142056,0.059528,0.020583,-0.055392
888,-0.263802,0.95381,-0.143717,0.073692,0.008211,-0.040517
889,-0.262713,0.953751,-0.146085,0.076662,0.012283,-0.035509
890,-0.260737,0.953891,-0.1486869999999999,0.063487,0.030148,-0.039271
891,-0.258951,0.953933,-0.1515119999999999,0.027185,0.0391699999999999,-0.050682
892,-0.257791,0.953766,-0.154514,0.032342,0.024765,-0.05264
893,-0.257142,0.953427,-0.157656,0.087662,0.024158,0.015673
894,-0.256447,0.953108,-0.160685,0.1174849999999999,0.029649,0.024958
895,-0.255198,0.952993,-0.1633349999999999,0.1181589999999999,0.0337779999999999,0.026585
896,-0.253322,0.953092,-0.16566,0.090969,0.043673,-0.017262
897,-0.251106,0.95323,-0.168224,0.061683,0.033816,-0.030812
898,-0.2488159999999999,0.953373,-0.170796,0.049002,0.0306509999999999,-0.026729
899,-0.246967,0.953479,-0.172873,0.032398,0.008054,0.004248
900,-0.2457619999999999,0.953463,-0.174668,0.033161,0.0026219999999999,-0.010131
901,-0.244871,0.953324,-0.17667,0.034407,0.003128,-0.032818
902,-0.243774,0.953165,-0.179027,0.048644,0.0030269999999999,-0.048512
903,-0.2420909999999999,0.953145,-0.181404,0.052424,0.035945,-0.035347
904,-0.239926,0.953362,-0.1831279999999999,0.051739,0.035865,-0.0261
905,-0.237653,0.953657,-0.184554,0.053587,0.017535,-0.027513
906,-0.235651,0.953769,-0.186529,0.0556889999999999,0.041318,-0.011133
907,-0.2305019999999999,0.954685,-0.188268,0.06032,0.04211,0.008916
908,-0.228957,0.954625,-0.190444,0.073394,0.028468,0.020828
909,-0.2226139999999999,0.956119,-0.190473,0.086857,0.024411,0.02583
910,-0.22077,0.956531,-0.190548,0.083151,0.015484,0.019619
911,-0.2170969999999999,0.957655,-0.189119,0.048152,0.025087,0.011674
912,-0.2155429999999999,0.958216,-0.188054,0.009717,0.0211699999999999,0.006581
913,-0.214283,0.958599,-0.187538,-0.005627,0.00156,-0.028664
914,-0.21313,0.958858,-0.187527,0.00851,0.001133,-0.011601
915,-0.211853,0.959184,-0.187307,0.015595,0.00685,0.0139979999999999
916,-0.2106699999999999,0.959689,-0.186049,-0.000877,-0.003314,0.000334
917,-0.210304,0.960097,-0.184355,-0.033318,0.030413,-0.021882
918,-0.210981,0.960118,-0.183467,-0.03406,0.0530809999999999,-0.036825
919,-0.21219,0.959797,-0.183752,0.010987,0.030956,-0.010187
920,-0.212861,0.959584,-0.184087,0.069688,0.012691,0.0308279999999999
921,-0.2127119999999999,0.959805,-0.183108,0.077,-0.004849,0.037051
922,-0.212096,0.960415,-0.180604,0.008727,-0.013119,-0.009581
923,-0.21136,0.961018,-0.178246,-0.0119379999999999,-0.001942,-0.035087
924,-0.21059,0.961368,-0.177268,-0.046291,-0.001834,-0.054803
925,-0.20998,0.96143,-0.177654,-0.046962,-0.017079,-0.047474
926,-0.209675,0.961278,-0.178832,-0.033184,-0.012365,-0.02231
927,-0.209856,0.961097,-0.17959,-0.032713,0.002999,0.0105989999999999
928,-0.210944,0.960882,-0.179469,-0.035684,0.006739,0.0155139999999999
929,-0.212982,0.960534,-0.178922,-0.037583,0.030067,0.008115
930,-0.214955,0.960147,-0.178638,0.003147,0.0165979999999999,0.007968
931,-0.216109,0.959869,-0.178742,0.024718,0.0066989999999999,0.0135509999999999
932,-0.2164739999999999,0.959776,-0.178799,0.043455,0.005846,0.006558
933,-0.2161679999999999,0.959973,-0.178109,-0.003253,-0.0083439999999999,-0.017188
934,-0.2157739999999999,0.960328,-0.176667,-0.034638,-0.007692,-0.026443
935,-0.215988,0.960513,-0.1754,-0.070053,-0.017077,-0.036438
936,-0.216889,0.960345,-0.175206,-0.055603,-0.01433,-0.031429
937,-0.217946,0.959937,-0.176128,-0.043941,-0.012778,-0.020771
938,-0.218889,0.959478,-0.177456,-0.015685,-0.00707,-0.000766
939,-0.2197739999999999,0.959109,-0.178352,-0.01985,-0.003192,0.013557
940,-0.220411,0.958959,-0.17837,-0.035845,0.004481,0.0192969999999999
941,-0.220934,0.958902,-0.17803,-0.071973,0.0082,0.0079709999999999
942,-0.22161,0.958691,-0.178324,-0.061135,-0.016461,-0.016149
943,-0.222176,0.958315,-0.17964,-0.0479189999999999,-0.021623,-0.011751
944,-0.222509,0.957998,-0.180916,-0.025843,-0.007833,0.0252
945,-0.2257219999999999,0.957538,-0.179363,-0.051729,0.008176,0.02087
946,-0.226607,0.957402,-0.178973,-0.069246,0.017543,0.009173
947,-0.2324159999999999,0.95574,-0.180399,-0.066291,-0.00437,-0.0211389999999999
948,-0.2338329999999999,0.955223,-0.181303,-0.028511,-0.007973,-0.002153
949,-0.234655,0.954928,-0.181793,0.007772,-0.000247,0.009872
950,-0.235763,0.95458,-0.182188,0.010101,0.001505,0.011427
951,-0.236851,0.9544,-0.181719,-0.029858,-0.001352,-0.014159
952,-0.24064,0.953275,-0.182647,-0.03678,0.000339,-0.0304569999999999
953,-0.242017,0.952885,-0.182862,-0.025897,-0.001682,-0.028762
954,-0.243548,0.952082,-0.184999,0.01166,-0.001566,-0.016829
955,-0.244354,0.951677,-0.186017,0.032165,0.002715,-0.011264
956,-0.243106,0.951667,-0.187694,0.017871,0.009072,-0.019795
957,-0.243404,0.951408,-0.18862,0.0002549999999999,-0.001045,-0.034509
958,-0.2432489999999999,0.950776,-0.191974,0.017419,0.005309,-0.01112
959,-0.242892,0.950502,-0.193776,0.040835,0.029066,0.012639
960,-0.2396039999999999,0.951307,-0.193919,0.033855,0.020144,0.007914
961,-0.238697,0.951397,-0.194596,0.01157,-0.00613,-0.014862
962,-0.237974,0.951036,-0.197228,-0.0034659999999999,-0.0064709999999999,-0.025581
963,-0.237368,0.950923,-0.198499,-0.010923,0.007619,-0.009463
964,-0.23718,0.950834,-0.199147,-0.004336,0.020342,0.00533
965,-0.236382,0.950868,-0.199936,0.008995,0.019423,0.0037689999999999
966,-0.234076,0.951231,-0.200918,0.011802,0.022402,-0.0081879999999999
967,-0.232577,0.951424,-0.201742,-0.000195,0.013359,-0.003595
968,-0.2315449999999999,0.951717,-0.20155,-0.000877,0.011128,0.012631
969,-0.2304389999999999,0.951922,-0.201849,0.000962,0.00958,0.013129
970,-0.228865,0.952213,-0.202266,0.0071849999999999,0.015133,-0.002644
971,-0.2270179999999999,0.952462,-0.203174,0.008588,0.017692,-0.006207
972,-0.225357,0.952687,-0.203966,0.0061649999999999,0.00732,-0.001448
973,-0.224045,0.953032,-0.203798,0.004303,0.006654,0.010576
974,-0.223216,0.953467,-0.202669,-0.00031,0.012704,0.016832
975,-0.2231659999999999,0.953688,-0.201682,-0.015558,0.020845,-0.0077599999999999
976,-0.223629,0.953564,-0.201758,-0.017353,0.012256,-0.014337
977,-0.224108,0.953304,-0.202453,-0.006422,-0.001873,-0.021821
978,-0.22423,0.952967,-0.2039,0.004854,0.013082,-0.01073
979,-0.224409,0.952859,-0.204205,0.004027,0.016272,-0.00861
980,-0.22461,0.952909,-0.20375,0.0075689999999999,0.022249,-0.004075
981,-0.223584,0.953413,-0.202519,0.039654,0.0281389999999999,0.002034
982,-0.221963,0.954059,-0.201255,0.050042,0.0275389999999999,0.004829
983,-0.2213659999999999,0.954419,-0.200205,0.084175,0.016819,0.017588
984,-0.22038,0.954892,-0.1990299999999999,0.0838899999999999,0.014987,0.0063729999999999
985,-0.218911,0.955486,-0.197801,0.062539,0.00594,-0.001098
986,-0.217175,0.956097,-0.19676,-0.001102,-0.002926,-0.011004
987,-0.215288,0.956593,-0.19642,-0.074187,0.000636,-0.01316
988,-0.21356,0.957012,-0.196265,-0.086993,0.028355,-0.016793
989,-0.212265,0.957522,-0.19518,-0.0673059999999999,0.039457,-0.008875
990,-0.2112489999999999,0.958129,-0.193294,-0.031122,0.032441,-0.0192
991,-0.210382,0.958848,-0.190659,-0.024252,0.019271,-0.021621
992,-0.2098409999999999,0.959578,-0.187558,-0.019133,-0.024748,0.003384
993,-0.209842,0.960275,-0.18395,-0.011059,-0.019434,0.0114799999999999
994,-0.210453,0.960886,-0.180019,-0.01405,0.0130669999999999,0.007625
995,-0.211773,0.961272,-0.176376,-0.015125,0.0132,0.001175
996,-0.213214,0.961534,-0.173184,-0.031186,-0.009568,-0.032047
997,-0.2145449999999999,0.961658,-0.1708339999999999,-0.041329,-0.018527,-0.037891
998,-0.214351,0.962334,-0.167233,-0.045964,-0.023552,-0.042759
999,-0.2163769999999999,0.962283,-0.164902,-0.088753,-0.029452,-0.061432
1000,-0.21524,0.963272,-0.160555,-0.141327,-0.0091709999999999,-0.083617
1001,-0.213432,0.964335,-0.156543,-0.151909,-0.0012,-0.099088
1002,-0.210509,0.965476,-0.153435,-0.07927,-0.025931,-0.102241
1003,-0.2066309999999999,0.966739,-0.150729,-0.045154,-0.016406,-0.089719
1004,-0.202335,0.968085,-0.147896,0.013721,-0.003393,-0.044289
1005,-0.197785,0.969457,-0.145031,0.0293279999999999,0.008158,-0.023365
1006,-0.192904,0.97079,-0.14267,0.019366,0.019078,-0.013
1007,-0.187849,0.972049,-0.1408299999999999,0.032942,0.01463,0.004951
1008,-0.182688,0.973261,-0.139239,0.049174,-0.012492,0.017321
1009,-0.177267,0.974514,-0.137474,0.02445,-0.0061909999999999,0.007408
1010,-0.170995,0.975908,-0.135513,-0.013056,-0.00873,-0.020997
1011,-0.163974,0.977342,-0.133847,-0.036512,-0.020128,-0.032779
1012,-0.156704,0.978626,-0.133169,-0.04636,-0.018574,-0.0311529999999999
1013,-0.149345,0.979769,-0.133223,-0.04142,-0.012896,-0.015931
1014,-0.1421079999999999,0.980849,-0.133197,-0.038724,-0.014616,0.001742
1015,-0.13669,0.981652,-0.132946,-0.02957,-0.023141,0.000347
1016,-0.130141,0.982651,-0.132139,-0.020418,-0.025177,-0.009814
1017,-0.123511,0.983696,-0.130721,-0.002404,-0.013237,-0.005876
1018,-0.1160109999999999,0.984969,-0.127975,0.023512,0.015687,0.007308
1019,-0.1078089999999999,0.986367,-0.124331,0.033118,0.044258,0.0199
1020,-0.0998309999999999,0.98768,-0.1205089999999999,0.02961,0.051871,0.050792
1021,-0.0934789999999999,0.988769,-0.116612,0.007877,0.018815,0.069249
1022,-0.089244,0.98967,-0.112203,-0.006261,0.0074459999999999,0.066183
1023,-0.086768,0.990519,-0.1065059999999999,-0.025781,0.022924,0.052444
1024,-0.085638,0.991335,-0.099603,-0.018199,0.035993,0.045755
1025,-0.085309,0.99207,-0.0923,-0.015948,0.01942,0.028671
1026,-0.0849549999999999,0.992681,-0.085833,-0.020499,-0.000448,0.00928
1027,-0.085238,0.993136,-0.080095,-0.0429509999999999,-0.015887,-0.000318
1028,-0.0832929999999999,0.993725,-0.074649,-0.074925,-0.030011,-1.3e-05
1029,-0.084783,0.993997,-0.069149,-0.072443,-0.034631,0.005779
1030,-0.0827799999999999,0.994487,-0.064359,-0.063887,-0.030605,0.003507
1031,-0.083307,0.994746,-0.0595,-0.039023,0.030919,0.0154169999999999
1032,-0.083115,0.994973,-0.0558679999999999,-0.035263,0.045326,0.048681
1033,-0.084175,0.995128,-0.0513299999999999,-0.020912,0.029805,0.072097
1034,-0.087107,0.995293,-0.042467,-0.019842,0.007804,0.0533159999999999
1035,-0.088817,0.995404,-0.035821,-0.025547,-0.006512,0.020272
1036,-0.089858,0.99555,-0.028395,-0.030992,-0.008245,-0.000169
1037,-0.090819,0.995667,-0.019989,-0.043794,0.009536,-0.021866
1038,-0.094847,0.995422,-0.011812,-0.045045,0.048691,-0.015394
1039,-0.098798,0.995104,-0.00261,-0.03403,0.052229,-0.014068
1040,-0.105423,0.994407,0.006343,-0.004654,0.03637,-0.0019329999999999
1041,-0.112978,0.993478,0.015413,0.039049,0.012214,0.0140819999999999
1042,-0.11943,0.992518,0.025387,0.050368,0.005422,0.014301
1043,-0.12691,0.991272,0.0357,0.051195,0.006302,0.008779
1044,-0.1333349999999999,0.989928,0.047581,0.0288579999999999,0.043122,0.018352
1045,-0.139522,0.988362,0.060612,0.00735,0.078166,0.0320089999999999
1046,-0.145929,0.986522,0.07402,0.009882,0.078801,0.032272
1047,-0.152573,0.984475,0.086779,0.037507,0.0136479999999999,0.042936
1048,-0.159129,0.98231,0.098718,0.051005,-0.013209,0.0417079999999999
1049,-0.1653349999999999,0.980093,0.109914,0.04798,-0.034613,0.0510199999999999
1050,-0.171151,0.977769,0.121142,0.0085989999999999,0.0783529999999999,0.0633669999999999
1051,-0.175589,0.975653,0.131413,-0.1112609999999999,0.24685,0.123241
1052,-0.17795,0.973692,0.142333,-0.149107,0.2462329999999999,0.138994
1053,-0.179773,0.971101,0.1569849999999999,-0.173406,0.095626,0.153165
1054,-0.1834869999999999,0.967655,0.1731359999999999,-0.1159359999999999,-0.069019,0.094259
1055,-0.189241,0.963897,0.187325,-0.040175,-0.163482,0.075278
1056,-0.195896,0.960146,0.1993589999999999,-0.020443,-0.218889,0.070172
1057,-0.203459,0.956447,0.2093179999999999,-0.036501,-0.210918,-0.020109
1058,-0.210677,0.953306,0.216388,-0.000124,-0.143781,-0.160892
1059,-0.21502,0.951186,0.221386,0.072655,-0.079055,-0.2310449999999999
1060,-0.214917,0.950482,0.224485,0.219861,-0.049863,-0.201902
1061,-0.209746,0.95156,0.224811,0.251403,-0.005942,-0.101383
1062,-0.201382,0.953661,0.223553,0.166104,0.027357,0.053196
1063,-0.192707,0.955928,0.2215059999999999,0.070545,0.03394,0.143515
1064,-0.184613,0.957841,0.220133,0.030149,0.049361,0.150518
1065,-0.176699,0.959146,0.2209429999999999,0.046481,0.047095,0.1121099999999999
1066,-0.167552,0.960224,0.223374,0.087947,0.00526,0.089919
1067,-0.155507,0.96154,0.226401,0.085102,-0.044014,0.058053
1068,-0.14147,0.962964,0.229537,0.02059,-0.088025,0.055833
1069,-0.126909,0.964872,0.230037,-0.054976,-0.1514869999999999,0.063817
1070,-0.1142589999999999,0.967214,0.226809,0.012559,-0.194677,0.012342
1071,-0.1033839999999999,0.97001,0.2199809999999999,0.102744,-0.178903,0.0490769999999999
1072,-0.0930179999999999,0.973474,0.209037,0.082184,-0.111551,0.09057
1073,-0.085513,0.976703,0.196823,0.051272,-0.06412,0.08432
1074,-0.081199,0.979112,0.1864029999999999,-0.028176,0.016173,0.071226
1075,-0.079333,0.98062,0.179136,-0.087094,0.100236,0.136217
1076,-0.078064,0.981316,0.1758569999999999,-0.175095,0.236061,0.198441
1077,-0.079683,0.98132,0.175104,-0.209761,0.052341,0.201071
1078,-0.086855,0.981153,0.172612,-0.114454,-0.1041079999999999,0.1076309999999999
1079,-0.096175,0.98186,0.163404,0.0644059999999999,-0.070834,-0.032072
1080,-0.103045,0.983515,0.148591,0.21889,0.053335,-0.097032
1081,-0.106044,0.985302,0.133919,0.2667489999999999,0.183765,-0.094521
1082,-0.106771,0.986759,0.122096,0.1658069999999999,0.194241,-0.0202439999999999
1083,-0.103835,0.988485,0.110075,0.0363459999999999,0.153849,0.035692
1084,-0.09757,0.990445,0.09746,-0.010981,0.09476,0.0742169999999999
1085,-0.090246,0.992171,0.0863299999999999,-0.0607549999999999,-0.024703,0.142628
1086,-0.08424,0.993296,0.079159,-0.029072,-0.0404,0.168674
1087,-0.080915,0.993926,0.074595,-0.001284,-0.052458,0.137258
1088,-0.07907,0.994617,0.066971,0.027648,-0.03284,-0.128631
1089,-0.077498,0.995614,0.052407,0.046583,0.0038369999999999,-0.294809
1090,-0.074958,0.996652,0.032656,0.056999,0.023002,-0.29671
1091,-0.071681,0.99734,0.0132039999999999,0.031978,-0.03622,-0.0792279999999999
1092,-0.0684039999999999,0.997652,-0.003357,-0.046037,-0.051043,0.0553899999999999
1093,-0.065987,0.997697,-0.015709,-0.087623,-0.032441,0.107094
1094,-0.064212,0.997596,-0.026055,-0.156353,0.025414,0.082146
1095,-0.063225,0.997274,-0.038048,-0.083382,0.0350899999999999,-0.011207
1096,-0.0632799999999999,0.996639,-0.052014,0.020219,0.030674,-0.0558049999999999
1097,-0.064461,0.995735,-0.066002,0.062477,0.021172,-0.069557
1098,-0.066523,0.994815,-0.076933,0.057734,0.012205,-0.0321829999999999
1099,-0.068514,0.994043,-0.08476,0.038271,0.014349,0.017164
1100,-0.0700279999999999,0.993261,-0.092345,0.014547,0.0046939999999999,0.102264
1101,-0.071639,0.992405,-0.099999,0.048964,0.005138,0.0269699999999999
1102,-0.073516,0.9916,-0.106423,0.050841,0.005944,0.033394
1103,-0.075404,0.990914,-0.11137,-0.0104879999999999,0.006232,-0.0233349999999999
1104,-0.0770769999999999,0.990245,-0.116075,-0.090511,0.003331,0.007203
1105,-0.079248,0.989444,-0.12133,-0.085395,-0.028079,0.0150979999999999
1106,-0.082245,0.988442,-0.127347,-0.063827,-0.042199,-0.008639
1107,-0.085462,0.987259,-0.134226,-0.0145139999999999,-0.056747,-0.050757
1108,-0.087772,0.985925,-0.142294,0.024525,-0.0487149999999999,-0.05691
1109,-0.088748,0.984533,-0.151061,0.030947,-0.030935,0.001174
1110,-0.088894,0.983129,-0.1598619999999999,0.039257,0.000178,0.043896
1111,-0.088926,0.981753,-0.16809,0.020002,0.031507,0.049926
1112,-0.089184,0.980546,-0.174862,-0.006107,0.059387,0.042751
1113,-0.089556,0.979465,-0.180634,-0.052351,0.021466,0.005417
1114,-0.090643,0.978451,-0.185521,-0.097727,0.013111,2e-05
1115,-0.092951,0.977335,-0.1902,-0.103368,0.008062,0.004989
1116,-0.096227,0.976162,-0.194548,-0.07458,0.001545,-0.021578
1117,-0.09931,0.975028,-0.19864,-0.04339,-0.013419,-0.040526
1118,-0.101829,0.973945,-0.20264,-0.0410079999999999,-0.023688,-0.043195
1119,-0.104444,0.972807,-0.206731,-0.069888,-0.000365,-0.026866
1120,-0.107109,0.971568,-0.211146,-0.084968,-0.011455,-0.0256089999999999
1121,-0.109913,0.970389,-0.215092,-0.061443,-0.0147,-0.036815
1122,-0.1130119999999999,0.96926,-0.2185489999999999,-0.041544,0.025903,-0.023516
1123,-0.1159359999999999,0.968127,-0.222013,-0.036896,0.01396,-0.004214
1124,-0.120963,0.9666,-0.225948,-0.026269,-0.011384,-0.006687
1125,-0.123769,0.965666,-0.228407,-0.028361,-0.00804,-0.008577
1126,-0.128474,0.964476,-0.230825,-0.050649,0.020479,-0.004389
1127,-0.135324,0.96273,-0.234178,-0.044013,-0.01847,-0.008819
1128,-0.1385559999999999,0.961497,-0.2373289999999999,-0.024682,-0.0283,-0.030386
1129,-0.140723,0.960546,-0.239891,-0.025216,0.009501,-0.021919
1130,-0.143063,0.959365,-0.243211,-0.0232889999999999,0.013978,-0.016936
1131,-0.144446,0.958482,-0.245862,-0.011773,0.029205,-0.012744
1132,-0.145671,0.957745,-0.2479989999999999,0.000285,0.039966,-0.003695
1133,-0.145717,0.957664,-0.2482869999999999,0.0135,0.038674,0.0196949999999999
1134,-0.146875,0.957124,-0.249682,-0.0105799999999999,0.0348959999999999,0.027377
1135,-0.148251,0.956733,-0.250368,-0.03429,0.051507,0.0248889999999999
1136,-0.149927,0.956384,-0.250703,-0.062658,0.052421,0.024537
1137,-0.156855,0.955884,-0.248358,-0.070105,0.017596,0.016119
1138,-0.158802,0.955685,-0.247888,-0.060589,0.016758,0.01211
1139,-0.160712,0.955432,-0.247632,-0.030511,0.0015539999999999,0.002774
1140,-0.162274,0.955245,-0.247335,-0.03313,-0.0178669999999999,0.003103
1141,-0.166454,0.954468,-0.247554,-0.03278,-0.017808,-0.003698
1142,-0.166928,0.954496,-0.2471269999999999,-0.031391,-0.012724,-0.012761
1143,-0.167016,0.954643,-0.2465,-0.064109,0.000405,-0.02831
1144,-0.171939,0.95349,-0.247576,-0.065197,0.011384,-0.0305459999999999
1145,-0.173165,0.953213,-0.2477869999999999,-0.04885,0.015277,-0.027894
1146,-0.173355,0.952987,-0.2485239999999999,0.017242,0.029466,-0.0176349999999999
1147,-0.175097,0.952821,-0.247938,0.029529,0.035247,-0.009401
1148,-0.176564,0.95282,-0.2469,0.075764,0.0228729999999999,0.011137
1149,-0.177609,0.953028,-0.2453429999999999,0.09097,0.013418,0.00053
1150,-0.178463,0.953325,-0.2435639999999999,0.086483,0.029555,0.010883
1151,-0.179007,0.953586,-0.242135,0.082541,0.0019649999999999,0.017648
1152,-0.179022,0.953975,-0.240591,0.073339,0.008855,0.0044909999999999
1153,-0.1788539999999999,0.954356,-0.239197,0.063467,0.02596,-0.004822
1154,-0.178788,0.954674,-0.237975,0.036515,0.023536,-0.011933
1155,-0.178797,0.954986,-0.2367119999999999,-0.002127,0.017792,0.001834
1156,-0.178969,0.955241,-0.235553,-0.01346,0.002538,0.004702
1157,-0.17962,0.955382,-0.234484,-0.0156919999999999,0.013765,0.008684
1158,-0.180525,0.955473,-0.2334119999999999,-0.027437,0.017137,0.018264
1159,-0.181464,0.955588,-0.232213,-0.031823,0.017816,0.0298209999999999
1160,-0.1825109999999999,0.955728,-0.230812,-0.02861,0.019263,0.031975
1161,-0.183666,0.955868,-0.2293099999999999,-0.024571,0.018177,0.033113
1162,-0.185027,0.956002,-0.227653,-0.01558,0.007103,0.045814
1163,-0.186704,0.956078,-0.225957,0.003217,0.003059,0.036778
1164,-0.188723,0.956136,-0.224027,0.025011,0.018825,0.024732
1165,-0.1876799999999999,0.95723,-0.2201989999999999,0.048261,0.016693,0.0143419999999999
1166,-0.189303,0.957243,-0.218746,0.067751,-0.0009599999999999,0.00172
1167,-0.190344,0.957295,-0.217615,0.0678769999999999,-0.009983,-0.002432
1168,-0.190719,0.957348,-0.217049,0.060958,0.012454,-0.024788
1169,-0.190244,0.957476,-0.2169039999999999,0.0619169999999999,0.008421,-0.023528
1170,-0.189344,0.957694,-0.216727,0.063566,0.005913,-0.021127
1171,-0.188177,0.957969,-0.216531,0.0588429999999999,0.015618,0.014901
1172,-0.186795,0.958247,-0.216496,0.036069,0.011327,0.026036
1173,-0.185552,0.958491,-0.2164869999999999,0.010243,0.0072689999999999,0.032923
1174,-0.184476,0.959325,-0.213692,0.000149,0.008311,0.03138
1175,-0.183565,0.95954,-0.213513,-0.010817,0.024149,0.0319329999999999
1176,-0.182995,0.959776,-0.212941,-0.0072819999999999,0.027987,0.025441
1177,-0.182871,0.959993,-0.212067,-0.008322,0.040618,0.023407
1178,-0.183026,0.960157,-0.211189,-0.011737,0.034137,0.018624
1179,-0.1836559999999999,0.960307,-0.209954,-0.028044,0.021932,0.010827
1180,-0.184741,0.960395,-0.2085969999999999,-0.0319949999999999,0.021402,0.014246
1181,-0.185961,0.96045,-0.207254,-0.015547,0.014449,0.011377
1182,-0.18704,0.961026,-0.2035819999999999,0.0045299999999999,0.00687,0.007278
1183,-0.18785,0.961263,-0.201708,0.005065,0.0019329999999999,0.004107
1184,-0.188094,0.961454,-0.200567,0.010298,-0.011854,0.004659
1185,-0.186332,0.961956,-0.199804,0.022453,-0.000377,0.000113
1186,-0.1855109999999999,0.962203,-0.199378,0.015437,-0.000609,-0.001779
1187,-0.185222,0.962144,-0.199928,0.002361,-0.006852,-0.009361
1188,-0.184616,0.962086,-0.200768,0.005187,-0.002369,-0.008491
1189,-0.181902,0.962489,-0.201311,0.024706,0.005696,0.003511
1190,-0.17951,0.962931,-0.201345,0.026724,0.010183,0.006765
1191,-0.176174,0.96366,-0.2008039999999999,0.012798,0.017556,0.001738
1192,-0.1745519999999999,0.963933,-0.200907,0.004966,0.0169169999999999,-0.002034
1193,-0.173675,0.964019,-0.201259,-0.008378,0.013856,-0.006901
1194,-0.173352,0.964058,-0.201349,-0.010059,0.000298,0.003381
1195,-0.172515,0.964249,-0.201152,0.000762,0.016845,0.000286
1196,-0.171489,0.964423,-0.201197,0.000164,0.013299,-0.005468
1197,-0.1708299999999999,0.964504,-0.201366,0.000481,0.004474,-0.002034
1198,-0.170211,0.964608,-0.201393,0.005493,0.016196,0.002632
1199,-0.1696609999999999,0.964748,-0.2011869999999999,0.006377,0.019581,0.008591
1200,-0.168905,0.965082,-0.20022,0.008581,0.014868,0.023661
1201,-0.1683,0.965495,-0.198732,0.0073349999999999,0.013265,0.021821
1202,-0.167962,0.96591,-0.196992,0.001977,0.014253,0.010651
1203,-0.167964,0.966071,-0.1962,-0.001394,0.015328,-0.000623
1204,-0.168007,0.96625,-0.195279,0.002816,0.0102659999999999,-0.004184
1205,-0.167868,0.966422,-0.19455,0.008735,0.01449,-0.010147
1206,-0.1672809999999999,0.966627,-0.1940329999999999,0.021224,0.016924,-0.010877
1207,-0.165918,0.966923,-0.193731,0.038355,0.019344,-0.011408
1208,-0.163382,0.967496,-0.193023,0.057837,0.02167,0.001067
1209,-0.1615049999999999,0.968034,-0.191901,0.066824,0.0081319999999999,0.0142889999999999
1210,-0.160643,0.968409,-0.1907299999999999,0.045409,0.005438,0.0131639999999999
1211,-0.15853,0.968989,-0.189549,0.026481,0.005682,0.0033909999999999
1212,-0.157173,0.969343,-0.188868,-0.013375,0.001574,-0.014868
1213,-0.156076,0.969577,-0.188576,-0.0476899999999999,-0.0143159999999999,-0.019691
1214,-0.155051,0.969703,-0.188773,-0.047173,-0.012626,-0.017251
1215,-0.154099,0.969791,-0.189098,-0.031707,0.004482,-0.000294
1216,-0.153611,0.969795,-0.189478,-0.028213,0.014504,0.022043
1217,-0.153808,0.969663,-0.189989,-0.031464,0.017077,0.029574
1218,-0.154406,0.969479,-0.190442,-0.015958,0.014041,0.032437
1219,-0.154911,0.96937,-0.19059,0.009968,0.000525,0.037743
1220,-0.155065,0.969377,-0.19043,0.027777,0.002959,0.042908
1221,-0.154962,0.969461,-0.190084,0.015802,0.004492,0.034841
1222,-0.154725,0.969536,-0.189894,-0.005721,0.001655,0.020064
1223,-0.154792,0.969486,-0.190094,-0.027963,0.002849,-0.002502
1224,-0.155298,0.969376,-0.190244,-0.047888,0.012405,-0.003314
1225,-0.158041,0.969047,-0.18966,-0.053033,0.019326,0.008279
1226,-0.158763,0.968954,-0.189532,-0.032124,0.010279,0.011004
1227,-0.159294,0.968885,-0.189439,-0.022987,0.004809,0.006929
1228,-0.16095,0.968652,-0.1892319999999999,-0.029434,0.001395,0.008629
1229,-0.16144,0.968499,-0.189598,-0.030378,0.007194,0.007378
1230,-0.161975,0.968354,-0.189881,-0.008405,0.010192,0.008241
1231,-0.161939,0.968554,-0.188887,0.009413,0.005414,0.014967
1232,-0.162178,0.968631,-0.1882869999999999,0.0018989999999999,0.011486,0.014062
1233,-0.1630849999999999,0.9687,-0.187148,-0.009462,0.0145,0.009642
1234,-0.163852,0.968667,-0.186648,-0.0072599999999999,0.01287,0.005938
1235,-0.164725,0.968532,-0.186578,-0.008005,0.005619,-0.005042
1236,-0.16576,0.968422,-0.18623,-0.008984,0.005989,0.006069
1237,-0.166381,0.968366,-0.185971,-0.005402,0.003329,0.003232
1238,-0.167177,0.968163,-0.186313,-0.002394,0.006065,-0.0034909999999999
1239,-0.167427,0.967981,-0.1870339999999999,0.007454,0.011863,-0.00547
1240,-0.167374,0.967919,-0.1874,0.011216,0.019157,-0.004403
1241,-0.16585,0.968199,-0.187308,0.024263,0.020326,0.001425
1242,-0.165131,0.968394,-0.186935,0.023865,0.01653,0.005264
1243,-0.165026,0.96855,-0.186219,0.010882,0.0143449999999999,0.0115819999999999
1244,-0.165696,0.968684,-0.184924,-0.01036,0.006643,0.011706
1245,-0.167207,0.968615,-0.183919,-0.017745,0.003827,0.006612
1246,-0.16792,0.968651,-0.183081,-0.002627,0.006874,0.013403
1247,-0.168578,0.96868,-0.182318,0.000899,0.007546,0.011892
1248,-0.1691619999999999,0.968698,-0.18168,0.000766,0.007025,0.01066
1249,-0.169844,0.968626,-0.18143,-0.003054,0.005465,0.008075
1250,-0.171209,0.968564,-0.180474,-0.008829,0.013385,0.0071959999999999
1251,-0.172341,0.968596,-0.179221,-0.000221,0.020906,0.008383
1252,-0.173614,0.968512,-0.178443,0.002288,0.020776,0.004523
1253,-0.174738,0.968507,-0.177371,4e-05,0.0067129999999999,0.002826
1254,-0.175732,0.968482,-0.176526,-0.000446,-0.0004639999999999,0.000744
1255,-0.176573,0.968444,-0.175892,0.001692,-0.003234,-0.004375
1256,-0.177202,0.968264,-0.176252,-0.000608,-0.003954,-0.018618
1257,-0.177194,0.968066,-0.17734,0.006403,0.000317,-0.0262269999999999
1258,-0.175537,0.96814,-0.178585,0.025131,0.008438,-0.005207
1259,-0.174646,0.968324,-0.178458,0.0309389999999999,0.019286,0.008017
1260,-0.172872,0.96883,-0.1774339999999999,0.033193,0.02499,0.025319
1261,-0.171766,0.969264,-0.1761349999999999,0.017347,0.023168,0.023043
1262,-0.171715,0.96947,-0.175051,0.0019,0.02139,0.026094
1263,-0.172033,0.969593,-0.1740519999999999,-0.017313,0.0153009999999999,0.018382
1264,-0.173251,0.969722,-0.172114,-0.043271,-0.003551,0.008875
1265,-0.174164,0.969827,-0.170598,-0.070221,-0.0139699999999999,-0.010784
1266,-0.175295,0.969807,-0.169545,-0.089537,-0.014805,-0.017131
1267,-0.176432,0.969679,-0.169099,-0.088904,-0.009565,-0.022414
1268,-0.1774329999999999,0.969513,-0.1690019999999999,-0.074047,-0.009995,-0.009984
1269,-0.1784599999999999,0.969333,-0.168957,-0.0508949999999999,-0.0049619999999999,-0.016056
1270,-0.179456,0.969204,-0.168638,-0.024371,0.001133,-0.010576
1271,-0.180168,0.969188,-0.167967,-0.005256,0.011021,4.5e-05
1272,-0.180615,0.969238,-0.167202,-0.002566,0.0074319999999999,0.011196
1273,-0.181098,0.969236,-0.166686,-0.011071,0.00725,0.018111
1274,-0.181773,0.969162,-0.166383,-0.014852,0.003845,0.018052
1275,-0.18266,0.969071,-0.16594,-0.034625,0.003814,0.003632
1276,-0.183649,0.968992,-0.1653109999999999,-0.046286,-0.001997,0.002286
1277,-0.184671,0.968913,-0.164633,-0.048621,-0.0033979999999999,0.004965
1278,-0.185597,0.968857,-0.163918,-0.0536149999999999,-0.002503,-0.000267
1279,-0.190276,0.968116,-0.162932,-0.046601,-0.011817,-0.0021379999999999
1280,-0.191269,0.967998,-0.16247,-0.056977,-0.00883,-0.006429
1281,-0.192355,0.967838,-0.162141,-0.076444,-0.006214,-0.0151659999999999
1282,-0.19595,0.967053,-0.16252,-0.065449,-0.008648,-0.010881
1283,-0.197939,0.966598,-0.162817,-0.009901,-0.006454,0.001302
1284,-0.198107,0.966585,-0.162688,0.00081,0.005949,0.0117019999999999
1285,-0.198273,0.966642,-0.162143,-0.0008539999999999,0.0063799999999999,0.020206
1286,-0.1985839999999999,0.966556,-0.162275,-0.020257,0.005901,0.016248
1287,-0.199222,0.966429,-0.162251,-0.030347,0.0131389999999999,0.014531
1288,-0.199889,0.966331,-0.162018,-0.021333,0.009438,0.0132139999999999
1289,-0.20035,0.966299,-0.161638,-0.021879,0.005427,0.015977
1290,-0.200746,0.966293,-0.161178,-0.028548,0.002258,0.013427
1291,-0.204717,0.965343,-0.161873,-0.0413,-0.008541,-0.01461
1292,-0.2067969999999999,0.964742,-0.1628109999999999,-0.039556,-0.011541,-0.017594
1293,-0.2079639999999999,0.964356,-0.163609,-0.017897,-0.0126959999999999,-0.007945
1294,-0.2091329999999999,0.964054,-0.163902,-0.010517,0.0082519999999999,0.005867
1295,-0.20954,0.963971,-0.163869,-0.005197,0.014499,0.006338
1296,-0.2090489999999999,0.96392,-0.164793,0.015201,0.012795,-0.00345
1297,-0.209007,0.963841,-0.1653099999999999,0.01516,0.012875,-0.002933
1298,-0.208529,0.963923,-0.165432,0.008135,0.00501,-0.003406
1299,-0.209794,0.96358,-0.1658329999999999,-0.025633,0.003568,-0.007354
1300,-0.210527,0.963331,-0.166346,-0.0277839999999999,-0.001112,-0.006567
1301,-0.210365,0.963302,-0.166723,-0.0169759999999999,-0.001769,-0.002131
1302,-0.211601,0.963037,-0.166685,-0.018257,0.002966,0.001509
1303,-0.212909,0.9627,-0.166966,-0.017987,0.0016699999999999,-0.00233
1304,-0.21405,0.962302,-0.167804,-0.011414,0.002664,-0.010617
1305,-0.214344,0.962081,-0.168689,0.001423,0.006653,-0.007153
1306,-0.213702,0.962173,-0.168984,0.010196,0.0118269999999999,-0.001106
1307,-0.213284,0.962255,-0.169043,0.004376,0.005091,-0.004251
1308,-0.213456,0.962165,-0.1693349999999999,-0.004608,0.004174,-0.010184
1309,-0.213725,0.961997,-0.169952,-0.010808,0.003946,-0.0130009999999999
1310,-0.2136159999999999,0.961968,-0.170254,-0.006049,-3.8e-05,-0.012195
1311,-0.213294,0.961914,-0.170957,-0.000222,-0.002625,-0.007815
1312,-0.213082,0.961795,-0.171891,-0.006065,0.00253,-0.006057
1313,-0.2124869999999999,0.961793,-0.17264,-0.001594,0.005981,-0.004377
1314,-0.211641,0.961898,-0.17309,-0.004454,0.0224469999999999,0.001627
1315,-0.211662,0.961986,-0.172574,-0.014656,0.010304,0.0087549999999999
1316,-0.2121179999999999,0.961925,-0.172353,-0.024897,0.009815,0.004064
1317,-0.212862,0.961812,-0.172067,-0.0241979999999999,0.011302,0.005121
1318,-0.2139239999999999,0.961697,-0.171394,-0.014424,0.008426,0.006614
1319,-0.214361,0.96166,-0.1710559999999999,-0.009699,-0.002401,0.003774
1320,-0.214753,0.961601,-0.170893,-0.010482,0.001549,-6e-06
1321,-0.21535,0.961452,-0.17098,-0.009473,0.00652,-0.002634
1322,-0.215779,0.96138,-0.170847,-0.011592,0.0082709999999999,0.001489
1323,-0.216031,0.961385,-0.170495,0.000837,0.0060979999999999,0.007913
1324,-0.215746,0.961458,-0.170446,0.006365,0.007719,0.0068569999999999
1325,-0.215331,0.961621,-0.1700539999999999,0.011886,0.009891,0.009333
1326,-0.2156489999999999,0.961696,-0.169224,-0.017398,0.011815,0.00687
1327,-0.216529,0.961588,-0.168712,-0.022164,0.0089629999999999,0.006374
1328,-0.2174179999999999,0.961445,-0.1683859999999999,-0.016102,0.00784,0.001165
1329,-0.218286,0.961287,-0.168163,-0.00318,0.004793,0.001216
1330,-0.2187079999999999,0.961218,-0.168009,0.002689,0.0035189999999999,0.001047
1331,-0.218567,0.961281,-0.1678319999999999,0.009643,0.006386,0.002259
1332,-0.218435,0.961327,-0.167741,0.008215,0.01197,-0.002349
1333,-0.218498,0.961346,-0.167549,0.0019149999999999,0.014957,0.000832
1334,-0.218757,0.961338,-0.167257,-0.005715,0.010891,-0.000849
1335,-0.2191739999999999,0.961283,-0.167026,-0.008136,0.003546,-0.0030329999999999
1336,-0.219437,0.961216,-0.167064,-0.004058,0.001812,-0.009023
1337,-0.219677,0.961103,-0.167397,-0.0031309999999999,-0.000792,-0.006675
1338,-0.219955,0.960957,-0.167874,-0.004517,0.001201,-0.005679
1339,-0.219793,0.960934,-0.168215,0.001913,0.003375,-0.0033399999999999
1340,-0.219217,0.960961,-0.168813,0.004618,0.0053479999999999,-0.005473
1341,-0.218805,0.960989,-0.16919,0.002435,0.006388,0.000321
1342,-0.21845,0.96101,-0.16953,-0.0039619999999999,0.0080299999999999,0.000462
1343,-0.21816,0.96108,-0.1695,-0.00207,0.010813,0.005606
1344,-0.217973,0.961089,-0.16969,-0.002501,0.009629,0.008176
1345,-0.218182,0.961156,-0.169043,-0.00626,0.01121,0.008627
1346,-0.218509,0.96116,-0.1686,-0.008648,0.009162,0.009023
1347,-0.219489,0.96106,-0.167895,-0.015512,0.010315,0.004031
1348,-0.220764,0.960871,-0.167303,-0.016648,0.005163,0.001592
1349,-0.2219699999999999,0.960676,-0.166828,-0.0146169999999999,0.008425,0.001942
1350,-0.222838,0.960537,-0.166469,-0.009844,0.005711,0.002101
1351,-0.223452,0.960422,-0.1663099999999999,-0.005109,-0.000644,0.000279
1352,-0.223475,0.960387,-0.166482,0.005671,-0.00154,-0.000404
1353,-0.223331,0.960382,-0.166703,0.001605,0.001792,-0.000106
1354,-0.223171,0.960375,-0.166958,-0.00481,0.006559,0.002865
1355,-0.222806,0.960414,-0.167219,-0.001666,0.007222,0.004621
1356,-0.2223159999999999,0.960464,-0.1675849999999999,0.001125,0.006379,0.002317
1357,-0.221902,0.960478,-0.168051,-0.002723,0.007356,-0.001276
1358,-0.221528,0.960499,-0.168422,-0.006682,0.009044,0.002177
1359,-0.221061,0.960535,-0.1688339999999999,-0.004892,0.007162,4.1e-05
1360,-0.220367,0.960613,-0.169296,0.003067,0.003254,0.000808
1361,-0.21977,0.960653,-0.169842,0.003477,0.003168,0.000637
1362,-0.219059,0.960731,-0.170318,-0.001995,0.007683,0.001906
1363,-0.218471,0.960795,-0.170714,-0.002995,0.007986,0.002517
1364,-0.217862,0.960859,-0.17113,-0.001987,0.0073409999999999,0.005526
1365,-0.217332,0.960949,-0.1713,-0.0048049999999999,0.006931,0.005757
1366,-0.216792,0.961052,-0.171405,-0.00504,0.010185,0.007755
1367,-0.2164199999999999,0.961153,-0.171312,-0.009456,0.0111069999999999,0.0070959999999999
1368,-0.2165659999999999,0.961122,-0.1713,-0.017275,0.00656,0.002477
1369,-0.216981,0.961004,-0.1714369999999999,-0.013732,0.008601,0.00449
1370,-0.216822,0.96102,-0.171549,-0.0074819999999999,0.009912,0.004252
1371,-0.2167219999999999,0.96105,-0.171507,-0.005934,0.007532,0.0064069999999999
1372,-0.217648,0.960955,-0.170863,-0.022632,0.0105569999999999,0.00526
1373,-0.218281,0.96087,-0.170537,-0.021877,0.009452,0.0033759999999999
1374,-0.219105,0.960767,-0.170059,-0.019833,0.008273,0.008576
1375,-0.220263,0.960677,-0.169066,-0.00868,0.0149539999999999,0.011443
1376,-0.2212239999999999,0.960633,-0.168063,-0.0071239999999999,0.015655,0.005602
1377,-0.2218969999999999,0.960578,-0.167486,-0.007412,0.011208,0.001119
1378,-0.2220599999999999,0.960554,-0.167409,0.004897,-0.000547,-0.008617
1379,-0.2219,0.960585,-0.167442,0.012107,-0.003401,-0.012383
1380,-0.22174,0.960572,-0.167726,-0.0088659999999999,0.009063,-0.000792
1381,-0.221993,0.960561,-0.167455,-0.011878,0.013346,0.001867
1382,-0.222171,0.960576,-0.167131,-0.004208,0.010966,0.003481
1383,-0.221743,0.960751,-0.166697,0.016848,0.0055119999999999,0.00062
1384,-0.221266,0.960893,-0.166509,0.016691,0.009352,-0.002787
1385,-0.220754,0.961055,-0.166256,0.004049,0.0112959999999999,-0.001835
1386,-0.221048,0.960987,-0.16626,-0.009375,0.008603,-0.012008
1387,-0.2210389999999999,0.960939,-0.166547,-0.001449,0.0064379999999999,-0.021518
1388,-0.220625,0.960955,-0.1670029999999999,0.020109,-0.003176,-0.015721
1389,-0.2192579999999999,0.961152,-0.167672,0.018223,0.005767,-0.00933
1390,-0.218448,0.961274,-0.168027,0.010166,0.010131,-0.010104
1391,-0.2175949999999999,0.961431,-0.168233,-0.004726,0.008814,-0.008342
1392,-0.216981,0.96152,-0.168518,-0.006912,0.009641,0.000717
1393,-0.2162659999999999,0.961696,-0.168435,-0.003277,0.012318,0.00454
1394,-0.215786,0.961833,-0.168266,-0.006351,0.008397,0.001869
1395,-0.21569,0.961914,-0.167923,-0.010384,0.018982,-0.002212
1396,-0.215571,0.962035,-0.167383,-0.007528,0.0191509999999999,0.002298
1397,-0.215496,0.962225,-0.1663859999999999,-0.001652,0.0067989999999999,0.006626
1398,-0.215257,0.962468,-0.165288,0.005907,0.008647,0.003972
1399,-0.215385,0.962612,-0.164279,-0.0004509999999999,0.006825,0.003512
1400,-0.2157909999999999,0.962693,-0.163268,-0.010527,0.011474,-0.001725
1401,-0.216528,0.96269,-0.1623089999999999,-0.013498,0.010333,-0.0036609999999999
1402,-0.217074,0.962729,-0.161342,-0.011442,0.008264,-0.0036659999999999
1403,-0.21764,0.962764,-0.160372,-0.006893,0.002446,-0.000822
1404,-0.218158,0.96286,-0.159085,-0.005444,0.002472,0.0075959999999999
1405,-0.218281,0.962948,-0.158381,-0.000851,0.000492,-0.001867
1406,-0.2181699999999999,0.963066,-0.157814,0.001358,0.007759,-0.001029
1407,-0.218086,0.963191,-0.157167,-0.001778,0.003377,0.005419
1408,-0.217909,0.963329,-0.156565,-0.002061,0.002644,0.007212
1409,-0.2177599999999999,0.963425,-0.1561799999999999,-0.007948,0.00183,0.003973
1410,-0.217533,0.963501,-0.156027,-0.0010949999999999,0.004303,0.001029
1411,-0.2169739999999999,0.963648,-0.155898,-0.004019,0.010183,0.002333
1412,-0.216265,0.963856,-0.155601,-0.004468,0.001919,0.010169
1413,-0.21536,0.964094,-0.155379,-0.001193,0.008837,0.014281
1414,-0.214628,0.964329,-0.154933,-0.006258,0.006313,0.009059
1415,-0.214023,0.964506,-0.15467,-0.005047,0.001559,0.011237
1416,-0.213533,0.964617,-0.154656,-0.005843,0.008589,0.008508
1417,-0.2134219999999999,0.964722,-0.154151,-0.007967,0.015594,0.010398
1418,-0.213668,0.964753,-0.153617,-0.012269,0.010818,0.005775
1419,-0.213953,0.964718,-0.153438,-0.015402,0.004657,0.002559
1420,-0.21464,0.964571,-0.153401,-0.0109,0.003706,-0.00207
1421,-0.214943,0.964529,-0.153242,-0.001015,0.005152,0.002714
1422,-0.214821,0.964607,-0.152921,0.001366,0.002709,0.00485
1423,-0.214435,0.964713,-0.152796,-0.000607,0.003549,0.0004219999999999
1424,-0.214398,0.964673,-0.153099,-0.017688,0.0063659999999999,-0.004204
1425,-0.214007,0.964675,-0.153634,-0.0211009999999999,0.003602,-0.001898
1426,-0.213251,0.964754,-0.154188,-0.010581,0.001173,0.00955
1427,-0.212256,0.964887,-0.154726,-0.005868,0.001864,0.012118
1428,-0.2113519999999999,0.965041,-0.155005,-0.009535,0.003343,0.012137
1429,-0.210619,0.965102,-0.155624,-0.018095,0.007188,0.014022
1430,-0.2104889999999999,0.965073,-0.155978,-0.020361,0.009918,0.013171
1431,-0.2103969999999999,0.965045,-0.156274,-0.016806,0.0111209999999999,0.01127
1432,-0.210225,0.964995,-0.156813,-0.015086,0.00731,0.001295
1433,-0.210008,0.96494,-0.15744,-0.014266,0.010097,0.001251
1434,-0.2101449999999999,0.964829,-0.157938,-0.018005,0.011856,0.001032
1435,-0.211274,0.964493,-0.158485,-0.010909,0.004898,-0.004006
1436,-0.211853,0.964304,-0.158859,-0.006729,0.009222,-0.004334
1437,-0.212484,0.964122,-0.159118,0.00118,0.009343,-0.002473
1438,-0.212486,0.964057,-0.159511,0.016334,0.003686,-0.006246
1439,-0.212469,0.963974,-0.1600339999999999,0.014394,0.006866,-0.011154
1440,-0.21278,0.963784,-0.160764,0.005139,0.0071629999999999,-0.015384
1441,-0.213231,0.963618,-0.161159,0.001714,0.008595,-0.014119
1442,-0.2135,0.963467,-0.161705,0.000381,0.0064269999999999,-0.008903
1443,-0.213761,0.963287,-0.162432,0.0003509999999999,0.002701,-0.014265
1444,-0.214,0.963128,-0.163057,0.0002399999999999,0.00228,-0.008604
1445,-0.21404,0.963018,-0.163653,0.007055,0.004206,-0.002226
1446,-0.213942,0.962951,-0.164177,0.007048,0.0069739999999999,0.001625
1447,-0.2139989999999999,0.962859,-0.164644,0.005702,0.010789,0.002703
1448,-0.213971,0.962819,-0.164909,0.005765,0.013789,0.0064459999999999
1449,-0.213786,0.962827,-0.165102,0.003352,0.012118,-5.9e-05
1450,-0.213693,0.962793,-0.165426,0.002802,0.013984,-0.000849
1451,-0.2137119999999999,0.962744,-0.165686,-0.0020629999999999,0.0128569999999999,-0.003625
1452,-0.213856,0.962638,-0.1661119999999999,-0.002254,0.010293,-0.0077469999999999
1453,-0.214081,0.962552,-0.16632,-0.000824,0.0097989999999999,-0.0038759999999999
1454,-0.214101,0.962512,-0.1665289999999999,0.0103349999999999,0.00868,-0.005056
1455,-0.213769,0.962548,-0.166747,0.007928,0.008582,-0.003343
1456,-0.2137489999999999,0.962555,-0.166732,0.004658,0.010605,-0.005631
1457,-0.21378,0.962532,-0.166824,-0.00143,0.008751,-0.010712
1458,-0.214101,0.962404,-0.167154,-0.013255,0.0033399999999999,-0.00727
1459,-0.214255,0.962335,-0.167354,-0.011926,0.002998,-0.006536
1460,-0.214394,0.962267,-0.167565,-0.0054859999999999,0.00543,-0.005057
1461,-0.2147619999999999,0.962173,-0.167633,-0.017751,0.006532,-0.001236
1462,-0.215067,0.962126,-0.167509,-0.021582,0.007036,0.001493
1463,-0.215692,0.962001,-0.167427,-0.01554,0.014165,-0.002098
1464,-0.216134,0.96194,-0.167207,-0.010948,0.012578,0.000657
1465,-0.216492,0.961936,-0.166763,-0.01091,0.009164,0.0025629999999999
1466,-0.217484,0.96185,-0.165968,-0.0198659999999999,0.0088069999999999,0.0030039999999999
1467,-0.218467,0.961758,-0.165208,-0.0174789999999999,0.011051,0.002992
1468,-0.219169,0.961764,-0.16424,-0.014138,0.0088019999999999,0.011073
1469,-0.220351,0.961733,-0.1628339999999999,-0.015962,0.00543,0.009773
1470,-0.221371,0.961668,-0.16183,-0.017261,0.000734,0.006786
1471,-0.22282,0.961536,-0.160623,-0.0155979999999999,0.0037049999999999,0.00857
1472,-0.223975,0.961429,-0.159653,-0.014886,0.005871,0.007309
1473,-0.2252849999999999,0.961302,-0.15857,-0.009823,0.009691,0.004837
1474,-0.226408,0.96125,-0.157282,-0.003588,0.0113599999999999,0.007089
1475,-0.227348,0.96125,-0.155924,0.000953,0.012872,0.00268
1476,-0.228205,0.961233,-0.154768,0.002299,0.004725,0.000425
1477,-0.2290869999999999,0.961193,-0.1537089999999999,0.000678,0.003116,-0.00045
1478,-0.229844,0.961121,-0.153031,0.003144,0.002426,-0.005691
1479,-0.23038,0.961042,-0.15272,0.007464,0.0023829999999999,-0.006155
1480,-0.2306679999999999,0.961023,-0.152402,0.009019,0.009741,-0.006991
1481,-0.230804,0.96104,-0.152093,0.008148,0.005696,-0.0047979999999999
1482,-0.230989,0.961038,-0.151821,0.00995,0.004935,-0.004887
1483,-0.230698,0.961121,-0.151741,0.00734,0.009705,-0.00431
1484,-0.230663,0.961182,-0.151403,0.004772,0.012527,-0.006083
1485,-0.230505,0.961301,-0.150893,0.00173,0.0123629999999999,-0.000841
1486,-0.230516,0.961372,-0.15042,-0.0064379999999999,0.003884,0.001998
1487,-0.230393,0.961407,-0.150385,-0.0009449999999999,0.001652,-0.003469
1488,-0.230233,0.961424,-0.150522,-0.003547,0.001268,-0.004049
1489,-0.230152,0.961414,-0.1507099999999999,-0.006359,0.002041,-0.001725
1490,-0.2299139999999999,0.961401,-0.151153,-0.0002189999999999,0.0031829999999999,-0.0046549999999999
1491,-0.229488,0.961423,-0.151661,0.006923,0.004001,-0.002041
1492,-0.228807,0.961512,-0.152123,0.001161,0.006658,-5.3e-05
1493,-0.2283099999999999,0.961609,-0.152257,-0.002479,0.009994,0.007818
1494,-0.2278639999999999,0.96171,-0.152289,-0.005381,0.009756,0.005256
1495,-0.22762,0.961758,-0.152353,-0.006816,0.010761,0.001383
1496,-0.227336,0.9618,-0.152513,-0.003865,0.009239,-0.002028
1497,-0.227298,0.961794,-0.152605,-0.006298,0.005461,-0.002058
1498,-0.227142,0.961798,-0.15281,-0.003204,0.003656,-0.002662
1499,-0.226842,0.961792,-0.153296,0.002705,0.000184,-0.00747
1500,-0.22644,0.961814,-0.153747,0.000686,0.010415,-0.0032359999999999
1501,-0.226277,0.961812,-0.154001,-0.003322,0.010829,-0.001334
1502,-0.226192,0.961829,-0.15402,-0.004598,0.009637,0.0041329999999999
1503,-0.226151,0.961854,-0.153926,0.0008089999999999,0.0086819999999999,0.005748
1504,-0.225827,0.961946,-0.153826,0.006726,0.015929,0.003542
1505,-0.225636,0.96204,-0.153519,-0.002651,0.0102659999999999,0.0012369999999999
1506,-0.225903,0.962001,-0.153371,-0.0094939999999999,0.007848,-0.0033829999999999
1507,-0.2261429999999999,0.961959,-0.153282,-0.008721,0.00406,-0.0017929999999999
1508,-0.226444,0.961912,-0.153126,-0.004879,0.007311,-0.001751
1509,-0.226733,0.961904,-0.152751,-0.001477,0.004695,0.002498
1510,-0.227044,0.961861,-0.152558,-0.001716,0.005821,-0.000197
1511,-0.227011,0.961891,-0.152417,0.004202,0.014183,-0.00249
1512,-0.226767,0.961965,-0.152315,0.003592,0.007075,-0.002912
1513,-0.22673,0.96198,-0.152278,0.001678,0.001308,-0.000782
1514,-0.2266929999999999,0.961966,-0.152422,0.002206,0.0015199999999999,-0.003111
1515,-0.2266369999999999,0.961939,-0.152676,-0.001787,0.007376,-0.0014529999999999
1516,-0.226437,0.96194,-0.152962,-0.0032689999999999,0.010182,-0.003593
1517,-0.225973,0.961951,-0.153582,0.000722,0.006113,-0.005506
1518,-0.2255489999999999,0.961978,-0.154034,0.005776,0.002378,-0.005527
1519,-0.2247239999999999,0.962087,-0.154557,0.0105209999999999,0.0038399999999999,0.000657
1520,-0.223578,0.962272,-0.155068,0.00614,0.0066,0.000985
1521,-0.2227219999999999,0.96238,-0.155626,0.001805,0.004981,-0.001021
1522,-0.222099,0.96244,-0.156145,-0.007393,0.004357,0.001741
1523,-0.2218719999999999,0.962471,-0.15628,-0.01351,0.007088,0.008315
1524,-0.221719,0.962524,-0.156168,-0.017477,0.00763,0.014093
1525,-0.222504,0.962459,-0.15545,-0.023193,0.008717,0.015206
1526,-0.223515,0.962329,-0.154801,-0.023265,0.0074129999999999,0.014466
1527,-0.224363,0.962204,-0.154351,-0.020693,0.007248,0.009285
1528,-0.225165,0.96209,-0.153894,-0.018594,0.012275,0.0068
1529,-0.226375,0.961878,-0.153446,-0.026006,0.004629,0.003986
1530,-0.227926,0.961496,-0.153541,-0.025508,-0.002787,-0.00332
1531,-0.228653,0.961305,-0.153659,-0.011261,0.0038439999999999,0.002262
1532,-0.228703,0.961315,-0.153522,0.005635,0.019322,0.002582
1533,-0.228188,0.961497,-0.153143,0.012704,-0.001979,0.00855
1534,-0.2278659999999999,0.961615,-0.152886,-0.005273,0.005808,-0.005745
1535,-0.228079,0.961542,-0.153025,-0.015024,0.003225,-0.009206
1536,-0.228542,0.96138,-0.153351,-0.018299,0.000366,-0.010452
1537,-0.228979,0.961177,-0.153974,-0.009623,0.01444,-0.011019
1538,-0.2291369999999999,0.961118,-0.154103,-0.006367,0.004672,-0.002131
1539,-0.228855,0.961137,-0.1544029999999999,-8.8e-05,0.003828,-0.002427
1540,-0.227801,0.961285,-0.155038,0.013018,0.004047,-0.005454
1541,-0.227076,0.961407,-0.155346,0.011897,0.003909,-0.008061
1542,-0.226455,0.96148,-0.155805,-0.015595,0.00727,-0.003085
1543,-0.226642,0.961351,-0.156326,-0.014356,-0.0015429999999999,-0.00238
1544,-0.2261639999999999,0.961361,-0.1569549999999999,-0.007326,0.00188,-0.0033689999999999
1545,-0.2254449999999999,0.961437,-0.157523,-0.0033299999999999,0.012669,-0.001855
1546,-0.224728,0.961544,-0.157894,-0.006382,0.006245,0.0023
1547,-0.224025,0.961679,-0.158071,-0.00588,0.004675,0.009419
1548,-0.223486,0.961795,-0.158127,-0.010844,0.011883,0.008423
1549,-0.2236659999999999,0.961762,-0.158071,-0.020673,0.0130759999999999,0.000478
1550,-0.2233889999999999,0.961829,-0.158058,-0.016144,0.012643,0.000557
1551,-0.223401,0.961938,-0.157379,-0.007022,-0.003747,0.019974
1552,-0.223448,0.962026,-0.156772,-0.004808,0.000636,0.020405
1553,-0.223719,0.962058,-0.156185,-0.01383,0.019631,0.008312
1554,-0.224739,0.961918,-0.155584,-0.020103,0.019833,-0.004054
1555,-0.2255469999999999,0.961822,-0.155004,-0.015526,0.020752,-0.004862
1556,-0.2264789999999999,0.961707,-0.154361,-0.007164,0.011148,-0.004834
1557,-0.2274949999999999,0.961613,-0.153447,0.003649,0.0062369999999999,-0.000331
1558,-0.2280969999999999,0.961574,-0.152796,0.011636,0.005924,-0.005956
1559,-0.227759,0.961756,-0.1521559999999999,0.028388,0.003454,0.000179
1560,-0.226234,0.962227,-0.151453,0.019584,0.00811,-0.000479
1561,-0.225315,0.962502,-0.15107,0.0098459999999999,-0.002206,0.0005269999999999
1562,-0.224911,0.962481,-0.151808,-0.006519,-0.00078,-0.008867
1563,-0.224861,0.962375,-0.152555,-0.0113,0.0135319999999999,-0.007617
1564,-0.224318,0.962421,-0.153063,-0.01169,0.010159,-0.006926
1565,-0.223185,0.962565,-0.15381,0.013437,0.000173,0.002641
1566,-0.2206679999999999,0.963008,-0.154666,0.0291089999999999,-0.000453,0.005343
1567,-0.2185409999999999,0.963305,-0.155833,0.020207,0.018431,-0.000127
1568,-0.216333,0.963642,-0.156829,0.0006799999999999,0.020306,-0.00374
1569,-0.214959,0.963829,-0.157566,-0.009849,0.0189289999999999,-0.0017059999999999
1570,-0.2137909999999999,0.964033,-0.157906,0.001816,0.013934,0.006569
1571,-0.212243,0.964414,-0.157667,0.019204,0.007144,0.013227
1572,-0.211696,0.964589,-0.157333,0.010768,0.020855,0.007232
1573,-0.212132,0.964625,-0.156519,-0.014385,0.016133,0.000207
1574,-0.2131239999999999,0.964486,-0.156031,-0.018032,0.009803,0.001673
1575,-0.213509,0.964493,-0.155461,-0.003822,0.01149,0.004994
1576,-0.2132099999999999,0.964698,-0.154594,0.005797,0.007073,0.010704
1577,-0.213188,0.964801,-0.1539819999999999,-0.002846,0.00343,0.001852
1578,-0.2132869999999999,0.964763,-0.154079,-0.008072,-0.002559,-0.004811
1579,-0.213257,0.964699,-0.15452,-0.001175,0.000648,0.007501
1580,-0.212759,0.964801,-0.154572,0.0048579999999999,0.00401,0.0144199999999999
1581,-0.21235,0.964914,-0.1544309999999999,0.007623,0.006842,0.01585
1582,-0.212378,0.964931,-0.1542859999999999,-0.002878,0.0131729999999999,0.005452
1583,-0.212784,0.964879,-0.154051,-0.013611,0.018718,0.002012
1584,-0.213234,0.964836,-0.153696,-0.009925,0.019997,0.000712
1585,-0.213615,0.964849,-0.153083,0.001183,0.0143229999999999,0.001472
1586,-0.214414,0.964754,-0.152565,-0.003146,0.005003,-0.002876
1587,-0.2151219999999999,0.964645,-0.1522599999999999,-0.001354,0.005204,-0.007363
1588,-0.215525,0.964521,-0.152475,0.00059,0.001208,-0.0133569999999999
1589,-0.215861,0.964481,-0.152247,0.003596,0.001903,-0.006124
1590,-0.2161719999999999,0.964427,-0.152151,0.004303,0.001668,-0.00567
1591,-0.216871,0.964213,-0.152513,-0.005496,0.004369,-0.009932
1592,-0.217353,0.964123,-0.152394,-0.002816,0.007862,-0.001338
1593,-0.2177489999999999,0.964054,-0.15227,-0.003885,0.005246,0.002963
1594,-0.217828,0.964028,-0.152316,0.006219,0.000571,0.00014
1595,-0.218473,0.963875,-0.152363,-0.016802,0.012749,-0.000118
1596,-0.219385,0.963669,-0.152356,-0.027701,0.0047,-0.002078
1597,-0.220302,0.963456,-0.1523769999999999,-0.022527,0.001433,-0.001539
1598,-0.221157,0.963267,-0.152337,-0.015552,0.002462,0.001245
1599,-0.222094,0.963055,-0.152311,-0.00868,0.0024289999999999,0.001173
1600,-0.22288,0.962837,-0.152541,-0.007421,0.003074,-0.000352
1601,-0.223683,0.962641,-0.152604,-0.008052,0.0118,0.000596
1602,-0.224485,0.962512,-0.152238,-0.002657,0.001034,0.010362
1603,-0.224975,0.96238,-0.152349,0.005553,0.001014,0.01061
1604,-0.225252,0.962333,-0.152241,0.0046549999999999,0.00158,0.010152
1605,-0.225463,0.96224,-0.152514,-0.010743,0.001124,0.003817
1606,-0.226178,0.961975,-0.153129,-0.019107,-0.005432,-0.000588
1607,-0.2263239999999999,0.961814,-0.153922,-0.019037,-0.002326,0.002692
1608,-0.227194,0.961545,-0.154321,-0.009653,0.002521,0.007058
1609,-0.227784,0.961308,-0.154924,-0.009674,0.004161,0.007448
1610,-0.228285,0.961058,-0.1557349999999999,-0.0102709999999999,0.006136,0.005528
1611,-0.228234,0.960953,-0.156459,0.003838,0.0065769999999999,0.002131
1612,-0.2282409999999999,0.96079,-0.157444,0.005615,0.003901,0.003284
1613,-0.228209,0.960595,-0.158674,-0.005189,0.004386,-0.003328
1614,-0.2285489999999999,0.960288,-0.160039,-0.010068,0.00831,-0.009608
1615,-0.2291619999999999,0.959919,-0.16137,-0.01626,0.000942,-0.005881
1616,-0.2304159999999999,0.959436,-0.162454,-0.0254889999999999,0.000479,-0.002051
1617,-0.231673,0.958933,-0.163632,-0.026476,-0.005243,-0.003268
1618,-0.232469,0.958498,-0.165047,-0.0172569999999999,0.003111,-0.00341
1619,-0.23239,0.958336,-0.166093,-0.002626,0.014641,0.0028399999999999
1620,-0.2316949999999999,0.958304,-0.167245,0.007406,0.014886,-0.002372
1621,-0.230152,0.958382,-0.168923,0.018604,0.005272,-0.0064769999999999
1622,-0.229598,0.958323,-0.170006,0.01654,0.009481,-0.003456
1623,-0.228552,0.958471,-0.1705809999999999,0.017813,0.017222,0.000797
1624,-0.227702,0.958574,-0.171138,0.0106,0.020949,-0.005239
1625,-0.227578,0.958544,-0.171467,0.008645,0.0160949999999999,-0.010387
1626,-0.227425,0.958482,-0.172017,-0.002296,0.000105,-0.011409
1627,-0.2275449999999999,0.958338,-0.172658,-0.004617,0.010381,-0.002055
1628,-0.227529,0.95829,-0.172949,-0.009592,0.018349,-0.001596
1629,-0.22765,0.958205,-0.173258,-0.014232,0.020677,-0.001547
1630,-0.229392,0.957649,-0.174033,-0.033914,0.002403,-0.011651
1631,-0.230685,0.957324,-0.174112,-0.032789,0.0132719999999999,0.000498
1632,-0.232038,0.956977,-0.174225,-0.024752,0.014078,-0.003083
1633,-0.233251,0.956495,-0.175244,-0.004557,0.0027329999999999,-0.018283
1634,-0.234253,0.95626,-0.17519,-0.008163,0.0021899999999999,-0.01289
1635,-0.235029,0.95621,-0.174426,-0.003222,0.013746,-0.005002
1636,-0.23551,0.956203,-0.173812,0.0076349999999999,0.013127,-0.011369
1637,-0.23578,0.956197,-0.17348,0.015794,0.004328,-0.008863
1638,-0.235484,0.956326,-0.173172,0.024073,0.003025,0.002289
1639,-0.233922,0.956869,-0.172282,0.019094,0.008417,0.005595
1640,-0.233175,0.957226,-0.171313,-0.000819,0.0090829999999999,0.008975
1641,-0.233128,0.957417,-0.170308,-0.0274459999999999,0.008312,0.0039109999999999
1642,-0.2327699999999999,0.957538,-0.170115,-0.031649,0.007382,0.002253
1643,-0.23255,0.957585,-0.170154,-0.035791,-0.002598,0.008365
1644,-0.2323,0.957655,-0.1701,-0.043961,0.004,0.0012
1645,-0.2311,0.95797,-0.169958,-0.0535519999999999,0.007499,-0.002924
1646,-0.229894,0.958248,-0.17003,-0.055049,0.002491,-0.005308
1647,-0.2299909999999999,0.958119,-0.170623,-0.019688,0.002376,0.001998
1648,-0.228821,0.958335,-0.170979,-0.003799,0.0078049999999999,0.012166
1649,-0.22735,0.958768,-0.170515,0.007623,0.010256,0.0197889999999999
1650,-0.226119,0.959055,-0.170539,0.002547,0.0071769999999999,0.004295
1651,-0.224805,0.959342,-0.170664,0.001248,0.00834,-0.001424
1652,-0.223404,0.959613,-0.170979,0.013642,-0.001941,-0.0035659999999999
1653,-0.2210369999999999,0.960063,-0.171529,0.026274,0.0023239999999999,-0.003062
1654,-0.219608,0.96031,-0.17198,0.030887,0.0123769999999999,-0.007494
1655,-0.2181199999999999,0.960579,-0.17237,0.024043,0.019508,-0.014215
1656,-0.215241,0.961066,-0.173272,0.012726,0.012384,-0.009483
1657,-0.212321,0.961638,-0.173699,0.018397,0.006578,-0.003334
1658,-0.209428,0.962258,-0.17378,0.018358,0.007133,-0.000155
1659,-0.207515,0.962682,-0.173728,0.00909,0.008311,-0.001977
1660,-0.205928,0.963044,-0.173605,-0.00327,0.004775,-0.002374
1661,-0.205101,0.96324,-0.173501,-0.007256,0.00464,-0.001807
1662,-0.204129,0.963532,-0.173022,0.001034,0.012298,0.006915
1663,-0.202978,0.963889,-0.17239,0.011206,0.019403,0.01141
1664,-0.201553,0.964381,-0.171303,0.008804,0.017247,0.007729
1665,-0.200543,0.964846,-0.169864,0.006161,0.01489,0.010593
1666,-0.199866,0.965213,-0.168573,-0.000787,0.011731,0.006692
1667,-0.199377,0.965486,-0.16759,-0.002985,0.0072159999999999,0.003268
1668,-0.198844,0.965737,-0.166772,-0.001641,0.003532,0.002191
1669,-0.198521,0.965914,-0.166132,-0.008892,-0.003481,0.004587
1670,-0.198364,0.96603,-0.165645,-0.01558,-0.003627,0.004161
1671,-0.198466,0.966039,-0.165466,-0.022527,-0.003103,0.001511
1672,-0.1990309999999999,0.965927,-0.165446,-0.0188039999999999,0.009385,0.001093
1673,-0.198518,0.966023,-0.165498,0.00055,0.003047,0.006761
1674,-0.197856,0.966183,-0.1653609999999999,0.012615,0.010319,0.013719
1675,-0.196718,0.966521,-0.164739,0.00934,0.012345,0.010976
1676,-0.196238,0.966656,-0.164517,-0.005376,0.013171,0.006405
1677,-0.1958,0.966801,-0.164189,-0.011353,0.0092269999999999,0.005695
1678,-0.1956119999999999,0.966939,-0.1636,-0.008109,0.006831,0.008128
1679,-0.195406,0.967052,-0.163176,-0.007475,0.005299,0.010009
1680,-0.19558,0.967056,-0.162945,-0.015297,0.008576,0.003521
1681,-0.196103,0.966996,-0.162671,-0.0162229999999999,0.006011,0.004758
1682,-0.196414,0.967013,-0.162194,-0.010678,0.0118079999999999,0.014321
1683,-0.196902,0.966995,-0.161714,-0.010572,0.010239,0.015809
1684,-0.1973859999999999,0.967063,-0.160708,-0.0014199999999999,0.005822,0.01961
1685,-0.197705,0.96712,-0.159973,0.00018,0.011518,0.016189
1686,-0.198482,0.967114,-0.159048,-0.014195,0.005894,0.004247
1687,-0.199376,0.967011,-0.158554,-0.015818,0.008667,0.000778
1688,-0.200522,0.96685,-0.1580869999999999,-0.016229,0.006279,0.002539
1689,-0.20218,0.966614,-0.157419,-0.0143729999999999,0.006851,0.003702
1690,-0.203267,0.966465,-0.156932,-0.005992,0.003536,0.004634
1691,-0.203988,0.966419,-0.156277,0.004083,0.006878,0.004788
1692,-0.204614,0.966362,-0.15581,0.004297,0.002754,0.006854
1693,-0.205306,0.966242,-0.155648,0.00212,0.0055299999999999,0.0038229999999999
1694,-0.206246,0.966071,-0.155462,-0.005485,0.012734,-0.001444
1695,-0.207483,0.965831,-0.155309,-0.006735,0.007863,-0.002634
1696,-0.208878,0.965574,-0.1550369999999999,-0.004364,0.009218,-0.0007099999999999
1697,-0.2102,0.965466,-0.153919,0.00381,0.014865,0.010837
1698,-0.211286,0.965462,-0.152449,0.009641,0.014381,0.011656
1699,-0.212528,0.965349,-0.151436,0.00896,0.01248,0.006371
1700,-0.213786,0.965268,-0.150176,-5.1e-05,0.014193,0.002349
1701,-0.2155969999999999,0.964998,-0.149319,-0.003977,0.007017,-0.004261
1702,-0.217782,0.964567,-0.1489329999999999,-0.0100159999999999,-0.001173,-0.012779
1703,-0.2196409999999999,0.964108,-0.149179,0.0067959999999999,-0.003658,-0.014365
1704,-0.220295,0.963816,-0.150099,0.020847,-0.006998,-0.022279
1705,-0.220142,0.963558,-0.151963,0.02454,-0.012615,-0.03125
1706,-0.2194699999999999,0.963367,-0.154136,0.019412,-0.002353,-0.023644
1707,-0.218824,0.963278,-0.155602,0.009474,0.003565,-0.008659
1708,-0.21853,0.963137,-0.156881,-0.0009519999999999,0.002912,-0.008997
1709,-0.218243,0.962968,-0.1583099999999999,0.001568,0.001555,-0.010345
1710,-0.217522,0.962902,-0.159697,0.0110549999999999,0.004368,-0.006944
1711,-0.217187,0.962971,-0.159741,-0.0066739999999999,0.010784,0.017758
1712,-0.2176199999999999,0.962793,-0.16022,-0.011567,0.007666,0.0141479999999999
1713,-0.2187059999999999,0.962524,-0.160358,-0.011869,0.011826,0.012089
1714,-0.2195079999999999,0.962296,-0.16063,0.000713,0.008346,0.005875
1715,-0.220071,0.962079,-0.161159,0.003945,0.00487,-0.0016829999999999
1716,-0.221082,0.961804,-0.161417,-0.002154,0.008456,0.000544
1717,-0.22407,0.96105,-0.1617859999999999,-0.033849,0.007578,-0.006503
1718,-0.2258369999999999,0.960537,-0.162378,-0.0257649999999999,0.002476,-0.009955
1719,-0.227348,0.960115,-0.162765,-0.0149919999999999,0.002501,-0.005234
1720,-0.22764,0.960161,-0.162081,0.0081879999999999,0.00366,0.009081
1721,-0.22838,0.95999,-0.162056,-0.000319,0.000749,0.002037
1722,-0.229283,0.959753,-0.162184,-0.0124319999999999,0.004145,-0.001573
1723,-0.23112,0.959306,-0.162218,-0.021428,0.0004559999999999,0.004625
1724,-0.232511,0.958948,-0.16235,-0.021593,-0.0001159999999999,-0.000278
1725,-0.233692,0.958604,-0.162684,-0.015728,-0.001451,-0.006169
1726,-0.2344159999999999,0.958276,-0.163576,-0.003834,-0.0004509999999999,-0.007597
1727,-0.234627,0.958138,-0.164081,-0.002007,0.001045,-0.004559
1728,-0.234638,0.958042,-0.164626,0.000446,0.004483,0.00154
1729,-0.234733,0.957879,-0.165435,-0.00515,-0.001046,-0.000504
1730,-0.234586,0.957823,-0.165963,-0.007677,0.0073409999999999,0.0071189999999999
1731,-0.234228,0.95782,-0.166488,-0.0102329999999999,0.007192,0.000411
1732,-0.234311,0.957675,-0.167205,-0.0134159999999999,0.0005769999999999,-0.000566
1733,-0.234327,0.957598,-0.167623,-0.025454,0.015211,0.0052229999999999
1734,-0.235598,0.957232,-0.167932,-0.037062,0.000135,0.001108
1735,-0.236509,0.956879,-0.1686619999999999,-0.035097,0.002716,-0.001749
1736,-0.237434,0.956634,-0.16875,-0.0259329999999999,0.010407,0.009845
1737,-0.2389679999999999,0.956498,-0.167347,-0.026184,0.022872,0.021305
1738,-0.240257,0.956352,-0.1663339999999999,-0.026787,0.016991,0.017728
1739,-0.241894,0.956073,-0.165563,-0.036578,0.006528,0.009176
1740,-0.2445969999999999,0.955645,-0.164055,-0.039704,0.014737,0.008584
1741,-0.246732,0.955353,-0.162556,-0.037494,0.013855,0.0090829999999999
1742,-0.249078,0.954954,-0.161316,-0.036979,0.0030989999999999,0.001968
1743,-0.251776,0.954523,-0.159669,-0.019464,0.001638,0.010713
1744,-0.253293,0.954333,-0.158399,-0.010607,0.0064519999999999,0.011793
1745,-0.254745,0.95412,-0.157353,-0.0014199999999999,0.0023769999999999,-0.005565
1746,-0.255981,0.953928,-0.1565079999999999,-0.009003,0.001089,-0.007295
1747,-0.2574929999999999,0.953683,-0.155521,-0.022261,0.005256,-0.004086
1748,-0.258575,0.953533,-0.154639,-0.022537,0.005573,-0.0070129999999999
1749,-0.260062,0.953155,-0.154479,-0.011484,-0.003402,-0.012986
1750,-0.260846,0.952972,-0.154282,0.0022559999999999,0.009125,-0.007934
1751,-0.260924,0.95307,-0.153546,0.01448,0.012278,0.00105
1752,-0.261227,0.953162,-0.1524569999999999,0.012875,0.012216,0.0086129999999999
1753,-0.261219,0.953364,-0.1512,0.005177,0.017049,0.000917
1754,-0.261371,0.953556,-0.149722,0.0037259999999999,0.016934,0.000171
1755,-0.261639,0.953657,-0.148606,0.002651,0.008211,-0.010025
1756,-0.262044,0.953619,-0.148134,0.002584,-0.001501,-0.01779
1757,-0.262584,0.953396,-0.148615,-0.001592,-0.000927,-0.03031
1758,-0.2630429999999999,0.953153,-0.149359,0.005734,-0.007123,-0.024103
1759,-0.262887,0.953081,-0.150093,0.01661,0.0048509999999999,-0.017311
1760,-0.262849,0.953004,-0.150644,0.025194,0.005309,-0.015478
1761,-0.259847,0.953447,-0.153029,0.055273,-0.008379,-0.0166639999999999
1762,-0.258345,0.953627,-0.154446,0.0464,0.0113239999999999,-0.001773
1763,-0.256284,0.953961,-0.155809,0.031812,0.009219,0.001482
1764,-0.253551,0.954473,-0.15714,0.013897,0.0081739999999999,0.00028
1765,-0.251321,0.954848,-0.158437,-0.009864,0.013032,0.007833
1766,-0.249513,0.955208,-0.159128,-0.010893,0.011498,0.012934
1767,-0.248025,0.955452,-0.159984,-0.011298,0.015632,0.017039
1768,-0.246935,0.955582,-0.16089,-0.009886,0.011871,0.0044259999999999
1769,-0.246038,0.955698,-0.161575,-0.004496,0.0079099999999999,0.0074459999999999
1770,-0.24514,0.955844,-0.162075,-0.002801,0.016446,0.020229
1771,-0.244411,0.956176,-0.16122,-0.006963,0.025483,0.0268209999999999
1772,-0.2445949999999999,0.956236,-0.160577,-0.021304,0.0166949999999999,0.011362
1773,-0.245162,0.956163,-0.160152,-0.01938,0.014235,0.00581
1774,-0.246115,0.955938,-0.160031,-0.01124,0.009348,-0.001498
1775,-0.246328,0.956032,-0.159142,0.003606,0.006111,0.010094
1776,-0.246107,0.956332,-0.157672,0.01251,0.007444,0.012805
1777,-0.246114,0.956529,-0.156464,0.009358,0.011855,0.014206
