id,Attitude Roll,Attitude Pitch,Attitude Azimuth,Gravity X,Gravity Y,Gravity Z,Rotation Rate X,Rotation Rate Y,Rotation Rate Z,User Acceleration X,User Acceleration Y,User Acceleration Z
1,-2.472832,2.7358923,0.3225635,3.976751,-8.962592,-0.16664545,-0.0045384727,-0.0030096793,-0.00429574,-0.08030392,0.057332642,0.09350885
2,-2.472832,2.7358923,0.3225635,3.976751,-8.962592,-0.16664545,-0.0045384727,-0.0030096793,-0.00429574,-0.08030392,0.057332642,0.09350885
3,-2.472832,2.7358923,0.3225635,3.976751,-8.962592,-0.16664545,-0.0045384727,-0.0030096793,-0.00429574,-0.08030392,0.057332642,0.09350885
4,-2.472832,2.7358923,0.3225635,3.987606,-8.957801,-0.16488601,0.0038113378,0.0047045536,-0.0028180478,0.031604506,0.06026162,-0.016625596
5,-2.472832,2.7358923,0.3225635,3.987606,-8.957801,-0.16488601,0.0038113378,0.0047045536,-0.0028180478,0.031604506,0.06026162,-0.016625596
6,-2.472832,2.7358923,0.3225635,3.987606,-8.957801,-0.16488601,0.0038113378,0.0047045536,-0.0028180478,0.031604506,0.06026162,-0.016625596
7,-2.472832,2.7358923,0.3225635,3.9926906,-8.955588,-0.16201493,0.003394007,-0.0038752148,-0.0013584545,-0.019617304,0.059022814,0.04614568
8,-2.472832,2.7358923,0.3225635,3.9926906,-8.955588,-0.16201493,0.003394007,-0.0038752148,-0.0013584545,-0.019617304,0.059022814,0.04614568
9,-2.472832,2.7358923,0.3225635,3.9926906,-8.955588,-0.16201493,0.003394007,-0.0038752148,-0.0013584545,-0.019617304,0.059022814,0.04614568
10,-2.472832,2.7358923,0.3225635,3.9926906,-8.955588,-0.16201493,0.003394007,-0.0038752148,-0.0013584545,-0.019617304,0.059022814,0.04614568
11,-2.472832,2.7358923,0.3225635,3.9926906,-8.955588,-0.16201493,0.003394007,-0.0038752148,-0.0013584545,-0.019617304,0.059022814,0.04614568
12,-2.472832,2.7358923,0.3225635,3.997504,-8.95399,-0.12811433,-0.004339389,-0.0024624649,-0.002540182,-0.28661317,0.39647263,0.38786453
13,-2.472832,2.7358923,0.3225635,3.997504,-8.95399,-0.12811433,-0.004339389,-0.0024624649,-0.002540182,-0.28661317,0.39647263,0.38786453
14,-2.472832,2.7358923,0.3225635,3.997504,-8.95399,-0.12811433,-0.004339389,-0.0024624649,-0.002540182,-0.28661317,0.39647263,0.38786453
15,-2.472832,2.7358923,0.3225635,3.997504,-8.95399,-0.12811433,-0.004339389,-0.0024624649,-0.002540182,-0.28661317,0.39647263,0.38786453
16,-2.4710171,2.7353683,0.37764424,4.0008516,-8.953111,-0.073237754,-0.003933769,-0.0031597905,-0.0047844,-0.0885857,0.029500421,-0.33480784
17,-2.4710171,2.7353683,0.37764424,4.0008516,-8.953111,-0.073237754,-0.003933769,-0.0031597905,-0.0047844,-0.0885857,0.029500421,-0.33480784
18,-2.4710171,2.7353683,0.37764424,4.0008516,-8.953111,-0.073237754,-0.003933769,-0.0031597905,-0.0047844,-0.0885857,0.029500421,-0.33480784
19,-2.4710171,2.7353683,0.37764424,4.0008516,-8.953111,-0.073237754,-0.003933769,-0.0031597905,-0.0047844,-0.0885857,0.029500421,-0.33480784
20,-2.4710171,2.7353683,0.37764424,4.0008516,-8.953111,-0.073237754,-0.003933769,-0.0031597905,-0.0047844,-0.0885857,0.029500421,-0.33480784
21,-2.4710171,2.7353683,0.37764424,3.9985814,-8.954426,0.00034831464,-0.004748203,-0.0049760314,-0.00240604,0.21039683,-0.17271289,-0.0642132
22,-2.4710171,2.7353683,0.37764424,3.9985814,-8.954426,0.00034831464,-0.004748203,-0.0049760314,-0.00240604,0.21039683,-0.17271289,-0.0642132
23,-2.4710171,2.7353683,0.37764424,3.9985814,-8.954426,0.00034831464,-0.004748203,-0.0049760314,-0.00240604,0.21039683,-0.17271289,-0.0642132
24,-2.4710171,2.7353683,0.37764424,3.9985814,-8.954426,0.00034831464,-0.004748203,-0.0049760314,-0.00240604,0.21039683,-0.17271289,-0.0642132
25,-2.4710171,2.7353683,0.37764424,3.9985814,-8.954426,0.00034831464,-0.004748203,-0.0049760314,-0.00240604,0.21039683,-0.17271289,-0.0642132
26,-2.4754925,2.73765,0.48383144,3.9908717,-8.957156,0.11259464,0.07180539,0.017635422,-0.000752686,0.29747146,-0.45463312,-0.43838137
27,-2.4754925,2.73765,0.48383144,3.9908717,-8.957156,0.11259464,0.07180539,0.017635422,-0.000752686,0.29747146,-0.45463312,-0.43838137
28,-2.4754925,2.73765,0.48383144,3.9908717,-8.957156,0.11259464,0.07180539,0.017635422,-0.000752686,0.29747146,-0.45463312,-0.43838137
29,-2.4754925,2.73765,0.48383144,3.9908717,-8.957156,0.11259464,0.07180539,0.017635422,-0.000752686,0.29747146,-0.45463312,-0.43838137
30,-2.4754925,2.73765,0.48383144,3.9908717,-8.957156,0.11259464,0.07180539,0.017635422,-0.000752686,0.29747146,-0.45463312,-0.43838137
31,-2.478437,2.7387338,0.5502064,3.9852977,-8.957299,0.2336404,0.118927576,0.007862215,0.0059586754,-1.0380889,1.8204525,-0.4206731
32,-2.478437,2.7387338,0.5502064,3.9852977,-8.957299,0.2336404,0.118927576,0.007862215,0.0059586754,-1.0380889,1.8204525,-0.4206731
33,-2.478437,2.7387338,0.5502064,3.9852977,-8.957299,0.2336404,0.118927576,0.007862215,0.0059586754,-1.0380889,1.8204525,-0.4206731
34,-2.478437,2.7387338,0.5502064,3.9852977,-8.957299,0.2336404,0.118927576,0.007862215,0.0059586754,-1.0380889,1.8204525,-0.4206731
35,-2.4812315,2.7394233,0.6207004,3.9834595,-8.953556,0.36915174,0.14300607,-0.001158306,0.01355793,-0.1113475,-0.0828112,-0.012463258
36,-2.4812315,2.7394233,0.6207004,3.9834595,-8.953556,0.36915174,0.14300607,-0.001158306,0.01355793,-0.1113475,-0.0828112,-0.012463258
37,-2.4812315,2.7394233,0.6207004,3.9834595,-8.953556,0.36915174,0.14300607,-0.001158306,0.01355793,-0.1113475,-0.0828112,-0.012463258
38,-2.4812315,2.7394233,0.6207004,3.9834595,-8.953556,0.36915174,0.14300607,-0.001158306,0.01355793,-0.1113475,-0.0828112,-0.012463258
39,-2.4812315,2.7394233,0.6207004,3.9834595,-8.953556,0.36915174,0.14300607,-0.001158306,0.01355793,-0.1113475,-0.0828112,-0.012463258
40,-2.483743,2.740298,0.6792301,3.979862,-8.94947,0.48792884,0.1381067,-0.005628643,0.015999101,-0.076081894,0.049396146,-0.16582619
41,-2.483743,2.740298,0.6792301,3.979862,-8.94947,0.48792884,0.1381067,-0.005628643,0.015999101,-0.076081894,0.049396146,-0.16582619
42,-2.483743,2.740298,0.6792301,3.979862,-8.94947,0.48792884,0.1381067,-0.005628643,0.015999101,-0.076081894,0.049396146,-0.16582619
43,-2.483743,2.740298,0.6792301,3.979862,-8.94947,0.48792884,0.1381067,-0.005628643,0.015999101,-0.076081894,0.049396146,-0.16582619
44,-2.483743,2.740298,0.6792301,3.979862,-8.94947,0.48792884,0.1381067,-0.005628643,0.015999101,-0.076081894,0.049396146,-0.16582619
45,-2.4878614,2.7421186,0.7410597,3.9657423,-8.94723,0.6247729,0.115087494,-0.0045895744,0.010462016,-0.11998712,0.113567345,-0.16652016
46,-2.4878614,2.7421186,0.7410597,3.9657423,-8.94723,0.6247729,0.115087494,-0.0045895744,0.010462016,-0.11998712,0.113567345,-0.16652016
47,-2.4878614,2.7421186,0.7410597,3.9657423,-8.94723,0.6247729,0.115087494,-0.0045895744,0.010462016,-0.11998712,0.113567345,-0.16652016
48,-2.4878614,2.7421186,0.7410597,3.9657423,-8.94723,0.6247729,0.115087494,-0.0045895744,0.010462016,-0.11998712,0.113567345,-0.16652016
49,-2.4878614,2.7421186,0.7410597,3.9657423,-8.94723,0.6247729,0.115087494,-0.0045895744,0.010462016,-0.11998712,0.113567345,-0.16652016
50,-2.492336,2.7442753,0.80001783,3.9482763,-8.944026,0.76543635,0.091925636,0.0008964096,0.005396556,0.024666673,0.1387878,-0.62369967
51,-2.492336,2.7442753,0.80001783,3.9482763,-8.944026,0.76543635,0.091925636,0.0008964096,0.005396556,0.024666673,0.1387878,-0.62369967
52,-2.492336,2.7442753,0.80001783,3.9482763,-8.944026,0.76543635,0.091925636,0.0008964096,0.005396556,0.024666673,0.1387878,-0.62369967
53,-2.492336,2.7442753,0.80001783,3.9482763,-8.944026,0.76543635,0.091925636,0.0008964096,0.005396556,0.024666673,0.1387878,-0.62369967
54,-2.492336,2.7442753,0.80001783,3.9482763,-8.944026,0.76543635,0.091925636,0.0008964096,0.005396556,0.024666673,0.1387878,-0.62369967
55,-2.4958198,2.7460015,0.8519488,3.9358952,-8.937336,0.8961746,0.086573794,0.007761076,0.012582738,0.053667657,-0.19635274,-0.27699065
56,-2.4958198,2.7460015,0.8519488,3.9358952,-8.937336,0.8961746,0.086573794,0.007761076,0.012582738,0.053667657,-0.19635274,-0.27699065
57,-2.4958198,2.7460015,0.8519488,3.9358952,-8.937336,0.8961746,0.086573794,0.007761076,0.012582738,0.053667657,-0.19635274,-0.27699065
58,-2.4958198,2.7460015,0.8519488,3.9358952,-8.937336,0.8961746,0.086573794,0.007761076,0.012582738,0.053667657,-0.19635274,-0.27699065
59,-2.4958198,2.7460015,0.8519488,3.9358952,-8.937336,0.8961746,0.086573794,0.007761076,0.012582738,0.053667657,-0.19635274,-0.27699065
60,-2.501985,2.7487133,0.9132888,3.9112296,-8.928206,1.0769277,0.103601314,0.011244511,0.030435342,0.112655714,-0.48536193,-0.41280934
61,-2.501985,2.7487133,0.9132888,3.9112296,-8.928206,1.0769277,0.103601314,0.011244511,0.030435342,0.112655714,-0.48536193,-0.41280934
62,-2.501985,2.7487133,0.9132888,3.9112296,-8.928206,1.0769277,0.103601314,0.011244511,0.030435342,0.112655714,-0.48536193,-0.41280934
63,-2.501985,2.7487133,0.9132888,3.9112296,-8.928206,1.0769277,0.103601314,0.011244511,0.030435342,0.112655714,-0.48536193,-0.41280934
64,-2.5068514,2.7505174,0.9670082,3.8961122,-8.911702,1.2538978,0.1319351,0.0083104195,0.046762347,0.03838568,-0.18397743,-0.29226562
65,-2.5068514,2.7505174,0.9670082,3.8961122,-8.911702,1.2538978,0.1319351,0.0083104195,0.046762347,0.03838568,-0.18397743,-0.29226562
66,-2.5068514,2.7505174,0.9670082,3.8961122,-8.911702,1.2538978,0.1319351,0.0083104195,0.046762347,0.03838568,-0.18397743,-0.29226562
67,-2.5068514,2.7505174,0.9670082,3.8961122,-8.911702,1.2538978,0.1319351,0.0083104195,0.046762347,0.03838568,-0.18397743,-0.29226562
68,-2.5068514,2.7505174,0.9670082,3.8961122,-8.911702,1.2538978,0.1319351,0.0083104195,0.046762347,0.03838568,-0.18397743,-0.29226562
69,-2.5068514,2.7505174,0.9670082,3.8961122,-8.911702,1.2538978,0.1319351,0.0083104195,0.046762347,0.03838568,-0.18397743,-0.29226562
70,-2.511071,2.7519186,1.0138886,3.8851118,-8.890458,1.4269009,0.14605515,0.00025870252,0.047381956,-0.13064696,-0.017317403,-0.018370297
71,-2.511071,2.7519186,1.0138886,3.8851118,-8.890458,1.4269009,0.14605515,0.00025870252,0.047381956,-0.13064696,-0.017317403,-0.018370297
72,-2.511071,2.7519186,1.0138886,3.8851118,-8.890458,1.4269009,0.14605515,0.00025870252,0.047381956,-0.13064696,-0.017317403,-0.018370297
73,-2.511071,2.7519186,1.0138886,3.8851118,-8.890458,1.4269009,0.14605515,0.00025870252,0.047381956,-0.13064696,-0.017317403,-0.018370297
74,-2.511071,2.7519186,1.0138886,3.8851118,-8.890458,1.4269009,0.14605515,0.00025870252,0.047381956,-0.13064696,-0.017317403,-0.018370297
75,-2.5133505,2.7523522,1.0521647,3.8849173,-8.864919,1.5782955,0.1232148,-0.0077930144,0.02733091,-0.11944012,0.16393574,-0.034176923
76,-2.5133505,2.7523522,1.0521647,3.8849173,-8.864919,1.5782955,0.1232148,-0.0077930144,0.02733091,-0.11944012,0.16393574,-0.034176923
77,-2.5133505,2.7523522,1.0521647,3.8849173,-8.864919,1.5782955,0.1232148,-0.0077930144,0.02733091,-0.11944012,0.16393574,-0.034176923
78,-2.5133505,2.7523522,1.0521647,3.8849173,-8.864919,1.5782955,0.1232148,-0.0077930144,0.02733091,-0.11944012,0.16393574,-0.034176923
79,-2.5133505,2.7523522,1.0521647,3.8849173,-8.864919,1.5782955,0.1232148,-0.0077930144,0.02733091,-0.11944012,0.16393574,-0.034176923
80,-2.515405,2.752838,1.0858788,3.8842704,-8.838338,1.7223881,0.07187459,-0.01040985,-0.002565733,-0.10681509,0.25597027,-0.036084455
81,-2.515405,2.752838,1.0858788,3.8842704,-8.838338,1.7223881,0.07187459,-0.01040985,-0.002565733,-0.10681509,0.25597027,-0.036084455
82,-2.515405,2.752838,1.0858788,3.8842704,-8.838338,1.7223881,0.07187459,-0.01040985,-0.002565733,-0.10681509,0.25597027,-0.036084455
83,-2.515405,2.752838,1.0858788,3.8842704,-8.838338,1.7223881,0.07187459,-0.01040985,-0.002565733,-0.10681509,0.25597027,-0.036084455
84,-2.515405,2.752838,1.0858788,3.8842704,-8.838338,1.7223881,0.07187459,-0.01040985,-0.002565733,-0.10681509,0.25597027,-0.036084455
85,-2.5170243,2.7534726,1.1150008,3.882593,-8.813114,1.8506421,0.024375528,-0.0056999726,-0.022777533,-0.045483727,0.20875376,-0.07963191
86,-2.5170243,2.7534726,1.1150008,3.882593,-8.813114,1.8506421,0.024375528,-0.0056999726,-0.022777533,-0.045483727,0.20875376,-0.07963191
87,-2.5170243,2.7534726,1.1150008,3.882593,-8.813114,1.8506421,0.024375528,-0.0056999726,-0.022777533,-0.045483727,0.20875376,-0.07963191
88,-2.5170243,2.7534726,1.1150008,3.882593,-8.813114,1.8506421,0.024375528,-0.0056999726,-0.022777533,-0.045483727,0.20875376,-0.07963191
89,-2.5170243,2.7534726,1.1150008,3.882593,-8.813114,1.8506421,0.024375528,-0.0056999726,-0.022777533,-0.045483727,0.20875376,-0.07963191
90,-2.5170243,2.7534726,1.1150008,3.882593,-8.813114,1.8506421,0.024375528,-0.0056999726,-0.022777533,-0.045483727,0.20875376,-0.07963191
91,-2.516472,2.7531054,1.1402947,3.8926678,-8.785402,1.9581139,0.006502696,0.0025114373,-0.022778599,0.10392998,-0.2599396,0.057256874
92,-2.516472,2.7531054,1.1402947,3.8926678,-8.785402,1.9581139,0.006502696,0.0025114373,-0.022778599,0.10392998,-0.2599396,0.057256874
93,-2.516472,2.7531054,1.1402947,3.8926678,-8.785402,1.9581139,0.006502696,0.0025114373,-0.022778599,0.10392998,-0.2599396,0.057256874
94,-2.516472,2.7531054,1.1402947,3.8926678,-8.785402,1.9581139,0.006502696,0.0025114373,-0.022778599,0.10392998,-0.2599396,0.057256874
95,-2.516472,2.7531054,1.1402947,3.8926678,-8.785402,1.9581139,0.006502696,0.0025114373,-0.022778599,0.10392998,-0.2599396,0.057256874
96,-2.516472,2.7531054,1.1402947,3.8926678,-8.785402,1.9581139,0.006502696,0.0025114373,-0.022778599,0.10392998,-0.2599396,0.057256874
97,-2.518496,2.754338,1.1651614,3.884515,-8.761015,2.0797899,0.016823117,0.0072362185,-0.011381847,0.11383743,-0.57179916,-0.35109425
98,-2.518496,2.754338,1.1651614,3.884515,-8.761015,2.0797899,0.016823117,0.0072362185,-0.011381847,0.11383743,-0.57179916,-0.35109425
99,-2.518496,2.754338,1.1651614,3.884515,-8.761015,2.0797899,0.016823117,0.0072362185,-0.011381847,0.11383743,-0.57179916,-0.35109425
100,-2.518496,2.754338,1.1651614,3.884515,-8.761015,2.0797899,0.016823117,0.0072362185,-0.011381847,0.11383743,-0.57179916,-0.35109425
101,-2.518496,2.754338,1.1651614,3.884515,-8.761015,2.0797899,0.016823117,0.0072362185,-0.011381847,0.11383743,-0.57179916,-0.35109425
102,-2.518496,2.754338,1.1651614,3.884515,-8.761015,2.0797899,0.016823117,0.0072362185,-0.011381847,0.11383743,-0.57179916,-0.35109425
103,-2.5206563,2.7556098,1.1884344,3.8755033,-8.734569,2.2041264,0.03763962,0.0056499355,-0.0005631837,0.17100437,0.12548313,-0.122673355
104,-2.5206563,2.7556098,1.1884344,3.8755033,-8.734569,2.2041264,0.03763962,0.0056499355,-0.0005631837,0.17100437,0.12548313,-0.122673355
105,-2.5206563,2.7556098,1.1884344,3.8755033,-8.734569,2.2041264,0.03763962,0.0056499355,-0.0005631837,0.17100437,0.12548313,-0.122673355
106,-2.5206563,2.7556098,1.1884344,3.8755033,-8.734569,2.2041264,0.03763962,0.0056499355,-0.0005631837,0.17100437,0.12548313,-0.122673355
107,-2.5206563,2.7556098,1.1884344,3.8755033,-8.734569,2.2041264,0.03763962,0.0056499355,-0.0005631837,0.17100437,0.12548313,-0.122673355
108,-2.5206563,2.7556098,1.1884344,3.8755033,-8.734569,2.2041264,0.03763962,0.0056499355,-0.0005631837,0.17100437,0.12548313,-0.122673355
109,-2.5222738,2.7565653,1.210052,3.8698325,-8.705274,2.3265834,0.053207554,0.00019801922,0.0038656334,-0.04824882,-0.115587704,0.095305584
110,-2.5222738,2.7565653,1.210052,3.8698325,-8.705274,2.3265834,0.053207554,0.00019801922,0.0038656334,-0.04824882,-0.115587704,0.095305584
111,-2.5222738,2.7565653,1.210052,3.8698325,-8.705274,2.3265834,0.053207554,0.00019801922,0.0038656334,-0.04824882,-0.115587704,0.095305584
112,-2.5222738,2.7565653,1.210052,3.8698325,-8.705274,2.3265834,0.053207554,0.00019801922,0.0038656334,-0.04824882,-0.115587704,0.095305584
113,-2.5222738,2.7565653,1.210052,3.8698325,-8.705274,2.3265834,0.053207554,0.00019801922,0.0038656334,-0.04824882,-0.115587704,0.095305584
114,-2.5222738,2.7565653,1.210052,3.8698325,-8.705274,2.3265834,0.053207554,0.00019801922,0.0038656334,-0.04824882,-0.115587704,0.095305584
115,-2.5222738,2.7565653,1.210052,3.8791068,-8.679002,2.407868,0.048393343,-0.004062588,-0.0013914576,-0.17079633,0.082336016,-0.0042817644
116,-2.5222738,2.7565653,1.210052,3.8791068,-8.679002,2.407868,0.048393343,-0.004062588,-0.0013914576,-0.17079633,0.082336016,-0.0042817644
117,-2.5222738,2.7565653,1.210052,3.8791068,-8.679002,2.407868,0.048393343,-0.004062588,-0.0013914576,-0.17079633,0.082336016,-0.0042817644
118,-2.5222738,2.7565653,1.210052,3.8791068,-8.679002,2.407868,0.048393343,-0.004062588,-0.0013914576,-0.17079633,0.082336016,-0.0042817644
119,-2.5222738,2.7565653,1.210052,3.8791068,-8.679002,2.407868,0.048393343,-0.004062588,-0.0013914576,-0.17079633,0.082336016,-0.0042817644
120,-2.5222738,2.7565653,1.210052,3.8791068,-8.679002,2.407868,0.048393343,-0.004062588,-0.0013914576,-0.17079633,0.082336016,-0.0042817644
121,-2.5174592,2.75471,1.2440695,3.9020877,-8.648123,2.4807394,0.020489667,-0.0052666725,-0.019409077,-0.30561376,0.12062793,-0.13645412
122,-2.5174592,2.75471,1.2440695,3.9020877,-8.648123,2.4807394,0.020489667,-0.0052666725,-0.019409077,-0.30561376,0.12062793,-0.13645412
123,-2.5174592,2.75471,1.2440695,3.9020877,-8.648123,2.4807394,0.020489667,-0.0052666725,-0.019409077,-0.30561376,0.12062793,-0.13645412
124,-2.5174592,2.75471,1.2440695,3.9020877,-8.648123,2.4807394,0.020489667,-0.0052666725,-0.019409077,-0.30561376,0.12062793,-0.13645412
125,-2.5174592,2.75471,1.2440695,3.9020877,-8.648123,2.4807394,0.020489667,-0.0052666725,-0.019409077,-0.30561376,0.12062793,-0.13645412
126,-2.5174592,2.75471,1.2440695,3.9020877,-8.648123,2.4807394,0.020489667,-0.0052666725,-0.019409077,-0.30561376,0.12062793,-0.13645412
127,-2.5174592,2.75471,1.2440695,3.9020877,-8.648123,2.4807394,0.020489667,-0.0052666725,-0.019409077,-0.30561376,0.12062793,-0.13645412
128,-2.5174592,2.75471,1.2440695,3.9212878,-8.623288,2.5362947,-0.015061172,-0.00597358,-0.04797069,0.24205503,-0.57533187,0.04981125
129,-2.5174592,2.75471,1.2440695,3.9212878,-8.623288,2.5362947,-0.015061172,-0.00597358,-0.04797069,0.24205503,-0.57533187,0.04981125
130,-2.5174592,2.75471,1.2440695,3.9212878,-8.623288,2.5362947,-0.015061172,-0.00597358,-0.04797069,0.24205503,-0.57533187,0.04981125
131,-2.5174592,2.75471,1.2440695,3.9212878,-8.623288,2.5362947,-0.015061172,-0.00597358,-0.04797069,0.24205503,-0.57533187,0.04981125
132,-2.5174592,2.75471,1.2440695,3.9212878,-8.623288,2.5362947,-0.015061172,-0.00597358,-0.04797069,0.24205503,-0.57533187,0.04981125
133,-2.5107033,2.7527573,1.2740741,3.9367647,-8.601476,2.5858994,-0.04094633,-0.00712124,-0.073447034,-0.23325482,0.9449266,-0.30243173
134,-2.5107033,2.7527573,1.2740741,3.9367647,-8.601476,2.5858994,-0.04094633,-0.00712124,-0.073447034,-0.23325482,0.9449266,-0.30243173
135,-2.5107033,2.7527573,1.2740741,3.9367647,-8.601476,2.5858994,-0.04094633,-0.00712124,-0.073447034,-0.23325482,0.9449266,-0.30243173
136,-2.5107033,2.7527573,1.2740741,3.9554317,-8.57905,2.6315098,-0.04943028,-0.00845095,-0.08384517,-0.14007466,-0.087589346,0.17373587
137,-2.5107033,2.7527573,1.2740741,3.9554317,-8.57905,2.6315098,-0.04943028,-0.00845095,-0.08384517,-0.14007466,-0.087589346,0.17373587
138,-2.5035172,2.750875,1.3026547,3.9704564,-8.558128,2.6766188,-0.044010304,-0.008892766,-0.07675055,-0.08777918,0.15079059,-0.041805323
139,-2.5035172,2.750875,1.3026547,3.9704564,-8.558128,2.6766188,-0.044010304,-0.008892766,-0.07675055,-0.08777918,0.15079059,-0.041805323
140,-2.5035172,2.750875,1.3026547,3.9704564,-8.558128,2.6766188,-0.044010304,-0.008892766,-0.07675055,-0.08777918,0.15079059,-0.041805323
141,-2.5035172,2.750875,1.3026547,3.9704564,-8.558128,2.6766188,-0.044010304,-0.008892766,-0.07675055,-0.08777918,0.15079059,-0.041805323
142,-2.5035172,2.750875,1.3026547,3.9704564,-8.558128,2.6766188,-0.044010304,-0.008892766,-0.07675055,-0.08777918,0.15079059,-0.041805323
143,-2.5035172,2.750875,1.3026547,3.9704564,-8.558128,2.6766188,-0.044010304,-0.008892766,-0.07675055,-0.08777918,0.15079059,-0.041805323
144,-2.5035172,2.750875,1.3026547,3.979272,-8.538254,2.7265363,-0.03608102,-0.006961547,-0.05859772,-0.18157472,0.4886391,0.5499963
145,-2.5035172,2.750875,1.3026547,3.979272,-8.538254,2.7265363,-0.03608102,-0.006961547,-0.05859772,-0.18157472,0.4886391,0.5499963
146,-2.5035172,2.750875,1.3026547,3.979272,-8.538254,2.7265363,-0.03608102,-0.006961547,-0.05859772,-0.18157472,0.4886391,0.5499963
147,-2.5035172,2.750875,1.3026547,3.979272,-8.538254,2.7265363,-0.03608102,-0.006961547,-0.05859772,-0.18157472,0.4886391,0.5499963
148,-2.5035172,2.750875,1.3026547,3.979272,-8.538254,2.7265363,-0.03608102,-0.006961547,-0.05859772,-0.18157472,0.4886391,0.5499963
149,-2.5035172,2.750875,1.3026547,3.979272,-8.538254,2.7265363,-0.03608102,-0.006961547,-0.05859772,-0.18157472,0.4886391,0.5499963
150,-2.5007057,2.7511303,1.327812,3.9770365,-8.5192375,2.7885737,-0.033471636,-0.0028968295,-0.038946975,-0.11932395,0.12546815,-0.19147067
151,-2.5007057,2.7511303,1.327812,3.9770365,-8.5192375,2.7885737,-0.033471636,-0.0028968295,-0.038946975,-0.11932395,0.12546815,-0.19147067
152,-2.5007057,2.7511303,1.327812,3.9770365,-8.5192375,2.7885737,-0.033471636,-0.0028968295,-0.038946975,-0.11932395,0.12546815,-0.19147067
153,-2.5007057,2.7511303,1.327812,3.9770365,-8.5192375,2.7885737,-0.033471636,-0.0028968295,-0.038946975,-0.11932395,0.12546815,-0.19147067
154,-2.5007057,2.7511303,1.327812,3.9770365,-8.5192375,2.7885737,-0.033471636,-0.0028968295,-0.038946975,-0.11932395,0.12546815,-0.19147067
155,-2.5007057,2.7511303,1.327812,3.9770365,-8.5192375,2.7885737,-0.033471636,-0.0028968295,-0.038946975,-0.11932395,0.12546815,-0.19147067
156,-2.5007057,2.7511303,1.327812,3.9712846,-8.499848,2.8551471,-0.030725982,0.0005046296,-0.02179489,0.20956676,-0.43730345,-0.057286613
157,-2.5007057,2.7511303,1.327812,3.9712846,-8.499848,2.8551471,-0.030725982,0.0005046296,-0.02179489,0.20956676,-0.43730345,-0.057286613
158,-2.5007057,2.7511303,1.327812,3.9712846,-8.499848,2.8551471,-0.030725982,0.0005046296,-0.02179489,0.20956676,-0.43730345,-0.057286613
159,-2.5007057,2.7511303,1.327812,3.9712846,-8.499848,2.8551471,-0.030725982,0.0005046296,-0.02179489,0.20956676,-0.43730345,-0.057286613
160,-2.5007057,2.7511303,1.327812,3.9712846,-8.499848,2.8551471,-0.030725982,0.0005046296,-0.02179489,0.20956676,-0.43730345,-0.057286613
161,-2.5007057,2.7511303,1.327812,3.980267,-8.496915,2.8513696,-0.017897319,-0.0014010392,-0.008358328,-0.5846556,1.1244726,-0.8132723
162,-2.5007057,2.7511303,1.327812,3.980267,-8.496915,2.8513696,-0.017897319,-0.0014010392,-0.008358328,-0.5846556,1.1244726,-0.8132723
163,-2.5007057,2.7511303,1.327812,3.980267,-8.496915,2.8513696,-0.017897319,-0.0014010392,-0.008358328,-0.5846556,1.1244726,-0.8132723
164,-2.5007057,2.7511303,1.327812,3.980267,-8.496915,2.8513696,-0.017897319,-0.0014010392,-0.008358328,-0.5846556,1.1244726,-0.8132723
165,-2.5007057,2.7511303,1.327812,3.980267,-8.496915,2.8513696,-0.017897319,-0.0014010392,-0.008358328,-0.5846556,1.1244726,-0.8132723
166,-2.5007057,2.7511303,1.327812,3.980267,-8.496915,2.8513696,-0.017897319,-0.0014010392,-0.008358328,-0.5846556,1.1244726,-0.8132723
167,-2.5007057,2.7511303,1.327812,3.9890091,-8.5030775,2.8206139,0.00076865527,-0.009672068,-0.00032683817,-0.043910164,-0.19259933,0.23157355
168,-2.5007057,2.7511303,1.327812,3.9890091,-8.5030775,2.8206139,0.00076865527,-0.009672068,-0.00032683817,-0.043910164,-0.19259933,0.23157355
169,-2.5007057,2.7511303,1.327812,3.9890091,-8.5030775,2.8206139,0.00076865527,-0.009672068,-0.00032683817,-0.043910164,-0.19259933,0.23157355
170,-2.5007057,2.7511303,1.327812,3.9890091,-8.5030775,2.8206139,0.00076865527,-0.009672068,-0.00032683817,-0.043910164,-0.19259933,0.23157355
171,-2.5007057,2.7511303,1.327812,3.9890091,-8.5030775,2.8206139,0.00076865527,-0.009672068,-0.00032683817,-0.043910164,-0.19259933,0.23157355
172,-2.5007057,2.7511303,1.327812,3.9890091,-8.5030775,2.8206139,0.00076865527,-0.009672068,-0.00032683817,-0.043910164,-0.19259933,0.23157355
173,-2.5007057,2.7511303,1.327812,4.009554,-8.51468,2.7557411,0.0049089603,-0.019568771,-0.0013786822,-0.2702533,0.16839866,0.1785898
174,-2.5007057,2.7511303,1.327812,4.009554,-8.51468,2.7557411,0.0049089603,-0.019568771,-0.0013786822,-0.2702533,0.16839866,0.1785898
175,-2.5007057,2.7511303,1.327812,4.009554,-8.51468,2.7557411,0.0049089603,-0.019568771,-0.0013786822,-0.2702533,0.16839866,0.1785898
176,-2.4895556,2.7464416,1.3307761,4.0360045,-8.529252,2.670754,-0.0144224,-0.025396498,-0.0115862535,-0.34175038,0.3724093,0.64144474
177,-2.4895556,2.7464416,1.3307761,4.0360045,-8.529252,2.670754,-0.0144224,-0.025396498,-0.0115862535,-0.34175038,0.3724093,0.64144474
178,-2.4895556,2.7464416,1.3307761,4.0360045,-8.529252,2.670754,-0.0144224,-0.025396498,-0.0115862535,-0.34175038,0.3724093,0.64144474
179,-2.4895556,2.7464416,1.3307761,4.0360045,-8.529252,2.670754,-0.0144224,-0.025396498,-0.0115862535,-0.34175038,0.3724093,0.64144474
180,-2.4895556,2.7464416,1.3307761,4.0360045,-8.529252,2.670754,-0.0144224,-0.025396498,-0.0115862535,-0.34175038,0.3724093,0.64144474
181,-2.482349,2.7429535,1.3237678,4.0770597,-8.54983,2.5393648,-0.0431288,-0.025116503,-0.023483377,-0.21407247,-0.13146974,0.11016225
182,-2.482349,2.7429535,1.3237678,4.0770597,-8.54983,2.5393648,-0.0431288,-0.025116503,-0.023483377,-0.21407247,-0.13146974,0.11016225
183,-2.482349,2.7429535,1.3237678,4.0770597,-8.54983,2.5393648,-0.0431288,-0.025116503,-0.023483377,-0.21407247,-0.13146974,0.11016225
184,-2.482349,2.7429535,1.3237678,4.0770597,-8.54983,2.5393648,-0.0431288,-0.025116503,-0.023483377,-0.21407247,-0.13146974,0.11016225
185,-2.482349,2.7429535,1.3237678,4.0770597,-8.54983,2.5393648,-0.0431288,-0.025116503,-0.023483377,-0.21407247,-0.13146974,0.11016225
186,-2.482349,2.7429535,1.3237678,4.0770597,-8.54983,2.5393648,-0.0431288,-0.025116503,-0.023483377,-0.21407247,-0.13146974,0.11016225
187,-2.4754205,2.7400782,1.3160894,4.112134,-8.576564,2.388157,-0.059803937,-0.02226971,-0.030349107,0.09213366,-0.12980182,0.10402276
188,-2.4754205,2.7400782,1.3160894,4.112134,-8.576564,2.388157,-0.059803937,-0.02226971,-0.030349107,0.09213366,-0.12980182,0.10402276
189,-2.4754205,2.7400782,1.3160894,4.112134,-8.576564,2.388157,-0.059803937,-0.02226971,-0.030349107,0.09213366,-0.12980182,0.10402276
190,-2.4754205,2.7400782,1.3160894,4.112134,-8.576564,2.388157,-0.059803937,-0.02226971,-0.030349107,0.09213366,-0.12980182,0.10402276
191,-2.4754205,2.7400782,1.3160894,4.112134,-8.576564,2.388157,-0.059803937,-0.02226971,-0.030349107,0.09213366,-0.12980182,0.10402276
192,-2.4754205,2.7400782,1.3160894,4.112134,-8.576564,2.388157,-0.059803937,-0.02226971,-0.030349107,0.09213366,-0.12980182,0.10402276
193,-2.4754205,2.7400782,1.3160894,4.129759,-8.590467,2.3063686,-0.053394925,-0.022070626,-0.028514769,0.11784787,0.24853364,-0.3816901
194,-2.4754205,2.7400782,1.3160894,4.129759,-8.590467,2.3063686,-0.053394925,-0.022070626,-0.028514769,0.11784787,0.24853364,-0.3816901
195,-2.4754205,2.7400782,1.3160894,4.129759,-8.590467,2.3063686,-0.053394925,-0.022070626,-0.028514769,0.11784787,0.24853364,-0.3816901
196,-2.4754205,2.7400782,1.3160894,4.129759,-8.590467,2.3063686,-0.053394925,-0.022070626,-0.028514769,0.11784787,0.24853364,-0.3816901
197,-2.4754205,2.7400782,1.3160894,4.129759,-8.590467,2.3063686,-0.053394925,-0.022070626,-0.028514769,0.11784787,0.24853364,-0.3816901
198,-2.4754205,2.7400782,1.3160894,4.129759,-8.590467,2.3063686,-0.053394925,-0.022070626,-0.028514769,0.11784787,0.24853364,-0.3816901
199,-2.4707122,2.7375388,1.295466,4.1391435,-8.610797,2.2117968,-0.030185156,-0.02633017,-0.015064365,0.13344795,-0.19821066,0.87727827
200,-2.4707122,2.7375388,1.295466,4.1391435,-8.610797,2.2117968,-0.030185156,-0.02633017,-0.015064365,0.13344795,-0.19821066,0.87727827
201,-2.4707122,2.7375388,1.295466,4.1391435,-8.610797,2.2117968,-0.030185156,-0.02633017,-0.015064365,0.13344795,-0.19821066,0.87727827
202,-2.4707122,2.7375388,1.295466,4.1391435,-8.610797,2.2117968,-0.030185156,-0.02633017,-0.015064365,0.13344795,-0.19821066,0.87727827
203,-2.4707122,2.7375388,1.295466,4.1391435,-8.610797,2.2117968,-0.030185156,-0.02633017,-0.015064365,0.13344795,-0.19821066,0.87727827
204,-2.4707122,2.7375388,1.295466,4.1391435,-8.610797,2.2117968,-0.030185156,-0.02633017,-0.015064365,0.13344795,-0.19821066,0.87727827
205,-2.4682517,2.7359722,1.2788614,4.154672,-8.630903,2.101567,-0.007699328,-0.032524124,0.010422625,-0.23105472,0.059904646,0.10800048
206,-2.4682517,2.7359722,1.2788614,4.154672,-8.630903,2.101567,-0.007699328,-0.032524124,0.010422625,-0.23105472,0.059904646,0.10800048
207,-2.4682517,2.7359722,1.2788614,4.154672,-8.630903,2.101567,-0.007699328,-0.032524124,0.010422625,-0.23105472,0.059904646,0.10800048
208,-2.4682517,2.7359722,1.2788614,4.154672,-8.630903,2.101567,-0.007699328,-0.032524124,0.010422625,-0.23105472,0.059904646,0.10800048
209,-2.4682517,2.7359722,1.2788614,4.154672,-8.630903,2.101567,-0.007699328,-0.032524124,0.010422625,-0.23105472,0.059904646,0.10800048
210,-2.4682517,2.7359722,1.2788614,4.154672,-8.630903,2.101567,-0.007699328,-0.032524124,0.010422625,-0.23105472,0.059904646,0.10800048
211,-2.46544,2.733201,1.2578132,4.181201,-8.640088,2.0091865,-0.0010007423,-0.03825923,0.036851805,-0.25861353,0.077028595,0.071249105
212,-2.46544,2.733201,1.2578132,4.181201,-8.640088,2.0091865,-0.0010007423,-0.03825923,0.036851805,-0.25861353,0.077028595,0.071249105
213,-2.46544,2.733201,1.2578132,4.181201,-8.640088,2.0091865,-0.0010007423,-0.03825923,0.036851805,-0.25861353,0.077028595,0.071249105
214,-2.46544,2.733201,1.2578132,4.181201,-8.640088,2.0091865,-0.0010007423,-0.03825923,0.036851805,-0.25861353,0.077028595,0.071249105
215,-2.46544,2.733201,1.2578132,4.181201,-8.640088,2.0091865,-0.0010007423,-0.03825923,0.036851805,-0.25861353,0.077028595,0.071249105
216,-2.46544,2.733201,1.2578132,4.181201,-8.640088,2.0091865,-0.0010007423,-0.03825923,0.036851805,-0.25861353,0.077028595,0.071249105
217,-2.4634452,2.7306764,1.2322696,4.203173,-8.651269,1.912922,-0.009102496,-0.045088764,0.044622462,-0.1992644,-0.015876587,0.16882133
218,-2.4634452,2.7306764,1.2322696,4.203173,-8.651269,1.912922,-0.009102496,-0.045088764,0.044622462,-0.1992644,-0.015876587,0.16882133
219,-2.4634452,2.7306764,1.2322696,4.203173,-8.651269,1.912922,-0.009102496,-0.045088764,0.044622462,-0.1992644,-0.015876587,0.16882133
220,-2.4634452,2.7306764,1.2322696,4.203173,-8.651269,1.912922,-0.009102496,-0.045088764,0.044622462,-0.1992644,-0.015876587,0.16882133
221,-2.4634452,2.7306764,1.2322696,4.203173,-8.651269,1.912922,-0.009102496,-0.045088764,0.044622462,-0.1992644,-0.015876587,0.16882133
222,-2.4634452,2.7306764,1.2322696,4.203173,-8.651269,1.912922,-0.009102496,-0.045088764,0.044622462,-0.1992644,-0.015876587,0.16882133
223,-2.4594362,2.7271683,1.2027291,4.236666,-8.661669,1.7878846,-0.01685612,-0.054493614,0.028267777,0.1228883,-0.13066733,-0.2724888
224,-2.4594362,2.7271683,1.2027291,4.236666,-8.661669,1.7878846,-0.01685612,-0.054493614,0.028267777,0.1228883,-0.13066733,-0.2724888
225,-2.4594362,2.7271683,1.2027291,4.236666,-8.661669,1.7878846,-0.01685612,-0.054493614,0.028267777,0.1228883,-0.13066733,-0.2724888
226,-2.4594362,2.7271683,1.2027291,4.236666,-8.661669,1.7878846,-0.01685612,-0.054493614,0.028267777,0.1228883,-0.13066733,-0.2724888
227,-2.4594362,2.7271683,1.2027291,4.236666,-8.661669,1.7878846,-0.01685612,-0.054493614,0.028267777,0.1228883,-0.13066733,-0.2724888
228,-2.4594362,2.7271683,1.2027291,4.236666,-8.661669,1.7878846,-0.01685612,-0.054493614,0.028267777,0.1228883,-0.13066733,-0.2724888
229,-2.4549527,2.723177,1.1731732,4.275235,-8.665204,1.6754109,-0.0040476834,-0.06475122,0.004583187,0.2102874,-0.48491046,-0.5548574
230,-2.4549527,2.723177,1.1731732,4.275235,-8.665204,1.6754109,-0.0040476834,-0.06475122,0.004583187,0.2102874,-0.48491046,-0.5548574
231,-2.4549527,2.723177,1.1731732,4.275235,-8.665204,1.6754109,-0.0040476834,-0.06475122,0.004583187,0.2102874,-0.48491046,-0.5548574
232,-2.4549527,2.723177,1.1731732,4.275235,-8.665204,1.6754109,-0.0040476834,-0.06475122,0.004583187,0.2102874,-0.48491046,-0.5548574
233,-2.4549527,2.723177,1.1731732,4.275235,-8.665204,1.6754109,-0.0040476834,-0.06475122,0.004583187,0.2102874,-0.48491046,-0.5548574
234,-2.4549527,2.723177,1.1731732,4.275235,-8.665204,1.6754109,-0.0040476834,-0.06475122,0.004583187,0.2102874,-0.48491046,-0.5548574
235,-2.4524431,2.7197478,1.1483494,4.305474,-8.662118,1.6127554,0.037917487,-0.070623666,-0.004186084,-0.057045374,0.28760076,-0.16733614
236,-2.4524431,2.7197478,1.1483494,4.305474,-8.662118,1.6127554,0.037917487,-0.070623666,-0.004186084,-0.057045374,0.28760076,-0.16733614
237,-2.4524431,2.7197478,1.1483494,4.305474,-8.662118,1.6127554,0.037917487,-0.070623666,-0.004186084,-0.057045374,0.28760076,-0.16733614
238,-2.4524431,2.7197478,1.1483494,4.305474,-8.662118,1.6127554,0.037917487,-0.070623666,-0.004186084,-0.057045374,0.28760076,-0.16733614
239,-2.4524431,2.7197478,1.1483494,4.305474,-8.662118,1.6127554,0.037917487,-0.070623666,-0.004186084,-0.057045374,0.28760076,-0.16733614
240,-2.4524431,2.7197478,1.1483494,4.305474,-8.662118,1.6127554,0.037917487,-0.070623666,-0.004186084,-0.057045374,0.28760076,-0.16733614
241,-2.4524431,2.7197478,1.1483494,4.3161483,-8.661861,1.5853727,0.09491615,-0.067163646,0.006554862,0.163206,-0.1707123,0.06319111
242,-2.4524431,2.7197478,1.1483494,4.3161483,-8.661861,1.5853727,0.09491615,-0.067163646,0.006554862,0.163206,-0.1707123,0.06319111
243,-2.4524431,2.7197478,1.1483494,4.3161483,-8.661861,1.5853727,0.09491615,-0.067163646,0.006554862,0.163206,-0.1707123,0.06319111
244,-2.4524431,2.7197478,1.1483494,4.3161483,-8.661861,1.5853727,0.09491615,-0.067163646,0.006554862,0.163206,-0.1707123,0.06319111
245,-2.4524431,2.7197478,1.1483494,4.3161483,-8.661861,1.5853727,0.09491615,-0.067163646,0.006554862,0.163206,-0.1707123,0.06319111
246,-2.4524431,2.7197478,1.1483494,4.3161483,-8.661861,1.5853727,0.09491615,-0.067163646,0.006554862,0.163206,-0.1707123,0.06319111
247,-2.453924,2.716756,1.1098274,4.3196034,-8.664965,1.5587877,0.13340747,-0.05224833,0.02547528,-0.029735,0.169675,0.022896325
248,-2.453924,2.716756,1.1098274,4.3196034,-8.664965,1.5587877,0.13340747,-0.05224833,0.02547528,-0.029735,0.169675,0.022896325
249,-2.453924,2.716756,1.1098274,4.3196034,-8.664965,1.5587877,0.13340747,-0.05224833,0.02547528,-0.029735,0.169675,0.022896325
250,-2.453924,2.716756,1.1098274,4.3196034,-8.664965,1.5587877,0.13340747,-0.05224833,0.02547528,-0.029735,0.169675,0.022896325
251,-2.453924,2.716756,1.1098274,4.3196034,-8.664965,1.5587877,0.13340747,-0.05224833,0.02547528,-0.029735,0.169675,0.022896325
252,-2.453924,2.716756,1.1098274,4.3196034,-8.664965,1.5587877,0.13340747,-0.05224833,0.02547528,-0.029735,0.169675,0.022896325
253,-2.453924,2.716756,1.1098274,4.2946844,-8.679014,1.5494485,0.12189787,-0.026797537,0.043266136,-0.12989801,0.69247746,0.25038174
254,-2.453924,2.716756,1.1098274,4.2946844,-8.679014,1.5494485,0.12189787,-0.026797537,0.043266136,-0.12989801,0.69247746,0.25038174
255,-2.453924,2.716756,1.1098274,4.2946844,-8.679014,1.5494485,0.12189787,-0.026797537,0.043266136,-0.12989801,0.69247746,0.25038174
256,-2.453924,2.716756,1.1098274,4.2946844,-8.679014,1.5494485,0.12189787,-0.026797537,0.043266136,-0.12989801,0.69247746,0.25038174
257,-2.453924,2.716756,1.1098274,4.2946844,-8.679014,1.5494485,0.12189787,-0.026797537,0.043266136,-0.12989801,0.69247746,0.25038174
258,-2.453924,2.716756,1.1098274,4.2946844,-8.679014,1.5494485,0.12189787,-0.026797537,0.043266136,-0.12989801,0.69247746,0.25038174
259,-2.465414,2.7212584,1.0775815,4.2485023,-8.704307,1.5348179,0.06315536,0.0042063114,0.060910076,-0.16779743,0.16371214,-0.4242191
260,-2.465414,2.7212584,1.0775815,4.2485023,-8.704307,1.5348179,0.06315536,0.0042063114,0.060910076,-0.16779743,0.16371214,-0.4242191
261,-2.465414,2.7212584,1.0775815,4.2485023,-8.704307,1.5348179,0.06315536,0.0042063114,0.060910076,-0.16779743,0.16371214,-0.4242191
262,-2.465414,2.7212584,1.0775815,4.2485023,-8.704307,1.5348179,0.06315536,0.0042063114,0.060910076,-0.16779743,0.16371214,-0.4242191
263,-2.465414,2.7212584,1.0775815,4.2485023,-8.704307,1.5348179,0.06315536,0.0042063114,0.060910076,-0.16779743,0.16371214,-0.4242191
264,-2.465414,2.7212584,1.0775815,4.2485023,-8.704307,1.5348179,0.06315536,0.0042063114,0.060910076,-0.16779743,0.16371214,-0.4242191
265,-2.465414,2.7212584,1.0775815,4.2142725,-8.727684,1.4959397,-0.008192247,0.03192368,0.07947065,0.2665517,-0.5181257,-0.20853081
266,-2.465414,2.7212584,1.0775815,4.2142725,-8.727684,1.4959397,-0.008192247,0.03192368,0.07947065,0.2665517,-0.5181257,-0.20853081
267,-2.465414,2.7212584,1.0775815,4.2142725,-8.727684,1.4959397,-0.008192247,0.03192368,0.07947065,0.2665517,-0.5181257,-0.20853081
268,-2.465414,2.7212584,1.0775815,4.2142725,-8.727684,1.4959397,-0.008192247,0.03192368,0.07947065,0.2665517,-0.5181257,-0.20853081
269,-2.465414,2.7212584,1.0775815,4.2142725,-8.727684,1.4959397,-0.008192247,0.03192368,0.07947065,0.2665517,-0.5181257,-0.20853081
270,-2.465414,2.7212584,1.0775815,4.2142725,-8.727684,1.4959397,-0.008192247,0.03192368,0.07947065,0.2665517,-0.5181257,-0.20853081
271,-2.4768944,2.7274218,1.0419562,4.163337,-8.757084,1.4664602,-0.04953355,0.04757465,0.09447646,-1.0550843,1.8188965,0.01836591
272,-2.4768944,2.7274218,1.0419562,4.163337,-8.757084,1.4664602,-0.04953355,0.04757465,0.09447646,-1.0550843,1.8188965,0.01836591
273,-2.4768944,2.7274218,1.0419562,4.163337,-8.757084,1.4664602,-0.04953355,0.04757465,0.09447646,-1.0550843,1.8188965,0.01836591
274,-2.4768944,2.7274218,1.0419562,4.163337,-8.757084,1.4664602,-0.04953355,0.04757465,0.09447646,-1.0550843,1.8188965,0.01836591
275,-2.4768944,2.7274218,1.0419562,4.163337,-8.757084,1.4664602,-0.04953355,0.04757465,0.09447646,-1.0550843,1.8188965,0.01836591
276,-2.4768944,2.7274218,1.0419562,4.163337,-8.757084,1.4664602,-0.04953355,0.04757465,0.09447646,-1.0550843,1.8188965,0.01836591
277,-2.4768944,2.7274218,1.0419562,4.1190586,-8.784154,1.4291174,-0.03945586,0.048902232,0.10153489,-0.12144259,-0.014779035,0.105348535
278,-2.4768944,2.7274218,1.0419562,4.1190586,-8.784154,1.4291174,-0.03945586,0.048902232,0.10153489,-0.12144259,-0.014779035,0.105348535
279,-2.4768944,2.7274218,1.0419562,4.1190586,-8.784154,1.4291174,-0.03945586,0.048902232,0.10153489,-0.12144259,-0.014779035,0.105348535
280,-2.4768944,2.7274218,1.0419562,4.1190586,-8.784154,1.4291174,-0.03945586,0.048902232,0.10153489,-0.12144259,-0.014779035,0.105348535
281,-2.4768944,2.7274218,1.0419562,4.1190586,-8.784154,1.4291174,-0.03945586,0.048902232,0.10153489,-0.12144259,-0.014779035,0.105348535
282,-2.4768944,2.7274218,1.0419562,4.1190586,-8.784154,1.4291174,-0.03945586,0.048902232,0.10153489,-0.12144259,-0.014779035,0.105348535
283,-2.4915636,2.7349818,1.0141839,4.0617824,-8.808351,1.4440448,0.0033801668,0.040134024,0.09503326,-0.06968365,0.102830485,-0.09569718
284,-2.4915636,2.7349818,1.0141839,4.0617824,-8.808351,1.4440448,0.0033801668,0.040134024,0.09503326,-0.06968365,0.102830485,-0.09569718
285,-2.4915636,2.7349818,1.0141839,4.0617824,-8.808351,1.4440448,0.0033801668,0.040134024,0.09503326,-0.06968365,0.102830485,-0.09569718
286,-2.4915636,2.7349818,1.0141839,4.0617824,-8.808351,1.4440448,0.0033801668,0.040134024,0.09503326,-0.06968365,0.102830485,-0.09569718
287,-2.4915636,2.7349818,1.0141839,4.0617824,-8.808351,1.4440448,0.0033801668,0.040134024,0.09503326,-0.06968365,0.102830485,-0.09569718
288,-2.4915636,2.7349818,1.0141839,4.0617824,-8.808351,1.4440448,0.0033801668,0.040134024,0.09503326,-0.06968365,0.102830485,-0.09569718
289,-2.4915636,2.7349818,1.0141839,4.0088644,-8.832086,1.4469457,0.03632162,0.02722232,0.07013713,-0.21321425,0.5187248,0.30924514
290,-2.4915636,2.7349818,1.0141839,4.0088644,-8.832086,1.4469457,0.03632162,0.02722232,0.07013713,-0.21321425,0.5187248,0.30924514
291,-2.4915636,2.7349818,1.0141839,4.0088644,-8.832086,1.4469457,0.03632162,0.02722232,0.07013713,-0.21321425,0.5187248,0.30924514
292,-2.4915636,2.7349818,1.0141839,4.0088644,-8.832086,1.4469457,0.03632162,0.02722232,0.07013713,-0.21321425,0.5187248,0.30924514
293,-2.4915636,2.7349818,1.0141839,4.0088644,-8.832086,1.4469457,0.03632162,0.02722232,0.07013713,-0.21321425,0.5187248,0.30924514
294,-2.4915636,2.7349818,1.0141839,4.0088644,-8.832086,1.4469457,0.03632162,0.02722232,0.07013713,-0.21321425,0.5187248,0.30924514
295,-2.5070581,2.740948,1.0001221,3.9744518,-8.839624,1.4950453,0.035102632,0.014132824,0.030772826,-0.12349238,0.084511,0.28681386
296,-2.5070581,2.740948,1.0001221,3.9744518,-8.839624,1.4950453,0.035102632,0.014132824,0.030772826,-0.12349238,0.084511,0.28681386
297,-2.5070581,2.740948,1.0001221,3.9744518,-8.839624,1.4950453,0.035102632,0.014132824,0.030772826,-0.12349238,0.084511,0.28681386
298,-2.5070581,2.740948,1.0001221,3.9744518,-8.839624,1.4950453,0.035102632,0.014132824,0.030772826,-0.12349238,0.084511,0.28681386
299,-2.5070581,2.740948,1.0001221,3.9744518,-8.839624,1.4950453,0.035102632,0.014132824,0.030772826,-0.12349238,0.084511,0.28681386
300,-2.5070581,2.740948,1.0001221,3.9744518,-8.839624,1.4950453,0.035102632,0.014132824,0.030772826,-0.12349238,0.084511,0.28681386
301,-2.5070581,2.740948,1.0001221,3.941424,-8.847422,1.535808,0.015992714,0.0032332493,-0.007293708,0.22019002,-0.43514916,-0.2254557
302,-2.5070581,2.740948,1.0001221,3.941424,-8.847422,1.535808,0.015992714,0.0032332493,-0.007293708,0.22019002,-0.43514916,-0.2254557
303,-2.5070581,2.740948,1.0001221,3.941424,-8.847422,1.535808,0.015992714,0.0032332493,-0.007293708,0.22019002,-0.43514916,-0.2254557
304,-2.5070581,2.740948,1.0001221,3.941424,-8.847422,1.535808,0.015992714,0.0032332493,-0.007293708,0.22019002,-0.43514916,-0.2254557
305,-2.5070581,2.740948,1.0001221,3.941424,-8.847422,1.535808,0.015992714,0.0032332493,-0.007293708,0.22019002,-0.43514916,-0.2254557
306,-2.5070581,2.740948,1.0001221,3.941424,-8.847422,1.535808,0.015992714,0.0032332493,-0.007293708,0.22019002,-0.43514916,-0.2254557
307,-2.5222957,2.7448132,0.99675477,3.9072626,-8.851132,1.6003536,0.011600094,-0.002467788,-0.023366269,-0.42369804,0.51678324,-1.4006004
308,-2.5222957,2.7448132,0.99675477,3.9072626,-8.851132,1.6003536,0.011600094,-0.002467788,-0.023366269,-0.42369804,0.51678324,-1.4006004
309,-2.5222957,2.7448132,0.99675477,3.9072626,-8.851132,1.6003536,0.011600094,-0.002467788,-0.023366269,-0.42369804,0.51678324,-1.4006004
310,-2.5222957,2.7448132,0.99675477,3.9072626,-8.851132,1.6003536,0.011600094,-0.002467788,-0.023366269,-0.42369804,0.51678324,-1.4006004
311,-2.5222957,2.7448132,0.99675477,3.9072626,-8.851132,1.6003536,0.011600094,-0.002467788,-0.023366269,-0.42369804,0.51678324,-1.4006004
312,-2.5222957,2.7448132,0.99675477,3.9072626,-8.851132,1.6003536,0.011600094,-0.002467788,-0.023366269,-0.42369804,0.51678324,-1.4006004
313,-2.5222957,2.7448132,0.99675477,3.875548,-8.85257,1.6680872,0.03059184,-0.0005961869,-0.009686973,-0.3639642,0.004116937,0.09846904
314,-2.5222957,2.7448132,0.99675477,3.875548,-8.85257,1.6680872,0.03059184,-0.0005961869,-0.009686973,-0.3639642,0.004116937,0.09846904
315,-2.5222957,2.7448132,0.99675477,3.875548,-8.85257,1.6680872,0.03059184,-0.0005961869,-0.009686973,-0.3639642,0.004116937,0.09846904
316,-2.5222957,2.7448132,0.99675477,3.875548,-8.85257,1.6680872,0.03059184,-0.0005961869,-0.009686973,-0.3639642,0.004116937,0.09846904
317,-2.5222957,2.7448132,0.99675477,3.875548,-8.85257,1.6680872,0.03059184,-0.0005961869,-0.009686973,-0.3639642,0.004116937,0.09846904
318,-2.5222957,2.7448132,0.99675477,3.875548,-8.85257,1.6680872,0.03059184,-0.0005961869,-0.009686973,-0.3639642,0.004116937,0.09846904
319,-2.537334,2.7479439,0.9982918,3.848579,-8.853609,1.7240751,0.04793875,0.0064920494,0.0163121,-0.18659921,0.096264526,0.02510177
320,-2.537334,2.7479439,0.9982918,3.848579,-8.853609,1.7240751,0.04793875,0.0064920494,0.0163121,-0.18659921,0.096264526,0.02510177
321,-2.537334,2.7479439,0.9982918,3.848579,-8.853609,1.7240751,0.04793875,0.0064920494,0.0163121,-0.18659921,0.096264526,0.02510177
322,-2.537334,2.7479439,0.9982918,3.848579,-8.853609,1.7240751,0.04793875,0.0064920494,0.0163121,-0.18659921,0.096264526,0.02510177
323,-2.537334,2.7479439,0.9982918,3.848579,-8.853609,1.7240751,0.04793875,0.0064920494,0.0163121,-0.18659921,0.096264526,0.02510177
324,-2.537334,2.7479439,0.9982918,3.848579,-8.853609,1.7240751,0.04793875,0.0064920494,0.0163121,-0.18659921,0.096264526,0.02510177
325,-2.537334,2.7479439,0.9982918,3.8303668,-8.8528,1.7682176,0.04050451,0.011235994,0.027102018,-0.326592,0.4004421,0.0842703
326,-2.537334,2.7479439,0.9982918,3.8303668,-8.8528,1.7682176,0.04050451,0.011235994,0.027102018,-0.326592,0.4004421,0.0842703
327,-2.537334,2.7479439,0.9982918,3.8303668,-8.8528,1.7682176,0.04050451,0.011235994,0.027102018,-0.326592,0.4004421,0.0842703
328,-2.537334,2.7479439,0.9982918,3.8303668,-8.8528,1.7682176,0.04050451,0.011235994,0.027102018,-0.326592,0.4004421,0.0842703
329,-2.537334,2.7479439,0.9982918,3.8303668,-8.8528,1.7682176,0.04050451,0.011235994,0.027102018,-0.326592,0.4004421,0.0842703
330,-2.537334,2.7479439,0.9982918,3.8303668,-8.8528,1.7682176,0.04050451,0.011235994,0.027102018,-0.326592,0.4004421,0.0842703
331,-2.537334,2.7479439,0.9982918,3.816117,-8.854851,1.7886474,0.009920124,0.0080059385,0.010233123,-0.096190326,0.15031861,0.19373797
332,-2.537334,2.7479439,0.9982918,3.816117,-8.854851,1.7886474,0.009920124,0.0080059385,0.010233123,-0.096190326,0.15031861,0.19373797
333,-2.537334,2.7479439,0.9982918,3.816117,-8.854851,1.7886474,0.009920124,0.0080059385,0.010233123,-0.096190326,0.15031861,0.19373797
334,-2.537334,2.7479439,0.9982918,3.816117,-8.854851,1.7886474,0.009920124,0.0080059385,0.010233123,-0.096190326,0.15031861,0.19373797
335,-2.537334,2.7479439,0.9982918,3.816117,-8.854851,1.7886474,0.009920124,0.0080059385,0.010233123,-0.096190326,0.15031861,0.19373797
336,-2.537334,2.7479439,0.9982918,3.816117,-8.854851,1.7886474,0.009920124,0.0080059385,0.010233123,-0.096190326,0.15031861,0.19373797
337,-2.553998,2.7505145,1.0043187,3.7931566,-8.845075,1.8833473,-0.02120935,-0.00032045046,-0.019843442,0.10452464,-0.45004147,-0.0885009
338,-2.553998,2.7505145,1.0043187,3.7931566,-8.845075,1.8833473,-0.02120935,-0.00032045046,-0.019843442,0.10452464,-0.45004147,-0.0885009
339,-2.553998,2.7505145,1.0043187,3.7931566,-8.845075,1.8833473,-0.02120935,-0.00032045046,-0.019843442,0.10452464,-0.45004147,-0.0885009
340,-2.553998,2.7505145,1.0043187,3.7931566,-8.845075,1.8833473,-0.02120935,-0.00032045046,-0.019843442,0.10452464,-0.45004147,-0.0885009
341,-2.553998,2.7505145,1.0043187,3.7931566,-8.845075,1.8833473,-0.02120935,-0.00032045046,-0.019843442,0.10452464,-0.45004147,-0.0885009
342,-2.553998,2.7505145,1.0043187,3.7931566,-8.845075,1.8833473,-0.02120935,-0.00032045046,-0.019843442,0.10452464,-0.45004147,-0.0885009
343,-2.553998,2.7505145,1.0043187,3.7927463,-8.843561,1.8912679,-0.03463633,-0.007690811,-0.042580523,-0.19180249,-0.19118667,-0.6729424
344,-2.553998,2.7505145,1.0043187,3.7927463,-8.843561,1.8912679,-0.03463633,-0.007690811,-0.042580523,-0.19180249,-0.19118667,-0.6729424
345,-2.553998,2.7505145,1.0043187,3.7927463,-8.843561,1.8912679,-0.03463633,-0.007690811,-0.042580523,-0.19180249,-0.19118667,-0.6729424
346,-2.553998,2.7505145,1.0043187,3.7927463,-8.843561,1.8912679,-0.03463633,-0.007690811,-0.042580523,-0.19180249,-0.19118667,-0.6729424
347,-2.553998,2.7505145,1.0043187,3.7927463,-8.843561,1.8912679,-0.03463633,-0.007690811,-0.042580523,-0.19180249,-0.19118667,-0.6729424
348,-2.553998,2.7505145,1.0043187,3.7927463,-8.843561,1.8912679,-0.03463633,-0.007690811,-0.042580523,-0.19180249,-0.19118667,-0.6729424
349,-2.553998,2.7505145,1.0043187,3.7873585,-8.842338,1.9077125,-0.033833608,-0.012592319,-0.05521862,-0.10986038,-0.010459697,-0.016216861
350,-2.553998,2.7505145,1.0043187,3.7873585,-8.842338,1.9077125,-0.033833608,-0.012592319,-0.05521862,-0.10986038,-0.010459697,-0.016216861
351,-2.553998,2.7505145,1.0043187,3.7873585,-8.842338,1.9077125,-0.033833608,-0.012592319,-0.05521862,-0.10986038,-0.010459697,-0.016216861
352,-2.553998,2.7505145,1.0043187,3.7873585,-8.842338,1.9077125,-0.033833608,-0.012592319,-0.05521862,-0.10986038,-0.010459697,-0.016216861
353,-2.553998,2.7505145,1.0043187,3.7873585,-8.842338,1.9077125,-0.033833608,-0.012592319,-0.05521862,-0.10986038,-0.010459697,-0.016216861
354,-2.553998,2.7505145,1.0043187,3.7873585,-8.842338,1.9077125,-0.033833608,-0.012592319,-0.05521862,-0.10986038,-0.010459697,-0.016216861
355,-2.553998,2.7505145,1.0043187,3.781318,-8.842293,1.9198627,-0.030899515,-0.015629679,-0.06315855,-0.027496757,0.027129652,-0.0013111077
356,-2.553998,2.7505145,1.0043187,3.781318,-8.842293,1.9198627,-0.030899515,-0.015629679,-0.06315855,-0.027496757,0.027129652,-0.0013111077
357,-2.553998,2.7505145,1.0043187,3.781318,-8.842293,1.9198627,-0.030899515,-0.015629679,-0.06315855,-0.027496757,0.027129652,-0.0013111077
358,-2.553998,2.7505145,1.0043187,3.781318,-8.842293,1.9198627,-0.030899515,-0.015629679,-0.06315855,-0.027496757,0.027129652,-0.0013111077
359,-2.553998,2.7505145,1.0043187,3.781318,-8.842293,1.9198627,-0.030899515,-0.015629679,-0.06315855,-0.027496757,0.027129652,-0.0013111077
360,-2.553998,2.7505145,1.0043187,3.781318,-8.842293,1.9198627,-0.030899515,-0.015629679,-0.06315855,-0.027496757,0.027129652,-0.0013111077
361,-2.553998,2.7505145,1.0043187,3.76653,-8.841351,1.9529868,-0.033917714,-0.01635362,-0.06772577,-0.20667773,0.21759017,0.0484363
362,-2.553998,2.7505145,1.0043187,3.76653,-8.841351,1.9529868,-0.033917714,-0.01635362,-0.06772577,-0.20667773,0.21759017,0.0484363
363,-2.553998,2.7505145,1.0043187,3.76653,-8.841351,1.9529868,-0.033917714,-0.01635362,-0.06772577,-0.20667773,0.21759017,0.0484363
364,-2.553998,2.7505145,1.0043187,3.76653,-8.841351,1.9529868,-0.033917714,-0.01635362,-0.06772577,-0.20667773,0.21759017,0.0484363
365,-2.553998,2.7505145,1.0043187,3.76653,-8.841351,1.9529868,-0.033917714,-0.01635362,-0.06772577,-0.20667773,0.21759017,0.0484363
366,-2.553998,2.7505145,1.0043187,3.76653,-8.841351,1.9529868,-0.033917714,-0.01635362,-0.06772577,-0.20667773,0.21759017,0.0484363
367,-2.564882,2.7531939,1.0115911,3.751773,-8.839638,1.9888159,-0.04392194,-0.013750625,-0.06602344,-0.10372557,0.2753623,-0.10508415
368,-2.564882,2.7531939,1.0115911,3.751773,-8.839638,1.9888159,-0.04392194,-0.013750625,-0.06602344,-0.10372557,0.2753623,-0.10508415
369,-2.564882,2.7531939,1.0115911,3.751773,-8.839638,1.9888159,-0.04392194,-0.013750625,-0.06602344,-0.10372557,0.2753623,-0.10508415
370,-2.564882,2.7531939,1.0115911,3.751773,-8.839638,1.9888159,-0.04392194,-0.013750625,-0.06602344,-0.10372557,0.2753623,-0.10508415
371,-2.564882,2.7531939,1.0115911,3.751773,-8.839638,1.9888159,-0.04392194,-0.013750625,-0.06602344,-0.10372557,0.2753623,-0.10508415
372,-2.564882,2.7531939,1.0115911,3.751773,-8.839638,1.9888159,-0.04392194,-0.013750625,-0.06602344,-0.10372557,0.2753623,-0.10508415
373,-2.564882,2.7531939,1.0115911,3.7525609,-8.850129,1.9400722,-0.058218718,-0.0077876914,-0.056055408,0.05059879,-0.29240772,-0.014870672
374,-2.564882,2.7531939,1.0115911,3.7525609,-8.850129,1.9400722,-0.058218718,-0.0077876914,-0.056055408,0.05059879,-0.29240772,-0.014870672
375,-2.564882,2.7531939,1.0115911,3.7525609,-8.850129,1.9400722,-0.058218718,-0.0077876914,-0.056055408,0.05059879,-0.29240772,-0.014870672
376,-2.564882,2.7531939,1.0115911,3.7525609,-8.850129,1.9400722,-0.058218718,-0.0077876914,-0.056055408,0.05059879,-0.29240772,-0.014870672
377,-2.564882,2.7531939,1.0115911,3.7525609,-8.850129,1.9400722,-0.058218718,-0.0077876914,-0.056055408,0.05059879,-0.29240772,-0.014870672
378,-2.564882,2.7531939,1.0115911,3.7525609,-8.850129,1.9400722,-0.058218718,-0.0077876914,-0.056055408,0.05059879,-0.29240772,-0.014870672
379,-2.564882,2.7531939,1.0115911,3.7621033,-8.832326,2.001746,-0.06410713,-0.0021090112,-0.042686984,0.14724189,-0.5414836,-0.5386758
380,-2.564882,2.7531939,1.0115911,3.7621033,-8.832326,2.001746,-0.06410713,-0.0021090112,-0.042686984,0.14724189,-0.5414836,-0.5386758
381,-2.564882,2.7531939,1.0115911,3.7621033,-8.832326,2.001746,-0.06410713,-0.0021090112,-0.042686984,0.14724189,-0.5414836,-0.5386758
382,-2.564882,2.7531939,1.0115911,3.7621033,-8.832326,2.001746,-0.06410713,-0.0021090112,-0.042686984,0.14724189,-0.5414836,-0.5386758
383,-2.564882,2.7531939,1.0115911,3.7621033,-8.832326,2.001746,-0.06410713,-0.0021090112,-0.042686984,0.14724189,-0.5414836,-0.5386758
384,-2.564882,2.7531939,1.0115911,3.7621033,-8.832326,2.001746,-0.06410713,-0.0021090112,-0.042686984,0.14724189,-0.5414836,-0.5386758
385,-2.564882,2.7531939,1.0115911,3.7746646,-8.813635,2.0596447,-0.045019563,-0.0008878927,-0.032454927,0.28958735,0.025169807,-0.20183243
386,-2.564882,2.7531939,1.0115911,3.7746646,-8.813635,2.0596447,-0.045019563,-0.0008878927,-0.032454927,0.28958735,0.025169807,-0.20183243
387,-2.564882,2.7531939,1.0115911,3.7746646,-8.813635,2.0596447,-0.045019563,-0.0008878927,-0.032454927,0.28958735,0.025169807,-0.20183243
388,-2.564882,2.7531939,1.0115911,3.7746646,-8.813635,2.0596447,-0.045019563,-0.0008878927,-0.032454927,0.28958735,0.025169807,-0.20183243
389,-2.564882,2.7531939,1.0115911,3.7746646,-8.813635,2.0596447,-0.045019563,-0.0008878927,-0.032454927,0.28958735,0.025169807,-0.20183243
390,-2.564882,2.7531939,1.0115911,3.7746646,-8.813635,2.0596447,-0.045019563,-0.0008878927,-0.032454927,0.28958735,0.025169807,-0.20183243
391,-2.562269,2.7517614,1.0393736,3.7791436,-8.80154,2.1027007,-0.005117626,-0.0032971266,-0.02600546,0.22658907,-0.17372411,0.020743607
392,-2.562269,2.7517614,1.0393736,3.7791436,-8.80154,2.1027007,-0.005117626,-0.0032971266,-0.02600546,0.22658907,-0.17372411,0.020743607
393,-2.562269,2.7517614,1.0393736,3.7791436,-8.80154,2.1027007,-0.005117626,-0.0032971266,-0.02600546,0.22658907,-0.17372411,0.020743607
394,-2.562269,2.7517614,1.0393736,3.7791436,-8.80154,2.1027007,-0.005117626,-0.0032971266,-0.02600546,0.22658907,-0.17372411,0.020743607
395,-2.562269,2.7517614,1.0393736,3.7791436,-8.80154,2.1027007,-0.005117626,-0.0032971266,-0.02600546,0.22658907,-0.17372411,0.020743607
396,-2.562269,2.7517614,1.0393736,3.7791436,-8.80154,2.1027007,-0.005117626,-0.0032971266,-0.02600546,0.22658907,-0.17372411,0.020743607
397,-2.562269,2.7517614,1.0393736,3.7797284,-8.784053,2.1735797,0.028503057,-0.0042999983,-0.019108854,-0.05548129,0.09164013,0.11387687
398,-2.562269,2.7517614,1.0393736,3.7797284,-8.784053,2.1735797,0.028503057,-0.0042999983,-0.019108854,-0.05548129,0.09164013,0.11387687
399,-2.562269,2.7517614,1.0393736,3.7797284,-8.784053,2.1735797,0.028503057,-0.0042999983,-0.019108854,-0.05548129,0.09164013,0.11387687
400,-2.562269,2.7517614,1.0393736,3.7797284,-8.784053,2.1735797,0.028503057,-0.0042999983,-0.019108854,-0.05548129,0.09164013,0.11387687
401,-2.562269,2.7517614,1.0393736,3.7797284,-8.784053,2.1735797,0.028503057,-0.0042999983,-0.019108854,-0.05548129,0.09164013,0.11387687
402,-2.562269,2.7517614,1.0393736,3.7797284,-8.784053,2.1735797,0.028503057,-0.0042999983,-0.019108854,-0.05548129,0.09164013,0.11387687
403,-2.5660226,2.7546134,1.071144,3.7620997,-8.7707405,2.2563448,0.034494735,-1.2775434e-05,-0.0077014575,0.15163454,0.6889846,-0.07244386
404,-2.5660226,2.7546134,1.071144,3.7620997,-8.7707405,2.2563448,0.034494735,-1.2775434e-05,-0.0077014575,0.15163454,0.6889846,-0.07244386
405,-2.5660226,2.7546134,1.071144,3.7620997,-8.7707405,2.2563448,0.034494735,-1.2775434e-05,-0.0077014575,0.15163454,0.6889846,-0.07244386
406,-2.5660226,2.7546134,1.071144,3.7620997,-8.7707405,2.2563448,0.034494735,-1.2775434e-05,-0.0077014575,0.15163454,0.6889846,-0.07244386
407,-2.5660226,2.7546134,1.071144,3.7620997,-8.7707405,2.2563448,0.034494735,-1.2775434e-05,-0.0077014575,0.15163454,0.6889846,-0.07244386
408,-2.5660226,2.7546134,1.071144,3.7620997,-8.7707405,2.2563448,0.034494735,-1.2775434e-05,-0.0077014575,0.15163454,0.6889846,-0.07244386
409,-2.5707834,2.7585433,1.0851092,3.7275672,-8.76743,2.3254695,0.022965971,0.008710717,0.010030845,0.082219,0.07185756,-0.15179372
410,-2.5707834,2.7585433,1.0851092,3.7275672,-8.76743,2.3254695,0.022965971,0.008710717,0.010030845,0.082219,0.07185756,-0.15179372
411,-2.5707834,2.7585433,1.0851092,3.7275672,-8.76743,2.3254695,0.022965971,0.008710717,0.010030845,0.082219,0.07185756,-0.15179372
412,-2.5707834,2.7585433,1.0851092,3.7275672,-8.76743,2.3254695,0.022965971,0.008710717,0.010030845,0.082219,0.07185756,-0.15179372
413,-2.5707834,2.7585433,1.0851092,3.7275672,-8.76743,2.3254695,0.022965971,0.008710717,0.010030845,0.082219,0.07185756,-0.15179372
414,-2.5707834,2.7585433,1.0851092,3.7275672,-8.76743,2.3254695,0.022965971,0.008710717,0.010030845,0.082219,0.07185756,-0.15179372
415,-2.5707834,2.7585433,1.0851092,3.6908646,-8.77903,2.3401983,0.021409499,0.01824119,0.03316822,0.23369795,-0.4999303,-0.16542384
416,-2.5707834,2.7585433,1.0851092,3.6908646,-8.77903,2.3401983,0.021409499,0.01824119,0.03316822,0.23369795,-0.4999303,-0.16542384
417,-2.5707834,2.7585433,1.0851092,3.6908646,-8.77903,2.3401983,0.021409499,0.01824119,0.03316822,0.23369795,-0.4999303,-0.16542384
418,-2.5707834,2.7585433,1.0851092,3.6908646,-8.77903,2.3401983,0.021409499,0.01824119,0.03316822,0.23369795,-0.4999303,-0.16542384
419,-2.5707834,2.7585433,1.0851092,3.6908646,-8.77903,2.3401983,0.021409499,0.01824119,0.03316822,0.23369795,-0.4999303,-0.16542384
420,-2.5707834,2.7585433,1.0851092,3.6908646,-8.77903,2.3401983,0.021409499,0.01824119,0.03316822,0.23369795,-0.4999303,-0.16542384
421,-2.5762897,2.766513,1.0975797,3.6590137,-8.792894,2.338163,0.039092828,0.02539011,0.054356277,-0.8443762,2.0963998,0.61535126
422,-2.5762897,2.766513,1.0975797,3.6590137,-8.792894,2.338163,0.039092828,0.02539011,0.054356277,-0.8443762,2.0963998,0.61535126
423,-2.5762897,2.766513,1.0975797,3.6590137,-8.792894,2.338163,0.039092828,0.02539011,0.054356277,-0.8443762,2.0963998,0.61535126
424,-2.5762897,2.766513,1.0975797,3.6590137,-8.792894,2.338163,0.039092828,0.02539011,0.054356277,-0.8443762,2.0963998,0.61535126
425,-2.5762897,2.766513,1.0975797,3.6590137,-8.792894,2.338163,0.039092828,0.02539011,0.054356277,-0.8443762,2.0963998,0.61535126
426,-2.5762897,2.766513,1.0975797,3.6590137,-8.792894,2.338163,0.039092828,0.02539011,0.054356277,-0.8443762,2.0963998,0.61535126
427,-2.5762897,2.766513,1.0975797,3.627199,-8.805655,2.3397145,0.05888836,0.028762825,0.062161002,-0.13594882,-0.05162683,0.18938582
428,-2.5762897,2.766513,1.0975797,3.627199,-8.805655,2.3397145,0.05888836,0.028762825,0.062161002,-0.13594882,-0.05162683,0.18938582
429,-2.5762897,2.766513,1.0975797,3.627199,-8.805655,2.3397145,0.05888836,0.028762825,0.062161002,-0.13594882,-0.05162683,0.18938582
430,-2.5762897,2.766513,1.0975797,3.627199,-8.805655,2.3397145,0.05888836,0.028762825,0.062161002,-0.13594882,-0.05162683,0.18938582
431,-2.5762897,2.766513,1.0975797,3.627199,-8.805655,2.3397145,0.05888836,0.028762825,0.062161002,-0.13594882,-0.05162683,0.18938582
432,-2.5762897,2.766513,1.0975797,3.627199,-8.805655,2.3397145,0.05888836,0.028762825,0.062161002,-0.13594882,-0.05162683,0.18938582
433,-2.5767329,2.7711108,1.1094177,3.6257045,-8.808209,2.3324013,0.056127805,0.029850865,0.052116316,-0.05653857,0.025234746,0.11151831
434,-2.5767329,2.7711108,1.1094177,3.6257045,-8.808209,2.3324013,0.056127805,0.029850865,0.052116316,-0.05653857,0.025234746,0.11151831
435,-2.5767329,2.7711108,1.1094177,3.6257045,-8.808209,2.3324013,0.056127805,0.029850865,0.052116316,-0.05653857,0.025234746,0.11151831
436,-2.5767329,2.7711108,1.1094177,3.6257045,-8.808209,2.3324013,0.056127805,0.029850865,0.052116316,-0.05653857,0.025234746,0.11151831
437,-2.5767329,2.7711108,1.1094177,3.6257045,-8.808209,2.3324013,0.056127805,0.029850865,0.052116316,-0.05653857,0.025234746,0.11151831
438,-2.5767329,2.7711108,1.1094177,3.6257045,-8.808209,2.3324013,0.056127805,0.029850865,0.052116316,-0.05653857,0.025234746,0.11151831
439,-2.5767329,2.7711108,1.1094177,3.6556687,-8.798869,2.3208559,0.020876123,0.032546483,0.032205805,-0.096926264,0.17506164,0.07959021
440,-2.5767329,2.7711108,1.1094177,3.6556687,-8.798869,2.3208559,0.020876123,0.032546483,0.032205805,-0.096926264,0.17506164,0.07959021
441,-2.5767329,2.7711108,1.1094177,3.6556687,-8.798869,2.3208559,0.020876123,0.032546483,0.032205805,-0.096926264,0.17506164,0.07959021
442,-2.5767329,2.7711108,1.1094177,3.6556687,-8.798869,2.3208559,0.020876123,0.032546483,0.032205805,-0.096926264,0.17506164,0.07959021
443,-2.5767329,2.7711108,1.1094177,3.6556687,-8.798869,2.3208559,0.020876123,0.032546483,0.032205805,-0.096926264,0.17506164,0.07959021
444,-2.5767329,2.7711108,1.1094177,3.6556687,-8.798869,2.3208559,0.020876123,0.032546483,0.032205805,-0.096926264,0.17506164,0.07959021
445,-2.5767329,2.7711108,1.1094177,3.7023568,-8.787707,2.288916,-0.029566612,0.037672624,0.012053622,0.3027173,0.035134487,-0.26729798
446,-2.5767329,2.7711108,1.1094177,3.7023568,-8.787707,2.288916,-0.029566612,0.037672624,0.012053622,0.3027173,0.035134487,-0.26729798
447,-2.5767329,2.7711108,1.1094177,3.7023568,-8.787707,2.288916,-0.029566612,0.037672624,0.012053622,0.3027173,0.035134487,-0.26729798
448,-2.5767329,2.7711108,1.1094177,3.7023568,-8.787707,2.288916,-0.029566612,0.037672624,0.012053622,0.3027173,0.035134487,-0.26729798
449,-2.5767329,2.7711108,1.1094177,3.7023568,-8.787707,2.288916,-0.029566612,0.037672624,0.012053622,0.3027173,0.035134487,-0.26729798
450,-2.5767329,2.7711108,1.1094177,3.7023568,-8.787707,2.288916,-0.029566612,0.037672624,0.012053622,0.3027173,0.035134487,-0.26729798
451,-2.5477977,2.760049,1.1265007,3.7731647,-8.773824,2.225677,-0.07004877,0.041015532,-0.007923963,0.06343759,-0.1543029,-0.0013766789
452,-2.5477977,2.760049,1.1265007,3.7731647,-8.773824,2.225677,-0.07004877,0.041015532,-0.007923963,0.06343759,-0.1543029,-0.0013766789
453,-2.5477977,2.760049,1.1265007,3.7731647,-8.773824,2.225677,-0.07004877,0.041015532,-0.007923963,0.06343759,-0.1543029,-0.0013766789
454,-2.5477977,2.760049,1.1265007,3.7731647,-8.773824,2.225677,-0.07004877,0.041015532,-0.007923963,0.06343759,-0.1543029,-0.0013766789
455,-2.5477977,2.760049,1.1265007,3.7731647,-8.773824,2.225677,-0.07004877,0.041015532,-0.007923963,0.06343759,-0.1543029,-0.0013766789
456,-2.5477977,2.760049,1.1265007,3.7731647,-8.773824,2.225677,-0.07004877,0.041015532,-0.007923963,0.06343759,-0.1543029,-0.0013766789
457,-2.5477977,2.760049,1.1265007,3.8187728,-8.763344,2.1888714,-0.08566354,0.0395059,-0.027926033,0.2291644,-0.23914272,0.027575113
458,-2.5477977,2.760049,1.1265007,3.8187728,-8.763344,2.1888714,-0.08566354,0.0395059,-0.027926033,0.2291644,-0.23914272,0.027575113
459,-2.5477977,2.760049,1.1265007,3.8187728,-8.763344,2.1888714,-0.08566354,0.0395059,-0.027926033,0.2291644,-0.23914272,0.027575113
460,-2.5477977,2.760049,1.1265007,3.8187728,-8.763344,2.1888714,-0.08566354,0.0395059,-0.027926033,0.2291644,-0.23914272,0.027575113
461,-2.5477977,2.760049,1.1265007,3.8187728,-8.763344,2.1888714,-0.08566354,0.0395059,-0.027926033,0.2291644,-0.23914272,0.027575113
462,-2.5477977,2.760049,1.1265007,3.8187728,-8.763344,2.1888714,-0.08566354,0.0395059,-0.027926033,0.2291644,-0.23914272,0.027575113
463,-2.5282807,2.7537277,1.136985,3.8644028,-8.761751,2.113882,-0.07410391,0.036366336,-0.037051953,-0.074672356,0.42290244,-0.55506754
464,-2.5282807,2.7537277,1.136985,3.8644028,-8.761751,2.113882,-0.07410391,0.036366336,-0.037051953,-0.074672356,0.42290244,-0.55506754
465,-2.5282807,2.7537277,1.136985,3.8644028,-8.761751,2.113882,-0.07410391,0.036366336,-0.037051953,-0.074672356,0.42290244,-0.55506754
466,-2.5282807,2.7537277,1.136985,3.8644028,-8.761751,2.113882,-0.07410391,0.036366336,-0.037051953,-0.074672356,0.42290244,-0.55506754
467,-2.5282807,2.7537277,1.136985,3.8644028,-8.761751,2.113882,-0.07410391,0.036366336,-0.037051953,-0.074672356,0.42290244,-0.55506754
468,-2.5282807,2.7537277,1.136985,3.8644028,-8.761751,2.113882,-0.07410391,0.036366336,-0.037051953,-0.074672356,0.42290244,-0.55506754
469,-2.5282807,2.7537277,1.136985,3.888169,-8.765327,2.0546446,-0.051659595,0.038050566,-0.023634553,0.029766157,0.18873116,0.04757234
470,-2.5282807,2.7537277,1.136985,3.888169,-8.765327,2.0546446,-0.051659595,0.038050566,-0.023634553,0.029766157,0.18873116,0.04757234
471,-2.5282807,2.7537277,1.136985,3.888169,-8.765327,2.0546446,-0.051659595,0.038050566,-0.023634553,0.029766157,0.18873116,0.04757234
472,-2.5282807,2.7537277,1.136985,3.888169,-8.765327,2.0546446,-0.051659595,0.038050566,-0.023634553,0.029766157,0.18873116,0.04757234
473,-2.5282807,2.7537277,1.136985,3.888169,-8.765327,2.0546446,-0.051659595,0.038050566,-0.023634553,0.029766157,0.18873116,0.04757234
474,-2.5282807,2.7537277,1.136985,3.888169,-8.765327,2.0546446,-0.051659595,0.038050566,-0.023634553,0.029766157,0.18873116,0.04757234
475,-2.5166087,2.753515,1.1448476,3.890068,-8.783457,1.9719641,-0.042823255,0.04619916,0.0058681825,0.053877324,-0.048387837,0.22853243
476,-2.5166087,2.753515,1.1448476,3.890068,-8.783457,1.9719641,-0.042823255,0.04619916,0.0058681825,0.053877324,-0.048387837,0.22853243
477,-2.5166087,2.753515,1.1448476,3.890068,-8.783457,1.9719641,-0.042823255,0.04619916,0.0058681825,0.053877324,-0.048387837,0.22853243
478,-2.5166087,2.753515,1.1448476,3.890068,-8.783457,1.9719641,-0.042823255,0.04619916,0.0058681825,0.053877324,-0.048387837,0.22853243
479,-2.5166087,2.753515,1.1448476,3.890068,-8.783457,1.9719641,-0.042823255,0.04619916,0.0058681825,0.053877324,-0.048387837,0.22853243
480,-2.5166087,2.753515,1.1448476,3.890068,-8.783457,1.9719641,-0.042823255,0.04619916,0.0058681825,0.053877324,-0.048387837,0.22853243
481,-2.5135825,2.755152,1.1514505,3.883484,-8.799298,1.9134539,-0.055501807,0.05556675,0.030367207,-0.2762709,0.2999752,0.27967748
482,-2.5135825,2.755152,1.1514505,3.883484,-8.799298,1.9134539,-0.055501807,0.05556675,0.030367207,-0.2762709,0.2999752,0.27967748
483,-2.5135825,2.755152,1.1514505,3.883484,-8.799298,1.9134539,-0.055501807,0.05556675,0.030367207,-0.2762709,0.2999752,0.27967748
484,-2.5135825,2.755152,1.1514505,3.883484,-8.799298,1.9134539,-0.055501807,0.05556675,0.030367207,-0.2762709,0.2999752,0.27967748
485,-2.5135825,2.755152,1.1514505,3.883484,-8.799298,1.9134539,-0.055501807,0.05556675,0.030367207,-0.2762709,0.2999752,0.27967748
486,-2.5135825,2.755152,1.1514505,3.883484,-8.799298,1.9134539,-0.055501807,0.05556675,0.030367207,-0.2762709,0.2999752,0.27967748
487,-2.510848,2.7575822,1.1552118,3.8688197,-8.825177,1.8217752,-0.07285511,0.060027506,0.03530278,-0.16696382,0.044982124,0.07459825
488,-2.510848,2.7575822,1.1552118,3.8688197,-8.825177,1.8217752,-0.07285511,0.060027506,0.03530278,-0.16696382,0.044982124,0.07459825
489,-2.510848,2.7575822,1.1552118,3.8688197,-8.825177,1.8217752,-0.07285511,0.060027506,0.03530278,-0.16696382,0.044982124,0.07459825
490,-2.510848,2.7575822,1.1552118,3.8688197,-8.825177,1.8217752,-0.07285511,0.060027506,0.03530278,-0.16696382,0.044982124,0.07459825
491,-2.510848,2.7575822,1.1552118,3.8688197,-8.825177,1.8217752,-0.07285511,0.060027506,0.03530278,-0.16696382,0.044982124,0.07459825
492,-2.510848,2.7575822,1.1552118,3.8688197,-8.825177,1.8217752,-0.07285511,0.060027506,0.03530278,-0.16696382,0.044982124,0.07459825
493,-2.5076926,2.7596354,1.1602259,3.8581204,-8.848834,1.7272575,-0.07676013,0.059010793,0.02575421,0.28052247,-0.10239929,-0.022409013
494,-2.5076926,2.7596354,1.1602259,3.8581204,-8.848834,1.7272575,-0.07676013,0.059010793,0.02575421,0.28052247,-0.10239929,-0.022409013
495,-2.5076926,2.7596354,1.1602259,3.8581204,-8.848834,1.7272575,-0.07676013,0.059010793,0.02575421,0.28052247,-0.10239929,-0.022409013
496,-2.5076926,2.7596354,1.1602259,3.8581204,-8.848834,1.7272575,-0.07676013,0.059010793,0.02575421,0.28052247,-0.10239929,-0.022409013
497,-2.5076926,2.7596354,1.1602259,3.8581204,-8.848834,1.7272575,-0.07676013,0.059010793,0.02575421,0.28052247,-0.10239929,-0.022409013
498,-2.5076926,2.7596354,1.1602259,3.8581204,-8.848834,1.7272575,-0.07676013,0.059010793,0.02575421,0.28052247,-0.10239929,-0.022409013
499,-2.5031774,2.7606025,1.1668793,3.8591297,-8.86684,1.6299244,-0.0700179,0.056123544,0.0142531255,-0.04982795,0.38583183,0.31520647
500,-2.5031774,2.7606025,1.1668793,3.8591297,-8.86684,1.6299244,-0.0700179,0.056123544,0.0142531255,-0.04982795,0.38583183,0.31520647
501,-2.5031774,2.7606025,1.1668793,3.8591297,-8.86684,1.6299244,-0.0700179,0.056123544,0.0142531255,-0.04982795,0.38583183,0.31520647
502,-2.5031774,2.7606025,1.1668793,3.8591297,-8.86684,1.6299244,-0.0700179,0.056123544,0.0142531255,-0.04982795,0.38583183,0.31520647
503,-2.5031774,2.7606025,1.1668793,3.8591297,-8.86684,1.6299244,-0.0700179,0.056123544,0.0142531255,-0.04982795,0.38583183,0.31520647
504,-2.5031774,2.7606025,1.1668793,3.8591297,-8.86684,1.6299244,-0.0700179,0.056123544,0.0142531255,-0.04982795,0.38583183,0.31520647
505,-2.4988916,2.761579,1.1744354,3.8594935,-8.884958,1.5271603,-0.067406386,0.05470547,0.00833597,0.2176957,0.1247963,0.12803368
506,-2.4988916,2.761579,1.1744354,3.8594935,-8.884958,1.5271603,-0.067406386,0.05470547,0.00833597,0.2176957,0.1247963,0.12803368
507,-2.4988916,2.761579,1.1744354,3.8594935,-8.884958,1.5271603,-0.067406386,0.05470547,0.00833597,0.2176957,0.1247963,0.12803368
508,-2.4988916,2.761579,1.1744354,3.8594935,-8.884958,1.5271603,-0.067406386,0.05470547,0.00833597,0.2176957,0.1247963,0.12803368
509,-2.4988916,2.761579,1.1744354,3.8594935,-8.884958,1.5271603,-0.067406386,0.05470547,0.00833597,0.2176957,0.1247963,0.12803368
510,-2.4988916,2.761579,1.1744354,3.8594935,-8.884958,1.5271603,-0.067406386,0.05470547,0.00833597,0.2176957,0.1247963,0.12803368
511,-2.495728,2.7627861,1.1861072,3.8559885,-8.900501,1.4431993,-0.07577216,0.05582119,0.010849537,-0.07357762,-0.034448933,0.10824832
512,-2.495728,2.7627861,1.1861072,3.8559885,-8.900501,1.4431993,-0.07577216,0.05582119,0.010849537,-0.07357762,-0.034448933,0.10824832
513,-2.495728,2.7627861,1.1861072,3.8559885,-8.900501,1.4431993,-0.07577216,0.05582119,0.010849537,-0.07357762,-0.034448933,0.10824832
514,-2.495728,2.7627861,1.1861072,3.8559885,-8.900501,1.4431993,-0.07577216,0.05582119,0.010849537,-0.07357762,-0.034448933,0.10824832
515,-2.495728,2.7627861,1.1861072,3.8559885,-8.900501,1.4431993,-0.07577216,0.05582119,0.010849537,-0.07357762,-0.034448933,0.10824832
516,-2.495728,2.7627861,1.1861072,3.8559885,-8.900501,1.4431993,-0.07577216,0.05582119,0.010849537,-0.07357762,-0.034448933,0.10824832
517,-2.495205,2.7655737,1.1993471,3.8338306,-8.923232,1.3594303,-0.086017,0.057598043,0.022220738,-0.12708831,-0.12804341,0.727424
518,-2.495205,2.7655737,1.1993471,3.8338306,-8.923232,1.3594303,-0.086017,0.057598043,0.022220738,-0.12708831,-0.12804341,0.727424
519,-2.495205,2.7655737,1.1993471,3.8338306,-8.923232,1.3594303,-0.086017,0.057598043,0.022220738,-0.12708831,-0.12804341,0.727424
520,-2.495205,2.7655737,1.1993471,3.8338306,-8.923232,1.3594303,-0.086017,0.057598043,0.022220738,-0.12708831,-0.12804341,0.727424
521,-2.495205,2.7655737,1.1993471,3.8338306,-8.923232,1.3594303,-0.086017,0.057598043,0.022220738,-0.12708831,-0.12804341,0.727424
522,-2.495205,2.7655737,1.1993471,3.8338306,-8.923232,1.3594303,-0.086017,0.057598043,0.022220738,-0.12708831,-0.12804341,0.727424
523,-2.4998968,2.7705915,1.2271237,3.7840846,-8.942365,1.3730279,-0.08177342,0.05680703,0.040779185,0.021108573,0.080383465,0.14112064
524,-2.4998968,2.7705915,1.2271237,3.7840846,-8.942365,1.3730279,-0.08177342,0.05680703,0.040779185,0.021108573,0.080383465,0.14112064
525,-2.4998968,2.7705915,1.2271237,3.7840846,-8.942365,1.3730279,-0.08177342,0.05680703,0.040779185,0.021108573,0.080383465,0.14112064
526,-2.4998968,2.7705915,1.2271237,3.7840846,-8.942365,1.3730279,-0.08177342,0.05680703,0.040779185,0.021108573,0.080383465,0.14112064
527,-2.4998968,2.7705915,1.2271237,3.7840846,-8.942365,1.3730279,-0.08177342,0.05680703,0.040779185,0.021108573,0.080383465,0.14112064
528,-2.4998968,2.7705915,1.2271237,3.7840846,-8.942365,1.3730279,-0.08177342,0.05680703,0.040779185,0.021108573,0.080383465,0.14112064
529,-2.5044737,2.77485,1.2590224,3.7412586,-8.951563,1.4293041,-0.057241395,0.05097611,0.058234684,0.28667015,-0.62295043,-0.3139225
530,-2.5044737,2.77485,1.2590224,3.7412586,-8.951563,1.4293041,-0.057241395,0.05097611,0.058234684,0.28667015,-0.62295043,-0.3139225
531,-2.5044737,2.77485,1.2590224,3.7412586,-8.951563,1.4293041,-0.057241395,0.05097611,0.058234684,0.28667015,-0.62295043,-0.3139225
532,-2.5044737,2.77485,1.2590224,3.7412586,-8.951563,1.4293041,-0.057241395,0.05097611,0.058234684,0.28667015,-0.62295043,-0.3139225
533,-2.5044737,2.77485,1.2590224,3.7412586,-8.951563,1.4293041,-0.057241395,0.05097611,0.058234684,0.28667015,-0.62295043,-0.3139225
534,-2.5044737,2.77485,1.2590224,3.7412586,-8.951563,1.4293041,-0.057241395,0.05097611,0.058234684,0.28667015,-0.62295043,-0.3139225
535,-2.5104635,2.7794447,1.2918191,3.693295,-8.954658,1.5310392,-0.019791275,0.03903108,0.06282532,0.24517235,-0.13319927,0.035687394
536,-2.5104635,2.7794447,1.2918191,3.693295,-8.954658,1.5310392,-0.019791275,0.03903108,0.06282532,0.24517235,-0.13319927,0.035687394
537,-2.5104635,2.7794447,1.2918191,3.693295,-8.954658,1.5310392,-0.019791275,0.03903108,0.06282532,0.24517235,-0.13319927,0.035687394
538,-2.5104635,2.7794447,1.2918191,3.693295,-8.954658,1.5310392,-0.019791275,0.03903108,0.06282532,0.24517235,-0.13319927,0.035687394
539,-2.5104635,2.7794447,1.2918191,3.693295,-8.954658,1.5310392,-0.019791275,0.03903108,0.06282532,0.24517235,-0.13319927,0.035687394
540,-2.5104635,2.7794447,1.2918191,3.693295,-8.954658,1.5310392,-0.019791275,0.03903108,0.06282532,0.24517235,-0.13319927,0.035687394
541,-2.5158503,2.7833972,1.3210782,3.651835,-8.95152,1.6446216,0.020763274,0.021617098,0.04897995,0.01446107,-0.27736124,-0.054750238
542,-2.5158503,2.7833972,1.3210782,3.651835,-8.95152,1.6446216,0.020763274,0.021617098,0.04897995,0.01446107,-0.27736124,-0.054750238
543,-2.5158503,2.7833972,1.3210782,3.651835,-8.95152,1.6446216,0.020763274,0.021617098,0.04897995,0.01446107,-0.27736124,-0.054750238
544,-2.5158503,2.7833972,1.3210782,3.651835,-8.95152,1.6446216,0.020763274,0.021617098,0.04897995,0.01446107,-0.27736124,-0.054750238
545,-2.5158503,2.7833972,1.3210782,3.651835,-8.95152,1.6446216,0.020763274,0.021617098,0.04897995,0.01446107,-0.27736124,-0.054750238
546,-2.5158503,2.7833972,1.3210782,3.651835,-8.95152,1.6446216,0.020763274,0.021617098,0.04897995,0.01446107,-0.27736124,-0.054750238
547,-2.521821,2.787587,1.3467932,3.607327,-8.946126,1.7676024,0.056418445,0.002246347,0.023252355,-0.26000306,0.18836136,0.1461981
548,-2.521821,2.787587,1.3467932,3.607327,-8.946126,1.7676024,0.056418445,0.002246347,0.023252355,-0.26000306,0.18836136,0.1461981
549,-2.521821,2.787587,1.3467932,3.607327,-8.946126,1.7676024,0.056418445,0.002246347,0.023252355,-0.26000306,0.18836136,0.1461981
550,-2.521821,2.787587,1.3467932,3.607327,-8.946126,1.7676024,0.056418445,0.002246347,0.023252355,-0.26000306,0.18836136,0.1461981
551,-2.521821,2.787587,1.3467932,3.607327,-8.946126,1.7676024,0.056418445,0.002246347,0.023252355,-0.26000306,0.18836136,0.1461981
552,-2.521821,2.787587,1.3467932,3.607327,-8.946126,1.7676024,0.056418445,0.002246347,0.023252355,-0.26000306,0.18836136,0.1461981
553,-2.5245936,2.789639,1.3684071,3.5863075,-8.931714,1.8797009,0.07429979,-0.012870185,-0.0033876193,0.20205083,0.2152124,-0.5999281
554,-2.5245936,2.789639,1.3684071,3.5863075,-8.931714,1.8797009,0.07429979,-0.012870185,-0.0033876193,0.20205083,0.2152124,-0.5999281
555,-2.5245936,2.789639,1.3684071,3.5863075,-8.931714,1.8797009,0.07429979,-0.012870185,-0.0033876193,0.20205083,0.2152124,-0.5999281
556,-2.5245936,2.789639,1.3684071,3.5863075,-8.931714,1.8797009,0.07429979,-0.012870185,-0.0033876193,0.20205083,0.2152124,-0.5999281
557,-2.5245936,2.789639,1.3684071,3.5863075,-8.931714,1.8797009,0.07429979,-0.012870185,-0.0033876193,0.20205083,0.2152124,-0.5999281
558,-2.5245936,2.789639,1.3684071,3.5863075,-8.931714,1.8797009,0.07429979,-0.012870185,-0.0033876193,0.20205083,0.2152124,-0.5999281
559,-2.5245936,2.789639,1.3684071,3.5643551,-8.93284,1.9157536,0.06430089,-0.01945805,-0.025713755,0.22763559,-0.2442178,-0.0105160335
560,-2.5245936,2.789639,1.3684071,3.5643551,-8.93284,1.9157536,0.06430089,-0.01945805,-0.025713755,0.22763559,-0.2442178,-0.0105160335
561,-2.5245936,2.789639,1.3684071,3.5643551,-8.93284,1.9157536,0.06430089,-0.01945805,-0.025713755,0.22763559,-0.2442178,-0.0105160335
562,-2.5245936,2.789639,1.3684071,3.5643551,-8.93284,1.9157536,0.06430089,-0.01945805,-0.025713755,0.22763559,-0.2442178,-0.0105160335
563,-2.5245936,2.789639,1.3684071,3.5643551,-8.93284,1.9157536,0.06430089,-0.01945805,-0.025713755,0.22763559,-0.2442178,-0.0105160335
564,-2.5245936,2.789639,1.3684071,3.5643551,-8.93284,1.9157536,0.06430089,-0.01945805,-0.025713755,0.22763559,-0.2442178,-0.0105160335
565,-2.5309894,2.7961752,1.401073,3.5188127,-8.956919,1.8873093,0.032183446,-0.018368945,-0.038836256,-0.0332668,-0.41555974,-1.5119259
566,-2.5309894,2.7961752,1.401073,3.5188127,-8.956919,1.8873093,0.032183446,-0.018368945,-0.038836256,-0.0332668,-0.41555974,-1.5119259
567,-2.5309894,2.7961752,1.401073,3.5188127,-8.956919,1.8873093,0.032183446,-0.018368945,-0.038836256,-0.0332668,-0.41555974,-1.5119259
568,-2.5309894,2.7961752,1.401073,3.5188127,-8.956919,1.8873093,0.032183446,-0.018368945,-0.038836256,-0.0332668,-0.41555974,-1.5119259
569,-2.5309894,2.7961752,1.401073,3.5188127,-8.956919,1.8873093,0.032183446,-0.018368945,-0.038836256,-0.0332668,-0.41555974,-1.5119259
570,-2.5309894,2.7961752,1.401073,3.5188127,-8.956919,1.8873093,0.032183446,-0.018368945,-0.038836256,-0.0332668,-0.41555974,-1.5119259
571,-2.534319,2.7998254,1.4176183,3.4809177,-8.98057,1.8447132,-0.0032247324,-0.014239285,-0.038944844,-0.07422636,0.30199772,-0.18957384
572,-2.534319,2.7998254,1.4176183,3.4809177,-8.98057,1.8447132,-0.0032247324,-0.014239285,-0.038944844,-0.07422636,0.30199772,-0.18957384
573,-2.534319,2.7998254,1.4176183,3.4809177,-8.98057,1.8447132,-0.0032247324,-0.014239285,-0.038944844,-0.07422636,0.30199772,-0.18957384
574,-2.534319,2.7998254,1.4176183,3.4809177,-8.98057,1.8447132,-0.0032247324,-0.014239285,-0.038944844,-0.07422636,0.30199772,-0.18957384
575,-2.534319,2.7998254,1.4176183,3.4809177,-8.98057,1.8447132,-0.0032247324,-0.014239285,-0.038944844,-0.07422636,0.30199772,-0.18957384
576,-2.534319,2.7998254,1.4176183,3.4809177,-8.98057,1.8447132,-0.0032247324,-0.014239285,-0.038944844,-0.07422636,0.30199772,-0.18957384
577,-2.5362062,2.8027005,1.4362489,3.4515624,-9.0077715,1.765547,-0.026264163,-0.010992196,-0.02965604,0.10826463,-0.08492095,-0.01752967
578,-2.5362062,2.8027005,1.4362489,3.4515624,-9.0077715,1.765547,-0.026264163,-0.010992196,-0.02965604,0.10826463,-0.08492095,-0.01752967
579,-2.5362062,2.8027005,1.4362489,3.4515624,-9.0077715,1.765547,-0.026264163,-0.010992196,-0.02965604,0.10826463,-0.08492095,-0.01752967
580,-2.5362062,2.8027005,1.4362489,3.4515624,-9.0077715,1.765547,-0.026264163,-0.010992196,-0.02965604,0.10826463,-0.08492095,-0.01752967
581,-2.5362062,2.8027005,1.4362489,3.4515624,-9.0077715,1.765547,-0.026264163,-0.010992196,-0.02965604,0.10826463,-0.08492095,-0.01752967
582,-2.5362062,2.8027005,1.4362489,3.4515624,-9.0077715,1.765547,-0.026264163,-0.010992196,-0.02965604,0.10826463,-0.08492095,-0.01752967
583,-2.5354455,2.8037372,1.4575545,3.442109,-9.028807,1.6741956,-0.036529224,-0.0083860075,-0.019394172,-0.20704453,0.60605687,-0.19328867
584,-2.5354455,2.8037372,1.4575545,3.442109,-9.028807,1.6741956,-0.036529224,-0.0083860075,-0.019394172,-0.20704453,0.60605687,-0.19328867
585,-2.5354455,2.8037372,1.4575545,3.442109,-9.028807,1.6741956,-0.036529224,-0.0083860075,-0.019394172,-0.20704453,0.60605687,-0.19328867
586,-2.5354455,2.8037372,1.4575545,3.442109,-9.028807,1.6741956,-0.036529224,-0.0083860075,-0.019394172,-0.20704453,0.60605687,-0.19328867
587,-2.5354455,2.8037372,1.4575545,3.442109,-9.028807,1.6741956,-0.036529224,-0.0083860075,-0.019394172,-0.20704453,0.60605687,-0.19328867
588,-2.5354455,2.8037372,1.4575545,3.442109,-9.028807,1.6741956,-0.036529224,-0.0083860075,-0.019394172,-0.20704453,0.60605687,-0.19328867
589,-2.536153,2.8054242,1.4801757,3.4249055,-9.047815,1.6054473,-0.03614596,-0.0053805867,-0.013269417,-0.21856049,0.14577995,-0.27937114
590,-2.536153,2.8054242,1.4801757,3.4249055,-9.047815,1.6054473,-0.03614596,-0.0053805867,-0.013269417,-0.21856049,0.14577995,-0.27937114
591,-2.536153,2.8054242,1.4801757,3.4249055,-9.047815,1.6054473,-0.03614596,-0.0053805867,-0.013269417,-0.21856049,0.14577995,-0.27937114
592,-2.536153,2.8054242,1.4801757,3.4249055,-9.047815,1.6054473,-0.03614596,-0.0053805867,-0.013269417,-0.21856049,0.14577995,-0.27937114
593,-2.536153,2.8054242,1.4801757,3.4249055,-9.047815,1.6054473,-0.03614596,-0.0053805867,-0.013269417,-0.21856049,0.14577995,-0.27937114
594,-2.536153,2.8054242,1.4801757,3.4249055,-9.047815,1.6054473,-0.03614596,-0.0053805867,-0.013269417,-0.21856049,0.14577995,-0.27937114
595,-2.536153,2.8054242,1.4801757,3.436742,-9.042196,1.6117961,-0.0201426,-0.004370263,-0.0092238635,0.27368894,-0.67660767,-0.113253266
596,-2.536153,2.8054242,1.4801757,3.436742,-9.042196,1.6117961,-0.0201426,-0.004370263,-0.0092238635,0.27368894,-0.67660767,-0.113253266
597,-2.536153,2.8054242,1.4801757,3.436742,-9.042196,1.6117961,-0.0201426,-0.004370263,-0.0092238635,0.27368894,-0.67660767,-0.113253266
598,-2.536153,2.8054242,1.4801757,3.436742,-9.042196,1.6117961,-0.0201426,-0.004370263,-0.0092238635,0.27368894,-0.67660767,-0.113253266
599,-2.536153,2.8054242,1.4801757,3.436742,-9.042196,1.6117961,-0.0201426,-0.004370263,-0.0092238635,0.27368894,-0.67660767,-0.113253266
600,-2.536153,2.8054242,1.4801757,3.436742,-9.042196,1.6117961,-0.0201426,-0.004370263,-0.0092238635,0.27368894,-0.67660767,-0.113253266
601,-2.5281732,2.801302,1.514946,3.4714732,-9.024828,1.6345439,0.012925545,-0.010026586,-0.010492889,0.26356214,-0.31412086,0.053071924
602,-2.5281732,2.801302,1.514946,3.4714732,-9.024828,1.6345439,0.012925545,-0.010026586,-0.010492889,0.26356214,-0.31412086,0.053071924
603,-2.5281732,2.801302,1.514946,3.4714732,-9.024828,1.6345439,0.012925545,-0.010026586,-0.010492889,0.26356214,-0.31412086,0.053071924
604,-2.5281732,2.801302,1.514946,3.4714732,-9.024828,1.6345439,0.012925545,-0.010026586,-0.010492889,0.26356214,-0.31412086,0.053071924
605,-2.5281732,2.801302,1.514946,3.4714732,-9.024828,1.6345439,0.012925545,-0.010026586,-0.010492889,0.26356214,-0.31412086,0.053071924
606,-2.5281732,2.801302,1.514946,3.4714732,-9.024828,1.6345439,0.012925545,-0.010026586,-0.010492889,0.26356214,-0.31412086,0.053071924
607,-2.5281732,2.801302,1.514946,3.498461,-9.00773,1.670919,0.049469672,-0.021835346,-0.019575158,0.036899514,-0.52763623,-0.051581457
608,-2.5281732,2.801302,1.514946,3.498461,-9.00773,1.670919,0.049469672,-0.021835346,-0.019575158,0.036899514,-0.52763623,-0.051581457
609,-2.5281732,2.801302,1.514946,3.498461,-9.00773,1.670919,0.049469672,-0.021835346,-0.019575158,0.036899514,-0.52763623,-0.051581457
610,-2.5281732,2.801302,1.514946,3.498461,-9.00773,1.670919,0.049469672,-0.021835346,-0.019575158,0.036899514,-0.52763623,-0.051581457
611,-2.5281732,2.801302,1.514946,3.498461,-9.00773,1.670919,0.049469672,-0.021835346,-0.019575158,0.036899514,-0.52763623,-0.051581457
612,-2.5281732,2.801302,1.514946,3.498461,-9.00773,1.670919,0.049469672,-0.021835346,-0.019575158,0.036899514,-0.52763623,-0.051581457
613,-2.521621,2.7974176,1.5327842,3.5147247,-8.993174,1.7146193,0.06675377,-0.031350914,-0.02810489,-0.36169624,0.100586094,0.30333915
614,-2.521621,2.7974176,1.5327842,3.5147247,-8.993174,1.7146193,0.06675377,-0.031350914,-0.02810489,-0.36169624,0.100586094,0.30333915
615,-2.521621,2.7974176,1.5327842,3.5147247,-8.993174,1.7146193,0.06675377,-0.031350914,-0.02810489,-0.36169624,0.100586094,0.30333915
616,-2.521621,2.7974176,1.5327842,3.5147247,-8.993174,1.7146193,0.06675377,-0.031350914,-0.02810489,-0.36169624,0.100586094,0.30333915
617,-2.521621,2.7974176,1.5327842,3.5147247,-8.993174,1.7146193,0.06675377,-0.031350914,-0.02810489,-0.36169624,0.100586094,0.30333915
618,-2.521621,2.7974176,1.5327842,3.5147247,-8.993174,1.7146193,0.06675377,-0.031350914,-0.02810489,-0.36169624,0.100586094,0.30333915
619,-2.521621,2.7974176,1.5327842,3.5118427,-8.980107,1.7874626,0.059183262,-0.031554256,-0.02664636,0.138327,0.14975321,-0.29156828
620,-2.521621,2.7974176,1.5327842,3.5118427,-8.980107,1.7874626,0.059183262,-0.031554256,-0.02664636,0.138327,0.14975321,-0.29156828
621,-2.521621,2.7974176,1.5327842,3.5118427,-8.980107,1.7874626,0.059183262,-0.031554256,-0.02664636,0.138327,0.14975321,-0.29156828
622,-2.521621,2.7974176,1.5327842,3.5118427,-8.980107,1.7874626,0.059183262,-0.031554256,-0.02664636,0.138327,0.14975321,-0.29156828
623,-2.521621,2.7974176,1.5327842,3.5118427,-8.980107,1.7874626,0.059183262,-0.031554256,-0.02664636,0.138327,0.14975321,-0.29156828
624,-2.521621,2.7974176,1.5327842,3.5118427,-8.980107,1.7874626,0.059183262,-0.031554256,-0.02664636,0.138327,0.14975321,-0.29156828
625,-2.5250514,2.7989311,1.5226864,3.4976413,-8.961513,1.9047772,0.04769389,-0.02571269,-0.016295066,0.2315735,-0.48924515,0.15383576
626,-2.5250514,2.7989311,1.5226864,3.4976413,-8.961513,1.9047772,0.04769389,-0.02571269,-0.016295066,0.2315735,-0.48924515,0.15383576
627,-2.5250514,2.7989311,1.5226864,3.4976413,-8.961513,1.9047772,0.04769389,-0.02571269,-0.016295066,0.2315735,-0.48924515,0.15383576
628,-2.5250514,2.7989311,1.5226864,3.4976413,-8.961513,1.9047772,0.04769389,-0.02571269,-0.016295066,0.2315735,-0.48924515,0.15383576
629,-2.5250514,2.7989311,1.5226864,3.4976413,-8.961513,1.9047772,0.04769389,-0.02571269,-0.016295066,0.2315735,-0.48924515,0.15383576
630,-2.5250514,2.7989311,1.5226864,3.4976413,-8.961513,1.9047772,0.04769389,-0.02571269,-0.016295066,0.2315735,-0.48924515,0.15383576
631,-2.5250514,2.7989311,1.5226864,3.4550648,-8.96102,1.9831853,0.052409086,-0.022777533,-0.0070488458,0.24382928,-0.4438004,0.8168776
632,-2.5250514,2.7989311,1.5226864,3.4550648,-8.96102,1.9831853,0.052409086,-0.022777533,-0.0070488458,0.24382928,-0.4438004,0.8168776
633,-2.5250514,2.7989311,1.5226864,3.4550648,-8.96102,1.9831853,0.052409086,-0.022777533,-0.0070488458,0.24382928,-0.4438004,0.8168776
634,-2.5250514,2.7989311,1.5226864,3.4550648,-8.96102,1.9831853,0.052409086,-0.022777533,-0.0070488458,0.24382928,-0.4438004,0.8168776
635,-2.5250514,2.7989311,1.5226864,3.4550648,-8.96102,1.9831853,0.052409086,-0.022777533,-0.0070488458,0.24382928,-0.4438004,0.8168776
636,-2.5250514,2.7989311,1.5226864,3.4550648,-8.96102,1.9831853,0.052409086,-0.022777533,-0.0070488458,0.24382928,-0.4438004,0.8168776
637,-2.5250514,2.7989311,1.5226864,3.4550648,-8.96102,1.9831853,0.052409086,-0.022777533,-0.0070488458,0.24382928,-0.4438004,0.8168776
638,-2.5364313,2.8051395,1.5048928,3.4283051,-8.953759,2.0608997,0.0747842,-0.026879512,-0.0021931161,-0.12644845,0.087519884,0.21319255
639,-2.5364313,2.8051395,1.5048928,3.4283051,-8.953759,2.0608997,0.0747842,-0.026879512,-0.0021931161,-0.12644845,0.087519884,0.21319255
640,-2.5364313,2.8051395,1.5048928,3.4283051,-8.953759,2.0608997,0.0747842,-0.026879512,-0.0021931161,-0.12644845,0.087519884,0.21319255
641,-2.5364313,2.8051395,1.5048928,3.4283051,-8.953759,2.0608997,0.0747842,-0.026879512,-0.0021931161,-0.12644845,0.087519884,0.21319255
642,-2.5364313,2.8051395,1.5048928,3.4283051,-8.953759,2.0608997,0.0747842,-0.026879512,-0.0021931161,-0.12644845,0.087519884,0.21319255
643,-2.540593,2.8068225,1.4931287,3.4089758,-8.939444,2.1530466,0.09779169,-0.033194836,0.0011902446,-0.115727864,0.08312181,-0.09956962
644,-2.540593,2.8068225,1.4931287,3.4089758,-8.939444,2.1530466,0.09779169,-0.033194836,0.0011902446,-0.115727864,0.08312181,-0.09956962
645,-2.540593,2.8068225,1.4931287,3.4089758,-8.939444,2.1530466,0.09779169,-0.033194836,0.0011902446,-0.115727864,0.08312181,-0.09956962
646,-2.540593,2.8068225,1.4931287,3.4089758,-8.939444,2.1530466,0.09779169,-0.033194836,0.0011902446,-0.115727864,0.08312181,-0.09956962
647,-2.540593,2.8068225,1.4931287,3.4089758,-8.939444,2.1530466,0.09779169,-0.033194836,0.0011902446,-0.115727864,0.08312181,-0.09956962
648,-2.540593,2.8068225,1.4931287,3.4089758,-8.939444,2.1530466,0.09779169,-0.033194836,0.0011902446,-0.115727864,0.08312181,-0.09956962
649,-2.5421977,2.8063905,1.4793949,3.412409,-8.910399,2.2650921,0.10345014,-0.034281813,0.004023197,-0.26425272,0.5605294,0.45658734
650,-2.5421977,2.8063905,1.4793949,3.412409,-8.910399,2.2650921,0.10345014,-0.034281813,0.004023197,-0.26425272,0.5605294,0.45658734
651,-2.5421977,2.8063905,1.4793949,3.412409,-8.910399,2.2650921,0.10345014,-0.034281813,0.004023197,-0.26425272,0.5605294,0.45658734
652,-2.5421977,2.8063905,1.4793949,3.412409,-8.910399,2.2650921,0.10345014,-0.034281813,0.004023197,-0.26425272,0.5605294,0.45658734
653,-2.5421977,2.8063905,1.4793949,3.412409,-8.910399,2.2650921,0.10345014,-0.034281813,0.004023197,-0.26425272,0.5605294,0.45658734
654,-2.5421977,2.8063905,1.4793949,3.412409,-8.910399,2.2650921,0.10345014,-0.034281813,0.004023197,-0.26425272,0.5605294,0.45658734
655,-2.5436168,2.805573,1.4652756,3.4196072,-8.88027,2.3701215,0.087159336,-0.02752893,0.0047844,-0.12196585,0.1599303,-0.15505186
656,-2.5436168,2.805573,1.4652756,3.4196072,-8.88027,2.3701215,0.087159336,-0.02752893,0.0047844,-0.12196585,0.1599303,-0.15505186
657,-2.5436168,2.805573,1.4652756,3.4196072,-8.88027,2.3701215,0.087159336,-0.02752893,0.0047844,-0.12196585,0.1599303,-0.15505186
658,-2.5436168,2.805573,1.4652756,3.4196072,-8.88027,2.3701215,0.087159336,-0.02752893,0.0047844,-0.12196585,0.1599303,-0.15505186
659,-2.5436168,2.805573,1.4652756,3.4196072,-8.88027,2.3701215,0.087159336,-0.02752893,0.0047844,-0.12196585,0.1599303,-0.15505186
660,-2.5436168,2.805573,1.4652756,3.4196072,-8.88027,2.3701215,0.087159336,-0.02752893,0.0047844,-0.12196585,0.1599303,-0.15505186
661,-2.5461876,2.8047063,1.4487675,3.4262402,-8.839365,2.5093598,0.06286259,-0.01762584,0.004540602,0.24577212,-0.5739286,-0.105714135
662,-2.5461876,2.8047063,1.4487675,3.4262402,-8.839365,2.5093598,0.06286259,-0.01762584,0.004540602,0.24577212,-0.5739286,-0.105714135
663,-2.5461876,2.8047063,1.4487675,3.4262402,-8.839365,2.5093598,0.06286259,-0.01762584,0.004540602,0.24577212,-0.5739286,-0.105714135
664,-2.5461876,2.8047063,1.4487675,3.4262402,-8.839365,2.5093598,0.06286259,-0.01762584,0.004540602,0.24577212,-0.5739286,-0.105714135
665,-2.5461876,2.8047063,1.4487675,3.4262402,-8.839365,2.5093598,0.06286259,-0.01762584,0.004540602,0.24577212,-0.5739286,-0.105714135
666,-2.5461876,2.8047063,1.4487675,3.4262402,-8.839365,2.5093598,0.06286259,-0.01762584,0.004540602,0.24577212,-0.5739286,-0.105714135
667,-2.5458226,2.8015814,1.4329096,3.4569085,-8.790705,2.6350875,0.0510155,-0.0119748395,0.006261027,0.1678714,-0.1672503,-0.13780436
668,-2.5458226,2.8015814,1.4329096,3.4569085,-8.790705,2.6350875,0.0510155,-0.0119748395,0.006261027,0.1678714,-0.1672503,-0.13780436
669,-2.5458226,2.8015814,1.4329096,3.4569085,-8.790705,2.6350875,0.0510155,-0.0119748395,0.006261027,0.1678714,-0.1672503,-0.13780436
670,-2.5458226,2.8015814,1.4329096,3.4569085,-8.790705,2.6350875,0.0510155,-0.0119748395,0.006261027,0.1678714,-0.1672503,-0.13780436
671,-2.5458226,2.8015814,1.4329096,3.4569085,-8.790705,2.6350875,0.0510155,-0.0119748395,0.006261027,0.1678714,-0.1672503,-0.13780436
672,-2.5458226,2.8015814,1.4329096,3.4569085,-8.790705,2.6350875,0.0510155,-0.0119748395,0.006261027,0.1678714,-0.1672503,-0.13780436
673,-2.546123,2.7985814,1.4173146,3.4853857,-8.745175,2.7467046,0.049813546,-0.012555057,0.006711361,0.00042244562,-0.09183266,0.13373837
674,-2.546123,2.7985814,1.4173146,3.4853857,-8.745175,2.7467046,0.049813546,-0.012555057,0.006711361,0.00042244562,-0.09183266,0.13373837
675,-2.546123,2.7985814,1.4173146,3.4853857,-8.745175,2.7467046,0.049813546,-0.012555057,0.006711361,0.00042244562,-0.09183266,0.13373837
676,-2.546123,2.7985814,1.4173146,3.4853857,-8.745175,2.7467046,0.049813546,-0.012555057,0.006711361,0.00042244562,-0.09183266,0.13373837
677,-2.546123,2.7985814,1.4173146,3.4853857,-8.745175,2.7467046,0.049813546,-0.012555057,0.006711361,0.00042244562,-0.09183266,0.13373837
678,-2.546123,2.7985814,1.4173146,3.4853857,-8.745175,2.7467046,0.049813546,-0.012555057,0.006711361,0.00042244562,-0.09183266,0.13373837
679,-2.5452306,2.794535,1.4017577,3.524487,-8.699796,2.839354,0.036508996,-0.015066495,-0.0016938096,-0.14056158,0.16319573,0.30865344
680,-2.5452306,2.794535,1.4017577,3.524487,-8.699796,2.839354,0.036508996,-0.015066495,-0.0016938096,-0.14056158,0.16319573,0.30865344
681,-2.5452306,2.794535,1.4017577,3.524487,-8.699796,2.839354,0.036508996,-0.015066495,-0.0016938096,-0.14056158,0.16319573,0.30865344
682,-2.5452306,2.794535,1.4017577,3.524487,-8.699796,2.839354,0.036508996,-0.015066495,-0.0016938096,-0.14056158,0.16319573,0.30865344
683,-2.5452306,2.794535,1.4017577,3.524487,-8.699796,2.839354,0.036508996,-0.015066495,-0.0016938096,-0.14056158,0.16319573,0.30865344
684,-2.5452306,2.794535,1.4017577,3.524487,-8.699796,2.839354,0.036508996,-0.015066495,-0.0016938096,-0.14056158,0.16319573,0.30865344
685,-2.5462008,2.7916658,1.3864747,3.5499759,-8.666214,2.9094324,-0.008433916,-0.01267323,-0.019497441,0.41360566,0.22226395,-0.11813647
686,-2.5462008,2.7916658,1.3864747,3.5499759,-8.666214,2.9094324,-0.008433916,-0.01267323,-0.019497441,0.41360566,0.22226395,-0.11813647
687,-2.5462008,2.7916658,1.3864747,3.5499759,-8.666214,2.9094324,-0.008433916,-0.01267323,-0.019497441,0.41360566,0.22226395,-0.11813647
688,-2.5462008,2.7916658,1.3864747,3.5499759,-8.666214,2.9094324,-0.008433916,-0.01267323,-0.019497441,0.41360566,0.22226395,-0.11813647
689,-2.5462008,2.7916658,1.3864747,3.5499759,-8.666214,2.9094324,-0.008433916,-0.01267323,-0.019497441,0.41360566,0.22226395,-0.11813647
690,-2.5462008,2.7916658,1.3864747,3.5499759,-8.666214,2.9094324,-0.008433916,-0.01267323,-0.019497441,0.41360566,0.22226395,-0.11813647
691,-2.5476425,2.7887514,1.3708961,3.5747924,-8.63422,2.9734616,-0.07506845,-0.0024912097,-0.034461733,-0.013893192,-0.28553018,0.40872017
692,-2.5476425,2.7887514,1.3708961,3.5747924,-8.63422,2.9734616,-0.07506845,-0.0024912097,-0.034461733,-0.013893192,-0.28553018,0.40872017
693,-2.5476425,2.7887514,1.3708961,3.5747924,-8.63422,2.9734616,-0.07506845,-0.0024912097,-0.034461733,-0.013893192,-0.28553018,0.40872017
694,-2.5476425,2.7887514,1.3708961,3.5747924,-8.63422,2.9734616,-0.07506845,-0.0024912097,-0.034461733,-0.013893192,-0.28553018,0.40872017
695,-2.5476425,2.7887514,1.3708961,3.5747924,-8.63422,2.9734616,-0.07506845,-0.0024912097,-0.034461733,-0.013893192,-0.28553018,0.40872017
696,-2.5476425,2.7887514,1.3708961,3.5747924,-8.63422,2.9734616,-0.07506845,-0.0024912097,-0.034461733,-0.013893192,-0.28553018,0.40872017
697,-2.5476425,2.7887514,1.3708961,3.5747924,-8.63422,2.9734616,-0.07506845,-0.0024912097,-0.034461733,-0.013893192,-0.28553018,0.40872017
698,-2.543648,2.7828212,1.3555255,3.6330009,-8.60621,2.984099,-0.12626813,0.008194376,-0.035633877,0.217061,-0.28267488,0.15208022
699,-2.543648,2.7828212,1.3555255,3.6330009,-8.60621,2.984099,-0.12626813,0.008194376,-0.035633877,0.217061,-0.28267488,0.15208022
700,-2.543648,2.7828212,1.3555255,3.6330009,-8.60621,2.984099,-0.12626813,0.008194376,-0.035633877,0.217061,-0.28267488,0.15208022
701,-2.543648,2.7828212,1.3555255,3.6330009,-8.60621,2.984099,-0.12626813,0.008194376,-0.035633877,0.217061,-0.28267488,0.15208022
702,-2.543648,2.7828212,1.3555255,3.6330009,-8.60621,2.984099,-0.12626813,0.008194376,-0.035633877,0.217061,-0.28267488,0.15208022
703,-2.536803,2.7751799,1.3394545,3.709787,-8.580321,2.9641132,-0.13245356,0.0072809327,-0.027529996,-0.30032247,0.31692773,-0.61824876
704,-2.536803,2.7751799,1.3394545,3.709787,-8.580321,2.9641132,-0.13245356,0.0072809327,-0.027529996,-0.30032247,0.31692773,-0.61824876
705,-2.536803,2.7751799,1.3394545,3.709787,-8.580321,2.9641132,-0.13245356,0.0072809327,-0.027529996,-0.30032247,0.31692773,-0.61824876
706,-2.536803,2.7751799,1.3394545,3.709787,-8.580321,2.9641132,-0.13245356,0.0072809327,-0.027529996,-0.30032247,0.31692773,-0.61824876
707,-2.536803,2.7751799,1.3394545,3.709787,-8.580321,2.9641132,-0.13245356,0.0072809327,-0.027529996,-0.30032247,0.31692773,-0.61824876
708,-2.536803,2.7751799,1.3394545,3.709787,-8.580321,2.9641132,-0.13245356,0.0072809327,-0.027529996,-0.30032247,0.31692773,-0.61824876
709,-2.529718,2.7682657,1.3227473,3.7794938,-8.573341,2.8954506,-0.10270917,-0.007822824,-0.021827893,0.2686026,0.33569947,0.36562374
710,-2.529718,2.7682657,1.3227473,3.7794938,-8.573341,2.8954506,-0.10270917,-0.007822824,-0.021827893,0.2686026,0.33569947,0.36562374
711,-2.529718,2.7682657,1.3227473,3.7794938,-8.573341,2.8954506,-0.10270917,-0.007822824,-0.021827893,0.2686026,0.33569947,0.36562374
712,-2.529718,2.7682657,1.3227473,3.7794938,-8.573341,2.8954506,-0.10270917,-0.007822824,-0.021827893,0.2686026,0.33569947,0.36562374
713,-2.529718,2.7682657,1.3227473,3.7794938,-8.573341,2.8954506,-0.10270917,-0.007822824,-0.021827893,0.2686026,0.33569947,0.36562374
714,-2.529718,2.7682657,1.3227473,3.7794938,-8.573341,2.8954506,-0.10270917,-0.007822824,-0.021827893,0.2686026,0.33569947,0.36562374
715,-2.5219808,2.7610035,1.3049769,3.8528283,-8.568126,2.8130627,-0.07446055,-0.028557353,-0.027156314,0.13354874,0.020421267,0.30499715
716,-2.5219808,2.7610035,1.3049769,3.8528283,-8.568126,2.8130627,-0.07446055,-0.028557353,-0.027156314,0.13354874,0.020421267,0.30499715
717,-2.5219808,2.7610035,1.3049769,3.8528283,-8.568126,2.8130627,-0.07446055,-0.028557353,-0.027156314,0.13354874,0.020421267,0.30499715
718,-2.5219808,2.7610035,1.3049769,3.8528283,-8.568126,2.8130627,-0.07446055,-0.028557353,-0.027156314,0.13354874,0.020421267,0.30499715
719,-2.5219808,2.7610035,1.3049769,3.8528283,-8.568126,2.8130627,-0.07446055,-0.028557353,-0.027156314,0.13354874,0.020421267,0.30499715
720,-2.5219808,2.7610035,1.3049769,3.8528283,-8.568126,2.8130627,-0.07446055,-0.028557353,-0.027156314,0.13354874,0.020421267,0.30499715
721,-2.5151837,2.7544894,1.285545,3.9174502,-8.5698395,2.71695,-0.06919069,-0.04479493,-0.037954748,-0.35334733,0.0944399,0.18049292
722,-2.5151837,2.7544894,1.285545,3.9174502,-8.5698395,2.71695,-0.06919069,-0.04479493,-0.037954748,-0.35334733,0.0944399,0.18049292
723,-2.5151837,2.7544894,1.285545,3.9174502,-8.5698395,2.71695,-0.06919069,-0.04479493,-0.037954748,-0.35334733,0.0944399,0.18049292
724,-2.5151837,2.7544894,1.285545,3.9174502,-8.5698395,2.71695,-0.06919069,-0.04479493,-0.037954748,-0.35334733,0.0944399,0.18049292
725,-2.5151837,2.7544894,1.285545,3.9174502,-8.5698395,2.71695,-0.06919069,-0.04479493,-0.037954748,-0.35334733,0.0944399,0.18049292
726,-2.5151837,2.7544894,1.285545,3.9174502,-8.5698395,2.71695,-0.06919069,-0.04479493,-0.037954748,-0.35334733,0.0944399,0.18049292
727,-2.51004,2.748602,1.2649562,3.9734712,-8.570185,2.6332211,-0.069588855,-0.05374199,-0.03712328,0.022353819,0.14907348,0.22272176
728,-2.51004,2.748602,1.2649562,3.9734712,-8.570185,2.6332211,-0.069588855,-0.05374199,-0.03712328,0.022353819,0.14907348,0.22272176
729,-2.51004,2.748602,1.2649562,3.9734712,-8.570185,2.6332211,-0.069588855,-0.05374199,-0.03712328,0.022353819,0.14907348,0.22272176
730,-2.51004,2.748602,1.2649562,3.9734712,-8.570185,2.6332211,-0.069588855,-0.05374199,-0.03712328,0.022353819,0.14907348,0.22272176
731,-2.51004,2.748602,1.2649562,3.9734712,-8.570185,2.6332211,-0.069588855,-0.05374199,-0.03712328,0.022353819,0.14907348,0.22272176
732,-2.51004,2.748602,1.2649562,3.9734712,-8.570185,2.6332211,-0.069588855,-0.05374199,-0.03712328,0.022353819,0.14907348,0.22272176
733,-2.5105767,2.7444546,1.2466047,4.0052733,-8.5555315,2.6326904,-0.04675596,-0.0599945,-0.019387785,0.33798867,-0.39563257,-0.005281664
734,-2.5105767,2.7444546,1.2466047,4.0052733,-8.5555315,2.6326904,-0.04675596,-0.0599945,-0.019387785,0.33798867,-0.39563257,-0.005281664
735,-2.5105767,2.7444546,1.2466047,4.0052733,-8.5555315,2.6326904,-0.04675596,-0.0599945,-0.019387785,0.33798867,-0.39563257,-0.005281664
736,-2.5105767,2.7444546,1.2466047,4.0052733,-8.5555315,2.6326904,-0.04675596,-0.0599945,-0.019387785,0.33798867,-0.39563257,-0.005281664
737,-2.5105767,2.7444546,1.2466047,4.0052733,-8.5555315,2.6326904,-0.04675596,-0.0599945,-0.019387785,0.33798867,-0.39563257,-0.005281664
738,-2.5105767,2.7444546,1.2466047,4.0052733,-8.5555315,2.6326904,-0.04675596,-0.0599945,-0.019387785,0.33798867,-0.39563257,-0.005281664
739,-2.5146306,2.7426116,1.23095,4.01081,-8.5475645,2.6500816,0.0008133693,-0.06489069,0.0052837064,0.3053613,-0.3543069,-0.4823488
740,-2.5146306,2.7426116,1.23095,4.01081,-8.5475645,2.6500816,0.0008133693,-0.06489069,0.0052837064,0.3053613,-0.3543069,-0.4823488
741,-2.5146306,2.7426116,1.23095,4.01081,-8.5475645,2.6500816,0.0008133693,-0.06489069,0.0052837064,0.3053613,-0.3543069,-0.4823488
742,-2.5146306,2.7426116,1.23095,4.01081,-8.5475645,2.6500816,0.0008133693,-0.06489069,0.0052837064,0.3053613,-0.3543069,-0.4823488
743,-2.5146306,2.7426116,1.23095,4.01081,-8.5475645,2.6500816,0.0008133693,-0.06489069,0.0052837064,0.3053613,-0.3543069,-0.4823488
744,-2.5146306,2.7426116,1.23095,4.01081,-8.5475645,2.6500816,0.0008133693,-0.06489069,0.0052837064,0.3053613,-0.3543069,-0.4823488
745,-2.520076,2.7394342,1.2203991,4.0267076,-8.510419,2.7438612,0.048274107,-0.064509556,0.0234195,0.030221146,-0.32709092,0.1915341
746,-2.520076,2.7394342,1.2203991,4.0267076,-8.510419,2.7438612,0.048274107,-0.064509556,0.0234195,0.030221146,-0.32709092,0.1915341
747,-2.520076,2.7394342,1.2203991,4.0267076,-8.510419,2.7438612,0.048274107,-0.064509556,0.0234195,0.030221146,-0.32709092,0.1915341
748,-2.520076,2.7394342,1.2203991,4.0267076,-8.510419,2.7438612,0.048274107,-0.064509556,0.0234195,0.030221146,-0.32709092,0.1915341
749,-2.520076,2.7394342,1.2203991,4.0267076,-8.510419,2.7438612,0.048274107,-0.064509556,0.0234195,0.030221146,-0.32709092,0.1915341
750,-2.520076,2.7394342,1.2203991,4.0267076,-8.510419,2.7438612,0.048274107,-0.064509556,0.0234195,0.030221146,-0.32709092,0.1915341
751,-2.5267177,2.7382674,1.2109457,4.0226393,-8.491012,2.8091798,0.069855005,-0.054732088,0.03327468,-0.19570231,0.23377803,0.2928866
752,-2.5267177,2.7382674,1.2109457,4.0226393,-8.491012,2.8091798,0.069855005,-0.054732088,0.03327468,-0.19570231,0.23377803,0.2928866
753,-2.5267177,2.7382674,1.2109457,4.0226393,-8.491012,2.8091798,0.069855005,-0.054732088,0.03327468,-0.19570231,0.23377803,0.2928866
754,-2.5267177,2.7382674,1.2109457,4.0226393,-8.491012,2.8091798,0.069855005,-0.054732088,0.03327468,-0.19570231,0.23377803,0.2928866
755,-2.5267177,2.7382674,1.2109457,4.0226393,-8.491012,2.8091798,0.069855005,-0.054732088,0.03327468,-0.19570231,0.23377803,0.2928866
756,-2.5267177,2.7382674,1.2109457,4.0226393,-8.491012,2.8091798,0.069855005,-0.054732088,0.03327468,-0.19570231,0.23377803,0.2928866
757,-2.5267177,2.7382674,1.2109457,4.0226393,-8.491012,2.8091798,0.069855005,-0.054732088,0.03327468,-0.19570231,0.23377803,0.2928866
758,-2.535084,2.736989,1.2050545,4.0176053,-8.457005,2.9169009,0.059916783,-0.037873838,0.037944105,0.41099852,0.36317813,-0.527391
759,-2.535084,2.736989,1.2050545,4.0176053,-8.457005,2.9169009,0.059916783,-0.037873838,0.037944105,0.41099852,0.36317813,-0.527391
760,-2.535084,2.736989,1.2050545,4.0176053,-8.457005,2.9169009,0.059916783,-0.037873838,0.037944105,0.41099852,0.36317813,-0.527391
761,-2.535084,2.736989,1.2050545,4.0176053,-8.457005,2.9169009,0.059916783,-0.037873838,0.037944105,0.41099852,0.36317813,-0.527391
762,-2.535084,2.736989,1.2050545,4.0176053,-8.457005,2.9169009,0.059916783,-0.037873838,0.037944105,0.41099852,0.36317813,-0.527391
763,-2.5413876,2.7349086,1.2006831,4.023233,-8.421512,3.0103364,0.04157552,-0.024265872,0.034015656,0.3154137,-0.0061230557,0.189899
764,-2.5413876,2.7349086,1.2006831,4.023233,-8.421512,3.0103364,0.04157552,-0.024265872,0.034015656,0.3154137,-0.0061230557,0.189899
765,-2.5413876,2.7349086,1.2006831,4.023233,-8.421512,3.0103364,0.04157552,-0.024265872,0.034015656,0.3154137,-0.0061230557,0.189899
766,-2.5413876,2.7349086,1.2006831,4.023233,-8.421512,3.0103364,0.04157552,-0.024265872,0.034015656,0.3154137,-0.0061230557,0.189899
767,-2.5413876,2.7349086,1.2006831,4.023233,-8.421512,3.0103364,0.04157552,-0.024265872,0.034015656,0.3154137,-0.0061230557,0.189899
768,-2.5413876,2.7349086,1.2006831,4.023233,-8.421512,3.0103364,0.04157552,-0.024265872,0.034015656,0.3154137,-0.0061230557,0.189899
769,-2.5413876,2.7349086,1.2006831,4.0386424,-8.418186,2.9989808,0.0432853,-0.019985037,0.023981618,0.110512204,-0.62276036,-0.6322666
770,-2.5413876,2.7349086,1.2006831,4.0386424,-8.418186,2.9989808,0.0432853,-0.019985037,0.023981618,0.110512204,-0.62276036,-0.6322666
771,-2.5413876,2.7349086,1.2006831,4.0386424,-8.418186,2.9989808,0.0432853,-0.019985037,0.023981618,0.110512204,-0.62276036,-0.6322666
772,-2.5413876,2.7349086,1.2006831,4.0386424,-8.418186,2.9989808,0.0432853,-0.019985037,0.023981618,0.110512204,-0.62276036,-0.6322666
773,-2.5413876,2.7349086,1.2006831,4.0386424,-8.418186,2.9989808,0.0432853,-0.019985037,0.023981618,0.110512204,-0.62276036,-0.6322666
774,-2.5413876,2.7349086,1.2006831,4.0386424,-8.418186,2.9989808,0.0432853,-0.019985037,0.023981618,0.110512204,-0.62276036,-0.6322666
775,-2.5413876,2.7349086,1.2006831,4.0384502,-8.435195,2.9510663,0.068315566,-0.021426532,0.015861766,0.015310361,0.33123335,-0.067521594
776,-2.5413876,2.7349086,1.2006831,4.0384502,-8.435195,2.9510663,0.068315566,-0.021426532,0.015861766,0.015310361,0.33123335,-0.067521594
777,-2.5413876,2.7349086,1.2006831,4.0384502,-8.435195,2.9510663,0.068315566,-0.021426532,0.015861766,0.015310361,0.33123335,-0.067521594
778,-2.5413876,2.7349086,1.2006831,4.0384502,-8.435195,2.9510663,0.068315566,-0.021426532,0.015861766,0.015310361,0.33123335,-0.067521594
779,-2.5413876,2.7349086,1.2006831,4.0384502,-8.435195,2.9510663,0.068315566,-0.021426532,0.015861766,0.015310361,0.33123335,-0.067521594
780,-2.5413876,2.7349086,1.2006831,4.0384502,-8.435195,2.9510663,0.068315566,-0.021426532,0.015861766,0.015310361,0.33123335,-0.067521594
781,-2.543027,2.7331214,1.175679,4.0241466,-8.464369,2.8863597,0.09339694,-0.02061955,0.0155445095,0.011411719,0.028557343,0.0801265
782,-2.543027,2.7331214,1.175679,4.0241466,-8.464369,2.8863597,0.09339694,-0.02061955,0.0155445095,0.011411719,0.028557343,0.0801265
783,-2.543027,2.7331214,1.175679,4.0241466,-8.464369,2.8863597,0.09339694,-0.02061955,0.0155445095,0.011411719,0.028557343,0.0801265
784,-2.543027,2.7331214,1.175679,4.0241466,-8.464369,2.8863597,0.09339694,-0.02061955,0.0155445095,0.011411719,0.028557343,0.0801265
785,-2.543027,2.7331214,1.175679,4.0241466,-8.464369,2.8863597,0.09339694,-0.02061955,0.0155445095,0.011411719,0.028557343,0.0801265
786,-2.543027,2.7331214,1.175679,4.0241466,-8.464369,2.8863597,0.09339694,-0.02061955,0.0155445095,0.011411719,0.028557343,0.0801265
787,-2.543027,2.7331214,1.175679,3.9922323,-8.481181,2.8813221,0.09409746,-0.011123144,0.027220191,-0.31448498,0.36852345,-0.049249157
788,-2.543027,2.7331214,1.175679,3.9922323,-8.481181,2.8813221,0.09409746,-0.011123144,0.027220191,-0.31448498,0.36852345,-0.049249157
789,-2.543027,2.7331214,1.175679,3.9922323,-8.481181,2.8813221,0.09409746,-0.011123144,0.027220191,-0.31448498,0.36852345,-0.049249157
790,-2.543027,2.7331214,1.175679,3.9922323,-8.481181,2.8813221,0.09409746,-0.011123144,0.027220191,-0.31448498,0.36852345,-0.049249157
791,-2.543027,2.7331214,1.175679,3.9922323,-8.481181,2.8813221,0.09409746,-0.011123144,0.027220191,-0.31448498,0.36852345,-0.049249157
792,-2.543027,2.7331214,1.175679,3.9922323,-8.481181,2.8813221,0.09409746,-0.011123144,0.027220191,-0.31448498,0.36852345,-0.049249157
793,-2.543027,2.7331214,1.175679,3.9585052,-8.496172,2.8836942,0.07328202,0.0065016313,0.05205776,-0.21932393,0.0150650395,0.67340153
794,-2.543027,2.7331214,1.175679,3.9585052,-8.496172,2.8836942,0.07328202,0.0065016313,0.05205776,-0.21932393,0.0150650395,0.67340153
795,-2.543027,2.7331214,1.175679,3.9585052,-8.496172,2.8836942,0.07328202,0.0065016313,0.05205776,-0.21932393,0.0150650395,0.67340153
796,-2.543027,2.7331214,1.175679,3.9585052,-8.496172,2.8836942,0.07328202,0.0065016313,0.05205776,-0.21932393,0.0150650395,0.67340153
797,-2.543027,2.7331214,1.175679,3.9585052,-8.496172,2.8836942,0.07328202,0.0065016313,0.05205776,-0.21932393,0.0150650395,0.67340153
798,-2.543027,2.7331214,1.175679,3.9585052,-8.496172,2.8836942,0.07328202,0.0065016313,0.05205776,-0.21932393,0.0150650395,0.67340153
799,-2.5620449,2.7405539,1.1608924,3.9217103,-8.503457,2.9123516,0.063442804,0.02287335,0.080730096,0.2079301,-0.34639394,0.024690442
800,-2.5620449,2.7405539,1.1608924,3.9217103,-8.503457,2.9123516,0.063442804,0.02287335,0.080730096,0.2079301,-0.34639394,0.024690442
801,-2.5620449,2.7405539,1.1608924,3.9217103,-8.503457,2.9123516,0.063442804,0.02287335,0.080730096,0.2079301,-0.34639394,0.024690442
802,-2.5620449,2.7405539,1.1608924,3.9217103,-8.503457,2.9123516,0.063442804,0.02287335,0.080730096,0.2079301,-0.34639394,0.024690442
803,-2.5620449,2.7405539,1.1608924,3.9217103,-8.503457,2.9123516,0.063442804,0.02287335,0.080730096,0.2079301,-0.34639394,0.024690442
804,-2.5620449,2.7405539,1.1608924,3.9217103,-8.503457,2.9123516,0.063442804,0.02287335,0.080730096,0.2079301,-0.34639394,0.024690442
805,-2.5620449,2.7405539,1.1608924,3.8603802,-8.523991,2.9341846,0.084009126,0.02938882,0.097394586,0.3837449,-0.35873747,0.25437722
806,-2.5620449,2.7405539,1.1608924,3.8603802,-8.523991,2.9341846,0.084009126,0.02938882,0.097394586,0.3837449,-0.35873747,0.25437722
807,-2.5620449,2.7405539,1.1608924,3.8603802,-8.523991,2.9341846,0.084009126,0.02938882,0.097394586,0.3837449,-0.35873747,0.25437722
808,-2.5620449,2.7405539,1.1608924,3.8603802,-8.523991,2.9341846,0.084009126,0.02938882,0.097394586,0.3837449,-0.35873747,0.25437722
809,-2.5620449,2.7405539,1.1608924,3.8603802,-8.523991,2.9341846,0.084009126,0.02938882,0.097394586,0.3837449,-0.35873747,0.25437722
810,-2.5811992,2.7486591,1.157991,3.820512,-8.5177965,3.0035346,0.11285179,0.02705624,0.09396757,-0.02398955,0.028968465,0.30684114
811,-2.5811992,2.7486591,1.157991,3.820512,-8.5177965,3.0035346,0.11285179,0.02705624,0.09396757,-0.02398955,0.028968465,0.30684114
812,-2.5811992,2.7486591,1.157991,3.820512,-8.5177965,3.0035346,0.11285179,0.02705624,0.09396757,-0.02398955,0.028968465,0.30684114
813,-2.5811992,2.7486591,1.157991,3.820512,-8.5177965,3.0035346,0.11285179,0.02705624,0.09396757,-0.02398955,0.028968465,0.30684114
814,-2.5811992,2.7486591,1.157991,3.820512,-8.5177965,3.0035346,0.11285179,0.02705624,0.09396757,-0.02398955,0.028968465,0.30684114
815,-2.5811992,2.7486591,1.157991,3.820512,-8.5177965,3.0035346,0.11285179,0.02705624,0.09396757,-0.02398955,0.028968465,0.30684114
816,-2.5811992,2.7486591,1.157991,3.7869003,-8.5125675,3.0603867,0.117007,0.022358073,0.07582539,-0.009355607,0.11443333,0.13154612
817,-2.5811992,2.7486591,1.157991,3.7869003,-8.5125675,3.0603867,0.117007,0.022358073,0.07582539,-0.009355607,0.11443333,0.13154612
818,-2.5811992,2.7486591,1.157991,3.7869003,-8.5125675,3.0603867,0.117007,0.022358073,0.07582539,-0.009355607,0.11443333,0.13154612
819,-2.5811992,2.7486591,1.157991,3.7869003,-8.5125675,3.0603867,0.117007,0.022358073,0.07582539,-0.009355607,0.11443333,0.13154612
820,-2.5811992,2.7486591,1.157991,3.7868958,-8.506967,3.0759258,0.087159336,0.017297937,0.048126124,-0.2524369,0.47230384,0.7808576
821,-2.5811992,2.7486591,1.157991,3.7868958,-8.506967,3.0759258,0.087159336,0.017297937,0.048126124,-0.2524369,0.47230384,0.7808576
822,-2.5811992,2.7486591,1.157991,3.7868958,-8.506967,3.0759258,0.087159336,0.017297937,0.048126124,-0.2524369,0.47230384,0.7808576
823,-2.5811992,2.7486591,1.157991,3.7868958,-8.506967,3.0759258,0.087159336,0.017297937,0.048126124,-0.2524369,0.47230384,0.7808576
824,-2.5811992,2.7486591,1.157991,3.7868958,-8.506967,3.0759258,0.087159336,0.017297937,0.048126124,-0.2524369,0.47230384,0.7808576
825,-2.5811992,2.7486591,1.157991,3.7868958,-8.506967,3.0759258,0.087159336,0.017297937,0.048126124,-0.2524369,0.47230384,0.7808576
826,-2.5811992,2.7486591,1.157991,3.7774594,-8.513909,3.0683124,0.04408483,0.0077174264,0.010403462,-0.24070784,0.014233176,-0.10584567
827,-2.5811992,2.7486591,1.157991,3.7774594,-8.513909,3.0683124,0.04408483,0.0077174264,0.010403462,-0.24070784,0.014233176,-0.10584567
828,-2.5811992,2.7486591,1.157991,3.7774594,-8.513909,3.0683124,0.04408483,0.0077174264,0.010403462,-0.24070784,0.014233176,-0.10584567
829,-2.5811992,2.7486591,1.157991,3.7774594,-8.513909,3.0683124,0.04408483,0.0077174264,0.010403462,-0.24070784,0.014233176,-0.10584567
830,-2.5811992,2.7486591,1.157991,3.7774594,-8.513909,3.0683124,0.04408483,0.0077174264,0.010403462,-0.24070784,0.014233176,-0.10584567
831,-2.5811992,2.7486591,1.157991,3.7774594,-8.513909,3.0683124,0.04408483,0.0077174264,0.010403462,-0.24070784,0.014233176,-0.10584567
832,-2.5967853,2.7515152,1.1510936,3.767492,-8.509212,3.0934951,0.01021183,-0.00684018,-0.030977232,0.23028249,-0.49878404,-0.07496799
833,-2.5967853,2.7515152,1.1510936,3.767492,-8.509212,3.0934951,0.01021183,-0.00684018,-0.030977232,0.23028249,-0.49878404,-0.07496799
834,-2.5967853,2.7515152,1.1510936,3.767492,-8.509212,3.0934951,0.01021183,-0.00684018,-0.030977232,0.23028249,-0.49878404,-0.07496799
835,-2.5967853,2.7515152,1.1510936,3.767492,-8.509212,3.0934951,0.01021183,-0.00684018,-0.030977232,0.23028249,-0.49878404,-0.07496799
836,-2.5967853,2.7515152,1.1510936,3.767492,-8.509212,3.0934951,0.01021183,-0.00684018,-0.030977232,0.23028249,-0.49878404,-0.07496799
837,-2.5967853,2.7515152,1.1510936,3.767492,-8.509212,3.0934951,0.01021183,-0.00684018,-0.030977232,0.23028249,-0.49878404,-0.07496799
838,-2.5967853,2.7515152,1.1510936,3.7999516,-8.512102,3.045468,-0.008014455,-0.021210413,-0.063864395,0.09252633,-0.12860006,-0.36833915
839,-2.5967853,2.7515152,1.1510936,3.7999516,-8.512102,3.045468,-0.008014455,-0.021210413,-0.063864395,0.09252633,-0.12860006,-0.36833915
840,-2.5967853,2.7515152,1.1510936,3.7999516,-8.512102,3.045468,-0.008014455,-0.021210413,-0.063864395,0.09252633,-0.12860006,-0.36833915
841,-2.5967853,2.7515152,1.1510936,3.7999516,-8.512102,3.045468,-0.008014455,-0.021210413,-0.063864395,0.09252633,-0.12860006,-0.36833915
842,-2.5967853,2.7515152,1.1510936,3.7999516,-8.512102,3.045468,-0.008014455,-0.021210413,-0.063864395,0.09252633,-0.12860006,-0.36833915
843,-2.5967853,2.7515152,1.1510936,3.7999516,-8.512102,3.045468,-0.008014455,-0.021210413,-0.063864395,0.09252633,-0.12860006,-0.36833915
844,-2.5898447,2.7461145,1.1409483,3.8177364,-8.513533,3.0191114,-0.014439434,-0.03004995,-0.079516426,-0.08821543,-0.18829584,0.20543692
845,-2.5898447,2.7461145,1.1409483,3.8177364,-8.513533,3.0191114,-0.014439434,-0.03004995,-0.079516426,-0.08821543,-0.18829584,0.20543692
846,-2.5898447,2.7461145,1.1409483,3.8177364,-8.513533,3.0191114,-0.014439434,-0.03004995,-0.079516426,-0.08821543,-0.18829584,0.20543692
847,-2.5898447,2.7461145,1.1409483,3.8177364,-8.513533,3.0191114,-0.014439434,-0.03004995,-0.079516426,-0.08821543,-0.18829584,0.20543692
848,-2.5898447,2.7461145,1.1409483,3.8177364,-8.513533,3.0191114,-0.014439434,-0.03004995,-0.079516426,-0.08821543,-0.18829584,0.20543692
849,-2.5898447,2.7461145,1.1409483,3.8177364,-8.513533,3.0191114,-0.014439434,-0.03004995,-0.079516426,-0.08821543,-0.18829584,0.20543692
850,-2.5898447,2.7461145,1.1409483,3.8341284,-8.521679,2.9750333,-0.0231246,-0.03205569,-0.08107716,-0.25982502,0.06078823,0.14090571
851,-2.5898447,2.7461145,1.1409483,3.8341284,-8.521679,2.9750333,-0.0231246,-0.03205569,-0.08107716,-0.25982502,0.06078823,0.14090571
852,-2.5898447,2.7461145,1.1409483,3.8341284,-8.521679,2.9750333,-0.0231246,-0.03205569,-0.08107716,-0.25982502,0.06078823,0.14090571
853,-2.5898447,2.7461145,1.1409483,3.8341284,-8.521679,2.9750333,-0.0231246,-0.03205569,-0.08107716,-0.25982502,0.06078823,0.14090571
854,-2.5898447,2.7461145,1.1409483,3.8341284,-8.521679,2.9750333,-0.0231246,-0.03205569,-0.08107716,-0.25982502,0.06078823,0.14090571
855,-2.5898447,2.7461145,1.1409483,3.8341284,-8.521679,2.9750333,-0.0231246,-0.03205569,-0.08107716,-0.25982502,0.06078823,0.14090571
856,-2.5898447,2.7461145,1.1409483,3.8207889,-8.522792,2.988976,-0.040963363,-0.028739402,-0.075087614,0.2635379,0.28715977,-0.12760016
857,-2.5898447,2.7461145,1.1409483,3.8207889,-8.522792,2.988976,-0.040963363,-0.028739402,-0.075087614,0.2635379,0.28715977,-0.12760016
858,-2.5898447,2.7461145,1.1409483,3.8207889,-8.522792,2.988976,-0.040963363,-0.028739402,-0.075087614,0.2635379,0.28715977,-0.12760016
859,-2.5898447,2.7461145,1.1409483,3.8207889,-8.522792,2.988976,-0.040963363,-0.028739402,-0.075087614,0.2635379,0.28715977,-0.12760016
860,-2.5898447,2.7461145,1.1409483,3.8207889,-8.522792,2.988976,-0.040963363,-0.028739402,-0.075087614,0.2635379,0.28715977,-0.12760016
861,-2.5898447,2.7461145,1.1409483,3.8207889,-8.522792,2.988976,-0.040963363,-0.028739402,-0.075087614,0.2635379,0.28715977,-0.12760016
862,-2.5898447,2.7461145,1.1409483,3.819224,-8.508756,3.0306733,-0.053344887,-0.022812666,-0.06328417,0.40005037,-0.023802485,0.17586432
863,-2.5898447,2.7461145,1.1409483,3.819224,-8.508756,3.0306733,-0.053344887,-0.022812666,-0.06328417,0.40005037,-0.023802485,0.17586432
864,-2.5898447,2.7461145,1.1409483,3.819224,-8.508756,3.0306733,-0.053344887,-0.022812666,-0.06328417,0.40005037,-0.023802485,0.17586432
865,-2.5898447,2.7461145,1.1409483,3.819224,-8.508756,3.0306733,-0.053344887,-0.022812666,-0.06328417,0.40005037,-0.023802485,0.17586432
866,-2.5898447,2.7461145,1.1409483,3.819224,-8.508756,3.0306733,-0.053344887,-0.022812666,-0.06328417,0.40005037,-0.023802485,0.17586432
867,-2.5898447,2.7461145,1.1409483,3.819224,-8.508756,3.0306733,-0.053344887,-0.022812666,-0.06328417,0.40005037,-0.023802485,0.17586432
868,-2.5898447,2.7461145,1.1409483,3.8364527,-8.511018,3.0024326,-0.039960492,-0.019421853,-0.050818548,0.23389532,-0.587805,-0.35076094
869,-2.5898447,2.7461145,1.1409483,3.8364527,-8.511018,3.0024326,-0.039960492,-0.019421853,-0.050818548,0.23389532,-0.587805,-0.35076094
870,-2.5898447,2.7461145,1.1409483,3.8364527,-8.511018,3.0024326,-0.039960492,-0.019421853,-0.050818548,0.23389532,-0.587805,-0.35076094
871,-2.5898447,2.7461145,1.1409483,3.8364527,-8.511018,3.0024326,-0.039960492,-0.019421853,-0.050818548,0.23389532,-0.587805,-0.35076094
872,-2.5898447,2.7461145,1.1409483,3.8364527,-8.511018,3.0024326,-0.039960492,-0.019421853,-0.050818548,0.23389532,-0.587805,-0.35076094
873,-2.5898447,2.7461145,1.1409483,3.8364527,-8.511018,3.0024326,-0.039960492,-0.019421853,-0.050818548,0.23389532,-0.587805,-0.35076094
874,-2.5939064,2.742351,1.1307533,3.8353102,-8.498563,3.038949,-0.0044203,-0.021537252,-0.044847097,0.15226379,0.21201938,0.031249894
875,-2.5939064,2.742351,1.1307533,3.8353102,-8.498563,3.038949,-0.0044203,-0.021537252,-0.044847097,0.15226379,0.21201938,0.031249894
876,-2.5939064,2.742351,1.1307533,3.8353102,-8.498563,3.038949,-0.0044203,-0.021537252,-0.044847097,0.15226379,0.21201938,0.031249894
877,-2.5939064,2.742351,1.1307533,3.8353102,-8.498563,3.038949,-0.0044203,-0.021537252,-0.044847097,0.15226379,0.21201938,0.031249894
878,-2.5939064,2.742351,1.1307533,3.8353102,-8.498563,3.038949,-0.0044203,-0.021537252,-0.044847097,0.15226379,0.21201938,0.031249894
879,-2.5939064,2.742351,1.1307533,3.8353102,-8.498563,3.038949,-0.0044203,-0.021537252,-0.044847097,0.15226379,0.21201938,0.031249894
880,-2.5939064,2.742351,1.1307533,3.829666,-8.48143,3.0934415,0.023959262,-0.027309619,-0.049161997,0.10482948,-0.031267393,0.1510234
881,-2.5939064,2.742351,1.1307533,3.829666,-8.48143,3.0934415,0.023959262,-0.027309619,-0.049161997,0.10482948,-0.031267393,0.1510234
882,-2.5939064,2.742351,1.1307533,3.829666,-8.48143,3.0934415,0.023959262,-0.027309619,-0.049161997,0.10482948,-0.031267393,0.1510234
883,-2.5939064,2.742351,1.1307533,3.829666,-8.48143,3.0934415,0.023959262,-0.027309619,-0.049161997,0.10482948,-0.031267393,0.1510234
884,-2.5939064,2.742351,1.1307533,3.829666,-8.48143,3.0934415,0.023959262,-0.027309619,-0.049161997,0.10482948,-0.031267393,0.1510234
885,-2.5939064,2.742351,1.1307533,3.829666,-8.48143,3.0934415,0.023959262,-0.027309619,-0.049161997,0.10482948,-0.031267393,0.1510234
886,-2.6049683,2.7457652,1.1433955,3.796136,-8.457442,3.198657,0.024126407,-0.03058013,-0.056086283,-0.3105568,0.10345674,0.02117186
