id,Attitude Roll,Attitude Pitch,Attitude Azimuth,Gravity X,Gravity Y,Gravity Z,Rotation Rate X,Rotation Rate Y,Rotation Rate Z,User Acceleration X,User Acceleration Y,User Acceleration Z
1,0.5005959,2.8690147,-1.4710323,2.7383077,-9.140666,2.2628024,-0.55804896,0.1933398,0.11331416,-0.007024647,0.019014865,0.08927315
2,0.5005959,2.8690147,-1.4710323,2.7383077,-9.140666,2.2628024,-0.59373426,-0.11318101,-0.18468477,-0.007024647,0.019014865,0.08927315
3,0.5005959,2.8690147,-1.4710323,2.7383077,-9.140666,2.2628024,-0.59373426,-0.11318101,-0.18468477,-0.007024647,0.019014865,0.08927315
4,0.5005959,2.8690147,-1.4710323,2.7383077,-9.140666,2.2628024,-0.59373426,-0.11318101,-0.18468477,-0.007024647,0.019014865,0.08927315
5,0.5894541,2.8169863,-0.92289966,3.2932713,-9.223808,0.49610242,-0.59373426,-0.11318101,-0.18468477,-0.04564836,0.017069215,0.12832145
6,0.5894541,2.8169863,-0.92289966,3.2932713,-9.223808,0.49610242,-0.13222206,-0.45778388,0.20479105,-0.04564836,0.017069215,0.12832145
7,0.5894541,2.8169863,-0.92289966,3.2932713,-9.223808,0.49610242,-0.13222206,-0.45778388,0.20479105,-0.04564836,0.017069215,0.12832145
8,0.5894541,2.8169863,-0.92289966,3.2932713,-9.223808,0.49610242,-0.13222206,-0.45778388,0.20479105,-0.04564836,0.017069215,0.12832145
9,0.5878309,2.8198411,0.45986134,3.263102,-9.247758,-0.039220784,-0.13222206,-0.45778388,0.20479105,-0.098529086,-0.060149528,0.0017807616
10,0.5878309,2.8198411,0.45986134,3.263102,-9.247758,-0.039220784,0.39733192,0.51663804,0.26257995,-0.098529086,-0.060149528,0.0017807616
11,0.5878309,2.8198411,0.45986134,3.263102,-9.247758,-0.039220784,0.39733192,0.51663804,0.26257995,-0.098529086,-0.060149528,0.0017807616
12,0.5878309,2.8198411,0.45986134,3.263102,-9.247758,-0.039220784,0.39733192,0.51663804,0.26257995,-0.098529086,-0.060149528,0.0017807616
13,0.563808,2.8368816,-1.7729827,3.0820215,-9.27492,0.8046015,0.39733192,0.51663804,0.26257995,-0.1712948,0.020624252,0.07684562
14,0.563808,2.8368816,-1.7729827,3.0820215,-9.27492,0.8046015,0.8186316,1.122223,-0.35898352,-0.1712948,0.020624252,0.07684562
15,0.563808,2.8368816,-1.7729827,3.0820215,-9.27492,0.8046015,0.8186316,1.122223,-0.35898352,-0.1712948,0.020624252,0.07684562
16,0.563808,2.8368816,-1.7729827,3.0820215,-9.27492,0.8046015,0.8186316,1.122223,-0.35898352,-0.1712948,0.020624252,0.07684562
17,0.563808,2.8368816,-1.7729827,3.0820215,-9.27492,0.8046015,0.8186316,1.122223,-0.35898352,-0.1712948,0.020624252,0.07684562
18,0.55157423,2.8143878,-1.2107368,3.2681832,-8.858839,2.6477032,0.8186316,1.122223,-0.35898352,0.02023729,0.056549966,0.1838142
19,0.55157423,2.8143878,-1.2107368,3.2681832,-8.858839,2.6477032,0.8186316,1.122223,-0.35898352,0.02023729,0.056549966,0.1838142
20,0.55157423,2.8143878,-1.2107368,3.2681832,-8.858839,2.6477032,-0.45698497,0.61890036,-0.5238283,0.02023729,0.056549966,0.1838142
21,0.55157423,2.8143878,-1.2107368,3.2681832,-8.858839,2.6477032,-0.45698497,0.61890036,-0.5238283,0.02023729,0.056549966,0.1838142
22,0.5950009,2.7340376,-0.47212878,3.2681832,-8.858839,2.6477032,-0.45698497,0.61890036,-0.5238283,0.02023729,0.056549966,0.1838142
23,0.5950009,2.7340376,-0.47212878,3.6837587,-8.823553,2.1783512,-0.45698497,0.61890036,-0.5238283,0.15588015,-0.05918312,0.09657505
24,0.5950009,2.7340376,-0.47212878,3.6837587,-8.823553,2.1783512,-0.3123796,0.5286219,0.052329574,0.15588015,-0.05918312,0.09657505
25,0.5950009,2.7340376,-0.47212878,3.6837587,-8.823553,2.1783512,-0.3123796,0.5286219,0.052329574,0.15588015,-0.05918312,0.09657505
26,0.5950009,2.7340376,-0.47212878,3.6837587,-8.823553,2.1783512,-0.3123796,0.5286219,0.052329574,0.15588015,-0.05918312,0.09657505
27,0.53929514,2.6733475,-0.19963512,3.3208349,-8.938256,2.29129,-0.3123796,0.5286219,0.052329574,-0.0020186591,0.06828736,-0.23534064
28,0.53929514,2.6733475,-0.19963512,3.3208349,-8.938256,2.29129,-0.3123796,0.5286219,0.052329574,-0.0020186591,0.06828736,-0.23534064
29,0.53929514,2.6733475,-0.19963512,3.3208349,-8.938256,2.29129,-0.7950633,-0.33195323,-0.16764104,-0.0020186591,0.06828736,-0.23534064
30,0.53929514,2.6733475,-0.19963512,3.3208349,-8.938256,2.29129,-0.7950633,-0.33195323,-0.16764104,-0.0020186591,0.06828736,-0.23534064
31,0.53929514,2.6733475,-0.19963512,3.3208349,-8.938256,2.29129,-0.7950633,-0.33195323,-0.16764104,-0.0020186591,0.06828736,-0.23534064
32,0.731216,2.5954795,0.3047055,3.675495,-9.082857,0.4035334,-0.7950633,-0.33195323,-0.16764104,0.028073069,0.008968232,0.19387059
33,0.731216,2.5954795,0.3047055,3.675495,-9.082857,0.4035334,-0.7950633,-0.33195323,-0.16764104,0.028073069,0.008968232,0.19387059
34,0.731216,2.5954795,0.3047055,3.675495,-9.082857,0.4035334,-0.21930484,-0.8196968,0.20905198,0.028073069,0.008968232,0.19387059
35,0.731216,2.5954795,0.3047055,3.675495,-9.082857,0.4035334,-0.21930484,-0.8196968,0.20905198,0.028073069,0.008968232,0.19387059
36,0.731216,2.5954795,0.3047055,3.675495,-9.082857,0.4035334,-0.21930484,-0.8196968,0.20905198,0.028073069,0.008968232,0.19387059
37,0.7106357,2.6711743,0.4414134,3.2882795,-9.225559,-0.4966544,-0.21930484,-0.8196968,0.20905198,0.008816675,-0.096411705,-0.07225595
38,0.7106357,2.6711743,0.4414134,3.2882795,-9.225559,-0.4966544,0.57748944,0.5049205,-0.100797676,0.008816675,-0.096411705,-0.07225595
39,0.7106357,2.6711743,0.4414134,3.2882795,-9.225559,-0.4966544,0.57748944,0.5049205,-0.100797676,0.008816675,-0.096411705,-0.07225595
40,0.7106357,2.6711743,0.4414134,3.2882795,-9.225559,-0.4966544,0.57748944,0.5049205,-0.100797676,0.008816675,-0.096411705,-0.07225595
41,0.7106357,2.6711743,0.4414134,3.2882795,-9.225559,-0.4966544,0.57748944,0.5049205,-0.100797676,0.008816675,-0.096411705,-0.07225595
42,0.651255,2.7079663,0.13382766,3.5765543,-9.095061,0.811471,0.57748944,0.5049205,-0.100797676,-0.18863276,0.07189761,0.08042758
43,0.651255,2.7079663,0.13382766,3.5765543,-9.095061,0.811471,1.5227506,-0.19813335,-0.13035789,-0.18863276,0.07189761,0.08042758
44,0.651255,2.7079663,0.13382766,3.5765543,-9.095061,0.811471,1.5227506,-0.19813335,-0.13035789,-0.18863276,0.07189761,0.08042758
45,0.651255,2.7079663,0.13382766,3.5765543,-9.095061,0.811471,1.5227506,-0.19813335,-0.13035789,-0.18863276,0.07189761,0.08042758
46,0.651255,2.7079663,0.13382766,3.5765543,-9.095061,0.811471,1.5227506,-0.19813335,-0.13035789,-0.18863276,0.07189761,0.08042758
47,0.5465177,2.5932271,-0.29148445,3.6784003,-8.5505705,3.0866637,1.5227506,-0.19813335,-0.13035789,0.27829304,0.21789639,0.2773992
48,0.5465177,2.5932271,-0.29148445,3.6784003,-8.5505705,3.0866637,-0.68601006,-0.33341792,0.032090146,0.27829304,0.21789639,0.2773992
49,0.5465177,2.5932271,-0.29148445,3.6784003,-8.5505705,3.0866637,-0.68601006,-0.33341792,0.032090146,0.27829304,0.21789639,0.2773992
50,0.5465177,2.5932271,-0.29148445,3.6784003,-8.5505705,3.0866637,-0.68601006,-0.33341792,0.032090146,0.27829304,0.21789639,0.2773992
51,0.5465177,2.5932271,-0.29148445,3.6784003,-8.5505705,3.0866637,-0.68601006,-0.33341792,0.032090146,0.27829304,0.21789639,0.2773992
52,0.62218094,2.7116206,-0.23567338,3.7419732,-8.887415,1.7837828,-0.68601006,-0.33341792,0.032090146,0.15790983,-0.20878287,-0.13429382
53,0.62218094,2.7116206,-0.23567338,3.7419732,-8.887415,1.7837828,-0.49413496,0.077895164,0.34433657,0.15790983,-0.20878287,-0.13429382
54,0.62218094,2.7116206,-0.23567338,3.7419732,-8.887415,1.7837828,-0.49413496,0.077895164,0.34433657,0.15790983,-0.20878287,-0.13429382
55,0.62218094,2.7116206,-0.23567338,3.7419732,-8.887415,1.7837828,-0.49413496,0.077895164,0.34433657,0.15790983,-0.20878287,-0.13429382
56,0.62218094,2.7116206,-0.23567338,3.7419732,-8.887415,1.7837828,-0.49413496,0.077895164,0.34433657,0.15790983,-0.20878287,-0.13429382
57,0.56008154,2.7929597,-0.03251296,3.0975606,-9.260981,0.8998536,-0.49413496,0.077895164,0.34433657,-0.024467068,0.11221801,0.050060928
58,0.56008154,2.7929597,-0.03251296,3.0975606,-9.260981,0.8998536,-0.58734286,0.11664302,-0.13848029,-0.024467068,0.11221801,0.050060928
59,0.56008154,2.7929597,-0.03251296,3.0975606,-9.260981,0.8998536,-0.58734286,0.11664302,-0.13848029,-0.024467068,0.11221801,0.050060928
60,0.56008154,2.7929597,-0.03251296,3.0975606,-9.260981,0.8998536,-0.58734286,0.11664302,-0.13848029,-0.024467068,0.11221801,0.050060928
61,0.56008154,2.7929597,-0.03251296,3.0975606,-9.260981,0.8998536,-0.58734286,0.11664302,-0.13848029,-0.024467068,0.11221801,0.050060928
62,0.64181733,2.7623367,0.37356454,3.3721654,-9.208404,-0.06475732,-0.58734286,0.11664302,-0.13848029,-0.052146684,0.013343857,-0.06606022
63,0.64181733,2.7623367,0.37356454,3.3721654,-9.208404,-0.06475732,-0.049533337,-0.8173,0.23634858,-0.052146684,0.013343857,-0.06606022
64,0.64181733,2.7623367,0.37356454,3.3721654,-9.208404,-0.06475732,-0.049533337,-0.8173,0.23634858,-0.052146684,0.013343857,-0.06606022
65,0.64181733,2.7623367,0.37356454,3.3721654,-9.208404,-0.06475732,-0.049533337,-0.8173,0.23634858,-0.052146684,0.013343857,-0.06606022
66,0.64181733,2.7623367,0.37356454,3.3721654,-9.208404,-0.06475732,-0.049533337,-0.8173,0.23634858,-0.052146684,0.013343857,-0.06606022
67,0.60978335,2.7905686,0.4617491,2.9255502,-9.343453,-0.55806106,-0.049533337,-0.8173,0.23634858,-0.0988253,-0.031257283,-0.16990128
68,0.60978335,2.7905686,0.4617491,2.9255502,-9.343453,-0.55806106,-0.049533337,-0.8173,0.23634858,-0.0988253,-0.031257283,-0.16990128
69,0.60978335,2.7905686,0.4617491,2.9255502,-9.343453,-0.55806106,1.4077054,0.41757134,-0.2371475,-0.0988253,-0.031257283,-0.16990128
70,0.60978335,2.7905686,0.4617491,2.9255502,-9.343453,-0.55806106,1.4077054,0.41757134,-0.2371475,-0.0988253,-0.031257283,-0.16990128
71,0.60978335,2.7905686,0.4617491,2.9255502,-9.343453,-0.55806106,1.4077054,0.41757134,-0.2371475,-0.0988253,-0.031257283,-0.16990128
72,0.5302563,2.7861648,-0.5649701,3.2442803,-8.996289,2.1706753,1.4077054,0.41757134,-0.2371475,-0.018577984,0.1440128,0.17259693
73,0.5302563,2.7861648,-0.5649701,3.2442803,-8.996289,2.1706753,1.4077054,0.41757134,-0.2371475,-0.018577984,0.1440128,0.17259693
74,0.5302563,2.7861648,-0.5649701,3.2442803,-8.996289,2.1706753,0.36324447,0.24833246,-0.13621667,-0.018577984,0.1440128,0.17259693
75,0.5302563,2.7861648,-0.5649701,3.2442803,-8.996289,2.1706753,0.36324447,0.24833246,-0.13621667,-0.018577984,0.1440128,0.17259693
76,0.5302563,2.7861648,-0.5649701,3.2442803,-8.996289,2.1706753,0.36324447,0.24833246,-0.13621667,-0.018577984,0.1440128,0.17259693
77,0.50549304,2.7662277,-0.6582269,3.313058,-8.77416,2.8649867,0.36324447,0.24833246,-0.13621667,0.10388915,-0.004622744,0.22907856
78,0.50549304,2.7662277,-0.6582269,3.313058,-8.77416,2.8649867,0.36324447,0.24833246,-0.13621667,0.10388915,-0.004622744,0.22907856
79,0.50549304,2.7662277,-0.6582269,3.313058,-8.77416,2.8649867,-0.43621293,-0.10319445,-0.06950645,0.10388915,-0.004622744,0.22907856
80,0.50549304,2.7662277,-0.6582269,3.313058,-8.77416,2.8649867,-0.43621293,-0.10319445,-0.06950645,0.10388915,-0.004622744,0.22907856
81,0.50549304,2.7662277,-0.6582269,3.313058,-8.77416,2.8649867,-0.43621293,-0.10319445,-0.06950645,0.10388915,-0.004622744,0.22907856
82,0.56148857,2.7506497,-0.43887293,3.456335,-8.920847,2.1546764,-0.43621293,-0.10319445,-0.06950645,0.06611502,-0.07757222,-0.23243336
83,0.56148857,2.7506497,-0.43887293,3.456335,-8.920847,2.1546764,-0.43621293,-0.10319445,-0.06950645,0.06611502,-0.07757222,-0.23243336
84,0.56148857,2.7506497,-0.43887293,3.456335,-8.920847,2.1546764,-0.8973257,-0.37536147,0.39333728,0.06611502,-0.07757222,-0.23243336
85,0.56148857,2.7506497,-0.43887293,3.456335,-8.920847,2.1546764,-0.8973257,-0.37536147,0.39333728,0.06611502,-0.07757222,-0.23243336
86,0.56148857,2.7506497,-0.43887293,3.456335,-8.920847,2.1546764,-0.8973257,-0.37536147,0.39333728,0.06611502,-0.07757222,-0.23243336
87,0.56148857,2.7506497,-0.43887293,3.456335,-8.920847,2.1546764,-0.8973257,-0.37536147,0.39333728,0.06611502,-0.07757222,-0.23243336
88,0.53839135,2.831924,0.17948025,2.8369727,-9.383874,0.25474682,-0.8973257,-0.37536147,0.39333728,-0.02214945,-0.0021825628,0.053679753
89,0.53839135,2.831924,0.17948025,2.8369727,-9.383874,0.25474682,-0.8973257,-0.37536147,0.39333728,-0.02214945,-0.0021825628,0.053679753
90,0.53839135,2.831924,0.17948025,2.8369727,-9.383874,0.25474682,-0.15565717,-0.63434625,-0.025432438,-0.02214945,-0.0021825628,0.053679753
91,0.53839135,2.831924,0.17948025,2.8369727,-9.383874,0.25474682,-0.15565717,-0.63434625,-0.025432438,-0.02214945,-0.0021825628,0.053679753
92,0.53839135,2.831924,0.17948025,2.8369727,-9.383874,0.25474682,-0.15565717,-0.63434625,-0.025432438,-0.02214945,-0.0021825628,0.053679753
93,0.55989105,2.8346,0.46281505,2.8872094,-9.365652,-0.3449468,-0.15565717,-0.63434625,-0.025432438,-0.054401405,-0.012046627,-0.08643808
94,0.55989105,2.8346,0.46281505,2.8872094,-9.365652,-0.3449468,-0.15565717,-0.63434625,-0.025432438,-0.054401405,-0.012046627,-0.08643808
95,0.55989105,2.8346,0.46281505,2.8872094,-9.365652,-0.3449468,0.22116901,0.02063889,0.10519176,-0.054401405,-0.012046627,-0.08643808
96,0.55989105,2.8346,0.46281505,2.8872094,-9.365652,-0.3449468,0.22116901,0.02063889,0.10519176,-0.054401405,-0.012046627,-0.08643808
97,0.55989105,2.8346,0.46281505,2.8872094,-9.365652,-0.3449468,0.22116901,0.02063889,0.10519176,-0.054401405,-0.012046627,-0.08643808
98,0.55989105,2.8346,0.46281505,2.8872094,-9.365652,-0.3449468,0.22116901,0.02063889,0.10519176,-0.054401405,-0.012046627,-0.08643808
99,0.52207303,2.8582053,0.1747172,2.8046749,-9.396398,0.10908465,0.22116901,0.02063889,0.10519176,-0.2620942,0.021366484,-0.064003505
100,0.52207303,2.8582053,0.1747172,2.8046749,-9.396398,0.10908465,0.22116901,0.02063889,0.10519176,-0.2620942,0.021366484,-0.064003505
101,0.52207303,2.8582053,0.1747172,2.8046749,-9.396398,0.10908465,1.7059706,1.2979864,-0.10172975,-0.2620942,0.021366484,-0.064003505
102,0.52207303,2.8582053,0.1747172,2.8046749,-9.396398,0.10908465,1.7059706,1.2979864,-0.10172975,-0.2620942,0.021366484,-0.064003505
103,0.52207303,2.8582053,0.1747172,2.8046749,-9.396398,0.10908465,1.7059706,1.2979864,-0.10172975,-0.2620942,0.021366484,-0.064003505
104,0.52207303,2.8582053,0.1747172,2.8046749,-9.396398,0.10908465,1.7059706,1.2979864,-0.10172975,-0.2620942,0.021366484,-0.064003505
105,0.35102594,2.8851244,-1.1001942,2.4143357,-8.7474165,3.718074,1.7059706,1.2979864,-0.10172975,0.071704835,0.22535829,0.35168326
106,0.35102594,2.8851244,-1.1001942,2.4143357,-8.7474165,3.718074,-0.19267403,0.40678588,-0.44566688,0.071704835,0.22535829,0.35168326
107,0.35102594,2.8851244,-1.1001942,2.4143357,-8.7474165,3.718074,-0.19267403,0.40678588,-0.44566688,0.071704835,0.22535829,0.35168326
108,0.35102594,2.8851244,-1.1001942,2.4143357,-8.7474165,3.718074,-0.19267403,0.40678588,-0.44566688,0.071704835,0.22535829,0.35168326
109,0.35102594,2.8851244,-1.1001942,2.4143357,-8.7474165,3.718074,-0.19267403,0.40678588,-0.44566688,0.071704835,0.22535829,0.35168326
110,0.36590916,2.790991,-0.6788764,2.8190434,-8.697814,3.5456195,-0.19267403,0.40678588,-0.44566688,0.14322658,-0.16352184,0.17748244
111,0.36590916,2.790991,-0.6788764,2.8190434,-8.697814,3.5456195,-0.19267403,0.40678588,-0.44566688,0.14322658,-0.16352184,0.17748244
112,0.36590916,2.790991,-0.6788764,2.8190434,-8.697814,3.5456195,-0.6374088,-0.68081707,-0.09320789,0.14322658,-0.16352184,0.17748244
113,0.36590916,2.790991,-0.6788764,2.8190434,-8.697814,3.5456195,-0.6374088,-0.68081707,-0.09320789,0.14322658,-0.16352184,0.17748244
114,0.36590916,2.790991,-0.6788764,2.8190434,-8.697814,3.5456195,-0.6374088,-0.68081707,-0.09320789,0.14322658,-0.16352184,0.17748244
115,0.36590916,2.790991,-0.6788764,2.8190434,-8.697814,3.5456195,-0.6374088,-0.68081707,-0.09320789,0.14322658,-0.16352184,0.17748244
116,0.5377451,2.70021,-0.20968051,3.2784247,-8.987298,2.1565661,-0.6374088,-0.68081707,-0.09320789,0.067708954,0.15487058,-0.36234036
117,0.5377451,2.70021,-0.20968051,3.2784247,-8.987298,2.1565661,-0.6374088,-0.68081707,-0.09320789,0.067708954,0.15487058,-0.36234036
118,0.5377451,2.70021,-0.20968051,3.2784247,-8.987298,2.1565661,-0.68601006,-0.6460638,0.054060575,0.067708954,0.15487058,-0.36234036
119,0.5377451,2.70021,-0.20968051,3.2784247,-8.987298,2.1565661,-0.68601006,-0.6460638,0.054060575,0.067708954,0.15487058,-0.36234036
120,0.5377451,2.70021,-0.20968051,3.2784247,-8.987298,2.1565661,-0.68601006,-0.6460638,0.054060575,0.067708954,0.15487058,-0.36234036
121,0.5377451,2.70021,-0.20968051,3.2784247,-8.987298,2.1565661,-0.68601006,-0.6460638,0.054060575,0.067708954,0.15487058,-0.36234036
122,0.6229491,2.76408,0.19089653,3.3871415,-9.193391,0.42337403,-0.68601006,-0.6460638,0.054060575,-0.04713759,-0.0850624,0.12522976
123,0.6229491,2.76408,0.19089653,3.3871415,-9.193391,0.42337403,-0.68601006,-0.6460638,0.054060575,-0.04713759,-0.0850624,0.12522976
124,0.6229491,2.76408,0.19089653,3.3871415,-9.193391,0.42337403,-0.091077425,-1.2591054,0.07177007,-0.04713759,-0.0850624,0.12522976
125,0.6229491,2.76408,0.19089653,3.3871415,-9.193391,0.42337403,-0.091077425,-1.2591054,0.07177007,-0.04713759,-0.0850624,0.12522976
126,0.6229491,2.76408,0.19089653,3.3871415,-9.193391,0.42337403,-0.091077425,-1.2591054,0.07177007,-0.04713759,-0.0850624,0.12522976
127,0.6229491,2.76408,0.19089653,3.3871415,-9.193391,0.42337403,-0.091077425,-1.2591054,0.07177007,-0.04713759,-0.0850624,0.12522976
128,0.60442555,2.810857,0.6211722,3.2026367,-9.252946,-0.54451054,-0.091077425,-1.2591054,0.07177007,0.048642393,-0.078718565,-0.062617995
129,0.60442555,2.810857,0.6211722,3.2026367,-9.252946,-0.54451054,-0.091077425,-1.2591054,0.07177007,0.048642393,-0.078718565,-0.062617995
130,0.60442555,2.810857,0.6211722,3.2026367,-9.252946,-0.54451054,0.06844122,-0.7802832,0.2093183,0.048642393,-0.078718565,-0.062617995
131,0.60442555,2.810857,0.6211722,3.2026367,-9.252946,-0.54451054,0.06844122,-0.7802832,0.2093183,0.048642393,-0.078718565,-0.062617995
132,0.60442555,2.810857,0.6211722,3.2026367,-9.252946,-0.54451054,0.06844122,-0.7802832,0.2093183,0.048642393,-0.078718565,-0.062617995
133,0.60442555,2.810857,0.6211722,3.2026367,-9.252946,-0.54451054,0.06844122,-0.7802832,0.2093183,0.048642393,-0.078718565,-0.062617995
134,0.5097945,2.8619483,2.3671978,2.7892842,-9.3649435,-0.829532,0.06844122,-0.7802832,0.2093183,-0.19178896,-0.00602448,-0.10145338
135,0.5097945,2.8619483,2.3671978,2.7892842,-9.3649435,-0.829532,0.06844122,-0.7802832,0.2093183,-0.19178896,-0.00602448,-0.10145338
136,0.5097945,2.8619483,2.3671978,2.7892842,-9.3649435,-0.829532,1.548982,0.73687494,-0.3402088,-0.19178896,-0.00602448,-0.10145338
137,0.5097945,2.8619483,2.3671978,2.7892842,-9.3649435,-0.829532,1.548982,0.73687494,-0.3402088,-0.19178896,-0.00602448,-0.10145338
138,0.5097945,2.8619483,2.3671978,2.7892842,-9.3649435,-0.829532,1.548982,0.73687494,-0.3402088,-0.19178896,-0.00602448,-0.10145338
139,0.5097945,2.8619483,2.3671978,2.7892842,-9.3649435,-0.829532,1.548982,0.73687494,-0.3402088,-0.19178896,-0.00602448,-0.10145338
140,0.62644327,2.8178313,-1.941329,3.2073731,-8.96351,2.3534296,1.548982,0.73687494,-0.3402088,0.058806438,0.18516698,0.20089331
141,0.62644327,2.8178313,-1.941329,3.2073731,-8.96351,2.3534296,0.085884415,0.9549814,-0.3675054,0.058806438,0.18516698,0.20089331
142,0.62644327,2.8178313,-1.941329,3.2073731,-8.96351,2.3534296,0.085884415,0.9549814,-0.3675054,0.058806438,0.18516698,0.20089331
143,0.62644327,2.8178313,-1.941329,3.2073731,-8.96351,2.3534296,0.085884415,0.9549814,-0.3675054,0.058806438,0.18516698,0.20089331
144,0.62644327,2.8178313,-1.941329,3.2073731,-8.96351,2.3534296,0.085884415,0.9549814,-0.3675054,0.058806438,0.18516698,0.20089331
145,0.62644327,2.8178313,-1.941329,3.2073731,-8.96351,2.3534296,0.085884415,0.9549814,-0.3675054,0.058806438,0.18516698,0.20089331
146,0.6083555,2.817896,-1.6815108,3.2806652,-8.729581,3.033487,0.085884415,0.9549814,-0.3675054,0.073724754,-0.094951645,0.2526081
147,0.6083555,2.817896,-1.6815108,3.2806652,-8.729581,3.033487,-0.3556547,-0.25379178,0.2031932,0.073724754,-0.094951645,0.2526081
148,0.6083555,2.817896,-1.6815108,3.2806652,-8.729581,3.033487,-0.3556547,-0.25379178,0.2031932,0.073724754,-0.094951645,0.2526081
149,0.6083555,2.817896,-1.6815108,3.2806652,-8.729581,3.033487,-0.3556547,-0.25379178,0.2031932,0.073724754,-0.094951645,0.2526081
150,0.6083555,2.817896,-1.6815108,3.2806652,-8.729581,3.033487,-0.3556547,-0.25379178,0.2031932,0.073724754,-0.094951645,0.2526081
151,0.6083555,2.817896,-1.6815108,3.2806652,-8.729581,3.033487,-0.3556547,-0.25379178,0.2031932,0.073724754,-0.094951645,0.2526081
152,0.5149712,2.8337111,-1.0765691,3.0344653,-9.0200815,2.3665485,-0.3556547,-0.25379178,0.2031932,-0.012977334,0.045708314,-0.25861415
153,0.5149712,2.8337111,-1.0765691,3.0344653,-9.0200815,2.3665485,-0.70984465,-1.0563117,0.07643047,-0.012977334,0.045708314,-0.25861415
154,0.5149712,2.8337111,-1.0765691,3.0344653,-9.0200815,2.3665485,-0.70984465,-1.0563117,0.07643047,-0.012977334,0.045708314,-0.25861415
155,0.5149712,2.8337111,-1.0765691,3.0344653,-9.0200815,2.3665485,-0.70984465,-1.0563117,0.07643047,-0.012977334,0.045708314,-0.25861415
156,0.5149712,2.8337111,-1.0765691,3.0344653,-9.0200815,2.3665485,-0.70984465,-1.0563117,0.07643047,-0.012977334,0.045708314,-0.25861415
157,0.5718488,2.8295112,-0.9276825,3.1612947,-9.277848,0.31327724,-0.70984465,-1.0563117,0.07643047,0.032328803,0.05805932,0.20901708
158,0.5718488,2.8295112,-0.9276825,3.1612947,-9.277848,0.31327724,-0.70984465,-1.0563117,0.07643047,0.032328803,0.05805932,0.20901708
159,0.5718488,2.8295112,-0.9276825,3.1612947,-9.277848,0.31327724,0.012383334,-1.6408583,0.31131434,0.032328803,0.05805932,0.20901708
160,0.5718488,2.8295112,-0.9276825,3.1612947,-9.277848,0.31327724,0.012383334,-1.6408583,0.31131434,0.032328803,0.05805932,0.20901708
161,0.5718488,2.8295112,-0.9276825,3.1612947,-9.277848,0.31327724,0.012383334,-1.6408583,0.31131434,0.032328803,0.05805932,0.20901708
162,0.5718488,2.8295112,-0.9276825,3.1612947,-9.277848,0.31327724,0.012383334,-1.6408583,0.31131434,0.032328803,0.05805932,0.20901708
163,0.47316623,2.8761072,3.0526977,2.5332022,-9.458386,-0.54056,0.012383334,-1.6408583,0.31131434,-0.051583596,-0.12500103,-0.1211899
164,0.47316623,2.8761072,3.0526977,2.5332022,-9.458386,-0.54056,0.012383334,-1.6408583,0.31131434,-0.051583596,-0.12500103,-0.1211899
165,0.47316623,2.8761072,3.0526977,2.5332022,-9.458386,-0.54056,0.36124715,0.08175664,-0.09360735,-0.051583596,-0.12500103,-0.1211899
166,0.47316623,2.8761072,3.0526977,2.5332022,-9.458386,-0.54056,0.36124715,0.08175664,-0.09360735,-0.051583596,-0.12500103,-0.1211899
167,0.47316623,2.8761072,3.0526977,2.5332022,-9.458386,-0.54056,0.36124715,0.08175664,-0.09360735,-0.051583596,-0.12500103,-0.1211899
168,0.47316623,2.8761072,3.0526977,2.5332022,-9.458386,-0.54056,0.36124715,0.08175664,-0.09360735,-0.051583596,-0.12500103,-0.1211899
169,0.61872524,2.7234476,-2.8172827,2.8113205,-9.393631,0.16298175,0.36124715,0.08175664,-0.09360735,-0.28700036,0.1071857,0.041119568
170,0.61872524,2.7234476,-2.8172827,2.8113205,-9.393631,0.16298175,0.36124715,0.08175664,-0.09360735,-0.28700036,0.1071857,0.041119568
171,0.61872524,2.7234476,-2.8172827,2.8113205,-9.393631,0.16298175,1.462565,0.720497,-0.15911919,-0.28700036,0.1071857,0.041119568
172,0.61872524,2.7234476,-2.8172827,2.8113205,-9.393631,0.16298175,1.462565,0.720497,-0.15911919,-0.28700036,0.1071857,0.041119568
173,0.61872524,2.7234476,-2.8172827,2.8113205,-9.393631,0.16298175,1.462565,0.720497,-0.15911919,-0.28700036,0.1071857,0.041119568
174,0.61872524,2.7234476,-2.8172827,2.8113205,-9.393631,0.16298175,1.462565,0.720497,-0.15911919,-0.28700036,0.1071857,0.041119568
175,0.7167984,2.7889194,-2.2652864,2.7970126,-8.874927,3.0956068,1.462565,0.720497,-0.15911919,0.113786355,0.12929413,0.2948564
176,0.7167984,2.7889194,-2.2652864,2.7970126,-8.874927,3.0956068,1.462565,0.720497,-0.15911919,0.113786355,0.12929413,0.2948564
177,0.7167984,2.7889194,-2.2652864,2.7970126,-8.874927,3.0956068,-0.38761166,-0.13941237,-0.2809552,0.113786355,0.12929413,0.2948564
178,0.7167984,2.7889194,-2.2652864,2.7970126,-8.874927,3.0956068,-0.38761166,-0.13941237,-0.2809552,0.113786355,0.12929413,0.2948564
179,0.7167984,2.7889194,-2.2652864,2.7970126,-8.874927,3.0956068,-0.38761166,-0.13941237,-0.2809552,0.113786355,0.12929413,0.2948564
180,0.7167984,2.7889194,-2.2652864,2.7970126,-8.874927,3.0956068,-0.38761166,-0.13941237,-0.2809552,0.113786355,0.12929413,0.2948564
181,0.7424861,2.7450147,-2.2976646,3.336482,-8.926981,2.3124204,-0.38761166,-0.13941237,-0.2809552,0.1299239,-0.18122159,0.07429249
182,0.7424861,2.7450147,-2.2976646,3.336482,-8.926981,2.3124204,-0.38761166,-0.13941237,-0.2809552,0.1299239,-0.18122159,0.07429249
183,0.7424861,2.7450147,-2.2976646,3.336482,-8.926981,2.3124204,-0.20532367,0.32023567,0.45618606,0.1299239,-0.18122159,0.07429249
184,0.7424861,2.7450147,-2.2976646,3.336482,-8.926981,2.3124204,-0.20532367,0.32023567,0.45618606,0.1299239,-0.18122159,0.07429249
185,0.7424861,2.7450147,-2.2976646,3.336482,-8.926981,2.3124204,-0.20532367,0.32023567,0.45618606,0.1299239,-0.18122159,0.07429249
186,0.7424861,2.7450147,-2.2976646,3.336482,-8.926981,2.3124204,-0.20532367,0.32023567,0.45618606,0.1299239,-0.18122159,0.07429249
187,0.59766257,2.8516748,-2.3827753,2.3596973,-9.258539,2.2094514,-0.20532367,0.32023567,0.45618606,-0.02604989,0.16467603,-0.21342812
188,0.59766257,2.8516748,-2.3827753,2.3596973,-9.258539,2.2094514,-0.20532367,0.32023567,0.45618606,-0.02604989,0.16467603,-0.21342812
189,0.59766257,2.8516748,-2.3827753,2.3596973,-9.258539,2.2094514,-0.85218644,-0.15805395,-0.20545682,-0.02604989,0.16467603,-0.21342812
190,0.59766257,2.8516748,-2.3827753,2.3596973,-9.258539,2.2094514,-0.85218644,-0.15805395,-0.20545682,-0.02604989,0.16467603,-0.21342812
191,0.59766257,2.8516748,-2.3827753,2.3596973,-9.258539,2.2094514,-0.85218644,-0.15805395,-0.20545682,-0.02604989,0.16467603,-0.21342812
192,0.59766257,2.8516748,-2.3827753,2.3596973,-9.258539,2.2094514,-0.85218644,-0.15805395,-0.20545682,-0.02604989,0.16467603,-0.21342812
193,0.5861791,2.8051183,-2.718185,2.835278,-9.377861,0.43279755,-0.85218644,-0.15805395,-0.20545682,-0.104219176,-0.063617654,0.22022864
194,0.5861791,2.8051183,-2.718185,2.835278,-9.377861,0.43279755,-0.85218644,-0.15805395,-0.20545682,-0.104219176,-0.063617654,0.22022864
195,0.5861791,2.8051183,-2.718185,2.835278,-9.377861,0.43279755,-0.14953208,-0.17176883,0.21650861,-0.104219176,-0.063617654,0.22022864
196,0.5861791,2.8051183,-2.718185,2.835278,-9.377861,0.43279755,-0.14953208,-0.17176883,0.21650861,-0.104219176,-0.063617654,0.22022864
197,0.5861791,2.8051183,-2.718185,2.835278,-9.377861,0.43279755,-0.14953208,-0.17176883,0.21650861,-0.104219176,-0.063617654,0.22022864
198,0.5861791,2.8051183,-2.718185,2.835278,-9.377861,0.43279755,-0.14953208,-0.17176883,0.21650861,-0.104219176,-0.063617654,0.22022864
199,0.5187278,2.8383179,-2.8572922,2.5207784,-9.476811,0.07813532,-0.14953208,-0.17176883,0.21650861,-0.16027007,-0.10051183,-0.031633496
200,0.5187278,2.8383179,-2.8572922,2.5207784,-9.476811,0.07813532,0.83034915,1.3222204,0.16391273,-0.16027007,-0.10051183,-0.031633496
201,0.5187278,2.8383179,-2.8572922,2.5207784,-9.476811,0.07813532,0.83034915,1.3222204,0.16391273,-0.16027007,-0.10051183,-0.031633496
202,0.5187278,2.8383179,-2.8572922,2.5207784,-9.476811,0.07813532,0.83034915,1.3222204,0.16391273,-0.16027007,-0.10051183,-0.031633496
203,0.5187278,2.8383179,-2.8572922,2.5207784,-9.476811,0.07813532,0.83034915,1.3222204,0.16391273,-0.16027007,-0.10051183,-0.031633496
204,0.5187278,2.8383179,-2.8572922,2.5207784,-9.476811,0.07813532,0.83034915,1.3222204,0.16391273,-0.16027007,-0.10051183,-0.031633496
205,0.5224276,2.8997502,-2.3745544,2.045929,-9.358281,2.0993183,0.83034915,1.3222204,0.16391273,-0.28017977,0.017926257,0.24237423
206,0.5224276,2.8997502,-2.3745544,2.045929,-9.358281,2.0993183,-0.19400556,2.4272666,-0.7532529,-0.28017977,0.017926257,0.24237423
207,0.5224276,2.8997502,-2.3745544,2.045929,-9.358281,2.0993183,-0.19400556,2.4272666,-0.7532529,-0.28017977,0.017926257,0.24237423
208,0.5224276,2.8997502,-2.3745544,2.045929,-9.358281,2.0993183,-0.19400556,2.4272666,-0.7532529,-0.28017977,0.017926257,0.24237423
209,0.5224276,2.8997502,-2.3745544,2.045929,-9.358281,2.0993183,-0.19400556,2.4272666,-0.7532529,-0.28017977,0.017926257,0.24237423
210,0.5224276,2.8997502,-2.3745544,2.045929,-9.358281,2.0993183,-0.19400556,2.4272666,-0.7532529,-0.28017977,0.017926257,0.24237423
211,0.46684456,2.9116628,-1.800709,2.2745156,-9.175231,2.6099994,-0.19400556,2.4272666,-0.7532529,-0.15855272,0.023342952,0.26317668
212,0.46684456,2.9116628,-1.800709,2.2745156,-9.175231,2.6099994,-0.87429,1.7274085,-0.65445256,-0.15855272,0.023342952,0.26317668
213,0.46684456,2.9116628,-1.800709,2.2745156,-9.175231,2.6099994,-0.87429,1.7274085,-0.65445256,-0.15855272,0.023342952,0.26317668
214,0.46684456,2.9116628,-1.800709,2.2745156,-9.175231,2.6099994,-0.87429,1.7274085,-0.65445256,-0.15855272,0.023342952,0.26317668
215,0.46684456,2.9116628,-1.800709,2.2745156,-9.175231,2.6099994,-0.87429,1.7274085,-0.65445256,-0.15855272,0.023342952,0.26317668
216,0.46684456,2.9116628,-1.800709,2.2745156,-9.175231,2.6099994,-0.87429,1.7274085,-0.65445256,-0.15855272,0.023342952,0.26317668
217,0.44200626,2.773016,-0.1708353,2.6174188,-9.276404,1.807715,-0.87429,1.7274085,-0.65445256,0.08429867,0.0126688,0.06890505
218,0.44200626,2.773016,-0.1708353,2.6174188,-9.276404,1.807715,-0.9609733,1.9435177,-0.18322007,0.08429867,0.0126688,0.06890505
219,0.44200626,2.773016,-0.1708353,2.6174188,-9.276404,1.807715,-0.9609733,1.9435177,-0.18322007,0.08429867,0.0126688,0.06890505
220,0.44200626,2.773016,-0.1708353,2.6174188,-9.276404,1.807715,-0.9609733,1.9435177,-0.18322007,0.08429867,0.0126688,0.06890505
221,0.44200626,2.773016,-0.1708353,2.6174188,-9.276404,1.807715,-0.9609733,1.9435177,-0.18322007,0.08429867,0.0126688,0.06890505
222,0.44200626,2.773016,-0.1708353,2.6174188,-9.276404,1.807715,-0.9609733,1.9435177,-0.18322007,0.08429867,0.0126688,0.06890505
223,0.6170988,1.7818257,0.14654437,2.473363,-9.433088,1.0342661,-0.9609733,1.9435177,-0.18322007,-0.15461615,0.06998054,-0.05775544
224,0.6170988,1.7818257,0.14654437,2.473363,-9.433088,1.0342661,-0.7065158,0.12583065,-0.32036883,-0.15461615,0.06998054,-0.05775544
225,0.6170988,1.7818257,0.14654437,2.473363,-9.433088,1.0342661,-0.7065158,0.12583065,-0.32036883,-0.15461615,0.06998054,-0.05775544
226,0.6170988,1.7818257,0.14654437,2.473363,-9.433088,1.0342661,-0.7065158,0.12583065,-0.32036883,-0.15461615,0.06998054,-0.05775544
227,0.6170988,1.7818257,0.14654437,2.473363,-9.433088,1.0342661,-0.7065158,0.12583065,-0.32036883,-0.15461615,0.06998054,-0.05775544
228,0.6170988,1.7818257,0.14654437,2.473363,-9.433088,1.0342661,-0.7065158,0.12583065,-0.32036883,-0.15461615,0.06998054,-0.05775544
229,1.1150519,0.5187499,0.32473755,3.0337813,-9.322391,-0.24411711,-0.7065158,0.12583065,-0.32036883,-0.0058914907,-0.053621672,0.014031474
230,1.1150519,0.5187499,0.32473755,3.0337813,-9.322391,-0.24411711,-0.4342156,0.46390897,0.20612259,-0.0058914907,-0.053621672,0.014031474
231,1.1150519,0.5187499,0.32473755,3.0337813,-9.322391,-0.24411711,-0.4342156,0.46390897,0.20612259,-0.0058914907,-0.053621672,0.014031474
232,1.1150519,0.5187499,0.32473755,3.0337813,-9.322391,-0.24411711,-0.4342156,0.46390897,0.20612259,-0.0058914907,-0.053621672,0.014031474
233,1.1150519,0.5187499,0.32473755,3.0337813,-9.322391,-0.24411711,-0.4342156,0.46390897,0.20612259,-0.0058914907,-0.053621672,0.014031474
234,1.1150519,0.5187499,0.32473755,3.0337813,-9.322391,-0.24411711,-0.4342156,0.46390897,0.20612259,-0.0058914907,-0.053621672,0.014031474
235,1.1392903,0.4163905,0.30910048,2.7473795,-9.38675,-0.71497697,-0.4342156,0.46390897,0.20612259,-0.06526386,-0.07257889,-0.13408075
236,1.1392903,0.4163905,0.30910048,2.7473795,-9.38675,-0.71497697,0.11211578,1.7640259,0.26005,-0.06526386,-0.07257889,-0.13408075
237,1.1392903,0.4163905,0.30910048,2.7473795,-9.38675,-0.71497697,0.11211578,1.7640259,0.26005,-0.06526386,-0.07257889,-0.13408075
238,1.1392903,0.4163905,0.30910048,2.7473795,-9.38675,-0.71497697,0.11211578,1.7640259,0.26005,-0.06526386,-0.07257889,-0.13408075
239,1.1392903,0.4163905,0.30910048,2.7473795,-9.38675,-0.71497697,0.11211578,1.7640259,0.26005,-0.06526386,-0.07257889,-0.13408075
240,1.2292669,0.30492824,0.24626188,2.4616752,-9.486314,0.3469829,0.11211578,1.7640259,0.26005,-0.27291322,0.033176687,0.08616264
241,1.2292669,0.30492824,0.24626188,2.4616752,-9.486314,0.3469829,0.11211578,1.7640259,0.26005,-0.27291322,0.033176687,0.08616264
242,1.2292669,0.30492824,0.24626188,2.4616752,-9.486314,0.3469829,0.38561437,2.3246047,-0.53048605,-0.27291322,0.033176687,0.08616264
243,1.2292669,0.30492824,0.24626188,2.4616752,-9.486314,0.3469829,0.38561437,2.3246047,-0.53048605,-0.27291322,0.033176687,0.08616264
244,1.2292669,0.30492824,0.24626188,2.4616752,-9.486314,0.3469829,0.38561437,2.3246047,-0.53048605,-0.27291322,0.033176687,0.08616264
245,1.2292669,0.30492824,0.24626188,2.4616752,-9.486314,0.3469829,0.38561437,2.3246047,-0.53048605,-0.27291322,0.033176687,0.08616264
246,1.9360448,0.37056947,0.33458352,2.8773131,-9.123293,2.1580052,0.38561437,2.3246047,-0.53048605,-0.04178753,0.030454095,0.24256805
247,1.9360448,0.37056947,0.33458352,2.8773131,-9.123293,2.1580052,0.38561437,2.3246047,-0.53048605,-0.04178753,0.030454095,0.24256805
248,1.9360448,0.37056947,0.33458352,2.8773131,-9.123293,2.1580052,-0.78188103,1.863492,-0.80651456,-0.04178753,0.030454095,0.24256805
249,1.9360448,0.37056947,0.33458352,2.8773131,-9.123293,2.1580052,-0.78188103,1.863492,-0.80651456,-0.04178753,0.030454095,0.24256805
250,1.9360448,0.37056947,0.33458352,2.8773131,-9.123293,2.1580052,-0.78188103,1.863492,-0.80651456,-0.04178753,0.030454095,0.24256805
251,1.9360448,0.37056947,0.33458352,2.8773131,-9.123293,2.1580052,-0.78188103,1.863492,-0.80651456,-0.04178753,0.030454095,0.24256805
252,2.7418418,1.1237218,0.47988948,3.4593773,-8.990026,1.8391672,-0.78188103,1.863492,-0.80651456,0.10897347,0.0022058943,0.15831193
253,2.7418418,1.1237218,0.47988948,3.4593773,-8.990026,1.8391672,-0.78188103,1.863492,-0.80651456,0.10897347,0.0022058943,0.15831193
254,2.7418418,1.1237218,0.47988948,3.4593773,-8.990026,1.8391672,-0.23728065,1.7704173,-0.16657582,0.10897347,0.0022058943,0.15831193
255,2.7418418,1.1237218,0.47988948,3.4593773,-8.990026,1.8391672,-0.23728065,1.7704173,-0.16657582,0.10897347,0.0022058943,0.15831193
256,2.7418418,1.1237218,0.47988948,3.4593773,-8.990026,1.8391672,-0.23728065,1.7704173,-0.16657582,0.10897347,0.0022058943,0.15831193
257,2.7418418,1.1237218,0.47988948,3.4593773,-8.990026,1.8391672,-0.23728065,1.7704173,-0.16657582,0.10897347,0.0022058943,0.15831193
258,-2.954666,2.6587212,0.7044413,3.0022895,-8.958884,2.6258402,-0.23728065,1.7704173,-0.16657582,-0.036799017,0.07269992,-0.09166966
259,-2.954666,2.6587212,0.7044413,3.0022895,-8.958884,2.6258402,-0.23728065,1.7704173,-0.16657582,-0.036799017,0.07269992,-0.09166966
260,-2.954666,2.6587212,0.7044413,3.0022895,-8.958884,2.6258402,-1.1119701,0.5435352,-0.3643097,-0.036799017,0.07269992,-0.09166966
261,-2.954666,2.6587212,0.7044413,3.0022895,-8.958884,2.6258402,-1.1119701,0.5435352,-0.3643097,-0.036799017,0.07269992,-0.09166966
262,-2.954666,2.6587212,0.7044413,3.0022895,-8.958884,2.6258402,-1.1119701,0.5435352,-0.3643097,-0.036799017,0.07269992,-0.09166966
263,-2.954666,2.6587212,0.7044413,3.0022895,-8.958884,2.6258402,-1.1119701,0.5435352,-0.3643097,-0.036799017,0.07269992,-0.09166966
264,-2.5840878,2.7775664,0.6743539,3.420054,-9.153299,0.8311077,-1.1119701,0.5435352,-0.3643097,-0.0086379945,-0.0062156036,0.23446555
265,-2.5840878,2.7775664,0.6743539,3.420054,-9.153299,0.8311077,-1.1119701,0.5435352,-0.3643097,-0.0086379945,-0.0062156036,0.23446555
266,-2.5840878,2.7775664,0.6743539,3.420054,-9.153299,0.8311077,-0.9507205,-0.04420717,0.16883944,-0.0086379945,-0.0062156036,0.23446555
267,-2.5840878,2.7775664,0.6743539,3.420054,-9.153299,0.8311077,-0.9507205,-0.04420717,0.16883944,-0.0086379945,-0.0062156036,0.23446555
268,-2.5840878,2.7775664,0.6743539,3.420054,-9.153299,0.8311077,-0.9507205,-0.04420717,0.16883944,-0.0086379945,-0.0062156036,0.23446555
269,-2.5840878,2.7775664,0.6743539,3.420054,-9.153299,0.8311077,-0.9507205,-0.04420717,0.16883944,-0.0086379945,-0.0062156036,0.23446555
270,-2.5669014,2.8283455,-0.5411181,3.1110933,-9.257749,-0.88632405,-0.9507205,-0.04420717,0.16883944,-0.019085346,-0.05585391,-0.10070255
271,-2.5669014,2.8283455,-0.5411181,3.1110933,-9.257749,-0.88632405,-0.9507205,-0.04420717,0.16883944,-0.019085346,-0.05585391,-0.10070255
272,-2.5669014,2.8283455,-0.5411181,3.1110933,-9.257749,-0.88632405,0.23461758,0.8362079,0.14886631,-0.019085346,-0.05585391,-0.10070255
273,-2.5669014,2.8283455,-0.5411181,3.1110933,-9.257749,-0.88632405,0.23461758,0.8362079,0.14886631,-0.019085346,-0.05585391,-0.10070255
274,-2.5669014,2.8283455,-0.5411181,3.1110933,-9.257749,-0.88632405,0.23461758,0.8362079,0.14886631,-0.019085346,-0.05585391,-0.10070255
275,-2.5669014,2.8283455,-0.5411181,3.1110933,-9.257749,-0.88632405,0.23461758,0.8362079,0.14886631,-0.019085346,-0.05585391,-0.10070255
276,-2.589317,2.8426247,0.87241524,3.0221899,-9.329189,0.054671608,0.23461758,0.8362079,0.14886631,-0.23765285,0.10104116,-0.012015627
277,-2.589317,2.8426247,0.87241524,3.0221899,-9.329189,0.054671608,0.23461758,0.8362079,0.14886631,-0.23765285,0.10104116,-0.012015627
278,-2.589317,2.8426247,0.87241524,3.0221899,-9.329189,0.054671608,1.1268834,1.3396636,-0.4513925,-0.23765285,0.10104116,-0.012015627
279,-2.589317,2.8426247,0.87241524,3.0221899,-9.329189,0.054671608,1.1268834,1.3396636,-0.4513925,-0.23765285,0.10104116,-0.012015627
280,-2.589317,2.8426247,0.87241524,3.0221899,-9.329189,0.054671608,1.1268834,1.3396636,-0.4513925,-0.23765285,0.10104116,-0.012015627
281,-2.589317,2.8426247,0.87241524,3.0221899,-9.329189,0.054671608,1.1268834,1.3396636,-0.4513925,-0.23765285,0.10104116,-0.012015627
282,-2.4671896,2.7765915,2.3294678,3.4098785,-8.751564,2.8201518,1.1268834,1.3396636,-0.4513925,0.10031037,0.08197681,0.27601686
283,-2.4671896,2.7765915,2.3294678,3.4098785,-8.751564,2.8201518,1.1268834,1.3396636,-0.4513925,0.10031037,0.08197681,0.27601686
284,-2.4671896,2.7765915,2.3294678,3.4098785,-8.751564,2.8201518,-0.24021004,0.4438027,-0.4801538,0.10031037,0.08197681,0.27601686
285,-2.4671896,2.7765915,2.3294678,3.4098785,-8.751564,2.8201518,-0.24021004,0.4438027,-0.4801538,0.10031037,0.08197681,0.27601686
286,-2.4671896,2.7765915,2.3294678,3.4098785,-8.751564,2.8201518,-0.24021004,0.4438027,-0.4801538,0.10031037,0.08197681,0.27601686
287,-2.4671896,2.7765915,2.3294678,3.4098785,-8.751564,2.8201518,-0.24021004,0.4438027,-0.4801538,0.10031037,0.08197681,0.27601686
288,-2.4099507,2.6388562,2.8382728,3.8942504,-8.596426,2.6658306,-0.24021004,0.4438027,-0.4801538,0.21142094,-0.06417032,0.17533419
289,-2.4099507,2.6388562,2.8382728,3.8942504,-8.596426,2.6658306,-0.24021004,0.4438027,-0.4801538,0.21142094,-0.06417032,0.17533419
290,-2.4099507,2.6388562,2.8382728,3.8942504,-8.596426,2.6658306,-0.46683836,0.21064983,0.23248711,0.21142094,-0.06417032,0.17533419
291,-2.4099507,2.6388562,2.8382728,3.8942504,-8.596426,2.6658306,-0.46683836,0.21064983,0.23248711,0.21142094,-0.06417032,0.17533419
292,-2.4099507,2.6388562,2.8382728,3.8942504,-8.596426,2.6658306,-0.46683836,0.21064983,0.23248711,0.21142094,-0.06417032,0.17533419
293,-2.4099507,2.6388562,2.8382728,3.8942504,-8.596426,2.6658306,-0.46683836,0.21064983,0.23248711,0.21142094,-0.06417032,0.17533419
294,-2.5158176,2.6037338,3.0683582,3.356061,-8.97414,2.0909452,-0.46683836,0.21064983,0.23248711,-0.008931048,0.15123126,-0.1975449
295,-2.5158176,2.6037338,3.0683582,3.356061,-8.97414,2.0909452,-0.46683836,0.21064983,0.23248711,-0.008931048,0.15123126,-0.1975449
296,-2.5158176,2.6037338,3.0683582,3.356061,-8.97414,2.0909452,-0.27070233,-1.3604357,-0.22676148,-0.008931048,0.15123126,-0.1975449
297,-2.5158176,2.6037338,3.0683582,3.356061,-8.97414,2.0909452,-0.27070233,-1.3604357,-0.22676148,-0.008931048,0.15123126,-0.1975449
298,-2.5158176,2.6037338,3.0683582,3.356061,-8.97414,2.0909452,-0.27070233,-1.3604357,-0.22676148,-0.008931048,0.15123126,-0.1975449
299,-2.5158176,2.6037338,3.0683582,3.356061,-8.97414,2.0909452,-0.27070233,-1.3604357,-0.22676148,-0.008931048,0.15123126,-0.1975449
300,-2.5531466,2.5456803,-2.8137228,4.0814023,-8.901644,0.5227518,-0.27070233,-1.3604357,-0.22676148,0.08295702,-0.035195637,0.155046
301,-2.5531466,2.5456803,-2.8137228,4.0814023,-8.901644,0.5227518,-0.27070233,-1.3604357,-0.22676148,0.08295702,-0.035195637,0.155046
302,-2.5531466,2.5456803,-2.8137228,4.0814023,-8.901644,0.5227518,-0.12090395,-0.9436633,0.2774932,0.08295702,-0.035195637,0.155046
303,-2.5531466,2.5456803,-2.8137228,4.0814023,-8.901644,0.5227518,-0.12090395,-0.9436633,0.2774932,0.08295702,-0.035195637,0.155046
304,-2.5531466,2.5456803,-2.8137228,4.0814023,-8.901644,0.5227518,-0.12090395,-0.9436633,0.2774932,0.08295702,-0.035195637,0.155046
305,-2.5531466,2.5456803,-2.8137228,4.0814023,-8.901644,0.5227518,-0.12090395,-0.9436633,0.2774932,0.08295702,-0.035195637,0.155046
306,-2.5503976,2.752876,-2.6046636,3.6148937,-9.106487,-0.4181207,-0.12090395,-0.9436633,0.2774932,-0.029680584,-0.07600804,-0.030945053
307,-2.5503976,2.752876,-2.6046636,3.6148937,-9.106487,-0.4181207,-0.12090395,-0.9436633,0.2774932,-0.029680584,-0.07600804,-0.030945053
308,-2.5503976,2.752876,-2.6046636,3.6148937,-9.106487,-0.4181207,0.60731596,0.6035877,-0.034087457,-0.029680584,-0.07600804,-0.030945053
309,-2.5503976,2.752876,-2.6046636,3.6148937,-9.106487,-0.4181207,0.60731596,0.6035877,-0.034087457,-0.029680584,-0.07600804,-0.030945053
310,-2.5503976,2.752876,-2.6046636,3.6148937,-9.106487,-0.4181207,0.60731596,0.6035877,-0.034087457,-0.029680584,-0.07600804,-0.030945053
311,-2.5503976,2.752876,-2.6046636,3.6148937,-9.106487,-0.4181207,0.60731596,0.6035877,-0.034087457,-0.029680584,-0.07600804,-0.030945053
312,-2.4897535,2.77142,2.760017,3.6593828,-9.040799,1.0214034,0.60731596,0.6035877,-0.034087457,-0.12134293,0.09389229,0.17019852
313,-2.4897535,2.77142,2.760017,3.6593828,-9.040799,1.0214034,0.60731596,0.6035877,-0.034087457,-0.12134293,0.09389229,0.17019852
314,-2.4897535,2.77142,2.760017,3.6593828,-9.040799,1.0214034,0.9677642,0.49626544,-0.27629483,-0.12134293,0.09389229,0.17019852
315,-2.4897535,2.77142,2.760017,3.6593828,-9.040799,1.0214034,0.9677642,0.49626544,-0.27629483,-0.12134293,0.09389229,0.17019852
316,-2.4897535,2.77142,2.760017,3.6593828,-9.040799,1.0214034,0.9677642,0.49626544,-0.27629483,-0.12134293,0.09389229,0.17019852
317,-2.4897535,2.77142,2.760017,3.6593828,-9.040799,1.0214034,0.9677642,0.49626544,-0.27629483,-0.12134293,0.09389229,0.17019852
318,-2.4041622,2.7122183,2.4907432,3.832797,-8.523963,2.9702058,0.9677642,0.49626544,-0.27629483,0.23125698,0.17102481,0.22949973
319,-2.4041622,2.7122183,2.4907432,3.832797,-8.523963,2.9702058,0.9677642,0.49626544,-0.27629483,0.23125698,0.17102481,0.22949973
320,-2.4041622,2.7122183,2.4907432,3.832797,-8.523963,2.9702058,-0.39466885,-0.329157,-0.20971775,0.23125698,0.17102481,0.22949973
321,-2.4041622,2.7122183,2.4907432,3.832797,-8.523963,2.9702058,-0.39466885,-0.329157,-0.20971775,0.23125698,0.17102481,0.22949973
322,-2.4041622,2.7122183,2.4907432,3.832797,-8.523963,2.9702058,-0.39466885,-0.329157,-0.20971775,0.23125698,0.17102481,0.22949973
323,-2.4041622,2.7122183,2.4907432,3.832797,-8.523963,2.9702058,-0.39466885,-0.329157,-0.20971775,0.23125698,0.17102481,0.22949973
324,-2.3884218,2.678565,2.7315428,4.293811,-8.571354,2.0653014,-0.39466885,-0.329157,-0.20971775,0.1853086,-0.08765618,-0.03737115
325,-2.3884218,2.678565,2.7315428,4.293811,-8.571354,2.0653014,-0.39466885,-0.329157,-0.20971775,0.1853086,-0.08765618,-0.03737115
326,-2.3884218,2.678565,2.7315428,4.293811,-8.571354,2.0653014,-0.20079643,0.092808425,0.45725128,0.1853086,-0.08765618,-0.03737115
327,-2.3884218,2.678565,2.7315428,4.293811,-8.571354,2.0653014,-0.20079643,0.092808425,0.45725128,0.1853086,-0.08765618,-0.03737115
328,-2.3884218,2.678565,2.7315428,4.293811,-8.571354,2.0653014,-0.20079643,0.092808425,0.45725128,0.1853086,-0.08765618,-0.03737115
329,-2.3884218,2.678565,2.7315428,4.293811,-8.571354,2.0653014,-0.20079643,0.092808425,0.45725128,0.1853086,-0.08765618,-0.03737115
330,-2.497375,2.7683208,2.7133315,3.3994799,-9.007333,1.8659816,-0.20079643,0.092808425,0.45725128,0.07594866,0.1352033,-0.18633986
331,-2.497375,2.7683208,2.7133315,3.3994799,-9.007333,1.8659816,-0.20079643,0.092808425,0.45725128,0.07594866,0.1352033,-0.18633986
332,-2.497375,2.7683208,2.7133315,3.3994799,-9.007333,1.8659816,-0.5448667,-0.6328816,-0.24167474,0.07594866,0.1352033,-0.18633986
333,-2.497375,2.7683208,2.7133315,3.3994799,-9.007333,1.8659816,-0.5448667,-0.6328816,-0.24167474,0.07594866,0.1352033,-0.18633986
334,-2.497375,2.7683208,2.7133315,3.3994799,-9.007333,1.8659816,-0.5448667,-0.6328816,-0.24167474,0.07594866,0.1352033,-0.18633986
335,-2.497375,2.7683208,2.7133315,3.3994799,-9.007333,1.8659816,-0.5448667,-0.6328816,-0.24167474,0.07594866,0.1352033,-0.18633986
336,-2.471897,2.7315025,-2.9144516,3.9694898,-8.960171,0.35901237,-0.5448667,-0.6328816,-0.24167474,0.022685977,-0.029003946,0.14527786
337,-2.471897,2.7315025,-2.9144516,3.9694898,-8.960171,0.35901237,-0.5448667,-0.6328816,-0.24167474,0.022685977,-0.029003946,0.14527786
338,-2.471897,2.7315025,-2.9144516,3.9694898,-8.960171,0.35901237,-0.19147563,-0.6914694,0.23381865,0.022685977,-0.029003946,0.14527786
339,-2.471897,2.7315025,-2.9144516,3.9694898,-8.960171,0.35901237,-0.19147563,-0.6914694,0.23381865,0.022685977,-0.029003946,0.14527786
340,-2.471897,2.7315025,-2.9144516,3.9694898,-8.960171,0.35901237,-0.19147563,-0.6914694,0.23381865,0.022685977,-0.029003946,0.14527786
341,-2.471897,2.7315025,-2.9144516,3.9694898,-8.960171,0.35901237,-0.19147563,-0.6914694,0.23381865,0.022685977,-0.029003946,0.14527786
342,-2.5248446,2.7877362,-2.3821788,3.5613832,-9.124877,-0.47280768,-0.19147563,-0.6914694,0.23381865,-0.04112876,-0.07369608,-0.07590505
343,-2.5248446,2.7877362,-2.3821788,3.5613832,-9.124877,-0.47280768,-0.19147563,-0.6914694,0.23381865,-0.04112876,-0.07369608,-0.07590505
344,-2.5248446,2.7877362,-2.3821788,3.5613832,-9.124877,-0.47280768,0.16724159,0.5665708,0.13155627,-0.04112876,-0.07369608,-0.07590505
345,-2.5248446,2.7877362,-2.3821788,3.5613832,-9.124877,-0.47280768,0.16724159,0.5665708,0.13155627,-0.04112876,-0.07369608,-0.07590505
346,-2.5248446,2.7877362,-2.3821788,3.5613832,-9.124877,-0.47280768,0.16724159,0.5665708,0.13155627,-0.04112876,-0.07369608,-0.07590505
347,-2.5248446,2.7877362,-2.3821788,3.5613832,-9.124877,-0.47280768,0.16724159,0.5665708,0.13155627,-0.04112876,-0.07369608,-0.07590505
348,-2.5317101,2.8053925,2.6896734,3.4234924,-9.18789,0.18099576,0.16724159,0.5665708,0.13155627,-0.22307776,0.06564652,0.06557927
349,-2.5317101,2.8053925,2.6896734,3.4234924,-9.18789,0.18099576,0.16724159,0.5665708,0.13155627,-0.22307776,0.06564652,0.06557927
350,-2.5317101,2.8053925,2.6896734,3.4234924,-9.18789,0.18099576,1.243127,0.9326115,-0.37749195,-0.22307776,0.06564652,0.06557927
351,-2.5317101,2.8053925,2.6896734,3.4234924,-9.18789,0.18099576,1.243127,0.9326115,-0.37749195,-0.22307776,0.06564652,0.06557927
352,-2.5317101,2.8053925,2.6896734,3.4234924,-9.18789,0.18099576,1.243127,0.9326115,-0.37749195,-0.22307776,0.06564652,0.06557927
353,-2.5317101,2.8053925,2.6896734,3.4234924,-9.18789,0.18099576,1.243127,0.9326115,-0.37749195,-0.22307776,0.06564652,0.06557927
354,-2.4281244,2.7482202,2.3035138,3.7103357,-8.590272,2.9344535,1.243127,0.9326115,-0.37749195,0.19561806,0.15608391,0.24195431
355,-2.4281244,2.7482202,2.3035138,3.7103357,-8.590272,2.9344535,1.243127,0.9326115,-0.37749195,0.19561806,0.15608391,0.24195431
356,-2.4281244,2.7482202,2.3035138,3.7103357,-8.590272,2.9344535,-0.15738818,0.2740312,-0.31996936,0.19561806,0.15608391,0.24195431
357,-2.4281244,2.7482202,2.3035138,3.7103357,-8.590272,2.9344535,-0.15738818,0.2740312,-0.31996936,0.19561806,0.15608391,0.24195431
358,-2.4281244,2.7482202,2.3035138,3.7103357,-8.590272,2.9344535,-0.15738818,0.2740312,-0.31996936,0.19561806,0.15608391,0.24195431
359,-2.4281244,2.7482202,2.3035138,3.7103357,-8.590272,2.9344535,-0.15738818,0.2740312,-0.31996936,0.19561806,0.15608391,0.24195431
360,-2.3849378,2.6850243,2.567491,4.033636,-8.461424,2.8817472,-0.15738818,0.2740312,-0.31996936,0.1645381,-0.12808613,0.05473315
361,-2.3849378,2.6850243,2.567491,4.033636,-8.461424,2.8817472,-0.15738818,0.2740312,-0.31996936,0.1645381,-0.12808613,0.05473315
362,-2.3849378,2.6850243,2.567491,4.033636,-8.461424,2.8817472,-0.73261404,0.215976,-0.098534055,0.1645381,-0.12808613,0.05473315
363,-2.3849378,2.6850243,2.567491,4.033636,-8.461424,2.8817472,-0.73261404,0.215976,-0.098534055,0.1645381,-0.12808613,0.05473315
364,-2.3849378,2.6850243,2.567491,4.033636,-8.461424,2.8817472,-0.73261404,0.215976,-0.098534055,0.1645381,-0.12808613,0.05473315
365,-2.3849378,2.6850243,2.567491,4.033636,-8.461424,2.8817472,-0.73261404,0.215976,-0.098534055,0.1645381,-0.12808613,0.05473315
366,-2.42748,2.6736898,2.9317827,4.020272,-8.73992,1.9030529,-0.73261404,0.215976,-0.098534055,0.17250976,-0.02440959,-0.17910044
367,-2.42748,2.6736898,2.9317827,4.020272,-8.73992,1.9030529,-0.73261404,0.215976,-0.098534055,0.17250976,-0.02440959,-0.17910044
368,-2.42748,2.6736898,2.9317827,4.020272,-8.73992,1.9030529,-0.066843376,-1.1907973,0.1532604,0.17250976,-0.02440959,-0.17910044
369,-2.42748,2.6736898,2.9317827,4.020272,-8.73992,1.9030529,-0.066843376,-1.1907973,0.1532604,0.17250976,-0.02440959,-0.17910044
370,-2.42748,2.6736898,2.9317827,4.020272,-8.73992,1.9030529,-0.066843376,-1.1907973,0.1532604,0.17250976,-0.02440959,-0.17910044
371,-2.42748,2.6736898,2.9317827,4.020272,-8.73992,1.9030529,-0.066843376,-1.1907973,0.1532604,0.17250976,-0.02440959,-0.17910044
372,-2.4971666,2.6475568,-2.9216456,3.9998214,-8.922596,0.74772865,-0.066843376,-1.1907973,0.1532604,0.016201818,0.23517326,0.1386408
373,-2.4971666,2.6475568,-2.9216456,3.9998214,-8.922596,0.74772865,-0.066843376,-1.1907973,0.1532604,0.016201818,0.23517326,0.1386408
374,-2.4971666,2.6475568,-2.9216456,3.9998214,-8.922596,0.74772865,-0.14007814,-0.8318138,0.26830557,0.016201818,0.23517326,0.1386408
375,-2.4971666,2.6475568,-2.9216456,3.9998214,-8.922596,0.74772865,-0.14007814,-0.8318138,0.26830557,0.016201818,0.23517326,0.1386408
376,-2.4971666,2.6475568,-2.9216456,3.9998214,-8.922596,0.74772865,-0.14007814,-0.8318138,0.26830557,0.016201818,0.23517326,0.1386408
377,-2.4971666,2.6475568,-2.9216456,3.9998214,-8.922596,0.74772865,-0.14007814,-0.8318138,0.26830557,0.016201818,0.23517326,0.1386408
378,-2.521323,2.778488,-2.711951,3.590978,-9.1251745,-0.08032648,-0.14007814,-0.8318138,0.26830557,-0.010169828,-0.08933731,-0.114822604
379,-2.521323,2.778488,-2.711951,3.590978,-9.1251745,-0.08032648,-0.14007814,-0.8318138,0.26830557,-0.010169828,-0.08933731,-0.114822604
380,-2.521323,2.778488,-2.711951,3.590978,-9.1251745,-0.08032648,0.07589785,0.20865251,-0.08055825,-0.010169828,-0.08933731,-0.114822604
381,-2.521323,2.778488,-2.711951,3.590978,-9.1251745,-0.08032648,0.07589785,0.20865251,-0.08055825,-0.010169828,-0.08933731,-0.114822604
382,-2.521323,2.778488,-2.711951,3.590978,-9.1251745,-0.08032648,0.07589785,0.20865251,-0.08055825,-0.010169828,-0.08933731,-0.114822604
383,-2.521323,2.778488,-2.711951,3.590978,-9.1251745,-0.08032648,0.07589785,0.20865251,-0.08055825,-0.010169828,-0.08933731,-0.114822604
384,-2.4821613,2.771761,2.6314688,3.7984571,-9.03926,0.18410869,0.07589785,0.20865251,-0.08055825,-0.18504873,0.0768712,0.04733939
385,-2.4821613,2.771761,2.6314688,3.7984571,-9.03926,0.18410869,0.07589785,0.20865251,-0.08055825,-0.18504873,0.0768712,0.04733939
386,-2.4821613,2.771761,2.6314688,3.7984571,-9.03926,0.18410869,1.4828044,0.056191042,-0.04394086,-0.18504873,0.0768712,0.04733939
387,-2.4821613,2.771761,2.6314688,3.7984571,-9.03926,0.18410869,1.4828044,0.056191042,-0.04394086,-0.18504873,0.0768712,0.04733939
388,-2.4821613,2.771761,2.6314688,3.7984571,-9.03926,0.18410869,1.4828044,0.056191042,-0.04394086,-0.18504873,0.0768712,0.04733939
389,-2.4821613,2.771761,2.6314688,3.7984571,-9.03926,0.18410869,1.4828044,0.056191042,-0.04394086,-0.18504873,0.0768712,0.04733939
390,-2.442306,2.7608702,2.180037,3.7190197,-8.655598,2.7239525,1.4828044,0.056191042,-0.04394086,0.30027553,0.20303531,0.22550227
391,-2.442306,2.7608702,2.180037,3.7190197,-8.655598,2.7239525,1.4828044,0.056191042,-0.04394086,0.30027553,0.20303531,0.22550227
392,-2.442306,2.7608702,2.180037,3.7190197,-8.655598,2.7239525,-0.24899822,-0.4171719,-0.23501703,0.30027553,0.20303531,0.22550227
393,-2.442306,2.7608702,2.180037,3.7190197,-8.655598,2.7239525,-0.24899822,-0.4171719,-0.23501703,0.30027553,0.20303531,0.22550227
394,-2.442306,2.7608702,2.180037,3.7190197,-8.655598,2.7239525,-0.24899822,-0.4171719,-0.23501703,0.30027553,0.20303531,0.22550227
395,-2.442306,2.7608702,2.180037,3.7190197,-8.655598,2.7239525,-0.24899822,-0.4171719,-0.23501703,0.30027553,0.20303531,0.22550227
396,-2.4207199,2.7316105,1.6725576,4.258066,-8.612695,1.9648795,-0.24899822,-0.4171719,-0.23501703,0.21893282,-0.07387369,0.038397226
397,-2.4207199,2.7316105,1.6725576,4.258066,-8.612695,1.9648795,-0.24899822,-0.4171719,-0.23501703,0.21893282,-0.07387369,0.038397226
398,-2.4207199,2.7316105,1.6725576,4.258066,-8.612695,1.9648795,-0.023435127,-0.7660357,0.08894696,0.21893282,-0.07387369,0.038397226
399,-2.4207199,2.7316105,1.6725576,4.258066,-8.612695,1.9648795,-0.023435127,-0.7660357,0.08894696,0.21893282,-0.07387369,0.038397226
400,-2.4207199,2.7316105,1.6725576,4.258066,-8.612695,1.9648795,-0.023435127,-0.7660357,0.08894696,0.21893282,-0.07387369,0.038397226
401,-2.4207199,2.7316105,1.6725576,4.258066,-8.612695,1.9648795,-0.023435127,-0.7660357,0.08894696,0.21893282,-0.07387369,0.038397226
402,-2.4359586,2.7307682,1.3433447,4.2573886,-8.722535,1.4008645,-0.023435127,-0.7660357,0.08894696,0.16736582,0.060823325,-0.2776287
403,-2.4359586,2.7307682,1.3433447,4.2573886,-8.722535,1.4008645,-0.023435127,-0.7660357,0.08894696,0.16736582,0.060823325,-0.2776287
404,-2.4359586,2.7307682,1.3433447,4.2573886,-8.722535,1.4008645,-0.32875755,-0.9375382,0.080691405,0.16736582,0.060823325,-0.2776287
405,-2.4359586,2.7307682,1.3433447,4.2573886,-8.722535,1.4008645,-0.32875755,-0.9375382,0.080691405,0.16736582,0.060823325,-0.2776287
406,-2.4359586,2.7307682,1.3433447,4.2573886,-8.722535,1.4008645,-0.32875755,-0.9375382,0.080691405,0.16736582,0.060823325,-0.2776287
407,-2.4359586,2.7307682,1.3433447,4.2573886,-8.722535,1.4008645,-0.32875755,-0.9375382,0.080691405,0.16736582,0.060823325,-0.2776287
408,-2.4620245,2.691736,0.43861163,4.238409,-8.843406,-0.021333816,-0.32875755,-0.9375382,0.080691405,0.01277695,0.0666245,0.102091685
409,-2.4620245,2.691736,0.43861163,4.238409,-8.843406,-0.021333816,-0.32875755,-0.9375382,0.080691405,0.01277695,0.0666245,0.102091685
410,-2.4620245,2.691736,0.43861163,4.238409,-8.843406,-0.021333816,0.38787797,-1.6899922,0.21104929,0.01277695,0.0666245,0.102091685
411,-2.4620245,2.691736,0.43861163,4.238409,-8.843406,-0.021333816,0.38787797,-1.6899922,0.21104929,0.01277695,0.0666245,0.102091685
412,-2.4620245,2.691736,0.43861163,4.238409,-8.843406,-0.021333816,0.38787797,-1.6899922,0.21104929,0.01277695,0.0666245,0.102091685
413,-2.4620245,2.691736,0.43861163,4.238409,-8.843406,-0.021333816,0.38787797,-1.6899922,0.21104929,0.01277695,0.0666245,0.102091685
414,-2.5511408,2.6561496,0.24163501,3.6947136,-9.064216,-0.59957635,0.38787797,-1.6899922,0.21104929,0.069969654,-0.04961235,-0.15359583
415,-2.5511408,2.6561496,0.24163501,3.6947136,-9.064216,-0.59957635,0.22329947,-1.081611,0.12409965,0.069969654,-0.04961235,-0.15359583
416,-2.5511408,2.6561496,0.24163501,3.6947136,-9.064216,-0.59957635,0.22329947,-1.081611,0.12409965,0.069969654,-0.04961235,-0.15359583
417,-2.5511408,2.6561496,0.24163501,3.6947136,-9.064216,-0.59957635,0.22329947,-1.081611,0.12409965,0.069969654,-0.04961235,-0.15359583
418,-2.5511408,2.6561496,0.24163501,3.6947136,-9.064216,-0.59957635,0.22329947,-1.081611,0.12409965,0.069969654,-0.04961235,-0.15359583
419,-2.5511408,2.6561496,0.24163501,3.6947136,-9.064216,-0.59957635,0.22329947,-1.081611,0.12409965,0.069969654,-0.04961235,-0.15359583
420,-2.790576,1.9984666,0.25006336,3.3525155,-9.173296,-0.88411343,0.22329947,-1.081611,0.12409965,-0.114466965,0.021420244,-0.12200294
421,-2.790576,1.9984666,0.25006336,3.3525155,-9.173296,-0.88411343,0.22329947,-1.081611,0.12409965,-0.114466965,0.021420244,-0.12200294
422,-2.790576,1.9984666,0.25006336,3.3525155,-9.173296,-0.88411343,1.6576357,0.14726846,-0.11597724,-0.114466965,0.021420244,-0.12200294
423,-2.790576,1.9984666,0.25006336,3.3525155,-9.173296,-0.88411343,1.6576357,0.14726846,-0.11597724,-0.114466965,0.021420244,-0.12200294
424,-2.790576,1.9984666,0.25006336,3.3525155,-9.173296,-0.88411343,1.6576357,0.14726846,-0.11597724,-0.114466965,0.021420244,-0.12200294
425,-2.790576,1.9984666,0.25006336,3.3525155,-9.173296,-0.88411343,1.6576357,0.14726846,-0.11597724,-0.114466965,0.021420244,-0.12200294
426,2.9841475,1.7828763,0.53897643,3.4288108,-8.936276,2.1346245,1.6576357,0.14726846,-0.11597724,0.08262776,0.1791115,0.16042623
427,2.9841475,1.7828763,0.53897643,3.4288108,-8.936276,2.1346245,0.2275604,0.36710593,-0.10119714,0.08262776,0.1791115,0.16042623
428,2.9841475,1.7828763,0.53897643,3.4288108,-8.936276,2.1346245,0.2275604,0.36710593,-0.10119714,0.08262776,0.1791115,0.16042623
429,2.9841475,1.7828763,0.53897643,3.4288108,-8.936276,2.1346245,0.2275604,0.36710593,-0.10119714,0.08262776,0.1791115,0.16042623
430,2.9841475,1.7828763,0.53897643,3.4288108,-8.936276,2.1346245,0.2275604,0.36710593,-0.10119714,0.08262776,0.1791115,0.16042623
431,2.9841475,1.7828763,0.53897643,3.4288108,-8.936276,2.1346245,0.2275604,0.36710593,-0.10119714,0.08262776,0.1791115,0.16042623
432,2.7119927,1.2692078,0.5355399,3.4020145,-8.793197,2.6974752,0.2275604,0.36710593,-0.10119714,0.059942756,-0.054989967,0.21507844
433,2.7119927,1.2692078,0.5355399,3.4020145,-8.793197,2.6974752,-0.29533586,-0.58095145,-0.05059857,0.059942756,-0.054989967,0.21507844
434,2.7119927,1.2692078,0.5355399,3.4020145,-8.793197,2.6974752,-0.29533586,-0.58095145,-0.05059857,0.059942756,-0.054989967,0.21507844
435,2.7119927,1.2692078,0.5355399,3.4020145,-8.793197,2.6974752,-0.29533586,-0.58095145,-0.05059857,0.059942756,-0.054989967,0.21507844
436,2.7119927,1.2692078,0.5355399,3.4020145,-8.793197,2.6974752,-0.29533586,-0.58095145,-0.05059857,0.059942756,-0.054989967,0.21507844
437,2.7119927,1.2692078,0.5355399,3.4020145,-8.793197,2.6974752,-0.29533586,-0.58095145,-0.05059857,0.059942756,-0.054989967,0.21507844
438,2.8528686,1.4437125,0.52552956,3.7160678,-8.8756,1.8933933,-0.29533586,-0.58095145,-0.05059857,0.06720562,-0.029252525,-0.25930867
439,2.8528686,1.4437125,0.52552956,3.7160678,-8.8756,1.8933933,-0.5950658,-1.1194267,0.3517932,0.06720562,-0.029252525,-0.25930867
440,2.8528686,1.4437125,0.52552956,3.7160678,-8.8756,1.8933933,-0.5950658,-1.1194267,0.3517932,0.06720562,-0.029252525,-0.25930867
441,2.8528686,1.4437125,0.52552956,3.7160678,-8.8756,1.8933933,-0.5950658,-1.1194267,0.3517932,0.06720562,-0.029252525,-0.25930867
442,2.8528686,1.4437125,0.52552956,3.7160678,-8.8756,1.8933933,-0.5950658,-1.1194267,0.3517932,0.06720562,-0.029252525,-0.25930867
443,2.8528686,1.4437125,0.52552956,3.7160678,-8.8756,1.8933933,-0.5950658,-1.1194267,0.3517932,0.06720562,-0.029252525,-0.25930867
444,2.8000736,0.76592416,0.33858585,3.2742,-9.243864,-0.031648356,-0.5950658,-1.1194267,0.3517932,0.015140916,0.08201667,0.1143406
445,2.8000736,0.76592416,0.33858585,3.2742,-9.243864,-0.031648356,0.06391398,-1.1529816,0.12343387,0.015140916,0.08201667,0.1143406
446,2.8000736,0.76592416,0.33858585,3.2742,-9.243864,-0.031648356,0.06391398,-1.1529816,0.12343387,0.015140916,0.08201667,0.1143406
447,2.8000736,0.76592416,0.33858585,3.2742,-9.243864,-0.031648356,0.06391398,-1.1529816,0.12343387,0.015140916,0.08201667,0.1143406
448,2.8000736,0.76592416,0.33858585,3.2742,-9.243864,-0.031648356,0.06391398,-1.1529816,0.12343387,0.015140916,0.08201667,0.1143406
449,2.8000736,0.76592416,0.33858585,3.2742,-9.243864,-0.031648356,0.06391398,-1.1529816,0.12343387,0.015140916,0.08201667,0.1143406
450,2.3671842,0.44855967,0.28867066,2.9720094,-9.32984,-0.54004526,0.06391398,-1.1529816,0.12343387,-0.022571798,-0.090651944,-0.16405468
451,2.3671842,0.44855967,0.28867066,2.9720094,-9.32984,-0.54004526,0.29799893,-0.7224943,0.18508424,-0.022571798,-0.090651944,-0.16405468
452,2.3671842,0.44855967,0.28867066,2.9720094,-9.32984,-0.54004526,0.29799893,-0.7224943,0.18508424,-0.022571798,-0.090651944,-0.16405468
453,2.3671842,0.44855967,0.28867066,2.9720094,-9.32984,-0.54004526,0.29799893,-0.7224943,0.18508424,-0.022571798,-0.090651944,-0.16405468
454,2.3671842,0.44855967,0.28867066,2.9720094,-9.32984,-0.54004526,0.29799893,-0.7224943,0.18508424,-0.022571798,-0.090651944,-0.16405468
455,2.3671842,0.44855967,0.28867066,2.9720094,-9.32984,-0.54004526,0.29799893,-0.7224943,0.18508424,-0.022571798,-0.090651944,-0.16405468
456,1.8092868,0.31304872,0.26864478,2.6397321,-9.439145,-0.32361305,0.29799893,-0.7224943,0.18508424,-0.19228822,0.006860525,-0.116848834
457,1.8092868,0.31304872,0.26864478,2.6397321,-9.439145,-0.32361305,1.4640297,0.8459282,-0.22010377,-0.19228822,0.006860525,-0.116848834
458,1.8092868,0.31304872,0.26864478,2.6397321,-9.439145,-0.32361305,1.4640297,0.8459282,-0.22010377,-0.19228822,0.006860525,-0.116848834
459,1.8092868,0.31304872,0.26864478,2.6397321,-9.439145,-0.32361305,1.4640297,0.8459282,-0.22010377,-0.19228822,0.006860525,-0.116848834
460,1.8092868,0.31304872,0.26864478,2.6397321,-9.439145,-0.32361305,1.4640297,0.8459282,-0.22010377,-0.19228822,0.006860525,-0.116848834
461,1.8092868,0.31304872,0.26864478,2.6397321,-9.439145,-0.32361305,1.4640297,0.8459282,-0.22010377,-0.19228822,0.006860525,-0.116848834
462,1.681499,0.32934916,0.2934166,2.7877245,-9.007768,2.6942697,1.4640297,0.8459282,-0.22010377,-0.01999926,0.17690736,0.27001292
463,1.681499,0.32934916,0.2934166,2.7877245,-9.007768,2.6942697,-0.012782796,0.42076704,-0.15552402,-0.01999926,0.17690736,0.27001292
464,1.681499,0.32934916,0.2934166,2.7877245,-9.007768,2.6942697,-0.012782796,0.42076704,-0.15552402,-0.01999926,0.17690736,0.27001292
465,1.681499,0.32934916,0.2934166,2.7877245,-9.007768,2.6942697,-0.012782796,0.42076704,-0.15552402,-0.01999926,0.17690736,0.27001292
466,1.681499,0.32934916,0.2934166,2.7877245,-9.007768,2.6942697,-0.012782796,0.42076704,-0.15552402,-0.01999926,0.17690736,0.27001292
467,1.681499,0.32934916,0.2934166,2.7877245,-9.007768,2.6942697,-0.012782796,0.42076704,-0.15552402,-0.01999926,0.17690736,0.27001292
468,1.8324373,0.3437768,0.31899235,2.8033357,-8.9561205,2.8459785,-0.012782796,0.42076704,-0.15552402,0.07525739,-0.15279917,0.18415904
469,1.8324373,0.3437768,0.31899235,2.8033357,-8.9561205,2.8459785,-0.44593316,0.18335323,0.20425843,0.07525739,-0.15279917,0.18415904
470,1.8324373,0.3437768,0.31899235,2.8033357,-8.9561205,2.8459785,-0.44593316,0.18335323,0.20425843,0.07525739,-0.15279917,0.18415904
471,1.8324373,0.3437768,0.31899235,2.8033357,-8.9561205,2.8459785,-0.44593316,0.18335323,0.20425843,0.07525739,-0.15279917,0.18415904
472,1.8324373,0.3437768,0.31899235,2.8033357,-8.9561205,2.8459785,-0.44593316,0.18335323,0.20425843,0.07525739,-0.15279917,0.18415904
473,1.8324373,0.3437768,0.31899235,2.8033357,-8.9561205,2.8459785,-0.44593316,0.18335323,0.20425843,0.07525739,-0.15279917,0.18415904
474,2.0094674,0.2913097,0.28483802,2.3598957,-9.247585,2.2546499,-0.44593316,0.18335323,0.20425843,-0.09196903,0.10656654,-0.27988932
475,2.0094674,0.2913097,0.28483802,2.3598957,-9.247585,2.2546499,-0.847526,-0.38641328,-0.08788172,-0.09196903,0.10656654,-0.27988932
476,2.0094674,0.2913097,0.28483802,2.3598957,-9.247585,2.2546499,-0.847526,-0.38641328,-0.08788172,-0.09196903,0.10656654,-0.27988932
477,2.0094674,0.2913097,0.28483802,2.3598957,-9.247585,2.2546499,-0.847526,-0.38641328,-0.08788172,-0.09196903,0.10656654,-0.27988932
478,2.0094674,0.2913097,0.28483802,2.3598957,-9.247585,2.2546499,-0.847526,-0.38641328,-0.08788172,-0.09196903,0.10656654,-0.27988932
479,2.0094674,0.2913097,0.28483802,2.3598957,-9.247585,2.2546499,-0.847526,-0.38641328,-0.08788172,-0.09196903,0.10656654,-0.27988932
480,2.0250416,0.3377534,0.28305185,2.663225,-9.430316,0.38308638,-0.847526,-0.38641328,-0.08788172,-0.07346033,-0.062294178,0.20577547
481,2.0250416,0.3377534,0.28305185,2.663225,-9.430316,0.38308638,-0.33501577,-0.6456644,0.32556185,-0.07346033,-0.062294178,0.20577547
482,2.0250416,0.3377534,0.28305185,2.663225,-9.430316,0.38308638,-0.33501577,-0.6456644,0.32556185,-0.07346033,-0.062294178,0.20577547
483,2.0250416,0.3377534,0.28305185,2.663225,-9.430316,0.38308638,-0.33501577,-0.6456644,0.32556185,-0.07346033,-0.062294178,0.20577547
484,2.0250416,0.3377534,0.28305185,2.663225,-9.430316,0.38308638,-0.33501577,-0.6456644,0.32556185,-0.07346033,-0.062294178,0.20577547
485,2.0010283,0.24342266,0.2075757,2.1015124,-9.565326,-0.5085062,-0.33501577,-0.6456644,0.32556185,-0.13720648,-0.11865477,-0.09880613
486,2.0010283,0.24342266,0.2075757,2.1015124,-9.565326,-0.5085062,-0.33501577,-0.6456644,0.32556185,-0.13720648,-0.11865477,-0.09880613
487,2.0010283,0.24342266,0.2075757,2.1015124,-9.565326,-0.5085062,0.43408245,1.2959892,-0.032889068,-0.13720648,-0.11865477,-0.09880613
488,2.0010283,0.24342266,0.2075757,2.1015124,-9.565326,-0.5085062,0.43408245,1.2959892,-0.032889068,-0.13720648,-0.11865477,-0.09880613
489,2.0010283,0.24342266,0.2075757,2.1015124,-9.565326,-0.5085062,0.43408245,1.2959892,-0.032889068,-0.13720648,-0.11865477,-0.09880613
490,2.0010283,0.24342266,0.2075757,2.1015124,-9.565326,-0.5085062,0.43408245,1.2959892,-0.032889068,-0.13720648,-0.11865477,-0.09880613
491,2.0010283,0.24342266,0.2075757,2.1015124,-9.565326,-0.5085062,0.43408245,1.2959892,-0.032889068,-0.13720648,-0.11865477,-0.09880613
492,1.7635925,0.25673926,0.23899737,2.2652004,-9.510269,0.7707378,0.43408245,1.2959892,-0.032889068,-0.30683255,0.061763387,0.16059461
493,1.7635925,0.25673926,0.23899737,2.2652004,-9.510269,0.7707378,0.8868065,1.0376701,-0.5387416,-0.30683255,0.061763387,0.16059461
494,1.7635925,0.25673926,0.23899737,2.2652004,-9.510269,0.7707378,0.8868065,1.0376701,-0.5387416,-0.30683255,0.061763387,0.16059461
495,1.7635925,0.25673926,0.23899737,2.2652004,-9.510269,0.7707378,0.8868065,1.0376701,-0.5387416,-0.30683255,0.061763387,0.16059461
496,1.7635925,0.25673926,0.23899737,2.2652004,-9.510269,0.7707378,0.8868065,1.0376701,-0.5387416,-0.30683255,0.061763387,0.16059461
497,1.7635925,0.25673926,0.23899737,2.2652004,-9.510269,0.7707378,0.8868065,1.0376701,-0.5387416,-0.30683255,0.061763387,0.16059461
498,2.260643,0.48120198,0.3993891,2.8688133,-8.944987,2.815584,0.8868065,1.0376701,-0.5387416,0.057713673,0.06421096,0.21836579
499,2.260643,0.48120198,0.3993891,2.8688133,-8.944987,2.815584,-0.6649717,0.09320789,-0.26311255,0.057713673,0.06421096,0.21836579
500,2.260643,0.48120198,0.3993891,2.8688133,-8.944987,2.815584,-0.6649717,0.09320789,-0.26311255,0.057713673,0.06421096,0.21836579
501,2.260643,0.48120198,0.3993891,2.8688133,-8.944987,2.815584,-0.6649717,0.09320789,-0.26311255,0.057713673,0.06421096,0.21836579
502,2.260643,0.48120198,0.3993891,2.8688133,-8.944987,2.815584,-0.6649717,0.09320789,-0.26311255,0.057713673,0.06421096,0.21836579
503,2.260643,0.48120198,0.3993891,2.8688133,-8.944987,2.815584,-0.6649717,0.09320789,-0.26311255,0.057713673,0.06421096,0.21836579
504,2.540228,0.73456967,0.42390853,3.2246692,-9.099991,1.7210667,-0.6649717,0.09320789,-0.26311255,0.1423638,-0.11664321,-0.060216777
505,2.540228,0.73456967,0.42390853,3.2246692,-9.099991,1.7210667,-0.54593194,-0.074433155,0.25578907,0.1423638,-0.11664321,-0.060216777
506,2.540228,0.73456967,0.42390853,3.2246692,-9.099991,1.7210667,-0.54593194,-0.074433155,0.25578907,0.1423638,-0.11664321,-0.060216777
507,2.540228,0.73456967,0.42390853,3.2246692,-9.099991,1.7210667,-0.54593194,-0.074433155,0.25578907,0.1423638,-0.11664321,-0.060216777
508,2.540228,0.73456967,0.42390853,3.2246692,-9.099991,1.7210667,-0.54593194,-0.074433155,0.25578907,0.1423638,-0.11664321,-0.060216777
509,2.540228,0.73456967,0.42390853,3.2246692,-9.099991,1.7210667,-0.54593194,-0.074433155,0.25578907,0.1423638,-0.11664321,-0.060216777
510,2.790234,0.67522085,0.32804915,2.762681,-9.382336,0.7139729,-0.54593194,-0.074433155,0.25578907,-0.016989935,0.09022925,-0.08162391
511,2.790234,0.67522085,0.32804915,2.762681,-9.382336,0.7139729,-0.42982152,-0.7504567,-0.16191542,-0.016989935,0.09022925,-0.08162391
512,2.790234,0.67522085,0.32804915,2.762681,-9.382336,0.7139729,-0.42982152,-0.7504567,-0.16191542,-0.016989935,0.09022925,-0.08162391
513,2.790234,0.67522085,0.32804915,2.762681,-9.382336,0.7139729,-0.42982152,-0.7504567,-0.16191542,-0.016989935,0.09022925,-0.08162391
514,2.790234,0.67522085,0.32804915,2.762681,-9.382336,0.7139729,-0.42982152,-0.7504567,-0.16191542,-0.016989935,0.09022925,-0.08162391
515,2.790234,0.67522085,0.32804915,2.762681,-9.382336,0.7139729,-0.42982152,-0.7504567,-0.16191542,-0.016989935,0.09022925,-0.08162391
516,2.9104683,0.72967803,0.293442,3.1203687,-9.283028,-0.50900465,-0.42982152,-0.7504567,-0.16191542,-0.11205293,-0.015475966,-0.015619815
517,2.9104683,0.72967803,0.293442,3.1203687,-9.283028,-0.50900465,0.14101022,-0.8963936,0.28574875,-0.11205293,-0.015475966,-0.015619815
518,2.9104683,0.72967803,0.293442,3.1203687,-9.283028,-0.50900465,0.14101022,-0.8963936,0.28574875,-0.11205293,-0.015475966,-0.015619815
519,2.9104683,0.72967803,0.293442,3.1203687,-9.283028,-0.50900465,0.14101022,-0.8963936,0.28574875,-0.11205293,-0.015475966,-0.015619815
520,2.9104683,0.72967803,0.293442,3.1203687,-9.283028,-0.50900465,0.14101022,-0.8963936,0.28574875,-0.11205293,-0.015475966,-0.015619815
521,2.9104683,0.72967803,0.293442,3.1203687,-9.283028,-0.50900465,0.14101022,-0.8963936,0.28574875,-0.11205293,-0.015475966,-0.015619815
522,2.6747062,0.41601908,0.23403947,2.5587714,-9.441977,-0.6871261,0.14101022,-0.8963936,0.28574875,-0.20118338,-0.036050055,-0.13276781
523,2.6747062,0.41601908,0.23403947,2.5587714,-9.441977,-0.6871261,1.2439258,0.8927984,-0.2240984,-0.20118338,-0.036050055,-0.13276781
524,2.6747062,0.41601908,0.23403947,2.5587714,-9.441977,-0.6871261,1.2439258,0.8927984,-0.2240984,-0.20118338,-0.036050055,-0.13276781
525,2.6747062,0.41601908,0.23403947,2.5587714,-9.441977,-0.6871261,1.2439258,0.8927984,-0.2240984,-0.20118338,-0.036050055,-0.13276781
526,2.6747062,0.41601908,0.23403947,2.5587714,-9.441977,-0.6871261,1.2439258,0.8927984,-0.2240984,-0.20118338,-0.036050055,-0.13276781
527,2.6747062,0.41601908,0.23403947,2.5587714,-9.441977,-0.6871261,1.2439258,0.8927984,-0.2240984,-0.20118338,-0.036050055,-0.13276781
528,2.1826127,0.41524395,0.35193974,2.8155186,-9.176996,2.0064855,1.2439258,0.8927984,-0.2240984,-0.032473993,0.111380406,0.19500944
529,2.1826127,0.41524395,0.35193974,2.8155186,-9.176996,2.0064855,0.09587097,0.5921364,-0.4659063,-0.032473993,0.111380406,0.19500944
530,2.1826127,0.41524395,0.35193974,2.8155186,-9.176996,2.0064855,0.09587097,0.5921364,-0.4659063,-0.032473993,0.111380406,0.19500944
531,2.1826127,0.41524395,0.35193974,2.8155186,-9.176996,2.0064855,0.09587097,0.5921364,-0.4659063,-0.032473993,0.111380406,0.19500944
532,2.1826127,0.41524395,0.35193974,2.8155186,-9.176996,2.0064855,0.09587097,0.5921364,-0.4659063,-0.032473993,0.111380406,0.19500944
533,2.3040748,0.6427885,0.44923368,3.3650255,-8.878351,2.4539516,0.09587097,0.5921364,-0.4659063,0.027179377,-0.05157803,0.19844203
534,2.3040748,0.6427885,0.44923368,3.3650255,-8.878351,2.4539516,0.09587097,0.5921364,-0.4659063,0.027179377,-0.05157803,0.19844203
535,2.3040748,0.6427885,0.44923368,3.3650255,-8.878351,2.4539516,-0.5660382,0.22423156,-0.08615072,0.027179377,-0.05157803,0.19844203
536,2.3040748,0.6427885,0.44923368,3.3650255,-8.878351,2.4539516,-0.5660382,0.22423156,-0.08615072,0.027179377,-0.05157803,0.19844203
537,2.3040748,0.6427885,0.44923368,3.3650255,-8.878351,2.4539516,-0.5660382,0.22423156,-0.08615072,0.027179377,-0.05157803,0.19844203
538,2.3040748,0.6427885,0.44923368,3.3650255,-8.878351,2.4539516,-0.5660382,0.22423156,-0.08615072,0.027179377,-0.05157803,0.19844203
539,2.559314,0.8281192,0.44757152,3.4180796,-9.0296955,1.718053,-0.5660382,0.22423156,-0.08615072,-0.013015515,-0.02197456,-0.23924844
540,2.559314,0.8281192,0.44757152,3.4180796,-9.0296955,1.718053,-0.5660382,0.22423156,-0.08615072,-0.013015515,-0.02197456,-0.23924844
541,2.559314,0.8281192,0.44757152,3.4180796,-9.0296955,1.718053,-0.5358122,-0.7511224,0.025698747,-0.013015515,-0.02197456,-0.23924844
542,2.559314,0.8281192,0.44757152,3.4180796,-9.0296955,1.718053,-0.5358122,-0.7511224,0.025698747,-0.013015515,-0.02197456,-0.23924844
543,2.559314,0.8281192,0.44757152,3.4180796,-9.0296955,1.718053,-0.5358122,-0.7511224,0.025698747,-0.013015515,-0.02197456,-0.23924844
544,2.559314,0.8281192,0.44757152,3.4180796,-9.0296955,1.718053,-0.5358122,-0.7511224,0.025698747,-0.013015515,-0.02197456,-0.23924844
545,2.842523,0.90705156,0.3693725,3.46445,-9.173324,0.13458315,-0.5358122,-0.7511224,0.025698747,0.04855286,0.0929009,0.18538967
546,2.842523,0.90705156,0.3693725,3.46445,-9.173324,0.13458315,-0.5358122,-0.7511224,0.025698747,0.04855286,0.0929009,0.18538967
547,2.842523,0.90705156,0.3693725,3.46445,-9.173324,0.13458315,0.28894445,-1.5525771,0.24740037,0.04855286,0.0929009,0.18538967
548,2.842523,0.90705156,0.3693725,3.46445,-9.173324,0.13458315,0.28894445,-1.5525771,0.24740037,0.04855286,0.0929009,0.18538967
549,2.842523,0.90705156,0.3693725,3.46445,-9.173324,0.13458315,0.28894445,-1.5525771,0.24740037,0.04855286,0.0929009,0.18538967
550,2.842523,0.90705156,0.3693725,3.46445,-9.173324,0.13458315,0.28894445,-1.5525771,0.24740037,0.04855286,0.0929009,0.18538967
551,2.6371555,0.53738105,0.2943932,2.9554155,-9.347389,-0.24943718,0.28894445,-1.5525771,0.24740037,0.0006522121,-0.085358515,-0.16127616
552,2.6371555,0.53738105,0.2943932,2.9554155,-9.347389,-0.24943718,0.28894445,-1.5525771,0.24740037,0.0006522121,-0.085358515,-0.16127616
553,2.6371555,0.53738105,0.2943932,2.9554155,-9.347389,-0.24943718,0.36963585,-0.9898678,0.015845342,0.0006522121,-0.085358515,-0.16127616
554,2.6371555,0.53738105,0.2943932,2.9554155,-9.347389,-0.24943718,0.36963585,-0.9898678,0.015845342,0.0006522121,-0.085358515,-0.16127616
555,2.6371555,0.53738105,0.2943932,2.9554155,-9.347389,-0.24943718,0.36963585,-0.9898678,0.015845342,0.0006522121,-0.085358515,-0.16127616
556,2.6371555,0.53738105,0.2943932,2.9554155,-9.347389,-0.24943718,0.36963585,-0.9898678,0.015845342,0.0006522121,-0.085358515,-0.16127616
557,1.8048449,0.36722845,0.3061768,2.9739301,-9.343656,-0.14910841,0.36963585,-0.9898678,0.015845342,-0.2085528,0.006789072,0.043495562
558,1.8048449,0.36722845,0.3061768,2.9739301,-9.343656,-0.14910841,0.36963585,-0.9898678,0.015845342,-0.2085528,0.006789072,0.043495562
559,1.8048449,0.36722845,0.3061768,2.9739301,-9.343656,-0.14910841,1.700245,-0.558981,0.15685557,-0.2085528,0.006789072,0.043495562
560,1.8048449,0.36722845,0.3061768,2.9739301,-9.343656,-0.14910841,1.700245,-0.558981,0.15685557,-0.2085528,0.006789072,0.043495562
561,1.8048449,0.36722845,0.3061768,2.9739301,-9.343656,-0.14910841,1.700245,-0.558981,0.15685557,-0.2085528,0.006789072,0.043495562
562,1.8048449,0.36722845,0.3061768,2.9739301,-9.343656,-0.14910841,1.700245,-0.558981,0.15685557,-0.2085528,0.006789072,0.043495562
563,1.5550476,0.3156334,0.26810548,2.712092,-9.073686,2.5462048,1.700245,-0.558981,0.15685557,0.11852691,0.16637805,0.20730929
564,1.5550476,0.3156334,0.26810548,2.712092,-9.073686,2.5462048,1.700245,-0.558981,0.15685557,0.11852691,0.16637805,0.20730929
565,1.5550476,0.3156334,0.26810548,2.712092,-9.073686,2.5462048,0.31823838,-1.6275429,0.0984009,0.11852691,0.16637805,0.20730929
566,1.5550476,0.3156334,0.26810548,2.712092,-9.073686,2.5462048,0.31823838,-1.6275429,0.0984009,0.11852691,0.16637805,0.20730929
567,1.5550476,0.3156334,0.26810548,2.712092,-9.073686,2.5462048,0.31823838,-1.6275429,0.0984009,0.11852691,0.16637805,0.20730929
568,1.5550476,0.3156334,0.26810548,2.712092,-9.073686,2.5462048,0.31823838,-1.6275429,0.0984009,0.11852691,0.16637805,0.20730929
569,1.2581991,0.46263263,0.29012996,3.3357399,-8.987972,2.063879,0.31823838,-1.6275429,0.0984009,0.12932098,-0.06675185,0.16770874
570,1.2581991,0.46263263,0.29012996,3.3357399,-8.987972,2.063879,0.31823838,-1.6275429,0.0984009,0.12932098,-0.06675185,0.16770874
571,1.2581991,0.46263263,0.29012996,3.3357399,-8.987972,2.063879,-0.07283531,-0.9639027,-0.122102335,0.12932098,-0.06675185,0.16770874
572,1.2581991,0.46263263,0.29012996,3.3357399,-8.987972,2.063879,-0.07283531,-0.9639027,-0.122102335,0.12932098,-0.06675185,0.16770874
573,1.2581991,0.46263263,0.29012996,3.3357399,-8.987972,2.063879,-0.07283531,-0.9639027,-0.122102335,0.12932098,-0.06675185,0.16770874
574,1.2581991,0.46263263,0.29012996,3.3357399,-8.987972,2.063879,-0.07283531,-0.9639027,-0.122102335,0.12932098,-0.06675185,0.16770874
575,1.0012755,1.1205786,0.31199756,3.8768492,-8.910169,1.3226155,-0.07283531,-0.9639027,-0.122102335,-0.0139468545,0.052022494,-0.15552267
576,1.0012755,1.1205786,0.31199756,3.8768492,-8.910169,1.3226155,-0.07283531,-0.9639027,-0.122102335,-0.0139468545,0.052022494,-0.15552267
577,1.0012755,1.1205786,0.31199756,3.8768492,-8.910169,1.3226155,0.64593065,-1.8369943,0.33754572,-0.0139468545,0.052022494,-0.15552267
578,1.0012755,1.1205786,0.31199756,3.8768492,-8.910169,1.3226155,0.64593065,-1.8369943,0.33754572,-0.0139468545,0.052022494,-0.15552267
579,1.0012755,1.1205786,0.31199756,3.8768492,-8.910169,1.3226155,0.64593065,-1.8369943,0.33754572,-0.0139468545,0.052022494,-0.15552267
580,1.0012755,1.1205786,0.31199756,3.8768492,-8.910169,1.3226155,0.64593065,-1.8369943,0.33754572,-0.0139468545,0.052022494,-0.15552267
581,0.8638001,1.8047719,0.28785473,3.6614616,-9.049493,0.9331417,0.64593065,-1.8369943,0.33754572,0.054209165,0.04955694,0.278604
582,0.8638001,1.8047719,0.28785473,3.6614616,-9.049493,0.9331417,0.64593065,-1.8369943,0.33754572,0.054209165,0.04955694,0.278604
583,0.8638001,1.8047719,0.28785473,3.6614616,-9.049493,0.9331417,0.8624393,-2.3321946,0.32090145,0.054209165,0.04955694,0.278604
584,0.8638001,1.8047719,0.28785473,3.6614616,-9.049493,0.9331417,0.8624393,-2.3321946,0.32090145,0.054209165,0.04955694,0.278604
585,0.8638001,1.8047719,0.28785473,3.6614616,-9.049493,0.9331417,0.8624393,-2.3321946,0.32090145,0.054209165,0.04955694,0.278604
586,0.8638001,1.8047719,0.28785473,3.6614616,-9.049493,0.9331417,0.8624393,-2.3321946,0.32090145,0.054209165,0.04955694,0.278604
587,0.65779084,2.6744828,0.16245309,3.5155833,-9.116868,0.8329423,0.8624393,-2.3321946,0.32090145,-0.06069901,-0.014330001,0.012497222
588,0.65779084,2.6744828,0.16245309,3.5155833,-9.116868,0.8329423,0.8624393,-2.3321946,0.32090145,-0.06069901,-0.014330001,0.012497222
589,0.65779084,2.6744828,0.16245309,3.5155833,-9.116868,0.8329423,1.5915912,-2.747369,0.21491076,-0.06069901,-0.014330001,0.012497222
590,0.65779084,2.6744828,0.16245309,3.5155833,-9.116868,0.8329423,1.5915912,-2.747369,0.21491076,-0.06069901,-0.014330001,0.012497222
591,0.65779084,2.6744828,0.16245309,3.5155833,-9.116868,0.8329423,1.5915912,-2.747369,0.21491076,-0.06069901,-0.014330001,0.012497222
592,0.65779084,2.6744828,0.16245309,3.5155833,-9.116868,0.8329423,1.5915912,-2.747369,0.21491076,-0.06069901,-0.014330001,0.012497222
593,0.6648925,2.7748032,-1.780142,3.7538736,-8.907108,1.6559718,1.5915912,-2.747369,0.21491076,0.09783243,0.04357436,0.1425567
594,0.6648925,2.7748032,-1.780142,3.7538736,-8.907108,1.6559718,1.5915912,-2.747369,0.21491076,0.09783243,0.04357436,0.1425567
595,0.6648925,2.7748032,-1.780142,3.7538736,-8.907108,1.6559718,1.1604382,-1.727009,0.9571119,0.09783243,0.04357436,0.1425567
596,0.6648925,2.7748032,-1.780142,3.7538736,-8.907108,1.6559718,1.1604382,-1.727009,0.9571119,0.09783243,0.04357436,0.1425567
597,0.6648925,2.7748032,-1.780142,3.7538736,-8.907108,1.6559718,1.1604382,-1.727009,0.9571119,0.09783243,0.04357436,0.1425567
598,0.6648925,2.7748032,-1.780142,3.7538736,-8.907108,1.6559718,1.1604382,-1.727009,0.9571119,0.09783243,0.04357436,0.1425567
599,0.8336199,2.4614577,-2.5692644,2.6952522,-9.094234,2.4901597,1.1604382,-1.727009,0.9571119,0.1014009,0.05347702,0.11705111
600,0.8336199,2.4614577,-2.5692644,2.6952522,-9.094234,2.4901597,1.1604382,-1.727009,0.9571119,0.1014009,0.05347702,0.11705111
601,0.8336199,2.4614577,-2.5692644,2.6952522,-9.094234,2.4901597,-0.19933173,-0.9713594,0.19893226,0.1014009,0.05347702,0.11705111
602,0.8336199,2.4614577,-2.5692644,2.6952522,-9.094234,2.4901597,-0.19933173,-0.9713594,0.19893226,0.1014009,0.05347702,0.11705111
603,0.8336199,2.4614577,-2.5692644,2.6952522,-9.094234,2.4901597,-0.19933173,-0.9713594,0.19893226,0.1014009,0.05347702,0.11705111
604,0.8336199,2.4614577,-2.5692644,2.6952522,-9.094234,2.4901597,-0.19933173,-0.9713594,0.19893226,0.1014009,0.05347702,0.11705111
605,1.0752033,0.55777216,-2.7705624,2.7713747,-9.244695,1.7393913,-0.19933173,-0.9713594,0.19893226,0.027743392,-0.108232506,-0.24675165
606,1.0752033,0.55777216,-2.7705624,2.7713747,-9.244695,1.7393913,-0.19933173,-0.9713594,0.19893226,0.027743392,-0.108232506,-0.24675165
607,1.0752033,0.55777216,-2.7705624,2.7713747,-9.244695,1.7393913,-0.26431096,-0.9959929,0.08029194,0.027743392,-0.108232506,-0.24675165
608,1.0752033,0.55777216,-2.7705624,2.7713747,-9.244695,1.7393913,-0.26431096,-0.9959929,0.08029194,0.027743392,-0.108232506,-0.24675165
609,1.0752033,0.55777216,-2.7705624,2.7713747,-9.244695,1.7393913,-0.26431096,-0.9959929,0.08029194,0.027743392,-0.108232506,-0.24675165
610,1.0752033,0.55777216,-2.7705624,2.7713747,-9.244695,1.7393913,-0.26431096,-0.9959929,0.08029194,0.027743392,-0.108232506,-0.24675165
611,1.226879,0.3923194,-2.8274992,2.8584306,-9.355179,0.6930989,-0.26431096,-0.9959929,0.08029194,-0.0023789848,0.062047835,-0.00512301
612,1.226879,0.3923194,-2.8274992,2.8584306,-9.355179,0.6930989,-0.26431096,-0.9959929,0.08029194,-0.0023789848,0.062047835,-0.00512301
613,1.226879,0.3923194,-2.8274992,2.8584306,-9.355179,0.6930989,-0.5886744,0.09427312,-0.18175538,-0.0023789848,0.062047835,-0.00512301
614,1.226879,0.3923194,-2.8274992,2.8584306,-9.355179,0.6930989,-0.5886744,0.09427312,-0.18175538,-0.0023789848,0.062047835,-0.00512301
615,1.226879,0.3923194,-2.8274992,2.8584306,-9.355179,0.6930989,-0.5886744,0.09427312,-0.18175538,-0.0023789848,0.062047835,-0.00512301
616,1.226879,0.3923194,-2.8274992,2.8584306,-9.355179,0.6930989,-0.5886744,0.09427312,-0.18175538,-0.0023789848,0.062047835,-0.00512301
617,1.4938209,0.40154228,-2.8072207,3.2361562,-9.251755,-0.32048565,-0.5886744,0.09427312,-0.18175538,-0.043513454,-0.038113043,-0.031590234
618,1.4938209,0.40154228,-2.8072207,3.2361562,-9.251755,-0.32048565,-0.5886744,0.09427312,-0.18175538,-0.043513454,-0.038113043,-0.031590234
619,1.4938209,0.40154228,-2.8072207,3.2361562,-9.251755,-0.32048565,-0.009587097,-0.79759324,0.3047898,-0.043513454,-0.038113043,-0.031590234
620,1.4938209,0.40154228,-2.8072207,3.2361562,-9.251755,-0.32048565,-0.009587097,-0.79759324,0.3047898,-0.043513454,-0.038113043,-0.031590234
621,1.4938209,0.40154228,-2.8072207,3.2361562,-9.251755,-0.32048565,-0.009587097,-0.79759324,0.3047898,-0.043513454,-0.038113043,-0.031590234
622,1.4938209,0.40154228,-2.8072207,3.2361562,-9.251755,-0.32048565,-0.009587097,-0.79759324,0.3047898,-0.043513454,-0.038113043,-0.031590234
623,1.398629,0.3074094,-2.8797188,2.6149786,-9.423821,-0.7237873,-0.009587097,-0.79759324,0.3047898,-0.10587136,0.01578258,-0.15105799
624,1.398629,0.3074094,-2.8797188,2.6149786,-9.423821,-0.7237873,-0.009587097,-0.79759324,0.3047898,-0.10587136,0.01578258,-0.15105799
625,1.398629,0.3074094,-2.8797188,2.6149786,-9.423821,-0.7237873,0.92036134,1.3232857,-0.2890776,-0.10587136,0.01578258,-0.15105799
626,1.398629,0.3074094,-2.8797188,2.6149786,-9.423821,-0.7237873,0.92036134,1.3232857,-0.2890776,-0.10587136,0.01578258,-0.15105799
627,1.398629,0.3074094,-2.8797188,2.6149786,-9.423821,-0.7237873,0.92036134,1.3232857,-0.2890776,-0.10587136,0.01578258,-0.15105799
628,1.398629,0.3074094,-2.8797188,2.6149786,-9.423821,-0.7237873,0.92036134,1.3232857,-0.2890776,-0.10587136,0.01578258,-0.15105799
629,1.5266676,0.36334938,-2.82863,3.017467,-9.190694,1.6113422,0.92036134,1.3232857,-0.2890776,-0.06462774,0.105400935,0.23201334
630,1.5266676,0.36334938,-2.82863,3.017467,-9.190694,1.6113422,0.92036134,1.3232857,-0.2890776,-0.06462774,0.105400935,0.23201334
631,1.5266676,0.36334938,-2.82863,3.017467,-9.190694,1.6113422,0.39666614,1.3878654,-0.58907384,-0.06462774,0.105400935,0.23201334
632,1.5266676,0.36334938,-2.82863,3.017467,-9.190694,1.6113422,0.39666614,1.3878654,-0.58907384,-0.06462774,0.105400935,0.23201334
633,1.5266676,0.36334938,-2.82863,3.017467,-9.190694,1.6113422,0.39666614,1.3878654,-0.58907384,-0.06462774,0.105400935,0.23201334
634,1.5266676,0.36334938,-2.82863,3.017467,-9.190694,1.6113422,0.39666614,1.3878654,-0.58907384,-0.06462774,0.105400935,0.23201334
635,1.2903653,0.50629544,-2.7178962,3.387142,-8.672338,3.0802944,0.39666614,1.3878654,-0.58907384,-0.0037997747,0.021793645,0.26184848
636,1.2903653,0.50629544,-2.7178962,3.387142,-8.672338,3.0802944,0.39666614,1.3878654,-0.58907384,-0.0037997747,0.021793645,0.26184848
637,1.2903653,0.50629544,-2.7178962,3.387142,-8.672338,3.0802944,-0.47030038,-0.018774733,-0.14380646,-0.0037997747,0.021793645,0.26184848
638,1.2903653,0.50629544,-2.7178962,3.387142,-8.672338,3.0802944,-0.47030038,-0.018774733,-0.14380646,-0.0037997747,0.021793645,0.26184848
639,1.2903653,0.50629544,-2.7178962,3.387142,-8.672338,3.0802944,-0.47030038,-0.018774733,-0.14380646,-0.0037997747,0.021793645,0.26184848
640,1.2903653,0.50629544,-2.7178962,3.387142,-8.672338,3.0802944,-0.47030038,-0.018774733,-0.14380646,-0.0037997747,0.021793645,0.26184848
641,1.1554381,0.82850593,-2.659138,3.5432417,-8.852707,2.2902882,-0.47030038,-0.018774733,-0.14380646,0.20286135,-0.050408635,-0.062697135
642,1.1554381,0.82850593,-2.659138,3.5432417,-8.852707,2.2902882,-0.47030038,-0.018774733,-0.14380646,0.20286135,-0.050408635,-0.062697135
643,1.1554381,0.82850593,-2.659138,3.5432417,-8.852707,2.2902882,-0.7793511,-0.37536147,0.039147314,0.20286135,-0.050408635,-0.062697135
644,1.1554381,0.82850593,-2.659138,3.5432417,-8.852707,2.2902882,-0.7793511,-0.37536147,0.039147314,0.20286135,-0.050408635,-0.062697135
645,1.1554381,0.82850593,-2.659138,3.5432417,-8.852707,2.2902882,-0.7793511,-0.37536147,0.039147314,0.20286135,-0.050408635,-0.062697135
646,1.1554381,0.82850593,-2.659138,3.5432417,-8.852707,2.2902882,-0.7793511,-0.37536147,0.039147314,0.20286135,-0.050408635,-0.062697135
647,1.1225475,0.7871202,-2.7388294,3.5770974,-9.11304,0.57206863,-0.7793511,-0.37536147,0.039147314,-0.042224463,0.11447523,0.107367806
648,1.1225475,0.7871202,-2.7388294,3.5770974,-9.11304,0.57206863,-0.7793511,-0.37536147,0.039147314,-0.042224463,0.11447523,0.107367806
649,1.1225475,0.7871202,-2.7388294,3.5770974,-9.11304,0.57206863,-0.13568406,-1.0481893,0.21917169,-0.042224463,0.11447523,0.107367806
650,1.1225475,0.7871202,-2.7388294,3.5770974,-9.11304,0.57206863,-0.13568406,-1.0481893,0.21917169,-0.042224463,0.11447523,0.107367806
651,1.1225475,0.7871202,-2.7388294,3.5770974,-9.11304,0.57206863,-0.13568406,-1.0481893,0.21917169,-0.042224463,0.11447523,0.107367806
652,1.1225475,0.7871202,-2.7388294,3.5770974,-9.11304,0.57206863,-0.13568406,-1.0481893,0.21917169,-0.042224463,0.11447523,0.107367806
653,1.0809417,0.5982163,-2.8256361,3.1903796,-9.267535,-0.32351092,-0.13568406,-1.0481893,0.21917169,-0.004409504,-0.102959685,-0.11959367
654,1.0809417,0.5982163,-2.8256361,3.1903796,-9.267535,-0.32351092,-0.13568406,-1.0481893,0.21917169,-0.004409504,-0.102959685,-0.11959367
655,1.0809417,0.5982163,-2.8256361,3.1903796,-9.267535,-0.32351092,0.16338012,0.19360611,-0.004926703,-0.004409504,-0.102959685,-0.11959367
656,1.0809417,0.5982163,-2.8256361,3.1903796,-9.267535,-0.32351092,0.16338012,0.19360611,-0.004926703,-0.004409504,-0.102959685,-0.11959367
657,1.0809417,0.5982163,-2.8256361,3.1903796,-9.267535,-0.32351092,0.16338012,0.19360611,-0.004926703,-0.004409504,-0.102959685,-0.11959367
658,1.0809417,0.5982163,-2.8256361,3.1903796,-9.267535,-0.32351092,0.16338012,0.19360611,-0.004926703,-0.004409504,-0.102959685,-0.11959367
659,1.2666,0.47128007,-2.7958136,3.2994566,-9.234395,0.099627934,0.16338012,0.19360611,-0.004926703,-0.25443345,0.08655377,-0.0015499364
660,1.2666,0.47128007,-2.7958136,3.2994566,-9.234395,0.099627934,0.16338012,0.19360611,-0.004926703,-0.25443345,0.08655377,-0.0015499364
661,1.2666,0.47128007,-2.7958136,3.2994566,-9.234395,0.099627934,1.3749496,0.8539174,-0.15805395,-0.25443345,0.08655377,-0.0015499364
662,1.2666,0.47128007,-2.7958136,3.2994566,-9.234395,0.099627934,1.3749496,0.8539174,-0.15805395,-0.25443345,0.08655377,-0.0015499364
663,1.2666,0.47128007,-2.7958136,3.2994566,-9.234395,0.099627934,1.3749496,0.8539174,-0.15805395,-0.25443345,0.08655377,-0.0015499364
664,1.2666,0.47128007,-2.7958136,3.2994566,-9.234395,0.099627934,1.3749496,0.8539174,-0.15805395,-0.25443345,0.08655377,-0.0015499364
665,1.2044616,0.5691796,-2.6986625,3.2203124,-8.760519,3.0088677,1.3749496,0.8539174,-0.15805395,0.18458912,0.14372562,0.25525683
666,1.2044616,0.5691796,-2.6986625,3.2203124,-8.760519,3.0088677,1.3749496,0.8539174,-0.15805395,0.18458912,0.14372562,0.25525683
667,1.2044616,0.5691796,-2.6986625,3.2203124,-8.760519,3.0088677,-0.44087332,-0.31703997,-0.3059882,0.18458912,0.14372562,0.25525683
668,1.2044616,0.5691796,-2.6986625,3.2203124,-8.760519,3.0088677,-0.44087332,-0.31703997,-0.3059882,0.18458912,0.14372562,0.25525683
669,1.2044616,0.5691796,-2.6986625,3.2203124,-8.760519,3.0088677,-0.44087332,-0.31703997,-0.3059882,0.18458912,0.14372562,0.25525683
670,1.2044616,0.5691796,-2.6986625,3.2203124,-8.760519,3.0088677,-0.44087332,-0.31703997,-0.3059882,0.18458912,0.14372562,0.25525683
671,1.2236212,0.7632478,-2.6584806,3.8546636,-8.7913065,2.0062127,-0.44087332,-0.31703997,-0.3059882,0.20452167,-0.16350119,0.060703896
672,1.2236212,0.7632478,-2.6584806,3.8546636,-8.7913065,2.0062127,-0.44087332,-0.31703997,-0.3059882,0.20452167,-0.16350119,0.060703896
673,1.2236212,0.7632478,-2.6584806,3.8546636,-8.7913065,2.0062127,-0.21118245,-0.17323352,0.47669178,0.20452167,-0.16350119,0.060703896
674,1.2236212,0.7632478,-2.6584806,3.8546636,-8.7913065,2.0062127,-0.21118245,-0.17323352,0.47669178,0.20452167,-0.16350119,0.060703896
675,1.2236212,0.7632478,-2.6584806,3.8546636,-8.7913065,2.0062127,-0.21118245,-0.17323352,0.47669178,0.20452167,-0.16350119,0.060703896
676,1.2236212,0.7632478,-2.6584806,3.8546636,-8.7913065,2.0062127,-0.21118245,-0.17323352,0.47669178,0.20452167,-0.16350119,0.060703896
677,1.1534116,0.5170885,-2.7675574,3.011562,-9.198876,1.5752934,-0.21118245,-0.17323352,0.47669178,0.041522358,0.17932625,-0.16548139
678,1.1534116,0.5170885,-2.7675574,3.011562,-9.198876,1.5752934,-0.21118245,-0.17323352,0.47669178,0.041522358,0.17932625,-0.16548139
679,1.1534116,0.5170885,-2.7675574,3.011562,-9.198876,1.5752934,-0.3726984,-1.1312774,-0.20013066,0.041522358,0.17932625,-0.16548139
680,1.1534116,0.5170885,-2.7675574,3.011562,-9.198876,1.5752934,-0.3726984,-1.1312774,-0.20013066,0.041522358,0.17932625,-0.16548139
681,1.1534116,0.5170885,-2.7675574,3.011562,-9.198876,1.5752934,-0.3726984,-1.1312774,-0.20013066,0.041522358,0.17932625,-0.16548139
682,1.1534116,0.5170885,-2.7675574,3.011562,-9.198876,1.5752934,-0.3726984,-1.1312774,-0.20013066,0.041522358,0.17932625,-0.16548139
683,1.2455261,0.5714878,-2.7611115,3.602714,-9.119918,0.13389914,-0.3726984,-1.1312774,-0.20013066,-0.053776488,-0.055639263,0.061860923
684,1.2455261,0.5714878,-2.7611115,3.602714,-9.119918,0.13389914,-0.3726984,-1.1312774,-0.20013066,-0.053776488,-0.055639263,0.061860923
685,1.2455261,0.5714878,-2.7611115,3.602714,-9.119918,0.13389914,0.029826526,-1.0062457,0.31371114,-0.053776488,-0.055639263,0.061860923
686,1.2455261,0.5714878,-2.7611115,3.602714,-9.119918,0.13389914,0.029826526,-1.0062457,0.31371114,-0.053776488,-0.055639263,0.061860923
687,1.2455261,0.5714878,-2.7611115,3.602714,-9.119918,0.13389914,0.029826526,-1.0062457,0.31371114,-0.053776488,-0.055639263,0.061860923
688,1.2455261,0.5714878,-2.7611115,3.602714,-9.119918,0.13389914,0.029826526,-1.0062457,0.31371114,-0.053776488,-0.055639263,0.061860923
689,1.4135416,0.37932858,-2.8289175,3.0649736,-9.304876,-0.44227257,0.029826526,-1.0062457,0.31371114,-0.1730273,-0.054055348,-0.08955399
690,1.4135416,0.37932858,-2.8289175,3.0649736,-9.304876,-0.44227257,0.029826526,-1.0062457,0.31371114,-0.1730273,-0.054055348,-0.08955399
691,1.4135416,0.37932858,-2.8289175,3.0649736,-9.304876,-0.44227257,1.2476542,0.6888063,-0.27509642,-0.1730273,-0.054055348,-0.08955399
692,1.4135416,0.37932858,-2.8289175,3.0649736,-9.304876,-0.44227257,1.2476542,0.6888063,-0.27509642,-0.1730273,-0.054055348,-0.08955399
693,1.4135416,0.37932858,-2.8289175,3.0649736,-9.304876,-0.44227257,1.2476542,0.6888063,-0.27509642,-0.1730273,-0.054055348,-0.08955399
694,1.4135416,0.37932858,-2.8289175,3.0649736,-9.304876,-0.44227257,1.2476542,0.6888063,-0.27509642,-0.1730273,-0.054055348,-0.08955399
695,1.5516329,0.42094913,-2.7981348,3.3590083,-8.955449,2.1650367,1.2476542,0.6888063,-0.27509642,0.048125017,0.1767768,0.21414135
696,1.5516329,0.42094913,-2.7981348,3.3590083,-8.955449,2.1650367,1.2476542,0.6888063,-0.27509642,0.048125017,0.1767768,0.21414135
697,1.5516329,0.42094913,-2.7981348,3.3590083,-8.955449,2.1650367,0.25419122,0.40252492,-0.20013066,0.048125017,0.1767768,0.21414135
698,1.5516329,0.42094913,-2.7981348,3.3590083,-8.955449,2.1650367,0.25419122,0.40252492,-0.20013066,0.048125017,0.1767768,0.21414135
699,1.5516329,0.42094913,-2.7981348,3.3590083,-8.955449,2.1650367,0.25419122,0.40252492,-0.20013066,0.048125017,0.1767768,0.21414135
700,1.5516329,0.42094913,-2.7981348,3.3590083,-8.955449,2.1650367,0.25419122,0.40252492,-0.20013066,0.048125017,0.1767768,0.21414135
701,1.459089,0.44724894,-2.7710211,3.465498,-8.737029,2.7973273,0.25419122,0.40252492,-0.20013066,0.097707115,-0.0038148914,0.20731483
702,1.459089,0.44724894,-2.7710211,3.465498,-8.737029,2.7973273,0.25419122,0.40252492,-0.20013066,0.097707115,-0.0038148914,0.20731483
703,1.459089,0.44724894,-2.7710211,3.465498,-8.737029,2.7973273,-0.36177978,-0.26657456,-0.11704248,0.097707115,-0.0038148914,0.20731483
704,1.459089,0.44724894,-2.7710211,3.465498,-8.737029,2.7973273,-0.36177978,-0.26657456,-0.11704248,0.097707115,-0.0038148914,0.20731483
705,1.459089,0.44724894,-2.7710211,3.465498,-8.737029,2.7973273,-0.36177978,-0.26657456,-0.11704248,0.097707115,-0.0038148914,0.20731483
706,1.459089,0.44724894,-2.7710211,3.465498,-8.737029,2.7973273,-0.36177978,-0.26657456,-0.11704248,0.097707115,-0.0038148914,0.20731483
707,1.4329996,0.51247567,-2.7318168,3.756554,-8.814523,2.0887508,-0.36177978,-0.26657456,-0.11704248,0.06720966,-0.009359229,-0.2367618
708,1.4329996,0.51247567,-2.7318168,3.756554,-8.814523,2.0887508,-0.36177978,-0.26657456,-0.11704248,0.06720966,-0.009359229,-0.2367618
709,1.4329996,0.51247567,-2.7318168,3.756554,-8.814523,2.0887508,-0.49280342,-1.0519176,0.23168819,0.06720966,-0.009359229,-0.2367618
710,1.4329996,0.51247567,-2.7318168,3.756554,-8.814523,2.0887508,-0.49280342,-1.0519176,0.23168819,0.06720966,-0.009359229,-0.2367618
711,1.4329996,0.51247567,-2.7318168,3.756554,-8.814523,2.0887508,-0.49280342,-1.0519176,0.23168819,0.06720966,-0.009359229,-0.2367618
712,1.4329996,0.51247567,-2.7318168,3.756554,-8.814523,2.0887508,-0.49280342,-1.0519176,0.23168819,0.06720966,-0.009359229,-0.2367618
713,1.5178423,0.46438017,-2.7661328,3.5852656,-9.121127,0.34827843,-0.49280342,-1.0519176,0.23168819,0.0015711566,0.08062893,0.16188318
714,1.5178423,0.46438017,-2.7661328,3.5852656,-9.121127,0.34827843,-0.49280342,-1.0519176,0.23168819,0.0015711566,0.08062893,0.16188318
715,1.5178423,0.46438017,-2.7661328,3.5852656,-9.121127,0.34827843,0.06857438,-1.2282137,0.26977026,0.0015711566,0.08062893,0.16188318
716,1.5178423,0.46438017,-2.7661328,3.5852656,-9.121127,0.34827843,0.06857438,-1.2282137,0.26977026,0.0015711566,0.08062893,0.16188318
717,1.5178423,0.46438017,-2.7661328,3.5852656,-9.121127,0.34827843,0.06857438,-1.2282137,0.26977026,0.0015711566,0.08062893,0.16188318
718,1.5178423,0.46438017,-2.7661328,3.5852656,-9.121127,0.34827843,0.06857438,-1.2282137,0.26977026,0.0015711566,0.08062893,0.16188318
719,1.8319968,0.38962048,-2.8179557,3.0828846,-9.305536,-0.27052465,0.06857438,-1.2282137,0.26977026,0.011634972,-0.12370876,-0.14245173
720,1.8319968,0.38962048,-2.8179557,3.0828846,-9.305536,-0.27052465,0.06857438,-1.2282137,0.26977026,0.011634972,-0.12370876,-0.14245173
721,1.8319968,0.38962048,-2.8179557,3.0828846,-9.305536,-0.27052465,0.2772269,0.25472385,-0.016511112,0.011634972,-0.12370876,-0.14245173
722,1.8319968,0.38962048,-2.8179557,3.0828846,-9.305536,-0.27052465,0.2772269,0.25472385,-0.016511112,0.011634972,-0.12370876,-0.14245173
723,1.8319968,0.38962048,-2.8179557,3.0828846,-9.305536,-0.27052465,0.2772269,0.25472385,-0.016511112,0.011634972,-0.12370876,-0.14245173
724,1.8319968,0.38962048,-2.8179557,3.0828846,-9.305536,-0.27052465,0.2772269,0.25472385,-0.016511112,0.011634972,-0.12370876,-0.14245173
725,2.4070716,0.519876,-2.8244271,3.1916945,-9.265438,0.36759564,0.2772269,0.25472385,-0.016511112,-0.23411292,0.0860325,0.05423403
726,2.4070716,0.519876,-2.8244271,3.1916945,-9.265438,0.36759564,0.2772269,0.25472385,-0.016511112,-0.23411292,0.0860325,0.05423403
727,2.4070716,0.519876,-2.8244271,3.1916945,-9.265438,0.36759564,1.3457887,0.47682494,-0.20026381,-0.23411292,0.0860325,0.05423403
728,2.4070716,0.519876,-2.8244271,3.1916945,-9.265438,0.36759564,1.3457887,0.47682494,-0.20026381,-0.23411292,0.0860325,0.05423403
729,2.4070716,0.519876,-2.8244271,3.1916945,-9.265438,0.36759564,1.3457887,0.47682494,-0.20026381,-0.23411292,0.0860325,0.05423403
730,2.4070716,0.519876,-2.8244271,3.1916945,-9.265438,0.36759564,1.3457887,0.47682494,-0.20026381,-0.23411292,0.0860325,0.05423403
731,2.2502625,0.4616693,-2.8927207,3.293538,-8.743781,2.9781332,1.3457887,0.47682494,-0.20026381,0.20039457,0.14780055,0.23695816
732,2.2502625,0.4616693,-2.8927207,3.293538,-8.743781,2.9781332,1.3457887,0.47682494,-0.20026381,0.20039457,0.14780055,0.23695816
733,2.2502625,0.4616693,-2.8927207,3.293538,-8.743781,2.9781332,-0.32822493,-0.7451305,-0.23821273,0.20039457,0.14780055,0.23695816
734,2.2502625,0.4616693,-2.8927207,3.293538,-8.743781,2.9781332,-0.32822493,-0.7451305,-0.23821273,0.20039457,0.14780055,0.23695816
735,2.2502625,0.4616693,-2.8927207,3.293538,-8.743781,2.9781332,-0.32822493,-0.7451305,-0.23821273,0.20039457,0.14780055,0.23695816
736,2.2502625,0.4616693,-2.8927207,3.293538,-8.743781,2.9781332,-0.32822493,-0.7451305,-0.23821273,0.20039457,0.14780055,0.23695816
737,2.1643667,0.6523486,-2.7832482,4.0276833,-8.740929,1.8826375,-0.32822493,-0.7451305,-0.23821273,0.20986332,-0.14916827,-0.009946064
738,2.1643667,0.6523486,-2.7832482,4.0276833,-8.740929,1.8826375,-0.32822493,-0.7451305,-0.23821273,0.20986332,-0.14916827,-0.009946064
739,2.1643667,0.6523486,-2.7832482,4.0276833,-8.740929,1.8826375,-0.24407151,-0.29866472,0.45591974,0.20986332,-0.14916827,-0.009946064
740,2.1643667,0.6523486,-2.7832482,4.0276833,-8.740929,1.8826375,-0.24407151,-0.29866472,0.45591974,0.20986332,-0.14916827,-0.009946064
741,2.1643667,0.6523486,-2.7832482,4.0276833,-8.740929,1.8826375,-0.24407151,-0.29866472,0.45591974,0.20986332,-0.14916827,-0.009946064
742,2.618465,0.5579473,-2.8624635,3.2450607,-9.161584,1.3058878,-0.24407151,-0.29866472,0.45591974,0.07845774,0.16251776,-0.18862028
743,2.618465,0.5579473,-2.8624635,3.2450607,-9.161584,1.3058878,-0.24407151,-0.29866472,0.45591974,0.07845774,0.16251776,-0.18862028
744,2.618465,0.5579473,-2.8624635,3.2450607,-9.161584,1.3058878,-0.1918751,-1.6963836,-0.1387466,0.07845774,0.16251776,-0.18862028
745,2.618465,0.5579473,-2.8624635,3.2450607,-9.161584,1.3058878,-0.1918751,-1.6963836,-0.1387466,0.07845774,0.16251776,-0.18862028
746,2.618465,0.5579473,-2.8624635,3.2450607,-9.161584,1.3058878,-0.1918751,-1.6963836,-0.1387466,0.07845774,0.16251776,-0.18862028
747,2.618465,0.5579473,-2.8624635,3.2450607,-9.161584,1.3058878,-0.1918751,-1.6963836,-0.1387466,0.07845774,0.16251776,-0.18862028
748,2.699205,0.8884697,-2.7404304,3.710348,-9.074616,-0.23463786,-0.1918751,-1.6963836,-0.1387466,-0.056000635,-0.056444976,0.068119556
749,2.699205,0.8884697,-2.7404304,3.710348,-9.074616,-0.23463786,-0.1918751,-1.6963836,-0.1387466,-0.056000635,-0.056444976,0.068119556
750,2.699205,0.8884697,-2.7404304,3.710348,-9.074616,-0.23463786,0.25818586,-1.30278,0.24420467,-0.056000635,-0.056444976,0.068119556
751,2.699205,0.8884697,-2.7404304,3.710348,-9.074616,-0.23463786,0.25818586,-1.30278,0.24420467,-0.056000635,-0.056444976,0.068119556
752,2.699205,0.8884697,-2.7404304,3.710348,-9.074616,-0.23463786,0.25818586,-1.30278,0.24420467,-0.056000635,-0.056444976,0.068119556
753,2.699205,0.8884697,-2.7404304,3.710348,-9.074616,-0.23463786,0.25818586,-1.30278,0.24420467,-0.056000635,-0.056444976,0.068119556
754,-3.0050821,2.0154727,-2.7451255,3.198802,-9.249746,-0.6166348,0.25818586,-1.30278,0.24420467,-0.15330188,-0.031951103,-0.10357294
755,-3.0050821,2.0154727,-2.7451255,3.198802,-9.249746,-0.6166348,0.25818586,-1.30278,0.24420467,-0.15330188,-0.031951103,-0.10357294
756,-3.0050821,2.0154727,-2.7451255,3.198802,-9.249746,-0.6166348,1.4381977,0.4900072,-0.1576545,-0.15330188,-0.031951103,-0.10357294
757,-3.0050821,2.0154727,-2.7451255,3.198802,-9.249746,-0.6166348,1.4381977,0.4900072,-0.1576545,-0.15330188,-0.031951103,-0.10357294
758,-3.0050821,2.0154727,-2.7451255,3.198802,-9.249746,-0.6166348,1.4381977,0.4900072,-0.1576545,-0.15330188,-0.031951103,-0.10357294
759,-3.0050821,2.0154727,-2.7451255,3.198802,-9.249746,-0.6166348,1.4381977,0.4900072,-0.1576545,-0.15330188,-0.031951103,-0.10357294
760,-2.5334985,2.5063713,3.105519,3.2901914,-8.969529,2.2119193,1.4381977,0.4900072,-0.1576545,0.06926594,0.1794497,0.21078569
761,-2.5334985,2.5063713,3.105519,3.2901914,-8.969529,2.2119193,1.4381977,0.4900072,-0.1576545,0.06926594,0.1794497,0.21078569
762,-2.5334985,2.5063713,3.105519,3.2901914,-8.969529,2.2119193,0.6023893,0.5254262,-0.07882725,0.06926594,0.1794497,0.21078569
763,-2.5334985,2.5063713,3.105519,3.2901914,-8.969529,2.2119193,0.6023893,0.5254262,-0.07882725,0.06926594,0.1794497,0.21078569
764,-2.5334985,2.5063713,3.105519,3.2901914,-8.969529,2.2119193,0.6023893,0.5254262,-0.07882725,0.06926594,0.1794497,0.21078569
765,-2.5334985,2.5063713,3.105519,3.2901914,-8.969529,2.2119193,0.6023893,0.5254262,-0.07882725,0.06926594,0.1794497,0.21078569
766,-2.4552317,2.3983002,2.9303963,3.105953,-8.618994,3.4980571,0.6023893,0.5254262,-0.07882725,0.03397953,0.018348945,0.23379155
767,-2.4552317,2.3983002,2.9303963,3.105953,-8.618994,3.4980571,0.6023893,0.5254262,-0.07882725,0.03397953,0.018348945,0.23379155
768,-2.4552317,2.3983002,2.9303963,3.105953,-8.618994,3.4980571,-0.66350704,-0.09760197,-0.109585844,0.03397953,0.018348945,0.23379155
769,-2.4552317,2.3983002,2.9303963,3.105953,-8.618994,3.4980571,-0.66350704,-0.09760197,-0.109585844,0.03397953,0.018348945,0.23379155
770,-2.4552317,2.3983002,2.9303963,3.105953,-8.618994,3.4980571,-0.66350704,-0.09760197,-0.109585844,0.03397953,0.018348945,0.23379155
771,-2.4552317,2.3983002,2.9303963,3.105953,-8.618994,3.4980571,-0.66350704,-0.09760197,-0.109585844,0.03397953,0.018348945,0.23379155
772,-2.54407,2.3553712,3.1365948,3.3149383,-8.921362,2.3645024,-0.66350704,-0.09760197,-0.109585844,0.06119541,-0.033740237,-0.17416048
773,-2.54407,2.3553712,3.1365948,3.3149383,-8.921362,2.3645024,-0.66350704,-0.09760197,-0.109585844,0.06119541,-0.033740237,-0.17416048
774,-2.54407,2.3553712,3.1365948,3.3149383,-8.921362,2.3645024,-0.5569837,-1.1195599,0.3709674,0.06119541,-0.033740237,-0.17416048
775,-2.54407,2.3553712,3.1365948,3.3149383,-8.921362,2.3645024,-0.5569837,-1.1195599,0.3709674,0.06119541,-0.033740237,-0.17416048
776,-2.54407,2.3553712,3.1365948,3.3149383,-8.921362,2.3645024,-0.5569837,-1.1195599,0.3709674,0.06119541,-0.033740237,-0.17416048
777,-2.54407,2.3553712,3.1365948,3.3149383,-8.921362,2.3645024,-0.5569837,-1.1195599,0.3709674,0.06119541,-0.033740237,-0.17416048
778,-2.7444758,2.479261,-2.922603,2.9248362,-9.342866,0.57145834,-0.5569837,-1.1195599,0.3709674,0.042291153,0.0706801,0.14599288
779,-2.7444758,2.479261,-2.922603,2.9248362,-9.342866,0.57145834,-0.5569837,-1.1195599,0.3709674,0.042291153,0.0706801,0.14599288
780,-2.7444758,2.479261,-2.922603,2.9248362,-9.342866,0.57145834,-0.24553621,-0.8876054,0.080691405,0.042291153,0.0706801,0.14599288
781,-2.7444758,2.479261,-2.922603,2.9248362,-9.342866,0.57145834,-0.24553621,-0.8876054,0.080691405,0.042291153,0.0706801,0.14599288
782,-2.7444758,2.479261,-2.922603,2.9248362,-9.342866,0.57145834,-0.24553621,-0.8876054,0.080691405,0.042291153,0.0706801,0.14599288
783,-2.7444758,2.479261,-2.922603,2.9248362,-9.342866,0.57145834,-0.24553621,-0.8876054,0.080691405,0.042291153,0.0706801,0.14599288
784,-2.7218025,2.7483878,-2.7780087,2.834995,-9.382649,-0.31476068,-0.24553621,-0.8876054,0.080691405,-0.07837684,-0.103306934,-0.14286903
785,-2.7218025,2.7483878,-2.7780087,2.834995,-9.382649,-0.31476068,-0.24553621,-0.8876054,0.080691405,-0.07837684,-0.103306934,-0.14286903
786,-2.7218025,2.7483878,-2.7780087,2.834995,-9.382649,-0.31476068,0.15552402,-0.5512581,0.12876004,-0.07837684,-0.103306934,-0.14286903
787,-2.7218025,2.7483878,-2.7780087,2.834995,-9.382649,-0.31476068,0.15552402,-0.5512581,0.12876004,-0.07837684,-0.103306934,-0.14286903
788,-2.7218025,2.7483878,-2.7780087,2.834995,-9.382649,-0.31476068,0.15552402,-0.5512581,0.12876004,-0.07837684,-0.103306934,-0.14286903
789,-2.7218025,2.7483878,-2.7780087,2.834995,-9.382649,-0.31476068,0.15552402,-0.5512581,0.12876004,-0.07837684,-0.103306934,-0.14286903
790,-2.6924846,2.8413012,-2.7690413,2.6357353,-9.441604,-0.28176048,0.15552402,-0.5512581,0.12876004,-0.18498579,0.009636971,-0.07498412
791,-2.6924846,2.8413012,-2.7690413,2.6357353,-9.441604,-0.28176048,0.15552402,-0.5512581,0.12876004,-0.18498579,0.009636971,-0.07498412
792,-2.6924846,2.8413012,-2.7690413,2.6357353,-9.441604,-0.28176048,1.5624305,0.61783516,-0.22143531,-0.18498579,0.009636971,-0.07498412
793,-2.6924846,2.8413012,-2.7690413,2.6357353,-9.441604,-0.28176048,1.5624305,0.61783516,-0.22143531,-0.18498579,0.009636971,-0.07498412
794,-2.6924846,2.8413012,-2.7690413,2.6357353,-9.441604,-0.28176048,1.5624305,0.61783516,-0.22143531,-0.18498579,0.009636971,-0.07498412
795,-2.6924846,2.8413012,-2.7690413,2.6357353,-9.441604,-0.28176048,1.5624305,0.61783516,-0.22143531,-0.18498579,0.009636971,-0.07498412
796,-2.5415208,2.830863,2.3729393,2.8168244,-8.970683,2.7861698,1.5624305,0.61783516,-0.22143531,0.0415897,0.1851527,0.28132161
797,-2.5415208,2.830863,2.3729393,2.8168244,-8.970683,2.7861698,1.5624305,0.61783516,-0.22143531,0.0415897,0.1851527,0.28132161
798,-2.5415208,2.830863,2.3729393,2.8168244,-8.970683,2.7861698,-0.09001219,0.27789268,-0.2580527,0.0415897,0.1851527,0.28132161
799,-2.5415208,2.830863,2.3729393,2.8168244,-8.970683,2.7861698,-0.09001219,0.27789268,-0.2580527,0.0415897,0.1851527,0.28132161
800,-2.5415208,2.830863,2.3729393,2.8168244,-8.970683,2.7861698,-0.09001219,0.27789268,-0.2580527,0.0415897,0.1851527,0.28132161
801,-2.5415208,2.830863,2.3729393,2.8168244,-8.970683,2.7861698,-0.09001219,0.27789268,-0.2580527,0.0415897,0.1851527,0.28132161
802,-2.5006933,2.789556,2.5028484,3.0973036,-8.897714,2.7217283,-0.09001219,0.27789268,-0.2580527,0.076479696,-0.14485675,0.19765452
803,-2.5006933,2.789556,2.5028484,3.0973036,-8.897714,2.7217283,-0.09001219,0.27789268,-0.2580527,0.076479696,-0.14485675,0.19765452
804,-2.5006933,2.789556,2.5028484,3.0973036,-8.897714,2.7217283,-0.25219393,0.2229,0.21317975,0.076479696,-0.14485675,0.19765452
805,-2.5006933,2.789556,2.5028484,3.0973036,-8.897714,2.7217283,-0.25219393,0.2229,0.21317975,0.076479696,-0.14485675,0.19765452
806,-2.5006933,2.789556,2.5028484,3.0973036,-8.897714,2.7217283,-0.25219393,0.2229,0.21317975,0.076479696,-0.14485675,0.19765452
807,-2.5006933,2.789556,2.5028484,3.0973036,-8.897714,2.7217283,-0.25219393,0.2229,0.21317975,0.076479696,-0.14485675,0.19765452
808,-2.5674953,2.816844,2.6799872,2.6007335,-9.119996,2.4964485,-0.25219393,0.2229,0.21317975,-0.055865895,0.13372964,-0.24193965
809,-2.5674953,2.816844,2.6799872,2.6007335,-9.119996,2.4964485,-0.25219393,0.2229,0.21317975,-0.055865895,0.13372964,-0.24193965
810,-2.5674953,2.816844,2.6799872,2.6007335,-9.119996,2.4964485,-0.9030513,-0.27163443,-0.07509893,-0.055865895,0.13372964,-0.24193965
811,-2.5674953,2.816844,2.6799872,2.6007335,-9.119996,2.4964485,-0.9030513,-0.27163443,-0.07509893,-0.055865895,0.13372964,-0.24193965
812,-2.5674953,2.816844,2.6799872,2.6007335,-9.119996,2.4964485,-0.9030513,-0.27163443,-0.07509893,-0.055865895,0.13372964,-0.24193965
813,-2.5674953,2.816844,2.6799872,2.6007335,-9.119996,2.4964485,-0.9030513,-0.27163443,-0.07509893,-0.055865895,0.13372964,-0.24193965
814,-2.6322193,2.7986405,-3.0204556,2.859344,-9.364594,0.54673886,-0.9030513,-0.27163443,-0.07509893,-0.06803273,-0.054961774,0.28005424
815,-2.6322193,2.7986405,-3.0204556,2.859344,-9.364594,0.54673886,-0.9030513,-0.27163443,-0.07509893,-0.06803273,-0.054961774,0.28005424
816,-2.6322193,2.7986405,-3.0204556,2.859344,-9.364594,0.54673886,-0.03062545,-0.5768237,0.23488387,-0.06803273,-0.054961774,0.28005424
817,-2.6322193,2.7986405,-3.0204556,2.859344,-9.364594,0.54673886,-0.03062545,-0.5768237,0.23488387,-0.06803273,-0.054961774,0.28005424
818,-2.6322193,2.7986405,-3.0204556,2.859344,-9.364594,0.54673886,-0.03062545,-0.5768237,0.23488387,-0.06803273,-0.054961774,0.28005424
819,-2.6322193,2.7986405,-3.0204556,2.859344,-9.364594,0.54673886,-0.03062545,-0.5768237,0.23488387,-0.06803273,-0.054961774,0.28005424
820,-2.700464,2.8377738,-2.9554873,2.5024204,-9.4792,0.23028827,-0.03062545,-0.5768237,0.23488387,-0.100299165,-0.09180403,-0.09215188
821,-2.700464,2.8377738,-2.9554873,2.5024204,-9.4792,0.23028827,-0.03062545,-0.5768237,0.23488387,-0.100299165,-0.09180403,-0.09215188
822,-2.700464,2.8377738,-2.9554873,2.5024204,-9.4792,0.23028827,0.28787923,0.98574,0.26857188,-0.100299165,-0.09180403,-0.09215188
823,-2.700464,2.8377738,-2.9554873,2.5024204,-9.4792,0.23028827,0.28787923,0.98574,0.26857188,-0.100299165,-0.09180403,-0.09215188
824,-2.700464,2.8377738,-2.9554873,2.5024204,-9.4792,0.23028827,0.28787923,0.98574,0.26857188,-0.100299165,-0.09180403,-0.09215188
825,-2.700464,2.8377738,-2.9554873,2.5024204,-9.4792,0.23028827,0.28787923,0.98574,0.26857188,-0.100299165,-0.09180403,-0.09215188
826,-2.7278457,2.9169273,2.8768091,2.5024204,-9.4792,0.23028827,0.28787923,0.98574,0.26857188,-0.33133173,0.03317046,0.217411
827,-2.7278457,2.9169273,2.8768091,2.0073626,-9.538107,1.0795342,0.28787923,0.98574,0.26857188,-0.33133173,0.03317046,0.217411
828,-2.7278457,2.9169273,2.8768091,2.0073626,-9.538107,1.0795342,0.5505923,1.4308742,-0.4762923,-0.33133173,0.03317046,0.217411
829,-2.7278457,2.9169273,2.8768091,2.0073626,-9.538107,1.0795342,0.5505923,1.4308742,-0.4762923,-0.33133173,0.03317046,0.217411
830,-2.7278457,2.9169273,2.8768091,2.0073626,-9.538107,1.0795342,0.5505923,1.4308742,-0.4762923,-0.33133173,0.03317046,0.217411
831,-2.7278457,2.9169273,2.8768091,2.0073626,-9.538107,1.0795342,0.5505923,1.4308742,-0.4762923,-0.33133173,0.03317046,0.217411
832,-2.5804594,2.7886136,2.7913575,2.3940477,-9.142366,2.6184096,0.5505923,1.4308742,-0.4762923,-0.06959129,0.017261602,0.18897077
833,-2.5804594,2.7886136,2.7913575,2.3940477,-9.142366,2.6184096,0.5505923,1.4308742,-0.4762923,-0.06959129,0.017261602,0.18897077
834,-2.5804594,2.7886136,2.7913575,2.3940477,-9.142366,2.6184096,-1.3871998,2.3650837,-0.71210825,-0.06959129,0.017261602,0.18897077
835,-2.5804594,2.7886136,2.7913575,2.3940477,-9.142366,2.6184096,-1.3871998,2.3650837,-0.71210825,-0.06959129,0.017261602,0.18897077
836,-2.5804594,2.7886136,2.7913575,2.3940477,-9.142366,2.6184096,-1.3871998,2.3650837,-0.71210825,-0.06959129,0.017261602,0.18897077
837,-2.5804594,2.7886136,2.7913575,2.3940477,-9.142366,2.6184096,-1.3871998,2.3650837,-0.71210825,-0.06959129,0.017261602,0.18897077
838,-2.7210257,2.3899484,-3.0284247,2.712092,-9.344795,1.2205571,-1.3871998,2.3650837,-0.71210825,-0.022906167,-0.031404465,0.048334893
839,-2.7210257,2.3899484,-3.0284247,2.712092,-9.344795,1.2205571,-1.3871998,2.3650837,-0.71210825,-0.022906167,-0.031404465,0.048334893
840,-2.7210257,2.3899484,-3.0284247,2.712092,-9.344795,1.2205571,-0.3921389,1.8801363,-0.17136936,-0.022906167,-0.031404465,0.048334893
841,-2.7210257,2.3899484,-3.0284247,2.712092,-9.344795,1.2205571,-0.3921389,1.8801363,-0.17136936,-0.022906167,-0.031404465,0.048334893
842,-2.7210257,2.3899484,-3.0284247,2.712092,-9.344795,1.2205571,-0.3921389,1.8801363,-0.17136936,-0.022906167,-0.031404465,0.048334893
843,-2.7210257,2.3899484,-3.0284247,2.712092,-9.344795,1.2205571,-0.3921389,1.8801363,-0.17136936,-0.022906167,-0.031404465,0.048334893
844,2.657768,0.38978127,-2.9336653,2.5934572,-9.337398,1.5024551,-0.3921389,1.8801363,-0.17136936,-0.061943866,0.041147497,0.010343927
845,2.657768,0.38978127,-2.9336653,2.5934572,-9.337398,1.5024551,-0.3921389,1.8801363,-0.17136936,-0.061943866,0.041147497,0.010343927
846,2.657768,0.38978127,-2.9336653,2.5934572,-9.337398,1.5024551,-1.343392,1.7957165,-0.37003532,-0.061943866,0.041147497,0.010343927
847,2.657768,0.38978127,-2.9336653,2.5934572,-9.337398,1.5024551,-1.343392,1.7957165,-0.37003532,-0.061943866,0.041147497,0.010343927
848,2.657768,0.38978127,-2.9336653,2.5934572,-9.337398,1.5024551,-1.343392,1.7957165,-0.37003532,-0.061943866,0.041147497,0.010343927
849,2.657768,0.38978127,-2.9336653,2.5934572,-9.337398,1.5024551,-1.343392,1.7957165,-0.37003532,-0.061943866,0.041147497,0.010343927
850,1.5998337,0.36148846,-2.829727,3.0081065,-9.333719,-0.058057144,-1.343392,1.7957165,-0.37003532,-0.06949063,-0.05147751,0.044027433
851,1.5998337,0.36148846,-2.829727,3.0081065,-9.333719,-0.058057144,-1.343392,1.7957165,-0.37003532,-0.06949063,-0.05147751,0.044027433
852,1.5998337,0.36148846,-2.829727,3.0081065,-9.333719,-0.058057144,-0.86110777,1.1045135,-0.0058587817,-0.06949063,-0.05147751,0.044027433
853,1.5998337,0.36148846,-2.829727,3.0081065,-9.333719,-0.058057144,-0.86110777,1.1045135,-0.0058587817,-0.06949063,-0.05147751,0.044027433
854,1.5998337,0.36148846,-2.829727,3.0081065,-9.333719,-0.058057144,-0.86110777,1.1045135,-0.0058587817,-0.06949063,-0.05147751,0.044027433
855,1.5998337,0.36148846,-2.829727,3.0081065,-9.333719,-0.058057144,-0.86110777,1.1045135,-0.0058587817,-0.06949063,-0.05147751,0.044027433
856,1.0948528,0.5308599,-2.8540723,3.145139,-9.244266,-0.906664,-0.86110777,1.1045135,-0.0058587817,-0.028435996,-0.00092480157,-0.11513623
857,1.0948528,0.5308599,-2.8540723,3.145139,-9.244266,-0.906664,-0.86110777,1.1045135,-0.0058587817,-0.028435996,-0.00092480157,-0.11513623
858,1.0948528,0.5308599,-2.8540723,3.145139,-9.244266,-0.906664,0.108254306,2.2741394,0.406919,-0.028435996,-0.00092480157,-0.11513623
859,1.0948528,0.5308599,-2.8540723,3.145139,-9.244266,-0.906664,0.108254306,2.2741394,0.406919,-0.028435996,-0.00092480157,-0.11513623
860,1.0948528,0.5308599,-2.8540723,3.145139,-9.244266,-0.906664,0.108254306,2.2741394,0.406919,-0.028435996,-0.00092480157,-0.11513623
861,1.0948528,0.5308599,-2.8540723,3.145139,-9.244266,-0.906664,0.108254306,2.2741394,0.406919,-0.028435996,-0.00092480157,-0.11513623
862,0.8415493,1.2085071,-2.824513,2.609329,-9.435435,0.5782386,0.108254306,2.2741394,0.406919,-0.2183459,0.0039004404,0.071194686
863,0.8415493,1.2085071,-2.824513,2.609329,-9.435435,0.5782386,0.108254306,2.2741394,0.406919,-0.2183459,0.0039004404,0.071194686
864,0.8415493,1.2085071,-2.824513,2.609329,-9.435435,0.5782386,0.19320664,2.6676097,-0.9117063,-0.2183459,0.0039004404,0.071194686
865,0.8415493,1.2085071,-2.824513,2.609329,-9.435435,0.5782386,0.19320664,2.6676097,-0.9117063,-0.2183459,0.0039004404,0.071194686
866,0.8415493,1.2085071,-2.824513,2.609329,-9.435435,0.5782386,0.19320664,2.6676097,-0.9117063,-0.2183459,0.0039004404,0.071194686
867,0.8415493,1.2085071,-2.824513,2.609329,-9.435435,0.5782386,0.19320664,2.6676097,-0.9117063,-0.2183459,0.0039004404,0.071194686
868,0.79768854,2.6919403,-2.342186,3.4972832,-8.850577,2.3678434,0.19320664,2.6676097,-0.9117063,-0.04442586,0.043980423,0.26190957
869,0.79768854,2.6919403,-2.342186,3.4972832,-8.850577,2.3678434,0.19320664,2.6676097,-0.9117063,-0.04442586,0.043980423,0.26190957
870,0.79768854,2.6919403,-2.342186,3.4972832,-8.850577,2.3678434,-0.8536511,1.2592386,-0.53368175,-0.04442586,0.043980423,0.26190957
871,0.79768854,2.6919403,-2.342186,3.4972832,-8.850577,2.3678434,-0.8536511,1.2592386,-0.53368175,-0.04442586,0.043980423,0.26190957
872,0.79768854,2.6919403,-2.342186,3.4972832,-8.850577,2.3678434,-0.8536511,1.2592386,-0.53368175,-0.04442586,0.043980423,0.26190957
873,0.79768854,2.6919403,-2.342186,3.4972832,-8.850577,2.3678434,-0.8536511,1.2592386,-0.53368175,-0.04442586,0.043980423,0.26190957
874,0.6333286,2.7700775,-1.0360544,3.7550364,-8.884919,1.7687004,-0.8536511,1.2592386,-0.53368175,0.20327789,-0.0017281822,0.043409325
875,0.6333286,2.7700775,-1.0360544,3.7550364,-8.884919,1.7687004,-0.8536511,1.2592386,-0.53368175,0.20327789,-0.0017281822,0.043409325
876,0.6333286,2.7700775,-1.0360544,3.7550364,-8.884919,1.7687004,-0.5219642,0.9535167,0.043807708,0.20327789,-0.0017281822,0.043409325
877,0.6333286,2.7700775,-1.0360544,3.7550364,-8.884919,1.7687004,-0.5219642,0.9535167,0.043807708,0.20327789,-0.0017281822,0.043409325
878,0.6333286,2.7700775,-1.0360544,3.7550364,-8.884919,1.7687004,-0.5219642,0.9535167,0.043807708,0.20327789,-0.0017281822,0.043409325
879,0.6333286,2.7700775,-1.0360544,3.7550364,-8.884919,1.7687004,-0.5219642,0.9535167,0.043807708,0.20327789,-0.0017281822,0.043409325
880,0.5826272,2.702842,-0.07571912,3.3481784,-9.076788,1.6037465,-0.5219642,0.9535167,0.043807708,-0.011276882,0.112086765,-0.16713667
881,0.5826272,2.702842,-0.07571912,3.3481784,-9.076788,1.6037465,-0.5219642,0.9535167,0.043807708,-0.011276882,0.112086765,-0.16713667
882,0.5826272,2.702842,-0.07571912,3.3481784,-9.076788,1.6037465,-0.5090482,-0.42888945,-0.29759946,-0.011276882,0.112086765,-0.16713667
883,0.5826272,2.702842,-0.07571912,3.3481784,-9.076788,1.6037465,-0.5090482,-0.42888945,-0.29759946,-0.011276882,0.112086765,-0.16713667
884,0.5826272,2.702842,-0.07571912,3.3481784,-9.076788,1.6037465,-0.5090482,-0.42888945,-0.29759946,-0.011276882,0.112086765,-0.16713667
885,0.5826272,2.702842,-0.07571912,3.3481784,-9.076788,1.6037465,-0.5090482,-0.42888945,-0.29759946,-0.011276882,0.112086765,-0.16713667
886,0.8011321,2.4883642,0.35946697,3.9272342,-8.980383,0.31612548,-0.5090482,-0.42888945,-0.29759946,0.060688924,-0.029984355,0.10583565
887,0.8011321,2.4883642,0.35946697,3.9272342,-8.980383,0.31612548,-0.5090482,-0.42888945,-0.29759946,0.060688924,-0.029984355,0.10583565
888,0.8011321,2.4883642,0.35946697,3.9272342,-8.980383,0.31612548,-0.14793424,-0.69120306,0.22596255,0.060688924,-0.029984355,0.10583565
889,0.8011321,2.4883642,0.35946697,3.9272342,-8.980383,0.31612548,-0.14793424,-0.69120306,0.22596255,0.060688924,-0.029984355,0.10583565
890,0.8011321,2.4883642,0.35946697,3.9272342,-8.980383,0.31612548,-0.14793424,-0.69120306,0.22596255,0.060688924,-0.029984355,0.10583565
891,0.8011321,2.4883642,0.35946697,3.9272342,-8.980383,0.31612548,-0.14793424,-0.69120306,0.22596255,0.060688924,-0.029984355,0.10583565
892,0.75475687,2.6109145,0.4438665,3.5023239,-9.149794,-0.43056977,-0.14793424,-0.69120306,0.22596255,0.018485582,-0.05615275,-0.079896376
893,0.75475687,2.6109145,0.4438665,3.5023239,-9.149794,-0.43056977,-0.14793424,-0.69120306,0.22596255,0.018485582,-0.05615275,-0.079896376
894,0.75475687,2.6109145,0.4438665,3.5023239,-9.149794,-0.43056977,0.5412715,0.58121777,0.029160755,0.018485582,-0.05615275,-0.079896376
895,0.75475687,2.6109145,0.4438665,3.5023239,-9.149794,-0.43056977,0.5412715,0.58121777,0.029160755,0.018485582,-0.05615275,-0.079896376
