,gravity.x,gravity.y,gravity.z,userAcceleration.x,userAcceleration.y,userAcceleration.z
0,-0.477768,0.097794,0.873026,0.004303,0.0009449999999999,0.012075
1,-0.478154,0.097733,0.872822,-0.003734,-0.00116,0.0064659999999999
2,-0.478734,0.09876,0.8723870000000001,-0.012751,0.009761,-0.008587
3,-0.48018,0.098485,0.871624,-0.025268,0.0033369999999999,-0.011242
4,-0.482046,0.097125,0.8707459999999999,-0.0139569999999999,-0.017368,-0.014163
5,-0.4821359999999999,0.095861,0.870836,-0.008999,-0.021779,-0.010179
6,-0.482177,0.094791,0.87093,-0.003708,-0.0266149999999999,-0.005757
7,-0.48198,0.093237,0.871208,0.010422,-0.011801,-0.004585
8,-0.481971,0.092825,0.8712559999999999,0.002128,-0.010153,-0.001673
9,-0.482249,0.092646,0.871122,0.001704,-0.0065099999999999,-0.003461
10,-0.4827329999999999,0.091946,0.870928,-0.005945,-0.007519,-0.008364
11,-0.482956,0.0913,0.870872,-0.011337,-0.010993,-0.006828
12,-0.483187,0.090549,0.870822,0.003054,-0.016483,-0.009082
13,-0.482927,0.089768,0.8710469999999999,0.000612,-0.0032049999999999,-0.005965
14,-0.4826539999999999,0.089548,0.8712209999999999,-0.000698,-0.001062,-0.002492
15,-0.482135,0.089585,0.871505,0.004626,0.004958,0.000825
16,-0.480992,0.08968,0.8721260000000001,0.008473,0.0014609999999999,0.001424
17,-0.479655,0.089914,0.8728379999999999,0.011897,0.001349,-0.002294
18,-0.4783739999999999,0.090133,0.873518,-0.006062,-0.0044399999999999,0.013643
19,-0.477363,0.0899539999999999,0.8740899999999999,0.004127,-0.013309,0.012568
20,-0.4760029999999999,0.089845,0.874842,0.028584,-0.029802,0.0055439999999999
21,-0.474977,0.090273,0.8753559999999999,0.026613,-0.026369,0.0024519999999999
22,-0.474858,0.091039,0.875341,0.022191,-0.0098319999999999,0.002802
23,-0.4758199999999999,0.092579,0.874657,0.011907,-0.004673,0.0135729999999999
24,-0.4773439999999999,0.094501,0.8736200000000001,0.0245699999999999,0.007718,0.007575
25,-0.478056,0.097466,0.8729049999999999,0.032057,0.030799,0.018514
26,-0.48108,0.098908,0.87108,0.0019079999999999,0.0469959999999999,0.009658
27,-0.484743,0.100259,0.868891,-0.015806,0.035422,-0.021174
28,-0.486083,0.099936,0.86818,-0.0338899999999999,0.024317,-0.025788
29,-0.485595,0.099143,0.8685440000000001,-0.039521,0.021554,-0.006025
30,-0.484255,0.098185,0.8694,-0.039838,0.014974,-0.011368
31,-0.48202,0.097136,0.8707590000000001,-0.012212,0.011003,-0.020478
32,-0.479983,0.0957409999999999,0.8720379999999999,0.027911,0.024513,0.0017109999999999
33,-0.4797329999999999,0.09392,0.872373,0.050107,0.014875,0.0093709999999999
34,-0.480572,0.0917019999999999,0.8721469999999999,0.012356,-0.01669,-0.004929
35,-0.481918,0.088946,0.87169,-0.035843,-0.005939,0.022612
36,-0.483392,0.085282,0.87124,-0.0245419999999999,-0.002106,0.024955
37,-0.484255,0.0808909999999999,0.871179,-0.005338,0.001827,0.008856
38,-0.484635,0.076312,0.871382,0.00293,0.001813,0.003268
39,-0.485133,0.071078,0.871547,-0.002461,0.004438,0.008794
40,-0.48573,0.064935,0.8716940000000001,-7.900000000000001e-05,0.006644,0.014628
41,-0.4858729999999999,0.058011,0.872102,0.00754,-0.018658,-0.0084549999999999
42,-0.485579,0.052113,0.8726379999999999,0.009001,-0.026142,-0.022724
43,-0.484779,0.04728,0.873358,0.011772,-0.028756,-0.034414
44,-0.483972,0.042565,0.8740479999999999,0.012536,-0.048074,-0.041925
45,-0.482835,0.0415149999999999,0.874726,0.010973,-0.045422,-0.0365
46,-0.481915,0.042246,0.875199,0.0073659999999999,-0.0406889999999999,-0.037034
47,-0.482097,0.042913,0.875066,-0.013691,-0.0165,-0.0300339999999999
48,-0.4825569999999999,0.045473,0.874684,-0.018359,-0.016862,-0.031437
49,-0.4846649999999999,0.048181,0.8733719999999999,-0.022796,-0.0136199999999999,-0.020588
50,-0.485887,0.051948,0.8724770000000001,-0.0013109999999999,-0.020316,-0.023371
51,-0.48686,0.055838,0.871693,0.005995,-0.02706,-0.022709
52,-0.487295,0.058723,0.8712610000000001,0.015219,-0.028404,-0.021224
53,-0.4877479999999999,0.064451,0.8706020000000001,0.008927,-0.016553,-0.0276149999999999
54,-0.487886,0.07161,0.869965,-0.011595,-0.012574,-0.008545
55,-0.4886439999999999,0.078594,0.868936,-0.0406529999999999,0.017125,0.0210939999999999
56,-0.4893939999999999,0.085553,0.867856,-0.032701,0.040378,0.01633
57,-0.489019,0.09005,0.867613,-0.039988,0.050179,0.025789
58,-0.488591,0.0926169999999999,0.867583,-0.007808,0.063557,0.015656
59,-0.487768,0.093425,0.8679600000000001,0.033849,0.032231,0.0137539999999999
60,-0.486977,0.0931,0.868439,0.056877,0.002786,0.020584
61,-0.4871,0.0919649999999999,0.868491,0.08027,-0.007965,0.018671
62,-0.487539,0.090835,0.8683629999999999,0.074331,-0.000763,0.010681
63,-0.4875609999999999,0.090253,0.868411,0.04614,0.013522,-0.000919
64,-0.4870899999999999,0.0902159999999999,0.8686799999999999,0.001997,0.021539,-0.004956
65,-0.486606,0.090449,0.868927,-0.027783,0.0264639999999999,-0.011123
66,-0.4866279999999999,0.090674,0.868891,-0.037924,0.032114,-0.001078
67,-0.487176,0.090601,0.868591,-0.033972,0.027502,-0.001297
68,-0.487442,0.0902559999999999,0.8684780000000001,-0.018265,0.016571,-0.015283
69,-0.486868,0.0898,0.8688469999999999,-0.004312,0.0037979999999999,-0.018368
70,-0.485726,0.08928,0.86954,0.002435,-0.010194,-0.00815
71,-0.484396,0.088747,0.8703360000000001,0.010916,-0.017306,0.000224
72,-0.4831979999999999,0.088484,0.871028,0.015394,-0.013136,0.0052689999999999
73,-0.4825529999999999,0.088379,0.871396,0.010217,-0.010743,0.009188
74,-0.481977,0.087728,0.8717809999999999,0.016553,-0.0118,0.001388
75,-0.482013,0.087684,0.871766,0.019397,-0.011863,0.000823
76,-0.482231,0.088038,0.871609,0.004173,0.00501,0.004261
77,-0.482927,0.088492,0.8711770000000001,0.00281,0.011422,-0.005684
78,-0.4838119999999999,0.089296,0.870604,0.002489,0.014266,-0.0076739999999999
79,-0.484954,0.090807,0.869812,-0.0077209999999999,0.018598,-0.002915
80,-0.485966,0.092004,0.869122,-0.006207,0.012793,-0.004528
81,-0.48621,0.092474,0.868935,-0.007534,0.003061,-0.002068
82,-0.486462,0.093112,0.868726,-0.003452,0.003125,-0.0062229999999999
83,-0.486413,0.093585,0.8687030000000001,0.011391,-0.001666,-0.005071
84,-0.486102,0.094008,0.8688309999999999,0.008182,-0.000365,-0.0040079999999999
85,-0.485645,0.094222,0.869064,0.008182,-0.000167,0.000993
86,-0.4839819999999999,0.094279,0.869984,0.025883,-0.000941,0.00349
87,-0.4828979999999999,0.094327,0.8705809999999999,0.02663,-0.002591,-0.000968
88,-0.482026,0.094263,0.8710709999999999,0.020554,-0.003718,0.002693
89,-0.4812359999999999,0.094087,0.871527,0.003849,2.9e-05,-0.003134
90,-0.481325,0.0941549999999999,0.8714709999999999,-0.000578,-0.001046,-0.004115
91,-0.4816819999999999,0.094234,0.871265,-0.005561,-0.001018,-0.000888
92,-0.482222,0.094109,0.87098,-0.000597,-0.005303,-0.008553
93,-0.4823949999999999,0.094362,0.870856,-0.004009,-0.0028239999999999,-0.0071629999999999
94,-0.482516,0.09457,0.870767,-0.004956,-0.003109,-0.007012
95,-0.482685,0.094903,0.8706370000000001,-0.002773,0.001029,-0.0073709999999999
96,-0.482583,0.095064,0.870676,0.000145,-3.3e-05,-0.0070129999999999
97,-0.482209,0.095213,0.8708670000000001,0.002717,-0.000761,-0.007555
98,-0.481902,0.095466,0.871009,-0.001374,0.001534,-0.0032719999999999
99,-0.4817149999999999,0.095691,0.871088,-0.0020039999999999,-0.001514,-0.002939
100,-0.481645,0.095929,0.8711,-0.002119,-0.0007599999999999,-0.002829
101,-0.481758,0.096172,0.8710110000000001,-0.003135,0.001393,-0.002313
102,-0.4816729999999999,0.096297,0.871044,-0.003129,0.0012369999999999,-0.003658
103,-0.481568,0.096322,0.871099,-0.003692,0.002051,-0.00295
104,-0.481163,0.096264,0.8713290000000001,-0.000602,0.0003399999999999,-0.004661
105,-0.48052,0.096257,0.871685,0.001944,0.005855,-0.0023769999999999
106,-0.479292,0.096638,0.8723190000000001,0.007872,0.006847,0.004146
107,-0.4782899999999999,0.096685,0.872864,0.011325,0.006815,0.002167
108,-0.477465,0.096895,0.873292,0.007647,0.001082,0.006164
109,-0.4771149999999999,0.09705,0.873466,0.010486,-1.9e-05,0.002449
110,-0.476876,0.097335,0.8735649999999999,0.011833,0.0012519999999999,0.0007639999999999
111,-0.476743,0.097664,0.8736010000000001,0.012692,0.00225,0.001094
112,-0.4769609999999999,0.098025,0.873441,0.009172,0.0030489999999999,-0.003828
113,-0.47734,0.0982649999999999,0.873207,0.007323,0.002672,-0.003838
114,-0.477877,0.098213,0.872919,0.002246,-0.002159,-0.007379
115,-0.478309,0.097832,0.872725,-0.001245,-0.005882,-0.011001
116,-0.478656,0.097304,0.8725940000000001,-0.0096709999999999,-0.006667,-0.011327
117,-0.478916,0.096966,0.872489,-0.010907,-0.001736,-0.001258
118,-0.478995,0.096717,0.8724729999999999,-0.00419,-0.003013,-0.005392
119,-0.478942,0.096436,0.872533,-0.0024879999999999,-0.004654,-0.006933
120,-0.479162,0.096205,0.8724379999999999,0.000372,-0.005827,-0.0068379999999999
121,-0.479513,0.096067,0.87226,-0.001596,-0.002119,-0.004707
122,-0.479872,0.096135,0.8720559999999999,0.002363,0.005092,-0.004243
123,-0.480286,0.096355,0.8718030000000001,0.0010689999999999,0.0080159999999999,-0.005013
124,-0.4807329999999999,0.096328,0.87156,-0.002116,0.005311,-0.002419
125,-0.481006,0.096259,0.871417,0.001849,0.000512,-0.0049619999999999
126,-0.480807,0.096073,0.871547,0.003909,-0.000202,-0.0036119999999999
127,-0.480207,0.095927,0.8718940000000001,0.006025,0.000508,-0.0043549999999999
128,-0.479443,0.095648,0.872345,0.009534,-0.002326,-0.003052
129,-0.478659,0.095409,0.872801,0.0090239999999999,-0.001797,4.7e-05
130,-0.477809,0.0951809999999999,0.873292,0.009989,-0.002789,-0.000505
131,-0.476738,0.094994,0.8738969999999999,0.005776,-0.0047079999999999,0.00536
132,-0.476128,0.094706,0.8742610000000001,0.002618,-0.005228,-0.00126
133,-0.47597,0.094638,0.8743549999999999,0.002307,-0.003527,-0.0034439999999999
134,-0.475868,0.0943919999999999,0.8744370000000001,0.009545,-0.003603,-0.005571
135,-0.4758529999999999,0.094337,0.874451,0.009713,-0.004615,-0.005859
136,-0.475843,0.094321,0.874458,0.004347,-0.004966,-0.003028
137,-0.475955,0.0943919999999999,0.874389,-4.3e-05,0.000533,-0.001648
138,-0.476083,0.094591,0.8742979999999999,-0.0028899999999999,0.00366,-0.004532
139,-0.476085,0.094799,0.874275,-0.001439,0.004993,-0.007392
140,-0.475918,0.095149,0.8743280000000001,0.002117,0.003545,-0.004363
141,-0.4754239999999999,0.0951429999999999,0.874597,0.0056359999999999,-3.5e-05,-0.002344
142,-0.474858,0.095188,0.8749,0.006993,-0.000492,-0.001761
143,-0.474114,0.0952929999999999,0.875292,0.007195,0.0026079999999999,0.002913
144,-0.473701,0.095243,0.8755209999999999,0.010978,0.002825,-0.000551
145,-0.4733989999999999,0.095125,0.875697,0.008342,0.002165,0.002828
146,-0.4734029999999999,0.094965,0.875712,0.0028989999999999,0.000234,-0.003565
147,-0.473476,0.0947279999999999,0.875698,0.00198,-0.003908,-0.006542
148,-0.473735,0.094535,0.8755790000000001,0.001644,0.0004969999999999,-0.00511
149,-0.47383,0.094409,0.875541,0.008589,-0.00011,-0.006309
150,-0.473887,0.09431,0.8755209999999999,0.006662,0.00324,-0.002139
151,-0.473692,0.0942669999999999,0.8756309999999999,0.005629,0.0042899999999999,-0.000494
152,-0.4731479999999999,0.0939779999999999,0.875956,0.008334,-0.000717,-0.000376
153,-0.472524,0.093468,0.876347,0.0079849999999999,-0.007393,-0.002416
154,-0.472152,0.092955,0.876603,0.003127,-0.010817,-0.001862
155,-0.472139,0.0928539999999999,0.8766200000000001,0.004259,-0.006306,-0.004611
156,-0.472419,0.092905,0.8764639999999999,-0.004464,-0.0036869999999999,0.002885
157,-0.4730899999999999,0.093082,0.876083,-0.007669,-0.002552,-0.002685
158,-0.474302,0.093371,0.875397,-0.011096,0.000852,-0.009461
159,-0.475952,0.0937149999999999,0.8744639999999999,-0.020477,0.00066,-0.0075049999999999
160,-0.477754,0.093757,0.873476,-0.015776,-0.004661,-0.017244
161,-0.479133,0.0937139999999999,0.872725,-0.0077599999999999,-0.007487,-0.016066
162,-0.480162,0.0938539999999999,0.8721450000000001,-0.012117,-0.002302,-0.009916
163,-0.480558,0.0938539999999999,0.871926,-0.0038929999999999,-0.001538,-0.0038689999999999
164,-0.480259,0.093813,0.8720959999999999,0.0036049999999999,-0.000719,-0.001566
165,-0.479675,0.093884,0.872409,0.004821,0.0049619999999999,0.003613
166,-0.478955,0.093946,0.872798,0.012768,0.005938,0.000401
167,-0.478442,0.093967,0.873077,0.012331,0.0030329999999999,0.00145
168,-0.478185,0.09397,0.873218,0.011251,-0.0026609999999999,0.000348
169,-0.478276,0.094072,0.873157,0.00745,-0.005633,0.000897
170,-0.479038,0.094209,0.8727239999999999,0.004734,-0.0079659999999999,-0.004941
171,-0.4802689999999999,0.0944909999999999,0.872017,-0.002015,-0.007501,-0.001609
172,-0.481566,0.09497,0.8712489999999999,0.001632,-0.0068349999999999,-0.001803
173,-0.4827359999999999,0.095461,0.870548,0.006021,-0.000826,-0.004733
174,-0.483882,0.09597,0.8698549999999999,0.007167,-0.001335,-0.0040409999999999
175,-0.4849529999999999,0.09655,0.869194,0.002348,0.002602,-0.008248
176,-0.4859229999999999,0.097277,0.8685709999999999,-0.0035329999999999,0.004057,-0.005702
177,-0.486778,0.097852,0.868028,-0.0051649999999999,0.00339,-0.006898
178,-0.487433,0.098411,0.867597,-0.003107,0.005242,-0.007611
179,-0.488129,0.09923,0.8671120000000001,-0.0034479999999999,0.004393,-0.002564
180,-0.488785,0.099839,0.8666719999999999,-0.000549,0.005111,-0.00597
181,-0.489088,0.100171,0.8664629999999999,0.00041,0.0062439999999999,-0.0018239999999999
182,-0.488963,0.100219,0.8665290000000001,-0.007497,0.0072489999999999,-0.003003
183,-0.488141,0.099551,0.8670680000000001,-0.004336,-0.000949,0.004651
184,-0.486784,0.098506,0.867951,0.0037359999999999,-0.010509,0.004837
185,-0.485397,0.097435,0.868848,0.013778,-0.016991,-0.001889
186,-0.484529,0.097093,0.8693700000000001,0.017259,-0.012681,-0.0028539999999999
187,-0.4836229999999999,0.096683,0.86992,0.014171,-0.007236,0.003188
188,-0.482601,0.096561,0.870501,0.0163689999999999,-0.001545,0.000867
189,-0.4822329999999999,0.096678,0.870692,0.011866,0.003389,-0.005595
190,-0.4822229999999999,0.09686,0.8706780000000001,0.003127,9.5e-05,-0.0073349999999999
191,-0.482913,0.096945,0.8702850000000001,-0.007962,0.001444,-0.008209
192,-0.483752,0.097228,0.8697879999999999,-0.0036439999999999,-0.000594,-0.018897
193,-0.485029,0.0975029999999999,0.8690459999999999,-0.009127,-0.0031579999999999,-0.006207
194,-0.485476,0.097744,0.868769,-0.006285,-0.002026,-0.004099
195,-0.485695,0.097982,0.8686200000000001,-0.001183,0.001475,-0.003507
196,-0.486067,0.098607,0.868341,0.0004559999999999,0.005488,-0.0070739999999999
197,-0.48608,0.098682,0.868325,-0.002827,-0.001331,-0.0091939999999999
198,-0.485477,0.098468,0.8686870000000001,-0.0055509999999999,-0.004138,-0.007145
199,-0.484683,0.097889,0.869195,0.004672,-0.006306,-0.005654
200,-0.483956,0.097553,0.8696379999999999,0.0008939999999999,-0.0026739999999999,-0.000787
201,-0.483371,0.097407,0.8699790000000001,0.001377,0.002157,0.003357
202,-0.4827,0.097372,0.8703559999999999,0.004794,0.004343,-0.000666
203,-0.4819729999999999,0.097303,0.870767,0.0038229999999999,0.002962,-0.001809
204,-0.481329,0.09711,0.871144,0.005698,0.001675,0.000377
205,-0.480517,0.097072,0.8715959999999999,0.010699,0.001179,0.004334
206,-0.48003,0.097088,0.8718629999999999,0.013691,0.002598,0.000863
207,-0.479726,0.097209,0.872017,0.01209,0.005574,2.3e-05
208,-0.4796399999999999,0.097315,0.872052,0.002574,0.0044909999999999,0.003085
209,-0.47946,0.097312,0.872152,0.004194,-0.0001899999999999,0.001963
210,-0.479371,0.097183,0.872215,0.002076,-0.001999,-0.003395
211,-0.479645,0.097011,0.872084,-0.005234,-0.00587,-0.008497
212,-0.480175,0.096763,0.871819,-0.006748,-0.008399,-0.0090569999999999
213,-0.4805779999999999,0.096587,0.871617,-0.0067569999999999,-0.006957,-0.0098
214,-0.480774,0.0964899999999999,0.871519,-0.007156,-0.005899,-0.009566
215,-0.4806359999999999,0.0964039999999999,0.871605,-0.000245,-0.0004559999999999,-0.003914
216,-0.480302,0.09646,0.871783,0.000733,0.001212,-0.0042899999999999
217,-0.479871,0.096447,0.8720209999999999,0.0007599999999999,0.003162,-0.001325
218,-0.4792649999999999,0.096453,0.8723549999999999,0.00081,0.005888,-0.005213
219,-0.478562,0.096368,0.87275,0.001053,0.004386,-0.003395
220,-0.477963,0.096308,0.873084,0.005338,-0.000895,-0.0018219999999999
221,-0.4774739999999999,0.096222,0.873361,0.007305,-0.0006259999999999,0.000174
222,-0.4771359999999999,0.096252,0.8735430000000001,0.009866,-0.0009449999999999,0.000694
223,-0.476731,0.096373,0.87375,0.007447,0.002886,-0.001573
224,-0.476365,0.096471,0.8739389999999999,0.002732,0.001369,-0.0014269999999999
225,-0.47597,0.096438,0.874158,-7.3e-05,-0.000704,-0.000592
226,-0.475756,0.096299,0.87429,-0.000654,-0.003815,-0.003578
227,-0.475645,0.0961809999999999,0.8743639999999999,-9.4e-05,-0.002263,-0.00356
228,-0.4755529999999999,0.096176,0.8744139999999999,0.002485,-0.000671,-0.005029
229,-0.475455,0.096179,0.874467,0.002814,-0.002353,-0.001893
230,-0.475404,0.096246,0.8744870000000001,0.001756,0.000281,0.000162
231,-0.4754279999999999,0.096323,0.874466,0.00445,-0.000696,-0.003143
232,-0.475468,0.096451,0.8744299999999999,0.003483,0.00206,-0.005136
233,-0.475493,0.09654,0.8744059999999999,0.0068189999999999,0.001391,-0.006593
234,-0.4755859999999999,0.0965169999999999,0.874358,0.001053,0.001903,-0.000335
235,-0.475722,0.096422,0.874295,-0.000688,-0.0011,-0.001156
236,-0.476152,0.0962539999999999,0.874079,-0.001784,-0.002107,-0.008219
237,-0.476583,0.0962789999999999,0.873842,-0.001307,-0.001186,-0.005525
238,-0.47708,0.096242,0.873574,-0.001207,-0.006093,-0.0063869999999999
239,-0.477472,0.096188,0.873366,-0.003744,-0.0020559999999999,-0.005309
240,-0.477426,0.096114,0.8733989999999999,0.002466,1.6e-05,-0.004991
241,-0.477087,0.096047,0.873592,0.002188,0.001533,-0.004344
242,-0.476664,0.0959909999999999,0.8738290000000001,0.0028179999999999,0.002215,-0.002689
243,-0.4764609999999999,0.095913,0.873948,0.0038659999999999,0.00246,-0.00229
244,-0.476342,0.095752,0.874031,0.007653,-0.000949,-0.002434
245,-0.476206,0.095645,0.874117,0.006281,-0.001696,-0.0002
246,-0.476046,0.09551,0.8742190000000001,0.002902,-0.002294,-0.002148
247,-0.4762,0.095385,0.8741479999999999,-0.003002,-0.000445,-0.003421
248,-0.476318,0.095175,0.874107,-0.001496,-0.003225,-0.0038829999999999
249,-0.4763949999999999,0.094928,0.874092,-0.001617,-0.00452,-0.0058509999999999
250,-0.476326,0.094615,0.8741639999999999,0.001976,-0.005656,-0.005481
251,-0.476135,0.094324,0.8742989999999999,0.001861,-0.004664,-0.0039369999999999
252,-0.47581,0.094174,0.874492,0.004954,-0.000821,-0.00175
253,-0.4755939999999999,0.094152,0.8746120000000001,0.001122,0.001551,-0.003259
254,-0.475413,0.094093,0.8747159999999999,0.001384,3.8e-05,-0.003165
255,-0.475326,0.094054,0.874768,0.00209,7.7e-05,-0.003766
256,-0.475278,0.09409,0.87479,0.001493,0.003078,-0.003208
257,-0.475242,0.094028,0.874817,0.0058509999999999,-0.000445,-0.0072019999999999
258,-0.4749529999999999,0.093979,0.874978,0.006692,0.000991,-0.005533
259,-0.474566,0.093887,0.875199,0.004671,0.002487,-0.00084
260,-0.474147,0.093652,0.875451,0.000667,0.0008759999999999,0.002342
261,-0.473679,0.093399,0.8757309999999999,0.003662,-0.004059,0.001924
262,-0.473682,0.093306,0.8757389999999999,0.0001409999999999,-0.005507,-0.001762
263,-0.474008,0.093212,0.8755729999999999,0.002969,-0.001003,-0.006692
264,-0.474321,0.093322,0.8753920000000001,0.003282,-0.001113,-0.0065099999999999
265,-0.474401,0.093485,0.875331,0.0066879999999999,0.003592,-0.005031
266,-0.4742189999999999,0.093583,0.8754190000000001,0.003973,0.002761,-0.003685
267,-0.473812,0.09355,0.8756430000000001,0.002651,0.002519,-0.002703
268,-0.473578,0.093448,0.8757799999999999,0.000297,0.002103,-0.00104
269,-0.473504,0.093573,0.875807,0.00216,0.0049229999999999,-0.005842
270,-0.473384,0.093539,0.875876,0.001399,0.005796,-0.004706
271,-0.4732479999999999,0.0934779999999999,0.8759549999999999,0.001859,0.003156,-0.00242
272,-0.47307,0.09335,0.876065,0.005358,-0.004193,9.4e-05
273,-0.473049,0.093373,0.876074,0.008297,-0.004659,0.002588
274,-0.47323,0.093304,0.875984,0.002542,-0.005353,-0.005042
275,-0.473649,0.093202,0.875769,-0.0008539999999999,-0.005312,-0.004827
276,-0.474038,0.093172,0.875561,-0.000709,-0.007692,-0.006573
277,-0.474552,0.093058,0.875295,-0.00259,-0.006083,-0.008
278,-0.475159,0.093076,0.8749629999999999,-0.006363,-0.002637,-0.008051
279,-0.47545,0.093298,0.874782,-0.004226,0.001993,-0.007106
280,-0.475574,0.09356,0.8746860000000001,-0.000423,0.0022649999999999,-0.003913
281,-0.475512,0.093877,0.8746860000000001,0.002719,0.003596,-0.002936
282,-0.47533,0.094097,0.874761,0.004871,0.001621,-0.001272
283,-0.474956,0.094593,0.8749110000000001,0.00497,0.0062829999999999,-0.001742
284,-0.474877,0.094812,0.8749299999999999,0.004906,0.003974,-0.004324
285,-0.474792,0.094922,0.874964,0.004013,0.00011,-0.005991
286,-0.474595,0.0949059999999999,0.875073,0.003083,-0.002072,-0.002499
287,-0.4744029999999999,0.094674,0.875202,0.001518,-0.005792,0.0027429999999999
288,-0.474314,0.09447,0.8752719999999999,0.000147,-0.00838,0.0033439999999999
289,-0.474657,0.094465,0.8750870000000001,-0.002576,-0.005872,-0.003306
290,-0.475175,0.094623,0.8747889999999999,0.001191,-0.0049619999999999,-0.003771
291,-0.475675,0.09487,0.87449,0.002592,-0.002692,-0.00744
292,-0.475904,0.095179,0.874332,0.001158,0.0002029999999999,-0.007129
293,-0.475897,0.095581,0.874292,-0.000101,0.00322,-0.0036869999999999
294,-0.475854,0.095996,0.8742700000000001,0.000649,0.005078,-0.004809
295,-0.47578,0.096427,0.8742629999999999,0.001857,0.00657,-0.004832
296,-0.475788,0.096816,0.874215,-0.000591,0.005861,-0.003839
297,-0.475779,0.097119,0.874187,0.0021,0.004535,-0.002605
298,-0.47575,0.097334,0.874179,0.003246,9.3e-05,-0.0021079999999999
299,-0.475781,0.097446,0.874149,0.006756,-0.002018,-0.003879
300,-0.476035,0.097451,0.8740100000000001,0.0041259999999999,-0.001565,-0.0050219999999999
301,-0.476286,0.097398,0.8738790000000001,0.002104,-0.004457,-0.005914
302,-0.476427,0.097209,0.8738239999999999,7.8e-05,-0.0069989999999999,-0.0053549999999999
303,-0.476417,0.097034,0.873849,0.003348,-0.0050079999999999,-0.0047539999999999
304,-0.47639,0.09694,0.8738739999999999,0.002742,-0.0007639999999999,-0.003985
305,-0.47634,0.097005,0.8738940000000001,-0.000985,0.0031379999999999,-0.0063549999999999
306,-0.47606,0.096946,0.8740530000000001,0.001023,0.003884,-0.002898
307,-0.475657,0.096911,0.874276,0.002986,0.005033,-0.000481
308,-0.475259,0.096983,0.8744850000000001,0.00657,0.001268,-0.0055119999999999
309,-0.474861,0.096941,0.874705,0.006157,0.002287,-0.002986
310,-0.474513,0.096862,0.8749030000000001,0.006663,-9.1e-05,0.000921
311,-0.474257,0.096825,0.8750459999999999,0.003783,0.000374,-0.004837
312,-0.474117,0.096734,0.875132,0.003643,0.000465,-0.0049229999999999
313,-0.473893,0.096545,0.875274,0.00116,-0.002261,-0.00447
314,-0.473718,0.0961149999999999,0.875416,-0.004996,-0.005416,-0.001301
315,-0.4736479999999999,0.095788,0.87549,-0.005661,-0.007073,-0.0039229999999999
316,-0.473886,0.0956019999999999,0.875381,-0.006323,-0.007223,-0.003906
317,-0.474704,0.095489,0.87495,-0.005155,-0.002151,-0.005779
318,-0.475093,0.095613,0.874725,-0.002659,-0.0007639999999999,-0.004654
319,-0.475331,0.095832,0.8745719999999999,-0.001155,0.000863,-0.005111
320,-0.475238,0.096423,0.874558,0.009509,0.007703,-0.003113
321,-0.474966,0.0966409999999999,0.8746809999999999,0.012747,0.006142,-0.001314
322,-0.474533,0.09671,0.874909,0.011627,0.00441,-0.004181
323,-0.473591,0.096538,0.8754379999999999,0.0133099999999999,0.0004469999999999,-0.003475
324,-0.4727369999999999,0.096082,0.87595,0.005711,-0.0066349999999999,-0.003147
325,-0.472076,0.095341,0.876387,-0.0015869999999999,-0.0152169999999999,-0.001936
326,-0.471977,0.094693,0.876511,-0.005409,-0.016553,0.002335
327,-0.472421,0.094809,0.876259,-0.007529,-0.009833,-0.000877
328,-0.473531,0.095174,0.8756200000000001,-0.005763,0.002223,-0.007578
329,-0.474496,0.095885,0.87502,-0.0032869999999999,0.006684,-0.0065959999999999
330,-0.475249,0.096423,0.874552,-0.001771,0.010587,-0.005838
331,-0.475868,0.097149,0.874135,0.003257,0.015522,-0.005391
332,-0.475992,0.097829,0.873992,0.008325,0.019083,-0.004882
333,-0.475939,0.097901,0.8740120000000001,0.0107599999999999,0.019835,-0.0045049999999999
334,-0.475267,0.098091,0.8743559999999999,0.016893,0.015144,0.0034049999999999
335,-0.47411,0.097773,0.87502,0.017994,0.006109,0.002238
336,-0.472806,0.097067,0.8758040000000001,0.014691,-0.001974,0.005162
337,-0.471731,0.096094,0.876491,0.012731,-0.01153,0.002904
338,-0.471087,0.095075,0.876948,0.0070819999999999,-0.017484,0.001058
339,-0.470917,0.094276,0.877125,0.006089,-0.018074,-0.00385
340,-0.471037,0.093369,0.877158,-0.003191,-0.023972,-0.001075
341,-0.471462,0.092291,0.877044,-0.009159,-0.034201,-0.003829
342,-0.4723449999999999,0.091516,0.87665,-0.014273,-0.0299769999999999,-0.005037
343,-0.473897,0.091723,0.87579,-0.019633,-0.0123769999999999,-0.011578
344,-0.475721,0.092621,0.874706,-0.016299,0.0008539999999999,-0.014385
345,-0.477199,0.093945,0.8737590000000001,-0.0060009999999999,0.007541,-0.018046
346,-0.478188,0.095438,0.873057,-0.003059,0.016577,-0.012796
347,-0.478529,0.097026,0.8726950000000001,0.005933,0.024999,-0.009551
348,-0.478758,0.097525,0.8725129999999999,0.0140819999999999,0.026957,-0.0021219999999999
349,-0.479286,0.098551,0.872108,0.016228,0.035086,0.009224
350,-0.480703,0.0985279999999999,0.8713299999999999,0.019659,0.033216,8e-06
351,-0.480404,0.098145,0.871539,0.019954,0.029891,-0.010714
352,-0.47851,0.098182,0.872576,-0.002188,-0.024116,0.000608
353,-0.478056,0.097709,0.872878,-0.004336,-0.046058,0.010713
354,-0.4780189999999999,0.096498,0.873033,0.010643,-0.024583,0.001037
355,-0.477176,0.096353,0.87351,0.012012,-0.0217219999999999,-0.002538
356,-0.4758729999999999,0.0958779999999999,0.8742719999999999,0.016568,-0.009986,0.004863
357,-0.4757159999999999,0.095731,0.874374,0.008202,-0.005826,0.009095
358,-0.476918,0.095974,0.873693,-0.003978,-0.003003,0.003276
359,-0.4791899999999999,0.096586,0.872381,-0.000851,0.0017879999999999,-0.012151
360,-0.480931,0.097136,0.871361,-0.010387,0.011705,-0.016106
361,-0.482443,0.098085,0.870418,-0.018228,0.012389,-0.015178
362,-0.481875,0.098115,0.8707290000000001,-0.019223,0.009032,-0.012331
363,-0.481337,0.097973,0.871043,-0.014528,0.000645,-0.007365
364,-0.481151,0.097726,0.871173,-0.008168,-0.001214,-0.00185
365,-0.481008,0.0977789999999999,0.871246,-0.002878,0.002991,-0.011643
366,-0.480541,0.097974,0.871482,-0.0007509999999999,0.005023,-0.009773
367,-0.480054,0.098564,0.871684,0.0040409999999999,0.010933,-0.004787
368,-0.479305,0.09897,0.87205,0.0076709999999999,0.009963,0.0049479999999999
369,-0.478401,0.0992789999999999,0.8725120000000001,0.015892,0.013834,0.004136
370,-0.47668,0.09975,0.8733989999999999,0.022059,0.010647,-0.002016
371,-0.474731,0.099756,0.874459,0.022369,0.004141,-0.0017629999999999
372,-0.4729609999999999,0.099161,0.8754860000000001,0.0305779999999999,-0.009454,0.003207
373,-0.47043,0.098027,0.876976,0.026445,-0.018361,0.0080489999999999
374,-0.468721,0.097136,0.8779899999999999,0.012391,-0.016615,0.0084549999999999
375,-0.468252,0.096801,0.8782760000000001,0.007894,-0.015823,0.004521
376,-0.468814,0.096073,0.878056,-0.007977,-0.01894,-0.003926
377,-0.4703279999999999,0.095382,0.8773219999999999,-0.014352,-0.022613,-0.014621
378,-0.471736,0.095553,0.876547,-0.017064,-0.011996,-0.019461
379,-0.473621,0.095957,0.8754860000000001,-0.016109,-0.000941,-0.020383
380,-0.475106,0.0969049999999999,0.874577,-0.01342,0.0111569999999999,-0.009418
381,-0.475231,0.0973769999999999,0.8744559999999999,-0.008595,0.013218,-0.007894
382,-0.474863,0.098036,0.874583,-0.0018679999999999,0.017473,-0.005961
383,-0.473869,0.098834,0.8750319999999999,0.006889,0.017377,-0.0036479999999999
384,-0.472305,0.0991409999999999,0.875842,0.015487,0.009593,0.000989
385,-0.470372,0.099146,0.8768809999999999,0.025472,0.003851,0.00465
386,-0.4685829999999999,0.099203,0.877832,0.022096,0.004847,0.0073
387,-0.467401,0.0992909999999999,0.878452,0.013666,0.004866,0.005871
388,-0.4666939999999999,0.099316,0.878825,0.012043,0.004902,0.005651
389,-0.466599,0.099303,0.878877,0.008805,0.003739,0.001449
390,-0.466993,0.099199,0.8786799999999999,0.00485,0.0032479999999999,-0.000445
391,-0.467639,0.098953,0.8783629999999999,0.004001,0.000489,-0.003196
392,-0.468471,0.098727,0.8779450000000001,-0.001057,-0.001971,-0.003952
393,-0.469344,0.09862,0.877491,-0.0017109999999999,-0.003145,-0.00362
394,-0.470626,0.0982519999999999,0.8768459999999999,-0.003618,-0.0083769999999999,-0.009444
395,-0.471699,0.098054,0.8762909999999999,-0.003292,-0.0078739999999999,-0.0075159999999999
396,-0.472808,0.098004,0.875698,-0.0147409999999999,-0.006604,-0.005795
397,-0.473818,0.098077,0.875144,-0.0118079999999999,-0.007943,-0.004554
398,-0.474922,0.098115,0.874541,-0.010231,-0.010041,-0.007461
399,-0.47635,0.0981929999999999,0.873756,-0.0127549999999999,-0.0090049999999999,-0.007102
400,-0.477946,0.098368,0.872864,-0.009008,-0.005534,-0.00975
401,-0.479333,0.098727,0.8720629999999999,-0.004691,-0.00014,-0.012978
402,-0.4801979999999999,0.099344,0.871516,0.000828,0.009725,-0.01031
403,-0.480444,0.099976,0.871309,0.004308,0.009429,-0.0107739999999999
404,-0.4799779999999999,0.100444,0.8715120000000001,0.006467,0.008748,-0.00707
405,-0.4790109999999999,0.100539,0.8720319999999999,0.0051649999999999,0.00847,-0.0064769999999999
406,-0.477792,0.1004299999999999,0.872714,0.004586,0.006885,-0.004778
407,-0.476271,0.099944,0.8736,0.013274,-0.005248,0.001614
408,-0.4753739999999999,0.099448,0.8741450000000001,0.0123769999999999,-0.004752,0.0010689999999999
409,-0.4738739999999999,0.098607,0.8750540000000001,0.0168889999999999,-0.0047799999999999,0.002921
410,-0.472271,0.097912,0.875999,0.01762,-0.006115,-0.000358
411,-0.4710229999999999,0.097389,0.8767290000000001,0.017562,-0.006004,-0.0015
412,-0.470171,0.096955,0.8772340000000001,0.011629,-0.003952,0.004953
413,-0.469812,0.0967929999999999,0.877444,0.006326,0.002023,0.005674
414,-0.46988,0.0968919999999999,0.877397,0.006638,0.0061049999999999,-0.000199
415,-0.469786,0.09705,0.8774290000000001,0.005614,0.003154,-0.005405
416,-0.470193,0.097212,0.877193,-0.001441,0.00255,-0.005245
417,-0.470977,0.097414,0.87675,-0.005051,0.000304,-0.000789
418,-0.471842,0.097659,0.876258,-0.003668,-0.004992,-0.004264
419,-0.472467,0.097742,0.8759120000000001,0.0001149999999999,-0.006326,-0.0132719999999999
420,-0.47302,0.097855,0.8756,-0.002581,-0.0016179999999999,-0.015066
421,-0.473717,0.097856,0.875224,-0.008858,0.001921,-0.010493
422,-0.473743,0.097778,0.875218,-0.0060079999999999,0.002045,-0.009602
423,-0.472897,0.097423,0.8757149999999999,-0.006488,-0.003322,-0.012281
424,-0.472288,0.09698,0.876093,-0.009264,-0.001444,-0.00503
425,-0.472014,0.096574,0.876286,-0.004961,-0.000245,0.001354
426,-0.471447,0.096374,0.8766120000000001,-4e-06,-0.00151,0.0013779999999999
427,-0.470946,0.09663,0.8768540000000001,-0.005831,0.006473,-0.007179
428,-0.470942,0.096734,0.8768440000000001,-0.0065969999999999,0.004966,-0.0069409999999999
429,-0.471496,0.096528,0.876569,0.000183,0.001265,-0.001997
430,-0.471991,0.096336,0.876324,0.009222,0.004356,-0.000805
431,-0.472181,0.096269,0.876229,0.015425,0.006179,0.002448
432,-0.4719529999999999,0.095928,0.876389,0.027693,-0.003506,0.01184
433,-0.471222,0.095134,0.876869,0.0215449999999999,-0.008052,0.001717
434,-0.471854,0.095432,0.876497,-0.014108,0.0137449999999999,-0.007219
435,-0.473089,0.095948,0.875775,-0.027018,0.00714,-0.014263
436,-0.474306,0.096071,0.875102,-0.019087,-0.00052,-0.014247
437,-0.474608,0.095349,0.8750180000000001,-0.008088,-0.018261,-0.011248
438,-0.473876,0.094318,0.875526,-0.0139009999999999,-0.016513,-0.015815
439,-0.472851,0.093932,0.8761209999999999,-0.024952,-0.016798,-0.0093
440,-0.472689,0.093874,0.876215,-0.002714,-0.0151539999999999,-0.0035039999999999
441,-0.4729109999999999,0.093535,0.876131,0.02148,-0.007598,-0.0034659999999999
442,-0.472679,0.093528,0.876258,0.021415,0.00628,-0.000403
443,-0.470815,0.093834,0.8772280000000001,0.0267379999999999,0.011939,0.008652
444,-0.469958,0.093727,0.877698,0.0286589999999999,0.009667,0.019824
445,-0.468762,0.093773,0.878333,0.032238,0.001503,0.018975
446,-0.4686729999999999,0.093938,0.8783629999999999,0.020141,0.001491,-0.0004639999999999
447,-0.468779,0.094104,0.878288,0.020247,0.001325,-0.000389
448,-0.468868,0.094871,0.878158,0.005321,0.008355,-0.004242
449,-0.469246,0.0957659999999999,0.8778590000000001,-9.9e-05,0.001768,-0.002737
450,-0.470237,0.095954,0.877309,0.000571,-0.001883,-0.003468
451,-0.472267,0.095776,0.876237,0.002968,-0.009457,-0.000718
452,-0.475606,0.095941,0.874411,-0.01768,0.003653,-0.017172
453,-0.477682,0.096125,0.873258,-0.018733,0.003118,-0.01544
454,-0.478727,0.096063,0.872693,-0.01639,-0.000482,-0.0149039999999999
455,-0.4788659999999999,0.095869,0.8726379999999999,-0.012421,-0.003126,-0.0077849999999999
456,-0.478776,0.095631,0.872713,-0.00476,-0.002614,-0.005556
457,-0.4781829999999999,0.095674,0.873033,0.0103489999999999,-0.0011,-0.004717
458,-0.4768779999999999,0.095974,0.873714,0.016322,0.003453,-0.0016589999999999
459,-0.475956,0.096101,0.8742030000000001,0.017979,0.005386,0.000721
460,-0.474975,0.09608,0.8747379999999999,0.0167539999999999,0.000996,-0.001508
461,-0.4741359999999999,0.0958649999999999,0.875217,0.012664,-0.000925,0.003124
462,-0.473587,0.095468,0.875558,0.012253,-0.005044,0.0035159999999999
463,-0.473246,0.094913,0.8758020000000001,-0.0010279999999999,-0.0092959999999999,0.005667
464,-0.4731479999999999,0.094397,0.8759110000000001,0.006778,-0.005758,-0.00027
465,-0.473261,0.0944769999999999,0.875841,0.000849,0.004308,-0.003924
466,-0.473384,0.094862,0.875733,-0.001027,0.0072349999999999,-0.003464
467,-0.473763,0.095244,0.8754870000000001,0.001962,0.007951,-0.001982
468,-0.474062,0.095459,0.875301,0.004046,0.008438,-0.003307
469,-0.474277,0.095603,0.8751690000000001,0.0042759999999999,0.005837,-0.005372
470,-0.474763,0.095534,0.8749129999999999,0.000642,-0.002135,-0.002553
471,-0.47526,0.095333,0.8746649999999999,-0.002782,-0.0010949999999999,-0.004853
472,-0.475745,0.095186,0.874418,0.0011359999999999,-0.001146,-0.003904
473,-0.476228,0.095209,0.874152,-0.002731,0.001852,-0.0067819999999999
474,-0.476638,0.095041,0.8739469999999999,-0.0031899999999999,-0.00271,-0.007492
475,-0.4768529999999999,0.0947419999999999,0.873862,0.001603,-0.002991,-0.004645
476,-0.4770319999999999,0.094272,0.873815,-0.002506,-0.0062439999999999,-0.005117
477,-0.476996,0.093733,0.873893,-0.003488,-0.008619,0.000375
478,-0.4768449999999999,0.093313,0.87402,0.003167,-0.009267,0.0030399999999999
479,-0.476888,0.093173,0.8740120000000001,0.004675,-0.005252,-0.000705
480,-0.477027,0.093275,0.873925,0.003333,-0.004469,-0.000726
481,-0.476997,0.09336,0.873933,0.00431,-0.002067,-0.004349
482,-0.476768,0.093486,0.874044,0.009147,-0.001537,-0.007116
483,-0.476609,0.093817,0.8740950000000001,0.00052,0.0081269999999999,-0.003474
484,-0.476292,0.09426,0.8742200000000001,0.009983,0.009729,-0.000212
485,-0.475451,0.094414,0.874661,0.017016,0.006386,0.002887
486,-0.4746829999999999,0.094519,0.875067,0.011594,0.0072879999999999,-0.00318
487,-0.474131,0.094661,0.875351,0.00677,0.006856,0.0003509999999999
488,-0.4739569999999999,0.0946299999999999,0.875448,0.006108,-0.00178,0.002405
489,-0.474034,0.0943659999999999,0.8754350000000001,0.008565,-0.008902,-0.001213
490,-0.474172,0.0941309999999999,0.8753850000000001,0.0069939999999999,-0.007126,-0.003849
491,-0.474483,0.093874,0.875245,-0.001423,-0.005846,-0.009766
492,-0.474817,0.093657,0.8750870000000001,-0.004416,-0.006483,-0.011104
493,-0.475043,0.093434,0.8749879999999999,-0.008081,-0.005253,-0.012012
494,-0.475191,0.09321,0.8749319999999999,-0.015394,-0.001459,-0.0078049999999999
495,-0.474809,0.092913,0.8751709999999999,-0.015777,-0.0011619999999999,-0.0080439999999999
496,-0.474804,0.092509,0.875216,-0.007069,-0.001643,-0.009448
497,-0.474409,0.092014,0.875482,0.003157,-0.000172,-0.003732
498,-0.474078,0.0916039999999999,0.875705,0.002825,0.0002379999999999,-0.0039549999999999
499,-0.473434,0.091334,0.876081,0.007675,0.004552,-0.001264
500,-0.472826,0.091028,0.876441,0.007586,0.002096,-0.0046
501,-0.4722909999999999,0.090677,0.8767659999999999,0.004228,0.002447,-0.003963
502,-0.47172,0.09032,0.8771100000000001,0.0012,0.004193,-0.003026
503,-0.4709239999999999,0.090186,0.877552,0.001914,0.007241,-0.002582
504,-0.470143,0.089926,0.8779969999999999,-0.002787,0.005731,0.0021449999999999
505,-0.469646,0.089835,0.878273,-0.0038799999999999,0.003457,3.9e-05
506,-0.469196,0.089847,0.878511,0.002689,-0.001468,-0.002382
507,-0.468468,0.089891,0.8788959999999999,0.005531,-0.00403,-0.000646
508,-0.4676479999999999,0.090036,0.879317,0.009488,-0.006205,0.00345
509,-0.466174,0.090257,0.880077,0.017535,-0.000643,0.0074959999999999
510,-0.465521,0.090768,0.8803700000000001,0.021338,0.005256,0.007798
511,-0.4651659999999999,0.091366,0.880496,0.023607,0.00806,0.006299
512,-0.464267,0.092573,0.8808440000000001,0.0197479999999999,0.011873,0.003708
513,-0.464527,0.0931559999999999,0.8806459999999999,0.015766,0.012877,0.001664
514,-0.465055,0.093691,0.88031,0.01077,0.012846,0.002212
515,-0.465656,0.094575,0.8798969999999999,0.0078319999999999,0.005415,-0.002075
516,-0.466681,0.094924,0.879317,0.008002,-0.000838,-0.005171
517,-0.468029,0.0949179999999999,0.8786010000000001,0.005397,-0.012765,-0.008606
518,-0.469476,0.094827,0.8778379999999999,-0.005393,-0.01748,-0.0130009999999999
519,-0.471337,0.094106,0.876918,-0.0154939999999999,-0.020712,-0.015788
520,-0.473064,0.093279,0.8760760000000001,-0.023762,-0.01961,-0.018974
521,-0.4733739999999999,0.093246,0.8759120000000001,-0.0341029999999999,-0.017105,-0.019543
522,-0.473621,0.093248,0.8757780000000001,-0.034756,-0.009569,-0.020386
523,-0.474655,0.093144,0.87523,-0.032684,0.003856,-0.023072
524,-0.474789,0.09341,0.875128,-0.020145,0.011006,-0.016944
525,-0.4739649999999999,0.09346,0.8755700000000001,-0.009525,0.010727,-0.014959
526,-0.472008,0.093687,0.876602,0.006218,0.008302,-0.000976
527,-0.469401,0.09324,0.8780479999999999,0.011042,0.001884,0.000537
528,-0.4672159999999999,0.092683,0.8792719999999999,0.0158,-0.001405,0.0034189999999999
529,-0.464722,0.092116,0.880652,0.026292,-0.004393,0.008295
530,-0.463097,0.091699,0.881551,0.025155,-0.001718,0.017558
531,-0.461338,0.091382,0.8825059999999999,0.025776,-0.001782,0.015153
532,-0.461179,0.091351,0.882592,0.021024,-0.001294,0.011939
533,-0.461639,0.091454,0.8823409999999999,0.013031,-0.0032119999999999,0.003173
534,-0.462697,0.091776,0.8817530000000001,0.004079,0.000296,-0.0063869999999999
535,-0.464106,0.092362,0.880951,-0.00173,0.005431,-0.006958
536,-0.465013,0.092829,0.880424,0.000672,0.0050409999999999,-0.009254
537,-0.465291,0.093155,0.880242,0.00089,0.007187,-0.0085989999999999
538,-0.4653819999999999,0.093179,0.880192,0.001789,0.003714,-0.005222
539,-0.465688,0.0932409999999999,0.880023,-0.001857,0.002202,-0.004565
540,-0.465818,0.093185,0.8799600000000001,-0.002459,-0.000488,-0.006135
541,-0.466229,0.092932,0.879769,-0.005679,-0.0056359999999999,-0.003747
542,-0.466654,0.092558,0.879584,-0.004217,-0.004652,-0.003439
543,-0.466684,0.0923809999999999,0.8795860000000001,0.000223,-0.002964,-0.004311
544,-0.4665109999999999,0.091945,0.879724,0.0004,-0.006633,-0.010064
545,-0.466402,0.09161,0.8798159999999999,-0.000899,-0.005169,-0.008402
546,-0.466265,0.091448,0.879906,-0.0010199999999999,-0.005861,-0.004784
547,-0.466423,0.09127,0.879841,-0.005593,-0.003822,-0.004383
548,-0.466633,0.091252,0.8797309999999999,-0.004574,0.0003,-0.00229
549,-0.466549,0.091345,0.8797659999999999,0.004894,0.002802,-0.003088
550,-0.465912,0.091573,0.88008,0.013138,0.0039159999999999,-0.002944
551,-0.465363,0.091767,0.88035,0.004227,0.003936,-0.002268
552,-0.464811,0.0917549999999999,0.8806430000000001,0.012784,0.001797,0.002475
553,-0.464039,0.091526,0.881074,0.0145759999999999,-0.002231,0.0041649999999999
554,-0.4639609999999999,0.091412,0.881127,0.0128659999999999,-0.001629,0.0046159999999999
555,-0.4647729999999999,0.091584,0.8806809999999999,0.006872,0.004562,-0.002781
556,-0.465159,0.092058,0.8804280000000001,0.015482,0.007506,-0.0052439999999999
557,-0.464943,0.092274,0.880519,0.001457,-0.000462,0.00121
558,-0.465259,0.0922149999999999,0.880358,-0.005047,-0.005331,0.002668
559,-0.466421,0.092195,0.8797450000000001,-0.0077,-0.009203,0.002335
560,-0.468659,0.092072,0.878568,-0.0063159999999999,-0.007691,-0.01341
561,-0.470071,0.092106,0.8778100000000001,-0.001303,-0.006275,-0.012987
562,-0.470902,0.092041,0.8773709999999999,0.00058,-0.00586,-0.0119379999999999
563,-0.471126,0.091988,0.8772559999999999,0.002513,-5.3e-05,-0.0029579999999999
564,-0.471016,0.092043,0.87731,0.006966,0.001646,-0.000707
565,-0.4708229999999999,0.092262,0.87739,0.010771,0.004357,-0.000483
566,-0.470551,0.0924,0.8775219999999999,0.012268,0.005378,7.2e-05
567,-0.470261,0.09256,0.87766,0.009476,0.004837,-0.000661
568,-0.470129,0.092779,0.877708,0.004461,0.003732,0.000359
569,-0.470593,0.09294,0.877442,-0.002567,-0.001418,-0.0015869999999999
570,-0.471492,0.093235,0.876928,-0.002492,-0.000263,-0.003225
571,-0.472653,0.093542,0.8762700000000001,-0.006534,0.001566,-0.01192
572,-0.473371,0.09392,0.875842,-0.0151849999999999,0.00511,-0.015277
573,-0.473282,0.094024,0.8758790000000001,-0.0167389999999999,0.004472,-0.016779
574,-0.4734779999999999,0.093859,0.87579,-0.007753,-0.002779,-0.010907
575,-0.472921,0.093771,0.876101,-0.005167,-0.0005549999999999,-0.0018329999999999
576,-0.471929,0.0936169999999999,0.8766520000000001,0.004476,-0.003957,-0.001423
577,-0.470491,0.093267,0.8774620000000001,0.007951,-0.005056,-0.000128
578,-0.469281,0.093109,0.8781260000000001,0.01518,-0.00505,0.005724
579,-0.46837,0.093245,0.878598,0.020647,-0.001403,0.012042
580,-0.4680729999999999,0.093634,0.8787149999999999,0.024073,0.003046,0.005715
581,-0.4683,0.094286,0.878525,0.015541,0.008436,0.000946
582,-0.469103,0.094972,0.878022,0.004808,0.006789,-0.004075
583,-0.469944,0.095344,0.877532,0.001209,0.010018,-0.006926
584,-0.4697689999999999,0.095459,0.8776129999999999,0.008846,-0.003067,-0.0064129999999999
585,-0.469196,0.095193,0.877948,-0.000256,-0.009256,-0.007022
586,-0.469512,0.094937,0.877807,-0.015427,-0.006573,-0.001006
587,-0.470856,0.095036,0.877077,-0.011231,-0.005543,-0.010759
588,-0.471668,0.095158,0.876626,0.001225,-0.005208,-0.010995
589,-0.471663,0.095082,0.8766379999999999,0.005431,-0.0066879999999999,-0.012105
590,-0.471277,0.0948659999999999,0.876868,0.009104,-0.005496,-0.004935
591,-0.471231,0.094816,0.876899,0.008142,-0.003629,-0.006217
592,-0.47179,0.095079,0.876569,0.000294,0.006743,-0.004194
593,-0.471865,0.095202,0.876516,0.004504,0.007139,-0.008184
594,-0.471013,0.095141,0.87698,-0.003565,0.009031,-0.009289
595,-0.469731,0.095287,0.8776520000000001,0.001149,0.008214,-0.000882
596,-0.468642,0.095258,0.878237,0.009994,0.000644,0.00305
597,-0.4681869999999999,0.09509,0.878498,0.015474,-0.0030489999999999,0.003307
598,-0.4678279999999999,0.095034,0.8786950000000001,0.0119569999999999,0.000913,0.000867
599,-0.467518,0.094954,0.878869,0.0042,0.001085,-0.006173
600,-0.466793,0.094735,0.8792780000000001,0.005672,-0.001809,-0.006124
601,-0.466327,0.094395,0.8795620000000001,-0.002728,-0.003193,-0.004592
602,-0.466243,0.093959,0.879653,-0.000645,-0.006572,-0.003386
603,-0.466293,0.093747,0.879649,-0.001999,-0.004315,-0.005
604,-0.466894,0.093645,0.879341,-0.010157,0.000136,-0.011543
605,-0.4678239999999999,0.093684,0.878842,-0.003932,0.003286,-0.006055
606,-0.468087,0.0937279999999999,0.878698,0.001992,0.002677,-0.003698
607,-0.467668,0.093388,0.878957,0.0123159999999999,-0.00565,-0.003652
608,-0.467025,0.092994,0.879341,0.006408,-0.002021,-3.8e-05
609,-0.4664319999999999,0.092875,0.879668,0.00754,-0.0003,0.004595
610,-0.465949,0.092912,0.87992,0.012092,0.001067,-0.00109
611,-0.465143,0.092909,0.8803469999999999,0.011148,0.001741,-0.005774
612,-0.464621,0.0928,0.880633,0.002707,0.001347,0.00015
613,-0.464555,0.092621,0.8806870000000001,-0.002669,-0.003037,0.002888
614,-0.465057,0.092552,0.8804299999999999,-0.004639,-0.0040659999999999,-0.003217
615,-0.465985,0.092733,0.879919,-0.008929,-0.004461,-0.0085209999999999
616,-0.467401,0.092838,0.879157,-0.003989,-0.003254,-0.010276
617,-0.467941,0.0931029999999999,0.878842,-0.002029,6e-06,-0.008572
618,-0.467871,0.093261,0.878863,0.002294,0.001847,-0.003252
619,-0.467417,0.09332,0.8790969999999999,0.008219,0.002734,-0.00245
620,-0.466913,0.09342,0.8793549999999999,0.007502,0.004785,0.000757
621,-0.466421,0.093503,0.8796069999999999,0.008902,0.0037869999999999,0.0016489999999999
622,-0.465941,0.093634,0.879848,0.008284,0.003809,0.0010119999999999
623,-0.465551,0.093702,0.8800469999999999,0.007161,0.000658,3.4e-05
624,-0.465367,0.093809,0.8801329999999999,0.0077859999999999,-0.00128,-0.000357
625,-0.465317,0.093977,0.880141,0.008988,-0.001921,-0.000518
626,-0.465521,0.094092,0.8800209999999999,0.001196,-0.004981,-0.0044259999999999
627,-0.465727,0.094128,0.879908,-0.002107,-0.005353,-0.0037939999999999
628,-0.465966,0.0941309999999999,0.8797809999999999,-0.005027,-0.007217,-0.007848
629,-0.466567,0.094008,0.879476,-0.0073709999999999,-0.0086959999999999,-0.010442
630,-0.4668449999999999,0.094282,0.8792989999999999,-0.009046,-0.007109,-0.0069689999999999
631,-0.467401,0.09459,0.87897,0.002008,0.004454,-0.0017579999999999
632,-0.467955,0.094856,0.878647,-0.001146,0.002861,-0.0007019999999999
633,-0.468705,0.0948519999999999,0.8782469999999999,-9e-05,0.0030329999999999,-0.002957
634,-0.468809,0.095258,0.8781479999999999,0.007384,0.00577,-0.0069019999999999
635,-0.46828,0.095391,0.878416,0.007663,0.0017,0.0004599999999999
636,-0.467918,0.0953919999999999,0.878609,0.010169,0.002951,0.002861
637,-0.467114,0.095452,0.87903,0.012631,0.000587,-0.002626
638,-0.466404,0.09551,0.879401,0.012638,-0.000158,0.001504
639,-0.466681,0.095426,0.8792629999999999,0.011404,-0.0026829999999999,-0.001058
640,-0.467107,0.095471,0.8790309999999999,0.004018,0.00397,0.005109
641,-0.4676979999999999,0.095135,0.878754,0.012757,-0.007962,0.002228
642,-0.468316,0.094855,0.8784549999999999,0.005593,-0.0137849999999999,0.00036
643,-0.470112,0.094236,0.8775620000000001,-0.018719,-0.014402,-0.0105569999999999
644,-0.471099,0.094564,0.8769969999999999,-0.009294,-0.002721,-0.0149819999999999
645,-0.471954,0.094959,0.8764940000000001,-0.011063,0.004147,-0.0155629999999999
646,-0.472083,0.095,0.8764200000000001,0.002113,0.005525,-0.008561
647,-0.47142,0.095099,0.876767,0.017287,0.0073799999999999,-0.000149
648,-0.470939,0.094877,0.877049,0.013496,0.006121,0.003993
649,-0.470483,0.094654,0.877318,0.007806,-0.002659,0.000231
650,-0.470889,0.094554,0.8771110000000001,-0.004591,0.0013779999999999,-0.000753
651,-0.47135,0.094499,0.876869,0.004859,0.0017989999999999,0.002129
652,-0.4708739999999999,0.09441,0.877134,0.014454,0.00491,-0.003721
653,-0.469022,0.0937539999999999,0.8781959999999999,0.009961,-0.015888,-0.004142
654,-0.467851,0.093017,0.878899,0.009523,-0.016646,0.002434
655,-0.467446,0.0925309999999999,0.879166,0.008065,-0.018587,0.005768
656,-0.4679439999999999,0.092101,0.8789459999999999,-0.0062689999999999,-0.008711,0.004553
657,-0.4694279999999999,0.092398,0.878123,-0.00715,-0.003714,-0.0012
658,-0.471365,0.092953,0.877026,-0.003061,0.007984,-0.00491
659,-0.473002,0.093737,0.8760610000000001,-0.003606,0.0136389999999999,-0.012154
660,-0.473443,0.094071,0.8757870000000001,0.003137,0.013183,-0.012643
661,-0.473102,0.094385,0.8759370000000001,0.008624,0.002707,-0.003974
662,-0.4729939999999999,0.094082,0.876028,-0.0030039999999999,-0.002514,-0.001349
663,-0.473901,0.093624,0.8755870000000001,-0.014532,-0.006924,-0.002067
664,-0.475055,0.093554,0.874969,-0.008969,-4.8e-05,-0.0128169999999999
665,-0.474991,0.093417,0.8750180000000001,-0.00499,-0.005328,-0.008884
666,-0.474691,0.093313,0.875192,0.007253,-0.005331,0.002494
667,-0.474726,0.093184,0.875187,0.026331,-0.001876,0.011974
668,-0.474572,0.092911,0.8753,0.0211419999999999,-0.002502,0.001684
669,-0.474448,0.092675,0.8753920000000001,0.000617,-0.004479,-0.003001
670,-0.4750439999999999,0.092557,0.875081,-0.004357,-0.0033539999999999,0.003322
671,-0.4769569999999999,0.092923,0.874001,-0.013155,0.004138,-0.004921
672,-0.479197,0.093723,0.8726889999999999,-0.014165,0.008206,-0.010354
673,-0.481188,0.0945889999999999,0.871499,-0.0101599999999999,0.012711,-0.020959
674,-0.481887,0.094919,0.871077,-0.007492,0.005957,-0.017561
675,-0.481467,0.094854,0.871317,-0.0102329999999999,0.0024059999999999,-0.011621
676,-0.480409,0.094888,0.8718959999999999,-0.008223,0.00527,-0.002038
677,-0.479419,0.094604,0.8724719999999999,-0.0005,-0.001663,-0.005849
678,-0.478539,0.094441,0.872973,0.006462,0.0034289999999999,-0.000781
679,-0.4773689999999999,0.094309,0.873627,0.013685,0.003393,0.001601
680,-0.4758949999999999,0.094119,0.874451,0.019154,-0.0017879999999999,0.004516
681,-0.474326,0.093724,0.875346,0.0262519999999999,-0.008198,0.012563
682,-0.473501,0.093543,0.875812,0.021337,-0.012473,0.0052
683,-0.472998,0.093342,0.8761049999999999,0.009925,-0.010853,0.001642
684,-0.4730069999999999,0.093653,0.876067,0.006378,-0.01034,0.000657
685,-0.4728479999999999,0.09374,0.876143,-0.001593,-0.004399,-0.007873
686,-0.4725939999999999,0.093874,0.876266,-0.007402,0.001005,-0.005813
687,-0.472172,0.093963,0.876484,-0.004757,-0.001022,-0.007878
688,-0.471837,0.094025,0.8766579999999999,-0.005,-3.1e-05,-0.004633
689,-0.471606,0.0942139999999999,0.876762,0.0013599999999999,0.0002839999999999,-0.006111
690,-0.47116,0.094419,0.87698,0.0017989999999999,0.0004,-0.005886
691,-0.470782,0.094625,0.8771610000000001,0.001848,0.000193,-0.006784
692,-0.470318,0.09479,0.877391,0.008206,0.0012029999999999,-0.000667
693,-0.4698529999999999,0.094994,0.877618,0.011387,0.000373,0.000204
694,-0.469418,0.0951559999999999,0.877834,0.009961,-0.000414,-0.0004379999999999
695,-0.468525,0.0954769999999999,0.8782760000000001,0.013142,0.003217,-0.005351
696,-0.4678569999999999,0.095511,0.8786280000000001,0.014228,0.0033049999999999,-0.0055049999999999
697,-0.467214,0.095483,0.878973,0.010579,0.002128,-0.003638
698,-0.4666439999999999,0.095234,0.8793030000000001,0.0022429999999999,-0.004169,0.000305
699,-0.4664149999999999,0.095113,0.8794370000000001,0.001816,-0.0053,-0.003766
700,-0.466178,0.09506,0.879569,-0.001839,-0.00308,-0.004676
701,-0.466247,0.094873,0.879553,-0.004334,-0.002207,-0.0072689999999999
702,-0.466127,0.0948919999999999,0.8796139999999999,-0.005751,-0.000989,-0.006049
703,-0.465787,0.094965,0.8797860000000001,-0.0023989999999999,0.001165,-0.006633
704,-0.4653319999999999,0.095092,0.8800129999999999,0.003922,0.002412,-0.003014
705,-0.464942,0.095082,0.8802209999999999,0.003058,0.00056,-0.005129
706,-0.464617,0.095333,0.880365,-0.000563,0.004917,-5.5e-05
707,-0.46443,0.095414,0.8804549999999999,0.000838,0.004196,-0.002769
708,-0.464302,0.095387,0.880526,-0.001641,0.001369,-0.005617
709,-0.4645319999999999,0.09531,0.8804120000000001,-0.003669,-0.002552,-0.003734
710,-0.464875,0.095125,0.880252,-0.001419,-0.0047469999999999,-0.002886
711,-0.465226,0.094976,0.8800819999999999,0.001481,-0.001607,-0.005799
712,-0.4652739999999999,0.094761,0.88008,0.014225,0.0010949999999999,-0.006468
713,-0.465018,0.094549,0.880238,0.009329,-0.000661,0.000637
714,-0.465127,0.094294,0.880207,0.0046479999999999,-0.001017,0.002025
715,-0.464996,0.093966,0.8803120000000001,0.005294,0.000974,-0.001864
716,-0.464251,0.093868,0.8807149999999999,0.006533,0.002293,-0.001657
717,-0.463254,0.093646,0.8812639999999999,0.006589,0.000166,-0.002571
718,-0.462226,0.093328,0.8818379999999999,0.008887,-0.003667,0.002409
719,-0.462024,0.093302,0.8819459999999999,0.009021,-0.00236,0.0030789999999999
720,-0.462125,0.093382,0.881885,0.009641,-0.001448,-9.4e-05
721,-0.462489,0.093664,0.8816639999999999,-0.00414,0.00448,-0.004375
722,-0.46282,0.0938669999999999,0.881468,-0.0095459999999999,0.002675,-0.009566
723,-0.462785,0.093931,0.8814799999999999,-0.005568,0.003832,-0.011698
724,-0.462128,0.093796,0.8818389999999999,0.000184,0.001419,-0.007739
725,-0.460868,0.093553,0.882524,0.005698,-0.000276,0.002119
726,-0.459977,0.093475,0.8829969999999999,0.005982,-0.00264,0.001707
727,-0.460027,0.093224,0.8829969999999999,-0.00178,-0.010704,0.0016309999999999
728,-0.460896,0.093292,0.8825370000000001,0.002614,-0.009216,-0.000823
729,-0.461568,0.093426,0.8821709999999999,0.008459,-0.002545,-0.007187
730,-0.461518,0.093533,0.882187,0.007523,0.001376,-0.009872
731,-0.4611369999999999,0.093482,0.882391,0.000108,-0.001701,-0.005194
732,-0.4608069999999999,0.093415,0.8825709999999999,-0.001016,-0.002977,-0.003252
733,-0.46079,0.093519,0.882568,8.2e-05,0.0033439999999999,-0.003113
734,-0.46056,0.093625,0.882677,0.004261,0.009112,-0.003252
735,-0.46003,0.093947,0.882919,0.007165,0.0108659999999999,-0.0026089999999999
736,-0.459551,0.094016,0.8831610000000001,0.005907,0.002603,0.002016
737,-0.459231,0.093905,0.88334,0.009569,-0.005266,0.000129
738,-0.459372,0.0938259999999999,0.883275,0.005911,-0.0053549999999999,0.001186
739,-0.459588,0.093706,0.883175,0.002634,-0.00432,-0.004864
740,-0.459793,0.093464,0.883094,0.001968,-0.008641,-0.006324
741,-0.459908,0.093249,0.883057,0.0044329999999999,-0.009021,-0.005981
742,-0.460083,0.093085,0.882983,0.0031739999999999,-0.0076359999999999,-0.005465
743,-0.4605,0.092936,0.8827809999999999,-0.0017649999999999,-0.000148,-0.003509
744,-0.460822,0.092957,0.882611,-0.001946,-0.000214,-0.00552
745,-0.46103,0.093013,0.882497,-0.002014,0.001973,-0.004231
746,-0.461129,0.093221,0.882423,0.001168,0.002986,-0.0029059999999999
747,-0.461185,0.093303,0.8823840000000001,0.0030399999999999,0.003361,-0.002654
748,-0.461142,0.093527,0.8823840000000001,0.007437,0.002374,-0.002241
749,-0.4609729999999999,0.093769,0.882446,0.0065209999999999,0.0035369999999999,7.7e-05
750,-0.4607989999999999,0.09389,0.882524,0.006591,0.00105,-0.002885
751,-0.4606399999999999,0.093901,0.882606,0.003075,0.000429,-0.005317
752,-0.460497,0.093753,0.8826959999999999,0.004107,-0.001483,-0.005514
753,-0.460392,0.093464,0.882782,-0.001019,-0.003864,0.000504
754,-0.4604069999999999,0.093157,0.882806,-0.003994,-0.005922,-0.000147
755,-0.460868,0.093002,0.882582,-0.0024649999999999,-0.004013,-0.003859
756,-0.4615229999999999,0.0931559999999999,0.882224,-0.0036409999999999,-0.003068,-0.005362
757,-0.462055,0.093235,0.8819370000000001,0.006748,-0.0030399999999999,-0.0054259999999999
758,-0.4624439999999999,0.093495,0.881705,0.005581,0.000865,-0.008002
759,-0.462703,0.093676,0.88155,0.002727,0.002774,-0.003819
760,-0.462643,0.093846,0.8815629999999999,0.00755,0.002665,-0.004442
761,-0.462437,0.093923,0.8816639999999999,0.005024,0.003352,-0.002971
762,-0.4623359999999999,0.0938669999999999,0.8817219999999999,0.002513,0.004064,-0.005013
763,-0.462251,0.093838,0.88177,0.001924,0.00359,-0.003428
764,-0.4620979999999999,0.093814,0.8818530000000001,0.002518,0.0012029999999999,-0.00197
765,-0.462078,0.0937809999999999,0.881867,0.003704,0.001068,-0.001633
766,-0.4621699999999999,0.093744,0.8818219999999999,0.003003,-0.001749,-0.004091
767,-0.4622449999999999,0.093674,0.88179,0.004573,-0.003998,-0.002228
768,-0.462384,0.093435,0.881743,0.001202,-0.006856,-0.002623
769,-0.462585,0.0932149999999999,0.881661,0.000213,-0.007369,-0.003686
770,-0.462848,0.093102,0.8815350000000001,-0.00015,-0.002571,-0.004979
771,-0.463039,0.093068,0.8814379999999999,-0.000507,-0.0019579999999999,-0.00392
772,-0.4631689999999999,0.093058,0.8813709999999999,-0.000393,-0.000865,-0.006828
773,-0.4631409999999999,0.093066,0.8813850000000001,0.002539,0.000898,-0.003822
774,-0.463186,0.093091,0.881358,3.6e-05,0.002597,-0.005275
775,-0.463188,0.093251,0.8813409999999999,0.002677,0.004207,-0.004266
776,-0.463084,0.093303,0.88139,0.004298,0.002019,-0.003002
777,-0.462988,0.093342,0.8814360000000001,0.004874,0.0036729999999999,-0.00314
778,-0.4628649999999999,0.093348,0.8815,0.00501,-0.000376,-0.002075
779,-0.462651,0.09329,0.881618,0.004506,-0.000776,-0.001064
780,-0.4624729999999999,0.093207,0.8817209999999999,0.003626,-0.001791,-0.003425
781,-0.462321,0.0930049999999999,0.881821,0.001216,-0.002337,-0.0043799999999999
782,-0.46206,0.0927679999999999,0.881983,0.003106,-0.002787,-0.003214
783,-0.461873,0.092667,0.882092,-0.0023,-0.001344,0.00275
784,-0.4619359999999999,0.0925059999999999,0.882076,-0.000878,-0.003822,0.002446
785,-0.462513,0.09247,0.881777,-0.000667,-0.004427,-0.003039
786,-0.46323,0.092684,0.8813780000000001,0.002124,-0.002337,-0.004608
787,-0.463751,0.092901,0.881081,0.005728,-0.000891,-0.005609
788,-0.463934,0.0931169999999999,0.8809620000000001,0.006476,0.0017469999999999,-0.007381
789,-0.463921,0.09321,0.880959,0.002434,0.001837,-0.005914
790,-0.4637489999999999,0.093358,0.881034,0.004277,0.003642,-0.002936
791,-0.463674,0.093473,0.8810610000000001,0.001181,0.004458,-0.0042759999999999
792,-0.463539,0.093429,0.8811370000000001,0.002785,0.002732,-0.00336
793,-0.463355,0.09346,0.881231,0.002555,0.001754,-0.001485
794,-0.463289,0.0934789999999999,0.8812629999999999,0.002641,-0.001209,-0.003654
795,-0.4632239999999999,0.093442,0.881302,0.005399,-0.004086,-0.0025629999999999
796,-0.4631439999999999,0.0933659999999999,0.881351,0.004389,-0.004651,-0.0023989999999999
797,-0.462976,0.093343,0.8814420000000001,0.004557,-0.002019,-0.002093
798,-0.462797,0.093262,0.881545,0.001249,-0.004715,-0.00598
799,-0.4628229999999999,0.093119,0.8815459999999999,-0.0022949999999999,-0.005076,-0.003693
800,-0.463102,0.093078,0.8814040000000001,0.001142,-0.0032649999999999,-0.004497
801,-0.463462,0.093232,0.881199,0.001471,0.000625,-0.0042299999999999
802,-0.4637409999999999,0.093572,0.881016,0.00201,0.004893,-0.002827
803,-0.463785,0.09382,0.880966,0.005579,0.004554,-0.003082
804,-0.463809,0.093898,0.8809450000000001,0.004596,0.002339,-0.00477
805,-0.463704,0.0939639999999999,0.880993,0.00205,-0.000443,-0.001782
806,-0.4637199999999999,0.0939919999999999,0.8809819999999999,0.001775,0.000582,-0.001557
807,-0.46373,0.094021,0.8809739999999999,0.001342,-0.000744,-0.002647
808,-0.46371,0.093984,0.8809879999999999,0.003505,-0.003163,-0.0038979999999999
809,-0.463772,0.094104,0.880942,0.005719,-0.001254,-0.002143
810,-0.463946,0.09424,0.8808370000000001,0.0037259999999999,0.00131,-0.003426
811,-0.464126,0.094363,0.8807280000000001,0.001434,0.003278,-0.007178
812,-0.464076,0.094275,0.8807649999999999,0.0023899999999999,0.002557,-0.007824
813,-0.463922,0.094199,0.8808530000000001,-0.004568,0.001367,-0.0023899999999999
814,-0.463705,0.094037,0.880985,-0.000513,-0.003858,-0.001301
815,-0.463622,0.093914,0.881042,0.0021809999999999,-0.007503,-0.003356
816,-0.463746,0.094226,0.880943,0.002305,-0.007815,-0.003258
817,-0.4639729999999999,0.094223,0.8808239999999999,0.002486,-0.008118,-0.005489
818,-0.4640609999999999,0.0941549999999999,0.880785,0.00436,-0.009377,-0.002901
819,-0.464113,0.094313,0.880741,0.000505,-0.0070319999999999,-0.005314
820,-0.4642439999999999,0.094472,0.880655,-0.001622,-0.004979,-0.001642
821,-0.46488,0.094912,0.8802709999999999,-0.0069209999999999,0.003095,-0.005668
822,-0.465387,0.095415,0.879949,-0.0067959999999999,0.006147,-0.0069939999999999
823,-0.4657489999999999,0.0959309999999999,0.8797020000000001,-0.002559,0.01349,-0.008715
824,-0.465775,0.096877,0.879584,0.0021969999999999,0.018296,-0.004859
825,-0.465339,0.097225,0.879777,0.011482,0.0200389999999999,-0.000138
826,-0.464404,0.09779,0.880208,0.016207,0.0176729999999999,-0.0004019999999999
827,-0.463567,0.097895,0.8806370000000001,0.0128069999999999,0.010106,-0.001228
828,-0.463201,0.097295,0.8808969999999999,0.01563,0.006816,0.000344
829,-0.4625479999999999,0.096583,0.881318,0.0054859999999999,-0.000499,0.000213
830,-0.462076,0.095688,0.881663,0.006418,-0.0041649999999999,0.001775
831,-0.4620069999999999,0.094884,0.8817860000000001,0.0053729999999999,-0.009755,0.002018
832,-0.461972,0.093712,0.8819299999999999,0.005123,-0.018471,-0.001391
833,-0.461968,0.0925309999999999,0.882057,0.006829,-0.022081,-0.004279
834,-0.462304,0.091922,0.8819440000000001,-0.002936,-0.022892,-0.004014
835,-0.463085,0.09108,0.8816219999999999,-0.007176,-0.02005,-0.002898
836,-0.4641939999999999,0.090727,0.881075,-0.00921,-0.0132729999999999,-0.0039229999999999
837,-0.465326,0.091142,0.880434,-0.008078,-0.004076,-0.007677
838,-0.466493,0.091848,0.879743,-0.002821,0.009303,-0.008588
839,-0.467128,0.0926159999999999,0.879326,0.002315,0.011601,-0.00843
840,-0.467392,0.092899,0.8791549999999999,0.002549,0.012646,-0.008672
841,-0.467333,0.093333,0.879141,0.005999,0.013356,-0.008185
842,-0.4667489999999999,0.093795,0.879402,0.001555,0.017457,-0.002098
843,-0.465789,0.09369,0.879922,0.00511,0.015944,0.001746
844,-0.464628,0.093565,0.880549,0.009504,0.007204,0.002736
845,-0.464039,0.093336,0.880884,0.002034,0.002519,0.003302
846,-0.463974,0.092731,0.8809819999999999,0.004181,-0.009387,-4.6e-05
847,-0.463705,0.091735,0.881228,0.007056,-0.019012,-0.003008
848,-0.4632409999999999,0.090697,0.8815790000000001,0.007858,-0.0182629999999999,-0.003634
849,-0.462906,0.090102,0.8818159999999999,-0.000213,-0.0088799999999999,-0.005855
850,-0.4629029999999999,0.089729,0.881856,-0.004611,-0.0064319999999999,-0.002339
851,-0.463388,0.089623,0.881611,-0.0045829999999999,-0.0005269999999999,-0.002507
852,-0.464163,0.089777,0.881188,-0.00654,0.000204,-0.005776
853,-0.4651149999999999,0.090114,0.880652,-0.004581,0.003789,-0.009283
854,-0.465564,0.09051,0.880374,-0.0017519999999999,0.007024,-0.007342
855,-0.4655899999999999,0.0908549999999999,0.880325,-0.000596,0.007808,-0.006591
856,-0.4653239999999999,0.091166,0.880433,0.000526,0.004431,-0.008805
857,-0.464758,0.091086,0.88074,0.0009369999999999,-0.001044,-0.004855
858,-0.464056,0.0908679999999999,0.8811329999999999,0.003103,-0.001268,-0.003722
859,-0.463429,0.090754,0.881474,0.002095,-0.001307,-0.004964
860,-0.462891,0.090766,0.881756,-0.000839,0.002587,-0.002484
861,-0.462163,0.090733,0.882141,0.001394,0.003338,-0.001159
862,-0.4613649999999999,0.090573,0.882575,0.00769,-0.003934,-0.0005099999999999
863,-0.4609939999999999,0.090576,0.882769,0.008357,-0.005203,0.002516
864,-0.460775,0.090683,0.8828719999999999,0.011617,-0.004745,0.00432
865,-0.460564,0.090942,0.8829549999999999,0.009927,-0.0003509999999999,0.001231
866,-0.460887,0.0914389999999999,0.8827360000000001,0.007579,0.002464,-0.00151
867,-0.461455,0.0920309999999999,0.8823770000000001,6e-05,0.007441,-0.0025859999999999
868,-0.462138,0.092489,0.881972,0.001109,0.0037479999999999,-0.007948
869,-0.4629,0.0928659999999999,0.881532,0.00062,0.00241,-0.010576
870,-0.4633359999999999,0.092909,0.8812989999999999,0.001682,0.002901,-0.00874
871,-0.463538,0.0930899999999999,0.881173,-0.001488,0.003041,-0.001413
872,-0.4635,0.0931179999999999,0.8811899999999999,0.001769,0.0005549999999999,0.003667
873,-0.4638529999999999,0.093196,0.8809959999999999,0.000825,-0.001384,0.00409
874,-0.464394,0.093397,0.88069,0.003915,-0.000913,-0.002303
875,-0.464929,0.0936559999999999,0.8803799999999999,0.007715,-0.000653,-0.006143
876,-0.465376,0.09391,0.880117,0.006865,-0.000465,-0.009237
877,-0.4658,0.094021,0.8798809999999999,0.000346,-0.002438,-0.005293
878,-0.4661229999999999,0.09409,0.879703,0.001401,0.000606,-0.006381
879,-0.466234,0.094026,0.87965,-0.000532,0.000136,-0.00314
880,-0.466372,0.093949,0.8795860000000001,0.000261,0.000381,-0.003258
881,-0.466542,0.09382,0.879509,0.003529,-0.001367,-0.001122
882,-0.4666399999999999,0.093809,0.879458,0.0017809999999999,-0.000319,-0.000567
883,-0.466825,0.093921,0.8793479999999999,0.0037049999999999,-0.0002319999999999,-0.00061
884,-0.466804,0.09421,0.8793290000000001,0.0076209999999999,0.002989,-0.004023
885,-0.467089,0.094446,0.879152,0.007372,0.003302,-0.00435
886,-0.467268,0.094628,0.8790370000000001,0.006651,0.004478,-0.001199
887,-0.46718,0.0944639999999999,0.879101,0.003954,-0.006802,-0.0001189999999999
888,-0.467582,0.094375,0.878898,0.005256,-0.010955,-0.0014869999999999
889,-0.468167,0.094398,0.878583,0.006451,-0.01052,-0.0019199999999999
890,-0.469102,0.0943519999999999,0.8780889999999999,-0.000457,-0.003517,-0.005363
891,-0.469764,0.094633,0.877705,0.000831,-0.000654,-0.003819
892,-0.470122,0.094858,0.877489,0.00154,0.000478,-0.003267
893,-0.470442,0.095195,0.877281,-0.002794,0.0053289999999999,-0.007347
894,-0.470729,0.095632,0.87708,-0.003315,0.0059,-0.005681
895,-0.4709899999999999,0.096066,0.876892,-0.000644,0.005618,-0.006821
896,-0.471142,0.09637,0.876777,0.001385,0.004399,-0.006217
897,-0.471068,0.0965289999999999,0.876799,0.005049,0.004392,-0.005019
898,-0.47075,0.096573,0.876965,0.004869,0.000138,-0.004437
899,-0.470359,0.096454,0.877188,0.005317,-0.001682,-0.001349
900,-0.470131,0.0962659999999999,0.877331,0.001702,-0.0026379999999999,-0.00259
901,-0.4701,0.095993,0.8773770000000001,-0.000832,-0.0053549999999999,0.001315
902,-0.47036,0.095876,0.877251,0.001335,-0.00617,0.001014
903,-0.470858,0.09583,0.8769889999999999,0.001864,-0.006825,-0.00356
904,-0.471356,0.095885,0.8767149999999999,0.003613,-0.002486,-0.003638
905,-0.47183,0.096065,0.87644,0.004652,2e-05,-0.006445
906,-0.472239,0.096307,0.876193,0.001857,0.002387,-0.007404
907,-0.4722729999999999,0.096525,0.876151,0.004301,0.002931,-0.005103
908,-0.471946,0.09673,0.8763049999999999,0.0090099999999999,0.00442,-0.004357
909,-0.471635,0.096837,0.87646,0.004137,0.001979,-0.001033
910,-0.471474,0.096884,0.876542,0.002663,0.0016719999999999,-0.002106
911,-0.471354,0.096948,0.876599,0.001093,0.000541,-0.002729
912,-0.4713819999999999,0.097033,0.876575,-0.003303,0.0018899999999999,-0.002567
913,-0.471516,0.097106,0.8764940000000001,-0.000728,-0.004928,-0.0058579999999999
914,-0.471846,0.097053,0.876323,-0.001482,-0.00518,-0.006725
915,-0.471871,0.097212,0.876292,-0.000266,-0.0081459999999999,-0.006953
916,-0.471946,0.097179,0.8762549999999999,-0.002297,-0.003231,-0.003285
917,-0.471606,0.097198,0.8764360000000001,0.005954,-0.003692,-0.002977
918,-0.471168,0.097091,0.876683,0.009025,-0.003982,-0.003041
919,-0.471051,0.097092,0.8767459999999999,0.008527,-0.003967,-0.001212
920,-0.4710609999999999,0.097317,0.8767159999999999,0.005912,0.0023079999999999,-0.002494
921,-0.47105,0.097541,0.876697,0.00674,0.003656,-0.001605
922,-0.470888,0.097738,0.876762,0.006273,0.004862,-0.002067
923,-0.470672,0.097984,0.876851,-0.000215,-0.000923,-0.000737
924,-0.470508,0.097994,0.8769370000000001,3.4e-05,-0.000582,-0.000381
925,-0.470477,0.098013,0.8769520000000001,0.001193,-0.0010429999999999,-0.002425
926,-0.4705029999999999,0.098079,0.8769309999999999,0.005034,-0.00082,-0.006356
927,-0.470512,0.098028,0.8769319999999999,0.002754,-0.002691,-0.006875
928,-0.470383,0.097909,0.877014,0.002945,-0.000512,-0.007523
929,-0.4701109999999999,0.097724,0.87718,0.000248,-0.00286,-0.001936
930,-0.470027,0.097678,0.877231,-0.002065,-0.0032719999999999,0.001843
931,-0.470487,0.097691,0.8769819999999999,-0.001726,-0.0051,-0.000746
932,-0.471341,0.097504,0.876545,0.001432,-0.004685,-0.004596
933,-0.47191,0.097639,0.876224,0.002229,-0.001661,-0.004718
934,-0.4720789999999999,0.097772,0.8761180000000001,0.002856,8.3e-05,-0.007908
935,-0.471952,0.09806,0.8761540000000001,0.0037359999999999,0.006936,-0.0039159999999999
936,-0.4717939999999999,0.098092,0.876235,0.005561,0.005637,-0.003311
937,-0.4712369999999999,0.098296,0.8765120000000001,0.00798,0.003938,-0.004381
938,-0.470689,0.0981929999999999,0.876818,0.00464,0.002301,-0.004794
939,-0.470154,0.097981,0.877129,0.00528,0.001629,-0.003639
940,-0.469756,0.0977649999999999,0.877366,-0.000367,-0.002169,-0.00261
941,-0.469576,0.09749,0.8774930000000001,-0.001433,-0.004961,-0.003043
942,-0.469441,0.097285,0.8775879999999999,-0.000408,-0.0064189999999999,-0.005365
943,-0.4694649999999999,0.097061,0.8776,-0.001208,-0.0037229999999999,-0.005591
944,-0.4694689999999999,0.096912,0.8776139999999999,-0.003614,-0.002796,-0.008001
945,-0.469342,0.096783,0.8776959999999999,0.000348,-0.002438,-0.0069689999999999
946,-0.469262,0.096621,0.877757,0.0005269999999999,-0.000399,-0.003474
947,-0.469121,0.0965,0.8778459999999999,0.002293,-0.000522,-0.001488
948,-0.4689529999999999,0.096397,0.8779469999999999,0.00153,-0.000312,-0.002245
949,-0.4686229999999999,0.096511,0.8781100000000001,0.00471,0.004243,-0.005002
950,-0.4680859999999999,0.096539,0.878394,0.007118,0.001407,-0.003653
951,-0.4674729999999999,0.0963909999999999,0.8787360000000001,0.006673,-0.002534,-0.002943
952,-0.466839,0.0961,0.8791049999999999,0.00346,-0.005646,-0.001801
953,-0.466513,0.095748,0.879317,0.001318,-0.005981,-0.001204
954,-0.4663529999999999,0.095586,0.8794190000000001,0.004286,-0.00385,-0.004053
955,-0.466331,0.095553,0.879434,-0.001,-0.002077,-0.006784
956,-0.4664529999999999,0.095576,0.879367,0.000938,0.000692,-0.005939
957,-0.466474,0.095688,0.879344,1.3e-05,0.003662,-0.000499
958,-0.466344,0.09577,0.8794040000000001,0.0009199999999999,0.005411,0.001471
959,-0.4660689999999999,0.095986,0.879526,0.009954,0.005363,-0.0021609999999999
960,-0.4657,0.096049,0.8797149999999999,0.0135819999999999,0.005513,-0.001221
961,-0.465366,0.096002,0.8798969999999999,0.011051,0.002066,-0.0017989999999999
962,-0.465513,0.095911,0.8798290000000001,0.002455,-0.001872,-0.004478
963,-0.4659609999999999,0.0957549999999999,0.879608,0.002903,-0.001715,-0.004257
964,-0.466227,0.095391,0.8795069999999999,0.00999,-0.003991,-0.00469
965,-0.4660649999999999,0.0949,0.8796459999999999,0.003968,-0.002569,-0.00779
966,-0.4658989999999999,0.0946029999999999,0.8797659999999999,-0.001493,7.8e-05,-0.006246
967,-0.465892,0.094422,0.8797889999999999,-0.008824,0.001785,-0.004927
968,-0.466121,0.0942419999999999,0.8796879999999999,-0.004293,-0.002689,-0.005084
969,-0.466236,0.094147,0.8796360000000001,-0.005459,-0.002853,-0.002836
970,-0.466363,0.094036,0.879581,0.001901,-0.004345,-0.0023989999999999
971,-0.466186,0.094032,0.879675,0.007049,-0.004203,-0.006079
972,-0.466205,0.0939909999999999,0.8796700000000001,0.003177,-0.004407,-0.0038759999999999
973,-0.466463,0.09396,0.8795360000000001,0.0013599999999999,-0.002865,-0.00359
974,-0.466706,0.093745,0.8794299999999999,0.000276,-0.00323,-0.007024
975,-0.4664899999999999,0.0936299999999999,0.8795569999999999,-0.001421,-0.002551,-0.007639
976,-0.466161,0.093496,0.8797459999999999,-0.003246,-0.000723,-0.004502
977,-0.465638,0.093442,0.880028,0.002198,0.002398,-0.002587
978,-0.465143,0.093526,0.880281,0.001551,0.0059159999999999,-0.000841
979,-0.464999,0.09379,0.8803290000000001,0.000324,0.003484,-0.002643
980,-0.4645649999999999,0.093943,0.880542,0.00465,0.0033009999999999,-0.002536
981,-0.463626,0.09397,0.881034,0.0133389999999999,0.003243,0.001291
982,-0.462404,0.093983,0.881674,0.018999,0.002788,0.001184
983,-0.4617979999999999,0.094102,0.8819790000000001,0.006125,0.004745,-0.001669
984,-0.46145,0.094119,0.88216,0.007684,-0.000446,-0.003009
985,-0.461057,0.093804,0.8823989999999999,-0.002689,-0.006447,0.001192
986,-0.460539,0.093429,0.882709,-0.003496,-0.01097,0.001401
987,-0.4605399999999999,0.0931429999999999,0.8827379999999999,-0.004975,-0.011753,-0.001894
988,-0.461309,0.093137,0.882338,-0.001155,-0.001889,-0.006437
989,-0.462063,0.093234,0.8819319999999999,0.004803,-0.003894,-0.008413
990,-0.462497,0.093335,0.8816950000000001,0.003268,-0.001935,-0.009273
991,-0.4627729999999999,0.093489,0.881534,-0.002468,0.002291,-0.007876
992,-0.462852,0.093511,0.88149,-0.001641,0.004161,-0.007237
993,-0.462863,0.093561,0.8814780000000001,0.000781,0.004065,-0.000878
994,-0.4626659999999999,0.093549,0.881583,0.00095,0.003039,-0.002478
995,-0.4623279999999999,0.093711,0.881743,0.0009019999999999,0.008279,-0.004149
996,-0.462049,0.093751,0.881885,-0.005175,0.004088,-0.006336
997,-0.461842,0.093541,0.882016,-0.002361,-0.00504,-0.0033539999999999
998,-0.461735,0.093267,0.882101,0.007923,-0.0053,0.0027559999999999
999,-0.46135,0.093273,0.882302,0.011917,0.001484,-0.00454
1000,-0.4605689999999999,0.093134,0.882724,0.0081459999999999,-0.003077,-0.005253
1001,-0.459816,0.092869,0.8831450000000001,0.007637,-0.005497,-0.001797
1002,-0.459599,0.092557,0.8832899999999999,0.004292,-0.005704,0.00085
1003,-0.459884,0.0924919999999999,0.883149,0.001281,-0.0032119999999999,-0.002961
1004,-0.460607,0.092579,0.882763,-0.004603,0.0023309999999999,-0.003597
1005,-0.460933,0.092621,0.8825879999999999,0.000667,0.0043939999999999,-0.006978
1006,-0.4608029999999999,0.09283,0.882634,0.0008119999999999,0.003132,-0.006581
1007,-0.460651,0.092831,0.8827139999999999,-0.000332,0.001759,-0.004021
1008,-0.460363,0.092761,0.882871,0.001073,0.002179,-0.001768
1009,-0.459848,0.092671,0.883149,0.001306,0.000637,-0.002412
1010,-0.459106,0.092487,0.8835540000000001,0.0040729999999999,-0.003116,-0.002527
1011,-0.458593,0.092392,0.8838309999999999,0.006765,-0.003647,0.0004769999999999
1012,-0.458212,0.092369,0.88403,0.008047,-0.003685,-0.000668
1013,-0.4574649999999999,0.0923809999999999,0.884416,0.013236,0.000606,-0.002244
1014,-0.457139,0.092422,0.8845799999999999,0.008623,0.002228,-0.00073
1015,-0.456896,0.092468,0.8847010000000001,0.002565,0.0007019999999999,0.001179
1016,-0.457401,0.092274,0.88446,-0.004849,-0.00562,0.000199
1017,-0.4580909999999999,0.092549,0.884074,-0.004159,-0.005894,0.000584
1018,-0.458947,0.092809,0.883603,0.000634,-0.000722,-0.006451
1019,-0.459514,0.093186,0.883268,0.002941,0.001388,-0.0086959999999999
1020,-0.459784,0.093519,0.883093,0.005346,0.001848,-0.009207
1021,-0.460132,0.093666,0.8828959999999999,0.0023079999999999,0.002648,-0.005699
1022,-0.46061,0.093966,0.8826149999999999,0.000283,0.005796,-0.005188
1023,-0.460929,0.094097,0.882434,-0.000985,0.005619,-0.007678
1024,-0.460938,0.094134,0.882425,0.000871,0.000241,-0.0074099999999999
1025,-0.4608069999999999,0.093996,0.882509,-0.000908,-0.001558,-0.004686
1026,-0.4606989999999999,0.093935,0.8825719999999999,9.8e-05,-0.003938,-0.00426
1027,-0.4608069999999999,0.0938919999999999,0.8825200000000001,0.0037909999999999,-0.002751,-0.000989
1028,-0.46106,0.094019,0.882374,0.0026089999999999,-0.001841,-0.001652
1029,-0.461437,0.094153,0.8821629999999999,0.001934,-0.001883,-0.004111
1030,-0.461713,0.094179,0.882016,0.001645,-0.001482,-0.004559
1031,-0.4618569999999999,0.094162,0.881942,0.00246,-0.000901,-0.005294
1032,-0.462018,0.094211,0.8818530000000001,0.0030789999999999,-8e-05,-0.004762
1033,-0.462181,0.094311,0.881756,0.00576,0.0004309999999999,-0.002515
1034,-0.462345,0.094404,0.88166,0.004917,0.00226,-0.003776
1035,-0.4624439999999999,0.094486,0.8816,0.003795,0.003475,-0.002648
1036,-0.462578,0.094633,0.8815139999999999,0.001457,0.0015429999999999,-0.0034159999999999
1037,-0.462688,0.094764,0.8814420000000001,0.0036729999999999,0.003594,-0.0024289999999999
1038,-0.462718,0.09483,0.8814190000000001,0.0041909999999999,0.0002319999999999,-0.003611
1039,-0.4626979999999999,0.094945,0.881417,0.003149,0.001841,-0.0048909999999999
1040,-0.462725,0.094976,0.8814,0.002855,-0.002691,-0.004645
1041,-0.462892,0.094983,0.8813110000000001,0.000474,-0.0036439999999999,-0.004572
1042,-0.463101,0.09493,0.881207,-0.001987,-0.002828,-0.004666
1043,-0.4630829999999999,0.094951,0.8812139999999999,0.003199,-1.1e-05,-0.003925
1044,-0.463139,0.094796,0.881201,-5.7e-05,-0.004388,-0.002936
1045,-0.463138,0.094712,0.8812110000000001,0.001071,-0.003999,-0.001633
1046,-0.46328,0.094705,0.8811370000000001,0.0012289999999999,-0.0035789999999999,0.00018
1047,-0.463652,0.094934,0.8809170000000001,0.001814,-0.001398,-0.002453
1048,-0.464101,0.095114,0.880661,0.002568,-0.000799,-0.003708
1049,-0.464369,0.095286,0.880501,0.006346,0.000494,-0.008232
1050,-0.4645229999999999,0.0953659999999999,0.880411,0.005646,-0.000472,-0.008371
1051,-0.46447,0.095635,0.88041,0.006096,0.0058969999999999,-0.003975
1052,-0.464414,0.095737,0.8804290000000001,0.000882,0.005291,-0.005612
1053,-0.46418,0.095644,0.8805620000000001,0.001274,0.00514,-0.0041119999999999
1054,-0.463899,0.095737,0.8807,0.001771,0.004116,-0.002923
1055,-0.463632,0.095586,0.880857,0.002771,-0.00089,-0.001813
1056,-0.463513,0.095456,0.880934,0.004376,-0.00311,-0.003965
1057,-0.463333,0.095338,0.881041,0.004883,-0.0034189999999999,-0.004408
1058,-0.463029,0.095101,0.8812260000000001,0.002565,-0.002282,-0.004212
1059,-0.462787,0.094919,0.881373,0.0010869999999999,-0.003045,-0.006083
1060,-0.462747,0.094672,0.8814200000000001,-0.002219,-0.003928,-0.005185
1061,-0.462963,0.094348,0.881342,-0.000187,-0.001743,-0.00596
1062,-0.462842,0.094218,0.8814190000000001,0.000654,-0.001338,-0.006099
1063,-0.4626649999999999,0.094127,0.8815219999999999,0.001956,-0.000713,-0.006339
1064,-0.462585,0.094236,0.881552,0.001022,0.0017879999999999,-0.001944
1065,-0.462372,0.094239,0.8816639999999999,0.00528,0.003021,-0.002361
1066,-0.462095,0.0942419999999999,0.8818090000000001,0.006254,0.002575,-0.0038179999999999
1067,-0.461608,0.094231,0.882065,0.006759,0.0008619999999999,-0.002182
1068,-0.4615479999999999,0.094169,0.8821030000000001,0.003113,-0.000892,-0.004005
1069,-0.461593,0.094106,0.882086,0.001602,-0.000997,-0.000159
1070,-0.4616189999999999,0.094026,0.882081,0.002711,-0.001878,-0.005861
1071,-0.46161,0.093983,0.8820899999999999,0.002732,-0.000508,-0.008799
1072,-0.46145,0.093811,0.882193,0.001275,-0.001556,-0.00466
1073,-0.461147,0.093671,0.882366,-0.001072,0.000186,0.004429
1074,-0.461043,0.0936419999999999,0.882423,-0.001451,-0.000167,-0.000541
1075,-0.461389,0.093655,0.8822409999999999,-0.0008609999999999,-0.002438,-0.003091
1076,-0.461852,0.09374,0.8819899999999999,0.00302,-0.0026899999999999,-0.0034649999999999
1077,-0.4622,0.093813,0.8818,0.00671,-0.003649,-0.006052
1078,-0.462322,0.093846,0.881732,0.005031,-0.003636,-0.00719
1079,-0.462409,0.093851,0.8816860000000001,0.000907,3.6e-05,-0.005786
1080,-0.462343,0.093829,0.8817219999999999,0.002367,0.001782,-0.00625
1081,-0.4622279999999999,0.093918,0.8817729999999999,0.000482,0.0055229999999999,-0.005492
1082,-0.462037,0.094021,0.881863,0.002046,0.005451,-0.001644
1083,-0.461625,0.094107,0.8820690000000001,0.005631,0.002939,-0.001256
1084,-0.461291,0.094187,0.882236,0.0059229999999999,0.002584,-0.001865
1085,-0.461053,0.094196,0.882359,0.006234,-0.000935,-0.000752
1086,-0.461008,0.094108,0.882392,0.0046479999999999,-0.00257,-0.001884
1087,-0.461014,0.093983,0.882402,0.003113,-0.001668,-0.004442
1088,-0.461152,0.0937669999999999,0.882353,-0.000823,-0.005815,-0.005232
1089,-0.461385,0.093483,0.8822610000000001,-0.000896,-0.00599,-0.002562
1090,-0.461611,0.093308,0.8821610000000001,0.000765,-0.003754,-0.003896
1091,-0.4616479999999999,0.0932429999999999,0.882149,0.0024649999999999,0.000324,-0.004647
1092,-0.461631,0.093262,0.8821559999999999,-0.0007099999999999,0.00264,-0.00357
1093,-0.4616149999999999,0.093274,0.8821629999999999,0.002401,0.001895,-0.004615
1094,-0.4615039999999999,0.093322,0.882216,0.004839,0.001786,-0.002989
1095,-0.461379,0.093371,0.8822760000000001,0.00328,0.002103,-0.003996
1096,-0.461192,0.093468,0.8823639999999999,0.002971,0.003044,-0.00451
1097,-0.4609,0.093507,0.8825120000000001,0.005089,0.001387,-0.001943
1098,-0.4606949999999999,0.093535,0.882616,0.003786,6.2e-05,0.000395
1099,-0.460593,0.093523,0.8826709999999999,0.0026309999999999,-0.001116,-0.004192
1100,-0.460604,0.093469,0.8826700000000001,0.000933,-7e-05,-0.007136
1101,-0.4604979999999999,0.093319,0.882742,0.000781,-0.000454,-0.0048119999999999
1102,-0.460333,0.09315,0.8828459999999999,-0.003382,-0.001551,-0.0002009999999999
1103,-0.4603399999999999,0.0929909999999999,0.8828590000000001,-0.001315,-0.006077,0.00032
1104,-0.460625,0.093085,0.8827,0.000695,-0.001349,-0.001642
1105,-0.460945,0.093214,0.8825200000000001,0.003486,-0.000319,-0.002393
1106,-0.4610859999999999,0.093347,0.882432,0.006146,-0.001123,-0.004822
1107,-0.461181,0.093462,0.8823700000000001,0.005096,0.000365,-0.006592
1108,-0.461133,0.0936169999999999,0.8823790000000001,0.005689,0.005016,-0.003015
1109,-0.460947,0.093677,0.8824700000000001,0.00268,0.004635,-0.003457
1110,-0.46058,0.0936299999999999,0.882666,0.001032,0.003828,-0.003882
1111,-0.460085,0.093558,0.8829319999999999,0.0009019999999999,0.002618,-0.004178
1112,-0.459796,0.093501,0.8830879999999999,3e-06,-0.000194,-0.004472
1113,-0.459661,0.093489,0.8831600000000001,0.0009519999999999,-0.001372,-0.001324
1114,-0.45973,0.093441,0.883129,0.005094,-0.004055,-0.00346
1115,-0.459821,0.09348,0.883078,0.0002109999999999,-0.003544,-0.002081
1116,-0.459812,0.093403,0.8830899999999999,0.007084,-0.00507,-0.005069
1117,-0.4599279999999999,0.093389,0.8830319999999999,-0.002276,-0.00237,-0.006552
1118,-0.4603399999999999,0.093497,0.882806,-0.004229,-0.000251,-0.0061579999999999
1119,-0.46071,0.0935179999999999,0.88261,-0.002394,-0.002026,-0.003948
1120,-0.460826,0.093682,0.882532,0.004939,0.002814,-0.002405
1121,-0.460813,0.093873,0.882519,0.0040869999999999,0.003356,-0.002895
1122,-0.460844,0.094029,0.8824860000000001,0.008085,0.000316,-0.002618
1123,-0.461093,0.094246,0.882333,0.004931,0.00074,-0.000314
1124,-0.4616189999999999,0.094593,0.88202,0.000681,0.002682,-0.001756
1125,-0.462082,0.094904,0.8817440000000001,0.004517,0.003652,-0.002335
1126,-0.462225,0.095199,0.8816379999999999,0.004934,0.003251,-0.001603
1127,-0.461967,0.095361,0.881756,0.005561,0.002707,-0.005306
1128,-0.4617819999999999,0.095421,0.8818459999999999,0.001485,0.000984,-0.005228
1129,-0.462032,0.095297,0.8817280000000001,-0.000584,-0.003851,-0.006103
1130,-0.462489,0.095136,0.8815059999999999,0.000727,-0.002851,-0.006476
1131,-0.4629979999999999,0.095105,0.881242,-0.000381,-0.000806,-0.00229
1132,-0.4631729999999999,0.095044,0.881157,-8e-06,-0.001797,-0.002251
1133,-0.463176,0.095064,0.8811530000000001,0.0002549999999999,-0.001954,-0.000584
1134,-0.46351,0.095058,0.880978,0.00332,-0.004863,-0.0009119999999999
1135,-0.464021,0.095175,0.8806959999999999,0.005113,-0.004171,-0.003835
1136,-0.464546,0.095336,0.880402,0.0050729999999999,-0.002028,-0.009675
1137,-0.464777,0.095483,0.880265,0.005304,-0.002175,-0.009537
1138,-0.464865,0.095614,0.8802040000000001,0.00054,0.002546,-0.005509
1139,-0.46478,0.095791,0.880229,0.006238,0.004169,-0.001964
1140,-0.464438,0.095804,0.880408,0.0079099999999999,0.004233,-0.003409
1141,-0.4640729999999999,0.095808,0.8806,0.003944,0.003756,-0.003907
1142,-0.463752,0.095812,0.880769,0.003715,0.000654,-0.000108
1143,-0.463686,0.09581,0.8808040000000001,0.001466,-0.00235,0.0008789999999999
1144,-0.463842,0.095867,0.8807149999999999,0.004873,-0.003582,-0.000863
1145,-0.4641,0.095927,0.8805729999999999,0.004521,-0.00143,-0.001728
1146,-0.4641619999999999,0.095947,0.8805379999999999,0.008733,-0.002091,-0.006271
1147,-0.463967,0.095921,0.8806440000000001,0.00335,-0.002583,-0.004607
1148,-0.4640859999999999,0.095704,0.880605,-0.000834,-0.005983,-0.00208
1149,-0.464483,0.095675,0.8803989999999999,-0.001032,-0.003329,-0.003507
1150,-0.4650609999999999,0.095653,0.8800959999999999,-0.002514,-0.001217,-0.005325
1151,-0.465288,0.095757,0.879965,0.0002,0.003014,-0.006323
1152,-0.465125,0.09581,0.8800450000000001,0.001441,0.003738,-0.0072879999999999
1153,-0.464697,0.09593,0.880258,0.0038659999999999,0.00342,-0.002496
1154,-0.464109,0.0959769999999999,0.8805629999999999,0.005842,0.002473,-0.002054
1155,-0.4639109999999999,0.095975,0.880668,0.001143,0.005557,-0.003974
1156,-0.464188,0.095952,0.880524,-0.003921,0.004313,-0.002762
1157,-0.464122,0.095675,0.880589,0.003276,-0.0031609999999999,-0.004613
1158,-0.463657,0.0954059999999999,0.880863,-0.0006219999999999,-0.001046,-0.0070989999999999
1159,-0.462822,0.095316,0.8813120000000001,0.001107,-0.000589,-0.003397
1160,-0.461976,0.095152,0.881774,0.002625,-0.001418,-0.002806
1161,-0.4615069999999999,0.094871,0.882049,0.002614,-0.003303,0.0010689999999999
1162,-0.461442,0.094585,0.882114,0.001359,-0.002681,0.003674
1163,-0.4613609999999999,0.094376,0.882179,0.00407,-0.003342,0.000649
1164,-0.461451,0.094288,0.882141,0.005778,-0.00475,0.001801
1165,-0.4618,0.09424,0.8819629999999999,0.005044,-0.00313,-0.005682
1166,-0.462246,0.09432,0.8817209999999999,0.005474,0.000147,-0.004204
1167,-0.462555,0.094416,0.881549,0.003861,-1e-05,-0.0060149999999999
1168,-0.4625359999999999,0.0945309999999999,0.8815459999999999,0.002346,0.0034,-0.003693
1169,-0.462263,0.094546,0.8816879999999999,0.004102,0.004392,-0.004018
1170,-0.461993,0.094527,0.881832,0.003528,0.003877,-0.003413
1171,-0.4618279999999999,0.094633,0.881907,0.002386,0.004412,-0.003443
1172,-0.461652,0.09469,0.881993,0.004148,0.004569,-0.002781
1173,-0.461445,0.0947139999999999,0.882099,0.00391,0.001798,-0.002597
1174,-0.461339,0.094653,0.88216,0.002812,-0.001315,-0.004109
1175,-0.461334,0.0945169999999999,0.882177,0.002655,-0.0026899999999999,-0.002707
1176,-0.4614729999999999,0.094396,0.8821180000000001,0.002565,-0.003332,-0.001976
1177,-0.461627,0.094215,0.882057,0.001178,-0.004311,-0.007179
1178,-0.461731,0.094065,0.882019,0.001876,-0.004511,-0.00595
1179,-0.461825,0.093981,0.881978,0.002291,-0.002871,-0.005422
1180,-0.461904,0.093949,0.88194,-7.2e-05,-0.001114,-0.002653
1181,-0.461949,0.094033,0.881908,0.00327,0.000708,-0.004176
1182,-0.4619819999999999,0.094104,0.881883,0.003135,0.002316,-0.004884
1183,-0.461902,0.094182,0.881916,0.001392,0.002375,-0.0047799999999999
1184,-0.461834,0.0942419999999999,0.8819450000000001,0.002072,0.000439,-0.004168
1185,-0.461785,0.0942799999999999,0.8819670000000001,0.0028309999999999,0.002339,-0.004541
1186,-0.461725,0.0943669999999999,0.8819889999999999,0.0039159999999999,0.0003129999999999,-0.001313
1187,-0.4616979999999999,0.09448,0.881991,0.003843,0.002627,-0.0034049999999999
1188,-0.4616369999999999,0.094571,0.8820129999999999,0.003279,0.0020629999999999,-0.002252
1189,-0.461513,0.094669,0.8820680000000001,0.003261,0.002896,-0.003681
1190,-0.461402,0.094674,0.882125,0.004661,0.000419,-0.006576
1191,-0.461356,0.094579,0.882159,0.002235,0.000208,-0.007937
1192,-0.461159,0.09442,0.88228,0.002006,-0.000991,-0.003557
1193,-0.460898,0.094262,0.882433,-0.0004509999999999,-0.002587,0.001036
1194,-0.460914,0.0942139999999999,0.8824299999999999,-0.001687,-0.001975,0.001008
1195,-0.461322,0.0942539999999999,0.8822120000000001,8e-05,-0.0022429999999999,-0.001627
1196,-0.4617529999999999,0.094317,0.8819799999999999,0.003303,-0.0024739999999999,-0.00344
1197,-0.462051,0.094385,0.881817,0.004455,-0.003153,-0.006435
1198,-0.462139,0.0944049999999999,0.881768,0.003415,-0.000868,-0.006737
1199,-0.462139,0.094428,0.8817659999999999,0.00465,0.001748,-0.0051329999999999
1200,-0.461966,0.094347,0.881865,0.002203,0.001021,-0.003981
1201,-0.461736,0.094306,0.8819899999999999,0.001531,0.003259,-0.0034649999999999
1202,-0.4613569999999999,0.094448,0.882173,0.004493,0.002704,-0.004488
1203,-0.461025,0.09439,0.882353,0.004391,0.001099,-0.003889
1204,-0.4608239999999999,0.094338,0.8824629999999999,0.0031219999999999,-0.00126,-0.001466
1205,-0.460873,0.094257,0.882447,0.003277,-0.003193,-0.0032049999999999
1206,-0.460991,0.094297,0.882381,0.002144,-0.001173,-0.00265
1207,-0.461092,0.094233,0.8823350000000001,0.000795,-0.003214,-0.004527
1208,-0.461021,0.09414,0.882382,0.002967,-0.0018239999999999,-0.004116
1209,-0.460974,0.094061,0.882415,0.000509,-0.001593,-0.004317
1210,-0.4609899999999999,0.093957,0.882418,0.00286,-0.000757,-0.001726
1211,-0.461106,0.093944,0.882358,0.000641,0.000126,-0.004627
1212,-0.461221,0.093955,0.8822969999999999,0.001031,0.001092,-0.0042759999999999
1213,-0.46121,0.094093,0.882288,0.004118,0.002648,-0.004038
1214,-0.461197,0.094137,0.88229,0.0014039999999999,0.0012,-0.004238
1215,-0.461102,0.0942269999999999,0.88233,0.00375,0.000362,-0.003882
1216,-0.461042,0.094383,0.882345,0.002607,-2.3e-05,-0.002096
1217,-0.4610979999999999,0.094463,0.882307,0.003121,-0.0014,-0.002241
1218,-0.46115,0.094534,0.882272,0.004118,-0.001303,-0.003702
1219,-0.461251,0.094489,0.882224,0.001473,-0.001914,-0.004477
1220,-0.461337,0.094544,0.882173,0.0031609999999999,-0.0019079999999999,-0.0050219999999999
1221,-0.461441,0.094594,0.882114,0.003463,-0.000569,-0.003894
1222,-0.4614439999999999,0.094753,0.8820950000000001,0.00365,-0.000103,-0.005248
1223,-0.461431,0.094778,0.882099,0.0035909999999999,0.0016879999999999,-0.004002
1224,-0.4612979999999999,0.094858,0.88216,0.006723,0.004522,-0.004459
1225,-0.4611729999999999,0.094963,0.8822139999999999,-0.0001,-0.000984,0.002872
1226,-0.461345,0.095114,0.882108,0.001583,-0.000601,-0.0020109999999999
1227,-0.461899,0.095343,0.881793,-0.000107,-0.0017,1.2e-05
1228,-0.46261,0.095514,0.881402,-0.000617,-0.001459,-0.005349
1229,-0.46308,0.095646,0.881141,0.003195,-0.00214,-0.007972
1230,-0.463301,0.095738,0.881015,0.004408,-0.000737,-0.008914
1231,-0.463271,0.095847,0.8810180000000001,0.006026,0.002816,-0.005484
1232,-0.463268,0.095902,0.881014,0.002651,0.0043939999999999,-0.005526
1233,-0.4632439999999999,0.095897,0.881027,0.002078,0.003133,-0.003418
1234,-0.463207,0.095896,0.8810469999999999,0.002346,0.003134,-0.000111
1235,-0.463096,0.096011,0.881093,0.002936,0.001935,-0.002186
1236,-0.463052,0.096005,0.881116,0.005639,-0.001705,-0.002912
1237,-0.463157,0.096013,0.8810600000000001,0.0043409999999999,-0.0026899999999999,-0.003939
1238,-0.463319,0.0959,0.8809879999999999,-0.00122,-0.005095,-0.0036829999999999
1239,-0.463551,0.0959049999999999,0.880865,0.0011949999999999,-0.0045049999999999,-0.004659
1240,-0.46378,0.095813,0.880754,-0.000576,-0.005526,-0.005083
1241,-0.464233,0.09567,0.880531,0.000823,-0.000318,-0.00605
1242,-0.4644979999999999,0.095697,0.880388,0.000722,-0.000513,-0.006273
1243,-0.464618,0.095724,0.8803219999999999,0.001987,0.000254,-0.006527
1244,-0.464451,0.09601,0.8803790000000001,0.004277,0.002409,-0.004052
1245,-0.464163,0.096051,0.880526,0.005209,0.0037259999999999,-0.003695
1246,-0.463591,0.096069,0.880826,0.0059039999999999,0.004379,-0.005032
1247,-0.4624069999999999,0.0957799999999999,0.8814799999999999,0.007618,-0.006562,-0.00532
1248,-0.461369,0.094984,0.882109,-0.001507,-0.017668,-0.000289
1249,-0.460851,0.094107,0.882474,-0.009868,-0.019232,0.001834
1250,-0.460918,0.09375,0.8824770000000001,-0.0104409999999999,-0.010361,-0.002991
1251,-0.4612529999999999,0.093985,0.8822770000000001,-0.011739,-0.010794,-0.00688
1252,-0.462042,0.094397,0.88182,-0.001627,0.001947,-0.010345
1253,-0.4622949999999999,0.094989,0.881624,0.001022,0.006528,-0.009111
1254,-0.462168,0.095251,0.8816620000000001,0.001429,0.009424,-0.0082329999999999
1255,-0.461543,0.095782,0.8819319999999999,0.008311,0.015043,-0.002751
1256,-0.460913,0.095997,0.882238,0.007193,0.022091,0.00442
1257,-0.460312,0.0962,0.8825290000000001,0.007858,0.025,0.0038079999999999
1258,-0.459528,0.096722,0.8828809999999999,0.0140629999999999,0.020481,0.001732
1259,-0.459007,0.096578,0.8831680000000001,0.012764,0.015711,-0.001164
1260,-0.458329,0.096171,0.8835639999999999,0.015641,0.009404,-0.000859
1261,-0.457385,0.095486,0.884127,0.0137669999999999,-0.003857,-0.00072
1262,-0.456681,0.094738,0.8845719999999999,0.008637,-0.008327,0.00085
1263,-0.456077,0.093778,0.884986,0.004829,-0.011274,-0.000922
1264,-0.455899,0.092548,0.885207,0.003979,-0.019764,-0.002669
1265,-0.456222,0.0912159999999999,0.885178,-0.001892,-0.024734,-0.003266
1266,-0.456866,0.090002,0.88497,-0.007382,-0.024954,-0.004584
1267,-0.457825,0.089172,0.884559,-0.009659,-0.023056,-0.007789
1268,-0.459006,0.089023,0.883962,-0.011835,-0.0142389999999999,-0.007436
1269,-0.460269,0.089615,0.8832450000000001,-0.008954,0.001877,-0.008901
1270,-0.46113,0.090331,0.8827229999999999,-0.00321,0.008561,-0.007936
1271,-0.4615689999999999,0.091101,0.8824139999999999,0.001516,0.015421,-0.006834
1272,-0.461651,0.091686,0.8823110000000001,0.001263,0.016377,-0.006334
1273,-0.461547,0.092837,0.8822450000000001,0.0051719999999999,0.02461,-0.0050479999999999
1274,-0.461018,0.0938919999999999,0.882409,0.015065,0.0251419999999999,-8.499999999999999e-05
1275,-0.460345,0.094049,0.8827440000000001,0.01842,0.02465,0.003028
1276,-0.459096,0.093795,0.8834209999999999,0.020024,0.017807,0.001405
1277,-0.457596,0.093727,0.884207,0.008743,0.007378,0.001993
1278,-0.456396,0.093178,0.884884,0.014136,0.004646,0.000782
1279,-0.455403,0.092499,0.885467,0.0191229999999999,-0.005508,0.004624
1280,-0.455338,0.090951,0.885661,0.004456,-0.015984,-0.000346
1281,-0.455959,0.090373,0.8854,0.003155,-0.014628,-0.0018399999999999
1282,-0.45607,0.08991,0.88539,0.004746,-0.017552,-0.005706
1283,-0.456968,0.088379,0.8850819999999999,-0.0154139999999999,-0.024231,-0.004772
1284,-0.4578569999999999,0.088386,0.8846209999999999,-0.016676,-0.021187,-0.007729
1285,-0.458904,0.088667,0.88405,-0.0129129999999999,-0.015501,-0.01047
1286,-0.4605729999999999,0.089145,0.883134,-0.009017,0.002194,-0.010835
1287,-0.4610649999999999,0.089794,0.882811,-0.00596,0.009418,-0.010375
1288,-0.461186,0.090392,0.8826870000000001,-0.003413,0.011155,-0.0062829999999999
1289,-0.461159,0.091532,0.882584,0.0038689999999999,0.010778,-0.00029
1290,-0.461425,0.092078,0.882388,0.007048,0.011346,-0.0016809999999999
1291,-0.461559,0.092872,0.882235,0.008144,0.015618,-0.001513
1292,-0.461287,0.093619,0.8822979999999999,0.013899,0.0158169999999999,-0.003438
1293,-0.460743,0.093888,0.882553,0.0156439999999999,0.01538,-0.003266
1294,-0.459326,0.094539,0.883223,0.014105,0.011784,-0.001204
1295,-0.458077,0.09437,0.8838889999999999,0.013787,0.004278,-0.001214
1296,-0.457345,0.0939,0.884318,0.00834,0.002276,-0.000178
1297,-0.4567729999999999,0.093128,0.8846950000000001,0.005342,-0.00896,-0.001623
1298,-0.45652,0.092245,0.884919,0.003532,-0.015203,-0.001709
1299,-0.456761,0.091822,0.8848379999999999,0.003118,-0.018991,-0.003658
1300,-0.457697,0.091172,0.8844209999999999,-0.003698,-0.019883,-0.003745
1301,-0.458714,0.091207,0.883891,-0.004802,-0.015371,-0.005915
1302,-0.4597819999999999,0.091418,0.8833139999999999,-0.007183,-0.010439,-0.004972
1303,-0.461102,0.0917679999999999,0.882589,-0.006396,-0.000856,-0.0105799999999999
1304,-0.461974,0.09225,0.882083,-0.002794,0.004384,-0.009067
1305,-0.462567,0.092773,0.881717,-0.002444,0.0079659999999999,-0.009418
1306,-0.462788,0.093557,0.881518,0.001301,0.012385,-0.0090049999999999
1307,-0.462477,0.094198,0.8816129999999999,0.00543,0.011073,-0.0067959999999999
1308,-0.4616399999999999,0.09473,0.8819950000000001,0.007722,0.012753,-0.001379
1309,-0.460643,0.094973,0.88249,0.008495,0.007261,-0.001035
1310,-0.459656,0.094822,0.883021,0.006088,-0.002338,0.0012259999999999
1311,-0.4589109999999999,0.0944919999999999,0.883443,0.004855,-0.0085849999999999,0.000529
1312,-0.458576,0.094125,0.883656,0.000889,-0.009729,-0.002248
1313,-0.458678,0.09391,0.883627,-0.0016649999999999,-0.00727,-0.003805
1314,-0.459037,0.093798,0.883452,-0.0001149999999999,-0.004992,-0.004881
1315,-0.459381,0.093838,0.8832690000000001,0.0018,-0.00314,-0.00366
1316,-0.459703,0.093975,0.883086,0.001497,-0.000149,-0.00328
1317,-0.459964,0.094104,0.8829370000000001,0.004779,0.001142,-0.0070519999999999
1318,-0.4601,0.094409,0.882833,0.004366,0.005643,-0.004965
1319,-0.460158,0.09458,0.882785,0.002456,0.0034729999999999,-0.002414
1320,-0.460254,0.094796,0.882712,0.002414,0.0026309999999999,0.0015199999999999
1321,-0.460545,0.0950559999999999,0.882532,0.005177,-0.001245,0.004019
1322,-0.461314,0.095402,0.882093,0.006892,-0.000553,-0.002225
1323,-0.4621909999999999,0.095894,0.8815799999999999,0.009982,0.002876,-0.002811
1324,-0.462754,0.09636,0.881234,0.009492,0.0036149999999999,-0.008568
1325,-0.463081,0.096657,0.88103,-0.000863,0.0017929999999999,-0.007754
1326,-0.463256,0.09662,0.880942,-0.009476,0.001921,-0.009589
1327,-0.463588,0.096446,0.8807860000000001,-0.010075,0.000112,-0.009631
1328,-0.464033,0.096188,0.8805799999999999,-0.004946,-0.0019199999999999,-0.004787
1329,-0.464186,0.096146,0.8805040000000001,-0.000383,-0.0014349999999999,-0.004527
1330,-0.464406,0.096235,0.8803790000000001,0.0017289999999999,-0.003111,-0.0013039999999999
1331,-0.46412,0.096325,0.880519,0.00831,-0.0020559999999999,0.001317
1332,-0.464325,0.09652,0.88039,0.007034,-0.002373,-0.0004769999999999
1333,-0.46455,0.096719,0.880249,0.006938,-0.000452,-0.00441
1334,-0.464841,0.09687,0.8800790000000001,0.000821,-0.002266,-0.009168
1335,-0.465121,0.096941,0.879923,-0.003552,-0.001192,-0.008631
1336,-0.465458,0.096952,0.8797440000000001,-0.005657,-0.002073,-0.006712
1337,-0.4654319999999999,0.097,0.8797520000000001,-0.000678,0.001953,-0.005164
1338,-0.465275,0.097013,0.879834,-0.000179,0.003222,-0.00494
1339,-0.46486,0.09691,0.880065,0.004396,0.001982,-0.0013109999999999
1340,-0.4643779999999999,0.096852,0.880325,0.006889,0.002025,-0.003021
1341,-0.464074,0.096772,0.880494,0.009362,0.0021809999999999,-0.001924
1342,-0.463582,0.096703,0.880761,0.005514,0.001076,-0.003152
1343,-0.463401,0.096552,0.8808729999999999,0.003669,0.001623,-0.002684
1344,-0.463312,0.096356,0.880942,0.005212,9.4e-05,-0.002844
1345,-0.463218,0.096187,0.881009,0.005561,0.000188,-0.006742
1346,-0.4631369999999999,0.095989,0.881073,0.004931,0.003574,-0.003052
1347,-0.462978,0.095711,0.881187,0.005245,0.002968,-0.0055
1348,-0.462684,0.095228,0.881394,0.000266,-0.00218,-0.008164
1349,-0.462242,0.094532,0.8817010000000001,-0.0038229999999999,-0.006794,-0.006014
1350,-0.461784,0.093945,0.8820030000000001,-0.008248,-0.004803,0.002106
1351,-0.461442,0.093568,0.882222,-0.006377,-0.004778,0.002208
1352,-0.461308,0.093529,0.8822969999999999,-0.002758,-0.006508,-0.00481
1353,-0.461292,0.093627,0.882295,-0.0009119999999999,-0.004867,-0.004472
1354,-0.461326,0.09373,0.882266,0.006202,-0.000926,-0.006182
1355,-0.461454,0.093849,0.882186,0.004591,-0.0009539999999999,-0.006042
1356,-0.46152,0.09393,0.882143,0.00571,0.001239,-0.004991
1357,-0.4613489999999999,0.094,0.882225,0.006973,0.003275,-0.002907
1358,-0.460863,0.09401,0.8824780000000001,0.007204,0.00531,-0.002473
1359,-0.460147,0.093882,0.882865,0.007586,0.0055439999999999,0.000863
1360,-0.459446,0.0938389999999999,0.883235,0.005085,0.006213,-0.000102
1361,-0.458939,0.093794,0.883503,0.0025329999999999,0.001008,-0.001454
1362,-0.458689,0.09382,0.8836299999999999,0.0008029999999999,0.000388,0.0008
1363,-0.458483,0.09393,0.883725,0.00487,0.00101,-0.001004
1364,-0.458343,0.093974,0.8837940000000001,0.00479,0.000249,-0.002049
1365,-0.458316,0.093946,0.88381,0.003635,-0.001951,-0.0055899999999999
1366,-0.458331,0.093658,0.883833,-4.3e-05,-0.006179,-0.004743
1367,-0.458397,0.093596,0.883805,-0.000343,1e-06,-0.005037
1368,-0.458488,0.093567,0.883761,-0.001152,-0.000259,-0.004855
1369,-0.458563,0.093624,0.883716,0.000463,0.001957,-0.006046
1370,-0.458547,0.093693,0.883717,0.000814,0.0020559999999999,-0.005284
1371,-0.4585579999999999,0.093649,0.883716,-4.5e-05,-0.000647,-0.004215
1372,-0.4585329999999999,0.093708,0.8837229999999999,0.002555,0.000225,-0.007395
1373,-0.458287,0.093764,0.8838450000000001,0.0030559999999999,0.000779,-0.004175
1374,-0.458029,0.09375,0.8839799999999999,0.001516,0.001496,-0.004631
1375,-0.457672,0.0937289999999999,0.884167,0.005005,-0.000132,-0.003018
1376,-0.457338,0.09365,0.8843479999999999,0.005342,-0.001472,0.001425
1377,-0.457197,0.0936289999999999,0.884423,0.006193,-0.002183,-0.003381
1378,-0.457134,0.093597,0.884459,0.005337,-0.000229,-0.004866
1379,-0.457103,0.093543,0.884481,0.004542,-0.002127,-0.0033469999999999
1380,-0.457055,0.093611,0.8844989999999999,0.0018239999999999,0.001695,0.003334
1381,-0.457143,0.093733,0.88444,0.001882,0.000795,0.003545
1382,-0.4577279999999999,0.093819,0.884129,-0.000875,0.000343,-0.00449
1383,-0.458334,0.093937,0.8838020000000001,0.000692,-0.001347,-0.006468
1384,-0.458798,0.093963,0.883558,0.002606,-0.003357,-0.00804
1385,-0.4592189999999999,0.094038,0.883332,0.001577,-0.002073,-0.006806
1386,-0.459652,0.094049,0.8831049999999999,-0.001544,-0.000864,-0.005145
1387,-0.4598779999999999,0.09404,0.8829889999999999,0.0018399999999999,0.000733,-0.003045
1388,-0.459735,0.093948,0.883073,0.0044729999999999,0.001511,-0.00522
1389,-0.459462,0.093824,0.883228,0.004261,0.002917,-0.0048259999999999
1390,-0.459139,0.093802,0.8833989999999999,0.005403,0.0031379999999999,-0.001441
1391,-0.459081,0.093717,0.883438,0.002752,0.001864,0.000748
1392,-0.459209,0.093638,0.8833790000000001,0.001186,-0.001521,-7.900000000000001e-05
1393,-0.45947,0.093636,0.883244,0.000181,-0.001717,-0.001057
1394,-0.459779,0.093661,0.88308,0.003725,-0.00098,-0.002846
1395,-0.460085,0.093662,0.882921,0.003938,-0.0004309999999999,-0.003084
1396,-0.460296,0.093502,0.8828280000000001,0.005691,-0.003094,-0.007218
1397,-0.460392,0.093429,0.8827860000000001,0.002613,-0.000869,-0.005497
1398,-0.460385,0.093275,0.882806,0.001492,-0.003172,-0.004647
1399,-0.460529,0.093257,0.882732,8e-05,0.001149,-0.0047409999999999
1400,-0.460665,0.093346,0.882652,0.0015429999999999,0.002082,-0.003959
1401,-0.4606369999999999,0.093298,0.8826709999999999,0.002431,0.001062,-0.006603
1402,-0.460425,0.093127,0.8828,0.0026,-0.001696,-0.003299
1403,-0.460275,0.092987,0.882893,0.003106,-0.001282,-0.001942
1404,-0.460325,0.0930039999999999,0.882865,0.003706,-0.001634,-0.0005099999999999
1405,-0.4604979999999999,0.09307,0.882768,0.0017879999999999,-0.00225,-0.00406
1406,-0.4605649999999999,0.093092,0.8827309999999999,0.002267,-0.000822,-0.003443
1407,-0.460471,0.093059,0.882783,0.002173,-0.000789,-0.003496
1408,-0.46029,0.093075,0.882876,0.001413,-0.000881,-0.005785
1409,-0.4602189999999999,0.093072,0.882913,0.002425,0.00138,-0.007227
1410,-0.4601739999999999,0.092977,0.8829469999999999,0.00238,0.001475,-0.0072599999999999
1411,-0.459958,0.092849,0.883073,0.000974,-0.001434,-0.00055
1412,-0.459628,0.092816,0.8832479999999999,0.002093,-0.001309,0.002677
1413,-0.459684,0.092905,0.88321,0.004071,-0.0018559999999999,0.001022
1414,-0.460117,0.09316,0.882957,0.004902,0.000285,-0.002708
1415,-0.4606689999999999,0.093303,0.882654,0.002616,-0.001064,-0.007456
1416,-0.461097,0.093437,0.882417,0.004981,-0.002998,-0.009355
1417,-0.461259,0.093532,0.8823219999999999,0.002977,-0.000529,-0.010023
1418,-0.461304,0.093639,0.882287,-0.0007469999999999,0.00066,-0.004739
1419,-0.4610229999999999,0.093657,0.882432,0.001947,0.002565,-0.00464
1420,-0.460654,0.093556,0.8826350000000001,0.0018219999999999,0.000407,-0.003851
1421,-0.460181,0.093556,0.882882,0.003288,0.000331,0.0004799999999999
1422,-0.460037,0.0935759999999999,0.8829549999999999,0.005081,-0.000391,-0.000478
1423,-0.4601409999999999,0.093705,0.8828870000000001,0.0020109999999999,-0.002167,-0.001478
1424,-0.4602159999999999,0.093807,0.8828370000000001,0.003139,-0.002224,-0.001139
1425,-0.460397,0.093945,0.8827280000000001,0.000512,-0.0047729999999999,-0.003974
1426,-0.460636,0.093981,0.882599,-0.000973,-0.004595,-0.006425
1427,-0.460715,0.094021,0.8825540000000001,0.000968,-0.003521,-0.005113
1428,-0.460791,0.094236,0.882492,-0.0004669999999999,0.002032,-0.00473
1429,-0.4607779999999999,0.094453,0.882475,0.001153,0.002227,-0.005247
1430,-0.460618,0.094645,0.8825379999999999,0.000352,0.002355,-0.0039829999999999
1431,-0.460412,0.094777,0.8826309999999999,0.001565,0.003505,-0.004488
1432,-0.460334,0.094907,0.8826579999999999,0.001167,0.0006129999999999,-0.0035689999999999
1433,-0.460218,0.0950169999999999,0.882707,0.00604,0.001113,-0.002961
1434,-0.460021,0.095145,0.8827950000000001,0.006683,0.0018239999999999,-0.001372
1435,-0.459611,0.095411,0.8829809999999999,0.007279,0.002017,-0.00206
1436,-0.459493,0.0955029999999999,0.8830319999999999,0.004262,0.000582,0.0002529999999999
1437,-0.459675,0.095583,0.882928,0.002034,0.000318,-0.000711
1438,-0.460254,0.095647,0.8826200000000001,-0.004178,-0.0011949999999999,-0.0048579999999999
1439,-0.4608109999999999,0.09567,0.8823270000000001,-0.003163,-0.001935,-0.005023
1440,-0.461117,0.095686,0.882165,-0.001621,-0.001295,-0.007226
1441,-0.4611979999999999,0.095627,0.882129,0.001115,-0.003753,-0.004566
1442,-0.461063,0.0957399999999999,0.882187,0.0064129999999999,0.003061,-0.002793
1443,-0.460863,0.095871,0.8822780000000001,0.006288,0.001984,0.002869
1444,-0.460654,0.0961019999999999,0.8823620000000001,0.005835,0.002546,0.002785
1445,-0.460712,0.09627,0.8823129999999999,0.004841,-0.000949,0.0009119999999999
1446,-0.461207,0.096434,0.8820370000000001,0.004511,-0.002043,-0.004748
1447,-0.461978,0.09657,0.881618,0.004215,-0.00195,-0.004711
1448,-0.462781,0.096551,0.881199,-0.001727,-0.002176,-0.012211
1449,-0.463264,0.096645,0.880935,-0.002068,0.000188,-0.010543
1450,-0.463542,0.09659,0.8807950000000001,-0.001927,0.007063,-0.007992
1451,-0.463366,0.0966429999999999,0.8808809999999999,0.002643,0.006964,-0.0014869999999999
1452,-0.462975,0.096348,0.8811190000000001,0.004692,0.004543,-0.003617
1453,-0.462718,0.096332,0.8812559999999999,0.001109,0.00346,-0.000717
1454,-0.462514,0.096284,0.881368,0.0072069999999999,0.002212,-0.001287
1455,-0.462396,0.096177,0.8814420000000001,0.0066,0.001556,-0.001575
1456,-0.462067,0.095927,0.881642,0.007828,-0.004695,-0.004521
1457,-0.461819,0.095489,0.881819,0.003857,-0.007018,-0.002119
1458,-0.461755,0.095098,0.8818950000000001,0.0008789999999999,-0.009481,-0.003217
1459,-0.462052,0.094699,0.881782,-0.005965,-0.007831,-0.00669
1460,-0.462542,0.094384,0.881559,-0.007673,-0.004571,-0.008589
1461,-0.462505,0.094338,0.881584,-0.001545,0.001274,-0.006095
1462,-0.462277,0.094219,0.8817159999999999,0.000271,4e-06,-0.001741
1463,-0.4623649999999999,0.094212,0.8816709999999999,0.001076,0.0019489999999999,-0.004153
1464,-0.462464,0.094317,0.8816069999999999,0.003785,0.004178,-0.002304
1465,-0.46245,0.0944059999999999,0.881605,0.00548,0.004761,-0.002012
1466,-0.462064,0.094463,0.8818020000000001,0.005765,-0.000148,-0.005367
1467,-0.46158,0.094351,0.882067,0.007265,-0.000357,-0.004717
1468,-0.4609399999999999,0.094284,0.882409,0.006182,0.001754,0.000923
1469,-0.4604479999999999,0.094264,0.882667,0.007613,0.002553,-0.001488
1470,-0.460348,0.094151,0.8827309999999999,0.0044,5.7e-05,-0.001842
1471,-0.46032,0.094035,0.882759,-0.001807,-0.0002089999999999,-0.004432
1472,-0.460319,0.093941,0.882769,-0.002129,-0.0020829999999999,-0.006259
1473,-0.460344,0.0939,0.88276,-0.004804,-0.001767,-0.006509
1474,-0.460434,0.093829,0.8827209999999999,0.001755,-0.002139,-0.003617
1475,-0.460251,0.0937679999999999,0.8828229999999999,0.000793,-0.000338,-0.001231
1476,-0.4600939999999999,0.0937429999999999,0.882907,0.0011099999999999,-0.001687,0.0020559999999999
1477,-0.460358,0.09383,0.882761,0.002289,-0.0017579999999999,-0.002252
1478,-0.460833,0.093915,0.8825040000000001,0.001055,-0.004453,-0.004055
1479,-0.461151,0.093966,0.882332,0.003982,-0.004855,-0.006722
1480,-0.461259,0.0940179999999999,0.8822700000000001,0.003159,-0.001382,-0.008064
1481,-0.461109,0.094064,0.882344,-0.000393,0.002143,-0.00475
1482,-0.4607189999999999,0.094068,0.882547,0.00056,0.0033439999999999,-0.005746
1483,-0.460192,0.094213,0.882807,-0.000792,0.005625,-0.002664
1484,-0.459706,0.09421,0.8830600000000001,0.00205,0.004744,-0.001102
1485,-0.459375,0.094217,0.883232,0.003961,0.004049,-0.00138
1486,-0.45897,0.094298,0.883434,0.007843,0.0013289999999999,-0.001857
1487,-0.458654,0.094355,0.883591,0.009817,0.001394,-0.002259
1488,-0.458434,0.094284,0.883713,0.0031579999999999,-0.002991,-0.002823
1489,-0.458614,0.094174,0.883632,-0.00327,-0.004147,-0.0063729999999999
1490,-0.458908,0.094145,0.883482,-0.000275,-0.0017829999999999,-0.004042
1491,-0.459127,0.09407,0.883376,0.002462,-0.001006,-0.002822
1492,-0.45915,0.093997,0.8833719999999999,0.005507,-0.001772,-0.003809
1493,-0.4590189999999999,0.093923,0.883448,0.004323,-0.00234,-0.00561
1494,-0.458884,0.093943,0.883516,0.002051,-0.002802,-0.004762
1495,-0.458838,0.093927,0.883542,0.002493,-0.001687,-0.001202
1496,-0.4589399999999999,0.094029,0.8834780000000001,0.002748,0.001629,-0.000696
1497,-0.459128,0.094173,0.883365,0.003912,0.001103,-0.001941
1498,-0.459296,0.094497,0.883243,0.005148,0.004548,-0.0038179999999999
1499,-0.459489,0.094731,0.883117,0.005861,0.003764,-0.002349
1500,-0.4596659999999999,0.094842,0.8830129999999999,0.002604,0.000709,-0.005511
1501,-0.459732,0.094917,0.882971,-0.0007019999999999,-0.000466,-0.005148
1502,-0.459817,0.094888,0.8829299999999999,0.000496,-0.001718,-0.005778
1503,-0.459821,0.094832,0.882933,0.0009429999999999,-0.002379,-0.004622
1504,-0.459846,0.0947419999999999,0.8829299999999999,0.0025859999999999,-0.000397,-0.004192
1505,-0.459881,0.094747,0.8829110000000001,0.001446,-0.0029649999999999,-0.005638
1506,-0.459971,0.094783,0.8828600000000001,0.001811,0.000218,-0.006273
1507,-0.460035,0.094779,0.8828280000000001,0.000334,0.001153,-0.004577
1508,-0.460154,0.094833,0.88276,-0.001744,0.0005809999999999,-0.000603
1509,-0.460301,0.094848,0.8826809999999999,-0.000743,-0.002822,-0.000327
1510,-0.460636,0.094948,0.882496,0.000111,-0.004539,-0.00066
1511,-0.460963,0.095034,0.882316,0.003154,-0.000888,-0.005012
1512,-0.461276,0.095149,0.8821399999999999,0.004153,-0.002238,-0.0068349999999999
1513,-0.461442,0.0952,0.8820479999999999,0.004502,-0.00235,-0.0086959999999999
1514,-0.461293,0.095494,0.882094,0.00562,0.0059159999999999,-0.003142
1515,-0.4610479999999999,0.095621,0.882208,0.005481,0.003393,-0.002448
1516,-0.46083,0.095561,0.8823290000000001,0.00328,0.001149,-0.002873
1517,-0.4607229999999999,0.095414,0.8824,0.001876,-0.000962,-0.002289
1518,-0.4607449999999999,0.0953059999999999,0.882401,0.001791,-0.0026089999999999,-0.003784
1519,-0.460754,0.095283,0.8823979999999999,0.002731,-0.001121,-0.002241
1520,-0.4608899999999999,0.095356,0.8823190000000001,0.003264,-0.001255,-0.002986
1521,-0.461142,0.095468,0.8821760000000001,0.0032259999999999,-0.001474,-0.004078
1522,-0.461505,0.095582,0.881973,-0.000775,-0.000825,-0.005936
1523,-0.461831,0.095613,0.8818,-0.001945,-0.003603,-0.007242
1524,-0.462068,0.095644,0.8816719999999999,-0.000822,-0.003603,-0.008854
1525,-0.462342,0.09565,0.8815270000000001,-0.000701,-0.003059,-0.00404
1526,-0.4623819999999999,0.095713,0.8815,0.002711,-0.001261,-0.002029
1527,-0.462345,0.095824,0.8815069999999999,0.0033299999999999,0.001939,-0.000983
1528,-0.462315,0.0960029999999999,0.881503,0.003529,0.000859,-0.004748
1529,-0.462388,0.0961419999999999,0.88145,0.004654,0.001393,-0.002269
1530,-0.462437,0.096309,0.8814059999999999,0.005345,0.001088,-0.0004089999999999
1531,-0.4624109999999999,0.0964,0.88141,0.005746,-0.000346,-0.003602
1532,-0.4624149999999999,0.096525,0.881394,0.004071,0.000704,-0.002503
1533,-0.462518,0.096619,0.8813290000000001,0.002786,0.000244,-0.0035979999999999
1534,-0.462554,0.096706,0.881301,0.003203,0.000569,-0.005096
1535,-0.462551,0.096776,0.881295,0.0009119999999999,0.002117,-0.001702
1536,-0.462576,0.096814,0.8812780000000001,0.000967,0.000445,-0.004584
1537,-0.462703,0.0968509999999999,0.881207,-0.0003399999999999,0.00044,-0.004651
1538,-0.462912,0.096929,0.8810889999999999,0.001913,-2.1e-05,-0.004105
1539,-0.462916,0.096875,0.881093,0.000987,-0.002606,-0.00359
1540,-0.462839,0.096889,0.881131,0.00181,0.000111,-0.007154
1541,-0.462708,0.096833,0.881207,-0.000656,-0.0012369999999999,-0.002712
1542,-0.462622,0.096794,0.8812559999999999,0.000266,-0.002555,-0.0025629999999999
1543,-0.462668,0.096673,0.8812450000000001,-0.000299,-0.007287,-0.000691
1544,-0.463001,0.096509,0.8810879999999999,0.00124,-0.006604,-0.003967
1545,-0.463542,0.096594,0.8807940000000001,-9.7e-05,-0.004278,-0.004467
1546,-0.46412,0.096738,0.880474,0.001809,0.000414,-0.004528
1547,-0.464545,0.096912,0.880231,0.002798,0.000332,-0.006864
1548,-0.464794,0.09714,0.880074,0.0033369999999999,0.005399,-0.0024649999999999
1549,-0.464822,0.097331,0.8800379999999999,0.005411,0.0036509999999999,-0.003222
1550,-0.464671,0.097466,0.8801030000000001,0.005763,0.002082,-0.003531
1551,-0.464589,0.097558,0.880136,0.005162,0.0038979999999999,-0.001291
1552,-0.4645899999999999,0.097669,0.880123,0.002508,0.0026579999999999,-0.00404
1553,-0.464679,0.097811,0.8800610000000001,0.001651,0.00099,-0.006129
1554,-0.464904,0.09784,0.8799379999999999,-0.000733,-0.0028079999999999,-0.007761
1555,-0.465284,0.097694,0.879754,-0.000674,-0.005058,-0.004861
1556,-0.4655479999999999,0.097578,0.879627,0.004137,-0.002653,-0.0042299999999999
1557,-0.465971,0.097466,0.879415,-0.000505,-0.005685,-0.005056
1558,-0.466468,0.0973,0.8791700000000001,-0.000543,-0.004587,-0.005406
1559,-0.466923,0.097053,0.878956,0.002323,-0.003517,-0.006047
1560,-0.466941,0.096975,0.8789549999999999,0.0032409999999999,-0.000783,-0.003757
1561,-0.466785,0.096974,0.8790379999999999,0.003116,0.000561,-0.002985
1562,-0.466466,0.097068,0.8791969999999999,0.0029649999999999,0.003671,-0.002518
1563,-0.4659189999999999,0.097242,0.879468,0.0058969999999999,0.0069599999999999,-0.004025
1564,-0.465207,0.097423,0.8798239999999999,0.004758,0.0068099999999999,-0.0037259999999999
1565,-0.4646229999999999,0.097369,0.8801389999999999,0.0012439999999999,0.000913,-0.002942
1566,-0.464256,0.097204,0.880351,0.002372,-0.002416,-0.003093
1567,-0.464266,0.09707,0.88036,0.000948,-0.003137,-0.005009
1568,-0.464455,0.0970299999999999,0.880265,0.001305,-0.001007,-0.005097
1569,-0.464607,0.0968509999999999,0.8802049999999999,-0.00135,-0.001727,-0.006074
1570,-0.464651,0.096526,0.880217,0.0001889999999999,-0.006301,-0.005522
1571,-0.46485,0.096346,0.880132,-0.00123,-0.009264,-0.007131
1572,-0.465221,0.096327,0.8799379999999999,-0.002049,-0.006682,-0.006082
1573,-0.465467,0.096382,0.879801,-0.001604,0.001137,-0.001887
1574,-0.465231,0.096542,0.879909,0.000815,0.004746,0.00063
1575,-0.464879,0.096611,0.8800870000000001,0.003896,0.004784,-0.000494
1576,-0.464622,0.096721,0.8802110000000001,0.007362,0.002156,-0.002464
1577,-0.464362,0.096714,0.8803489999999999,0.009192,0.001598,-0.001458
1578,-0.4639649999999999,0.09669,0.880561,0.010412,0.001791,-0.003486
1579,-0.4634729999999999,0.096899,0.8807969999999999,0.006884,0.006723,-0.004515
1580,-0.462987,0.096888,0.8810540000000001,0.0056359999999999,0.004247,-0.002361
1581,-0.4624729999999999,0.09662,0.881353,0.002039,0.000594,0.0016579999999999
1582,-0.462064,0.0962529999999999,0.881608,-0.00069,-0.003037,-0.005738
1583,-0.461914,0.095875,0.8817280000000001,-0.005509,-0.002155,-0.005751
1584,-0.461866,0.095654,0.881777,-0.003802,-0.002805,-0.003832
1585,-0.461993,0.0953929999999999,0.8817379999999999,0.002459,-0.002986,-0.005869
1586,-0.461406,0.095,0.8820879999999999,0.006679,-0.007857,-0.00512
1587,-0.460896,0.094595,0.8823979999999999,0.005559,-0.007253,-0.002943
1588,-0.461042,0.094438,0.882339,0.000349,-0.001146,0.000336
1589,-0.461678,0.094398,0.8820110000000001,-0.000328,-0.002785,-0.005439
1590,-0.462063,0.0943809999999999,0.881811,-0.000843,-0.004019,-0.005987
1591,-0.4618819999999999,0.094194,0.881926,0.001936,-0.001832,-0.009062
1592,-0.461418,0.09352,0.8822399999999999,-0.007668,-0.010131,-0.012764
1593,-0.460609,0.093165,0.8827,-0.009621,-0.005259,-0.0143069999999999
1594,-0.459821,0.093028,0.883125,-0.010043,0.004201,-0.0113599999999999
1595,-0.45863,0.093475,0.883697,0.008725,0.0092319999999999,-0.0003509999999999
1596,-0.4576989999999999,0.093032,0.8842260000000001,0.009854,0.005326,-0.000773
1597,-0.4565899999999999,0.092586,0.8848469999999999,0.011247,0.000508,-0.001805
1598,-0.455154,0.09172,0.885676,0.01242,-0.010574,0.005102
1599,-0.4551729999999999,0.09144,0.8856959999999999,0.00748,-0.011774,0.007233
1600,-0.455918,0.091369,0.8853190000000001,0.004685,-0.013656,0.005367
1601,-0.456661,0.091825,0.8848889999999999,0.003353,0.006289,-0.005632
1602,-0.45687,0.092173,0.8847450000000001,0.007331,0.005453,-0.009593
1603,-0.456589,0.0922279999999999,0.884884,0.00557,0.001583,-0.0071379999999999
1604,-0.4564319999999999,0.092075,0.8849819999999999,0.0010019999999999,-0.000553,-0.002825
1605,-0.456528,0.092101,0.8849290000000001,-0.000213,0.002,-0.001934
1606,-0.457038,0.092432,0.884631,-0.0001909999999999,0.0045369999999999,-0.004077
1607,-0.457642,0.092735,0.884287,-0.000671,0.006249,-0.0076849999999999
1608,-0.457892,0.092831,0.8841479999999999,-0.003411,0.002125,-0.006783
1609,-0.458524,0.092543,0.88385,-0.006533,-0.008223,-0.008728
1610,-0.459072,0.092546,0.883566,-0.008687,-0.004167,-0.008428
1611,-0.45957,0.0926039999999999,0.8833,-0.005411,-0.000197,-0.006866
1612,-0.459703,0.09262,0.88323,0.001924,0.0002,-0.005514
1613,-0.459201,0.092645,0.8834879999999999,0.008701,0.005011,-0.002171
1614,-0.458427,0.092667,0.8838870000000001,0.011208,0.006744,-0.000281
1615,-0.45783,0.092555,0.884209,0.000905,-0.0037799999999999,-0.003456
1616,-0.457183,0.092495,0.88455,0.008895,-0.003613,0.00403
1617,-0.456846,0.092383,0.8847360000000001,0.011167,-0.0048439999999999,0.0040729999999999
1618,-0.456834,0.092311,0.88475,0.0038,-0.004024,-0.002425
1619,-0.456708,0.0920899999999999,0.8848370000000001,0.0102659999999999,-0.01514,-0.001582
1620,-0.456852,0.092003,0.8847719999999999,0.00597,-0.01014,-0.003669
1621,-0.4570399999999999,0.092316,0.884642,0.003824,0.004532,-0.006026
1622,-0.4571409999999999,0.092842,0.8845350000000001,0.003116,0.007744,-0.004652
1623,-0.457269,0.0931299999999999,0.884439,-0.002356,0.003382,-0.002038
1624,-0.4574729999999999,0.093114,0.884335,-0.0021219999999999,-0.000463,-0.002881
1625,-0.4577029999999999,0.09324,0.8842030000000001,-0.001251,0.002189,-0.004045
1626,-0.457947,0.093297,0.88407,0.00026,5.7e-05,-0.008048
1627,-0.45829,0.0932539999999999,0.8838969999999999,-0.00193,-0.0004799999999999,-0.007539
1628,-0.458433,0.093219,0.883827,-0.0013449999999999,-0.001483,-0.004402
1629,-0.45818,0.093262,0.8839530000000001,0.000676,-0.002273,-0.003933
1630,-0.457868,0.093186,0.884123,0.0062689999999999,-0.000168,-0.006086
1631,-0.4575899999999999,0.09308,0.8842780000000001,0.007532,-0.002718,-0.004456
1632,-0.4573859999999999,0.092982,0.884394,0.006367,-0.004282,-0.002207
1633,-0.457289,0.092808,0.8844620000000001,-0.000139,-0.004719,-0.000231
1634,-0.457414,0.0929379999999999,0.8843840000000001,-0.001738,0.001911,-0.005203
1635,-0.4575729999999999,0.092981,0.8842969999999999,-0.000359,0.00202,-0.008458
1636,-0.4575729999999999,0.092936,0.884302,0.0067069999999999,0.004492,-0.006357
1637,-0.457152,0.092955,0.884518,0.005339,0.004122,-0.002483
1638,-0.456665,0.09296,0.884768,0.001709,0.0052299999999999,-0.000629
1639,-0.4564819999999999,0.0930039999999999,0.884858,-0.002319,0.000548,0.002227
1640,-0.456877,0.09296,0.884659,6e-05,-0.0033759999999999,-0.00145
1641,-0.457306,0.092944,0.884439,0.001175,-0.004412,-0.003763
1642,-0.457409,0.092655,0.884416,0.002285,-0.008671,-0.010652
1643,-0.4571229999999999,0.092457,0.8845850000000001,-0.002014,-0.005299,-0.009829
1644,-0.456708,0.09244,0.8848010000000001,-0.002841,0.000791,-0.003896
1645,-0.456389,0.092483,0.8849610000000001,0.000212,0.004136,-0.003278
1646,-0.456097,0.092594,0.8851,0.0014759999999999,0.005353,-0.006346
1647,-0.455787,0.092583,0.8852610000000001,0.0034549999999999,0.0056229999999999,-0.0050729999999999
1648,-0.455298,0.092792,0.88549,0.005576,0.001385,-0.00103
1649,-0.4551479999999999,0.0927419999999999,0.8855729999999999,0.006143,-0.003737,-0.00099
1650,-0.455371,0.092806,0.885451,0.005786,-0.003374,-0.002593
1651,-0.4556189999999999,0.092773,0.8853270000000001,0.001976,-0.003921,-0.004208
1652,-0.45587,0.092658,0.88521,-0.000642,-0.005332,-0.004625
1653,-0.455889,0.092601,0.8852059999999999,-0.002073,-0.001811,-0.004393
1654,-0.456032,0.092392,0.8851549999999999,-0.004936,-0.002915,-0.0064769999999999
1655,-0.45587,0.092342,0.885243,0.000655,0.0004469999999999,-0.006352
1656,-0.455826,0.092342,0.885266,0.003311,-2.7e-05,-0.00282
1657,-0.455691,0.092475,0.8853219999999999,0.007769,0.00303,-0.000571
1658,-0.455633,0.092612,0.885337,0.010473,0.001291,-0.002601
1659,-0.455534,0.0927559999999999,0.885373,0.010023,0.001024,-0.002103
1660,-0.4556,0.092924,0.8853209999999999,0.004001,0.001726,-0.004553
1661,-0.455896,0.093098,0.885151,0.001093,0.002758,-0.00275
1662,-0.456182,0.0932549999999999,0.8849870000000001,6.6e-05,0.003348,-0.002953
1663,-0.456442,0.093388,0.8848389999999999,0.001745,0.001537,-0.005734
1664,-0.456559,0.093416,0.884776,0.003678,0.000471,-0.00503
1665,-0.4566229999999999,0.09346,0.8847379999999999,0.004078,0.002716,-0.001651
1666,-0.456772,0.093437,0.8846629999999999,0.001449,-0.0009689999999999,-0.002446
1667,-0.457064,0.093411,0.8845149999999999,0.0017879999999999,-0.0020559999999999,-0.004663
1668,-0.457359,0.093283,0.884376,0.003166,-0.0035759999999999,-0.005287
1669,-0.457439,0.093203,0.884343,-0.001255,0.0002109999999999,-0.004155
1670,-0.4575229999999999,0.093308,0.884288,-0.0032619999999999,0.001449,0.0018809999999999
1671,-0.457885,0.093365,0.8840950000000001,-0.001176,-0.000363,0.000518
1672,-0.458459,0.093444,0.8837889999999999,0.002984,-0.002501,-0.0075379999999999
1673,-0.458793,0.093415,0.883619,0.004967,-0.003694,-0.008863
