,gravity.x,gravity.y,gravity.z,userAcceleration.x,userAcceleration.y,userAcceleration.z
0,-0.078949,0.99507,0.059971,-0.033798,0.33719,0.03561
1,-0.102043,0.991925,0.075267,0.0234909999999999,0.256733,0.104878
2,-0.124324,0.987672,0.095076,0.001003,0.15721,0.14052
3,-0.1451839999999999,0.982375,0.117698,-0.01839,0.173631,0.171059
4,-0.166188,0.975546,0.143818,-0.044826,0.197535,0.130962
5,-0.186825,0.966979,0.173321,0.036099,0.1208809999999999,0.0595889999999999
6,-0.203222,0.957682,0.203807,0.076696,0.01444,0.031301
7,-0.212448,0.949135,0.232381,0.1079859999999999,-0.090507,-0.007344
8,-0.214837,0.942261,0.256867,0.1219869999999999,-0.1376339999999999,-0.005906
9,-0.2139059999999999,0.936937,0.276377,0.075326,-0.138994,0.030767
10,-0.211914,0.932947,0.291022,-0.009094,-0.122369,0.067513
11,-0.210569,0.929772,0.301955,-0.106371,-0.077858,0.08423
12,-0.21226,0.926585,0.3104449999999999,-0.143346,-0.138881,0.057552
13,-0.216029,0.923252,0.317692,-0.148244,-0.23534,0.00439
14,-0.220334,0.920103,0.323811,-0.1663079999999999,-0.2619,-0.046803
15,-0.2240909999999999,0.917495,0.328597,-0.202255,-0.245498,-0.078292
16,-0.2268369999999999,0.915739,0.331598,-0.1888119999999999,-0.2204719999999999,-0.057351
17,-0.227538,0.915131,0.332792,-0.177995,-0.2100989999999999,-0.050336
18,-0.2248219999999999,0.915613,0.333312,-0.1537329999999999,-0.171915,-0.0092459999999999
19,-0.219696,0.916154,0.335237,-0.1158599999999999,-0.1229869999999999,0.010939
20,-0.213965,0.916307,0.338511,-0.101632,-0.124452,0.012151
21,-0.207653,0.916356,0.342287,-0.060001,-0.126332,0.044081
22,-0.200486,0.916847,0.345233,-0.001251,-0.1313089999999999,0.027997
23,-0.191975,0.918538,0.345574,0.086628,-0.12293,-0.022256
24,-0.182418,0.921553,0.342712,0.170653,-0.101012,-0.0665429999999999
25,-0.172338,0.925767,0.336518,0.206121,-0.046158,-0.0384829999999999
26,-0.162882,0.930591,0.327809,0.253565,0.003904,-0.008504
27,-0.155115,0.935676,0.316921,0.280115,0.044763,0.031025
28,-0.149197,0.940579,0.3050219999999999,0.330563,0.242831,0.063966
29,-0.146302,0.945058,0.292315,0.33426,0.387858,0.045225
30,-0.1461329999999999,0.949487,0.27768,0.252288,0.5727909999999999,-0.032365
31,-0.148233,0.954267,0.259596,0.206171,0.547778,-0.427565
32,-0.147047,0.957851,0.24675,0.015638,0.156879,-0.429551
33,-0.142598,0.960466,0.23908,-0.119197,-0.072938,-0.340246
34,-0.137696,0.962904,0.23204,-0.063979,0.061265,-0.262817
35,-0.133724,0.964731,0.2267159999999999,0.025539,0.122396,-0.222398
36,-0.1287319999999999,0.966445,0.222261,0.094309,0.0867769999999999,-0.173814
37,-0.1233339999999999,0.96897,0.214184,0.170377,0.033319,-0.107205
38,-0.119474,0.971457,0.204903,0.170408,0.016961,-0.100228
39,-0.117564,0.973518,0.1960339999999999,0.100215,0.054009,-0.102224
40,-0.118122,0.975032,0.188013,0.0800049999999999,0.074498,-0.084299
41,-0.121243,0.975827,0.181802,0.046414,0.099476,-0.087014
42,-0.125564,0.976064,0.177543,0.023605,-0.027944,-0.125617
43,-0.128708,0.976266,0.174152,0.026184,-0.049203,-0.1168559999999999
44,-0.130349,0.976569,0.171207,0.032968,-0.064719,-0.103717
45,-0.130662,0.977273,0.166895,0.043351,-0.08265,-0.1151369999999999
46,-0.131294,0.977942,0.16242,0.027977,-0.070701,-0.125722
47,-0.1316119999999999,0.978617,0.158043,0.013478,-0.047068,-0.120293
48,-0.131346,0.979253,0.154276,0.017424,-0.024297,-0.062434
49,-0.131454,0.979612,0.151887,0.041656,-0.0216349999999999,-0.008485
50,-0.13247,0.979695,0.1504619999999999,0.0394529999999999,0.004848,0.0359089999999999
51,-0.135367,0.97916,0.151367,-0.004907,0.113232,0.031235
52,-0.140552,0.977944,0.154465,-0.026242,0.1439119999999999,-0.010971
53,-0.1469089999999999,0.976174,0.159659,0.009564,-0.0054399999999999,-0.017996
54,-0.152204,0.974118,0.1670849999999999,0.0132419999999999,-0.1128049999999999,-0.047486
55,-0.155817,0.972021,0.175741,0.0012,-0.195181,-0.063437
56,-0.157613,0.97015,0.184275,-0.015635,-0.170681,-0.098063
57,-0.158251,0.968631,0.191572,-0.049543,-0.166156,-0.122816
58,-0.158447,0.967271,0.19817,-0.092102,-0.117814,-0.068272
59,-0.1599,0.965615,0.204959,-0.129742,-0.06675,-0.0465579999999999
60,-0.16412,0.962864,0.214351,-0.1366,-0.071522,0.041981
61,-0.172424,0.958774,0.225858,-0.1050869999999999,-0.11684,0.049762
62,-0.1826009999999999,0.953101,0.241338,-0.060746,-0.077292,0.062495
63,-0.194372,0.945712,0.260456,-0.0064329999999999,-0.095889,0.020138
64,-0.207715,0.936977,0.28092,0.013517,-0.095715,-0.042242
65,-0.22345,0.927845,0.2986,0.048065,-0.072208,-0.085664
66,-0.239717,0.919048,0.312848,0.055299,-0.089016,-0.047864
67,-0.254714,0.910205,0.326551,0.023895,-0.24689,-0.041227
68,-0.267311,0.901118,0.341348,0.039925,-0.176219,0.00379
69,-0.279398,0.8919469999999999,0.355463,0.004877,-0.054682,0.0183009999999999
70,-0.293663,0.882595,0.367118,-0.06504,-0.027798,-0.000998
71,-0.308919,0.872618,0.378279,-0.11082,0.1055619999999999,-0.009413
72,-0.325188,0.861669,0.389573,-0.073555,0.1420539999999999,-0.011765
73,-0.3416099999999999,0.84985,0.401303,-0.033359,0.053195,0.006091
74,-0.356783,0.836987,0.4149029999999999,0.086077,0.017016,-0.0024129999999999
75,-0.370814,0.822728,0.430816,0.115977,-0.069798,-0.0213919999999999
76,-0.383689,0.808231,0.446692,0.058784,0.017377,-0.0072689999999999
77,-0.3976929999999999,0.7941020000000001,0.459599,0.032611,-0.004261,-0.050663
78,-0.410315,0.780041,0.472404,0.0035,0.038731,-0.038261
79,-0.4235489999999999,0.7651180000000001,0.484961,0.015316,-0.017346,-0.046912
80,-0.436,0.749409,0.498272,0.0641279999999999,0.0223949999999999,-0.039074
81,-0.449112,0.7330760000000001,0.510767,0.068924,0.0616009999999999,-0.0268029999999999
82,-0.462021,0.71595,0.5233899999999999,0.075318,0.144722,-0.0331399999999999
83,-0.4743529999999999,0.697707,0.536825,0.1138329999999999,0.133958,-0.028585
84,-0.4869239999999999,0.678357,0.5502020000000001,0.086854,0.065296,-0.04358
85,-0.498411,0.657434,0.565112,0.07475,0.028448,-0.061557
86,-0.5097229999999999,0.634953,0.580519,0.041004,0.078838,-0.057539
87,-0.521928,0.60937,0.596861,0.009477,0.034016,0.0249199999999999
88,-0.534045,0.580092,0.615039,-0.017133,0.0447399999999999,0.1215789999999999
89,-0.544725,0.5467350000000001,0.635876,-0.008467,0.099856,0.17432
90,-0.551334,0.509247,0.660818,-0.186154,0.317153,0.434198
91,-0.549329,0.468785,0.69171,-0.682757,0.1948349999999999,0.528307
92,-0.537058,0.437488,0.721218,-0.6931970000000001,-0.107669,0.29784
93,-0.533852,0.421001,0.733309,-0.225608,-0.19508,0.145978
94,-0.537371,0.4132159999999999,0.735165,-0.0411819999999999,-0.239861,0.046924
95,-0.5447810000000001,0.407037,0.733156,-0.009373,-0.259851,-0.029146
96,-0.555135,0.402338,0.727965,-0.1090039999999999,-0.271296,-0.082945
97,-0.566716,0.3991409999999999,0.720766,-0.145213,-0.210817,-0.036485
98,-0.577248,0.396828,0.71365,-0.129539,-0.167565,-0.034161
99,-0.585333,0.393631,0.7088180000000001,-0.024134,-0.0941169999999999,-0.007845
100,-0.5902430000000001,0.387596,0.708072,0.0449699999999999,-0.058967,0.012967
101,-0.5930880000000001,0.379053,0.710316,0.091775,-0.007364,-0.027424
102,-0.5937720000000001,0.370139,0.714433,0.086631,0.041788,-0.048204
103,-0.5922729999999999,0.361966,0.7198439999999999,0.052554,0.044925,-0.032253
104,-0.590458,0.354626,0.72497,-0.0002399999999999,0.0694159999999999,0.025991
105,-0.588989,0.3482679999999999,0.7292350000000001,-0.040574,0.098509,0.0624059999999999
106,-0.588595,0.3433719999999999,0.73187,-0.0547919999999999,0.111721,0.052569
107,-0.58992,0.33916,0.732766,-0.016876,0.084226,0.019599
108,-0.592097,0.335794,0.73256,0.051585,0.009741,-0.009492
109,-0.594433,0.332216,0.7323,0.064465,-0.011538,-0.0122069999999999
110,-0.596577,0.329401,0.731827,0.074406,-0.028223,-0.001343
111,-0.598112,0.3275369999999999,0.731412,0.067335,-0.060463,-0.010587
112,-0.598402,0.324125,0.732694,0.0583929999999999,-0.0834169999999999,-0.020231
113,-0.597282,0.3191449999999999,0.735788,0.026527,-0.133109,-0.0086909999999999
114,-0.5952930000000001,0.3140239999999999,0.739592,-0.049421,-0.151946,0.019106
115,-0.593336,0.310264,0.742745,-0.083239,-0.104698,0.036995
116,-0.592155,0.307435,0.7448600000000001,-0.092949,-0.064469,0.027524
117,-0.592056,0.304201,0.746266,-0.082871,-0.014253,0.043697
118,-0.592665,0.300392,0.747324,-0.028642,-0.007088,0.041022
119,-0.5942850000000001,0.297106,0.74735,0.027696,-0.001772,0.0258279999999999
120,-0.598124,0.2952599999999999,0.745016,0.05778,-0.025287,-0.004262
121,-0.603085,0.295308,0.740987,0.073818,-0.040989,-0.00565
122,-0.6048939999999999,0.297097,0.738794,0.132268,-0.017632,0.054922
123,-0.606166,0.299026,0.73697,0.0707049999999999,0.0145569999999999,0.021361
124,-0.60711,0.300154,0.735733,0.0527889999999999,0.034349,-0.000153
125,-0.607055,0.3011,0.7353930000000001,0.041488,0.0564289999999999,0.044392
126,-0.6079979999999999,0.301294,0.734533,-0.018848,0.144918,0.017863
127,-0.609109,0.300318,0.734013,-0.071616,0.153784,-0.023106
128,-0.611533,0.299211,0.732448,-0.087381,0.0623769999999999,-0.047435
129,-0.615317,0.298906,0.729396,-0.069208,-0.006014,-0.040538
130,-0.618747,0.300221,0.725947,-0.008862,-0.0652659999999999,-0.01208
131,-0.6210479999999999,0.301224,0.723563,0.005447,-0.071244,-0.0344
132,-0.621188,0.301421,0.72336,0.027469,-0.028533,-0.014681
133,-0.620134,0.2994699999999999,0.725072,0.044405,0.002654,-0.058858
134,-0.615784,0.295724,0.7303,0.05806,0.009208,-0.0827929999999999
135,-0.60417,0.289916,0.7422310000000001,0.151838,-0.034666,-0.153227
136,-0.5808,0.28419,0.7628149999999999,-0.015346,-0.123057,0.079485
137,-0.558191,0.282066,0.780283,-0.17417,-0.030128,0.173651
138,-0.555383,0.28348,0.7817729999999999,-0.312247,0.023816,0.105724
139,-0.564635,0.285693,0.774304,-0.248766,0.025434,0.069324
140,-0.576422,0.285971,0.765467,-0.095499,-0.009634,0.018057
141,-0.588418,0.283776,0.7571100000000001,0.065484,-0.019234,-0.055725
142,-0.597017,0.28228,0.750913,0.109895,-0.018791,-0.064832
143,-0.602058,0.2833179999999999,0.7464850000000001,0.135368,-0.015175,-0.069376
144,-0.604549,0.285977,0.743451,0.148891,-0.001553,-0.045453
145,-0.603182,0.288202,0.7437020000000001,0.130846,-0.002725,-0.007252
146,-0.598586,0.2884239999999999,0.747321,0.028411,0.005857,0.055749
147,-0.5928829999999999,0.28731,0.752279,-0.011747,0.006132,0.0356089999999999
148,-0.588611,0.286165,0.7560600000000001,-0.0232509999999999,-0.002367,0.0107549999999999
149,-0.586209,0.285977,0.757995,-0.030581,-0.019193,0.013138
150,-0.586182,0.2857449999999999,0.758104,-0.0073849999999999,-0.0048909999999999,0.02986
151,-0.587245,0.285004,0.75756,0.004619,0.0016469999999999,0.030938
152,-0.588349,0.283742,0.757177,0.024049,0.009044,0.0241949999999999
153,-0.589333,0.282037,0.7570479999999999,0.075844,0.008506,-0.012084
154,-0.589817,0.280413,0.757274,0.062672,0.006192,-0.016093
155,-0.5898939999999999,0.2791619999999999,0.757676,0.049184,0.009183,-0.007478
156,-0.5887359999999999,0.278512,0.758814,0.023291,0.0265259999999999,-0.012766
157,-0.586911,0.27804,0.7604,0.001049,0.034552,-0.025506
158,-0.585192,0.277217,0.762023,-0.008406,0.033894,-0.02983
159,-0.5834090000000001,0.276198,0.763758,-0.023509,0.009187,-0.013712
160,-0.581755,0.275007,0.7654479999999999,-0.02199,-0.0052619999999999,-0.013403
161,-0.580177,0.27365,0.76713,-0.01281,-0.006529,-0.009455
162,-0.57895,0.272792,0.768361,0.007905,-0.011287,-0.004628
163,-0.577964,0.272158,0.7693270000000001,0.019523,-0.017092,0.0080629999999999
164,-0.577412,0.271684,0.7699090000000001,0.015736,-0.028382,0.013279
165,-0.5773149999999999,0.271373,0.770092,0.006148,-0.034633,0.023258
166,-0.577238,0.271054,0.770262,-0.002062,-0.040524,0.030824
167,-0.576969,0.270351,0.770712,-0.009594,-0.029613,0.020075
168,-0.576721,0.269428,0.77122,-0.00917,-0.020541,-0.002742
169,-0.576685,0.268803,0.771465,-0.003942,-0.009556,-0.012203
170,-0.576871,0.268549,0.771415,0.00163,-0.001596,-0.002341
171,-0.577242,0.268523,0.771145,0.005206,0.002031,0.006351
172,-0.577811,0.2686389999999999,0.770679,-0.0019309999999999,-0.003106,0.004392
173,-0.578601,0.26899,0.7699630000000001,-0.009274,-0.007653,0.008327
174,-0.580117,0.269334,0.768701,-0.013267,-0.015657,0.004722
175,-0.581947,0.269754,0.7671680000000001,-0.009071,-0.0021609999999999,-0.0068379999999999
176,-0.5843149999999999,0.270259,0.765188,-0.005513,0.005803,-0.001577
177,-0.587428,0.270788,0.762613,0.019267,0.0114849999999999,0.00138
178,-0.5905189999999999,0.27119,0.7600779999999999,0.0415839999999999,0.026479,-0.0053479999999999
179,-0.592835,0.271603,0.758125,0.028886,-0.017361,-0.015068
180,-0.593896,0.271796,0.7572260000000001,0.029153,-0.007377,-0.015649
181,-0.593666,0.271901,0.757368,0.010964,-0.010823,-0.008222
182,-0.592746,0.271804,0.758123,0.004718,0.001603,-0.002447
183,-0.59153,0.271369,0.759228,0.006706,-0.001228,-0.009502
184,-0.5899810000000001,0.270912,0.760594,0.003967,-0.000679,-0.009511
185,-0.588076,0.270413,0.762245,-0.008833,-0.001477,-0.005241
186,-0.586071,0.269909,0.763965,-0.016712,-0.000118,-0.011219
187,-0.583918,0.269326,0.765817,-0.020009,-0.0025559999999999,-0.0136199999999999
188,-0.581568,0.268585,0.767864,-0.02358,0.002045,-0.0156509999999999
189,-0.579004,0.267565,0.7701520000000001,-0.02532,-0.00075,-0.011608
190,-0.5763560000000001,0.266325,0.772565,-0.0169969999999999,0.001284,0.002612
191,-0.574184,0.265027,0.774625,-0.008793,-0.008282,0.010745
192,-0.573019,0.263805,0.775904,-0.004053,-0.012111,0.016332
193,-0.572712,0.262984,0.776409,0.003392,-0.0132129999999999,0.010319
194,-0.572924,0.262492,0.776419,0.0080439999999999,-0.010966,0.008722
195,-0.573176,0.2620949999999999,0.7763680000000001,0.006648,-0.007731,0.007628
196,-0.573395,0.261725,0.776331,0.0118409999999999,-0.011557,0.006964
197,-0.5734670000000001,0.261426,0.776379,0.0135,-0.015637,0.009632
198,-0.573327,0.261231,0.7765479999999999,0.011773,-0.012161,0.013643
199,-0.5732430000000001,0.261094,0.7766569999999999,0.003037,-0.011109,0.013749
200,-0.57339,0.2610719999999999,0.776555,0.002941,-0.005258,0.0050609999999999
201,-0.573781,0.261212,0.776219,0.013524,-0.002209,-0.004292
202,-0.5742430000000001,0.261578,0.775755,0.01008,-0.001125,-0.00308
203,-0.5745640000000001,0.261946,0.775393,0.008264,0.000597,-0.002932
204,-0.574775,0.262194,0.775153,0.001777,-0.0016809999999999,-0.0026149999999999
205,-0.5749340000000001,0.2624579999999999,0.774946,-0.007097,0.000512,-0.003125
206,-0.575073,0.262639,0.774782,-0.006837,0.0016129999999999,-0.0039229999999999
207,-0.575226,0.262773,0.774622,-0.004043,0.000274,-0.004115
208,-0.5754859999999999,0.262872,0.774396,-0.00331,-0.0061579999999999,-0.001691
209,-0.575805,0.262997,0.774117,-0.004746,-0.008526,-0.0012289999999999
210,-0.57624,0.263178,0.773732,-0.005868,-0.010721,-0.002385
211,-0.5767100000000001,0.263414,0.773302,-0.003658,-0.0084549999999999,-0.00226
212,-0.5771609999999999,0.263682,0.772874,-0.004809,-0.009409,-0.000841
213,-0.577634,0.263887,0.772451,-0.007845,-0.010637,-0.004705
214,-0.578067,0.264024,0.77208,-0.003614,-0.007402,-0.002946
215,-0.578436,0.264178,0.7717510000000001,2.1e-05,-0.006701,-0.000847
216,-0.578808,0.26426,0.7714439999999999,0.007595,-0.00689,-0.002539
217,-0.579137,0.264352,0.771166,0.007787,-0.005319,-0.0006889999999999
218,-0.579441,0.264417,0.770915,0.00806,-0.005994,-0.001704
219,-0.579696,0.264459,0.770709,0.0102069999999999,-0.007608,-0.000308
220,-0.579784,0.264515,0.770623,0.005199,-0.003987,0.002707
221,-0.579922,0.264561,0.770504,0.005246,-0.000294,0.000416
222,-0.580154,0.2646699999999999,0.770291,0.007248,-0.004095,-0.001325
223,-0.580341,0.264782,0.770112,0.0098459999999999,-0.0071379999999999,0.001143
224,-0.580475,0.264837,0.769993,0.012527,-0.009771,0.001171
225,-0.580518,0.264855,0.769954,0.010053,-0.01014,0.003728
226,-0.580508,0.264825,0.769971,0.004367,-0.009378,0.002551
227,-0.5805,0.264757,0.770001,0.002085,-0.008578,-0.000882
228,-0.580518,0.264701,0.770007,0.002378,-0.009528,-0.003177
229,-0.5805520000000001,0.264675,0.76999,0.00316,-0.005718,-0.0035259999999999
230,-0.580486,0.264675,0.77004,0.004192,-0.006802,-0.0004019999999999
231,-0.5803659999999999,0.264629,0.770146,0.002531,-0.0068769999999999,-0.0023239999999999
232,-0.580126,0.264516,0.770366,0.002581,-0.004079,-0.002315
233,-0.579804,0.264421,0.770641,0.001541,-0.003618,-0.00349
234,-0.579464,0.264323,0.77093,0.001171,-0.002467,-0.003093
235,-0.5791350000000001,0.264248,0.771203,-0.003964,-0.004833,-0.0035789999999999
236,-0.578816,0.264189,0.771463,-0.002941,-0.004377,-0.001398
237,-0.5785239999999999,0.2640969999999999,0.771713,-0.003339,-0.005049,-0.0017239999999999
238,-0.578234,0.264,0.771964,-0.004117,-0.00541,-0.001639
239,-0.577975,0.263911,0.772188,-0.000592,-0.0044659999999999,-0.002092
240,-0.577674,0.263836,0.772439,-0.000176,-0.006573,-0.0005269999999999
241,-0.577375,0.26377,0.772686,-0.001712,-0.0075439999999999,-0.000576
242,-0.577087,0.263687,0.772929,0.005691,-0.006592,0.0022329999999999
243,-0.576746,0.2636,0.773213,0.00329,-0.006398,-0.0003399999999999
244,-0.5764090000000001,0.263516,0.773492,0.004052,-0.005459,0.00228
245,-0.576097,0.2634559999999999,0.773745,0.001772,-0.006864,0.000547
246,-0.575846,0.263412,0.773947,0.001902,-0.006576,0.000529
247,-0.575657,0.263399,0.774092,0.0017579999999999,-0.009172,-0.001448
248,-0.5754739999999999,0.26341,0.774224,0.002659,-0.0091069999999999,0.00074
249,-0.575212,0.263415,0.774417,0.0049299999999999,-0.007556,0.00166
250,-0.575079,0.263415,0.774516,0.003714,-0.005343,0.001607
251,-0.574976,0.26344,0.7745850000000001,0.003961,-0.0069549999999999,0.000104
252,-0.5749,0.263464,0.774633,0.0016879999999999,-0.006903,-0.001393
253,-0.574821,0.263494,0.7746810000000001,0.005012,-0.008886,-0.002235
254,-0.5747260000000001,0.263494,0.774751,0.004017,-0.007955,2.9e-05
255,-0.5746100000000001,0.2634599999999999,0.774849,0.001963,-0.009859,0.000587
256,-0.574513,0.263418,0.774935,0.0037119999999999,-0.007834,-0.0013449999999999
257,-0.5744100000000001,0.263394,0.775019,0.001199,-0.008496,-0.000987
258,-0.574283,0.263343,0.775131,0.000324,-0.006934,7.6e-05
259,-0.574178,0.263309,0.77522,0.000753,-0.006199,0.000629
260,-0.574042,0.263334,0.775312,0.001929,-0.007825,-0.000486
261,-0.573914,0.263357,0.775399,0.00145,-0.007498,0.000663
262,-0.573797,0.263382,0.7754770000000001,0.0009369999999999,-0.006637,-0.001048
263,-0.5736979999999999,0.263426,0.775536,0.000562,-0.0073219999999999,-0.000145
264,-0.573539,0.263476,0.775637,0.001334,-0.007601,-0.000262
265,-0.5733590000000001,0.263502,0.7757609999999999,0.0020239999999999,-0.008909,2.6e-05
266,-0.5731569999999999,0.263533,0.7759,0.002859,-0.011763,-0.00228
267,-0.5729350000000001,0.263534,0.7760640000000001,0.003279,-0.009506,0.000227
268,-0.572721,0.263544,0.7762180000000001,0.002043,-0.009882,-0.001499
269,-0.572519,0.263555,0.776364,0.002054,-0.0092819999999999,0.000278
270,-0.572394,0.263542,0.77646,0.001014,-0.007256,0.0017079999999999
271,-0.572268,0.263575,0.776542,0.000277,-0.00828,0.001961
272,-0.57221,0.26361,0.776572,0.00347,-0.006286,0.001138
273,-0.57219,0.2636739999999999,0.776565,0.003266,-0.007814,0.000489
274,-0.572137,0.263734,0.776584,0.0039,-0.010469,0.00343
275,-0.5721149999999999,0.26381,0.776575,0.0019089999999999,-0.007325,-2.4e-05
276,-0.572112,0.263848,0.776563,0.001037,-0.007546,-0.001676
277,-0.572124,0.263911,0.776533,0.000377,-0.011225,-0.005018
278,-0.5720310000000001,0.263969,0.7765810000000001,0.001307,-0.005943,-0.0012519999999999
279,-0.571976,0.263998,0.776612,0.003083,-0.006765,0.00064
280,-0.5719810000000001,0.2640429999999999,0.776593,0.004354,-0.006429,0.00098
281,-0.571968,0.264111,0.77658,-0.000496,-0.008923,-6e-05
282,-0.571979,0.264175,0.77655,0.000263,-0.011031,0.000199
283,-0.571967,0.264246,0.7765350000000001,0.000999,-0.009378,0.00026
284,-0.571976,0.264279,0.776517,0.001663,-0.009717,-0.0010199999999999
285,-0.571997,0.264245,0.776513,0.0026149999999999,-0.011621,0.0016239999999999
286,-0.571987,0.264283,0.776508,0.0032,-0.010087,0.001248
287,-0.571965,0.264321,0.776511,0.004384,-0.009819,0.000574
288,-0.571934,0.264349,0.776524,0.001285,-0.009146,-0.0006
289,-0.571913,0.264404,0.776521,0.001601,-0.008163,1.4e-05
290,-0.571905,0.264462,0.776507,0.004232,-0.0106629999999999,-0.000552
291,-0.571894,0.2645409999999999,0.776488,0.001932,-0.009994,0.000367
292,-0.571887,0.2646469999999999,0.776458,0.001284,-0.010786,0.000504
293,-0.571868,0.264717,0.7764479999999999,0.0036,-0.009803,7.2e-05
294,-0.571865,0.264792,0.776425,0.000881,-0.009772,0.0020329999999999
295,-0.5718,0.264853,0.776452,0.002418,-0.011481,0.000541
296,-0.5717840000000001,0.26491,0.7764439999999999,0.001777,-0.010378,0.00093
297,-0.571812,0.264962,0.776406,0.003453,-0.010751,0.001182
298,-0.571854,0.265005,0.776361,0.003235,-0.010687,-0.000665
299,-0.571864,0.26506,0.776334,0.002483,-0.0097349999999999,-1.3e-05
300,-0.571866,0.265084,0.776325,0.002835,-0.009117,0.000683
301,-0.5718840000000001,0.265132,0.776295,0.003311,-0.009014,0.001232
302,-0.5718840000000001,0.265214,0.776267,0.002716,-0.008775,0.002724
303,-0.571886,0.26526,0.77625,0.0033439999999999,-0.008851,0.002192
304,-0.5718989999999999,0.265308,0.776224,0.002654,-0.010319,0.001302
305,-0.571919,0.2654,0.7761779999999999,0.000782,-0.012333,0.002142
306,-0.5719380000000001,0.265466,0.776141,0.0015949999999999,-0.012276,0.00047
307,-0.571955,0.265517,0.776111,0.003047,-0.012465,-0.001529
308,-0.571926,0.265538,0.776126,0.0033829999999999,-0.014057,0.001584
309,-0.57181,0.265565,0.7762020000000001,0.001085,-0.008439,0.001645
310,-0.57181,0.265585,0.776195,0.00519,-0.0079099999999999,0.003041
311,-0.571855,0.265654,0.776138,0.004274,-0.00807,0.001664
312,-0.571928,0.265727,0.7760600000000001,0.004728,-0.009913,0.003573
313,-0.5719850000000001,0.2657989999999999,0.775993,0.001718,-0.011252,0.003106
314,-0.5720430000000001,0.265843,0.775935,0.0022949999999999,-0.011128,0.000128
315,-0.5720770000000001,0.265882,0.775896,0.002817,-0.010358,0.001967
316,-0.572113,0.265899,0.775864,0.003967,-0.013091,0.000839
317,-0.5721470000000001,0.265926,0.775829,0.001971,-0.012081,0.000691
318,-0.572185,0.265951,0.775792,0.003245,-0.013265,0.004253
319,-0.572199,0.265989,0.775768,0.004846,-0.010328,0.001209
320,-0.57222,0.266033,0.775737,0.0015869999999999,-0.0110739999999999,0.00179
321,-0.572229,0.2661139999999999,0.775702,-0.000433,-0.011612,0.001382
322,-0.572235,0.266175,0.7756770000000001,0.001617,-0.009507,0.001118
323,-0.572235,0.26627,0.775644,0.001892,-0.011082,-0.001246
324,-0.572231,0.266346,0.775621,0.003338,-0.011738,0.002516
325,-0.5722109999999999,0.266412,0.775614,0.003852,-0.012567,0.003561
326,-0.572154,0.2664849999999999,0.77563,0.003627,-0.012716,0.001439
327,-0.572129,0.266543,0.775628,0.002992,-0.012301,0.001776
328,-0.5720810000000001,0.266612,0.775641,0.000426,-0.01176,0.002618
329,-0.572045,0.26661,0.775668,0.002648,-0.0123069999999999,0.000424
330,-0.572042,0.266658,0.775654,0.003988,-0.010936,0.0037799999999999
331,-0.572062,0.266744,0.77561,0.003489,-0.011144,0.0018859999999999
332,-0.572066,0.266806,0.775586,0.005019,-0.011969,0.0030859999999999
333,-0.572068,0.266898,0.7755529999999999,0.004944,-0.011542,0.002478
334,-0.572066,0.267015,0.775513,0.003447,-0.010714,0.001739
335,-0.57208,0.267123,0.775466,0.0036899999999999,-0.0114159999999999,0.004609
336,-0.572072,0.267217,0.77544,0.0037579999999999,-0.011373,0.001797
337,-0.5720890000000001,0.267287,0.775403,0.001898,-0.012634,0.0002009999999999
338,-0.5721109999999999,0.267366,0.775359,0.004072,-0.014329,0.001771
339,-0.572136,0.2674539999999999,0.77531,0.003715,-0.017103,0.001286
340,-0.572087,0.267546,0.775315,0.002705,-0.015745,0.002395
341,-0.572092,0.2675949999999999,0.775293,0.002482,-0.011858,0.005804
342,-0.572171,0.267713,0.775195,0.00404,-0.011228,0.002408
343,-0.572295,0.267874,0.775047,0.000106,-0.0114799999999999,0.002281
344,-0.5724640000000001,0.268023,0.774872,0.0028829999999999,-0.013308,0.004868
345,-0.572643,0.268142,0.774699,0.00288,-0.0129539999999999,0.003759
346,-0.572836,0.268235,0.774524,0.004797,-0.012513,0.001126
347,-0.573017,0.268328,0.774358,0.004642,-0.012758,0.002299
348,-0.573172,0.26838,0.774225,0.004385,-0.013208,0.0003259999999999
349,-0.573277,0.268426,0.774131,0.005208,-0.011652,0.003991
350,-0.573365,0.268528,0.774031,0.0031739999999999,-0.012043,0.003725
351,-0.573458,0.268648,0.7739199999999999,0.0042439999999999,-0.01195,0.002813
352,-0.573561,0.268743,0.7738109999999999,0.003065,-0.013341,0.002129
353,-0.573647,0.268909,0.7736890000000001,0.002923,-0.013386,0.003411
354,-0.5737680000000001,0.2690659999999999,0.7735449999999999,0.0022949999999999,-0.0138319999999999,0.002959
355,-0.573894,0.26923,0.7733939999999999,0.0033979999999999,-0.013553,0.002362
356,-0.574002,0.269377,0.773263,0.004315,-0.016615,0.001807
357,-0.5740930000000001,0.269505,0.773151,0.005367,-0.012852,0.002118
358,-0.574168,0.269627,0.7730520000000001,0.006266,-0.0134169999999999,0.001484
359,-0.574259,0.2697199999999999,0.772953,0.004556,-0.0134639999999999,0.004086
360,-0.5743779999999999,0.269817,0.77283,0.004676,-0.012203,0.005688
361,-0.574538,0.269927,0.7726729999999999,0.007353,-0.012969,0.0034649999999999
362,-0.574708,0.270081,0.772493,0.006333,-0.014084,0.002577
363,-0.57484,0.270189,0.772357,0.003993,-0.012315,0.003186
364,-0.5750069999999999,0.270321,0.772187,0.004038,-0.013409,0.0035549999999999
365,-0.575158,0.270452,0.772029,0.005043,-0.014486,0.003133
366,-0.575304,0.27058,0.771874,0.002886,-0.014339,0.001105
367,-0.57543,0.270716,0.771733,0.00469,-0.015193,0.007076
368,-0.575587,0.270854,0.771568,0.004405,-0.014552,0.004128
369,-0.575752,0.270965,0.771406,0.0033799999999999,-0.014983,0.003725
370,-0.575868,0.271049,0.7712899999999999,0.005174,-0.019646,0.000408
371,-0.575908,0.271148,0.771226,0.0050609999999999,-0.016281,0.004028
372,-0.575883,0.271231,0.771216,-0.000243,-0.011679,0.003961
373,-0.5760310000000001,0.271359,0.771059,0.000226,-0.010251,0.00543
374,-0.576244,0.271518,0.770844,0.0023,-0.011814,0.001601
375,-0.576465,0.271646,0.770634,0.00539,-0.012888,0.003032
376,-0.576673,0.271731,0.7704489999999999,0.005201,-0.01636,0.001798
377,-0.576847,0.271819,0.7702869999999999,0.00571,-0.013747,0.003593
378,-0.5769890000000001,0.271894,0.770155,0.006279,-0.016279,0.005404
379,-0.577062,0.271949,0.77008,0.004217,-0.0140759999999999,0.003098
380,-0.577199,0.271988,0.769964,0.005407,-0.016708,0.0041909999999999
381,-0.577331,0.272077,0.769834,0.003478,-0.014646,0.005023
382,-0.5774590000000001,0.2721949999999999,0.769696,0.003531,-0.014855,0.002796
383,-0.5775600000000001,0.2723,0.769583,0.002227,-0.0148389999999999,0.001993
384,-0.5776220000000001,0.272337,0.769524,0.001694,-0.0142199999999999,0.002434
385,-0.577702,0.272418,0.7694340000000001,0.0033159999999999,-0.012637,0.004079
386,-0.577789,0.272545,0.769325,0.0034939999999999,-0.0134659999999999,0.003426
387,-0.577883,0.272644,0.769219,0.006243,-0.016479,0.003517
388,-0.577963,0.272731,0.769127,0.00524,-0.015575,0.003654
389,-0.577971,0.272814,0.769092,0.006285,-0.016298,-0.00037
390,-0.577943,0.2728489999999999,0.769101,0.004213,-0.01409,0.003619
391,-0.577889,0.272859,0.769138,0.002877,-0.011705,0.004453
392,-0.577855,0.272904,0.769147,0.002583,-0.01381,0.006152
393,-0.577856,0.272887,0.7691520000000001,0.004706,-0.01419,0.005949
394,-0.5778409999999999,0.272912,0.769154,0.00527,-0.012567,0.0034289999999999
395,-0.57781,0.272958,0.769161,0.0062759999999999,-0.016137,0.003315
396,-0.577771,0.272957,0.769189,0.006207,-0.015663,0.003409
397,-0.577688,0.272952,0.769253,0.006536,-0.01604,0.004169
398,-0.577579,0.272954,0.769335,0.007159,-0.014043,0.006956
399,-0.577537,0.272966,0.769362,0.005317,-0.0153979999999999,0.006334
400,-0.577548,0.272959,0.769356,0.006763,-0.017481,0.005562
401,-0.577525,0.272932,0.769383,0.006953,-0.020002,0.006297
402,-0.57738,0.272913,0.7694989999999999,0.005069,-0.018289,0.004748
403,-0.5771890000000001,0.2729,0.769647,0.002741,-0.0146449999999999,0.006308
404,-0.57715,0.272878,0.769684,0.004152,-0.014608,0.005936
405,-0.577112,0.272902,0.769703,0.005732,-0.012969,0.004436
406,-0.577083,0.272923,0.769718,0.006053,-0.014271,0.001599
407,-0.577016,0.272877,0.769784,0.003468,-0.016239,0.003074
408,-0.5769380000000001,0.272804,0.769868,0.0042,-0.015068,0.0067129999999999
409,-0.576887,0.2727179999999999,0.769937,0.004606,-0.016477,0.00437
410,-0.5768310000000001,0.2726909999999999,0.769988,0.0062439999999999,-0.018663,0.0035409999999999
411,-0.5768,0.272679,0.770015,0.003482,-0.015752,0.0047799999999999
412,-0.576716,0.272647,0.770089,0.00442,-0.012988,0.002662
413,-0.576619,0.27263,0.770167,0.00472,-0.01439,0.006261
414,-0.576522,0.2726099999999999,0.770247,0.00537,-0.017056,0.0038009999999999
415,-0.576364,0.272601,0.770368,0.001809,-0.014056,0.003314
416,-0.576237,0.272627,0.770454,0.004154,-0.015319,0.0033799999999999
417,-0.576106,0.272634,0.7705489999999999,0.004238,-0.0189419999999999,0.004704
418,-0.575986,0.272657,0.77063,0.004117,-0.017378,0.006546
419,-0.575874,0.272635,0.7707229999999999,0.003028,-0.016913,0.004286
420,-0.575741,0.272615,0.770829,0.005504,-0.015642,0.006271
421,-0.575615,0.272602,0.770928,0.0051189999999999,-0.014362,0.006233
422,-0.575498,0.272556,0.7710319999999999,0.00488,-0.014728,0.007151
423,-0.575392,0.27251,0.771127,0.004057,-0.016636,0.00518
424,-0.5753,0.272513,0.7711939999999999,0.004286,-0.015525,0.005845
425,-0.575194,0.272472,0.771287,0.0048049999999999,-0.017558,0.006194
426,-0.575058,0.272458,0.7713939999999999,0.006531,-0.015607,0.005462
427,-0.5749380000000001,0.272473,0.771478,0.0066849999999999,-0.017086,0.006232
428,-0.574825,0.272448,0.771571,0.006221,-0.015933,0.006399
429,-0.5747260000000001,0.272435,0.771649,0.005039,-0.016393,0.004352
430,-0.574649,0.272454,0.7717,0.004459,-0.016869,0.004957
431,-0.574576,0.272416,0.771768,0.004493,-0.018357,0.00466
432,-0.574487,0.27237,0.77185,0.004556,-0.017121,0.005631
433,-0.574299,0.272346,0.771999,0.00208,-0.017676,0.003392
434,-0.574167,0.27228,0.7721210000000001,0.004755,-0.013094,0.005207
435,-0.574156,0.272252,0.772139,0.00418,-0.0146229999999999,0.007493
436,-0.57412,0.272276,0.772158,0.007042,-0.017332,0.004941
437,-0.574101,0.272287,0.7721680000000001,0.00861,-0.016489,0.004382
438,-0.574058,0.2722429999999999,0.772216,0.005317,-0.016399,0.004273
439,-0.573993,0.2721909999999999,0.7722829999999999,0.00275,-0.015081,0.0059159999999999
440,-0.573901,0.272153,0.772364,0.006686,-0.016659,0.004278
441,-0.5738449999999999,0.272073,0.7724340000000001,0.00425,-0.016244,0.005016
442,-0.573819,0.272012,0.772474,0.005704,-0.01687,0.007173
443,-0.573789,0.27203,0.772491,0.004896,-0.0171009999999999,0.006638
444,-0.57376,0.272022,0.772515,0.004913,-0.014484,0.005683
445,-0.573749,0.272007,0.772528,0.006809,-0.015934,0.003152
446,-0.573702,0.272016,0.77256,0.004671,-0.015775,0.005501
447,-0.573629,0.272015,0.772614,0.004187,-0.016049,0.006057
448,-0.5735319999999999,0.272018,0.772686,0.004745,-0.016647,0.003742
449,-0.573468,0.272003,0.7727390000000001,0.004804,-0.014282,0.004925
450,-0.57343,0.272037,0.772755,0.0059409999999999,-0.016529,0.004421
451,-0.573399,0.27204,0.772776,0.004567,-0.018729,0.0058189999999999
452,-0.573353,0.272019,0.772818,0.0034219999999999,-0.017075,0.005869
453,-0.573294,0.271989,0.772872,0.004935,-0.0148169999999999,0.006181
454,-0.573236,0.271963,0.7729239999999999,0.0066319999999999,-0.015172,0.006159
455,-0.5732119999999999,0.271929,0.772954,0.005173,-0.015658,0.005549
456,-0.573209,0.271901,0.772967,0.005246,-0.01566,0.005979
457,-0.5732,0.27192,0.7729659999999999,0.006488,-0.0162129999999999,0.006026
458,-0.573207,0.27195,0.772951,0.006053,-0.016533,0.0061329999999999
459,-0.573267,0.271966,0.7729,0.007334,-0.016198,0.004856
460,-0.573353,0.2720079999999999,0.772821,0.003864,-0.016332,0.006445
461,-0.573483,0.272049,0.77271,0.004071,-0.017273,0.005443
462,-0.573633,0.272097,0.772582,0.003168,-0.017566,0.005174
463,-0.5737760000000001,0.272095,0.772476,0.005248,-0.016724,0.004928
464,-0.573943,0.2720849999999999,0.772356,0.0061329999999999,-0.017522,0.003386
465,-0.574066,0.272079,0.772267,0.008163,-0.012314,0.004833
466,-0.574196,0.272046,0.772181,0.010537,-0.012006,0.005925
467,-0.574188,0.272011,0.772199,0.010315,-0.013924,-8.9e-05
468,-0.574021,0.271931,0.772352,0.0086819999999999,-0.020924,-0.003553
469,-0.57362,0.271813,0.772691,0.004193,-0.024651,0.004439
470,-0.573146,0.271715,0.7730779999999999,0.002696,-0.026201,0.010537
471,-0.572766,0.271632,0.773388,0.0034909999999999,-0.024317,0.013035
472,-0.572609,0.271646,0.7735,0.001289,-0.025522,0.0138229999999999
473,-0.572696,0.271696,0.773418,0.003238,-0.015425,0.011845
474,-0.572963,0.271809,0.77318,0.005718,-0.011479,0.010221
475,-0.573357,0.271961,0.772835,0.0071489999999999,-0.007328,0.0131759999999999
476,-0.573829,0.272063,0.7724479999999999,0.009239,-0.0034479999999999,0.011091
477,-0.574382,0.272131,0.772014,0.005625,-0.002035,0.006581
478,-0.574993,0.272235,0.771522,0.007625,-0.0027489999999999,0.004311
479,-0.5755560000000001,0.272296,0.771081,0.009134,-0.006122,0.000205
480,-0.5759350000000001,0.272328,0.770786,0.009452,-0.012745,-0.005177
481,-0.576109,0.27232,0.770659,0.009932,-0.0155449999999999,-0.003554
482,-0.576021,0.272256,0.770748,0.007417,-0.0164729999999999,-0.003902
483,-0.575762,0.272157,0.770976,0.001482,-0.0253159999999999,-0.005183
484,-0.575344,0.272016,0.771338,-0.000218,-0.029722,-0.00437
485,-0.574716,0.271856,0.771863,0.00126,-0.035787,-0.004026
486,-0.573929,0.2716,0.7725390000000001,0.003525,-0.033837,0.014616
487,-0.573156,0.27149,0.7731520000000001,0.000174,-0.0311639999999999,0.0153009999999999
488,-0.5726479999999999,0.271505,0.773523,0.000703,-0.0276089999999999,0.016547
489,-0.572526,0.271594,0.773582,0.0012519999999999,-0.018115,0.016228
490,-0.572662,0.271794,0.773411,0.005935,-0.01125,0.012905
491,-0.572979,0.272051,0.7730859999999999,0.008404,-0.009691,0.013336
492,-0.573329,0.272176,0.772782,0.014568,-0.002889,0.007659
493,-0.573601,0.27231,0.772533,0.016381,-0.000474,0.006611
494,-0.573803,0.272384,0.772358,0.017345,-0.000182,0.005978
495,-0.573954,0.272492,0.772207,0.012278,-0.002915,0.001429
496,-0.574075,0.2725909999999999,0.772081,0.003838,-0.012444,0.002882
497,-0.574175,0.272707,0.7719659999999999,0.002535,-0.011858,0.00434
498,-0.574322,0.27279,0.771827,-0.003162,-0.0149319999999999,0.004845
499,-0.5746060000000001,0.272861,0.77159,-0.003046,-0.0201,0.004854
500,-0.5749,0.272945,0.771342,-0.0044,-0.025539,0.0018059999999999
501,-0.575175,0.272961,0.771131,-0.00025,-0.027691,0.000125
502,-0.575331,0.27291,0.7710319999999999,0.00215,-0.029227,0.003626
503,-0.575407,0.272869,0.770989,0.001707,-0.0260269999999999,0.003165
504,-0.575411,0.272847,0.770994,0.002551,-0.0268899999999999,0.0039689999999999
505,-0.5754199999999999,0.2727949999999999,0.7710060000000001,0.005336,-0.020644,0.005101
506,-0.57544,0.272823,0.770981,0.006898,-0.016293,0.007812
507,-0.575515,0.272912,0.770893,0.007309,-0.012613,0.007137
508,-0.575607,0.273037,0.77078,0.008728,-0.0101739999999999,0.009173
509,-0.5757140000000001,0.273187,0.770646,0.011444,-0.008004,0.007354
510,-0.575803,0.273341,0.770526,0.012662,-0.009288,0.005201
511,-0.575873,0.273484,0.770423,0.011252,-0.011826,0.006677
512,-0.575922,0.273613,0.7703399999999999,0.011149,-0.015801,0.007843
513,-0.575933,0.273731,0.7702899999999999,0.008535,-0.017033,0.008122
514,-0.575965,0.273814,0.770237,0.005637,-0.018229,0.007946
515,-0.5760390000000001,0.27385,0.77017,0.004445,-0.019989,0.0072349999999999
516,-0.576177,0.273852,0.770066,0.003117,-0.021242,0.006362
517,-0.576377,0.273884,0.7699050000000001,0.003028,-0.0197789999999999,0.0035789999999999
518,-0.5766060000000001,0.273918,0.769721,0.0038369999999999,-0.019218,0.005487
519,-0.576809,0.273944,0.769559,0.004009,-0.017291,0.00397
520,-0.577009,0.274019,0.769382,0.004881,-0.015764,0.0079
521,-0.5771970000000001,0.274093,0.769215,0.004688,-0.014449,0.0042229999999999
522,-0.577344,0.274155,0.769083,0.0036439999999999,-0.0152889999999999,0.003454
523,-0.577509,0.274282,0.768914,0.005685,-0.016836,0.004936
524,-0.577629,0.27435,0.768799,0.007271,-0.016797,0.0061189999999999
525,-0.577715,0.2744,0.768717,0.006944,-0.016007,0.005224
526,-0.577785,0.274462,0.768642,0.0073659999999999,-0.01578,0.00504
527,-0.577862,0.274495,0.768572,0.0083579999999999,-0.016561,0.006956
528,-0.577849,0.274498,0.768582,0.007781,-0.020576,0.007251
529,-0.577751,0.27451,0.768651,0.007881,-0.0219919999999999,0.006236
530,-0.577691,0.274532,0.768688,0.006021,-0.0156509999999999,0.010761
531,-0.577829,0.274572,0.76857,0.003809,-0.014563,0.007325
532,-0.578032,0.2746639999999999,0.7683840000000001,0.006026,-0.015066,0.007251
533,-0.5782619999999999,0.274735,0.7681859999999999,0.008605,-0.0151069999999999,0.006503
534,-0.578427,0.274756,0.768054,0.008786,-0.0171419999999999,0.006177
535,-0.578541,0.274764,0.767966,0.00594,-0.017699,0.00683
536,-0.578652,0.274805,0.767868,0.006142,-0.019175,0.005707
537,-0.578759,0.274812,0.767784,0.004906,-0.017412,0.005928
538,-0.578882,0.274846,0.767679,0.0064329999999999,-0.017919,0.003638
539,-0.579018,0.274927,0.767547,0.0054399999999999,-0.0165039999999999,0.0066989999999999
540,-0.579133,0.274976,0.767443,0.00554,-0.016355,0.003766
541,-0.579188,0.275032,0.7673810000000001,0.004786,-0.017616,0.004042
542,-0.579162,0.275036,0.7674,0.005676,-0.017361,0.003474
543,-0.5790850000000001,0.275013,0.767466,0.006697,-0.016071,0.0032549999999999
544,-0.57896,0.275007,0.767562,0.007885,-0.016386,0.006257
545,-0.578804,0.27499,0.767687,0.008659,-0.017025,0.006392
546,-0.578631,0.274942,0.767833,0.0088069999999999,-0.016336,0.004307
547,-0.578435,0.27488,0.768003,0.005926,-0.016701,0.0067469999999999
548,-0.5782510000000001,0.274836,0.768157,0.006306,-0.0175889999999999,0.0064099999999999
549,-0.5781229999999999,0.274758,0.768282,0.005613,-0.017006,0.009428
550,-0.578058,0.274711,0.768347,0.004892,-0.018516,0.00892
551,-0.5780489999999999,0.274707,0.768355,0.005555,-0.016711,0.008699
552,-0.578076,0.2747219999999999,0.7683300000000001,0.005535,-0.016299,0.004406
553,-0.578036,0.274687,0.768372,0.008883,-0.017012,0.007415
554,-0.577946,0.274659,0.76845,0.008244,-0.016114,0.005994
555,-0.5778260000000001,0.274621,0.7685529999999999,0.008277,-0.018212,0.007951
556,-0.577691,0.2745849999999999,0.768668,0.008645,-0.017215,0.002602
557,-0.5775319999999999,0.274525,0.768809,0.005251,-0.014256,0.006551
558,-0.57744,0.274492,0.768891,0.003649,-0.015337,0.007553
559,-0.577382,0.274467,0.768943,0.003499,-0.01493,0.0048
560,-0.577303,0.274413,0.769021,0.004565,-0.020171,0.0046
561,-0.577113,0.274369,0.76918,0.0050149999999999,-0.015,0.006898
562,-0.576936,0.274338,0.769323,0.004975,-0.016648,0.007593
563,-0.576865,0.274301,0.76939,0.005454,-0.015085,0.006428
564,-0.576785,0.274244,0.76947,0.007571,-0.015714,0.006042
565,-0.576712,0.274232,0.769529,0.007498,-0.015702,0.005983
566,-0.576616,0.274171,0.769624,0.007203,-0.015733,0.005202
567,-0.576516,0.2740889999999999,0.769728,0.0046619999999999,-0.017405,0.008836
568,-0.576431,0.274,0.769824,0.007659,-0.017698,0.007581
569,-0.576342,0.273901,0.769925,0.006823,-0.01763,0.006976
570,-0.5762520000000001,0.27383,0.7700170000000001,0.00745,-0.018947,0.0070519999999999
571,-0.576177,0.273807,0.7700819999999999,0.00974,-0.015353,0.009139
572,-0.576094,0.273759,0.770161,0.007903,-0.0163889999999999,0.007473
573,-0.576008,0.273729,0.7702359999999999,0.007908,-0.017946,0.004315
574,-0.5758850000000001,0.273686,0.770343,0.0073569999999999,-0.014897,0.006848
575,-0.57576,0.2736699999999999,0.770442,0.004181,-0.0168639999999999,0.006185
576,-0.575637,0.2736699999999999,0.770534,0.0059039999999999,-0.01633,0.0066879999999999
577,-0.575547,0.27366,0.770604,0.003434,-0.01806,0.006847
578,-0.5754739999999999,0.273658,0.77066,0.006138,-0.017509,0.0038
579,-0.575383,0.273626,0.7707390000000001,0.0065959999999999,-0.017217,0.004606
580,-0.57528,0.273573,0.770835,0.00692,-0.017088,0.005914
581,-0.57519,0.273511,0.7709229999999999,0.005504,-0.017743,0.007748
582,-0.575096,0.273447,0.771016,0.006264,-0.016199,0.006862
583,-0.574986,0.273393,0.771117,0.006047,-0.014268,0.005296
584,-0.574878,0.273345,0.7712140000000001,0.007572,-0.0147699999999999,0.005336
585,-0.574746,0.273314,0.771323,0.008203,-0.014952,0.007104
586,-0.574611,0.273264,0.771442,0.006862,-0.015238,0.007687
587,-0.574538,0.273248,0.771502,0.00775,-0.0178919999999999,0.006619
588,-0.5744779999999999,0.2732449999999999,0.7715489999999999,0.0056,-0.018163,0.008145
589,-0.5744020000000001,0.27325,0.7716029999999999,0.0067909999999999,-0.0176349999999999,0.005558
590,-0.574379,0.273215,0.771633,0.0044329999999999,-0.017646,0.0070379999999999
591,-0.574345,0.273198,0.771664,0.006642,-0.018712,0.004337
592,-0.574287,0.273132,0.7717310000000001,0.005608,-0.018371,0.003996
593,-0.574176,0.273094,0.771827,0.0064269999999999,-0.017738,0.0081409999999999
594,-0.57416,0.273024,0.771863,0.007968,-0.0125569999999999,0.010471
595,-0.574187,0.273027,0.771841,0.010513,-0.014436,0.008112
596,-0.574217,0.273052,0.7718109999999999,0.008956,-0.01646,0.003213
597,-0.574222,0.273044,0.77181,0.010867,-0.016636,0.006571
598,-0.574188,0.272987,0.771856,0.005356,-0.017006,0.004618
599,-0.574159,0.272912,0.771904,0.004686,-0.018075,0.00605
600,-0.574145,0.272843,0.771939,0.005343,-0.017151,0.005832
601,-0.574145,0.272779,0.771961,0.006579,-0.015897,0.003826
602,-0.574144,0.272738,0.771976,0.006135,-0.019091,0.006711
603,-0.574128,0.2726969999999999,0.7720020000000001,0.006043,-0.017097,0.007585
604,-0.57411,0.272667,0.772025,0.006834,-0.016427,0.0081409999999999
605,-0.574079,0.2726449999999999,0.7720560000000001,0.006162,-0.016679,0.004968
606,-0.57404,0.272596,0.7721020000000001,0.0073739999999999,-0.0170419999999999,0.004693
607,-0.573966,0.272602,0.772155,0.005423,-0.018193,0.0074629999999999
608,-0.573862,0.2725909999999999,0.7722359999999999,0.005441,-0.017281,0.007183
609,-0.5737479999999999,0.2725579999999999,0.772332,0.006152,-0.0151569999999999,0.007789
610,-0.573693,0.272548,0.7723760000000001,0.004922,-0.0161849999999999,0.00689
611,-0.573673,0.272534,0.772396,0.005313,-0.016842,0.005284
612,-0.573673,0.272525,0.772399,0.0060009999999999,-0.015933,0.005372
613,-0.573679,0.272519,0.772397,0.008783,-0.014462,0.006839
614,-0.573659,0.272496,0.77242,0.007344,-0.015813,0.006465
615,-0.573627,0.272447,0.772461,0.008457,-0.015016,0.006332
616,-0.5735819999999999,0.27242,0.772505,0.0072819999999999,-0.016225,0.003924
617,-0.5735600000000001,0.272404,0.772526,0.008512,-0.017033,0.0065569999999999
618,-0.573534,0.272383,0.7725529999999999,0.006319,-0.016523,0.0077959999999999
619,-0.57355,0.272398,0.772536,0.006716,-0.018095,0.008439
620,-0.573572,0.272406,0.772517,0.007853,-0.016684,0.0065819999999999
621,-0.573605,0.272406,0.772493,0.005749,-0.016699,0.007994
622,-0.5736439999999999,0.272419,0.772459,0.007741,-0.017231,0.005953
623,-0.573689,0.272407,0.7724300000000001,0.0053289999999999,-0.016594,0.0063939999999999
624,-0.5737220000000001,0.272383,0.772413,0.004096,-0.016402,0.00342
625,-0.573765,0.272353,0.7723909999999999,0.008121,-0.019408,0.004495
626,-0.5737680000000001,0.272337,0.7723939999999999,0.006523,-0.013197,0.008933
627,-0.573835,0.272329,0.772346,0.0086349999999999,-0.013219,0.007347
628,-0.573975,0.272357,0.7722319999999999,0.007783,-0.0147889999999999,0.009399
629,-0.5741149999999999,0.272425,0.772105,0.00806,-0.016214,0.006246
630,-0.574233,0.272482,0.771997,0.0083,-0.018958,0.009711
631,-0.574338,0.272497,0.771914,0.0073209999999999,-0.01708,0.003599
632,-0.5744279999999999,0.272482,0.7718520000000001,0.005718,-0.016424,0.006911
633,-0.574469,0.272437,0.771837,0.0071629999999999,-0.015586,0.005187
634,-0.57452,0.272379,0.77182,0.0061909999999999,-0.0193729999999999,0.004349
635,-0.5745939999999999,0.27236,0.77177,0.007059,-0.016699,0.006978
636,-0.574652,0.272342,0.771734,0.005423,-0.0180229999999999,0.00616
637,-0.574653,0.272329,0.771737,0.006065,-0.016058,0.004889
638,-0.5746180000000001,0.272314,0.7717689999999999,0.003329,-0.016241,0.005255
639,-0.574531,0.272306,0.771837,0.005118,-0.0128449999999999,0.00511
640,-0.57444,0.272311,0.7719020000000001,0.005547,-0.016162,0.006372
641,-0.5743550000000001,0.272353,0.77195,0.005034,-0.017318,0.007423
642,-0.574281,0.27243,0.7719779999999999,0.007585,-0.017821,0.006937
643,-0.574275,0.27248,0.7719659999999999,0.005259,-0.018238,0.006019
644,-0.574294,0.272553,0.771926,0.005019,-0.018418,0.006623
645,-0.574329,0.2726159999999999,0.771878,0.00249,-0.016742,0.007831
646,-0.57436,0.272647,0.771844,0.006626,-0.019717,0.008125
647,-0.574445,0.272717,0.771756,0.006543,-0.016781,0.007999
648,-0.574559,0.272812,0.771637,0.009907,-0.017869,0.006455
649,-0.574651,0.272883,0.771543,0.011541,-0.0152229999999999,0.007403
650,-0.574731,0.272982,0.7714479999999999,0.008462,-0.017687,0.00675
651,-0.574803,0.2730849999999999,0.771359,0.007573,-0.015562,0.005878
652,-0.57491,0.273204,0.771237,0.0068709999999999,-0.0144,0.005954
653,-0.575037,0.273319,0.771101,0.005167,-0.014149,0.006578
654,-0.575155,0.273413,0.77098,0.007528,-0.014533,0.006409
655,-0.5753020000000001,0.273529,0.770829,0.004685,-0.015625,0.005294
656,-0.575461,0.273629,0.770675,0.006141,-0.015832,0.00554
657,-0.575625,0.273729,0.770517,0.006335,-0.014437,0.004706
658,-0.5757939999999999,0.27382,0.770359,0.005817,-0.015382,0.0053219999999999
659,-0.5759310000000001,0.273869,0.770239,0.006168,-0.017476,0.006129
660,-0.5760149999999999,0.273894,0.7701680000000001,0.007426,-0.019087,0.007237
661,-0.576022,0.273916,0.770155,0.007067,-0.017919,0.008165
662,-0.576068,0.273956,0.7701060000000001,0.0066409999999999,-0.013947,0.00884
663,-0.576289,0.274005,0.7699239999999999,0.0066019999999999,-0.011829,0.0089
664,-0.576543,0.274106,0.769698,0.007192,-0.0153479999999999,0.005693
665,-0.5767800000000001,0.27419,0.76949,0.010115,-0.016057,0.0073349999999999
666,-0.576946,0.274212,0.769358,0.008877,-0.016415,0.007131
667,-0.577058,0.274215,0.769273,0.008607,-0.016357,0.00569
668,-0.577116,0.274202,0.769234,0.008986,-0.017671,0.007682
669,-0.5771850000000001,0.274211,0.769179,0.006812,-0.017665,0.009218
670,-0.577361,0.2742449999999999,0.769035,0.006622,-0.017668,0.008232
671,-0.577575,0.274306,0.768853,0.008804,-0.017668,0.006523
672,-0.5777909999999999,0.2744,0.7686569999999999,0.007601,-0.015947,0.007176
673,-0.5779989999999999,0.27449,0.768468,0.006481,-0.015655,0.005946
674,-0.578138,0.274553,0.7683409999999999,0.0055829999999999,-0.017366,0.006821
675,-0.578234,0.274629,0.768241,0.007174,-0.016725,0.005227
676,-0.578283,0.274701,0.768179,0.00855,-0.013562,0.008157
677,-0.578367,0.2747739999999999,0.7680899999999999,0.003645,-0.0154659999999999,0.005744
678,-0.578486,0.2748469999999999,0.7679739999999999,0.004633,-0.0162259999999999,0.0070659999999999
679,-0.5785939999999999,0.274888,0.767878,0.004497,-0.015198,0.004614
680,-0.578703,0.274939,0.767778,0.00485,-0.0155389999999999,0.004668
681,-0.578813,0.274979,0.76768,0.0075239999999999,-0.015946,0.005315
682,-0.578913,0.275005,0.7675960000000001,0.006586,-0.01588,0.0072599999999999
683,-0.5789920000000001,0.275046,0.767522,0.006833,-0.016593,0.0072739999999999
684,-0.5791,0.2751139999999999,0.767416,0.008025,-0.016996,0.0071959999999999
685,-0.5792069999999999,0.27515,0.7673220000000001,0.007537,-0.014805,0.006711
686,-0.579309,0.275188,0.767232,0.00982,-0.014216,0.0075629999999999
687,-0.579436,0.2752469999999999,0.767115,0.007415,-0.01626,0.006628
688,-0.579558,0.2752719999999999,0.767015,0.006392,-0.017307,0.006957
689,-0.5796819999999999,0.275326,0.766901,0.008805,-0.017865,0.007391
690,-0.579812,0.275371,0.766788,0.005532,-0.017482,0.007092
691,-0.579956,0.275422,0.76666,0.007126,-0.0156099999999999,0.006167
692,-0.5800960000000001,0.275473,0.7665350000000001,0.007877,-0.013815,0.005987
693,-0.580234,0.275527,0.766411,0.007648,-0.016326,0.005821
694,-0.580322,0.27552,0.7663479999999999,0.007964,-0.020469,0.005991
695,-0.580308,0.27552,0.766357,0.0071579999999999,-0.019538,0.006409
696,-0.580294,0.2755599999999999,0.766354,0.004168,-0.0123,0.006901
697,-0.580488,0.275601,0.766192,0.0052159999999999,-0.012646,0.007611
698,-0.580685,0.2756679999999999,0.766019,0.0071379999999999,-0.012057,0.005465
699,-0.5808369999999999,0.275696,0.765894,0.007244,-0.0154419999999999,0.004431
700,-0.580917,0.27569,0.765835,0.008437,-0.017832,0.006687
701,-0.5809449999999999,0.27563,0.765836,0.009489,-0.016765,0.007083
702,-0.58094,0.275542,0.765872,0.006523,-0.018279,0.008435
703,-0.580925,0.275463,0.765911,0.007042,-0.016811,0.00687
704,-0.580903,0.275364,0.765964,0.006226,-0.017719,0.00813
705,-0.580823,0.275264,0.7660600000000001,0.007047,-0.014079,0.0065379999999999
706,-0.5807479999999999,0.275219,0.766133,0.0071239999999999,-0.014522,0.00439
707,-0.5806359999999999,0.275147,0.766243,0.00747,-0.015656,0.005775
708,-0.580501,0.275095,0.766365,0.0081739999999999,-0.014612,0.003853
709,-0.580394,0.27505,0.766463,0.005138,-0.015788,0.005556
710,-0.580311,0.275007,0.766541,0.007999,-0.015867,0.009597
711,-0.5802729999999999,0.274995,0.766575,0.0098079999999999,-0.019365,0.0062369999999999
712,-0.580232,0.274994,0.766606,0.008241,-0.018066,0.006083
713,-0.580188,0.274947,0.7666569999999999,0.008227,-0.017912,0.003958
714,-0.580098,0.274894,0.766744,0.00684,-0.0172949999999999,0.008159
715,-0.579973,0.274835,0.7668590000000001,0.004991,-0.01687,0.00551
716,-0.579863,0.274784,0.766961,0.006239,-0.0149419999999999,0.008476
717,-0.579781,0.274733,0.767041,0.006203,-0.015044,0.008701
718,-0.579701,0.2747159999999999,0.767108,0.006459,-0.013394,0.005185
719,-0.579581,0.2746889999999999,0.767208,0.0074069999999999,-0.014313,0.005467
720,-0.579453,0.274661,0.767315,0.006928,-0.015857,0.008137
721,-0.579306,0.274644,0.767433,0.0072989999999999,-0.015015,0.005974
722,-0.579159,0.274628,0.76755,0.005855,-0.016128,0.009001
723,-0.579029,0.274605,0.767656,0.005649,-0.015007,0.009734
724,-0.578987,0.27462,0.767682,0.005943,-0.013344,0.009677
725,-0.579106,0.274681,0.76757,0.004109,-0.012031,0.008797
726,-0.5793119999999999,0.274738,0.7673939999999999,0.004056,-0.0143159999999999,0.0052049999999999
727,-0.5794189999999999,0.274737,0.767313,0.0105569999999999,-0.019549,0.002676
728,-0.579304,0.274711,0.76741,0.015705,-0.014869,0.004472
729,-0.57904,0.274625,0.7676390000000001,0.0127099999999999,-0.0137759999999999,0.004273
730,-0.5786720000000001,0.274443,0.7679819999999999,0.0093969999999999,-0.016096,-0.0021739999999999
731,-0.578071,0.274227,0.7685109999999999,0.011223,-0.021374,0.001478
732,-0.577299,0.274029,0.769162,0.011229,-0.023586,0.011798
733,-0.576695,0.273936,0.769648,0.005956,-0.019374,0.017202
734,-0.57648,0.273964,0.769798,0.004611,-0.018257,0.01989
735,-0.576709,0.274104,0.7695770000000001,0.002781,-0.0126299999999999,0.018601
736,-0.577309,0.2743239999999999,0.769049,0.0057,-0.008424,0.017527
737,-0.57821,0.274586,0.768278,0.010537,-0.008595,0.0188
738,-0.57918,0.274758,0.767486,0.014071,-0.0046159999999999,0.0084689999999999
739,-0.5800770000000001,0.274856,0.7667729999999999,0.0146629999999999,-0.004485,0.000881
740,-0.5806720000000001,0.274825,0.766334,0.012435,-0.0063159999999999,-0.003486
741,-0.580963,0.2747489999999999,0.766141,0.004501,-0.011062,-0.004071
742,-0.581105,0.274688,0.766055,0.001866,-0.011703,-0.002338
743,-0.5810569999999999,0.2746889999999999,0.766092,-0.002684,-0.014771,-0.003106
744,-0.580849,0.274706,0.766243,-0.002219,-0.024447,-0.010491
745,-0.580498,0.274574,0.766556,-0.002937,-0.029945,-0.014374
746,-0.579967,0.274337,0.767044,-0.0048259999999999,-0.037887,-0.004272
747,-0.579357,0.274099,0.7675890000000001,0.000881,-0.034674,0.020374
748,-0.578808,0.273952,0.7680560000000001,0.000332,-0.034526,0.019908
749,-0.578755,0.273813,0.768145,0.005147,-0.022318,0.023634
750,-0.579291,0.273864,0.7677229999999999,0.009909,-0.017272,0.0175099999999999
751,-0.58021,0.274027,0.766971,0.016505,-0.012735,0.013059
752,-0.5811970000000001,0.274157,0.766177,0.018788,-0.000429,0.006803
753,-0.582055,0.274288,0.765479,0.021782,0.0065349999999999,0.006128
754,-0.5828439999999999,0.274366,0.76485,0.018681,0.00316,0.0076269999999999
755,-0.583515,0.274542,0.764275,0.007587,-0.00495,0.0085519999999999
756,-0.584241,0.2748489999999999,0.763609,0.005125,-0.008767,0.005052
757,-0.5849979999999999,0.275158,0.762918,0.003776,-0.008999,0.003103
758,-0.5857859999999999,0.27541,0.762224,-0.000487,-0.01952,-0.0024579999999999
759,-0.58646,0.275655,0.761617,0.000507,-0.027974,0.000392
760,-0.587004,0.275832,0.761134,0.003096,-0.026442,-0.0001629999999999
761,-0.587367,0.276003,0.760792,-0.00295,-0.027697,0.008648
762,-0.587765,0.276204,0.760411,-0.005375,-0.023259,0.016215
763,-0.588497,0.276616,0.759695,-0.0036659999999999,-0.021138,0.016047
764,-0.589685,0.277167,0.758572,-0.003348,-0.011206,0.010333
765,-0.591375,0.277854,0.757003,-0.004236,-0.0089629999999999,0.017472
766,-0.593543,0.2786639999999999,0.7550060000000001,0.000602,-0.007943,0.007125
767,-0.596028,0.27941,0.7527689999999999,0.009052,-0.010245,-0.007347
768,-0.598316,0.279984,0.750737,0.015675,-0.014405,-0.009862
769,-0.599913,0.280408,0.7493029999999999,0.019912,-0.0117159999999999,-0.008657
770,-0.60077,0.280816,0.748464,0.013505,-0.009332,0.006113
771,-0.601446,0.281287,0.747744,0.009497,-0.009223,0.015638
772,-0.602449,0.2817909999999999,0.746746,0.013078,-0.012306,0.0133699999999999
773,-0.603562,0.2822429999999999,0.745677,0.0154729999999999,-0.0177009999999999,0.00324
774,-0.604475,0.282583,0.744808,0.009794,-0.019933,0.0069159999999999
775,-0.605052,0.282895,0.744222,0.000254,-0.022473,0.014735
776,-0.605595,0.283222,0.7436550000000001,0.001667,-0.027775,0.008481
777,-0.606329,0.283546,0.742933,0.006064,-0.023552,0.0084099999999999
778,-0.6072850000000001,0.283811,0.742052,0.002152,-0.024137,0.004652
779,-0.60817,0.283947,0.741275,0.001008,-0.020275,0.005033
780,-0.609071,0.284153,0.740456,-0.004226,-0.015171,0.011909
781,-0.610409,0.284519,0.739212,-0.022434,0.000194,0.014313
782,-0.612322,0.285136,0.73739,-0.02368,0.002553,0.009497
783,-0.614888,0.285921,0.734946,-0.025569,0.003919,0.00683
784,-0.617531,0.286644,0.7324430000000001,-0.001426,-0.000877,0.005396
785,-0.61993,0.287537,0.730063,0.036357,-0.01799,0.005319
786,-0.6221909999999999,0.288304,0.727833,0.052382,-0.024449,0.002483
787,-0.6237090000000001,0.288828,0.726324,0.039206,-0.034205,-0.013663
788,-0.6246619999999999,0.2894239999999999,0.725268,0.030531,-0.0305439999999999,-0.009051
789,-0.6252810000000001,0.290067,0.724478,0.009131,-0.018782,0.000528
790,-0.6250760000000001,0.290664,0.724416,-0.019761,-0.009994,0.0067239999999999
791,-0.624502,0.291043,0.724758,-0.032175,-0.0135009999999999,0.0014529999999999
792,-0.624193,0.291141,0.724985,-0.03462,-0.012561,0.0016989999999999
793,-0.624213,0.291125,0.724975,-0.021371,-0.021487,-0.001632
794,-0.62462,0.2912389999999999,0.7245779999999999,-0.020613,-0.026148,-0.003799
795,-0.625362,0.291645,0.723774,-0.037541,-0.017414,0.001491
796,-0.626448,0.29251,0.722485,-0.0264,-0.008544,0.0084879999999999
797,-0.627792,0.293677,0.720842,-0.014649,-0.005347,0.008345
798,-0.629242,0.294656,0.719176,0.019867,0.002844,-0.000411
799,-0.630462,0.295306,0.717839,0.037856,0.001111,0.00175
800,-0.631601,0.295572,0.716726,0.041651,-0.006494,-0.003424
801,-0.6323479999999999,0.295777,0.715983,0.039636,-0.006989,0.019659
802,-0.6324569999999999,0.296105,0.715751,0.044215,-0.006661,0.022011
803,-0.631992,0.296136,0.7161489999999999,0.054157,-0.0067069999999999,0.0051649999999999
804,-0.630366,0.295809,0.717715,0.051127,-0.0159169999999999,-0.001742
805,-0.628393,0.295031,0.719762,0.044241,-0.01343,0.005794
806,-0.626355,0.294049,0.7219369999999999,0.018994,-0.018018,0.003207
807,-0.623408,0.293173,0.724837,0.005458,-0.0079099999999999,0.0152449999999999
808,-0.620423,0.292302,0.727744,0.003968,-0.003453,0.019739
809,-0.618185,0.29119,0.730089,0.010351,-0.015936,0.017699
810,-0.615927,0.289967,0.732479,0.007086,-0.018453,0.0124549999999999
811,-0.6133689999999999,0.288589,0.735164,0.016323,-0.0248259999999999,-0.0066939999999999
812,-0.610112,0.2871579999999999,0.738426,0.021291,-0.02515,-0.013252
813,-0.606368,0.285623,0.742097,0.036696,-0.0173889999999999,-0.006456
814,-0.602695,0.283905,0.745739,0.038318,-0.013855,-0.0016899999999999
815,-0.5990810000000001,0.281877,0.749413,0.033727,-0.0147409999999999,0.0143349999999999
816,-0.595089,0.279692,0.753401,0.028607,-0.01509,0.0147419999999999
817,-0.591424,0.277725,0.7570060000000001,0.020333,-0.013016,0.011457
818,-0.588924,0.276502,0.7593989999999999,0.0081129999999999,-0.014371,0.019395
819,-0.58791,0.276211,0.760289,-0.02766,-0.004452,0.042995
820,-0.5879260000000001,0.276426,0.760199,-0.020091,0.0041979999999999,0.0391629999999999
821,-0.588937,0.276684,0.759323,-0.009086,0.009556,0.024765
822,-0.591036,0.276703,0.757683,-0.011915,-0.005234,0.020057
823,-0.5941489999999999,0.276563,0.7552949999999999,-0.009992,-0.02754,0.025726
824,-0.598198,0.276692,0.752045,-0.014733,-0.034123,0.0173639999999999
825,-0.602766,0.277126,0.748228,-0.021303,-0.0233419999999999,0.001269
826,-0.607269,0.277469,0.74445,-0.020081,-0.005786,-0.020847
827,-0.6114689999999999,0.27762,0.7409479999999999,-0.011837,-0.008379,-0.0232199999999999
828,-0.6154310000000001,0.277699,0.73763,-0.005785,-0.0137669999999999,-0.027761
829,-0.61869,0.277782,0.734867,-0.021966,-0.017894,-0.035175
830,-0.620508,0.277838,0.73331,-0.026876,-0.033301,-0.031299
831,-0.62138,0.2776929999999999,0.732627,-0.02605,-0.019453,-0.025412
832,-0.621659,0.277174,0.732587,-0.025756,-0.013762,-0.012509
833,-0.6211899999999999,0.276313,0.733309,-0.020091,-0.025901,-0.015536
834,-0.619888,0.275208,0.734824,-0.015594,-0.033463,-0.021339
835,-0.617548,0.273952,0.737259,-0.004736,-0.030101,-0.013031
836,-0.61438,0.272709,0.74036,-0.000107,-0.028125,-0.005039
837,-0.610889,0.271692,0.7436149999999999,-0.000698,-0.026331,0.000586
838,-0.6075619999999999,0.270848,0.7466430000000001,-0.003385,-0.026067,0.013184
839,-0.604539,0.270204,0.749324,-0.009062,-0.0292529999999999,0.0165909999999999
840,-0.602039,0.2697179999999999,0.751509,-0.0135,-0.024814,0.014406
841,-0.6002569999999999,0.269443,0.753031,-0.0071489999999999,-0.020175,0.014837
842,-0.599172,0.269237,0.753969,-0.00175,-0.014476,0.012023
843,-0.598392,0.269047,0.754656,0.019138,-0.005025,-0.003924
844,-0.5973470000000001,0.268728,0.7555970000000001,0.029674,-0.007483,-0.008481
845,-0.5956319999999999,0.268144,0.757156,0.031118,-0.007631,-0.009475
846,-0.593087,0.267235,0.759472,0.039254,-0.010475,0.0040939999999999
847,-0.5899270000000001,0.266262,0.7622680000000001,0.042243,-0.011318,0.007797
848,-0.586658,0.265417,0.76508,0.031955,-0.0080769999999999,0.019832
849,-0.583853,0.264754,0.767452,0.019781,-0.004653,0.020253
850,-0.581782,0.264228,0.769203,0.02444,-0.011725,0.017937
851,-0.580354,0.263706,0.77046,0.028107,-0.01656,0.013857
852,-0.579019,0.2630349999999999,0.7716930000000001,0.030786,-0.016208,0.007528
853,-0.577553,0.262233,0.773062,0.02668,-0.0153,0.009714
854,-0.575742,0.261482,0.7746649999999999,0.022199,-0.011406,0.009942
855,-0.573876,0.260789,0.776281,0.023812,-0.000779,0.020197
856,-0.572287,0.2601449999999999,0.7776689999999999,0.032812,-0.002409,0.0132699999999999
857,-0.5708479999999999,0.259501,0.778939,0.032854,-0.01768,0.010352
858,-0.569435,0.258956,0.780153,0.034477,-0.029418,0.008253
859,-0.568004,0.2585639999999999,0.781325,0.029338,-0.03281,0.009355
860,-0.566531,0.258317,0.7824770000000001,0.004519,-0.0266579999999999,0.0146419999999999
861,-0.5653600000000001,0.258274,0.783338,-0.013528,-0.0209689999999999,0.017321
862,-0.564785,0.258362,0.783724,-0.020848,-0.0168,0.018477
863,-0.564924,0.258494,0.78358,-0.025469,-0.018077,0.015141
864,-0.565559,0.2585949999999999,0.783089,-0.0208819999999999,-0.0191229999999999,0.000832
865,-0.566338,0.258745,0.7824760000000001,-0.015159,-0.017275,-0.008291
866,-0.567109,0.258927,0.781857,-0.010116,-0.01175,-0.008572
867,-0.567723,0.258988,0.781391,-0.000987,-0.006211,-0.0068239999999999
868,-0.568221,0.258918,0.7810520000000001,-1.6e-05,-0.0013189999999999,-0.008988
869,-0.568409,0.25879,0.780958,-0.00172,0.0044399999999999,-0.00694
870,-0.568387,0.258668,0.781015,-0.000491,0.0032649999999999,-0.0043729999999999
871,-0.568282,0.258552,0.781129,-0.006135,-0.001853,-0.0046549999999999
872,-0.567916,0.258399,0.781446,-0.007554,-0.007025,-0.002637
873,-0.5674359999999999,0.258223,0.781852,-0.0067519999999999,-0.006773,0.001702
874,-0.567001,0.258053,0.782224,0.002227,-0.017193,0.007068
875,-0.566588,0.258007,0.782538,0.000364,-0.021221,0.00982
876,-0.566315,0.258077,0.782712,-0.00148,-0.0220229999999999,0.01079
877,-0.566331,0.258187,0.7826649999999999,0.001878,-0.022561,0.005864
878,-0.5663699999999999,0.258282,0.782605,0.005808,-0.023449,0.002948
879,-0.566303,0.258362,0.7826270000000001,0.0055119999999999,-0.021408,0.004009
880,-0.5661510000000001,0.258415,0.78272,0.011295,-0.024437,0.0057929999999999
881,-0.565959,0.258483,0.782836,0.010478,-0.0206289999999999,0.004914
882,-0.565764,0.258583,0.7829430000000001,0.007048,-0.017357,0.007294
883,-0.565661,0.258684,0.782985,0.003176,-0.008882,0.006475
884,-0.5656899999999999,0.258778,0.782933,0.004395,-0.006947,0.004039
885,-0.5657989999999999,0.258858,0.782828,0.0149259999999999,-0.008629,0.006189
886,-0.565959,0.2589639999999999,0.7826770000000001,0.018229,-0.011772,0.004402
887,-0.566098,0.2590469999999999,0.7825479999999999,0.018277,-0.011886,0.004698
888,-0.5661430000000001,0.259162,0.782478,0.018184,-0.012443,0.006813
889,-0.566129,0.259244,0.782461,0.019437,-0.012754,0.006235
890,-0.5660310000000001,0.259344,0.782499,0.014792,-0.0138,0.008502
891,-0.565909,0.259448,0.782552,0.0086579999999999,-0.01517,0.007624
892,-0.5658810000000001,0.259573,0.7825310000000001,0.006082,-0.015387,0.006775
893,-0.565894,0.259715,0.782475,0.00257,-0.018672,0.002895
894,-0.5659310000000001,0.259835,0.782408,-0.0015429999999999,-0.0176629999999999,0.004045
895,-0.56601,0.259941,0.782316,0.000443,-0.018837,0.003863
896,-0.56608,0.260002,0.782245,0.0031219999999999,-0.014641,0.000516
897,-0.5661510000000001,0.260067,0.782172,0.0040939999999999,-0.0140349999999999,0.0006349999999999
898,-0.566168,0.260132,0.782139,0.007376,-0.012665,0.002102
899,-0.566105,0.260193,0.7821640000000001,0.00452,-0.012131,0.001802
900,-0.566022,0.260267,0.782199,0.0036439999999999,-0.012952,-0.00156
901,-0.5659109999999999,0.26034,0.7822560000000001,0.001778,-0.01211,0.003007
902,-0.565765,0.260407,0.782339,0.001999,-0.011872,0.003229
903,-0.565592,0.260443,0.782452,0.002878,-0.013861,0.004382
904,-0.565483,0.260517,0.782506,0.006951,-0.016513,0.0105849999999999
905,-0.565429,0.260607,0.782516,0.006057,-0.016588,0.008103
906,-0.565431,0.260718,0.7824770000000001,0.00995,-0.016913,0.005548
907,-0.565448,0.260842,0.782424,0.009082,-0.016762,0.004762
908,-0.5654899999999999,0.260979,0.782347,0.006072,-0.017083,0.008837
909,-0.565642,0.2611489999999999,0.78218,0.004606,-0.015131,0.008042
910,-0.565925,0.261344,0.78191,0.008979,-0.013297,0.0100209999999999
911,-0.566279,0.2615139999999999,0.781596,0.009547,-0.015711,0.009602
912,-0.566639,0.26165,0.7812899999999999,0.009067,-0.013924,0.005957
913,-0.5670069999999999,0.261801,0.780972,0.008505,-0.013937,0.005817
914,-0.567365,0.261964,0.7806569999999999,0.0075959999999999,-0.013505,0.006605
915,-0.567707,0.262153,0.780345,0.008686,-0.013099,0.005345
916,-0.568037,0.262317,0.780051,0.0082989999999999,-0.010425,0.0027559999999999
917,-0.568351,0.262493,0.779762,0.006294,-0.0110739999999999,0.00573
918,-0.568608,0.262657,0.77952,0.006306,-0.012291,0.003668
919,-0.568855,0.262843,0.779277,0.005455,-0.0146439999999999,0.005726
920,-0.569088,0.263013,0.77905,0.004406,-0.015652,0.006702
921,-0.56929,0.263164,0.7788510000000001,0.005584,-0.0187479999999999,0.007266
922,-0.569443,0.263306,0.778691,0.005051,-0.011704,0.0049549999999999
923,-0.569696,0.263441,0.778461,0.004495,-0.012052,0.005002
924,-0.570038,0.263582,0.778163,0.0066069999999999,-0.0121319999999999,0.0042159999999999
925,-0.5703229999999999,0.263731,0.777903,0.0092269999999999,-0.013258,0.007009
926,-0.570583,0.263864,0.7776689999999999,0.009349,-0.017648,0.00555
927,-0.570804,0.263998,0.777461,0.006748,-0.017325,0.006948
928,-0.571034,0.264109,0.777254,0.008229,-0.017665,0.0074909999999999
929,-0.5712649999999999,0.264213,0.777048,0.007941,-0.015556,0.0091
930,-0.571489,0.264295,0.7768550000000001,0.00989,-0.013425,0.008667
931,-0.57172,0.264402,0.7766489999999999,0.009311,-0.0127689999999999,0.007012
932,-0.571962,0.264504,0.776436,0.008394,-0.0145949999999999,0.006584
933,-0.57223,0.264604,0.776205,0.008144,-0.0149699999999999,0.00532
934,-0.572511,0.264734,0.775953,0.011048,-0.014933,0.006716
935,-0.572756,0.264858,0.77573,0.010301,-0.013271,0.005032
936,-0.572983,0.264986,0.775518,0.007873,-0.015123,0.003855
937,-0.573168,0.265115,0.775338,0.005937,-0.014856,0.006828
938,-0.573343,0.265237,0.775166,0.0061579999999999,-0.016015,0.004924
939,-0.5735399999999999,0.265335,0.774987,0.006142,-0.017227,0.005057
940,-0.573705,0.265436,0.77483,0.0089769999999999,-0.017587,0.006298
941,-0.573859,0.265515,0.7746890000000001,0.0100159999999999,-0.01553,0.005921
942,-0.574008,0.265594,0.774551,0.008303,-0.016357,0.006287
943,-0.574158,0.2656739999999999,0.774412,0.007111,-0.014591,0.0063799999999999
944,-0.574303,0.265751,0.774278,0.008797,-0.014698,0.005125
945,-0.574448,0.265835,0.774142,0.008408,-0.012707,0.0072
946,-0.5745779999999999,0.265926,0.774015,0.011757,-0.0151169999999999,0.003894
947,-0.5747329999999999,0.26605,0.773858,0.009623,-0.014844,0.007331
948,-0.574797,0.2661469999999999,0.773776,0.008848,-0.0145759999999999,0.005872
949,-0.5748,0.266184,0.7737609999999999,0.0067459999999999,-0.012995,0.006543
950,-0.574746,0.2661929999999999,0.773798,0.007775,-0.0119049999999999,0.007605
951,-0.574719,0.266183,0.77382,0.008573,-0.0131919999999999,0.0060409999999999
952,-0.5746640000000001,0.266171,0.7738649999999999,0.009738,-0.017071,0.005676
953,-0.574565,0.2661409999999999,0.773949,0.009425,-0.014721,0.0071489999999999
954,-0.574338,0.266108,0.7741279999999999,0.008054,-0.011378,0.005291
955,-0.574199,0.266065,0.774246,0.008144,-0.012434,0.008942
956,-0.57416,0.266053,0.77428,0.006578,-0.014802,0.008939
957,-0.574134,0.26604,0.774303,0.007102,-0.016956,0.009145
958,-0.574112,0.265999,0.7743329999999999,0.007279,-0.017144,0.008244
959,-0.574101,0.265943,0.774361,0.005756,-0.016584,0.007911
960,-0.5741310000000001,0.265886,0.774358,0.006839,-0.0151539999999999,0.008631
961,-0.57419,0.265812,0.7743399999999999,0.008303,-0.014882,0.007215
962,-0.5743119999999999,0.265785,0.774259,0.0087599999999999,-0.015708,0.006579
963,-0.5744640000000001,0.265779,0.774148,0.008302,-0.013887,0.007773
964,-0.574639,0.265781,0.774017,0.0075769999999999,-0.012546,0.008011
965,-0.5748409999999999,0.265824,0.773853,0.007748,-0.010651,0.007107
966,-0.575062,0.265851,0.773679,0.009373,-0.011807,0.0038929999999999
967,-0.5752079999999999,0.265832,0.773578,0.012418,-0.011163,0.0036439999999999
968,-0.5752229999999999,0.265751,0.773593,0.0111209999999999,-0.011998,0.0005
969,-0.5749920000000001,0.26565,0.7738010000000001,0.012888,-0.013499,0.001849
970,-0.57448,0.265489,0.7742359999999999,0.0144669999999999,-0.016206,0.003809
971,-0.573815,0.265315,0.7747890000000001,0.011224,-0.021784,0.002082
972,-0.573016,0.265109,0.775452,0.009951,-0.02814,0.005371
973,-0.572032,0.26493,0.776238,0.009151,-0.030937,0.011176
974,-0.571018,0.264822,0.777022,0.005741,-0.025823,0.014619
975,-0.57026,0.2647739999999999,0.777596,0.0037619999999999,-0.0183599999999999,0.0182419999999999
976,-0.569959,0.264846,0.777791,0.004469,-0.015288,0.019236
977,-0.570071,0.264949,0.777674,0.009814,-0.009563,0.016408
978,-0.570454,0.265044,0.777361,0.0143169999999999,-0.0035689999999999,0.008085
979,-0.5709270000000001,0.265156,0.776975,0.013951,0.001018,0.004672
980,-0.571336,0.265227,0.776651,0.0131849999999999,0.002259,0.004538
981,-0.5715319999999999,0.265161,0.776529,0.009779,-0.0001159999999999,0.002416
982,-0.571671,0.2650409999999999,0.776469,0.008973,-0.000331,0.0039109999999999
983,-0.571775,0.264938,0.776428,0.0073069999999999,-0.005935,0.001694
984,-0.5719380000000001,0.264926,0.776311,0.003136,-0.0134,0.003093
985,-0.572132,0.264961,0.7761560000000001,0.002644,-0.013405,0.003232
986,-0.5722550000000001,0.264949,0.7760699999999999,0.004155,-0.017681,0.001533
987,-0.572331,0.264843,0.77605,0.006154,-0.02351,0.001248
988,-0.572204,0.264682,0.7761979999999999,0.007416,-0.025302,-0.002379
989,-0.571829,0.264449,0.776554,0.005332,-0.031874,0.00018
990,-0.571116,0.264171,0.777173,0.004542,-0.031811,0.003054
991,-0.570274,0.263916,0.777878,0.006554,-0.03006,0.012177
992,-0.569641,0.2637199999999999,0.778408,0.007828,-0.02402,0.020222
993,-0.569387,0.263642,0.77862,0.011404,-0.019257,0.016546
994,-0.5695,0.263659,0.778532,0.014294,-0.0130789999999999,0.014849
995,-0.569828,0.263725,0.77827,0.018406,-0.008506,0.01154
996,-0.570218,0.26381,0.7779560000000001,0.0178949999999999,-0.00258,0.008482
997,-0.5705939999999999,0.263899,0.7776489999999999,0.020805,0.001466,0.0074
998,-0.570886,0.263974,0.77741,0.019891,-0.0007599999999999,0.003382
999,-0.571023,0.264017,0.777295,0.017571,-0.000528,0.0037409999999999
1000,-0.571026,0.263994,0.777301,0.014019,-0.002291,0.001401
1001,-0.570876,0.263957,0.777424,0.010115,-0.01089,0.005261
1002,-0.570689,0.263874,0.7775890000000001,0.008311,-0.017154,0.004409
1003,-0.570468,0.263784,0.777782,0.007144,-0.0219159999999999,0.0085799999999999
1004,-0.5702510000000001,0.263657,0.777983,0.0050659999999999,-0.025315,0.0108659999999999
1005,-0.57007,0.263538,0.7781560000000001,0.004671,-0.025913,0.0106319999999999
1006,-0.569979,0.263448,0.778253,0.001421,-0.024984,0.009329
1007,-0.569999,0.263369,0.778265,0.002464,-0.023318,0.012308
1008,-0.570153,0.263316,0.7781710000000001,0.005715,-0.017222,0.007474
1009,-0.5703779999999999,0.263286,0.778016,0.011479,-0.012325,0.007232
1010,-0.57057,0.263339,0.777857,0.010893,-0.014819,0.006552
1011,-0.570692,0.263378,0.777754,0.011274,-0.010494,0.007997
1012,-0.570745,0.263398,0.777708,0.011541,-0.008576,0.006793
1013,-0.570774,0.263422,0.777678,0.013859,-0.008234,0.008164
1014,-0.570788,0.263425,0.777667,0.011828,-0.008115,0.005994
1015,-0.570736,0.263441,0.7777,0.0140039999999999,-0.0091989999999999,0.007532
1016,-0.570654,0.2634309999999999,0.777763,0.011877,-0.012576,0.0081409999999999
1017,-0.570484,0.263422,0.777891,0.011341,-0.012155,0.009478
1018,-0.5703020000000001,0.263359,0.778046,0.010366,-0.013283,0.00943
1019,-0.570178,0.263311,0.778154,0.010196,-0.015646,0.010375
1020,-0.570114,0.263282,0.7782100000000001,0.0098269999999999,-0.019004,0.009647
1021,-0.5701039999999999,0.263234,0.778233,0.008733,-0.021901,0.0083579999999999
1022,-0.570108,0.263184,0.778247,0.00654,-0.020508,0.00749
1023,-0.570171,0.263113,0.778224,0.006786,-0.019293,0.010701
1024,-0.570297,0.263077,0.778144,0.00795,-0.013749,0.009301
1025,-0.570488,0.2630429999999999,0.778016,0.007988,-0.015484,0.0086819999999999
1026,-0.57071,0.263075,0.777842,0.008484,-0.013883,0.005758
1027,-0.57092,0.2631239999999999,0.777671,0.011823,-0.013383,0.00657
1028,-0.571075,0.263154,0.777546,0.012619,-0.011644,0.009304
1029,-0.571183,0.263228,0.777442,0.010789,-0.011184,0.0047539999999999
1030,-0.571271,0.263317,0.7773479999999999,0.011884,-0.01324,0.004711
1031,-0.571307,0.263365,0.777305,0.011279,-0.013136,0.006386
1032,-0.571248,0.263377,0.777345,0.0109,-0.013896,0.0074909999999999
1033,-0.571076,0.263351,0.7774800000000001,0.010804,-0.0126489999999999,0.007967
1034,-0.5708810000000001,0.263291,0.7776430000000001,0.011525,-0.014176,0.011297
1035,-0.570711,0.26325,0.777782,0.009279,-0.013952,0.009969
1036,-0.570573,0.263258,0.77788,0.010179,-0.0140819999999999,0.0100069999999999
1037,-0.570505,0.263275,0.777925,0.010187,-0.0160669999999999,0.008269
1038,-0.5704640000000001,0.263345,0.777931,0.010848,-0.017693,0.011223
1039,-0.5704640000000001,0.263425,0.777904,0.0132129999999999,-0.0202,0.007939
1040,-0.570549,0.263545,0.7778,0.0120019999999999,-0.0167949999999999,0.010347
1041,-0.570661,0.2636449999999999,0.777684,0.0116709999999999,-0.018543,0.01028
1042,-0.5708449999999999,0.263751,0.777514,0.009443,-0.0150789999999999,0.008466
1043,-0.571102,0.26384,0.777295,0.010539,-0.015854,0.007312
1044,-0.5713699999999999,0.263963,0.7770560000000001,0.010564,-0.012041,0.0073069999999999
1045,-0.571643,0.2641239999999999,0.7768010000000001,0.012347,-0.012582,0.008081
1046,-0.571887,0.26425,0.776578,0.010517,-0.0120069999999999,0.009158
1047,-0.572118,0.26437,0.776367,0.009939,-0.014477,0.004456
1048,-0.572268,0.264488,0.776216,0.010897,-0.016624,0.004592
1049,-0.572345,0.264584,0.776125,0.0107459999999999,-0.012662,0.008192
1050,-0.572292,0.264666,0.776137,0.008754,-0.01073,0.00937
1051,-0.572342,0.2647199999999999,0.776081,0.0077209999999999,-0.0077459999999999,0.011654
1052,-0.5724859999999999,0.264789,0.7759510000000001,0.007911,-0.01163,0.009022
1053,-0.572679,0.264882,0.775777,0.008394,-0.014424,0.0073349999999999
1054,-0.5728840000000001,0.264937,0.7756069999999999,0.009895,-0.0165389999999999,0.009076
1055,-0.573102,0.264978,0.775432,0.011091,-0.016061,0.009739
1056,-0.5733199999999999,0.265002,0.775263,0.012346,-0.01697,0.01032
1057,-0.573525,0.265028,0.775103,0.011865,-0.015119,0.009321
1058,-0.573707,0.265101,0.774943,0.012977,-0.014582,0.009084
1059,-0.57386,0.2651739999999999,0.774805,0.013084,-0.013191,0.006964
1060,-0.57402,0.265236,0.7746649999999999,0.012314,-0.013756,0.008737
1061,-0.5741470000000001,0.265309,0.774546,0.011067,-0.015004,0.0056359999999999
1062,-0.574214,0.265401,0.774465,0.014781,-0.013768,0.010478
1063,-0.574253,0.265489,0.774406,0.0146819999999999,-0.014131,0.010277
1064,-0.5743520000000001,0.265585,0.774299,0.010983,-0.013037,0.012994
1065,-0.574541,0.265684,0.774125,0.010714,-0.015257,0.008804
1066,-0.574824,0.265807,0.7738729999999999,0.011271,-0.012359,0.009681
1067,-0.575177,0.265934,0.773567,0.011655,-0.013295,0.008171
1068,-0.5755520000000001,0.266038,0.773252,0.010413,-0.015077,0.007861
1069,-0.575887,0.266159,0.772961,0.011038,-0.014297,0.008762
1070,-0.5761729999999999,0.26626,0.772713,0.008241,-0.0140629999999999,0.009315
1071,-0.576396,0.266344,0.772518,0.012217,-0.013186,0.00829
1072,-0.576544,0.266417,0.772382,0.010992,-0.013777,0.007861
1073,-0.576719,0.266498,0.772224,0.009077,-0.015323,0.009835
1074,-0.576916,0.2665889999999999,0.772044,0.01257,-0.014453,0.0070849999999999
1075,-0.5770890000000001,0.2666489999999999,0.771893,0.009843,-0.0151539999999999,0.005832
1076,-0.577232,0.2667199999999999,0.771762,0.009727,-0.014996,0.007367
1077,-0.577338,0.266797,0.7716569999999999,0.009955,-0.0137759999999999,0.0085709999999999
1078,-0.57739,0.266843,0.771601,0.013349,-0.013257,0.009756
1079,-0.57745,0.266876,0.771544,0.010907,-0.01242,0.010011
1080,-0.577497,0.266904,0.7714989999999999,0.014036,-0.01608,0.010514
1081,-0.577508,0.266921,0.7714850000000001,0.01275,-0.017348,0.0107879999999999
1082,-0.5774819999999999,0.266978,0.7714850000000001,0.010496,-0.011652,0.008926
1083,-0.5776,0.26703,0.771379,0.0100349999999999,-0.009644,0.00923
1084,-0.5778270000000001,0.267084,0.7711899999999999,0.011222,-0.013102,0.009725
1085,-0.578048,0.267165,0.770997,0.013961,-0.0150139999999999,0.009216
1086,-0.5782189999999999,0.267227,0.7708470000000001,0.011645,-0.014877,0.009488
1087,-0.578365,0.267264,0.770724,0.012417,-0.01853,0.010221
1088,-0.5785140000000001,0.267264,0.770612,0.0134659999999999,-0.015936,0.009768
1089,-0.578616,0.267256,0.7705390000000001,0.012499,-0.013518,0.006912
1090,-0.578696,0.2672739999999999,0.770472,0.013434,-0.013368,0.007711
1091,-0.5787760000000001,0.267296,0.770403,0.012355,-0.013054,0.008436
1092,-0.578869,0.267309,0.770329,0.01109,-0.012167,0.009655
1093,-0.5790109999999999,0.267354,0.770207,0.011888,-0.014028,0.007763
1094,-0.579134,0.267381,0.770105,0.010485,-0.014085,0.007926
1095,-0.579206,0.267396,0.770045,0.012205,-0.011354,0.007406
1096,-0.579268,0.267411,0.769994,0.01248,-0.013123,0.009303
1097,-0.5792729999999999,0.267416,0.769988,0.0129729999999999,-0.012915,0.008973
1098,-0.579209,0.267384,0.770046,0.012116,-0.013783,0.007114
1099,-0.579082,0.267331,0.7701600000000001,0.012752,-0.014905,0.0098079999999999
1100,-0.578897,0.267268,0.7703220000000001,0.0106439999999999,-0.0143229999999999,0.007373
1101,-0.578701,0.2671929999999999,0.770496,0.007824,-0.013775,0.009595
1102,-0.578548,0.2671139999999999,0.770637,0.010112,-0.016305,0.0093
1103,-0.578469,0.267045,0.77072,0.0111019999999999,-0.0132909999999999,0.010072
1104,-0.578434,0.267,0.770762,0.0131259999999999,-0.0128949999999999,0.008565
1105,-0.578414,0.266953,0.7707930000000001,0.013519,-0.014008,0.008855
1106,-0.578339,0.26691,0.7708649999999999,0.013641,-0.013752,0.008692
1107,-0.578203,0.266832,0.770994,0.014086,-0.013201,0.010287
1108,-0.5779880000000001,0.266742,0.7711859999999999,0.014939,-0.013537,0.0082329999999999
1109,-0.577762,0.266667,0.7713810000000001,0.013431,-0.013828,0.008908
1110,-0.577569,0.266613,0.771544,0.010964,-0.013881,0.009965
1111,-0.577446,0.266592,0.7716430000000001,0.00927,-0.013235,0.010294
1112,-0.5773659999999999,0.266544,0.7717189999999999,0.010334,-0.015812,0.008966
1113,-0.577227,0.2664809999999999,0.771846,0.0114,-0.0151539999999999,0.007634
1114,-0.577036,0.266426,0.772007,0.011469,-0.010582,0.00848
1115,-0.576937,0.266336,0.772113,0.012972,-0.011255,0.009854
1116,-0.57686,0.266306,0.772181,0.012636,-0.014933,0.008856
1117,-0.576803,0.266264,0.772238,0.01209,-0.014921,0.007456
1118,-0.576729,0.266204,0.772313,0.010583,-0.015822,0.010051
1119,-0.5766439999999999,0.266105,0.772411,0.011489,-0.015952,0.009708
1120,-0.576553,0.265998,0.772517,0.0129389999999999,-0.0150669999999999,0.009771
1121,-0.576451,0.265893,0.772628,0.00771,-0.012292,0.00969
1122,-0.5763229999999999,0.26579,0.77276,0.011,-0.013806,0.008033
1123,-0.576184,0.265701,0.772893,0.009931,-0.0128479999999999,0.009394
1124,-0.5760890000000001,0.265612,0.772995,0.011483,-0.012697,0.010269
1125,-0.576023,0.265552,0.7730640000000001,0.011341,-0.012668,0.009269
1126,-0.575925,0.265513,0.773151,0.014112,-0.0160319999999999,0.009854
1127,-0.575765,0.265482,0.77328,0.014669,-0.015421,0.007344
1128,-0.575605,0.265421,0.77342,0.013334,-0.016489,0.0088519999999999
1129,-0.575434,0.265357,0.77357,0.011545,-0.015754,0.0103349999999999
1130,-0.575314,0.2652989999999999,0.773679,0.010937,-0.014292,0.008884
1131,-0.57519,0.265251,0.773787,0.010737,-0.014672,0.010499
1132,-0.575078,0.265203,0.773887,0.01328,-0.013677,0.0101549999999999
1133,-0.574963,0.265161,0.773987,0.0120209999999999,-0.013116,0.009826
1134,-0.5748449999999999,0.265113,0.774092,0.0121459999999999,-0.012687,0.009538
1135,-0.5747439999999999,0.265058,0.7741859999999999,0.010962,-0.012754,0.007567
1136,-0.57465,0.264989,0.77428,0.012043,-0.012059,0.009579
1137,-0.5745359999999999,0.2649289999999999,0.774385,0.012464,-0.011816,0.00891
1138,-0.574408,0.264869,0.7745,0.011207,-0.012931,0.0088709999999999
1139,-0.574294,0.264795,0.774609,0.012022,-0.01356,0.007984
1140,-0.574164,0.264741,0.774724,0.012137,-0.013963,0.009257
1141,-0.574045,0.264681,0.774833,0.00976,-0.012972,0.007821
1142,-0.5739449999999999,0.264615,0.77493,0.01384,-0.01283,0.0103489999999999
1143,-0.5738439999999999,0.2645409999999999,0.775029,0.011543,-0.015808,0.006236
1144,-0.573752,0.2644849999999999,0.775116,0.0119379999999999,-0.015812,0.007644
1145,-0.573592,0.264425,0.7752560000000001,0.0116099999999999,-0.014028,0.009229
1146,-0.573411,0.264346,0.775415,0.010835,-0.0111569999999999,0.008597
1147,-0.573298,0.264243,0.7755340000000001,0.0132389999999999,-0.015159,0.007883
1148,-0.573191,0.264173,0.775636,0.0128729999999999,-0.0144479999999999,0.01007
1149,-0.573099,0.264107,0.775727,0.013818,-0.013436,0.0095819999999999
1150,-0.57299,0.264034,0.775832,0.010886,-0.011837,0.008485
1151,-0.572937,0.263947,0.7759010000000001,0.012756,-0.010987,0.008797
1152,-0.572925,0.263861,0.77594,0.011356,-0.015647,0.006333
1153,-0.572932,0.263793,0.775958,0.013484,-0.0146169999999999,0.007902
1154,-0.5729350000000001,0.263766,0.775965,0.010862,-0.013613,0.011465
1155,-0.572951,0.263723,0.7759689999999999,0.013182,-0.011342,0.007906
1156,-0.5729529999999999,0.263676,0.775983,0.0102239999999999,-0.01038,0.0067769999999999
1157,-0.5729479999999999,0.263631,0.776003,0.009349,-0.012685,0.0082989999999999
1158,-0.572915,0.263583,0.776043,0.0116969999999999,-0.013491,0.005879
1159,-0.572865,0.263552,0.77609,0.011998,-0.010943,0.0097989999999999
1160,-0.572799,0.263524,0.776148,0.0130759999999999,-0.012899,0.00826
1161,-0.572702,0.263493,0.776231,0.012261,-0.013737,0.00981
1162,-0.5726289999999999,0.263443,0.776302,0.0135009999999999,-0.013672,0.00832
1163,-0.572565,0.263382,0.77637,0.010462,-0.013534,0.007581
1164,-0.5724859999999999,0.263321,0.7764479999999999,0.012336,-0.0146639999999999,0.007441
1165,-0.572416,0.263283,0.776513,0.011228,-0.011849,0.008048
1166,-0.57235,0.263241,0.776576,0.011803,-0.011669,0.009419
1167,-0.572295,0.263203,0.776629,0.0129539999999999,-0.0129439999999999,0.00929
1168,-0.57228,0.263175,0.77665,0.012756,-0.01171,0.007896
1169,-0.572268,0.2631469999999999,0.776668,0.0144219999999999,-0.011393,0.008763
1170,-0.5722510000000001,0.26313,0.776687,0.013016,-0.011543,0.00911
1171,-0.572242,0.263104,0.7767029999999999,0.012229,-0.013073,0.009552
1172,-0.572271,0.263081,0.77669,0.014425,-0.0136759999999999,0.009031
1173,-0.572268,0.2630659999999999,0.776697,0.0134759999999999,-0.0139969999999999,0.008826
1174,-0.572286,0.263072,0.776682,0.012258,-0.013911,0.007223
1175,-0.572329,0.263084,0.7766460000000001,0.0079519999999999,-0.01197,0.008907
1176,-0.572349,0.263083,0.776632,0.009849,-0.0147,0.005396
1177,-0.572351,0.263058,0.7766390000000001,0.0115599999999999,-0.012692,0.0083959999999999
1178,-0.57227,0.2630139999999999,0.776714,0.0118599999999999,-0.010527,0.009235
1179,-0.5722470000000001,0.262962,0.776749,0.013852,-0.0102,0.010055
1180,-0.572281,0.262961,0.776725,0.010559,-0.013663,0.0080959999999999
1181,-0.572349,0.262973,0.77667,0.011543,-0.0129419999999999,0.00603
1182,-0.572417,0.262969,0.776621,0.012572,-0.012221,0.009405
1183,-0.5724670000000001,0.262923,0.7766,0.011615,-0.012404,0.007275
1184,-0.572476,0.262852,0.776617,0.012341,-0.012288,0.006266
1185,-0.572431,0.2627739999999999,0.776676,0.010206,-0.0129729999999999,0.008175
1186,-0.572345,0.262692,0.776767,0.012546,-0.013806,0.008938
1187,-0.572245,0.2626179999999999,0.776866,0.011408,-0.014159,0.008565
1188,-0.5721430000000001,0.262573,0.7769560000000001,0.010375,-0.013656,0.009665
1189,-0.5720569999999999,0.262547,0.777027,0.012456,-0.013478,0.009807
1190,-0.571991,0.262544,0.7770779999999999,0.012695,-0.01526,0.008918
1191,-0.571914,0.262552,0.7771319999999999,0.013335,-0.0132389999999999,0.009718
1192,-0.571872,0.262565,0.777158,0.0149259999999999,-0.014274,0.009265
1193,-0.571847,0.262565,0.777176,0.012078,-0.012046,0.009674
1194,-0.571829,0.26256,0.777191,0.010931,-0.010745,0.009278
1195,-0.571829,0.262579,0.777185,0.0113739999999999,-0.012289,0.009528
1196,-0.571886,0.262588,0.7771399999999999,0.013308,-0.012573,0.0094349999999999
1197,-0.5719770000000001,0.262612,0.777066,0.011766,-0.01249,0.008198
1198,-0.572083,0.262667,0.7769689999999999,0.0118409999999999,-0.013888,0.010506
1199,-0.572213,0.262738,0.776849,0.012581,-0.012707,0.0091159999999999
1200,-0.572346,0.262837,0.776717,0.014912,-0.013692,0.010469
1201,-0.5724779999999999,0.262932,0.7765890000000001,0.012511,-0.012077,0.006889
1202,-0.572587,0.263007,0.776483,0.0127879999999999,-0.01406,0.007437
1203,-0.572637,0.263081,0.776421,0.0128069999999999,-0.014546,0.007591
1204,-0.572673,0.2631429999999999,0.776374,0.009883,-0.012258,0.00982
1205,-0.57275,0.263208,0.776295,0.00996,-0.012323,0.009899
1206,-0.572868,0.26327,0.776187,0.010093,-0.012553,0.0074129999999999
1207,-0.573009,0.26332,0.776065,0.012203,-0.010589,0.0062369999999999
1208,-0.5732109999999999,0.26337,0.7759,0.010314,-0.011737,0.005579
1209,-0.5734229999999999,0.263403,0.775732,0.012022,-0.012106,0.00477
1210,-0.5736,0.263442,0.775588,0.01464,-0.014327,0.00824
1211,-0.573696,0.263486,0.775502,0.012844,-0.013624,0.006953
1212,-0.573706,0.263548,0.775474,0.0109319999999999,-0.008573,0.00924
1213,-0.573875,0.263581,0.775338,0.013557,-0.011628,0.011177
1214,-0.574088,0.263655,0.775155,0.012412,-0.0120069999999999,0.008719
1215,-0.5743,0.263746,0.774967,0.012471,-0.013746,0.008984
1216,-0.574497,0.263807,0.7748,0.015552,-0.014768,0.010372
1217,-0.574657,0.263835,0.774671,0.014919,-0.014903,0.008806
1218,-0.574821,0.26386,0.774542,0.012459,-0.016378,0.011179
1219,-0.5750109999999999,0.263889,0.7743909999999999,0.011397,-0.014484,0.009453
1220,-0.57528,0.26394,0.774174,0.00808,-0.01394,0.008251
1221,-0.5755279999999999,0.2639829999999999,0.773976,0.010312,-0.011572,0.005992
1222,-0.575757,0.264034,0.773788,0.012189,-0.0115769999999999,0.00705
1223,-0.57597,0.264076,0.773616,0.011883,-0.010796,0.0076799999999999
1224,-0.576164,0.2641409999999999,0.7734479999999999,0.014946,-0.011089,0.008229
1225,-0.5763189999999999,0.264221,0.773306,0.015665,-0.014221,0.009134
1226,-0.576446,0.26429,0.773187,0.012694,-0.014733,0.010123
1227,-0.5765779999999999,0.264365,0.7730640000000001,0.011545,-0.013907,0.0070569999999999
1228,-0.576684,0.264411,0.7729689999999999,0.012109,-0.014609,0.008235
1229,-0.576766,0.264449,0.772895,0.013305,-0.012968,0.009484
1230,-0.576817,0.264477,0.7728470000000001,0.011495,-0.013928,0.008052
1231,-0.576882,0.264533,0.772779,0.013833,-0.0133889999999999,0.009417
1232,-0.576983,0.2645889999999999,0.7726850000000001,0.0122709999999999,-0.015108,0.0089769999999999
1233,-0.577124,0.2646469999999999,0.77256,0.0109769999999999,-0.012281,0.0085069999999999
1234,-0.5773020000000001,0.264683,0.772415,0.010773,-0.01099,0.008438
1235,-0.577481,0.264742,0.772261,0.013303,-0.012834,0.009661
1236,-0.57763,0.264817,0.772123,0.01159,-0.011903,0.008715
1237,-0.5777140000000001,0.264907,0.77203,0.013719,-0.011413,0.006611
1238,-0.5777800000000001,0.264959,0.7719630000000001,0.0132039999999999,-0.014181,0.008005
1239,-0.5778220000000001,0.264998,0.771918,0.012194,-0.012358,0.009851
1240,-0.5778439999999999,0.265022,0.771893,0.010583,-0.011512,0.009769
1241,-0.577922,0.265059,0.771822,0.011226,-0.011869,0.010725
1242,-0.5780770000000001,0.265102,0.771691,0.011427,-0.013942,0.010139
1243,-0.5782430000000001,0.265134,0.771556,0.014736,-0.0145849999999999,0.008214
1244,-0.5783520000000001,0.265159,0.771466,0.013349,-0.016151,0.008212
1245,-0.578348,0.265192,0.771457,0.012094,-0.010324,0.009381
1246,-0.578387,0.265232,0.771414,0.0128659999999999,-0.007709,0.009531
1247,-0.578497,0.265282,0.771315,0.012167,-0.008842,0.01047
1248,-0.5786060000000001,0.265315,0.771221,0.012856,-0.012797,0.009128
1249,-0.578712,0.265323,0.771139,0.011558,-0.014163,0.010019
1250,-0.5788260000000001,0.265321,0.771054,0.013198,-0.0141919999999999,0.009631
1251,-0.57896,0.265315,0.7709550000000001,0.012279,-0.0150699999999999,0.01269
1252,-0.579087,0.265289,0.7708689999999999,0.012009,-0.012145,0.008504
1253,-0.579231,0.265275,0.7707649999999999,0.013451,-0.013902,0.007723
1254,-0.579341,0.265297,0.770674,0.011684,-0.012459,0.006243
1255,-0.579374,0.265305,0.770647,0.0139289999999999,-0.013,0.006254
1256,-0.579393,0.265323,0.770626,0.013749,-0.013202,0.008961
1257,-0.579339,0.265302,0.770674,0.0130699999999999,-0.013288,0.006884
1258,-0.579228,0.265278,0.770766,0.01244,-0.011372,0.00789
1259,-0.579116,0.2652469999999999,0.77086,0.0129699999999999,-0.009907,0.008666
1260,-0.5790310000000001,0.265226,0.770932,0.013158,-0.009824,0.008502
1261,-0.578965,0.2651929999999999,0.770992,0.013459,-0.011455,0.0103489999999999
1262,-0.578855,0.265161,0.7710859999999999,0.012525,-0.013712,0.0093099999999999
1263,-0.578732,0.265128,0.7711899999999999,0.0122189999999999,-0.01319,0.007161
1264,-0.5786100000000001,0.26508,0.7712979999999999,0.011807,-0.010579,0.007923
1265,-0.578527,0.265032,0.7713760000000001,0.0134939999999999,-0.0123159999999999,0.0097209999999999
1266,-0.578468,0.264997,0.771432,0.009636,-0.014188,0.00788
1267,-0.578449,0.264978,0.7714529999999999,0.010838,-0.010675,0.00969
1268,-0.578421,0.264949,0.7714850000000001,0.0123959999999999,-0.012905,0.008636
1269,-0.578361,0.264921,0.77154,0.01319,-0.01132,0.007223
1270,-0.578284,0.264871,0.771614,0.013953,-0.015405,0.008125
1271,-0.5781569999999999,0.26484,0.77172,0.012697,-0.014535,0.009255
1272,-0.578015,0.264794,0.771842,0.013302,-0.013131,0.008752
1273,-0.577864,0.264733,0.771977,0.012938,-0.01075,0.011013
1274,-0.577795,0.264702,0.772039,0.013265,-0.011757,0.007227
1275,-0.577753,0.264675,0.772079,0.012522,-0.009899,0.008026
1276,-0.577626,0.2646219999999999,0.772193,0.014943,-0.016026,0.008905
1277,-0.577434,0.264574,0.772353,0.01292,-0.01169,0.008699
1278,-0.577228,0.2645119999999999,0.772528,0.0132319999999999,-0.011521,0.009119
1279,-0.577091,0.264436,0.772655,0.0134159999999999,-0.01053,0.009968
1280,-0.5769989999999999,0.264399,0.772737,0.01247,-0.009516,0.008772
1281,-0.576952,0.264348,0.77279,0.01198,-0.012059,0.007377
1282,-0.5768810000000001,0.264267,0.77287,0.011345,-0.012833,0.0080439999999999
1283,-0.576824,0.264192,0.772938,0.011395,-0.011888,0.011165
1284,-0.576775,0.264105,0.773005,0.012596,-0.014929,0.007833
1285,-0.5767399999999999,0.2640099999999999,0.7730640000000001,0.012485,-0.014865,0.0093
1286,-0.5766819999999999,0.263937,0.7731319999999999,0.01374,-0.013174,0.010056
1287,-0.576609,0.263901,0.773199,0.012492,-0.01207,0.008311
1288,-0.5765359999999999,0.263882,0.7732600000000001,0.009947,-0.009792,0.007944
1289,-0.576448,0.263863,0.773332,0.009645,-0.010919,0.006499
1290,-0.576328,0.263828,0.773433,0.01189,-0.013401,0.00861
1291,-0.576205,0.263777,0.773542,0.011554,-0.011641,0.007937
1292,-0.576098,0.263732,0.773638,0.012789,-0.010726,0.00601
1293,-0.575976,0.263716,0.773734,0.012713,-0.01074,0.009637
1294,-0.575865,0.2636699999999999,0.773832,0.013243,-0.012816,0.008943
1295,-0.575743,0.263625,0.773938,0.014769,-0.012786,0.008258
1296,-0.575591,0.26356,0.7740739999999999,0.012938,-0.0120489999999999,0.007252
1297,-0.575405,0.263506,0.77423,0.012188,-0.012148,0.008912
1298,-0.575248,0.263442,0.7743680000000001,0.0128849999999999,-0.012237,0.010071
1299,-0.575129,0.2634039999999999,0.774469,0.011912,-0.012229,0.011084
1300,-0.575068,0.26337,0.774526,0.012095,-0.011295,0.007609
1301,-0.575005,0.263348,0.77458,0.01107,-0.012646,0.008928
1302,-0.57495,0.263331,0.774626,0.012008,-0.010844,0.007127
1303,-0.574913,0.263301,0.7746649999999999,0.013267,-0.011058,0.009393
1304,-0.574867,0.26329,0.7747029999999999,0.01226,-0.012222,0.009034
1305,-0.574752,0.263266,0.774796,0.014145,-0.009818,0.008026
1306,-0.574627,0.263193,0.774914,0.010906,-0.0105989999999999,0.0072209999999999
1307,-0.574455,0.2630969999999999,0.7750739999999999,0.011695,-0.011068,0.0070459999999999
1308,-0.574202,0.262971,0.775303,0.013274,-0.014787,0.004604
1309,-0.573828,0.262846,0.775623,0.010901,-0.0177139999999999,0.007351
1310,-0.573341,0.262723,0.776025,0.012459,-0.0118079999999999,0.006873
1311,-0.572973,0.26261,0.776335,0.013143,-0.011328,0.011858
1312,-0.572738,0.262542,0.7765310000000001,0.011413,-0.014022,0.014256
1313,-0.572674,0.262519,0.776586,0.010998,-0.012626,0.0136199999999999
1314,-0.5727800000000001,0.262513,0.77651,0.011424,-0.012192,0.013972
1315,-0.57296,0.2625159999999999,0.7763760000000001,0.0116189999999999,-0.008229,0.008231
1316,-0.573141,0.262468,0.776258,0.014471,-0.006715,0.006731
1317,-0.573307,0.262394,0.776162,0.0140419999999999,-0.006931,0.008232
1318,-0.573451,0.262325,0.776079,0.012431,-0.005794,0.006514
1319,-0.573591,0.262282,0.77599,0.010862,-0.007567,0.004863
1320,-0.573708,0.262251,0.775913,0.008645,-0.008421,0.003872
1321,-0.573758,0.262239,0.77588,0.009626,-0.0109579999999999,0.002898
1322,-0.573734,0.262248,0.775895,0.010227,-0.013179,0.002731
1323,-0.573571,0.262189,0.776036,0.011803,-0.016415,0.004268
1324,-0.573287,0.262105,0.776273,0.009887,-0.016683,0.005221
1325,-0.572893,0.261988,0.776604,0.010973,-0.01768,0.00573
1326,-0.572439,0.261886,0.7769739999999999,0.008108,-0.019058,0.006092
1327,-0.5720310000000001,0.261791,0.777306,0.008859,-0.017467,0.014778
1328,-0.571779,0.2616739999999999,0.7775310000000001,0.009614,-0.013933,0.013958
1329,-0.571732,0.261614,0.777586,0.0118409999999999,-0.010637,0.014055
1330,-0.571792,0.261594,0.7775489999999999,0.013641,-0.007993,0.0106439999999999
1331,-0.571914,0.261611,0.777454,0.018706,-0.0054,0.011548
1332,-0.5720310000000001,0.261626,0.777362,0.018884,-0.004729,0.008237
1333,-0.572129,0.261629,0.777289,0.018937,-0.005083,0.0075159999999999
1334,-0.572156,0.2616219999999999,0.7772720000000001,0.015957,-0.004496,0.00764
1335,-0.57216,0.261619,0.77727,0.012834,-0.007941,0.007795
1336,-0.572194,0.261607,0.7772479999999999,0.012304,-0.011439,0.006443
1337,-0.57222,0.261585,0.7772359999999999,0.011002,-0.013431,0.0053409999999999
1338,-0.57219,0.261582,0.777259,0.010056,-0.013993,0.004342
1339,-0.572113,0.261544,0.77733,0.008178,-0.015496,0.007293
1340,-0.571969,0.261453,0.777466,0.007409,-0.018655,0.005615
1341,-0.571764,0.261395,0.777636,0.005938,-0.019833,0.0054909999999999
1342,-0.571597,0.261344,0.777775,0.008792,-0.016349,0.009548
1343,-0.571416,0.261295,0.777925,0.009221,-0.010211,0.008346
1344,-0.571367,0.261229,0.777983,0.0112629999999999,-0.009367,0.010713
1345,-0.571415,0.26123,0.777947,0.013828,-0.008895,0.011482
1346,-0.571526,0.261256,0.777857,0.013299,-0.008509,0.00997
1347,-0.5716439999999999,0.261302,0.777754,0.013141,-0.005138,0.007081
1348,-0.5717369999999999,0.261338,0.777674,0.013784,-0.006837,0.008245
1349,-0.571838,0.261388,0.777583,0.011718,-0.0076489999999999,0.005422
1350,-0.5719350000000001,0.261424,0.7774989999999999,0.01296,-0.011333,0.00842
1351,-0.572021,0.2614849999999999,0.777416,0.012664,-0.015865,0.00684
1352,-0.572128,0.261538,0.777319,0.014801,-0.014147,0.0080819999999999
1353,-0.572218,0.261586,0.777237,0.013807,-0.015354,0.00769
1354,-0.572294,0.261659,0.7771560000000001,0.011167,-0.015672,0.00948
1355,-0.572383,0.261767,0.777054,0.010142,-0.01546,0.009643
1356,-0.572496,0.261887,0.776931,0.01201,-0.015045,0.008347
1357,-0.572628,0.262008,0.776792,0.010434,-0.011901,0.008471
1358,-0.572809,0.262157,0.776609,0.010614,-0.012051,0.008654
1359,-0.572994,0.262268,0.776435,0.01205,-0.01091,0.008782
1360,-0.573178,0.262366,0.776266,0.011884,-0.009193,0.008158
1361,-0.573326,0.262481,0.776119,0.013572,-0.007888,0.007161
1362,-0.57347,0.262581,0.775978,0.0145099999999999,-0.007668,0.008217
1363,-0.573574,0.262663,0.7758729999999999,0.0131949999999999,-0.0088019999999999,0.007101
1364,-0.5736859999999999,0.262736,0.7757649999999999,0.012879,-0.009791,0.007133
1365,-0.5738260000000001,0.262805,0.7756390000000001,0.012501,-0.011066,0.0081599999999999
1366,-0.57396,0.262896,0.775508,0.012055,-0.0122239999999999,0.0080159999999999
1367,-0.574078,0.262971,0.775395,0.0106629999999999,-0.0136879999999999,0.009395
1368,-0.574226,0.263026,0.775267,0.008979,-0.012569,0.010606
1369,-0.57438,0.263084,0.775133,0.011682,-0.012031,0.008787
1370,-0.574555,0.263151,0.77498,0.011552,-0.014387,0.010298
1371,-0.574724,0.263193,0.77484,0.012407,-0.0119569999999999,0.007539
1372,-0.574847,0.263253,0.77473,0.013628,-0.011894,0.010808
1373,-0.575001,0.263318,0.774594,0.010227,-0.0096099999999999,0.008411
1374,-0.5751930000000001,0.263408,0.77442,0.011229,-0.011318,0.009806
1375,-0.575371,0.263488,0.7742600000000001,0.011589,-0.013549,0.007417
1376,-0.575485,0.263547,0.7741560000000001,0.0121,-0.013058,0.009078
1377,-0.57555,0.263623,0.7740819999999999,0.011875,-0.007992,0.006252
1378,-0.5757439999999999,0.263681,0.773918,0.0108019999999999,-0.007608,0.007653
1379,-0.575962,0.263746,0.773734,0.014362,-0.008741,0.00747
1380,-0.576153,0.263811,0.773569,0.015347,-0.013261,0.007162
1381,-0.576298,0.263858,0.7734449999999999,0.012852,-0.01279,0.0080489999999999
1382,-0.57644,0.263879,0.773332,0.012444,-0.014505,0.010482
1383,-0.576627,0.263884,0.7731899999999999,0.011396,-0.0135639999999999,0.008747
1384,-0.576803,0.263915,0.773048,0.011236,-0.010406,0.006371
1385,-0.576986,0.263944,0.7729020000000001,0.010626,-0.01045,0.006944
1386,-0.577153,0.263968,0.77277,0.013722,-0.010504,0.009289
1387,-0.577281,0.264009,0.77266,0.010921,-0.010316,0.005981
1388,-0.577426,0.264051,0.772537,0.011646,-0.011167,0.004868
1389,-0.577522,0.264096,0.77245,0.0123209999999999,-0.011289,0.006313
1390,-0.577579,0.264126,0.772397,0.0131569999999999,-0.012158,0.009692
1391,-0.57765,0.264164,0.772331,0.014174,-0.011479,0.009849
1392,-0.577731,0.264214,0.772255,0.01224,-0.011666,0.008202
1393,-0.5778409999999999,0.264296,0.7721439999999999,0.0118459999999999,-0.009108,0.007473
1394,-0.577919,0.264346,0.772069,0.013496,-0.0117209999999999,0.007884
1395,-0.577983,0.264382,0.7720100000000001,0.012553,-0.011788,0.008325
1396,-0.578068,0.264396,0.771941,0.011311,-0.012031,0.0102849999999999
1397,-0.578167,0.26443,0.7718550000000001,0.012768,-0.010722,0.00851
1398,-0.578333,0.264472,0.771717,0.011866,-0.011894,0.008602
1399,-0.578497,0.264505,0.771584,0.012426,-0.009927,0.008675
1400,-0.578663,0.26455,0.7714439999999999,0.012028,-0.008477,0.007014
1401,-0.5788300000000001,0.264586,0.771306,0.009936,-0.009322,0.007243
1402,-0.5789300000000001,0.2646159999999999,0.771221,0.0141409999999999,-0.0118079999999999,0.0069159999999999
1403,-0.5789880000000001,0.264627,0.771174,0.013817,-0.012551,0.008855
1404,-0.578952,0.264628,0.7712,0.014087,-0.01037,0.006586
1405,-0.578857,0.264607,0.771279,0.0115959999999999,-0.0108989999999999,0.009147
1406,-0.578793,0.26459,0.771333,0.011929,-0.010379,0.007308
1407,-0.578763,0.264521,0.771378,0.011045,-0.010554,0.0077659999999999
1408,-0.578652,0.264441,0.77149,0.012719,-0.012564,0.006709
1409,-0.5784590000000001,0.264361,0.771662,0.011412,-0.010653,0.007345
1410,-0.5782079999999999,0.264319,0.7718649999999999,0.011542,-0.007742,0.00644
1411,-0.5780930000000001,0.264265,0.7719689999999999,0.009871,-0.005949,0.008412
1412,-0.578014,0.264243,0.772035,0.0121269999999999,-0.010413,0.007887
1413,-0.577959,0.264184,0.772096,0.0133689999999999,-0.012948,0.007994
1414,-0.577878,0.264094,0.772187,0.0135009999999999,-0.01295,0.0101459999999999
1415,-0.577765,0.2640139999999999,0.772299,0.0130979999999999,-0.012182,0.009043
1416,-0.577663,0.263926,0.772406,0.010372,-0.010554,0.0086
1417,-0.577554,0.263822,0.772523,0.012918,-0.0117159999999999,0.006102
1418,-0.577465,0.263726,0.772622,0.01286,-0.01278,0.006995
1419,-0.577338,0.263663,0.772738,0.012137,-0.010687,0.007642
1420,-0.5771689999999999,0.263619,0.772879,0.012197,-0.009881,0.0068909999999999
1421,-0.57703,0.2635699999999999,0.772999,0.012074,-0.009893,0.0079
1422,-0.576922,0.263507,0.7731020000000001,0.013247,-0.011706,0.007889
1423,-0.576781,0.263457,0.773224,0.0106489999999999,-0.010375,0.006103
1424,-0.576639,0.26341,0.773345,0.012491,-0.011076,0.009385
1425,-0.576534,0.263374,0.773436,0.012157,-0.009361,0.0091569999999999
1426,-0.576416,0.263325,0.77354,0.011979,-0.009877,0.006291
1427,-0.576276,0.263294,0.773656,0.012051,-0.01334,0.006236
1428,-0.57612,0.263216,0.773799,0.0114989999999999,-0.011095,0.009008
1429,-0.575909,0.263162,0.7739729999999999,0.011731,-0.010705,0.007475
1430,-0.575734,0.2630889999999999,0.7741279999999999,0.011831,-0.0096709999999999,0.008175
1431,-0.5756,0.263049,0.774241,0.010491,-0.010562,0.009176
1432,-0.5755100000000001,0.262981,0.774332,0.010614,-0.009883,0.008444
1433,-0.575438,0.262947,0.774397,0.012831,-0.009361,0.007494
1434,-0.575364,0.262908,0.774465,0.014085,-0.010878,0.00822
1435,-0.5752649999999999,0.262839,0.774562,0.014001,-0.010428,0.007695
1436,-0.575136,0.262792,0.774674,0.0106819999999999,-0.011937,0.006606
1437,-0.575008,0.26274,0.774787,0.012325,-0.009429,0.007882
1438,-0.5749029999999999,0.262687,0.774883,0.010907,-0.011848,0.007863
1439,-0.5748260000000001,0.262638,0.774957,0.012234,-0.011677,0.006049
1440,-0.574724,0.2625889999999999,0.775049,0.010317,-0.011994,0.0062619999999999
1441,-0.5746020000000001,0.262506,0.775167,0.01253,-0.010477,0.0067079999999999
1442,-0.574399,0.262432,0.775343,0.013074,-0.008251,0.008409
1443,-0.57422,0.262354,0.775502,0.010408,-0.009241,0.007381
1444,-0.574146,0.262263,0.775586,0.011112,-0.006618,0.008395
1445,-0.574106,0.262234,0.775626,0.011072,-0.0065879999999999,0.008355
1446,-0.574099,0.262187,0.775647,0.011751,-0.010264,0.009295
1447,-0.574071,0.2621159999999999,0.775692,0.012334,-0.010194,0.00594
1448,-0.574058,0.262038,0.775727,0.012825,-0.010939,0.008849
1449,-0.574029,0.261956,0.775777,0.013055,-0.0120629999999999,0.009059
1450,-0.574009,0.261872,0.7758189999999999,0.010319,-0.010727,0.008787
1451,-0.5740310000000001,0.261835,0.7758149999999999,0.009899,-0.008372,0.007678
1452,-0.574071,0.261806,0.775795,0.011159,-0.01115,0.006553
1453,-0.574076,0.261747,0.775812,0.012278,-0.010679,0.0065819999999999
1454,-0.5740270000000001,0.261689,0.775868,0.0138919999999999,-0.007615,0.002742
1455,-0.5738949999999999,0.261637,0.775982,0.01495,-0.008707,0.000888
1456,-0.573595,0.261549,0.776233,0.015673,-0.014433,-0.000385
1457,-0.573079,0.261397,0.776667,0.0140419999999999,-0.016676,0.002813
1458,-0.572346,0.261235,0.777261,0.0129129999999999,-0.0165449999999999,0.006293
1459,-0.5716100000000001,0.261088,0.7778520000000001,0.008881,-0.0146889999999999,0.0162919999999999
1460,-0.57115,0.261004,0.7782180000000001,0.0070019999999999,-0.014728,0.017619
1461,-0.5711470000000001,0.261032,0.778211,0.006159,-0.01329,0.019915
1462,-0.571541,0.261129,0.777889,0.0095599999999999,-0.0059409999999999,0.015782
1463,-0.5721350000000001,0.261273,0.777404,0.011893,-0.001828,0.012497
1464,-0.572882,0.261401,0.7768109999999999,0.012503,0.001493,0.010161
1465,-0.57367,0.261497,0.776197,0.0133669999999999,0.003732,0.000521
1466,-0.574299,0.2615409999999999,0.775717,0.017002,0.001261,-0.006354
1467,-0.57457,0.261523,0.775522,0.015229,-0.001803,-0.00686
1468,-0.574458,0.261423,0.7756390000000001,0.016261,-0.008295,-0.002079
1469,-0.574044,0.261273,0.775995,0.0110099999999999,-0.013729,-0.001917
1470,-0.573419,0.261115,0.77651,0.008325,-0.024451,-0.001455
1471,-0.572611,0.2609619999999999,0.777158,0.003992,-0.031546,0.005633
1472,-0.571738,0.260829,0.777844,0.003974,-0.032817,0.007098
1473,-0.5708850000000001,0.260712,0.77851,0.001504,-0.034363,0.011376
1474,-0.57016,0.2606469999999999,0.7790630000000001,0.00467,-0.030224,0.01653
1475,-0.569706,0.2606989999999999,0.779378,0.008167,-0.023013,0.023188
1476,-0.5696220000000001,0.260839,0.779393,0.011989,-0.008901,0.02444
1477,-0.570068,0.261036,0.779,0.014511,0.001034,0.022132
1478,-0.570962,0.26129,0.7782600000000001,0.020089,0.0073409999999999,0.017837
1479,-0.572048,0.261535,0.7773800000000001,0.024594,0.0122069999999999,0.00979
1480,-0.57304,0.261693,0.776596,0.026455,0.01594,0.001159
1481,-0.573807,0.261729,0.776019,0.024491,0.018743,0.001676
1482,-0.574311,0.261686,0.77566,0.018662,0.0148639999999999,0.0015
1483,-0.5745239999999999,0.26156,0.775544,0.0155639999999999,0.004675,-0.001985
1484,-0.574601,0.2614579999999999,0.775522,0.011536,0.000108,-0.0004059999999999
1485,-0.574623,0.261358,0.77554,0.004524,-0.0117849999999999,0.000202
1486,-0.574597,0.261268,0.77559,0.000134,-0.025261,-0.0014199999999999
1487,-0.5744520000000001,0.261173,0.775729,-0.000789,-0.027592,-0.000384
1488,-0.574141,0.26103,0.776008,-0.000597,-0.033857,0.002328
1489,-0.573653,0.260846,0.7764300000000001,0.001937,-0.03639,0.004164
1490,-0.572979,0.260619,0.777004,0.002269,-0.036163,0.005131
1491,-0.57226,0.260374,0.777615,0.0057009999999999,-0.036299,0.005954
1492,-0.5715020000000001,0.260188,0.778235,0.009109,-0.0343269999999999,0.008279
1493,-0.5707260000000001,0.260089,0.778838,0.013749,-0.0249199999999999,0.011095
1494,-0.57012,0.260077,0.7792859999999999,0.012853,-0.010931,0.019908
1495,-0.5698979999999999,0.260203,0.779406,0.016187,-0.00027,0.0182319999999999
1496,-0.570113,0.260411,0.77918,0.021452,0.009731,0.018702
1497,-0.570562,0.260606,0.778786,0.023748,0.013854,0.0105659999999999
1498,-0.571063,0.260759,0.778367,0.027103,0.018675,0.0076739999999999
1499,-0.571399,0.26083,0.778097,0.027011,0.01546,0.005259
1500,-0.5715100000000001,0.26083,0.778016,0.023262,0.012744,0.0070799999999999
1501,-0.571517,0.260759,0.778035,0.015822,0.0066359999999999,0.005108
1502,-0.571534,0.260681,0.778048,0.009964,-0.001983,0.006818
1503,-0.571605,0.260648,0.7780060000000001,0.007228,-0.009961,0.001962
1504,-0.5716829999999999,0.260602,0.777964,0.003674,-0.01814,0.001532
1505,-0.571678,0.26053,0.77799,0.0031969999999999,-0.024858,0.002436
1506,-0.571517,0.260401,0.7781520000000001,0.002349,-0.028758,0.001679
1507,-0.571264,0.260263,0.778385,-0.000529,-0.032006,0.002514
1508,-0.570941,0.260156,0.7786569999999999,-0.0005769999999999,-0.031488,0.003036
1509,-0.570609,0.260088,0.7789229999999999,0.001517,-0.032626,0.00692
1510,-0.570279,0.2601449999999999,0.779145,0.006589,-0.023833,0.012558
1511,-0.570087,0.260273,0.779243,0.011539,-0.013294,0.016472
1512,-0.570167,0.260441,0.779127,0.015083,-0.0053289999999999,0.013155
1513,-0.570408,0.260629,0.778888,0.016453,0.001257,0.0111659999999999
1514,-0.5707300000000001,0.260806,0.778593,0.022085,0.006818,0.00963
1515,-0.571036,0.260972,0.778313,0.020972,0.011398,0.008171
1516,-0.571286,0.2610639999999999,0.778099,0.021084,0.008543,0.004753
1517,-0.571472,0.261123,0.777942,0.019593,0.0056619999999999,0.008573
1518,-0.571562,0.261191,0.777853,0.017622,0.0021149999999999,0.0057009999999999
1519,-0.571714,0.261297,0.777706,0.01576,-0.004918,0.005558
1520,-0.5719420000000001,0.261426,0.777496,0.01231,-0.013043,0.0061649999999999
1521,-0.572196,0.26155,0.777267,0.009192,-0.019561,0.002442
1522,-0.572388,0.261657,0.777089,0.006226,-0.023879,0.002254
1523,-0.572487,0.261731,0.776991,0.003136,-0.02641,0.004213
1524,-0.572476,0.261791,0.776979,2.7e-05,-0.026958,0.010679
1525,-0.572455,0.261833,0.77698,0.003882,-0.0242229999999999,0.007337
1526,-0.572523,0.2619,0.776907,0.0060869999999999,-0.0193,0.008676
1527,-0.572691,0.26198,0.7767569999999999,0.008543,-0.013216,0.009071
1528,-0.5729350000000001,0.262069,0.776547,0.01309,-0.007903,0.007526
1529,-0.57321,0.262178,0.776306,0.015258,-0.002,0.006744
1530,-0.573492,0.262282,0.7760630000000001,0.015661,-0.000136,0.007628
1531,-0.573752,0.262399,0.775832,0.015982,0.005378,0.007005
1532,-0.573958,0.262529,0.7756350000000001,0.0169969999999999,0.003493,0.005813
1533,-0.5740850000000001,0.262642,0.7755029999999999,0.017689,0.001167,0.0067989999999999
1534,-0.574148,0.262736,0.7754260000000001,0.015279,-0.005442,0.0052899999999999
1535,-0.574236,0.262814,0.775334,0.015368,-0.00552,0.005382
1536,-0.5743119999999999,0.262892,0.775251,0.011172,-0.011229,0.00461
1537,-0.574393,0.262953,0.775172,0.007483,-0.018416,0.007024
1538,-0.5745279999999999,0.262981,0.775062,0.007481,-0.018444,0.006768
1539,-0.5746479999999999,0.2630159999999999,0.774961,0.007037,-0.019425,0.005588
1540,-0.57477,0.263021,0.7748689999999999,0.0088209999999999,-0.017263,0.00835
1541,-0.5749340000000001,0.263038,0.774741,0.007994,-0.016594,0.006631
1542,-0.575148,0.263054,0.7745770000000001,0.0101459999999999,-0.01516,0.00652
1543,-0.575346,0.2630889999999999,0.774418,0.01193,-0.012249,0.006526
1544,-0.5755,0.26315,0.7742829999999999,0.012573,-0.012128,0.007638
1545,-0.575653,0.263213,0.774148,0.0145259999999999,-0.001952,0.0047979999999999
1546,-0.575918,0.263308,0.7739189999999999,0.012579,-0.003237,0.0072549999999999
1547,-0.576179,0.263433,0.773682,0.012733,-0.00292,0.007767
1548,-0.576376,0.26355,0.7734949999999999,0.014334,-0.006806,0.005832
1549,-0.576538,0.263623,0.77335,0.012604,-0.0096099999999999,0.007351
1550,-0.5766720000000001,0.263675,0.7732319999999999,0.012738,-0.011523,0.0080629999999999
1551,-0.576784,0.263698,0.773141,0.010424,-0.011455,0.006415
1552,-0.576883,0.2637,0.7730670000000001,0.010874,-0.011686,0.006306
1553,-0.576965,0.263693,0.773008,0.008758,-0.0123959999999999,0.008364
1554,-0.5770350000000001,0.263684,0.7729590000000001,0.00921,-0.011472,0.007528
1555,-0.577166,0.263694,0.772858,0.0118129999999999,-0.011573,0.007324
1556,-0.577272,0.263728,0.772767,0.010134,-0.011409,0.007415
1557,-0.577347,0.263779,0.772695,0.010666,-0.010315,0.005595
1558,-0.577469,0.26381,0.772593,0.010956,-0.008485,0.009344
1559,-0.577569,0.263829,0.772511,0.012246,-0.007726,0.005626
1560,-0.577639,0.263878,0.772442,0.010974,-0.008537,0.004672
1561,-0.577663,0.263902,0.772417,0.01202,-0.009599,0.006254
1562,-0.577601,0.263885,0.772469,0.012126,-0.010193,0.006691
1563,-0.577461,0.263838,0.77259,0.011009,-0.008543,0.00689
1564,-0.577303,0.263786,0.772726,0.00934,-0.009331,0.007868
1565,-0.5772109999999999,0.263721,0.772817,0.0102099999999999,-0.008975,0.009212
1566,-0.577184,0.263678,0.7728510000000001,0.011144,-0.007422,0.006263
1567,-0.577205,0.263656,0.7728430000000001,0.013225,-0.009537,0.005981
1568,-0.577264,0.26364,0.772805,0.013772,-0.010879,0.008735
1569,-0.577272,0.263615,0.772807,0.012026,-0.0114489999999999,0.006155
1570,-0.577279,0.2635949999999999,0.772809,0.010675,-0.01065,0.005985
1571,-0.577235,0.263551,0.772857,0.011744,-0.00908,0.006989
1572,-0.5771430000000001,0.263502,0.772942,0.012934,-0.010023,0.005104
1573,-0.5769449999999999,0.263418,0.7731180000000001,0.015147,-0.011114,0.001144
1574,-0.576581,0.26328,0.773436,0.0142189999999999,-0.0118909999999999,0.001695
1575,-0.576028,0.263107,0.773907,0.011621,-0.018829,0.0079069999999999
1576,-0.5753689999999999,0.26297,0.7744439999999999,0.010656,-0.013931,0.015305
1577,-0.5747899999999999,0.262889,0.7749010000000001,0.0070409999999999,-0.0080209999999999,0.014787
1578,-0.5746220000000001,0.262861,0.775036,0.007361,-0.005582,0.015919
1579,-0.57482,0.262918,0.7748689999999999,0.010337,-0.00596,0.010394
1580,-0.5752390000000001,0.2629849999999999,0.774536,0.016325,-0.0046229999999999,0.003846
1581,-0.575677,0.263011,0.7742020000000001,0.015938,-0.002238,0.00476
1582,-0.575886,0.262948,0.7740670000000001,0.016178,-0.003717,0.0024059999999999
1583,-0.575882,0.262835,0.774108,0.013488,-0.004733,0.002457
1584,-0.5756939999999999,0.26269,0.774297,0.011058,-0.008555,0.002162
1585,-0.5753729999999999,0.262554,0.774582,0.010172,-0.010768,0.002044
1586,-0.5749569999999999,0.262418,0.774937,0.0091,-0.013319,0.000103
1587,-0.574499,0.262305,0.775316,0.005407,-0.016089,0.007918
1588,-0.574087,0.262218,0.77565,0.004659,-0.019313,0.011917
1589,-0.5738310000000001,0.262198,0.775846,0.007623,-0.018683,0.012103
1590,-0.57375,0.262181,0.775911,0.007222,-0.015203,0.012236
1591,-0.573821,0.262154,0.7758689999999999,0.011733,-0.012749,0.012431
1592,-0.573941,0.262151,0.775781,0.012402,-0.009725,0.011817
1593,-0.574044,0.262134,0.7757109999999999,0.0164729999999999,-0.005878,0.004273
1594,-0.574068,0.2620909999999999,0.775708,0.014391,-0.003912,0.0024289999999999
1595,-0.573955,0.262032,0.77581,0.01498,-0.0019149999999999,0.003594
1596,-0.573773,0.261967,0.775967,0.015667,-0.00063,0.003238
1597,-0.573605,0.261916,0.776109,0.012691,-0.004378,0.003005
1598,-0.573427,0.261873,0.776254,0.010652,-0.0093099999999999,0.003958
1599,-0.573203,0.261831,0.776435,0.008811,-0.0118,0.005487
1600,-0.572925,0.261775,0.776659,0.010989,-0.015788,0.0070319999999999
1601,-0.5726220000000001,0.261714,0.776903,0.010198,-0.01765,0.010801
1602,-0.572351,0.261633,0.77713,0.007348,-0.017675,0.009583
1603,-0.572142,0.2615449999999999,0.777313,0.01042,-0.013193,0.011581
1604,-0.57203,0.261472,0.77742,0.008279,-0.012067,0.010574
1605,-0.572056,0.261424,0.777418,0.011219,-0.011058,0.009401
1606,-0.572176,0.261349,0.777355,0.012392,-0.004376,0.005528
1607,-0.572289,0.26131,0.7772859999999999,0.014473,-0.005878,0.00372
1608,-0.57233,0.261291,0.777262,0.0145449999999999,-0.001983,0.001531
1609,-0.572248,0.261284,0.777324,0.013075,0.0007099999999999,0.003803
1610,-0.57217,0.261247,0.7773939999999999,0.0111659999999999,-0.000993,0.003276
1611,-0.572088,0.261207,0.777468,0.011053,-0.0088569999999999,0.006437
1612,-0.571968,0.261182,0.777566,0.010353,-0.010296,0.0065069999999999
1613,-0.5718260000000001,0.261131,0.777687,0.0104549999999999,-0.012001,0.005928
1614,-0.5716600000000001,0.261029,0.7778430000000001,0.007802,-0.014997,0.009023
1615,-0.571512,0.26091,0.777992,0.007364,-0.014679,0.008156
1616,-0.571366,0.260788,0.7781399999999999,0.009064,-0.012772,0.009061
1617,-0.57125,0.260666,0.778266,0.010734,-0.011093,0.008828
1618,-0.571196,0.2605659999999999,0.778339,0.009734,-0.010643,0.006603
1619,-0.571145,0.260504,0.778399,0.010216,-0.006567,0.006178
1620,-0.571112,0.260443,0.778443,0.011649,-0.0062159999999999,0.004501
1621,-0.571102,0.260393,0.778467,0.010997,-0.008699,0.008185
1622,-0.571071,0.260369,0.7784979999999999,0.012019,-0.005227,0.004613
1623,-0.571042,0.260368,0.778521,0.011746,-0.005882,0.004789
1624,-0.5709930000000001,0.260361,0.778558,0.0136199999999999,-0.007294,0.005698
1625,-0.570916,0.260347,0.77862,0.010979,-0.009431,0.007818
1626,-0.570796,0.260307,0.778721,0.011866,-0.012291,0.00735
1627,-0.570649,0.260263,0.7788430000000001,0.010118,-0.010903,0.005672
1628,-0.570484,0.260194,0.778987,0.0094489999999999,-0.010454,0.009099
1629,-0.570332,0.260128,0.77912,0.009511,-0.010937,0.007058
1630,-0.570229,0.260052,0.779222,0.00959,-0.010922,0.007384
1631,-0.570168,0.259988,0.779288,0.010445,-0.010294,0.007059
1632,-0.570138,0.259941,0.779325,0.011636,-0.0081409999999999,0.006106
1633,-0.570099,0.259893,0.77937,0.011322,-0.0075739999999999,0.006031
1634,-0.5700569999999999,0.259855,0.779414,0.012546,-0.00636,0.006215
1635,-0.570009,0.259819,0.77946,0.010713,-0.007133,0.006108
1636,-0.569975,0.25979,0.7794949999999999,0.012678,-0.0086,0.00644
1637,-0.569922,0.259767,0.779541,0.011145,-0.007326,0.006302
1638,-0.569902,0.259728,0.779569,0.011186,-0.009331,0.007922
1639,-0.569851,0.259678,0.779623,0.010845,-0.010411,0.0046939999999999
1640,-0.569792,0.259646,0.7796770000000001,0.009261,-0.01166,0.005678
1641,-0.56968,0.2596159999999999,0.779768,0.011132,-0.0098599999999999,0.006792
1642,-0.569551,0.259563,0.77988,0.008577,-0.006328,0.006772
1643,-0.56953,0.259515,0.779911,0.012493,-0.0070269999999999,0.009502
1644,-0.569559,0.259497,0.779896,0.009226,-0.008017,0.008602
1645,-0.569635,0.259488,0.779842,0.011225,-0.0096099999999999,0.006382
1646,-0.569751,0.259479,0.7797609999999999,0.01134,-0.009602,0.006464
1647,-0.569832,0.25945,0.779712,0.011848,-0.009694,0.0045899999999999
1648,-0.569866,0.259391,0.7797069999999999,0.013958,-0.009391,0.005068
1649,-0.5698880000000001,0.259316,0.779716,0.011508,-0.006951,0.004082
1650,-0.5697939999999999,0.25924,0.779809,0.011002,-0.007104,0.005438
1651,-0.569667,0.259166,0.779927,0.012416,-0.007487,0.006236
1652,-0.569515,0.259078,0.780067,0.011364,-0.007369,0.006111
1653,-0.569317,0.259032,0.7802279999999999,0.011043,-0.009627,0.0075069999999999
1654,-0.5690930000000001,0.259004,0.7804,0.012192,-0.01024,0.006847
1655,-0.56891,0.258979,0.780541,0.011965,-0.009558,0.005027
1656,-0.568814,0.258981,0.78061,0.011746,-0.011529,0.008452
1657,-0.568756,0.25902,0.78064,0.0098409999999999,-0.0095079999999999,0.009201
1658,-0.5687800000000001,0.2590719999999999,0.780605,0.011498,-0.007318,0.006093
1659,-0.568866,0.259111,0.780529,0.013751,-0.008532,0.006046
1660,-0.568886,0.259164,0.780497,0.011009,-0.011072,0.001928
1661,-0.568828,0.25923,0.780518,0.00732,-0.013304,0.00296
1662,-0.568886,0.259339,0.780439,0.0136949999999999,-0.011292,0.009096
1663,-0.569051,0.259387,0.780303,0.013021,-0.0088989999999999,0.005555
1664,-0.569125,0.2595139999999999,0.780207,0.0122709999999999,-0.010292,0.004202
1665,-0.569187,0.259671,0.780109,0.008167,-0.010464,0.006924
1666,-0.569341,0.259823,0.7799470000000001,0.008352,-0.011227,0.010489
1667,-0.56963,0.26,0.7796770000000001,0.010579,-0.012976,0.008791
1668,-0.569913,0.260075,0.7794449999999999,0.015775,-0.012791,0.001927
1669,-0.570048,0.260076,0.779346,0.0138039999999999,-0.00913,-0.001041
1670,-0.5698949999999999,0.260131,0.779439,0.012019,-0.003372,0.0042369999999999
1671,-0.569584,0.260217,0.779638,0.008564,-0.006906,0.003336
1672,-0.5692159999999999,0.260239,0.779899,0.009097,-0.006684,0.0064319999999999
1673,-0.568897,0.260179,0.780151,0.010059,-0.008226,0.008209
1674,-0.568492,0.260005,0.780505,0.009731,-0.009257,0.006055
1675,-0.568195,0.259835,0.780778,0.007587,-0.0067069999999999,0.006972
1676,-0.568029,0.259679,0.78095,0.0075439999999999,-0.00469,0.009577
1677,-0.5681689999999999,0.259529,0.780899,0.008095,-0.003471,0.006943
1678,-0.568404,0.259413,0.780766,0.008605,-0.005629,0.003688
1679,-0.568567,0.259395,0.780654,0.008386,-0.0044659999999999,0.006608
1680,-0.568666,0.259368,0.78059,0.009752,-0.008163,0.0094489999999999
1681,-0.5688479999999999,0.259327,0.780472,0.01152,-0.009358,0.013184
1682,-0.568986,0.259347,0.7803640000000001,0.01909,-0.009195,0.003297
1683,-0.568804,0.259369,0.78049,0.020663,-0.010407,0.002774
1684,-0.5684319999999999,0.259415,0.780746,0.015652,-0.005814,0.015305
1685,-0.5682729999999999,0.259552,0.780816,0.013677,-0.0071099999999999,0.015174
1686,-0.5682520000000001,0.25975,0.780766,0.022033,-0.0035549999999999,0.006847
1687,-0.568141,0.259972,0.780772,0.0217389999999999,-0.007729,0.00591
1688,-0.567896,0.260304,0.78084,0.013621,-0.011524,0.0137
1689,-0.5677949999999999,0.260786,0.7807529999999999,-0.001465,-0.0140819999999999,0.0212949999999999
1690,-0.5683560000000001,0.261327,0.7801640000000001,0.004452,-0.016682,-0.0030489999999999
1691,-0.569038,0.261792,0.779511,0.011115,-0.0179259999999999,-0.01268
1692,-0.569168,0.2620369999999999,0.7793329999999999,0.013611,-0.026075,0.000117
1693,-0.569693,0.26248,0.7788,0.008398,-0.000685,0.003076
1694,-0.570412,0.263048,0.7780819999999999,0.011925,0.002134,-0.0033469999999999
1695,-0.570956,0.263438,0.777551,0.012057,0.004506,-0.005121
1696,-0.571128,0.2636469999999999,0.777353,0.002784,-0.004675,0.0003259999999999
1697,-0.5710609999999999,0.263926,0.777308,-0.000762,-0.004679,0.001577
1698,-0.5710890000000001,0.264254,0.777176,-0.004625,-0.002597,0.0037229999999999
1699,-0.571321,0.264551,0.7769050000000001,-0.005141,-0.005274,0.006451
1700,-0.571916,0.264803,0.7763800000000001,0.000124,-0.0069599999999999,0.0117819999999999
1701,-0.573025,0.264971,0.775506,0.012798,-0.014375,0.016165
1702,-0.574056,0.265192,0.774668,0.031667,-0.0234319999999999,0.00202
1703,-0.5746399999999999,0.26574,0.774047,0.022287,-0.016396,0.003922
1704,-0.575122,0.266557,0.773408,0.0149259999999999,-0.008714,0.0074909999999999
1705,-0.5758300000000001,0.267417,0.772583,0.013314,-0.0065069999999999,0.0057979999999999
1706,-0.57638,0.268281,0.7718729999999999,0.012385,-0.008698,0.007958
1707,-0.576695,0.268897,0.771424,0.015293,-0.02053,0.007613
1708,-0.5768979999999999,0.269296,0.771133,0.0155729999999999,-0.015314,0.025544
1709,-0.577196,0.2696739999999999,0.770778,0.012713,-0.012655,0.0316209999999999
1710,-0.5779810000000001,0.270162,0.770019,0.004494,-0.005209,0.019731
1711,-0.5793659999999999,0.270941,0.768703,-0.004985,-0.005026,0.006749
1712,-0.58116,0.271899,0.767008,-0.00255,-0.003695,0.006567
1713,-0.583282,0.272863,0.7650520000000001,0.0031579999999999,0.001063,0.0073939999999999
1714,-0.5855640000000001,0.2737239999999999,0.762999,0.012505,-0.0009429999999999,-0.000975
1715,-0.587938,0.274417,0.760921,0.018663,-0.000797,-0.005306
1716,-0.590018,0.274971,0.759109,0.017631,-0.002723,-0.016602
1717,-0.591374,0.275502,0.757861,0.007497,0.001384,-0.017428
1718,-0.591958,0.275977,0.757233,0.004281,0.006204,-0.011887
1719,-0.5919770000000001,0.2762409999999999,0.757121,0.010342,0.005421,-0.002178
1720,-0.591724,0.2762409999999999,0.757319,0.01369,-0.010372,-0.000758
1721,-0.5912310000000001,0.276051,0.757774,0.005034,-0.018559,-0.003502
1722,-0.5903,0.275728,0.758617,-0.004702,-0.0219439999999999,-0.005077
1723,-0.588808,0.2753219999999999,0.7599229999999999,-0.009017,-0.016457,-0.000645
1724,-0.587055,0.274781,0.761473,-0.008373,-0.008713,0.002565
1725,-0.585334,0.274177,0.763013,3.8e-05,-0.012778,0.00513
1726,-0.583759,0.273542,0.7644449999999999,0.00307,-0.016172,0.010426
1727,-0.582444,0.273008,0.7656390000000001,0.008759,-0.013471,0.012498
