,gravity.x,gravity.y,gravity.z,userAcceleration.x,userAcceleration.y,userAcceleration.z
0,0.07982,0.6213390000000001,-0.779465,0.017913,-0.0283509999999999,0.0140539999999999
1,0.080625,0.622209,-0.778687,0.0183289999999999,-0.011354,-0.001693
2,0.082143,0.623791,-0.777262,0.015116,0.001865,-0.01383
3,0.083256,0.6259859999999999,-0.7753760000000001,-0.00591,0.004247,-0.01004
4,0.08235,0.629363,-0.7727350000000001,-0.02516,0.016527,-0.012619
5,0.081013,0.633495,-0.769493,-0.000309,0.0062299999999999,0.00193
6,0.0803059999999999,0.638396,-0.7655069999999999,-0.012145,-0.024184,-0.0098079999999999
7,0.078384,0.644482,-0.76059,0.017747,-0.012952,-0.025085
8,0.0750639999999999,0.651555,-0.7548779999999999,-0.0218259999999999,0.018749,-0.02831
9,0.0698049999999999,0.659514,-0.7484430000000001,0.00745,0.032045,-0.064194
10,0.0651,0.666324,-0.7428140000000001,-0.001593,-0.011188,-0.013061
11,0.0612669999999999,0.6723210000000001,-0.737718,-0.01279,-0.019154,0.0024739999999999
12,0.0569169999999999,0.6786939999999999,-0.732211,-0.062883,0.003771,0.05173
13,0.05294,0.685925,-0.725742,-0.04412,-0.047193,0.021808
14,0.050091,0.693991,-0.718237,0.012317,-0.049185,-0.079706
15,0.050329,0.701675,-0.710716,0.035074,-0.004226,-0.087822
16,0.051289,0.7069310000000001,-0.7054189999999999,-0.06751,0.117593,0.064138
17,0.051261,0.712252,-0.700048,-0.016272,0.085996,0.013662
18,0.0514059999999999,0.718376,-0.693751,-0.032042,0.058494,-0.025716
19,0.0518429999999999,0.723178,-0.688712,0.0521149999999999,0.03233,0.003806
20,0.051085,0.72831,-0.68334,0.049882,0.012031,0.009603
21,0.048853,0.733545,-0.6778810000000001,0.039495,0.019278,0.011148
22,0.0471,0.7384109999999999,-0.6727029999999999,0.0842779999999999,-0.022209,-0.1053119999999999
23,0.0464399999999999,0.7439640000000001,-0.666603,0.103523,0.0480439999999999,-0.0756299999999999
24,0.045587,0.7476229999999999,-0.662556,0.024252,0.032498,-0.148052
25,0.042636,0.750419,-0.6595850000000001,-0.023166,-0.037467,-0.072349
26,0.040624,0.754576,-0.654953,-0.030324,-0.049529,-0.1037599999999999
27,0.040792,0.760592,-0.647946,-0.019613,-0.063342,-0.116031
28,0.0420829999999999,0.767706,-0.639418,0.013963,-0.02886,0.038481
29,0.042366,0.775343,-0.630117,-0.0202259999999999,-0.032118,0.075215
30,0.042918,0.782767,-0.6208319999999999,-0.052836,-0.018851,0.044935
31,0.043843,0.789874,-0.611699,-0.1059,0.010023,0.023839
32,0.045161,0.79911,-0.599485,-0.083857,-0.071449,0.152403
33,0.048094,0.812666,-0.580739,-0.104505,-0.082732,0.104818
34,0.049586,0.8272209999999999,-0.559683,-0.21226,0.106923,0.026251
35,0.049671,0.8403129999999999,-0.5398189999999999,-0.106983,0.091908,-0.082602
36,0.0517139999999999,0.8493700000000001,-0.525255,-0.058092,0.070582,0.014223
37,0.0560549999999999,0.855899,-0.5140939999999999,-0.021632,0.047559,0.029398
38,0.059858,0.8614430000000001,-0.504311,0.032808,0.060508,0.054207
39,0.063218,0.8643350000000001,-0.498925,0.076919,0.03926,0.067864
40,0.066599,0.8654360000000001,-0.496571,0.064367,0.006009,0.090474
41,0.070364,0.8662850000000001,-0.494567,0.0497839999999999,-0.070096,0.1141349999999999
42,0.072926,0.8672709999999999,-0.492462,-0.005696,-0.021263,0.072251
43,0.0755769999999999,0.8675370000000001,-0.491594,-0.034866,0.074587,0.061922
44,0.079139,0.867218,-0.491597,0.017129,0.019318,0.058171
45,0.083337,0.8666219999999999,-0.491953,0.002188,-0.014785,0.028742
46,0.0867,0.865499,-0.493347,0.042237,0.022593,0.016022
47,0.089597,0.8646780000000001,-0.4942689999999999,0.0939509999999999,0.0491399999999999,-0.016916
48,0.092336,0.8643120000000001,-0.494405,0.087016,0.0700139999999999,0.016393
49,0.0948669999999999,0.8638950000000001,-0.4946529999999999,0.05972,0.09837,0.100122
50,0.097358,0.8632620000000001,-0.495275,0.023629,0.101719,0.07044
51,0.10012,0.8613870000000001,-0.497981,-0.005043,0.13663,0.09254
52,0.103066,0.8599680000000001,-0.499829,0.029304,0.045596,0.095242
53,0.105888,0.858884,-0.501102,0.08947,0.142429,0.069125
54,0.108223,0.856791,-0.5041760000000001,0.062965,0.185369,0.097545
55,0.109772,0.8539690000000001,-0.508609,-0.002061,0.138935,0.122607
56,0.109996,0.8511770000000001,-0.513221,-0.0190849999999999,0.09026,0.044593
57,0.110303,0.847693,-0.51889,-0.0310949999999999,0.093439,0.07106
58,0.110848,0.8436549999999999,-0.5253140000000001,-0.088784,0.026187,0.077621
59,0.109983,0.840327,-0.530802,-0.074003,-0.011515,0.065165
60,0.10795,0.837009,-0.536431,-0.059884,-0.031086,0.070123
61,0.104565,0.8346469999999999,-0.5407649999999999,-0.0262269999999999,-0.009207,-0.040687
62,0.101036,0.831392,-0.54642,0.005043,-0.0304279999999999,-0.051389
63,0.097966,0.827742,-0.552487,0.018062,-0.036162,-0.0723
64,0.095125,0.823248,-0.559652,0.064299,-0.0765899999999999,-0.10026
65,0.093838,0.82015,-0.564398,0.045033,-0.094198,-0.066919
66,0.091987,0.819628,-0.5654600000000001,0.047036,-0.024981,-0.011566
67,0.0895929999999999,0.819212,-0.566445,-0.035866,0.0543679999999999,-0.035865
68,0.087422,0.818362,-0.568012,-0.078358,0.014188,-0.007427
69,0.085632,0.817692,-0.5692470000000001,-0.059432,0.003978,-0.0102659999999999
70,0.08494,0.817083,-0.570226,0.007193,-0.0128379999999999,0.035985
71,0.0841809999999999,0.817218,-0.570144,0.004137,0.017331,0.022521
72,0.083243,0.8175979999999999,-0.5697369999999999,0.010018,0.061278,0.02779
73,0.082583,0.8173090000000001,-0.570248,-0.033037,0.070463,0.045071
74,0.082308,0.81601,-0.572144,-0.041841,0.062179,0.042969
75,0.082465,0.813987,-0.574996,-0.023826,0.0421529999999999,0.0518789999999999
76,0.082636,0.811667,-0.578242,-0.017603,0.04728,0.054255
77,0.082396,0.809283,-0.581608,-0.011076,0.0587289999999999,0.047902
78,0.082356,0.806649,-0.585262,-0.0100299999999999,0.043571,0.0182909999999999
79,0.082906,0.80438,-0.588298,5.6000000000000006e-05,0.046602,-0.0040939999999999
80,0.083687,0.802524,-0.5907180000000001,0.004631,0.020657,0.009038
81,0.08367,0.800632,-0.593283,-0.015265,0.033948,0.017828
82,0.082763,0.7980229999999999,-0.596913,-0.035735,0.055157,0.0304459999999999
83,0.081927,0.795018,-0.601024,-0.0292079999999999,0.037181,0.022746
84,0.081245,0.792176,-0.604857,-0.047081,0.010452,0.021727
85,0.08095,0.789449,-0.608452,-0.011553,0.04391,0.012138
86,0.081814,0.786794,-0.611765,0.040988,0.01005,0.035593
87,0.083284,0.784672,-0.614287,0.044584,0.000621,0.021025
88,0.0841,0.782551,-0.616877,0.018088,0.012768,0.037958
89,0.084374,0.779388,-0.620831,-0.037041,0.032472,-0.018192
90,0.084767,0.7751100000000001,-0.626111,-0.038655,0.035651,-0.035358
91,0.08623,0.7702319999999999,-0.631904,-0.004565,-0.000807,-0.012872
92,0.087747,0.7653449999999999,-0.6376069999999999,-0.003427,-0.003809,0.023823
93,0.087838,0.759772,-0.6442260000000001,-0.027017,0.043924,0.011474
94,0.087396,0.753158,-0.6520050000000001,-0.009469,0.069382,-0.023761
95,0.087727,0.7449359999999999,-0.661339,0.007915,0.047163,-0.016914
96,0.087745,0.73547,-0.671849,0.017983,0.0359079999999999,0.005528
97,0.0872179999999999,0.726506,-0.6816,0.023683,0.00587,-0.013102
98,0.0865,0.7175239999999999,-0.6911390000000001,0.022372,-0.010584,-0.027779
99,0.0857639999999999,0.7089409999999999,-0.7000310000000001,-0.02537,0.000593,0.027317
100,0.086066,0.70148,-0.7074699999999999,-0.0534269999999999,-0.002536,0.103268
101,0.086651,0.697062,-0.711754,-0.023083,-0.045908,0.0736309999999999
102,0.086696,0.695347,-0.7134229999999999,0.039693,-0.0583539999999999,0.016478
103,0.087655,0.69565,-0.713011,0.115241,-0.0925309999999999,0.0132419999999999
104,0.09032,0.698767,-0.709622,0.174023,-0.081885,-0.095172
105,0.093002,0.70208,-0.705997,0.161591,-0.035057,-0.111996
106,0.094544,0.704625,-0.7032510000000001,0.0111989999999999,0.001582,-0.0451779999999999
107,0.094928,0.708149,-0.69965,-0.037143,-0.0048259999999999,-0.042232
108,0.0949309999999999,0.71137,-0.696375,-0.114813,0.0124459999999999,0.021372
109,0.093711,0.715605,-0.692188,-0.1188119999999999,0.044786,0.046238
110,0.0918809999999999,0.720757,-0.6870689999999999,-0.091057,0.0394819999999999,0.029095
111,0.089649,0.726442,-0.681353,0.0190849999999999,-0.001955,0.003985
112,0.087971,0.732305,-0.675269,0.065731,0.008937,0.003409
113,0.08676,0.7373930000000001,-0.669867,0.055665,0.001682,0.019247
114,0.086124,0.741877,-0.66498,-0.0098459999999999,0.065023,0.036547
115,0.084655,0.746391,-0.660099,-0.057525,0.070259,0.021412
116,0.083067,0.751384,-0.654613,-0.079771,0.004841,0.026561
117,0.082195,0.757061,-0.648151,-0.082623,0.002827,0.02074
118,0.081394,0.763279,-0.6409189999999999,-0.061558,0.026073,0.003193
119,0.079903,0.769096,-0.634117,-0.05935,0.043923,-0.0288779999999999
120,0.0780059999999999,0.773275,-0.629252,-0.056812,0.023311,-0.015035
121,0.076371,0.777159,-0.624649,-0.0259709999999999,0.00908,-0.008606
122,0.075682,0.781034,-0.6198819999999999,-0.005171,-0.022459,0.016458
123,0.076054,0.785319,-0.614399,-0.004384,-0.056635,0.011845
124,0.076761,0.790617,-0.607477,0.002814,0.056719,-0.021765
125,0.077336,0.795612,-0.600847,0.017696,0.06915,-0.0294779999999999
126,0.0776299999999999,0.7990079999999999,-0.5962850000000001,0.035468,0.060474,-0.01576
127,0.077722,0.8012060000000001,-0.5933149999999999,0.014319,0.062899,0.023171
128,0.077815,0.802618,-0.591392,0.003545,0.0851529999999999,0.063667
129,0.078536,0.8032060000000001,-0.590499,0.013093,0.073946,0.070494
130,0.079979,0.803341,-0.590121,0.027199,0.052952,0.086489
131,0.081632,0.80291,-0.590481,0.02286,0.053459,0.088909
132,0.083303,0.801891,-0.591631,0.018992,0.0413399999999999,0.0893419999999999
133,0.085433,0.801056,-0.592458,0.016205,0.031479,0.062901
134,0.088137,0.800604,-0.592673,-0.005984,0.049738,0.058463
135,0.090826,0.8000470000000001,-0.593019,-0.039755,0.045992,0.033906
136,0.093101,0.7989649999999999,-0.594124,-0.047813,0.0298009999999999,0.002342
137,0.094872,0.797441,-0.595889,-0.022195,0.021514,-0.025434
138,0.096346,0.795629,-0.59807,-0.008806,0.023508,0.000154
139,0.097157,0.793745,-0.600438,-0.002919,0.009875,0.014653
140,0.097463,0.791797,-0.602955,0.0040079999999999,0.0075349999999999,0.012226
141,0.097983,0.790098,-0.6050949999999999,-0.001838,-0.00424,0.015007
142,0.098362,0.789026,-0.606432,0.007946,-0.008081,0.005098
143,0.098032,0.788392,-0.607309,0.056891,0.005828,-0.022818
144,0.097195,0.787535,-0.608554,0.060687,-0.003172,-0.019024
145,0.096193,0.786719,-0.6097670000000001,0.04582,-0.006171,-0.0179639999999999
146,0.095176,0.786212,-0.610581,0.013681,-0.003421,0.0007019999999999
147,0.094084,0.7863060000000001,-0.610629,-0.017683,0.013071,0.01755
148,0.092919,0.786913,-0.610025,-0.001489,0.028929,0.014886
149,0.091808,0.787644,-0.60925,-0.0073349999999999,0.018768,0.023556
150,0.090309,0.7891,-0.607586,-0.023979,-0.005546,0.027997
151,0.088479,0.791363,-0.604906,0.006736,0.024631,-0.0193
152,0.087402,0.793188,-0.602668,0.012421,0.038644,-0.022362
153,0.086841,0.794284,-0.601304,-0.027622,0.044919,-0.0072159999999999
154,0.085469,0.795096,-0.600427,-0.046224,0.033685,-0.00727
155,0.08353,0.795848,-0.599704,-0.037632,0.024877,0.013202
156,0.0820289999999999,0.7967569999999999,-0.5987020000000001,-0.034635,0.013469,0.017281
157,0.080746,0.797736,-0.5975729999999999,-0.002636,0.017542,0.012948
158,0.0800429999999999,0.7985140000000001,-0.5966279999999999,-0.002559,0.021448,0.029657
159,0.079513,0.79904,-0.5959939999999999,-0.014038,0.03258,0.0309149999999999
160,0.078873,0.7992560000000001,-0.595788,0.001434,0.042296,0.019906
161,0.0787409999999999,0.798891,-0.596296,0.006083,0.0312329999999999,0.024259
162,0.078934,0.7983359999999999,-0.597013,0.0057979999999999,0.021778,0.026182
163,0.07882,0.798061,-0.597396,0.012779,0.030949,0.020018
164,0.078515,0.797673,-0.597954,0.020194,0.028941,0.011543
165,0.078322,0.797078,-0.598773,0.019441,0.023861,0.0144979999999999
166,0.078141,0.7966310000000001,-0.599391,0.008621,0.013153,0.017649
167,0.077857,0.796225,-0.599966,-0.001335,0.011376,0.007254
168,0.077515,0.7958649999999999,-0.600488,-0.001511,0.010791,0.0021449999999999
169,0.0775039999999999,0.795659,-0.600763,-0.000813,0.0135909999999999,-0.006537
170,0.077624,0.795514,-0.600939,-0.005389,0.016559,-0.002943
171,0.0778809999999999,0.7954600000000001,-0.600978,-0.009247,0.010006,0.0019329999999999
172,0.078162,0.7955840000000001,-0.600777,-0.01757,0.018366,0.012581
173,0.078336,0.795728,-0.600563,-0.015241,0.02434,0.013222
174,0.078433,0.7958189999999999,-0.600431,-0.017733,0.02483,0.013883
175,0.078394,0.795875,-0.6003609999999999,-0.0158479999999999,0.023125,0.016849
176,0.078192,0.7959350000000001,-0.600308,-0.015127,0.01983,0.017361
177,0.07808,0.795901,-0.600368,-0.013932,0.0201389999999999,0.0146439999999999
178,0.077834,0.79592,-0.600375,-0.004759,0.02984,0.011797
179,0.0776,0.795826,-0.600529,0.0032259999999999,0.02264,0.012684
180,0.077472,0.795678,-0.600742,0.002591,0.018073,0.012485
181,0.07742,0.795589,-0.600866,0.007022,0.021733,0.011663
182,0.0774789999999999,0.7954829999999999,-0.600999,0.005331,0.025485,0.01117
183,0.077727,0.795387,-0.6010939999999999,0.008394,0.012841,0.0127
184,0.077986,0.795569,-0.60082,0.003557,0.017893,0.016225
185,0.078112,0.795848,-0.600433,0.006925,0.03603,0.009155
186,0.078298,0.795931,-0.600299,0.0076549999999999,0.025632,0.008777
187,0.078496,0.795895,-0.600321,0.0027719999999999,0.016773,0.009394
188,0.078608,0.79582,-0.600406,0.000906,0.017656,0.005862
189,0.078639,0.795751,-0.600493,-0.007473,0.011652,0.0061329999999999
190,0.078658,0.795748,-0.600494,-0.013106,0.017804,0.008957
191,0.078789,0.7958109999999999,-0.600394,-0.012612,0.022182,0.011237
192,0.07899,0.795823,-0.600353,-0.009212,0.025375,0.010051
193,0.079206,0.795772,-0.600391,-0.007856,0.025654,0.013705
194,0.079485,0.795787,-0.6003350000000001,-0.008074,0.030492,0.0134669999999999
195,0.07989,0.795692,-0.600407,-0.005152,0.0266959999999999,0.016895
196,0.080086,0.795658,-0.600426,0.000907,0.016506,0.016655
197,0.080204,0.795561,-0.600539,0.002971,0.01874,0.012297
198,0.08027,0.795446,-0.600681,-0.00448,0.018778,0.011372
199,0.080442,0.795272,-0.6008899999999999,0.00101,0.018907,0.009932
200,0.080711,0.795095,-0.601087,-0.0015789999999999,0.0161389999999999,0.008467
201,0.080913,0.794976,-0.601217,-0.0012619999999999,0.013175,0.008276
202,0.081021,0.794922,-0.601275,-0.001371,0.018097,0.007464
203,0.081135,0.794974,-0.60119,-0.000554,0.017282,0.005136
204,0.08126,0.79515,-0.600941,0.0065239999999999,0.013276,0.004703
205,0.081327,0.795454,-0.600529,0.000811,0.010576,0.007587
206,0.081274,0.795896,-0.59995,-0.003897,0.0085469999999999,0.006704
207,0.0811419999999999,0.796489,-0.59918,-0.0050609999999999,0.013478,0.000426
208,0.081069,0.7971550000000001,-0.598303,-0.006225,0.0114989999999999,0.00025
209,0.081083,0.797971,-0.597213,-0.005476,0.0146509999999999,0.000335
210,0.081186,0.7990229999999999,-0.595791,-0.004739,0.019397,0.001004
211,0.081443,0.800126,-0.594274,-0.003913,0.028243,0.019658
212,0.081799,0.801125,-0.5928770000000001,-0.009976,0.030418,0.020749
213,0.082105,0.801883,-0.5918100000000001,-0.009366,0.028943,0.022962
214,0.0822919999999999,0.802399,-0.591084,-0.004121,0.030563,0.025868
215,0.082498,0.802756,-0.590571,-0.001611,0.032434,0.0256899999999999
216,0.082585,0.8029270000000001,-0.590325,-0.001896,0.0323079999999999,0.026269
217,0.082579,0.8030010000000001,-0.590226,0.002626,0.030968,0.0244
218,0.082567,0.8028890000000001,-0.59038,0.000487,0.031218,0.022738
219,0.082582,0.802642,-0.5907140000000001,-0.0001699999999999,0.023363,0.018097
220,0.082691,0.8024020000000001,-0.591025,0.000545,0.019116,0.012473
221,0.082873,0.802192,-0.591283,0.002607,0.019905,0.009939
222,0.083169,0.8019689999999999,-0.591545,-0.002954,0.022326,0.010429
223,0.08358,0.801704,-0.591846,-0.004723,0.020104,0.0131259999999999
224,0.083987,0.801446,-0.592137,-0.003848,0.019797,0.011632
225,0.084275,0.801167,-0.592474,-0.003312,0.016597,0.013647
226,0.084298,0.800946,-0.59277,-0.005135,0.004352,0.007015
227,0.084085,0.800921,-0.5928329999999999,-0.001901,0.005994,-0.002092
228,0.08374,0.801036,-0.592727,0.000931,0.0137069999999999,-0.0061189999999999
229,0.083373,0.801179,-0.592586,-0.003539,0.018081,-0.007023
230,0.08308,0.8013060000000001,-0.5924550000000001,-0.007106,0.011988,0.0019399999999999
231,0.08282,0.801474,-0.5922649999999999,-0.007548,0.017603,0.013774
232,0.082599,0.80165,-0.5920569999999999,-0.009433,0.027986,0.016679
233,0.082544,0.8017569999999999,-0.591919,-0.004557,0.0302589999999999,0.025193
234,0.082622,0.8017310000000001,-0.5919439999999999,-0.00851,0.037685,0.032068
235,0.082562,0.801558,-0.592187,-0.003826,0.0308089999999999,0.030099
236,0.082485,0.8013,-0.592547,0.002873,0.031662,0.02611
237,0.082478,0.800876,-0.593121,0.00233,0.031385,0.0251729999999999
238,0.082525,0.800372,-0.5937939999999999,0.001383,0.027097,0.021406
239,0.082579,0.799821,-0.594528,0.001664,0.023863,0.012832
240,0.082759,0.799219,-0.595312,0.001119,0.020025,0.0077269999999999
241,0.083086,0.798618,-0.596072,-0.004534,0.018612,0.010166
242,0.083476,0.79791,-0.596966,-0.010371,0.018435,0.008114
243,0.083924,0.797247,-0.597788,-0.007829,0.015711,0.0064189999999999
244,0.0844029999999999,0.796741,-0.598395,-0.009879,0.012173,0.00643
245,0.084936,0.796317,-0.598885,-0.00939,0.015268,0.005547
246,0.08541,0.796088,-0.599122,-0.000327,0.01568,0.0012519999999999
247,0.085801,0.796036,-0.5991350000000001,-0.000474,0.009125,0.002104
248,0.086058,0.796214,-0.598862,0.002412,0.009237,0.0043939999999999
249,0.086153,0.796543,-0.59841,0.007673,0.010281,-0.004876
250,0.086046,0.797044,-0.597758,0.016508,0.013045,0.0016579999999999
251,0.08566,0.7976479999999999,-0.597008,0.014361,0.015249,0.002357
252,0.085145,0.7983060000000001,-0.596201,0.012634,0.01839,0.0034729999999999
253,0.084655,0.798901,-0.5954729999999999,0.005906,0.024464,0.013183
254,0.0842909999999999,0.799445,-0.5947939999999999,0.001936,0.0250169999999999,0.019812
255,0.084027,0.799948,-0.594155,0.000109,0.028681,0.024102
256,0.083877,0.800327,-0.593666,-0.013168,0.03587,0.035377
257,0.083776,0.8004600000000001,-0.5935010000000001,-0.021292,0.038713,0.032313
258,0.083761,0.8002859999999999,-0.593738,-0.019476,0.036979,0.033664
259,0.083782,0.799929,-0.594216,-0.020718,0.034727,0.0283889999999999
260,0.083848,0.7993819999999999,-0.5949409999999999,-0.019517,0.027308,0.019639
261,0.0840409999999999,0.7985680000000001,-0.596007,-0.0187939999999999,0.022721,0.021789
262,0.0842789999999999,0.797666,-0.59718,-0.015614,0.018283,0.01669
263,0.084452,0.796756,-0.5983689999999999,-0.011683,0.015271,0.009807
264,0.0845419999999999,0.795874,-0.59953,-0.003518,0.018732,0.004635
265,0.084468,0.795021,-0.600671,0.004582,0.015404,0.001122
266,0.084255,0.79422,-0.6017600000000001,0.0114939999999999,0.0073849999999999,-0.003297
267,0.083958,0.793602,-0.602616,0.010067,0.004204,-0.001418
268,0.083605,0.793324,-0.6030300000000001,0.015867,0.005809,-0.0048649999999999
269,0.083236,0.7932899999999999,-0.603126,0.019899,0.011519,-0.001351
270,0.082874,0.793397,-0.603036,0.013119,0.0139759999999999,0.006768
271,0.082584,0.793667,-0.60272,0.01112,0.017002,0.011594
272,0.082492,0.794037,-0.602245,0.00665,0.02182,0.012081
273,0.082546,0.794456,-0.601685,0.004628,0.0273209999999999,0.016342
274,0.0827789999999999,0.794892,-0.6010770000000001,-0.0019219999999999,0.033767,0.023318
275,0.0829299999999999,0.79514,-0.6007279999999999,-0.009169,0.03413,0.023107
276,0.08295,0.795227,-0.6006100000000001,-0.007526,0.029282,0.021753
277,0.082975,0.7952560000000001,-0.6005689999999999,-0.00543,0.022997,0.01869
278,0.083008,0.795218,-0.600614,-0.01204,0.027811,0.020597
279,0.083108,0.795081,-0.6007819999999999,-0.0122,0.0297029999999999,0.0148289999999999
280,0.08334,0.7948390000000001,-0.601069,-0.010525,0.024359,0.01594
281,0.0836,0.794564,-0.601396,-0.006558,0.022468,0.0152909999999999
282,0.083885,0.7942520000000001,-0.60177,-0.005943,0.024108,0.018563
283,0.0841919999999999,0.793983,-0.602082,-0.0023899999999999,0.020211,0.014542
284,0.084494,0.793759,-0.602334,-0.0028899999999999,0.018802,0.010675
285,0.084763,0.793643,-0.602449,0.0037229999999999,0.012326,0.005357
286,0.084997,0.793614,-0.602454,0.005762,0.012218,0.006019
287,0.08513,0.793696,-0.602328,0.0069409999999999,0.014349,0.002551
288,0.085163,0.793895,-0.60206,0.003963,0.016102,0.001673
289,0.085127,0.794181,-0.601689,0.002016,0.014749,0.007253
290,0.085046,0.7944979999999999,-0.601282,2.2e-05,0.015271,0.008005
291,0.084958,0.794891,-0.600775,-0.002865,0.023575,0.011648
292,0.084842,0.7952520000000001,-0.600313,-0.006259,0.026312,0.017442
293,0.084763,0.795553,-0.599925,-0.006089,0.027277,0.019541
294,0.084732,0.795763,-0.599651,-0.004776,0.0300579999999999,0.0256759999999999
295,0.084723,0.795838,-0.599553,-0.009787,0.0303029999999999,0.026432
296,0.084682,0.7958270000000001,-0.5995729999999999,-0.006679,0.033336,0.024271
297,0.084664,0.795638,-0.599826,-0.007317,0.031022,0.023059
298,0.0847,0.7953680000000001,-0.600179,-0.004652,0.028499,0.020314
299,0.084743,0.795037,-0.600612,-8.7e-05,0.023948,0.014369
300,0.084813,0.794655,-0.601107,-0.00031,0.0186689999999999,0.013415
301,0.0849299999999999,0.794319,-0.601534,7.7e-05,0.020561,0.009158
302,0.085073,0.7939350000000001,-0.602021,-6.6e-05,0.020945,0.009644
303,0.085191,0.793657,-0.602371,0.001403,0.018843,0.006439
304,0.0852919999999999,0.793481,-0.602588,0.001546,0.011984,0.0084099999999999
305,0.085283,0.793499,-0.6025659999999999,0.000258,0.016331,0.00639
306,0.085178,0.793619,-0.6024229999999999,-0.001255,0.015707,0.007986
307,0.084919,0.793795,-0.602228,0.000546,0.017012,0.004785
308,0.084597,0.7939970000000001,-0.602007,0.0017059999999999,0.024088,0.007997
309,0.084357,0.794239,-0.601721,-0.000357,0.018002,0.013815
310,0.084201,0.794552,-0.601329,-0.004016,0.02132,0.018321
311,0.08408,0.79487,-0.600925,-0.0067329999999999,0.02796,0.017841
312,0.084097,0.795126,-0.600584,-0.0026609999999999,0.030969,0.018843
313,0.084297,0.7952359999999999,-0.6004109999999999,-0.008232,0.034217,0.0250169999999999
314,0.084383,0.795193,-0.6004550000000001,-0.004778,0.027545,0.024085
315,0.084366,0.7950550000000001,-0.600641,-0.0012519999999999,0.025013,0.020914
316,0.08433,0.794801,-0.600982,-0.000605,0.027297,0.018218
317,0.08431,0.7944869999999999,-0.6014,-0.0015609999999999,0.025322,0.0151729999999999
318,0.084396,0.794126,-0.601865,-0.003005,0.024447,0.0173159999999999
319,0.084575,0.793786,-0.602287,0.001728,0.021338,0.013725
320,0.08478,0.7934260000000001,-0.602734,0.000791,0.021089,0.014629
321,0.084945,0.793072,-0.603176,-0.001205,0.021946,0.012279
322,0.085066,0.792747,-0.603585,-0.001387,0.019478,0.015161
323,0.0851789999999999,0.792465,-0.603939,0.0003,0.018646,0.014218
324,0.0851809999999999,0.792221,-0.604259,0.000742,0.017089,0.014278
325,0.085049,0.792087,-0.604454,0.002307,0.017682,0.0096519999999999
326,0.084928,0.791977,-0.604615,-2.8000000000000003e-05,0.017623,0.0067599999999999
327,0.084797,0.791917,-0.604712,-0.002476,0.017623,0.007712
328,0.084635,0.791927,-0.604721,3.6e-05,0.01749,0.0103
329,0.084491,0.791989,-0.6046600000000001,-0.002155,0.021472,0.0142669999999999
330,0.084412,0.792063,-0.604575,-0.004822,0.021322,0.013755
331,0.084379,0.792172,-0.604437,-0.000791,0.0250729999999999,0.015982
332,0.084345,0.792263,-0.604322,-0.001566,0.024037,0.020689
333,0.084297,0.79235,-0.604214,-0.002082,0.0257339999999999,0.01936
334,0.084237,0.792401,-0.6041569999999999,-0.001046,0.027652,0.0195009999999999
335,0.084158,0.792362,-0.604219,-0.001013,0.02435,0.018129
336,0.084094,0.792427,-0.604142,0.002515,0.021431,0.016449
337,0.084008,0.792488,-0.604074,0.002418,0.021629,0.011209
338,0.08386,0.7925840000000001,-0.603969,0.006609,0.020603,0.011363
339,0.083705,0.792696,-0.603843,0.00417,0.016935,0.0136789999999999
340,0.083487,0.792797,-0.6037399999999999,0.006174,0.015507,0.009502
341,0.083218,0.7929609999999999,-0.603562,0.004855,0.017082,0.007325
342,0.082975,0.793186,-0.6033,0.004519,0.018124,0.00987
343,0.082775,0.793482,-0.602938,-0.001018,0.021872,0.014254
344,0.082646,0.79378,-0.602563,-0.004155,0.026654,0.016381
345,0.082544,0.794009,-0.602276,-0.008294,0.029416,0.015835
346,0.082539,0.794153,-0.602086,-0.008839,0.0285089999999999,0.025044
347,0.082694,0.794309,-0.601859,-0.008612,0.025393,0.02175
348,0.082835,0.794456,-0.601646,-0.005839,0.022164,0.0226509999999999
349,0.082817,0.794551,-0.601522,-0.005943,0.0252419999999999,0.016836
350,0.082817,0.794559,-0.601513,-0.003379,0.0285769999999999,0.010708
351,0.083045,0.7944180000000001,-0.601667,-0.0068579999999999,0.03244,0.011182
352,0.083358,0.794125,-0.602011,-0.003875,0.024326,0.014883
353,0.083739,0.79384,-0.602333,0.003129,0.021315,0.018135
354,0.084174,0.793525,-0.602688,0.002786,0.0210349999999999,0.020107
355,0.084513,0.793183,-0.6030909999999999,0.001073,0.020874,0.018344
356,0.084814,0.792887,-0.603437,0.002527,0.018987,0.013212
357,0.085129,0.792567,-0.6038140000000001,0.004929,0.020666,0.0135729999999999
358,0.085328,0.792292,-0.604146,0.005889,0.014639,0.010824
359,0.085348,0.792061,-0.6044470000000001,0.004206,0.0181659999999999,0.006592
360,0.085308,0.791925,-0.60463,0.003071,0.021872,0.0066989999999999
361,0.085279,0.7918689999999999,-0.604707,0.001818,0.020814,0.0072489999999999
362,0.085207,0.791934,-0.604632,0.000304,0.015622,0.013277
363,0.084954,0.792254,-0.6042489999999999,-0.004036,0.021513,0.013993
364,0.084599,0.792603,-0.603841,-0.009617,0.033355,0.017399
365,0.084393,0.792732,-0.6037,-0.010892,0.033318,0.017
366,0.084252,0.792618,-0.60387,-0.007408,0.025315,0.018375
367,0.084096,0.792362,-0.6042270000000001,-0.004384,0.020276,0.018458
368,0.083908,0.792049,-0.6046630000000001,7.7e-05,0.014912,0.013248
369,0.083794,0.79178,-0.605032,0.003715,0.016951,0.009893
370,0.083852,0.791559,-0.605312,0.003032,0.024145,0.013607
371,0.08396,0.7913479999999999,-0.6055729999999999,0.005456,0.024936,0.018949
372,0.083936,0.7910659999999999,-0.605945,0.008486,0.026378,0.02135
373,0.08379,0.790728,-0.606406,0.009854,0.021955,0.015967
374,0.083544,0.790485,-0.606757,0.010877,0.016873,0.009161
375,0.0831529999999999,0.790397,-0.606925,0.005714,0.010674,0.00521
376,0.082874,0.7905220000000001,-0.606801,0.007793,0.019232,0.0092819999999999
377,0.082736,0.790609,-0.606705,0.006986,0.024317,0.010987
378,0.0827,0.790656,-0.606649,-0.00073,0.020623,0.018225
379,0.082618,0.7907350000000001,-0.606558,-0.006736,0.020865,0.0161949999999999
380,0.08254,0.790797,-0.606488,-0.00971,0.021108,0.015896
381,0.082395,0.790797,-0.606508,-0.013197,0.0208639999999999,0.012453
382,0.082106,0.790808,-0.606532,-0.013671,0.0171909999999999,0.011897
383,0.081881,0.790875,-0.606475,-0.017215,0.019229,0.009505
384,0.081886,0.791034,-0.606267,-0.01699,0.023266,0.014943
385,0.081934,0.791233,-0.606,-0.008539,0.022014,0.015897
386,0.0819889999999999,0.791424,-0.605744,-0.0066099999999999,0.022861,0.0132449999999999
387,0.082008,0.791651,-0.605444,0.002693,0.021657,0.022192
388,0.082076,0.7917489999999999,-0.605308,0.006334,0.018035,0.020606
389,0.082077,0.79177,-0.60528,0.011826,0.022226,0.010584
390,0.082195,0.791779,-0.605251,0.017384,0.0269769999999999,0.005642
391,0.082477,0.791788,-0.605202,0.01286,0.020743,0.013253
392,0.082698,0.791866,-0.605069,0.010945,0.015614,0.011075
393,0.082835,0.792029,-0.604838,0.010946,0.0253539999999999,0.014551
394,0.082915,0.792135,-0.604687,0.007204,0.022012,0.0164
395,0.08285,0.7922060000000001,-0.604603,0.001256,0.022704,0.018833
396,0.082741,0.792298,-0.604498,-0.002694,0.0215449999999999,0.018911
397,0.082623,0.792402,-0.604377,-0.006726,0.020845,0.02137
398,0.082522,0.792505,-0.604256,-0.005266,0.02352,0.018197
399,0.0822919999999999,0.792507,-0.6042850000000001,-0.003481,0.025425,0.019019
400,0.081991,0.792443,-0.60441,-0.006475,0.028113,0.007425
401,0.081637,0.7922130000000001,-0.6047600000000001,-0.007006,0.024834,0.011284
402,0.081333,0.7919,-0.60521,-0.005588,0.01439,0.013932
403,0.08102,0.791702,-0.605511,-0.005733,0.02269,0.0081599999999999
404,0.080953,0.791555,-0.605712,-0.004445,0.025996,0.009811
405,0.081145,0.791359,-0.605943,-0.004668,0.0258709999999999,0.0154729999999999
406,0.081445,0.791101,-0.6062390000000001,0.0016539999999999,0.027029,0.021598
407,0.081788,0.7908109999999999,-0.606571,0.0075829999999999,0.023214,0.024021
408,0.0820559999999999,0.7904869999999999,-0.606957,0.007803,0.022654,0.021096
409,0.082165,0.79014,-0.607394,0.011585,0.020132,0.019213
410,0.0821279999999999,0.7898430000000001,-0.607785,0.0111939999999999,0.022672,0.008619
411,0.081974,0.789529,-0.608213,0.0110739999999999,0.025214,0.0067269999999999
412,0.081828,0.789155,-0.608719,0.006963,0.02333,0.008942
413,0.081675,0.7887529999999999,-0.60926,-0.000178,0.02364,0.006843
414,0.081494,0.788291,-0.6098819999999999,-0.007229,0.021172,0.016574
415,0.081234,0.787718,-0.610657,-0.012799,0.014421,0.013168
416,0.080883,0.787171,-0.611408,-0.0083579999999999,0.021712,0.009113
417,0.080593,0.786718,-0.612029,-0.000469,0.022822,0.013518
418,0.080462,0.786402,-0.612452,0.0064519999999999,0.018056,0.024256
419,0.080381,0.786172,-0.612759,0.008395,0.017509,0.024044
420,0.080197,0.786062,-0.612923,0.004536,0.019831,0.019158
421,0.079933,0.786024,-0.613006,-0.002968,0.020952,0.0068049999999999
422,0.079612,0.785999,-0.613081,-0.00283,0.024106,0.004911
423,0.079307,0.785983,-0.61314,-0.003151,0.018811,0.005016
424,0.079085,0.785996,-0.613153,-0.005202,0.012558,0.006097
425,0.078862,0.786014,-0.613158,-0.0022789999999999,0.011883,0.004882
426,0.078782,0.786075,-0.6130899999999999,-0.003297,0.014294,0.009361
427,0.0788,0.786171,-0.612965,-0.000828,0.019569,0.017277
428,0.078816,0.786222,-0.612897,0.003505,0.027407,0.015302
429,0.078836,0.786193,-0.6129319999999999,0.004325,0.02823,0.014955
430,0.079024,0.786193,-0.612907,0.004381,0.029679,0.0229569999999999
431,0.079201,0.786161,-0.612925,0.003151,0.024065,0.0223949999999999
432,0.079237,0.786172,-0.612907,0.0036479999999999,0.0192789999999999,0.020363
433,0.0791679999999999,0.786192,-0.6128899999999999,0.002543,0.0225539999999999,0.012747
434,0.079002,0.786142,-0.6129760000000001,-0.000679,0.018088,0.008362
435,0.078865,0.786075,-0.613079,-0.002495,0.017148,0.008313
436,0.078889,0.786111,-0.613031,-0.005357,0.017005,0.008157
437,0.07894,0.786142,-0.612984,-0.001395,0.015433,0.0139699999999999
438,0.07897,0.786185,-0.612925,-0.005483,0.021112,0.007883
439,0.0789179999999999,0.786241,-0.6128600000000001,-0.000687,0.02339,0.010107
440,0.078907,0.7862680000000001,-0.612826,-0.000248,0.025972,0.018542
441,0.078907,0.786258,-0.612839,-0.0004309999999999,0.025097,0.019531
442,0.078815,0.786263,-0.6128439999999999,0.002148,0.021598,0.017965
443,0.078679,0.786246,-0.612884,0.006159,0.020807,0.016509
444,0.078582,0.786312,-0.612812,0.003342,0.022663,0.014515
445,0.078586,0.7864260000000001,-0.612664,0.001431,0.0197409999999999,0.012643
446,0.078663,0.7865,-0.61256,0.0037649999999999,0.020446,0.0135919999999999
447,0.078689,0.786497,-0.612561,0.004365,0.024615,0.009701
448,0.078673,0.786403,-0.612683,0.000749,0.020451,0.01022
449,0.078716,0.786331,-0.61277,-0.003414,0.020523,0.0089489999999999
450,0.078792,0.786308,-0.61279,0.000569,0.019463,0.01373
451,0.078834,0.78627,-0.612834,-0.000694,0.019333,0.014399
452,0.078797,0.786246,-0.612869,0.00064,0.021555,0.013443
453,0.07875,0.786245,-0.612876,0.0008699999999999,0.022624,0.011451
454,0.078732,0.786279,-0.612834,0.003513,0.018088,0.014018
455,0.0787549999999999,0.786381,-0.612701,0.002269,0.018765,0.017639
456,0.078725,0.7864899999999999,-0.6125649999999999,-0.000523,0.021066,0.012803
457,0.078692,0.786565,-0.6124729999999999,-0.002642,0.020182,0.013824
458,0.078667,0.786622,-0.6124029999999999,0.000496,0.022857,0.013328
459,0.078672,0.78661,-0.612418,-0.001249,0.021984,0.012046
460,0.078694,0.786562,-0.612476,0.000743,0.020613,0.013447
461,0.0787419999999999,0.786522,-0.612521,0.001809,0.020484,0.011065
462,0.078794,0.7864770000000001,-0.6125729999999999,9.4e-05,0.022239,0.011072
463,0.078908,0.786459,-0.612582,0.001353,0.019465,0.011492
464,0.079033,0.7864359999999999,-0.612594,0.0018239999999999,0.015566,0.013397
465,0.079051,0.786471,-0.612548,0.002782,0.019468,0.0135789999999999
466,0.07905,0.786557,-0.612437,0.003805,0.020374,0.00619
467,0.0792679999999999,0.786651,-0.612288,0.004289,0.020814,0.009109
468,0.0794639999999999,0.786763,-0.612119,0.000218,0.015758,0.010724
469,0.079525,0.7868890000000001,-0.611949,0.002903,0.016898,0.012766
470,0.079498,0.786958,-0.611863,0.005081,0.018279,0.011018
471,0.079468,0.787008,-0.611804,0.002975,0.022578,0.012179
472,0.079482,0.787099,-0.611684,-9e-05,0.024805,0.0147599999999999
473,0.079555,0.787154,-0.6116050000000001,-0.000423,0.025987,0.017519
474,0.07961,0.7871060000000001,-0.6116590000000001,0.0002089999999999,0.024005,0.015238
475,0.0796299999999999,0.78703,-0.611753,0.000646,0.019824,0.013578
476,0.07961,0.786929,-0.6118859999999999,-0.0030559999999999,0.020245,0.0154349999999999
477,0.0796019999999999,0.786864,-0.611971,-0.001157,0.018876,0.0151379999999999
478,0.07965,0.7868390000000001,-0.611997,0.001267,0.0160319999999999,0.01193
479,0.079674,0.786849,-0.611981,0.001014,0.019212,0.008709
480,0.079665,0.7869010000000001,-0.611915,0.0010539999999999,0.021021,0.009269
481,0.079737,0.78701,-0.611766,0.001531,0.021889,0.007503
482,0.079824,0.787104,-0.611633,0.002711,0.019033,0.011124
483,0.079809,0.78715,-0.611576,0.005854,0.015401,0.016025
484,0.079703,0.787187,-0.6115430000000001,0.002282,0.016662,0.012574
485,0.07955,0.7872319999999999,-0.611504,0.00123,0.022354,0.009438
486,0.079525,0.7872899999999999,-0.611433,0.002964,0.021564,0.011824
487,0.079603,0.787346,-0.611351,0.001848,0.0234139999999999,0.013984
488,0.079669,0.787349,-0.6113390000000001,-0.0037259999999999,0.0221759999999999,0.017253
489,0.079671,0.787289,-0.6114149999999999,-0.005361,0.024418,0.013133
490,0.079653,0.787201,-0.611531,-0.003314,0.019303,0.011739
491,0.079666,0.7871279999999999,-0.6116229999999999,-0.000916,0.021847,0.01508
492,0.079708,0.787071,-0.611691,-0.002102,0.019936,0.012692
493,0.079709,0.787025,-0.61175,0.0017879999999999,0.019127,0.0120489999999999
494,0.079719,0.786983,-0.611803,0.000267,0.0187729999999999,0.011247
495,0.079745,0.78696,-0.6118279999999999,-0.000262,0.018795,0.009503
496,0.079771,0.7869189999999999,-0.6118779999999999,0.002337,0.018867,0.006562
497,0.07985,0.786894,-0.6119,0.004241,0.018358,0.0088569999999999
498,0.079904,0.7869010000000001,-0.611885,0.002784,0.017497,0.009239
499,0.07997,0.786922,-0.611848,0.003221,0.020497,0.008119
500,0.080105,0.786948,-0.611797,0.000598,0.01719,0.0115769999999999
501,0.080231,0.786971,-0.611751,0.000152,0.014939,0.017238
502,0.080244,0.786999,-0.611714,0.000719,0.02393,0.0118599999999999
503,0.0803929999999999,0.787011,-0.6116779999999999,-0.000971,0.0261449999999999,0.009887
504,0.080733,0.786999,-0.611649,-0.000838,0.023762,0.009766
505,0.081024,0.786944,-0.611682,-0.00415,0.018003,0.013415
506,0.081175,0.786892,-0.6117279999999999,0.001223,0.016971,0.011752
507,0.081227,0.78679,-0.6118520000000001,-0.000524,0.0191789999999999,0.011312
508,0.0812799999999999,0.786643,-0.612034,0.000339,0.018304,0.007069
509,0.0814169999999999,0.786564,-0.612118,-0.000667,0.017879,0.008236
510,0.081649,0.786516,-0.6121489999999999,-0.000717,0.015471,0.008298
511,0.081852,0.786499,-0.6121439999999999,0.001477,0.0193939999999999,0.008903
512,0.081983,0.786466,-0.612168,3.3e-05,0.0188319999999999,0.009217
513,0.082053,0.78646,-0.612166,0.002114,0.017373,0.010924
514,0.082088,0.786469,-0.61215,0.001973,0.0194389999999999,0.0111069999999999
515,0.082076,0.786484,-0.612133,0.002106,0.0153199999999999,0.012005
516,0.082015,0.786511,-0.612106,0.0035259999999999,0.01839,0.0082239999999999
517,0.081984,0.7865840000000001,-0.612016,0.001192,0.021064,0.009126
518,0.0820429999999999,0.7866350000000001,-0.611942,0.0004759999999999,0.0199139999999999,0.010105
519,0.082123,0.786671,-0.6118859999999999,4.5e-05,0.020184,0.010827
520,0.082183,0.78668,-0.611867,4.7e-05,0.018969,0.0103349999999999
521,0.08216,0.786668,-0.611885,-0.000266,0.020873,0.0108569999999999
522,0.082122,0.786662,-0.611897,-0.000808,0.019826,0.009038
523,0.0821269999999999,0.7866390000000001,-0.611927,-0.002262,0.017331,0.008106
524,0.082153,0.7866310000000001,-0.611933,0.000718,0.018697,0.009776
525,0.0821809999999999,0.7866529999999999,-0.611901,0.002872,0.018538,0.007501
526,0.082161,0.786662,-0.611892,0.00013,0.019719,0.007842
527,0.0821139999999999,0.78667,-0.611889,0.000482,0.018185,0.0085709999999999
528,0.082092,0.786669,-0.611892,0.0004269999999999,0.016996,0.009963
529,0.082083,0.786671,-0.611891,0.000848,0.016857,0.011442
530,0.082067,0.786671,-0.6118939999999999,-0.0006309999999999,0.017452,0.0078739999999999
531,0.082053,0.786709,-0.611846,-0.000816,0.018543,0.008773
532,0.082035,0.786768,-0.611773,0.0012929999999999,0.016165,0.010744
533,0.082026,0.7868390000000001,-0.611682,-0.000148,0.020778,0.008274
534,0.08198,0.7868850000000001,-0.61163,-0.0008029999999999,0.020076,0.009015
535,0.081934,0.786914,-0.611599,6.7e-05,0.018476,0.008526
536,0.081919,0.786936,-0.611572,0.000707,0.017705,0.008895
537,0.081954,0.786933,-0.611571,-0.00035,0.017281,0.009367
538,0.082009,0.786957,-0.611534,-0.001153,0.01706,0.008522
539,0.082061,0.786988,-0.611486,-0.0008539999999999,0.021407,0.009344
540,0.0821809999999999,0.7870090000000001,-0.611444,0.002322,0.0166569999999999,0.010278
541,0.082289,0.787021,-0.611413,0.0018629999999999,0.0171319999999999,0.013482
542,0.082328,0.787041,-0.611382,3.9e-05,0.022956,0.011254
543,0.082486,0.787037,-0.611366,-0.0005769999999999,0.022747,0.0086439999999999
544,0.0828309999999999,0.786995,-0.6113729999999999,-0.002081,0.021873,0.012481
545,0.083092,0.786939,-0.61141,-0.0001,0.015612,0.008627
546,0.083185,0.786917,-0.611425,0.0018219999999999,0.015207,0.008673
547,0.0831529999999999,0.786868,-0.6114930000000001,0.000877,0.019269,0.008023
548,0.083107,0.786772,-0.6116229999999999,-0.002739,0.017656,0.005117
549,0.083156,0.786682,-0.611731,-0.001826,0.01564,0.005683
550,0.08326,0.786647,-0.6117640000000001,-0.000985,0.013952,0.008217
551,0.08334,0.786613,-0.611796,0.000294,0.013649,0.005732
552,0.083423,0.786616,-0.611781,-4.9e-05,0.015782,0.009165
553,0.083521,0.7866810000000001,-0.611684,0.000753,0.01848,0.009771
554,0.083567,0.786774,-0.611558,0.002676,0.0212699999999999,0.013108
555,0.083546,0.786862,-0.611448,0.00288,0.0149259999999999,0.011258
556,0.083448,0.786924,-0.611382,0.000216,0.018191,0.007958
557,0.083402,0.786985,-0.61131,0.001315,0.019992,0.00813
558,0.08348,0.787024,-0.6112479999999999,0.001053,0.021234,0.00581
559,0.083544,0.787062,-0.61119,0.00073,0.0182349999999999,0.0063159999999999
560,0.083575,0.787047,-0.611206,0.0026379999999999,0.015611,0.007599
561,0.083596,0.786998,-0.611266,0.000632,0.014806,0.006209
562,0.083636,0.786945,-0.611328,-0.001361,0.018154,0.006836
563,0.083698,0.786883,-0.611399,-0.001239,0.016965,0.00767
564,0.083762,0.7868390000000001,-0.6114470000000001,-0.000556,0.018657,0.007428
565,0.083808,0.7868,-0.611492,-0.000403,0.019001,0.01089
566,0.083842,0.786741,-0.611563,-0.000407,0.016543,0.009481
567,0.083872,0.786684,-0.611632,0.000433,0.017805,0.009932
568,0.083875,0.78666,-0.611662,0.001299,0.017493,0.008482
569,0.083897,0.786633,-0.611694,0.001141,0.019641,0.008178
570,0.083911,0.786575,-0.6117670000000001,0.001889,0.017487,0.0052
571,0.083944,0.786511,-0.611845,0.002725,0.015858,0.005522
572,0.084018,0.786429,-0.6119399999999999,0.000486,0.017221,0.006059
573,0.084106,0.7863319999999999,-0.612053,0.001343,0.016204,0.005882
574,0.084196,0.7862239999999999,-0.612179,-0.001219,0.015732,0.0075489999999999
575,0.084263,0.78614,-0.6122770000000001,0.000942,0.01394,0.007449
576,0.084322,0.7861020000000001,-0.612317,-0.000704,0.013168,0.006086
577,0.084371,0.78617,-0.612223,-0.001348,0.012994,0.004252
578,0.0843059999999999,0.7863020000000001,-0.612064,-0.001359,0.013259,0.005145
579,0.084143,0.786483,-0.6118520000000001,-2.2e-05,0.009659,0.002523
580,0.083963,0.7867430000000001,-0.6115430000000001,0.0004639999999999,0.0117489999999999,0.00258
581,0.083817,0.787082,-0.6111270000000001,0.001022,0.015103,0.003202
582,0.08369,0.787467,-0.610648,0.001576,0.013604,0.004371
583,0.083586,0.787842,-0.610179,-0.000181,0.014359,0.005778
584,0.083504,0.788191,-0.609739,0.000358,0.020342,0.006833
585,0.083508,0.788516,-0.609318,0.000156,0.017697,0.009678
586,0.083559,0.788817,-0.6089220000000001,-0.000673,0.018206,0.013905
587,0.083605,0.789045,-0.6086189999999999,-0.0016809999999999,0.025088,0.010978
588,0.083728,0.7891859999999999,-0.6084189999999999,-0.001133,0.025618,0.007208
589,0.08401,0.789241,-0.60831,-0.002299,0.024007,0.013766
590,0.0841679999999999,0.7891819999999999,-0.608364,-0.00264,0.017153,0.012279
591,0.084161,0.7891130000000001,-0.608455,0.003867,0.013621,0.008784
592,0.084149,0.789011,-0.608588,0.001071,0.014913,0.006385
593,0.084176,0.788907,-0.608719,-0.0015949999999999,0.016818,0.005081
594,0.084303,0.7888109999999999,-0.608826,-0.001738,0.01815,0.005768
595,0.084505,0.788669,-0.6089829999999999,-0.000383,0.01965,0.006856
596,0.084703,0.788495,-0.609179,0.000655,0.017077,0.00777
597,0.084845,0.788266,-0.6094569999999999,0.000711,0.017032,0.009008
598,0.084928,0.788028,-0.609753,-1.2e-05,0.016919,0.007015
599,0.085025,0.787783,-0.610056,-0.001178,0.022062,0.0068909999999999
600,0.085204,0.787528,-0.6103609999999999,4.7e-05,0.0171909999999999,0.010172
601,0.0854,0.78728,-0.610653,0.0008269999999999,0.016843,0.011013
602,0.085557,0.787094,-0.61087,0.001143,0.017654,0.0087739999999999
603,0.0856919999999999,0.78697,-0.611012,0.002473,0.011096,0.007725
604,0.085737,0.786925,-0.611063,0.00577,0.00934,0.001139
605,0.085644,0.78698,-0.611006,0.006259,0.007439,-0.000841
606,0.085356,0.787151,-0.610825,0.002916,0.004933,-0.005096
607,0.084974,0.787428,-0.610522,0.002337,0.004549,-0.009809
608,0.084628,0.7878310000000001,-0.610049,0.002225,0.005168,-0.009778
609,0.0844429999999999,0.788324,-0.609438,-0.002076,0.010458,-0.003737
610,0.084397,0.788836,-0.608781,-0.008912,0.017988,0.005281
611,0.084408,0.789349,-0.608115,-0.00935,0.0210449999999999,0.011008
612,0.084453,0.789784,-0.607543,-0.006313,0.026119,0.018661
613,0.084505,0.790101,-0.607123,-0.005067,0.029158,0.018958
614,0.084578,0.790289,-0.606869,-0.000655,0.026941,0.0199699999999999
615,0.084606,0.790345,-0.606792,0.002079,0.027816,0.019146
616,0.084604,0.790267,-0.606893,0.003622,0.023926,0.015783
617,0.084612,0.7901,-0.60711,0.0035229999999999,0.019272,0.0095909999999999
618,0.084647,0.7898970000000001,-0.60737,0.003991,0.015981,0.0036409999999999
619,0.084687,0.789654,-0.60768,0.004104,0.014134,0.000762
620,0.084745,0.7893979999999999,-0.608004,0.0037409999999999,0.012818,-0.001951
621,0.084822,0.7891520000000001,-0.608313,0.005815,0.011568,-0.001642
622,0.084922,0.788957,-0.6085510000000001,0.002663,0.009703,-0.00029
623,0.084982,0.788849,-0.608683,0.002665,0.011154,0.0003
624,0.085015,0.788812,-0.608727,0.0022949999999999,0.011497,0.000466
625,0.084992,0.788846,-0.608686,0.0011279999999999,0.009815,0.001478
626,0.084918,0.788968,-0.608538,0.000806,0.011722,0.004915
627,0.084783,0.789167,-0.6082989999999999,0.000376,0.012606,0.00399
628,0.084628,0.789459,-0.607942,-0.001849,0.013093,0.003221
629,0.084457,0.789795,-0.607529,-0.000625,0.016449,0.003861
630,0.084349,0.790143,-0.6070909999999999,-0.003203,0.016391,0.005635
631,0.084297,0.7904680000000001,-0.606675,-0.001503,0.016096,0.0063479999999999
632,0.0842929999999999,0.790726,-0.60634,-0.0049619999999999,0.019882,0.005815
633,0.084353,0.790927,-0.606068,-0.001925,0.017224,0.008625
634,0.0844309999999999,0.7910520000000001,-0.6058939999999999,-0.001698,0.019235,0.013701
635,0.084513,0.791125,-0.605787,0.000966,0.023221,0.009504
636,0.084715,0.7911050000000001,-0.6057859999999999,0.002916,0.021975,0.007153
637,0.085038,0.791054,-0.605807,0.001693,0.019737,0.00783
638,0.085228,0.790927,-0.605946,0.000145,0.0174229999999999,0.008046
639,0.085319,0.790792,-0.606109,0.006356,0.010737,0.0075069999999999
640,0.085353,0.7906310000000001,-0.6063149999999999,0.004964,0.01189,0.005576
641,0.085364,0.790501,-0.606483,-0.000494,0.012646,0.00225
642,0.0854149999999999,0.7904100000000001,-0.606594,-0.001111,0.014415,0.003093
643,0.085547,0.7903439999999999,-0.606662,0.001962,0.0136879999999999,0.004672
644,0.085612,0.790273,-0.606745,0.002431,0.011958,0.004587
645,0.085577,0.790238,-0.606795,0.000162,0.0117939999999999,0.004332
646,0.085461,0.790245,-0.606803,0.001895,0.012352,0.000938
647,0.085328,0.790273,-0.606784,0.001342,0.011713,0.001697
648,0.085197,0.790353,-0.606698,0.0004509999999999,0.009207,0.0002379999999999
649,0.085059,0.790508,-0.606517,-8.2e-05,0.010106,-0.000508
650,0.0849559999999999,0.790712,-0.6062649999999999,-0.000896,0.012206,-0.000958
651,0.085034,0.79092,-0.605982,-0.001615,0.0173229999999999,0.00236
652,0.085213,0.7911020000000001,-0.60572,-0.002785,0.017065,0.011452
653,0.085379,0.791257,-0.605494,0.001016,0.017764,0.009119
654,0.085469,0.791358,-0.605349,0.001918,0.017465,0.008364
655,0.085489,0.791427,-0.605256,0.0014869999999999,0.015046,0.005601
656,0.085511,0.791462,-0.6052069999999999,-4.6e-05,0.014003,0.0045899999999999
657,0.085598,0.791499,-0.605146,0.001865,0.013951,0.003675
658,0.0857309999999999,0.791532,-0.605085,0.004952,0.013949,0.002317
659,0.085836,0.791553,-0.6050409999999999,0.002131,0.011745,0.001541
660,0.085967,0.791605,-0.604955,0.001359,0.0124409999999999,0.000188
661,0.08613,0.7916920000000001,-0.6048180000000001,0.001547,0.014674,0.0033469999999999
662,0.086342,0.7917770000000001,-0.604676,0.000526,0.01642,0.002809
663,0.0865529999999999,0.791832,-0.604575,0.001246,0.0149,0.004843
664,0.08677,0.7919109999999999,-0.60444,0.000251,0.014608,0.005945
665,0.08703,0.792007,-0.6042770000000001,0.001547,0.0133669999999999,0.004744
666,0.087286,0.792112,-0.604103,0.001551,0.013827,0.0036079999999999
667,0.087551,0.792235,-0.603902,0.001164,0.011033,0.00324
668,0.087764,0.792415,-0.603636,4e-06,0.0109909999999999,-0.001573
669,0.087915,0.792642,-0.603316,0.000586,0.01168,0.00067
670,0.08799,0.792906,-0.602957,0.001091,0.009538,-0.0034579999999999
671,0.088026,0.793204,-0.60256,-0.003904,0.0067069999999999,-0.0035039999999999
672,0.088195,0.7936770000000001,-0.601912,-0.005722,0.012704,-0.000139
673,0.088237,0.794263,-0.601133,-0.008983,0.015597,-0.001849
674,0.0883679999999999,0.7948770000000001,-0.600301,0.006816,0.004516,0.00469
675,0.088706,0.795555,-0.599353,0.004647,0.004921,0.0030239999999999
676,0.089195,0.796463,-0.598073,0.0060659999999999,0.007401,0.000432
677,0.089818,0.7974439999999999,-0.59667,0.000621,0.020045,0.004888
678,0.090532,0.7982560000000001,-0.595475,-0.006822,0.020073,0.0076459999999999
679,0.09116,0.798828,-0.594612,-0.006336,0.021133,0.009376
680,0.091567,0.7991779999999999,-0.594079,0.004456,0.021531,0.009637
681,0.091683,0.799285,-0.593917,0.004905,0.021546,0.0093829999999999
682,0.091635,0.799246,-0.5939770000000001,0.007075,0.019861,0.0075819999999999
683,0.0916299999999999,0.799137,-0.594125,-0.000886,0.024502,0.008508
684,0.091499,0.798929,-0.594424,-0.000343,0.013479,0.009051
685,0.091272,0.798675,-0.5948,0.0053159999999999,0.0094,0.004178
686,0.091036,0.798388,-0.595221,0.002684,0.011853,0.002356
687,0.090863,0.7981229999999999,-0.595604,-0.000287,0.015216,0.001686
688,0.090783,0.79788,-0.5959409999999999,-0.001641,0.0130789999999999,0.001993
689,0.090791,0.797633,-0.59627,-0.000901,0.015477,0.0038469999999999
690,0.090794,0.797343,-0.596658,-0.000722,0.020025,0.00654
691,0.090674,0.7969890000000001,-0.5971479999999999,0.002649,0.018761,0.000331
692,0.090556,0.796553,-0.597747,0.000936,0.0153509999999999,0.0065
693,0.09038,0.796087,-0.598395,-0.001604,0.013606,0.007011
694,0.090148,0.795643,-0.59902,-4.5e-05,0.006725,0.00115
695,0.089818,0.795239,-0.5996060000000001,0.004527,0.009418,0.002682
696,0.089563,0.794896,-0.6000989999999999,0.004096,0.010539,-0.000792
697,0.089432,0.794619,-0.600485,0.0032189999999999,0.013364,0.00205
698,0.089376,0.794375,-0.600816,0.004496,0.013196,0.0015119999999999
699,0.089303,0.7941520000000001,-0.601121,0.001257,0.0128849999999999,0.001466
700,0.089188,0.793941,-0.601418,0.002517,0.01238,0.004265
701,0.08907,0.793769,-0.601662,0.003628,0.01339,-0.001259
702,0.088971,0.793623,-0.601869,0.001315,0.012773,0.003831
703,0.088869,0.7934859999999999,-0.602065,0.002546,0.009843,0.0036299999999999
704,0.088736,0.793391,-0.60221,0.0006349999999999,0.0139669999999999,0.000769
705,0.088591,0.793301,-0.60235,-0.000182,0.015262,0.0039
706,0.088525,0.793221,-0.602464,0.001303,0.015449,0.001238
707,0.088487,0.793145,-0.602571,0.002485,0.015281,0.004091
708,0.08845,0.793088,-0.602651,0.001424,0.015323,0.002721
709,0.088379,0.7930649999999999,-0.602692,0.002396,0.011516,0.004944
710,0.088264,0.79304,-0.602741,0.002923,0.0109,0.001133
711,0.088144,0.793033,-0.602767,0.003607,0.013119,0.000305
712,0.088046,0.79302,-0.602799,0.002774,0.014505,0.001267
713,0.087977,0.793042,-0.60278,0.00205,0.012652,-6.4e-05
714,0.087882,0.793082,-0.602742,0.0008789999999999,0.0147789999999999,0.000874
715,0.08777,0.79311,-0.602722,0.002257,0.01408,0.0029289999999999
716,0.087703,0.793122,-0.602715,0.00095,0.01564,0.0034869999999999
717,0.087614,0.7931239999999999,-0.602726,0.001894,0.011259,0.0045509999999999
718,0.08751,0.793139,-0.60272,0.001632,0.013349,0.003035
719,0.087412,0.793171,-0.602693,-0.000865,0.012707,0.003603
720,0.087336,0.793189,-0.60268,0.000585,0.0144129999999999,0.002094
721,0.087271,0.793209,-0.602664,0.001825,0.0146069999999999,0.001635
722,0.087233,0.7932279999999999,-0.602643,0.002352,0.015488,0.002805
723,0.087213,0.7932239999999999,-0.6026520000000001,0.0043549999999999,0.016225,0.000342
724,0.087221,0.793229,-0.602644,0.004622,0.011413,0.002669
725,0.087203,0.793295,-0.60256,0.002534,0.013208,0.0035909999999999
726,0.087236,0.7933319999999999,-0.6025050000000001,0.00305,0.017596,-0.002124
727,0.087396,0.793342,-0.6024689999999999,0.002447,0.015252,-0.000955
728,0.087615,0.793381,-0.602386,0.001191,0.012909,0.004608
729,0.087702,0.793402,-0.602346,0.007559,0.013696,0.003164
730,0.087642,0.7933520000000001,-0.602421,0.0066269999999999,0.012312,0.00446
731,0.087624,0.7933180000000001,-0.602468,-0.000572,0.010836,0.00469
732,0.087598,0.793349,-0.602431,-0.003782,0.013322,0.000685
733,0.087635,0.793384,-0.602379,0.001385,0.013622,0.004768
734,0.087687,0.793371,-0.6023890000000001,-0.000147,0.013346,0.0041979999999999
735,0.087707,0.793315,-0.60246,0.001068,0.012105,0.004651
736,0.08771,0.793261,-0.60253,0.00279,0.012647,0.004492
737,0.087709,0.793226,-0.602576,0.003692,0.01346,0.001639
738,0.087682,0.7931729999999999,-0.60265,0.002269,0.014322,0.003941
739,0.087615,0.793117,-0.602733,0.0049299999999999,0.0085799999999999,0.002361
740,0.087532,0.793083,-0.6027899999999999,0.006401,0.009743,0.001197
741,0.087522,0.7930619999999999,-0.602819,0.007174,0.012282,-0.001169
742,0.087582,0.793049,-0.6028279999999999,0.001911,0.013103,0.000807
743,0.0875799999999999,0.7930550000000001,-0.60282,0.001714,0.014547,0.00283
744,0.087541,0.793072,-0.602804,0.002654,0.01389,0.003378
745,0.087472,0.793067,-0.602821,0.003196,0.01394,0.001258
746,0.087407,0.793058,-0.602842,0.0032,0.0122709999999999,0.004209
747,0.0873559999999999,0.793041,-0.602871,0.002564,0.011174,0.003231
748,0.087288,0.793018,-0.602912,0.0009539999999999,0.01318,0.002402
749,0.087227,0.793011,-0.60293,0.001884,0.014561,0.0024809999999999
750,0.087144,0.7930050000000001,-0.60295,0.000121,0.0134069999999999,0.003722
751,0.087059,0.792994,-0.6029760000000001,0.001839,0.0156,0.002039
752,0.086971,0.792972,-0.603018,0.004582,0.013043,0.003378
753,0.086923,0.792927,-0.6030840000000001,0.004523,0.01585,0.002437
754,0.086892,0.792859,-0.603178,0.0029059999999999,0.014758,0.004072
755,0.086912,0.7927850000000001,-0.603273,0.00342,0.015123,0.0038469999999999
756,0.0869279999999999,0.792722,-0.603352,0.0038159999999999,0.01311,0.004872
757,0.086976,0.792671,-0.603413,0.003203,0.00988,0.002644
758,0.087039,0.792671,-0.603404,0.002636,0.010186,0.003428
759,0.08712,0.792741,-0.6033,0.004005,0.01155,-0.000857
760,0.087194,0.792838,-0.603162,0.005213,0.012551,-0.001239
761,0.087258,0.7929579999999999,-0.6029939999999999,0.006934,0.007624,-0.001986
762,0.087237,0.793171,-0.6027170000000001,0.0050479999999999,0.007228,-0.0018969999999999
763,0.087185,0.793465,-0.6023390000000001,0.007145,0.007896,-0.0053729999999999
764,0.087211,0.793826,-0.601858,0.002648,0.008786,0.000128
765,0.087337,0.7942100000000001,-0.601333,0.00121,0.012064,-9.2e-05
766,0.087495,0.794615,-0.600775,0.001433,0.015459,0.001058
767,0.087598,0.794982,-0.600275,0.000704,0.018266,0.00509
768,0.0876639999999999,0.795265,-0.5998899999999999,-4.8e-05,0.019341,0.005988
769,0.087827,0.795529,-0.5995159999999999,-0.001935,0.0170169999999999,0.008726
770,0.088044,0.795783,-0.599147,-0.000443,0.01864,0.008403
771,0.088262,0.79598,-0.598853,0.002971,0.019724,0.0044009999999999
772,0.088562,0.796138,-0.598598,0.003678,0.016773,0.0032
773,0.088899,0.796309,-0.598321,0.004332,0.012956,-8.3e-05
774,0.089123,0.796453,-0.598097,0.0033299999999999,0.012004,0.000563
775,0.089275,0.796592,-0.597889,0.002949,0.00718,0.003009
776,0.089424,0.796678,-0.597751,0.00483,0.01248,-5.7e-05
777,0.0895909999999999,0.796756,-0.5976229999999999,0.003656,0.010709,-0.000415
778,0.08982,0.796895,-0.597403,0.003594,0.01234,0.001807
779,0.090062,0.7970659999999999,-0.5971380000000001,0.001842,0.0129919999999999,0.004761
780,0.090248,0.7972090000000001,-0.59692,0.004632,0.015718,0.0041
781,0.090333,0.797315,-0.596766,0.003249,0.0133389999999999,0.00622
782,0.0903009999999999,0.7974140000000001,-0.596637,0.000367,0.015208,0.005863
783,0.090208,0.797487,-0.5965550000000001,0.000414,0.017363,0.004117
784,0.090061,0.7974979999999999,-0.596561,0.002956,0.01253,0.00507
785,0.089808,0.79742,-0.596704,0.001333,0.012302,0.005624
786,0.089449,0.797275,-0.596952,0.002424,0.015988,0.002927
787,0.089094,0.797063,-0.597288,0.0016649999999999,0.017039,0.000959
788,0.088723,0.796788,-0.597711,0.004569,0.010586,0.005303
789,0.088273,0.79651,-0.598147,0.004622,0.010527,0.003863
790,0.087787,0.796235,-0.598584,0.007107,0.010406,0.002088
791,0.087341,0.7959970000000001,-0.598966,0.006653,0.012475,-0.002184
792,0.087051,0.795805,-0.599263,0.006012,0.013826,-0.000971
793,0.0869,0.7955979999999999,-0.59956,0.003814,0.009822,0.00134
794,0.086602,0.795484,-0.599754,0.005729,0.01517,0.012993
795,0.086312,0.795395,-0.5999140000000001,0.006767,0.017334,-0.002061
796,0.086118,0.795191,-0.600212,0.007342,0.013922,0.003945
797,0.085934,0.794992,-0.6005020000000001,0.007358,0.0071769999999999,0.000694
798,0.085855,0.794901,-0.600634,0.0048119999999999,0.0123959999999999,0.000551
799,0.085778,0.794888,-0.600662,7.000000000000001e-06,0.0134759999999999,0.002944
800,0.085733,0.7949109999999999,-0.600639,0.0009369999999999,0.013866,0.0038829999999999
801,0.085744,0.794882,-0.600675,0.005733,0.010477,0.00308
802,0.085724,0.794841,-0.600733,0.005707,0.011754,0.002787
803,0.085608,0.7947890000000001,-0.600817,0.001962,0.013225,0.001483
804,0.085482,0.794733,-0.600909,0.0034159999999999,0.011923,0.000628
805,0.08545,0.794747,-0.600896,0.005035,0.009437,0.002172
806,0.085445,0.79477,-0.600866,0.0068239999999999,0.012496,0.000936
807,0.085397,0.79474,-0.600913,0.006797,0.0122519999999999,0.0035009999999999
808,0.085303,0.794679,-0.601007,0.005411,0.012313,0.0031219999999999
809,0.085245,0.794652,-0.60105,0.003561,0.011317,0.003348
810,0.085258,0.794651,-0.60105,0.0034409999999999,0.010052,0.001532
811,0.085252,0.794669,-0.6010270000000001,0.003036,0.010247,0.0065439999999999
812,0.085256,0.794667,-0.601028,0.004908,0.018321,0.0008849999999999
813,0.085387,0.794623,-0.601068,0.004197,0.0150389999999999,-0.000494
814,0.085627,0.794564,-0.601112,0.003698,0.016899,0.003182
815,0.08576,0.794505,-0.601171,0.0057009999999999,0.007634,0.003332
816,0.085759,0.7944640000000001,-0.601226,0.00703,0.009507,0.002548
817,0.085688,0.794409,-0.601309,0.009573,0.010843,0.001959
818,0.085649,0.7943640000000001,-0.6013729999999999,0.00241,0.0140919999999999,0.000757
819,0.08566,0.794335,-0.6014109999999999,0.002825,0.013313,0.001374
820,0.085723,0.794309,-0.601436,0.002199,0.012164,0.002346
821,0.085779,0.7943020000000001,-0.601437,0.004248,0.011637,0.004604
822,0.085808,0.794254,-0.601496,0.004524,0.013073,0.003947
823,0.0858,0.794184,-0.601589,0.006271,0.0129139999999999,0.00436
824,0.085784,0.794115,-0.601684,0.00647,0.010603,0.0048509999999999
825,0.085752,0.794075,-0.601741,0.006121,0.0104599999999999,0.001307
826,0.085682,0.794039,-0.6017979999999999,0.00465,0.013349,0.000113
827,0.085613,0.794018,-0.6018359999999999,0.006107,0.013874,0.000716
828,0.085624,0.793992,-0.6018680000000001,0.00422,0.012832,0.002976
829,0.085645,0.793981,-0.60188,0.005266,0.014186,0.003842
830,0.085633,0.793938,-0.601939,0.007095,0.01255,0.0021
831,0.085608,0.793877,-0.602021,0.006372,0.012534,0.002397
832,0.085551,0.7938350000000001,-0.602086,0.004995,0.0125469999999999,0.000401
833,0.085512,0.793779,-0.602165,0.004713,0.0117019999999999,0.001838
834,0.085501,0.793726,-0.602236,0.005548,0.012167,0.000139
835,0.085485,0.7936949999999999,-0.602279,0.002635,0.0123959999999999,0.005203
836,0.08542,0.7936529999999999,-0.6023430000000001,0.0017079999999999,0.012743,0.003482
837,0.085338,0.79362,-0.602399,0.004521,0.011663,0.0025
838,0.085271,0.793604,-0.60243,0.006206,0.010595,0.001768
839,0.085215,0.79361,-0.602429,0.004965,0.009918,0.00105
840,0.085149,0.793607,-0.602442,0.005335,0.01108,0.001322
841,0.085078,0.79361,-0.602449,0.0062,0.011413,0.000932
842,0.0850279999999999,0.793608,-0.602459,0.0068,0.011415,0.002575
843,0.084982,0.793622,-0.602446,0.0036409999999999,0.012622,0.0014789999999999
844,0.084954,0.793623,-0.602449,0.004935,0.013033,0.002687
845,0.084945,0.793611,-0.602467,0.00406,0.013671,0.004719
846,0.084921,0.793583,-0.602506,0.005854,0.012554,0.003492
847,0.084882,0.793549,-0.602557,0.005297,0.009445,0.003253
848,0.084822,0.793543,-0.6025739999999999,0.004488,0.012152,0.004246
849,0.084787,0.793562,-0.602553,0.004462,0.013552,0.002227
850,0.0848039999999999,0.7935810000000001,-0.602526,0.006398,0.01338,0.001726
851,0.084798,0.793587,-0.602518,0.003703,0.011222,0.0017649999999999
852,0.0847779999999999,0.793606,-0.6024970000000001,0.005524,0.012256,0.000644
853,0.084781,0.793607,-0.602494,0.004666,0.014147,0.001695
854,0.084825,0.793613,-0.602481,0.004515,0.0106629999999999,0.005298
855,0.084808,0.79361,-0.602486,0.004501,0.01393,0.00361
856,0.0848039999999999,0.7935939999999999,-0.602509,0.00446,0.016068,0.001847
857,0.084966,0.79359,-0.602491,0.005152,0.015629,0.005385
858,0.08516,0.793547,-0.60252,0.002288,0.0131539999999999,0.00256
859,0.085234,0.793506,-0.602564,0.006456,0.01315,0.002054
860,0.085268,0.793514,-0.602548,0.009001,0.0073129999999999,0.000711
861,0.085303,0.793551,-0.602495,0.004877,0.009748,-0.001051
862,0.0854169999999999,0.793673,-0.602317,0.005159,0.0100069999999999,0.000663
863,0.085646,0.793933,-0.601943,0.004762,0.008725,0.002822
864,0.085918,0.79423,-0.6015119999999999,0.004887,0.012624,-0.000401
865,0.086198,0.794529,-0.6010770000000001,0.003005,0.012905,0.002398
866,0.086413,0.7948029999999999,-0.600684,0.005964,0.012341,0.003668
867,0.0865679999999999,0.795074,-0.600302,0.006862,0.012695,0.003394
868,0.086754,0.795343,-0.599919,0.00808,0.014319,0.001667
869,0.086938,0.795613,-0.599535,0.0062619999999999,0.011928,0.004594
870,0.087157,0.795883,-0.5991449999999999,0.005525,0.010697,0.005822
871,0.087409,0.796143,-0.598762,0.002251,0.0143889999999999,0.0014869999999999
872,0.087733,0.796377,-0.598403,0.0010429999999999,0.016306,0.003021
873,0.088029,0.796588,-0.598079,0.004638,0.012906,0.003963
874,0.088263,0.796766,-0.597807,0.006983,0.0126819999999999,0.005888
875,0.088402,0.7969069999999999,-0.597599,0.006629,0.011763,0.004444
876,0.088498,0.797036,-0.5974119999999999,0.004748,0.014686,0.001694
877,0.088626,0.7971600000000001,-0.597228,0.006405,0.010183,0.001891
878,0.088753,0.797331,-0.5969810000000001,0.007134,0.010988,0.0006219999999999
879,0.088929,0.797574,-0.59663,0.008071,0.0098599999999999,-0.00037
880,0.089154,0.797884,-0.596182,0.005832,0.011915,0.0022489999999999
881,0.089419,0.798198,-0.5957210000000001,0.00366,0.015187,0.004565
882,0.089699,0.798479,-0.595303,0.002739,0.015639,0.004666
883,0.089963,0.7986800000000001,-0.5949939999999999,0.004031,0.0143539999999999,0.004845
884,0.090156,0.79885,-0.5947359999999999,0.005364,0.014367,0.003915
885,0.090307,0.7989930000000001,-0.594521,0.005274,0.015216,0.004021
886,0.090427,0.799093,-0.594368,0.004376,0.01211,0.004386
887,0.090542,0.799172,-0.594244,0.004856,0.01017,0.000372
888,0.090661,0.799262,-0.594105,0.004233,0.013391,0.001682
889,0.090785,0.7993359999999999,-0.593986,0.006062,0.01237,0.001289
890,0.0908809999999999,0.799416,-0.5938640000000001,0.00528,0.0145639999999999,0.001685
891,0.0909659999999999,0.799492,-0.593749,0.006996,0.017937,-4.7e-05
892,0.091023,0.7995329999999999,-0.593685,0.006022,0.013974,0.00288
893,0.091039,0.799505,-0.59372,0.003825,0.014735,0.003175
894,0.090973,0.7994399999999999,-0.593817,0.001526,0.011274,0.004385
895,0.090897,0.799428,-0.593845,0.004699,0.013316,6.500000000000001e-05
896,0.0908549999999999,0.7994020000000001,-0.5938859999999999,0.006069,0.018698,0.002044
897,0.090879,0.799355,-0.593946,0.002505,0.0145949999999999,0.003096
898,0.090824,0.799198,-0.594166,0.00346,0.013821,0.0065959999999999
899,0.0906,0.798932,-0.594558,0.004493,0.015125,0.004089
900,0.09031,0.798675,-0.594947,0.00521,0.0163889999999999,0.000663
901,0.09011,0.7984319999999999,-0.5953039999999999,0.005853,0.015258,0.002515
902,0.089847,0.798095,-0.5957939999999999,0.006512,0.013306,0.002349
903,0.089483,0.79775,-0.596312,0.0076849999999999,0.005259,0.003264
904,0.0890799999999999,0.797453,-0.596769,0.005799,0.011293,1.3e-05
905,0.088766,0.797205,-0.597147,0.0069989999999999,0.014059,0.001719
906,0.0886179999999999,0.796992,-0.597453,0.00739,0.012761,0.002208
907,0.088583,0.796805,-0.597708,0.007166,0.0133759999999999,0.002844
908,0.0885519999999999,0.796624,-0.597953,0.005137,0.0133889999999999,0.002845
909,0.088452,0.79643,-0.5982270000000001,0.0052829999999999,0.013186,0.000875
910,0.0883559999999999,0.796234,-0.5985020000000001,0.004448,0.015,0.002525
911,0.088269,0.796063,-0.598742,0.004642,0.011295,0.003985
912,0.088125,0.795896,-0.598985,0.006053,0.0074329999999999,0.00316
913,0.0879139999999999,0.795791,-0.599156,0.01017,0.00824,-0.002209
914,0.087758,0.7957810000000001,-0.5991920000000001,0.005885,0.009669,-0.004721
915,0.087669,0.7958149999999999,-0.59916,0.004967,0.00808,-0.002433
916,0.087619,0.795908,-0.5990439999999999,0.005902,0.010458,-0.00084
917,0.0875669999999999,0.796017,-0.598907,0.00011,0.011646,0.001403
918,0.087461,0.796078,-0.5988399999999999,0.00278,0.012683,0.00216
919,0.087293,0.7961189999999999,-0.598811,0.00667,0.0145199999999999,0.004115
920,0.087137,0.796181,-0.598751,0.007834,0.015861,0.004695
921,0.086984,0.796225,-0.5987140000000001,0.00904,0.016687,0.002187
922,0.086827,0.796219,-0.598745,0.009959,0.012756,0.0064909999999999
923,0.086621,0.7962090000000001,-0.598789,0.0077849999999999,0.0143069999999999,0.004535
924,0.086445,0.796201,-0.598825,0.006939,0.013141,0.006937
925,0.086289,0.796203,-0.598845,0.006744,0.0139169999999999,0.0013109999999999
926,0.086133,0.796161,-0.5989220000000001,0.005404,0.013241,0.001831
927,0.085959,0.7961090000000001,-0.599016,0.006402,0.014605,0.003984
928,0.085827,0.7960189999999999,-0.599156,0.004749,0.0130479999999999,0.001484
929,0.08574,0.795901,-0.599325,0.003951,0.010831,0.001714
930,0.085697,0.795814,-0.599446,0.00642,0.012779,0.001927
931,0.085684,0.795759,-0.599521,0.006311,0.010393,-8.8e-05
932,0.085651,0.795716,-0.599583,0.00607,0.012573,0.003163
933,0.085579,0.795668,-0.599657,0.007134,0.013597,0.002886
934,0.085483,0.795616,-0.5997399999999999,0.005277,0.009178,0.002343
935,0.085385,0.795614,-0.5997560000000001,0.006137,0.0131479999999999,0.003351
936,0.0853309999999999,0.795639,-0.59973,0.00761,0.010894,0.0037979999999999
937,0.085363,0.7956989999999999,-0.599646,0.00619,0.008958,0.0016539999999999
938,0.0853049999999999,0.795816,-0.5995,0.0072239999999999,0.010184,-0.0008269999999999
939,0.085157,0.795913,-0.599392,0.004626,0.012498,-0.002293
940,0.085024,0.795996,-0.599301,0.003797,0.008417,-0.001026
941,0.084975,0.796084,-0.59919,0.002061,0.017057,6.9e-05
942,0.0850269999999999,0.7961189999999999,-0.599137,0.004649,0.021432,0.003343
943,0.0852639999999999,0.796132,-0.599086,0.004366,0.021861,0.010051
944,0.085667,0.796104,-0.599065,0.004726,0.017281,0.009572
945,0.085998,0.796151,-0.598955,0.009613,0.011283,0.008531
946,0.086308,0.796305,-0.5987060000000001,0.018169,0.011419,0.003232
947,0.086723,0.796424,-0.598488,0.014977,0.01252,-0.001869
948,0.087135,0.796458,-0.598383,0.0119099999999999,0.008244,-0.003073
949,0.087479,0.796493,-0.598286,0.008637,0.007127,-0.001552
950,0.08769,0.7965939999999999,-0.598121,0.0093709999999999,0.0084599999999999,-0.000604
951,0.0878299999999999,0.796748,-0.597895,0.0086819999999999,0.013326,0.000788
952,0.087991,0.796895,-0.597675,0.008078,0.016856,-0.000271
953,0.08818,0.7970470000000001,-0.597445,0.007233,0.0115769999999999,0.002322
954,0.088394,0.797243,-0.597152,0.002777,0.012419,0.003921
955,0.088561,0.797403,-0.596913,0.0015429999999999,0.0133569999999999,0.004231
956,0.088624,0.7975369999999999,-0.596724,0.001876,0.008645,0.004683
957,0.088575,0.7976810000000001,-0.59654,0.002551,0.014468,0.0043
958,0.08851,0.797837,-0.596341,0.002982,0.019195,0.002469
959,0.088466,0.797978,-0.596159,0.004338,0.019252,0.002424
960,0.088403,0.79803,-0.5960979999999999,0.005607,0.015142,0.004637
961,0.0882179999999999,0.797982,-0.5961890000000001,0.008827,0.012702,0.003431
962,0.087943,0.797862,-0.596391,0.007531,0.011129,0.003953
963,0.087661,0.797723,-0.596618,0.008789,0.0121219999999999,0.0017239999999999
964,0.08742,0.797585,-0.596838,0.008817,0.011893,0.002096
965,0.087199,0.797465,-0.5970310000000001,0.0079239999999999,0.010793,0.003693
966,0.087016,0.7973819999999999,-0.597168,0.006261,0.0151639999999999,4.6e-05
967,0.08687,0.797312,-0.597284,0.006239,0.015707,0.00187
968,0.086721,0.7972199999999999,-0.597427,0.007533,0.014731,0.004196
969,0.086577,0.797147,-0.597546,0.005174,0.014468,0.005382
970,0.086413,0.797111,-0.597618,0.0075049999999999,0.009759,-0.000405
971,0.086254,0.797107,-0.597646,0.007618,0.009244,-0.000392
972,0.086134,0.7971189999999999,-0.597647,0.007814,0.010758,-0.002526
973,0.086103,0.797167,-0.597588,0.0064269999999999,0.011488,-0.000434
974,0.086116,0.797216,-0.5975199999999999,0.005986,0.012522,0.003495
975,0.086118,0.7972819999999999,-0.597432,0.0078459999999999,0.012471,0.001073
976,0.086167,0.797349,-0.597336,0.007873,0.016723,0.0028989999999999
977,0.086258,0.797391,-0.597266,0.003708,0.011736,0.006506
978,0.0863029999999999,0.797361,-0.597299,0.007187,0.0155509999999999,0.008798
979,0.086289,0.7972739999999999,-0.597418,0.002273,0.016675,0.005438
980,0.086146,0.797133,-0.597627,0.004308,0.017137,0.004548
981,0.0859419999999999,0.796952,-0.597897,0.00703,0.0146169999999999,0.004422
982,0.085708,0.796767,-0.598178,0.004059,0.009904,0.004382
983,0.085375,0.796602,-0.598445,0.006376,0.010924,0.0016579999999999
984,0.085084,0.796451,-0.598687,0.004515,0.013287,-0.0022489999999999
985,0.085017,0.796315,-0.598878,0.008138,0.012187,-0.00032
986,0.0851809999999999,0.796219,-0.598983,0.006082,0.009964,0.001097
987,0.085296,0.79615,-0.599057,0.008515,0.0091939999999999,0.001645
988,0.0853429999999999,0.796127,-0.5990810000000001,0.00917,0.009186,0.000768
989,0.085348,0.7960729999999999,-0.599152,0.00944,0.012231,0.001679
990,0.085336,0.7960659999999999,-0.599164,0.0082469999999999,0.013368,0.001996
991,0.08539,0.796103,-0.599106,0.004225,0.014428,0.003662
992,0.085497,0.796142,-0.599039,0.006238,0.016404,0.005183
993,0.085623,0.796122,-0.5990479999999999,0.004984,0.014959,0.006885
994,0.085719,0.796074,-0.5990979999999999,0.004018,0.016533,0.006142
995,0.085801,0.7959729999999999,-0.59922,0.006515,0.017702,0.008628
996,0.085863,0.7958,-0.599441,0.0055369999999999,0.0172189999999999,0.0064849999999999
997,0.085941,0.795543,-0.599771,0.006084,0.013371,0.009179
998,0.086002,0.795237,-0.600168,0.006344,0.015478,0.00712
999,0.086031,0.794887,-0.600627,0.004454,0.013859,0.003215
1000,0.086065,0.794459,-0.6011880000000001,0.0131479999999999,0.008336,0.006629
1001,0.086136,0.794388,-0.601272,0.016373,-0.004395,-0.00203
1002,0.086376,0.794697,-0.600828,0.024158,-0.0002029999999999,-0.005541
1003,0.086685,0.795093,-0.60026,0.015656,0.0033079999999999,-0.016668
1004,0.087012,0.7953399999999999,-0.599885,0.006723,-0.002997,-0.016554
1005,0.087259,0.795697,-0.599376,0.0055,-0.004575,-0.0141039999999999
1006,0.087347,0.796323,-0.598531,0.001444,0.008578,-0.006938
1007,0.087496,0.7970619999999999,-0.597526,0.002714,0.021542,0.00965
1008,0.087839,0.79777,-0.596529,0.001943,0.023321,0.013552
1009,0.088228,0.798272,-0.5958,0.0002569999999999,0.025672,0.01676
1010,0.08854,0.798565,-0.59536,2.2e-05,0.024539,0.020943
1011,0.0887429999999999,0.798734,-0.595104,0.000857,0.024783,0.019421
1012,0.088858,0.7987920000000001,-0.59501,0.002329,0.0204379999999999,0.017541
1013,0.088872,0.798723,-0.5950989999999999,0.004847,0.02159,0.007483
1014,0.088722,0.79847,-0.595461,0.007393,0.019675,0.004076
1015,0.088366,0.798031,-0.5961029999999999,0.0073219999999999,0.015248,0.002597
1016,0.087826,0.797551,-0.596825,0.015354,-0.0030559999999999,-0.006462
1017,0.087306,0.797229,-0.59733,0.014836,-0.002246,-0.005392
1018,0.086961,0.797205,-0.597413,0.016219,0.000113,-0.0072159999999999
1019,0.087062,0.797407,-0.597128,0.013005,0.012163,-0.005884
1020,0.087551,0.797763,-0.596581,0.003193,0.010739,0.001015
1021,0.088162,0.7981689999999999,-0.595947,0.005221,0.008792,0.0038
1022,0.0885529999999999,0.798513,-0.595428,0.005396,0.011881,0.004471
1023,0.088515,0.798751,-0.595116,0.007188,0.013353,-0.000801
1024,0.088256,0.7989729999999999,-0.594855,0.009034,0.012245,9.8e-05
1025,0.088096,0.799293,-0.594449,0.005151,0.0129319999999999,0.003202
1026,0.088025,0.799596,-0.594052,0.00281,0.0187939999999999,0.005856
1027,0.088077,0.7998029999999999,-0.593766,0.000637,0.017351,0.008408
1028,0.088219,0.799936,-0.593566,0.002815,0.021933,0.012343
1029,0.088339,0.7998850000000001,-0.5936170000000001,0.003961,0.019024,0.013035
1030,0.088374,0.799719,-0.593834,0.006551,0.017724,0.012184
1031,0.088419,0.799465,-0.59417,0.0067959999999999,0.019764,0.0053939999999999
1032,0.088495,0.7991229999999999,-0.594618,0.009695,0.019724,0.003767
1033,0.088604,0.798746,-0.595108,0.009067,0.011725,0.003098
1034,0.088683,0.798377,-0.595592,0.010896,0.010293,-0.0001419999999999
1035,0.088694,0.7980229999999999,-0.596065,0.0107319999999999,0.010876,0.0002089999999999
1036,0.088654,0.797693,-0.596512,0.010834,0.005286,-0.003296
1037,0.088532,0.7973899999999999,-0.596935,0.007278,0.005833,-0.002202
1038,0.0883559999999999,0.797137,-0.597299,0.006416,0.009183,-0.0004179999999999
1039,0.088118,0.796963,-0.5975659999999999,0.008119,0.01189,-0.002395
1040,0.087836,0.79682,-0.5977979999999999,0.008172,0.01214,0.001332
1041,0.087559,0.796713,-0.597981,0.008678,0.010278,0.003041
1042,0.087319,0.796652,-0.5980979999999999,0.0055299999999999,0.016077,0.001907
1043,0.08722,0.796589,-0.598196,0.005203,0.013668,0.005911
1044,0.087194,0.7965260000000001,-0.598283,0.004572,0.013715,0.004442
1045,0.087145,0.796467,-0.5983689999999999,0.0072299999999999,0.015987,0.00616
1046,0.087071,0.796379,-0.5984970000000001,0.008617,0.013558,0.0046409999999999
1047,0.086976,0.796247,-0.598687,0.008986,0.0139639999999999,0.002526
1048,0.086912,0.796104,-0.5988859999999999,0.0076159999999999,0.015205,0.003091
1049,0.086885,0.795972,-0.599066,0.010619,0.011661,0.004568
1050,0.086881,0.79585,-0.599229,0.012347,0.011493,0.001145
1051,0.086867,0.7957350000000001,-0.599383,0.009935,0.01469,0.0024129999999999
1052,0.086835,0.795614,-0.599549,0.007571,0.0135449999999999,0.001053
1053,0.086791,0.7954939999999999,-0.599713,0.008851,0.011375,0.000333
1054,0.08674,0.795403,-0.599842,0.0085659999999999,0.0123819999999999,0.001835
1055,0.086697,0.795327,-0.5999479999999999,0.007831,0.012397,0.000965
1056,0.086641,0.795261,-0.6000449999999999,0.005919,0.010525,0.003319
1057,0.086642,0.79525,-0.600059,0.00572,0.013771,0.001762
1058,0.086604,0.795266,-0.600043,0.0062299999999999,0.015479,0.003302
1059,0.086557,0.7952520000000001,-0.600068,0.006369,0.016393,0.004548
1060,0.086492,0.795199,-0.6001479999999999,0.00587,0.015806,0.003972
1061,0.0864149999999999,0.795107,-0.6002810000000001,0.008784,0.010206,0.004548
1062,0.086334,0.795018,-0.60041,0.0074,0.010157,0.003868
1063,0.086264,0.794975,-0.600478,0.00747,0.0121079999999999,0.002531
1064,0.086258,0.794938,-0.600527,0.005875,0.013015,0.000842
1065,0.086262,0.794871,-0.600615,0.007412,0.012426,0.001662
1066,0.086276,0.7947960000000001,-0.600712,0.009076,0.014683,0.002141
1067,0.086329,0.794719,-0.600807,0.007467,0.00945,0.001442
1068,0.086425,0.7946880000000001,-0.600834,0.009355,0.011571,0.006337
1069,0.086471,0.794672,-0.600849,0.00792,0.018103,0.000919
1070,0.0865659999999999,0.7946350000000001,-0.600883,0.008664,0.016796,0.0021739999999999
1071,0.086787,0.794583,-0.60092,0.006429,0.015643,0.003417
1072,0.086977,0.7944720000000001,-0.60104,0.0069099999999999,0.010078,0.004864
1073,0.087071,0.794361,-0.601174,0.009044,0.009411,0.002785
1074,0.087164,0.7942560000000001,-0.601298,0.0080959999999999,0.008936,0.003718
1075,0.087223,0.794185,-0.601384,0.007702,0.009984,0.002705
1076,0.08723,0.794161,-0.601414,0.0079849999999999,0.0119,0.001454
1077,0.087265,0.794148,-0.601427,0.0074459999999999,0.01083,0.0007639999999999
1078,0.087307,0.794126,-0.601449,0.009281,0.012652,-0.000373
1079,0.087294,0.7941020000000001,-0.601483,0.0083629999999999,0.015438,0.003201
1080,0.087262,0.794063,-0.601539,0.006412,0.011235,0.0025859999999999
1081,0.087213,0.794027,-0.601593,0.0062619999999999,0.009333,0.005142
1082,0.08715,0.7940189999999999,-0.6016130000000001,0.007668,0.011217,0.004979
1083,0.087052,0.794024,-0.601621,0.006439,0.0120069999999999,0.003751
1084,0.086976,0.794043,-0.6016060000000001,0.006072,0.015084,0.002134
1085,0.086962,0.794075,-0.6015659999999999,0.005995,0.016304,0.002216
1086,0.086946,0.794122,-0.601507,0.005294,0.015449,0.002142
1087,0.086934,0.794181,-0.601431,0.010783,0.012032,0.002432
1088,0.086912,0.79422,-0.601382,0.009859,0.01329,0.001315
1089,0.08685,0.794275,-0.6013189999999999,0.009051,0.010367,0.00084
1090,0.0868299999999999,0.7943520000000001,-0.60122,0.00869,0.0114799999999999,0.003228
1091,0.086859,0.79446,-0.601072,0.009531,0.015308,0.001478
1092,0.086918,0.794558,-0.600934,0.008678,0.014707,0.001508
1093,0.086997,0.794667,-0.60078,0.007683,0.013271,0.002773
1094,0.087044,0.794791,-0.6006090000000001,0.008506,0.012689,0.004234
1095,0.087056,0.794944,-0.600404,0.00967,0.013818,0.00255
1096,0.087105,0.7951229999999999,-0.600159,0.00895,0.012646,0.002671
1097,0.08719,0.795343,-0.599857,0.007338,0.011649,-0.000897
1098,0.087324,0.7955909999999999,-0.599508,0.005664,0.012713,0.002538
1099,0.08749,0.795846,-0.5991449999999999,0.007648,0.013297,7e-05
1100,0.087666,0.796104,-0.598776,0.0076409999999999,0.011681,0.0012259999999999
1101,0.087858,0.796424,-0.598322,0.010927,0.011865,0.001673
1102,0.088102,0.796779,-0.5978140000000001,0.012117,0.013784,0.001653
1103,0.0883029999999999,0.797145,-0.597296,0.010208,0.00977,0.000983
1104,0.088434,0.797523,-0.596771,0.0072689999999999,0.004799,-0.001831
1105,0.088482,0.797946,-0.5961989999999999,0.012104,0.008634,-0.003746
1106,0.088543,0.7984020000000001,-0.595579,0.0098,0.015365,-0.001803
1107,0.088667,0.7988109999999999,-0.595011,0.0050219999999999,0.016237,0.0041909999999999
1108,0.088852,0.799142,-0.594539,0.002732,0.018561,0.008388
1109,0.089059,0.799367,-0.594206,0.004279,0.020625,0.0132889999999999
1110,0.089291,0.799508,-0.5939810000000001,0.007999,0.0231539999999999,0.015597
1111,0.089558,0.799547,-0.593889,0.006893,0.024626,0.015169
1112,0.089923,0.799435,-0.5939840000000001,0.004925,0.024356,0.015356
1113,0.0903549999999999,0.7991189999999999,-0.594344,0.003624,0.020644,0.010466
1114,0.0908799999999999,0.7987529999999999,-0.594755,0.004488,0.016524,0.009153
1115,0.091551,0.798511,-0.594978,0.009462,0.011975,0.002082
1116,0.092208,0.79833,-0.595119,0.013581,0.008631,-0.001256
1117,0.092601,0.798251,-0.595164,0.0118,-0.000339,-0.005697
1118,0.092589,0.798239,-0.595183,0.0139169999999999,-0.011358,-0.014284
1119,0.092082,0.798247,-0.59525,0.007756,-0.00923,-0.019908
1120,0.091237,0.7983319999999999,-0.595266,0.0017649999999999,0.001183,-0.028193
1121,0.090279,0.798513,-0.59517,-0.001855,0.018672,-0.024123
1122,0.089462,0.798714,-0.595023,-0.005707,0.0297009999999999,-0.0039
1123,0.088921,0.79877,-0.595029,-0.001351,0.030561,0.0274629999999999
1124,0.0886049999999999,0.798578,-0.595334,-0.0030489999999999,0.037894,0.03436
1125,0.0884,0.798319,-0.595712,-0.002585,0.061377,0.064874
1126,0.088983,0.797871,-0.596225,0.0073459999999999,0.0519059999999999,0.095325
1127,0.090757,0.797271,-0.596759,0.02344,0.0302589999999999,0.0514409999999999
1128,0.092727,0.79683,-0.597046,0.043718,-0.003296,0.00734
1129,0.093566,0.796508,-0.597344,0.026231,-0.035995,-0.016853
1130,0.092167,0.7963060000000001,-0.597831,0.034267,-0.070079,-0.067239
1131,0.088587,0.796353,-0.59831,0.0286009999999999,-0.051663,-0.108706
1132,0.0844299999999999,0.796614,-0.598562,0.022076,0.0106819999999999,-0.121515
1133,0.081414,0.796697,-0.59887,0.017966,0.033122,-0.072013
1134,0.080648,0.796929,-0.598665,-0.018026,0.040641,0.029176
1135,0.08205,0.7976479999999999,-0.5975159999999999,-0.04668,0.027044,0.091489
1136,0.0845679999999999,0.79867,-0.595796,-0.037281,0.02625,0.10396
1137,0.087002,0.799573,-0.594233,-0.0024219999999999,0.034976,0.081096
1138,0.088075,0.799816,-0.5937479999999999,0.017317,0.030918,0.039152
1139,0.087335,0.799273,-0.594587,0.011802,0.038984,0.010161
1140,0.085721,0.7982020000000001,-0.596259,0.0154139999999999,0.042435,-0.020898
1141,0.084739,0.796922,-0.598108,0.032052,0.042998,-0.014471
1142,0.085344,0.795479,-0.599941,0.006117,0.000725,0.003521
1143,0.087001,0.7941590000000001,-0.601449,-0.003306,-0.000748,0.008706
1144,0.088662,0.793094,-0.602611,-0.010262,-0.007404,0.011928
1145,0.089624,0.792188,-0.6036600000000001,-0.019861,-0.028943,-0.00303
1146,0.089996,0.791616,-0.604354,-0.014801,-0.027044,-0.027833
1147,0.090318,0.791259,-0.6047739999999999,0.014006,0.020219,-0.037163
1148,0.09091,0.790796,-0.60529,0.029101,0.021612,-0.017375
1149,0.091535,0.790157,-0.6060300000000001,0.037066,-0.003826,0.003568
1150,0.091738,0.789853,-0.606396,0.0440959999999999,-0.017422,-0.007175
1151,0.091405,0.790022,-0.606225,0.047068,0.006548,0.005929
1152,0.091054,0.790406,-0.6057779999999999,0.036875,0.016677,0.006931
1153,0.09086,0.790866,-0.6052069999999999,0.023474,0.017087,0.017209
1154,0.090587,0.791388,-0.604564,0.011448,0.02279,0.0157889999999999
1155,0.089982,0.791804,-0.60411,0.006987,0.032476,0.023437
1156,0.089741,0.791916,-0.604,-0.00687,0.023575,0.017284
1157,0.089707,0.7919350000000001,-0.603979,-0.0123299999999999,0.023739,0.00376
1158,0.089939,0.7921189999999999,-0.603704,-0.01218,0.012386,-0.008418
1159,0.090205,0.79215,-0.6036229999999999,-0.00912,0.0171,-0.000305
1160,0.090284,0.791821,-0.6040439999999999,-0.021391,0.007603,-0.007666
1161,0.090227,0.7913979999999999,-0.6046060000000001,-0.013887,0.014327,-0.015908
1162,0.090416,0.79098,-0.605124,-0.005333,0.014302,-0.019021
1163,0.090829,0.790721,-0.605401,0.013129,-0.003215,-0.000617
1164,0.091042,0.790519,-0.605632,0.01583,-0.0033179999999999,-0.001439
1165,0.090917,0.790375,-0.605839,0.01884,0.005233,-0.003093
1166,0.0907029999999999,0.7901590000000001,-0.606154,0.0166879999999999,0.019137,-0.0003529999999999
1167,0.090644,0.789867,-0.606542,0.0190669999999999,0.019825,-0.000254
1168,0.0907429999999999,0.789456,-0.607063,0.016877,0.014209,0.003135
1169,0.090665,0.789022,-0.607637,0.022921,0.0078219999999999,0.003496
1170,0.090314,0.788859,-0.607902,0.0222349999999999,0.014348,0.008597
1171,0.0899669999999999,0.788866,-0.6079439999999999,0.014769,0.016706,0.022022
1172,0.0898289999999999,0.7887149999999999,-0.608161,0.001754,0.037228,0.022758
1173,0.089905,0.788189,-0.608831,0.005249,0.034748,0.014593
1174,0.0902039999999999,0.787381,-0.609831,0.004004,0.01073,0.007338
1175,0.090483,0.7864359999999999,-0.611008,-0.002989,0.009264,0.005158
1176,0.090656,0.785335,-0.612398,-0.000675,0.010518,0.000444
1177,0.0909929999999999,0.7839,-0.6141840000000001,0.008525,0.068212,0.008944
1178,0.0916889999999999,0.781079,-0.617663,0.011003,0.023013,0.011844
1179,0.092284,0.778679,-0.620598,-0.003539,0.0043409999999999,-0.010627
1180,0.092199,0.777084,-0.622607,0.011835,0.010986,-0.000318
1181,0.0923929999999999,0.7755310000000001,-0.624512,0.016372,0.018933,0.007859
1182,0.092337,0.7738550000000001,-0.626596,0.0234009999999999,0.014918,0.009866
1183,0.092254,0.7723800000000001,-0.628425,0.024704,0.00031,0.000846
1184,0.0923809999999999,0.771075,-0.630007,0.018825,0.0064519999999999,0.0031149999999999
1185,0.092691,0.769699,-0.631641,0.001059,0.017303,0.007572
1186,0.093144,0.768301,-0.633274,-0.002751,0.00477,0.006336
1187,0.093563,0.7671600000000001,-0.634595,-0.006542,-0.009241,-0.009815
1188,0.094123,0.766515,-0.6352909999999999,-0.0048439999999999,-0.00443,-0.016489
1189,0.094585,0.766154,-0.635658,0.002538,-0.00352,-0.013527
1190,0.095176,0.765887,-0.635891,0.0007099999999999,-0.010348,-0.005573
1191,0.095719,0.765768,-0.635953,-0.0014349999999999,0.007975,0.000654
1192,0.096428,0.765796,-0.635812,-0.000374,0.014233,0.001184
1193,0.097099,0.765757,-0.635757,0.0073019999999999,0.023275,0.0112909999999999
1194,0.097778,0.765444,-0.63603,0.012863,0.01486,0.011259
1195,0.098282,0.764958,-0.636537,0.018799,0.01823,0.010149
1196,0.098751,0.764401,-0.637133,0.017231,0.0137819999999999,0.0122099999999999
1197,0.099121,0.763832,-0.637757,0.01625,0.0148849999999999,-0.000594
1198,0.099519,0.763721,-0.637829,0.030166,0.002529,-0.010914
1199,0.099977,0.764007,-0.637414,0.021651,0.014771,0.007913
1200,0.100609,0.76441,-0.636832,0.010444,0.003489,0.010917
1201,0.101369,0.765159,-0.635811,0.004817,-0.013099,-0.003211
1202,0.1022629999999999,0.766241,-0.634364,0.008516,0.004878,-0.016134
1203,0.103096,0.767461,-0.6327510000000001,0.008919,0.007502,-0.015503
1204,0.1035599999999999,0.768592,-0.631301,0.008226,0.009621,-0.013246
1205,0.1036619999999999,0.769606,-0.6300479999999999,0.003882,0.012773,-0.004825
1206,0.103682,0.7705770000000001,-0.6288560000000001,0.011842,0.000266,-0.002812
1207,0.10371,0.771618,-0.627575,0.0129439999999999,0.001255,-0.003681
1208,0.103532,0.772782,-0.62617,0.004684,0.011886,-0.001577
1209,0.103238,0.774033,-0.624671,-0.0030789999999999,0.016051,0.0035009999999999
1210,0.103089,0.7751640000000001,-0.623292,-0.005936,0.0132419999999999,0.006776
1211,0.102931,0.776239,-0.62198,-0.002437,0.0158759999999999,-0.002166
1212,0.1026609999999999,0.777087,-0.620965,0.0017239999999999,0.032606,0.005074
1213,0.102467,0.777595,-0.62036,0.0146439999999999,0.0280839999999999,0.017317
1214,0.102378,0.777942,-0.619939,0.027596,0.019009,0.019536
1215,0.1025099999999999,0.7783770000000001,-0.619372,0.031462,0.012822,0.026461
1216,0.1025869999999999,0.779027,-0.618541,0.024045,0.014232,0.013255
1217,0.102539,0.779745,-0.617644,0.0182349999999999,0.0132389999999999,0.000395
1218,0.1023,0.780367,-0.616897,0.017833,0.0130139999999999,-0.004441
1219,0.1018049999999999,0.7809159999999999,-0.616284,0.015047,0.006606,-0.020205
1220,0.101178,0.7815,-0.615647,0.019077,0.0049689999999999,-0.017974
1221,0.100708,0.782258,-0.614761,0.0194699999999999,-0.00528,-0.008485
1222,0.1002059999999999,0.783373,-0.613422,0.019804,-0.0038929999999999,-0.004666
1223,0.0995549999999999,0.784841,-0.611648,0.013757,0.010553,-0.005403
1224,0.098576,0.786443,-0.609746,0.002376,0.005626,2e-05
1225,0.097467,0.7880510000000001,-0.607845,-0.001139,0.017033,0.003932
1226,0.096362,0.789606,-0.606,-0.001559,0.015906,0.012922
1227,0.095147,0.7910020000000001,-0.60437,-0.006356,0.028197,0.013061
1228,0.093697,0.792257,-0.60295,0.004173,0.0200289999999999,0.01274
1229,0.092182,0.79338,-0.6017060000000001,0.005108,0.022401,0.011542
1230,0.090705,0.794473,-0.600486,0.005776,0.022986,0.011894
1231,0.089212,0.795586,-0.599236,0.0060479999999999,0.018059,0.014458
1232,0.087707,0.796651,-0.5980409999999999,0.002381,0.023448,0.0049619999999999
1233,0.08603,0.79762,-0.596992,-0.000855,0.025729,0.006767
1234,0.08398,0.799018,-0.5954119999999999,-0.073375,0.017602,0.053588
1235,0.0789059999999999,0.802255,-0.591742,0.0029579999999999,-0.048441,0.028357
1236,0.076225,0.804912,-0.588476,0.116631,0.082386,-0.0944919999999999
1237,0.0788669999999999,0.803998,-0.589376,0.044881,0.048708,-0.014765
1238,0.079356,0.803818,-0.5895560000000001,-0.01034,-0.000642,0.014391
1239,0.077224,0.804222,-0.5892890000000001,-0.020797,-0.028129,0.028818
1240,0.075687,0.805647,-0.587538,-0.006503,-0.031035,-0.004167
1241,0.074876,0.8074279999999999,-0.5851930000000001,0.020995,0.014883,-0.015653
1242,0.0742559999999999,0.8090069999999999,-0.583088,0.01365,0.005309,0.013386
1243,0.073616,0.810647,-0.580887,0.0022199999999999,0.0086579999999999,0.009857
1244,0.072913,0.8116680000000001,-0.579548,0.002588,0.053185,0.012851
1245,0.072406,0.812288,-0.578742,0.016781,0.040846,0.015006
1246,0.0723289999999999,0.812862,-0.577946,0.024595,0.025563,0.014652
1247,0.072321,0.813508,-0.577037,0.022054,0.01242,0.023555
1248,0.072167,0.814275,-0.575974,0.021628,0.01678,0.014374
1249,0.0720659999999999,0.814856,-0.575164,0.016481,0.02189,0.00743
1250,0.0720919999999999,0.8151520000000001,-0.574741,0.004232,0.0130949999999999,0.000919
1251,0.072028,0.815248,-0.574613,-0.000892,0.015822,-0.000872
1252,0.071814,0.815229,-0.574667,-0.003913,0.023135,-0.000772
1253,0.071595,0.81514,-0.57482,-0.011262,0.007629,0.015341
1254,0.071424,0.815125,-0.574863,-0.011091,0.007645,0.015385
1255,0.071312,0.8153560000000001,-0.574549,-0.013084,0.02136,0.015361
1256,0.071119,0.815646,-0.57416,0.012835,0.022427,0.006289
1257,0.070924,0.81584,-0.57391,0.017516,0.012789,0.0085709999999999
1258,0.070711,0.816037,-0.573656,0.014234,0.008411,0.006044
1259,0.0706059999999999,0.816211,-0.5734199999999999,0.025204,0.014263,-0.006658
1260,0.070771,0.816145,-0.573494,0.030547,0.014711,-0.008003
1261,0.071172,0.815865,-0.573843,0.029704,0.011772,-0.0034119999999999
1262,0.071661,0.815487,-0.5743199999999999,0.018503,0.008274,0.003763
1263,0.072062,0.815146,-0.574754,0.012563,0.0171139999999999,0.0056619999999999
1264,0.072333,0.8147300000000001,-0.575309,0.0132539999999999,0.022276,0.0061719999999999
1265,0.072587,0.814186,-0.5760460000000001,0.007705,0.016991,0.0140349999999999
1266,0.072793,0.813589,-0.576864,0.001777,0.021097,0.0150199999999999
1267,0.07292,0.813014,-0.577658,0.003771,0.018376,0.015753
1268,0.0729929999999999,0.812547,-0.5783050000000001,0.0039109999999999,0.017668,0.0144009999999999
1269,0.072979,0.8121550000000001,-0.578857,0.005711,0.020715,0.00946
1270,0.072889,0.8117270000000001,-0.579469,0.011553,0.015147,0.005464
1271,0.072871,0.811258,-0.580128,0.014928,0.00379,0.0033909999999999
1272,0.072906,0.810872,-0.580663,0.010606,-0.0036049999999999,0.006017
1273,0.07293,0.810641,-0.580982,0.013877,0.018369,-0.007809
1274,0.073151,0.81034,-0.581374,0.017486,0.022011,-0.011186
1275,0.073716,0.809979,-0.581806,0.0171039999999999,0.01395,-0.011501
1276,0.074387,0.809815,-0.5819489999999999,0.013916,-0.005677,-0.016806
1277,0.075212,0.810131,-0.581403,0.017882,0.010151,-0.018817
1278,0.076326,0.810869,-0.580227,0.0256339999999999,0.015898,0.008313
1279,0.076943,0.811128,-0.579784,0.01168,0.016371,0.035518
1280,0.076619,0.811125,-0.579831,0.0020859999999999,0.012728,0.027067
1281,0.076166,0.811345,-0.579584,-0.005945,0.01556,0.012918
1282,0.076001,0.8117439999999999,-0.579046,-0.012586,0.016763,0.003836
1283,0.075933,0.812232,-0.5783689999999999,-0.019415,0.010872,-0.0061649999999999
1284,0.0759929999999999,0.8127850000000001,-0.577585,-0.023106,0.007039,-0.014365
1285,0.076097,0.813449,-0.576635,-0.011247,0.007062,-0.019007
1286,0.076293,0.814128,-0.57565,-0.000823,0.005956,-0.007159
1287,0.076534,0.814657,-0.574869,0.006917,0.014628,0.008692
1288,0.076821,0.815,-0.574346,0.016685,0.015429,0.01653
1289,0.077125,0.815183,-0.574045,0.026971,0.022677,0.01687
1290,0.077403,0.815245,-0.573919,0.030706,0.020998,0.017187
1291,0.077667,0.815206,-0.5739380000000001,0.022903,0.016398,0.022638
1292,0.077804,0.81519,-0.573943,0.018555,0.012263,0.024093
1293,0.077802,0.815282,-0.573812,0.017337,0.019709,0.007955
1294,0.077671,0.815314,-0.573785,0.0268519999999999,0.03251,0.0043729999999999
1295,0.077475,0.814988,-0.574275,0.0317319999999999,0.014968,0.006389
1296,0.077282,0.8144819999999999,-0.575018,0.028782,0.0098129999999999,0.0091
1297,0.077178,0.814157,-0.575493,0.02945,0.012168,0.010261
1298,0.077076,0.813905,-0.575862,0.033062,0.00595,0.00967
1299,0.076933,0.813708,-0.576159,0.006106,-0.000491,0.009783
1300,0.076726,0.813817,-0.576033,-0.005956,-0.0015,0.009184
1301,0.076537,0.814189,-0.575533,0.005051,0.012624,-0.0168889999999999
1302,0.076295,0.814605,-0.574976,0.005294,0.012208,-0.017446
1303,0.076116,0.815186,-0.574175,-0.0053,0.020873,-0.002851
1304,0.075945,0.815751,-0.573395,-0.009676,0.022353,6.1e-05
1305,0.075969,0.816198,-0.572756,-0.00497,0.020106,0.002734
1306,0.0759529999999999,0.816542,-0.572267,0.004736,0.018647,0.005769
1307,0.075442,0.8167300000000001,-0.572066,0.001905,0.0153009999999999,0.01686
1308,0.07474,0.8168270000000001,-0.572021,-0.0020469999999999,0.013725,0.012862
1309,0.074348,0.8170729999999999,-0.57172,-0.007576,-0.002025,0.003467
1310,0.074298,0.817647,-0.570905,-0.0026579999999999,-0.001119,-0.009021
1311,0.074271,0.8183239999999999,-0.569937,-0.0001139999999999,0.015279,-0.023294
1312,0.0743539999999999,0.8189069999999999,-0.56909,0.003527,0.008791,-0.019579
1313,0.074484,0.8193950000000001,-0.568369,0.004297,0.010286,-0.003194
1314,0.0744659999999999,0.8197989999999999,-0.567788,0.013013,0.008234,0.012185
1315,0.074367,0.820261,-0.567134,0.0221449999999999,0.007956,0.015819
1316,0.074324,0.8207399999999999,-0.566446,0.030687,0.024399,0.019007
1317,0.074424,0.8210959999999999,-0.565917,0.028817,0.031367,0.0260459999999999
1318,0.074546,0.821292,-0.565617,0.023828,0.025189,0.0303079999999999
1319,0.074472,0.821368,-0.565515,0.021674,0.029294,0.021021
1320,0.074192,0.8212649999999999,-0.565702,0.020901,0.031426,0.016462
1321,0.073902,0.821053,-0.566048,0.013607,0.022208,0.003822
1322,0.073706,0.820793,-0.56645,0.012094,0.019554,0.0062689999999999
1323,0.073646,0.8204239999999999,-0.566992,0.009911,0.010448,0.010688
1324,0.0735929999999999,0.8199620000000001,-0.5676680000000001,0.0038759999999999,0.007004,0.0033369999999999
1325,0.073518,0.819499,-0.568346,0.00215,0.011052,-0.001372
1326,0.073529,0.818946,-0.56914,-0.003919,0.02401,-0.0029879999999999
1327,0.073582,0.818145,-0.570285,-0.007755,0.014131,0.002597
1328,0.073478,0.817221,-0.5716220000000001,-0.009101,0.008814,0.001401
1329,0.073332,0.816409,-0.5728,-0.002714,0.007764,-0.002945
1330,0.073392,0.815724,-0.573766,0.00577,0.0130419999999999,0.007955
1331,0.073661,0.8151510000000001,-0.574546,0.003396,0.0154,0.014854
1332,0.074057,0.814602,-0.5752729999999999,0.0038689999999999,0.018161,0.019197
1333,0.074534,0.814017,-0.5760390000000001,0.004598,0.010797,0.01241
1334,0.074955,0.8134020000000001,-0.576853,0.008877,0.008162,-0.000341
1335,0.075198,0.812815,-0.5776479999999999,0.011563,0.004141,-0.011585
1336,0.075326,0.812404,-0.578209,0.013449,0.012593,-0.012138
1337,0.075413,0.811999,-0.578766,0.0169789999999999,0.011457,-0.001327
1338,0.07551,0.8115859999999999,-0.579333,0.016318,-0.0036479999999999,-0.001508
1339,0.07555,0.811375,-0.579622,0.025432,0.005748,-0.002989
1340,0.075657,0.811345,-0.579651,0.022655,0.018108,0.004258
1341,0.075787,0.8113279999999999,-0.579658,0.017658,0.019712,0.009101
1342,0.075875,0.8112159999999999,-0.579804,0.004966,0.018771,0.019043
1343,0.075909,0.811021,-0.580071,0.008838,0.024046,0.015358
1344,0.075932,0.810719,-0.580491,0.008785,0.025082,0.014313
1345,0.076003,0.810348,-0.5809979999999999,0.009294,0.027054,0.015096
1346,0.076024,0.809987,-0.5815,0.008479,0.01231,0.0073569999999999
1347,0.0760059999999999,0.809642,-0.581982,0.009794,0.012456,0.005718
1348,0.07604,0.809349,-0.582384,0.011362,0.013755,0.001985
1349,0.07601,0.809033,-0.582828,0.010553,0.019916,0.0009339999999999
1350,0.076062,0.808606,-0.583413,0.009586,0.0150789999999999,-0.001761
1351,0.07642,0.808237,-0.583878,0.010036,0.011831,0.003693
1352,0.076816,0.807848,-0.584364,0.009289,0.005995,0.002501
1353,0.076927,0.807453,-0.5848949999999999,0.005379,0.002407,-0.002081
1354,0.0768539999999999,0.807203,-0.585249,0.005574,0.0011619999999999,-0.006456
1355,0.076808,0.807197,-0.585264,0.006063,0.004845,-0.00809
1356,0.076908,0.807375,-0.585005,0.0098079999999999,0.002745,-0.00583
1357,0.077096,0.8075939999999999,-0.5846779999999999,0.012366,-0.001472,-0.002205
1358,0.077088,0.807897,-0.5842609999999999,0.001068,0.031916,-0.003157
1359,0.077049,0.808192,-0.583856,-0.0017469999999999,0.030049,0.00358
1360,0.077318,0.808316,-0.58365,0.001814,0.017016,0.0168919999999999
1361,0.077622,0.808412,-0.583476,0.006942,0.012938,0.0236159999999999
1362,0.077723,0.8086300000000001,-0.5831609999999999,0.0015,0.015711,0.0236819999999999
1363,0.077595,0.80896,-0.582721,0.006023,0.024109,0.013003
1364,0.077452,0.809241,-0.582348,0.017671,0.0260089999999999,0.007229
1365,0.077317,0.8093229999999999,-0.582252,0.025177,0.0207849999999999,0.006523
1366,0.077151,0.809225,-0.582412,0.03378,0.012187,0.012877
1367,0.076945,0.809,-0.582751,0.024068,0.015372,0.004565
1368,0.076646,0.808757,-0.5831270000000001,0.017958,0.021275,0.0009279999999999
1369,0.076431,0.808483,-0.5835359999999999,0.014252,0.0200389999999999,0.000864
1370,0.076361,0.808316,-0.583777,8.6e-05,0.009418,-0.003031
1371,0.076305,0.8082590000000001,-0.583862,-0.003185,0.0092459999999999,0.000595
1372,0.076285,0.808331,-0.583766,-0.012503,0.014194,0.010111
1373,0.076236,0.808447,-0.583611,-0.001727,0.017466,0.0135729999999999
1374,0.076158,0.808459,-0.583604,0.004988,0.018949,0.012971
1375,0.0760769999999999,0.808363,-0.5837479999999999,0.013965,0.017519,0.006676
1376,0.076008,0.808203,-0.583978,0.013027,0.019754,0.007974
1377,0.075948,0.807908,-0.584394,0.012858,0.014999,0.010221
1378,0.0757549999999999,0.807454,-0.585046,0.009617,0.014171,0.010019
1379,0.07544,0.806967,-0.585758,0.007918,0.017724,0.003909
1380,0.0751889999999999,0.806567,-0.586341,0.005896,0.0154539999999999,0.007728
1381,0.075185,0.806265,-0.586756,0.00381,0.0149169999999999,0.008876
1382,0.0753559999999999,0.806042,-0.587041,0.002723,0.019168,0.009129
1383,0.075666,0.805823,-0.587302,0.004321,0.021158,0.009436
1384,0.076036,0.805476,-0.58773,0.012374,0.0104879999999999,0.010749
1385,0.076333,0.805063,-0.5882569999999999,0.01551,0.008947,0.0061649999999999
1386,0.076499,0.804739,-0.588679,0.016732,0.009165,0.005686
1387,0.0766299999999999,0.804508,-0.5889770000000001,0.019104,0.008587,0.006381
1388,0.076719,0.804345,-0.589188,0.019457,0.016059,0.004059
1389,0.0767299999999999,0.80424,-0.589331,0.017599,0.021429,0.002523
1390,0.076785,0.8041699999999999,-0.5894189999999999,0.015668,0.021224,0.007281
1391,0.077003,0.804128,-0.589448,0.012184,0.0167949999999999,0.005769
1392,0.077069,0.8040229999999999,-0.5895819999999999,0.015094,0.006081,0.004576
1393,0.076949,0.8039970000000001,-0.589633,0.012757,0.003711,0.0042899999999999
1394,0.076865,0.804071,-0.589543,0.003854,0.013739,0.006169
1395,0.0768669999999999,0.804176,-0.5894,0.006964,0.013741,0.009779
1396,0.076912,0.804303,-0.58922,0.004631,0.014804,0.008974
1397,0.076912,0.8044600000000001,-0.589007,0.005883,0.020583,0.0083489999999999
1398,0.076871,0.804619,-0.588795,0.007281,0.018868,0.007603
1399,0.076813,0.804756,-0.588615,0.008453,0.01899,0.011817
1400,0.076671,0.804875,-0.588471,0.008503,0.014568,0.013977
1401,0.07645,0.8049569999999999,-0.588387,0.007382,0.011937,0.012245
1402,0.076086,0.804983,-0.588399,0.009699,0.012079,0.007145
1403,0.075658,0.8049430000000001,-0.588508,0.007868,0.01218,-0.001457
1404,0.075351,0.804888,-0.588623,0.007962,0.012372,-0.004837
1405,0.075121,0.8048930000000001,-0.588645,0.005369,0.011147,-0.003304
1406,0.074958,0.804952,-0.588587,0.002907,0.013026,0.004251
1407,0.074864,0.805036,-0.588483,0.0026969999999999,0.015261,0.009275
1408,0.074765,0.805088,-0.588424,0.004077,0.019207,0.012313
1409,0.074712,0.805036,-0.5885020000000001,0.00703,0.01935,0.015046
1410,0.0747429999999999,0.8049430000000001,-0.588626,0.006495,0.021702,0.0150479999999999
1411,0.074754,0.804891,-0.588695,0.0097489999999999,0.020456,0.020656
1412,0.0746049999999999,0.804916,-0.58868,0.014812,0.0194699999999999,0.014553
1413,0.0743809999999999,0.80494,-0.588676,0.01737,0.020454,0.0128849999999999
1414,0.07432,0.804924,-0.588705,0.0153099999999999,0.022362,0.005743
1415,0.074296,0.804763,-0.588929,0.0152729999999999,0.016954,0.003342
1416,0.074235,0.8045899999999999,-0.589172,0.017363,0.0139979999999999,0.00119
1417,0.0742029999999999,0.804442,-0.589379,0.019898,0.010622,0.001488
1418,0.074253,0.804297,-0.5895699999999999,0.016597,0.009973,-0.000473
1419,0.07433,0.804178,-0.589723,0.012584,0.011603,0.002381
1420,0.0744669999999999,0.804086,-0.589831,0.006603,0.0170349999999999,0.008715
1421,0.074611,0.80399,-0.5899439999999999,0.006261,0.017986,0.0098959999999999
1422,0.074695,0.803892,-0.590066,0.006833,0.016847,0.0100489999999999
1423,0.074719,0.803828,-0.59015,0.0027489999999999,0.021154,0.01143
1424,0.074749,0.803762,-0.590236,0.004811,0.015391,0.0110739999999999
1425,0.074795,0.803661,-0.5903689999999999,0.0045049999999999,0.013951,0.013022
1426,0.074819,0.803569,-0.59049,0.009028,0.0186199999999999,0.004781
1427,0.074853,0.803474,-0.590616,0.009726,0.010384,0.005578
1428,0.074882,0.803377,-0.590743,0.008369,0.013731,0.004058
1429,0.0748539999999999,0.8033060000000001,-0.5908439999999999,0.0057729999999999,0.018105,-0.000343
1430,0.074899,0.803184,-0.591004,0.012458,0.015175,0.001206
1431,0.075071,0.80309,-0.59111,0.017199,0.015819,0.007308
1432,0.075276,0.80305,-0.591138,0.016597,0.01,0.00929
1433,0.075324,0.803036,-0.591151,0.013558,0.012882,0.00767
1434,0.075406,0.80307,-0.591094,0.012241,0.018646,0.008925
1435,0.07553,0.803076,-0.591071,0.010942,0.018656,0.010657
1436,0.075629,0.80306,-0.591079,0.011056,0.013651,0.012008
1437,0.075705,0.803028,-0.591113,0.009759,0.009976,0.004566
1438,0.0757309999999999,0.803079,-0.59104,0.0067269999999999,0.01174,0.002875
1439,0.0758539999999999,0.803337,-0.590674,0.007291,0.0160599999999999,0.0036229999999999
1440,0.076119,0.80367,-0.590186,0.005958,0.019556,0.008399
1441,0.076403,0.803956,-0.5897600000000001,0.006483,0.014235,0.0096049999999999
1442,0.076677,0.8042600000000001,-0.58931,0.0091989999999999,0.015,0.002625
1443,0.076957,0.804582,-0.588834,0.008706,0.017424,0.004422
1444,0.077321,0.804888,-0.588368,0.006968,0.0189949999999999,0.007451
1445,0.077758,0.805161,-0.587936,0.006456,0.021133,0.013886
1446,0.078134,0.805298,-0.587699,0.0064909999999999,0.013443,0.016258
1447,0.078345,0.805301,-0.587667,0.003793,0.013577,0.0159349999999999
1448,0.078547,0.805375,-0.587538,0.008565,0.0251449999999999,7.5e-05
1449,0.0789919999999999,0.8054600000000001,-0.5873619999999999,0.008121,0.02506,-0.000102
1450,0.079476,0.805545,-0.58718,0.00515,0.013318,-0.000604
1451,0.079786,0.805614,-0.587044,0.011233,0.002507,0.008019
1452,0.079884,0.805704,-0.586906,0.016353,0.003622,0.010704
1453,0.079849,0.8059189999999999,-0.586617,0.020478,0.008489,0.010262
1454,0.079839,0.806086,-0.586388,0.027857,0.031591,0.015892
1455,0.079836,0.806049,-0.586439,0.024107,0.029491,0.015531
1456,0.079762,0.805868,-0.5866979999999999,0.016521,0.019449,0.01814
1457,0.079691,0.805659,-0.5869949999999999,0.008794,0.017476,0.0154919999999999
1458,0.079546,0.805393,-0.587379,-9.3e-05,0.01878,0.005577
1459,0.079373,0.805055,-0.587866,-0.007001,0.015288,0.000723
1460,0.079223,0.804689,-0.588386,0.001343,0.006529,-0.0029219999999999
1461,0.079033,0.804424,-0.588775,0.003669,0.0046429999999999,-0.0005809999999999
1462,0.078823,0.804285,-0.588993,0.003101,0.007498,0.003635
1463,0.0786159999999999,0.8042279999999999,-0.5890989999999999,-0.003589,0.0227069999999999,0.003634
1464,0.07845,0.804125,-0.5892609999999999,0.001033,0.022077,0.003476
1465,0.0783529999999999,0.803938,-0.589529,0.003342,0.018038,0.0099849999999999
1466,0.078231,0.8039149999999999,-0.589577,0.022309,0.018076,0.0075
1467,0.078282,0.804122,-0.589287,0.023494,0.020173,0.004723
1468,0.078474,0.804327,-0.5889810000000001,0.018984,0.015497,0.0055
1469,0.0785,0.80447,-0.588783,0.0167919999999999,0.02158,0.003426
1470,0.078498,0.804516,-0.58872,0.0225919999999999,0.012958,0.00382
1471,0.078599,0.804516,-0.588707,0.018889,0.014469,0.0055
1472,0.078704,0.804496,-0.58872,0.0102239999999999,0.013024,0.008825
1473,0.078637,0.804443,-0.588801,0.004402,0.013184,0.012401
1474,0.078498,0.804375,-0.588913,-0.00109,0.020225,0.012664
1475,0.07833,0.804197,-0.589179,-0.005912,0.019198,0.012228
1476,0.0781289999999999,0.8039430000000001,-0.589551,-0.004856,0.018978,0.008558
1477,0.078065,0.803793,-0.589765,-0.000749,0.015955,0.005384
1478,0.07823,0.803801,-0.5897319999999999,0.00316,0.016908,0.001673
1479,0.07844,0.803833,-0.5896600000000001,0.001593,0.014908,-0.000824
1480,0.078536,0.803841,-0.5896359999999999,0.008714,0.00518,-0.006769
1481,0.078663,0.803876,-0.589572,0.0199699999999999,0.0052829999999999,-0.0004849999999999
1482,0.078796,0.804021,-0.589357,0.0281519999999999,0.008159,0.008424
1483,0.078869,0.804231,-0.58906,0.02338,0.016768,0.0106909999999999
1484,0.0788919999999999,0.8044180000000001,-0.588801,0.016567,0.023722,0.013255
1485,0.078913,0.8044979999999999,-0.588689,0.014455,0.0225439999999999,0.008062
1486,0.078974,0.804481,-0.588705,0.015875,0.020104,0.008276
1487,0.0790039999999999,0.8044439999999999,-0.588751,0.010763,0.016296,0.014044
1488,0.078973,0.8043819999999999,-0.588839,0.006095,0.014145,0.006305
1489,0.078925,0.804322,-0.588928,-0.000663,0.015044,-0.000916
1490,0.078995,0.8043130000000001,-0.588932,0.003341,0.0138639999999999,-0.001248
1491,0.079065,0.804319,-0.588914,0.004232,0.012454,0.002656
1492,0.078937,0.804305,-0.58895,0.002468,0.008622,0.0041259999999999
1493,0.07869,0.8043140000000001,-0.58897,0.0037229999999999,0.015418,0.006206
1494,0.078543,0.804449,-0.588805,0.008493,0.018091,0.007278
1495,0.07852,0.804628,-0.5885630000000001,0.021608,0.014021,0.006395
1496,0.078458,0.8046979999999999,-0.588476,0.020449,0.020161,0.008978
1497,0.078327,0.8046479999999999,-0.588562,0.017773,0.020028,0.00824
1498,0.07816,0.804605,-0.588643,0.015193,0.009436,0.010289
1499,0.078061,0.804618,-0.588638,0.011553,0.021676,0.005813
1500,0.078071,0.804653,-0.58859,0.007241,0.0192,0.0066799999999999
1501,0.078037,0.804672,-0.588568,0.0001189999999999,0.014252,0.004584
1502,0.077998,0.804649,-0.588605,0.004262,0.00985,0.001508
1503,0.078016,0.80475,-0.588464,0.008135,0.006423,0.001703
1504,0.078035,0.8050229999999999,-0.5880890000000001,0.004561,0.01149,-0.004227
1505,0.0780039999999999,0.8052779999999999,-0.5877439999999999,-0.0024879999999999,0.018331,-0.003397
1506,0.077957,0.8054359999999999,-0.587533,-0.000595,0.016311,-0.003745
1507,0.078032,0.805588,-0.587314,0.009065,0.003799,0.005893
1508,0.078163,0.805897,-0.586873,0.011635,0.0120959999999999,0.005605
1509,0.078377,0.80628,-0.586318,0.0145949999999999,0.023142,0.009643
1510,0.078669,0.806605,-0.585832,0.014578,0.020437,0.014513
1511,0.078951,0.806879,-0.585417,0.012022,0.020453,0.01364
1512,0.079029,0.8070689999999999,-0.585145,0.013012,0.016173,0.009415
1513,0.079065,0.8072779999999999,-0.584851,0.019614,0.018726,0.004621
1514,0.079113,0.8074060000000001,-0.5846680000000001,0.012485,0.018583,0.005795
1515,0.079082,0.807481,-0.584569,0.014012,0.016128,0.002614
1516,0.079058,0.807543,-0.584486,0.007871,0.01312,0.008024
1517,0.0791,0.807537,-0.584488,0.005281,0.012272,0.007675
1518,0.079045,0.807521,-0.584518,0.00503,0.015233,0.004501
1519,0.078955,0.807509,-0.584546,0.009165,0.015153,0.003278
1520,0.07895,0.8074939999999999,-0.584568,0.008041,0.0102849999999999,0.00835
1521,0.078968,0.807534,-0.584511,0.005581,0.017845,0.00811
1522,0.079007,0.807631,-0.584371,0.006091,0.016862,0.005071
1523,0.079121,0.807711,-0.584245,0.007458,0.015012,0.003633
1524,0.0792679999999999,0.807775,-0.584137,0.007081,0.0100959999999999,0.000274
1525,0.079403,0.807884,-0.583967,0.0089909999999999,0.011848,0.001234
1526,0.079541,0.807995,-0.583795,0.012821,0.014622,-0.000571
1527,0.079676,0.8080350000000001,-0.5837220000000001,0.017919,0.011713,0.004483
1528,0.079737,0.8080430000000001,-0.583702,0.016836,0.012483,0.006004
1529,0.079764,0.808084,-0.583641,0.012887,0.014593,0.007958
1530,0.079756,0.808134,-0.583573,0.00908,0.017336,0.010697
1531,0.079731,0.808168,-0.58353,0.006634,0.020171,0.008945
1532,0.079647,0.808172,-0.5835359999999999,0.0074189999999999,0.017237,0.0075159999999999
1533,0.079528,0.808171,-0.583553,0.007295,0.013881,0.007519
1534,0.079407,0.808178,-0.5835600000000001,0.004471,0.011371,0.004123
1535,0.079305,0.808203,-0.58354,0.0034289999999999,0.012018,0.002791
1536,0.079233,0.808249,-0.583486,0.003546,0.0134669999999999,0.004125
1537,0.079191,0.808282,-0.583445,0.005511,0.0154479999999999,0.004634
1538,0.0791299999999999,0.8082630000000001,-0.58348,0.009066,0.015086,0.004409
1539,0.0791019999999999,0.808145,-0.583647,0.009307,0.012076,0.006011
1540,0.079087,0.808025,-0.583815,0.011962,0.0108989999999999,0.0048509999999999
1541,0.079128,0.80798,-0.5838720000000001,0.015843,0.011569,0.0046479999999999
1542,0.0792539999999999,0.8079970000000001,-0.583831,0.014588,0.010759,0.005477
1543,0.079361,0.808079,-0.583703,0.011994,0.015667,0.00271
1544,0.079445,0.8081510000000001,-0.583593,0.009285,0.0197,0.002691
1545,0.079467,0.808131,-0.583617,0.013077,0.006979,0.00714
1546,0.0794059999999999,0.8082060000000001,-0.583522,0.0135199999999999,0.008536,0.006434
1547,0.0794179999999999,0.808431,-0.5832069999999999,0.010487,0.017847,0.006333
1548,0.0794309999999999,0.808601,-0.58297,0.008719,0.01339,0.006615
1549,0.0794179999999999,0.80867,-0.5828760000000001,0.00327,0.016968,0.000295
1550,0.079341,0.808649,-0.582916,0.002111,0.015386,0.002807
1551,0.079315,0.808631,-0.5829449999999999,0.0056159999999999,0.0150389999999999,0.007048
1552,0.079299,0.808575,-0.583024,0.006562,0.015628,0.006318
1553,0.0792929999999999,0.8084939999999999,-0.583138,0.0074379999999999,0.014733,0.003151
1554,0.079329,0.8083859999999999,-0.583282,0.009691,0.011987,0.004043
1555,0.079349,0.8083,-0.583398,0.010953,0.010731,0.009866
1556,0.079362,0.808233,-0.58349,0.00981,0.017176,0.007638
1557,0.07936,0.808172,-0.5835739999999999,0.012163,0.017862,0.002123
1558,0.079399,0.8080970000000001,-0.583673,0.009774,0.010567,0.0072569999999999
1559,0.079363,0.808055,-0.5837359999999999,0.010893,0.013951,0.0060079999999999
1560,0.079326,0.808005,-0.583809,0.012379,0.0146419999999999,0.0024649999999999
1561,0.079316,0.807945,-0.5838939999999999,0.012405,0.0148389999999999,0.002168
1562,0.07931,0.807859,-0.584013,0.009145,0.0099049999999999,0.002959
1563,0.07929,0.807769,-0.584141,0.0109959999999999,0.012284,0.005345
1564,0.079291,0.807699,-0.584238,0.010369,0.0136199999999999,0.0008789999999999
1565,0.079288,0.8076260000000001,-0.584339,0.009641,0.012305,0.00565
1566,0.07925,0.807569,-0.5844229999999999,0.0089769999999999,0.012164,0.005337
1567,0.079191,0.8075829999999999,-0.584412,0.011141,0.013096,0.004425
1568,0.079159,0.807607,-0.584383,0.009236,0.0138039999999999,0.005693
1569,0.079133,0.807591,-0.584408,0.010039,0.012493,0.005307
1570,0.07907,0.807603,-0.5844010000000001,0.008409,0.013519,0.002934
1571,0.079028,0.807655,-0.584334,0.008862,0.015679,0.00154
1572,0.078907,0.807673,-0.584326,-0.000294,0.016149,0.004431
1573,0.078753,0.807621,-0.584418,0.0040869999999999,0.0146449999999999,0.006568
1574,0.0787279999999999,0.8075939999999999,-0.584458,0.013557,0.015175,0.009141
1575,0.078653,0.807496,-0.584604,0.0156919999999999,0.015334,0.007364
1576,0.078349,0.8072560000000001,-0.584976,0.010305,0.017756,0.0017399999999999
1577,0.077907,0.806898,-0.585529,0.009068,0.01372,0.0067329999999999
1578,0.077489,0.806531,-0.58609,0.0143229999999999,0.010043,0.006928
1579,0.077094,0.806235,-0.586549,0.016183,0.012064,0.004259
1580,0.07666,0.805975,-0.586963,0.01149,0.012582,0.001727
1581,0.076162,0.805742,-0.5873470000000001,0.007609,0.012846,-0.000757
1582,0.075801,0.805584,-0.587611,0.00797,0.01015,-0.001333
1583,0.075642,0.805555,-0.587671,0.0120349999999999,0.011004,-0.001883
1584,0.0756049999999999,0.805668,-0.587522,0.012072,0.010891,-0.002032
1585,0.075766,0.805776,-0.587353,0.007593,0.014766,0.001034
1586,0.076089,0.805858,-0.587199,0.009025,0.0137069999999999,0.0039619999999999
1587,0.076395,0.80591,-0.587088,0.008261,0.0132129999999999,0.001303
1588,0.076611,0.80597,-0.5869770000000001,0.010731,0.012283,0.000963
1589,0.076876,0.8060390000000001,-0.586847,0.010572,0.012289,0.008066
1590,0.077124,0.8061,-0.586731,0.010355,0.013983,0.008179
1591,0.077345,0.806204,-0.586559,0.0105,0.0144129999999999,0.0082659999999999
1592,0.0775039999999999,0.8063229999999999,-0.586375,0.011607,0.016675,0.00413
1593,0.0775899999999999,0.806445,-0.586195,0.011628,0.0151949999999999,0.004378
1594,0.077676,0.806567,-0.586017,0.010229,0.015745,0.004275
1595,0.077745,0.806667,-0.585869,0.008513,0.014225,0.0056689999999999
1596,0.077774,0.806772,-0.585721,0.007568,0.012305,0.003385
1597,0.077771,0.8068569999999999,-0.585604,0.007465,0.013928,0.00133
1598,0.077773,0.806928,-0.585507,0.008089,0.0131259999999999,0.0009429999999999
1599,0.077865,0.807027,-0.585358,0.008973,0.012447,0.001603
1600,0.0780039999999999,0.807113,-0.58522,0.009139,0.013489,0.003235
1601,0.078137,0.807195,-0.5850890000000001,0.0083959999999999,0.013224,0.00321
1602,0.078247,0.807289,-0.5849449999999999,0.00827,0.013786,0.006912
1603,0.078325,0.807391,-0.5847939999999999,0.009779,0.01608,0.005036
1604,0.07841,0.807455,-0.5846939999999999,0.008839,0.016062,0.0046
1605,0.078521,0.807491,-0.584629,0.006501,0.0158729999999999,0.006291
1606,0.078599,0.807557,-0.5845279999999999,0.009643,0.0155319999999999,0.004587
1607,0.07869,0.807612,-0.58444,0.0122069999999999,0.015829,0.004652
1608,0.07877,0.807642,-0.584388,0.012447,0.014349,0.00582
1609,0.078835,0.8076800000000001,-0.584326,0.008292,0.015715,0.004645
1610,0.0788789999999999,0.807717,-0.584268,0.009072,0.013907,0.003672
1611,0.078927,0.807757,-0.584208,0.009925,0.014631,0.003626
1612,0.078939,0.8077840000000001,-0.5841689999999999,0.011332,0.012834,0.002778
1613,0.078909,0.807792,-0.5841609999999999,0.012567,0.013283,0.002343
1614,0.07891,0.8078390000000001,-0.584096,0.0115599999999999,0.012351,0.001439
1615,0.078941,0.807904,-0.584002,0.013115,0.011646,0.002704
1616,0.078999,0.8079729999999999,-0.583899,0.010708,0.011821,0.004644
1617,0.079016,0.808046,-0.583795,0.010111,0.015212,0.004267
1618,0.0791,0.808132,-0.583665,0.009264,0.016423,0.00403
1619,0.079272,0.808229,-0.583508,0.005918,0.0148919999999999,0.009396
1620,0.079475,0.808325,-0.5833470000000001,0.007164,0.014582,0.009708
1621,0.0796809999999999,0.808379,-0.583244,0.009506,0.015657,0.004676
1622,0.079923,0.8084060000000001,-0.5831729999999999,0.010592,0.014622,0.0048649999999999
1623,0.08017,0.808419,-0.583122,0.008193,0.010032,0.001549
1624,0.0802669999999999,0.808466,-0.5830420000000001,0.012354,0.005529,-0.000317
1625,0.0802399999999999,0.808591,-0.582874,0.011939,0.005832,-0.002362
1626,0.08018,0.8087810000000001,-0.5826180000000001,0.0104879999999999,0.009182,-0.003152
1627,0.080144,0.809004,-0.582313,0.008403,0.012651,-0.000603
1628,0.080171,0.809244,-0.581976,0.009017,0.013708,0.002065
1629,0.080217,0.8094720000000001,-0.5816520000000001,0.0071849999999999,0.01696,0.003817
1630,0.0802409999999999,0.809649,-0.5814020000000001,0.008901,0.019803,0.007824
1631,0.080275,0.809764,-0.581237,0.009035,0.020893,0.0092459999999999
1632,0.080341,0.8097810000000001,-0.581205,0.010037,0.022754,0.015836
1633,0.080345,0.809682,-0.581341,0.009193,0.019465,0.014889
1634,0.0802809999999999,0.809505,-0.581598,0.0097159999999999,0.017811,0.010888
1635,0.080286,0.8093100000000001,-0.581868,0.008307,0.020921,0.008641
1636,0.08031,0.809049,-0.582228,0.008023,0.015719,0.006529
1637,0.080257,0.808755,-0.5826439999999999,0.007145,0.00817,0.0006889999999999
1638,0.080085,0.808505,-0.583013,0.00924,0.006375,-0.002726
1639,0.079832,0.808334,-0.583285,0.011538,0.001709,-0.007611
1640,0.079555,0.808295,-0.583377,0.012852,0.003198,-0.008389
1641,0.079284,0.80837,-0.5833109999999999,0.013215,0.005854,-0.006228
1642,0.078998,0.808524,-0.583136,0.010495,0.008477,-0.005686
1643,0.078702,0.808716,-0.582909,0.0118129999999999,0.009948,-0.001258
1644,0.07845,0.808958,-0.582607,0.008983,0.01198,0.004055
1645,0.078248,0.809226,-0.582262,0.006453,0.014474,0.009173
1646,0.078069,0.809483,-0.581929,0.00416,0.018016,0.007695
1647,0.077938,0.8096939999999999,-0.581653,0.00713,0.01869,0.00925
1648,0.077894,0.809816,-0.581489,0.005755,0.023436,0.012535
1649,0.077941,0.809806,-0.581496,0.007127,0.022759,0.013778
1650,0.078042,0.8096979999999999,-0.581633,0.008048,0.022532,0.014983
1651,0.078186,0.809461,-0.5819439999999999,0.009704,0.0248129999999999,0.0108989999999999
1652,0.078438,0.8091010000000001,-0.582411,0.012276,0.017773,0.011045
1653,0.078739,0.808669,-0.58297,0.012264,0.013063,0.010567
1654,0.078996,0.808198,-0.583588,0.011412,0.014297,0.006866
1655,0.079303,0.807746,-0.584172,0.011975,0.0082329999999999,-0.0023
1656,0.079748,0.8073520000000001,-0.584655,0.01211,0.004156,-0.005174
1657,0.080045,0.807041,-0.585044,0.014178,-0.003849,-0.006936
1658,0.080067,0.806929,-0.585195,0.016826,-0.003691,-0.015024
1659,0.079826,0.807001,-0.58513,0.016656,-0.000543,-0.016204
1660,0.079447,0.8072699999999999,-0.58481,0.014227,0.002972,-0.012984
1661,0.07909,0.807718,-0.5842390000000001,0.0096099999999999,0.007239,-0.0065349999999999
1662,0.078854,0.808257,-0.583525,0.007358,0.012482,0.001875
1663,0.078762,0.808834,-0.582738,0.004475,0.016209,0.011022
1664,0.078723,0.809375,-0.581991,0.002957,0.023633,0.01879
1665,0.078687,0.8098270000000001,-0.581367,0.00278,0.022509,0.017418
1666,0.078652,0.8101430000000001,-0.580932,0.004264,0.022484,0.021102
1667,0.078577,0.810334,-0.580675,0.008048,0.023284,0.016497
1668,0.078598,0.810372,-0.58062,0.00563,0.026466,0.011376
1669,0.07876,0.810241,-0.58078,0.00585,0.0230259999999999,0.012314
1670,0.078901,0.809975,-0.581132,0.008532,0.0187449999999999,0.009675
1671,0.079044,0.809664,-0.581546,0.013226,0.01428,0.001285
1672,0.079212,0.8093020000000001,-0.5820270000000001,0.014537,0.012476,-0.001362
1673,0.0793649999999999,0.808932,-0.5825199999999999,0.012874,0.009031,-0.000304
1674,0.079508,0.80861,-0.5829479999999999,0.01763,0.006057,-0.005736
1675,0.0796289999999999,0.808346,-0.5832970000000001,0.01676,0.0042299999999999,-0.005677
1676,0.07965,0.808186,-0.583516,0.016832,0.0043289999999999,-0.005153
1677,0.079555,0.8081649999999999,-0.583557,0.013799,0.005952,-0.004867
1678,0.079408,0.808249,-0.583461,0.0128,0.009637,-0.0038799999999999
1679,0.079235,0.808398,-0.583279,0.009739,0.01341,0.002239
1680,0.078995,0.808613,-0.583013,0.008987,0.014293,0.002569
1681,0.078788,0.808843,-0.5827220000000001,0.007913,0.012415,0.005848
1682,0.078674,0.8090579999999999,-0.582439,0.003998,0.0189289999999999,0.011745
1683,0.078614,0.809192,-0.58226,0.004058,0.018795,0.011566
1684,0.078597,0.809254,-0.582178,0.006044,0.018978,0.010354
1685,0.078613,0.809285,-0.582132,0.007554,0.0218,0.006952
1686,0.078716,0.809267,-0.582142,0.007206,0.015424,0.010304
1687,0.078798,0.809207,-0.5822149999999999,0.009489,0.011075,0.008622
1688,0.078803,0.809132,-0.5823189999999999,0.011682,0.0175889999999999,-0.001498
1689,0.078921,0.809025,-0.5824520000000001,0.012464,0.016293,-0.0032259999999999
1690,0.079176,0.80888,-0.5826180000000001,0.011659,0.012562,-0.003319
1691,0.079272,0.808794,-0.582724,0.014737,0.006986,0.000159
1692,0.079232,0.808763,-0.582773,0.015815,0.00688,-0.0004639999999999
1693,0.079174,0.8087489999999999,-0.582801,0.015507,0.010923,0.0008609999999999
1694,0.079125,0.8087409999999999,-0.5828180000000001,0.012458,0.013555,0.005288
1695,0.079152,0.80876,-0.582788,0.010326,0.01349,0.0077909999999999
1696,0.079176,0.808794,-0.582738,0.0084549999999999,0.0139449999999999,0.00971
1697,0.079179,0.808815,-0.582708,0.0075209999999999,0.01635,0.008322
1698,0.07915,0.808794,-0.582742,0.006925,0.015776,0.008492
1699,0.079084,0.8087529999999999,-0.582807,0.004382,0.012246,0.0030489999999999
1700,0.078995,0.808738,-0.5828399999999999,0.007125,0.011346,0.002701
1701,0.078924,0.8087479999999999,-0.582836,0.007593,0.012785,0.002926
1702,0.078877,0.8087489999999999,-0.5828409999999999,0.006343,0.010968,0.001786
1703,0.07894,0.808736,-0.58285,0.007592,0.013331,0.001383
1704,0.079025,0.808721,-0.58286,0.011398,0.014933,-0.002116
1705,0.079141,0.808724,-0.5828399999999999,0.014625,0.0151289999999999,0.004226
1706,0.079248,0.808711,-0.582843,0.017401,0.015172,0.006305
1707,0.079301,0.8086760000000001,-0.5828840000000001,0.014678,0.015436,0.007017
1708,0.07931,0.8086439999999999,-0.5829270000000001,0.016531,0.011363,0.003109
1709,0.0792799999999999,0.808621,-0.582963,0.0147139999999999,0.013172,0.004396
1710,0.079283,0.808625,-0.582957,0.009279,0.0150139999999999,0.005106
1711,0.079278,0.808591,-0.583006,0.007484,0.0132629999999999,0.007292
1712,0.0792409999999999,0.808609,-0.582986,0.012556,0.0118409999999999,-0.000587
1713,0.079221,0.8085640000000001,-0.583051,0.006305,0.013854,0.000775
1714,0.079141,0.8085399999999999,-0.583095,0.005362,0.012475,0.004009
1715,0.078996,0.8085479999999999,-0.5831029999999999,0.008589,0.012177,0.003193
1716,0.078947,0.8085439999999999,-0.583116,0.008272,0.012028,0.002076
1717,0.078919,0.808525,-0.583146,0.00772,0.012505,0.001679
1718,0.078944,0.808541,-0.58312,0.008717,0.011939,0.002035
1719,0.0790059999999999,0.808571,-0.58307,0.008336,0.011558,0.0014199999999999
1720,0.079052,0.808593,-0.583033,0.008304,0.016068,0.003321
1721,0.079133,0.808602,-0.58301,0.008468,0.015205,0.004213
1722,0.0792669999999999,0.808616,-0.582973,0.0113239999999999,0.008889,0.007091
1723,0.079355,0.808653,-0.58291,0.014456,0.0147419999999999,0.005059
1724,0.079448,0.808668,-0.582875,0.0145,0.016786,0.001134
1725,0.079618,0.808668,-0.582853,0.014452,0.016543,0.000791
1726,0.0797929999999999,0.808628,-0.5828840000000001,0.012004,0.011731,0.004195
1727,0.079849,0.808608,-0.582904,0.0112769999999999,0.008439,3.3e-05
1728,0.079821,0.808609,-0.582907,0.014402,0.008698,-4e-05
1729,0.079787,0.808607,-0.582914,0.01288,0.01137,0.004728
1730,0.079779,0.8086220000000001,-0.582893,0.0086,0.012499,0.009682
1731,0.0798,0.8086439999999999,-0.582861,0.0065959999999999,0.013118,0.008092
1732,0.079818,0.808659,-0.582838,0.0075689999999999,0.016811,0.004438
1733,0.079796,0.808621,-0.582893,0.008079,0.017551,0.005103
1734,0.079764,0.808573,-0.582964,0.008569,0.013952,0.004167
1735,0.079721,0.8084979999999999,-0.583073,0.009497,0.014668,0.005635
1736,0.079654,0.808433,-0.5831729999999999,0.008573,0.011132,0.0062689999999999
1737,0.079594,0.808385,-0.583248,0.008693,0.010402,0.002865
1738,0.079583,0.808354,-0.583292,0.010841,0.013637,0.000955
1739,0.079646,0.808308,-0.583348,0.012227,0.013515,-0.0004379999999999
1740,0.079696,0.8082560000000001,-0.583412,0.01056,0.011309,0.001549
1741,0.079694,0.808229,-0.58345,0.013659,0.0116709999999999,0.005783
1742,0.079635,0.80823,-0.583458,0.013306,0.014112,0.0019149999999999
1743,0.079546,0.808212,-0.583495,0.0127549999999999,0.015549,0.00447
1744,0.079506,0.808189,-0.5835319999999999,0.012764,0.012246,0.001882
1745,0.079527,0.808226,-0.5834779999999999,0.009569,0.01285,0.004605
1746,0.079588,0.808289,-0.583382,0.008729,0.014618,0.004998
1747,0.079644,0.8083319999999999,-0.5833149999999999,0.007194,0.0150479999999999,0.005343
1748,0.079658,0.8083640000000001,-0.583268,0.0069349999999999,0.011719,0.005143
