,gravity.x,gravity.y,gravity.z,userAcceleration.x,userAcceleration.y,userAcceleration.z
0,0.077653,0.11865,-0.989895,0.008208,0.00458,-0.005054
1,0.077556,0.1187319999999999,-0.989893,0.011724,0.005444,-0.006109
2,0.077538,0.118849,-0.98988,0.012336,0.009249,-0.004169
3,0.077546,0.1189369999999999,-0.989869,0.012909,0.006459,-0.005599
4,0.077555,0.118972,-0.989864,0.014486,0.005936,-0.002095
5,0.077606,0.118966,-0.989861,0.012085,0.004707,-0.00135
6,0.077697,0.1189289999999999,-0.989858,0.009385,0.0088939999999999,-0.0023899999999999
7,0.077752,0.118898,-0.989858,0.006919,0.006346,-0.006358
8,0.077817,0.11888,-0.989855,0.0074329999999999,0.008745,-0.003477
9,0.077766,0.118826,-0.989865,0.007729,0.0095,-0.0042299999999999
10,0.077806,0.1187589999999999,-0.98987,0.005431,0.009354,-0.001143
11,0.077819,0.118721,-0.989874,0.002595,0.0105519999999999,-0.002238
12,0.077753,0.118668,-0.989885,0.00228,0.0102379999999999,-0.004057
13,0.077695,0.118583,-0.9899,0.004046,0.006951,-0.002868
14,0.077713,0.118563,-0.989901,0.003815,0.0071849999999999,-0.005659
15,0.077787,0.118525,-0.989899,0.004595,0.006734,-0.002486
16,0.0779,0.1186059999999999,-0.989881,0.007168,0.008515,-0.007037
17,0.077996,0.118626,-0.989871,0.0080629999999999,0.0068629999999999,-0.00546
18,0.078157,0.118629,-0.989858,0.008803,0.00663,0.000371
19,0.078411,0.118648,-0.989836,0.008641,0.001957,-0.004778
20,0.078696,0.1187859999999999,-0.989796,0.007333,0.00124,-0.006023
21,0.079123,0.11907,-0.989728,0.009698,0.004404,-0.0075099999999999
22,0.079694,0.1193099999999999,-0.989653,0.011233,0.007201,-0.00615
23,0.080376,0.1195529999999999,-0.989569,0.010246,0.010559,0.002936
24,0.080956,0.119789,-0.989493,0.008308,0.0089959999999999,0.001441
25,0.08116,0.119924,-0.98946,0.0087599999999999,0.005167,-0.003582
26,0.081159,0.120021,-0.989448,0.007037,0.00855,-0.0070269999999999
27,0.081249,0.120191,-0.98942,0.000904,0.011126,-0.004171
28,0.081375,0.120202,-0.989409,0.001419,0.016562,0.00099
29,0.081413,0.120014,-0.989428,0.004128,0.014172,0.00043
30,0.081314,0.119818,-0.98946,0.004151,0.00976,-0.002773
31,0.081089,0.119699,-0.989493,0.004284,0.0070709999999999,-0.007379
32,0.080983,0.119616,-0.989512,0.007106,0.004682,-0.002691
33,0.08111,0.119517,-0.989513,0.00643,0.00765,0.000301
34,0.081091,0.119376,-0.989532,0.007441,0.0080349999999999,-0.004364
35,0.080849,0.119245,-0.989568,0.005882,0.009738,-0.005351
36,0.080709,0.1191059999999999,-0.989596,0.007151,0.0030559999999999,-0.002546
37,0.080789,0.119027,-0.989599,0.00582,0.008002,-0.004679
38,0.080821,0.118932,-0.989608,0.0089459999999999,0.008646,-0.005357
39,0.0806809999999999,0.118749,-0.989641,0.0086129999999999,0.011576,-0.004149
40,0.080424,0.11844,-0.989699,0.005666,0.010848,-0.001588
41,0.0801549999999999,0.1181079999999999,-0.98976,0.0051719999999999,0.007014,-0.002687
42,0.0799,0.1178029999999999,-0.989817,0.002925,0.0059299999999999,-0.00411
43,0.079784,0.117618,-0.989849,0.003803,0.005078,-0.005314
44,0.079736,0.117479,-0.989869,0.005256,0.005492,-0.004226
45,0.079732,0.117352,-0.989884,0.00561,0.006305,-0.001159
46,0.079739,0.117242,-0.989897,0.007129,0.006369,0.001387
47,0.079721,0.117105,-0.989915,0.003913,0.0075739999999999,0.001328
48,0.07966,0.1170109999999999,-0.989931,0.0032719999999999,0.009225,-0.004561
49,0.079542,0.11692,-0.989951,0.005541,0.009255,-0.006402
50,0.0794899999999999,0.116788,-0.989971,0.004647,0.006625,-0.004872
51,0.079511,0.116713,-0.989978,0.005511,0.006258,-0.002332
52,0.079567,0.1167609999999999,-0.989968,0.006996,0.007018,-0.003196
53,0.079544,0.116826,-0.989962,0.008912,0.004909,-0.004057
54,0.079506,0.1168119999999999,-0.989967,0.008491,0.00622,-0.001977
55,0.079511,0.1167859999999999,-0.989969,0.005877,0.004369,-0.00083
56,0.079591,0.116876,-0.989952,0.005111,0.008948,-0.006554
57,0.07966,0.116924,-0.989941,0.003302,0.008076,-0.004825
58,0.079732,0.1169549999999999,-0.989931,0.004374,0.009495,-0.005659
59,0.079728,0.1169359999999999,-0.989934,0.005447,0.010124,-0.002803
60,0.079636,0.1168589999999999,-0.989951,0.006271,0.0099569999999999,-0.001794
61,0.0795559999999999,0.1168599999999999,-0.989957,0.003528,0.004936,-0.0034509999999999
62,0.079474,0.116798,-0.989971,0.0033049999999999,0.004601,-0.003209
63,0.079426,0.1168039999999999,-0.989974,0.004604,0.003802,-0.005311
64,0.079496,0.116878,-0.98996,0.003634,0.004994,-0.005783
65,0.079648,0.116924,-0.989942,0.004749,0.007618,-0.004443
66,0.07984,0.116943,-0.989924,0.005975,0.008591,-0.000707
67,0.079978,0.116932,-0.989914,0.003015,0.0091659999999999,-0.00357
68,0.080021,0.116882,-0.989917,0.0034289999999999,0.008881,-0.008115
69,0.0800049999999999,0.1168579999999999,-0.989921,0.006268,0.011225,-0.010903
70,0.080125,0.1169359999999999,-0.989902,0.006377,0.008568,-0.005566
71,0.080388,0.11704,-0.989868,0.00674,0.004771,-0.002579
72,0.080592,0.1172309999999999,-0.989829,0.010213,0.002337,-0.002877
73,0.08061,0.117418,-0.989806,0.010043,0.004331,-0.0050219999999999
74,0.080524,0.1174819999999999,-0.989805,0.007367,0.005534,-0.001696
75,0.080607,0.117521,-0.989794,0.003698,0.0074329999999999,-0.00337
76,0.080856,0.117624,-0.989761,0.000336,0.012015,-0.003922
77,0.081103,0.117666,-0.989736,0.0020109999999999,0.011774,-0.00439
78,0.081269,0.117612,-0.989729,0.000991,0.00809,-0.004534
79,0.081311,0.1175529999999999,-0.989732,0.00156,0.008622,-0.004332
80,0.081247,0.117505,-0.989743,0.004569,0.008701,-0.001941
81,0.081196,0.117447,-0.989754,0.0034289999999999,0.006836,-0.0011359999999999
82,0.081165,0.1173599999999999,-0.989767,0.00317,0.003657,-0.002482
83,0.081234,0.11737,-0.98976,0.003559,0.000549,-0.0038159999999999
84,0.081361,0.117531,-0.989731,0.002288,0.002739,-0.007004
85,0.081499,0.117717,-0.989697,0.007719,0.00652,-0.004794
86,0.081545,0.117719,-0.989693,0.0078099999999999,0.0123159999999999,0.000344
87,0.081423,0.1175819999999999,-0.98972,0.005506,0.0090049999999999,-0.0017809999999999
88,0.08125,0.1174839999999999,-0.989745,0.006763,0.00982,-0.002869
89,0.081145,0.1174839999999999,-0.989754,0.0053729999999999,0.005151,-0.0061259999999999
90,0.081126,0.117532,-0.98975,0.006033,0.00492,-0.0055049999999999
91,0.081108,0.1175609999999999,-0.989748,0.006615,0.006157,-0.004515
92,0.081071,0.11762,-0.989744,0.002364,0.004282,-0.000933
93,0.08101,0.117696,-0.98974,0.001662,0.006404,-0.001471
94,0.080988,0.11782,-0.989727,0.002173,0.0074849999999999,-0.006245
95,0.081075,0.117925,-0.989707,0.003901,0.006816,-0.006264
96,0.081223,0.1180109999999999,-0.989685,0.003143,0.006562,-0.004501
97,0.081352,0.1181319999999999,-0.98966,0.005257,0.006029,-0.002604
98,0.0814179999999999,0.1183109999999999,-0.989633,0.00217,0.008108,-0.0041259999999999
99,0.081447,0.118453,-0.989614,0.003636,0.007005,-0.005946
100,0.081511,0.118604,-0.98959,0.004319,0.006823,-0.003879
101,0.081602,0.118726,-0.989568,0.003618,0.0042439999999999,-0.000788
102,0.081755,0.1188289999999999,-0.989543,0.00081,0.003699,-0.003194
103,0.081815,0.119059,-0.989511,0.001864,0.004964,-0.010245
104,0.081865,0.119306,-0.989477,0.002989,0.011645,-0.002604
105,0.082039,0.119414,-0.989449,0.000252,0.009676,-0.004371
106,0.082262,0.1195359999999999,-0.989416,0.000685,0.008607,-0.004068
107,0.082395,0.119628,-0.989394,-0.000135,0.0075689999999999,-0.00081
108,0.082538,0.119669,-0.989377,0.002225,0.006369,-0.002246
109,0.082618,0.119683,-0.989369,0.003411,0.005286,-0.0036119999999999
110,0.082599,0.119689,-0.989369,0.006024,0.007264,-0.005565
111,0.082565,0.1197,-0.989371,0.009736,0.007512,-0.006479
112,0.082575,0.119603,-0.989382,0.012289,0.008723,-0.007078
113,0.082504,0.119489,-0.989402,0.012421,0.015627,-0.0008789999999999
114,0.082287,0.119201,-0.989454,0.006321,0.006745,0.009031
115,0.08175,0.118598,-0.989571,-0.010858,-0.003196,0.00927
116,0.080533,0.117969,-0.989746,-0.0155919999999999,-0.0053289999999999,-0.012176
117,0.079292,0.1178,-0.989867,-0.014747,0.008024,-0.022432
118,0.078772,0.117901,-0.989896,0.003198,0.014972,-0.0076319999999999
119,0.078935,0.1178299999999999,-0.989892,0.008559,0.000944,0.003624
120,0.07917,0.117899,-0.989865,0.011269,0.005529,-0.005665
121,0.079288,0.1182839999999999,-0.989809,0.0186889999999999,0.0097069999999999,-0.001951
122,0.079679,0.1187309999999999,-0.989724,0.01491,0.01193,-0.003989
123,0.080147,0.11905,-0.989648,-0.001213,0.01007,-0.010062
124,0.080832,0.119405,-0.98955,-0.006079,0.011225,-0.009321
125,0.081985,0.1197369999999999,-0.989415,-0.006072,0.007934,-0.004543
126,0.083104,0.119873,-0.989305,-0.003407,0.008423,0.0005809999999999
127,0.083705,0.119824,-0.98926,0.007558,0.007908,0.0001699999999999
128,0.0840809999999999,0.119647,-0.98925,0.007624,0.006162,-0.000252
129,0.084399,0.119457,-0.989246,0.005719,0.0034219999999999,-0.005704
130,0.08465,0.119545,-0.989214,0.0070709999999999,0.0044329999999999,-0.010664
131,0.084841,0.1198019999999999,-0.989166,0.0106489999999999,0.008341,-0.003952
132,0.085119,0.120025,-0.989115,0.008295,0.007783,0.000712
133,0.085379,0.1201,-0.989084,-5.2e-05,0.005678,0.004144
134,0.085366,0.120051,-0.989091,-0.004586,0.000341,0.001847
135,0.085077,0.119949,-0.989128,-0.005289,0.003495,-0.006584
136,0.08455,0.119715,-0.989202,0.000778,0.009893,-0.004069
137,0.084019,0.119219,-0.989307,-0.001194,0.005339,0.003467
138,0.083535,0.118725,-0.989407,0.001059,-0.0033689999999999,-0.001102
139,0.083074,0.118715,-0.989447,-0.003484,-0.0042439999999999,-0.014978
140,0.082875,0.119049,-0.989424,-0.009007,0.002549,-0.016283
141,0.0830549999999999,0.1193309999999999,-0.989375,-0.001115,0.009087,-0.005666
142,0.083359,0.119371,-0.989344,0.005615,0.012449,0.00767
143,0.083369,0.119318,-0.98935,0.005696,0.009939,0.0032049999999999
144,0.082971,0.119203,-0.989397,0.006613,0.007369,0.002825
145,0.082357,0.119002,-0.989472,0.008524,0.0075239999999999,-0.005553
146,0.081764,0.1189119999999999,-0.989533,0.005607,0.004242,-0.010727
147,0.081429,0.118906,-0.989561,0.00962,0.005956,-0.006136
148,0.081328,0.1189839999999999,-0.98956,0.007493,0.00591,0.000973
149,0.081106,0.1190599999999999,-0.989569,0.000895,0.002522,-0.003717
150,0.080677,0.119157,-0.989592,0.002788,0.003341,-0.007356
151,0.080388,0.119276,-0.989601,0.007624,0.008791,-0.007271
152,0.08031,0.11924,-0.989612,0.007459,0.011314,-0.004315
153,0.080357,0.119171,-0.989617,0.002834,0.006546,-0.002373
154,0.080513,0.119199,-0.989601,-0.0009539999999999,0.004596,-0.0089959999999999
155,0.080868,0.119343,-0.989554,0.0008119999999999,0.007,-0.00953
156,0.081484,0.119558,-0.989478,-0.005495,0.0075629999999999,-0.003656
157,0.082246,0.1196589999999999,-0.989403,-0.013505,0.0064239999999999,-0.003945
158,0.082899,0.119695,-0.989344,-0.013151,0.003154,0.000391
159,0.0831659999999999,0.119694,-0.989321,-0.003759,0.005,-0.0013859999999999
160,0.083061,0.1195599999999999,-0.989346,0.001137,0.004921,-0.0017879999999999
161,0.082849,0.119374,-0.989387,0.0035159999999999,0.0036119999999999,-0.0028469999999999
162,0.082698,0.119282,-0.98941,0.003148,0.005657,-0.0037689999999999
163,0.0826529999999999,0.119345,-0.989406,0.007999,0.005258,-0.007053
164,0.082692,0.119423,-0.989394,0.006633,0.004905,-0.001085
165,0.082686,0.119399,-0.989397,0.00937,0.005952,-0.001646
166,0.082496,0.119281,-0.989427,0.010277,0.000455,-0.002226
167,0.082143,0.119216,-0.989465,0.010859,-0.0018,-0.006294
168,0.081747,0.1192619999999999,-0.989492,0.0120489999999999,-0.002289,-0.011683
169,0.081401,0.119345,-0.98951,0.008015,0.007273,-0.004142
170,0.081189,0.119441,-0.989516,0.005709,0.0071909999999999,-0.005403
171,0.080953,0.119576,-0.989519,0.005168,0.009055,-0.004499
172,0.0807399999999999,0.119701,-0.989521,-0.002707,0.008824,-0.003841
173,0.080581,0.119819,-0.98952,-0.0074909999999999,0.010003,-0.005383
174,0.08046,0.119846,-0.989527,-0.0083319999999999,0.009854,-0.003592
175,0.080372,0.119896,-0.989528,-0.0076489999999999,0.009575,-0.003178
176,0.080368,0.1199349999999999,-0.989523,-0.008133,0.009368,-0.007043
177,0.080532,0.1200099999999999,-0.989501,-0.009259,0.009537,-0.007188
178,0.080722,0.120155,-0.989468,-0.004031,0.0081409999999999,-0.003833
179,0.080895,0.120202,-0.989448,0.001075,0.004538,0.001396
180,0.081025,0.120174,-0.989441,0.0018449999999999,0.001134,0.002624
181,0.081058,0.120227,-0.989432,0.004056,0.003476,-0.002786
182,0.081045,0.120374,-0.989415,0.008676,0.006,-0.00825
183,0.081054,0.120529,-0.989395,0.008027,0.007797,-0.006866
184,0.081064,0.120615,-0.989384,0.009359,0.005118,-0.005733
185,0.081088,0.120665,-0.989376,0.006833,0.003908,0.0014
186,0.081087,0.120724,-0.989369,0.006971,0.00156,-0.003551
187,0.080982,0.1208359999999999,-0.989364,0.003155,0.001052,-0.005067
188,0.080802,0.120956,-0.989364,-0.0013189999999999,0.005036,-0.007539
189,0.080647,0.121029,-0.989367,-0.003468,0.005726,-0.0052
190,0.080591,0.121099,-0.989363,-0.00506,0.011531,-0.003144
191,0.080586,0.1211769999999999,-0.989354,-0.006474,0.014138,-0.00262
192,0.080573,0.12113,-0.989361,-0.004386,0.012781,0.000103
193,0.0805289999999999,0.120958,-0.989386,-0.006188,0.009245,-0.000131
194,0.080413,0.1207309999999999,-0.989423,-0.004577,0.006421,-0.00162
195,0.080298,0.120501,-0.98946,-0.003394,0.00276,-0.007534
196,0.0802659999999999,0.120344,-0.989482,-0.001912,0.001284,-0.009038
197,0.080357,0.120277,-0.989483,0.004863,0.002876,-0.004795
198,0.080549,0.12028,-0.989467,0.008806,0.0045829999999999,-0.00295
199,0.08076,0.120279,-0.98945,0.007512,0.002341,-0.001746
200,0.0808789999999999,0.120281,-0.98944,0.007042,0.002873,-0.004716
201,0.080848,0.120293,-0.989441,0.003274,0.007758,-0.003143
202,0.080966,0.120266,-0.989435,0.001249,0.006367,-0.003836
203,0.081174,0.1202039999999999,-0.989425,-0.001553,0.003148,-0.005326
204,0.081319,0.120201,-0.989413,-0.004247,0.0060659999999999,-0.0045439999999999
205,0.081432,0.120236,-0.9894,-0.006603,0.007114,-0.002437
206,0.081557,0.12019,-0.989395,-0.005736,0.0079379999999999,-0.0026089999999999
207,0.081701,0.120175,-0.989385,-0.004873,0.007999,-0.003245
208,0.081817,0.120207,-0.989372,0.000412,0.008394,-0.006966
209,0.081908,0.120217,-0.989363,0.004212,0.0073,-0.002931
210,0.081967,0.120109,-0.989371,0.006045,0.0049369999999999,-0.00213
211,0.082008,0.119963,-0.989386,0.003655,0.004046,-0.001505
212,0.082066,0.11984,-0.989396,0.003047,0.00397,-0.003921
213,0.082116,0.119789,-0.989398,0.004371,0.004814,-0.006818
214,0.082171,0.119726,-0.989401,0.000669,0.0040079999999999,-0.0016879999999999
215,0.082226,0.1196,-0.989411,1.9e-05,0.0034159999999999,-0.002761
216,0.0822389999999999,0.119529,-0.989419,-0.001826,0.004983,-0.004646
217,0.082192,0.119517,-0.989424,-0.001091,0.007467,-0.004777
218,0.082103,0.119439,-0.989441,-0.002468,0.005759,-0.007339
219,0.082013,0.119267,-0.989469,-0.001859,0.005458,-0.004488
220,0.0818909999999999,0.1191349999999999,-0.989495,-0.0005769999999999,0.007208,-0.002494
221,0.081797,0.119017,-0.989517,-0.001505,0.0067459999999999,-0.001328
222,0.081732,0.1189369999999999,-0.989532,-0.000159,0.0055899999999999,-0.005799
223,0.081659,0.118862,-0.989547,0.000983,0.005589,-0.007035
224,0.081632,0.1187859999999999,-0.989559,0.000414,0.007465,-0.001668
225,0.081672,0.118714,-0.989564,0.002862,0.00563,-0.004867
226,0.08174,0.118658,-0.989565,0.000749,0.0040219999999999,-0.003309
227,0.081831,0.118649,-0.989559,0.001558,0.003696,-0.006352
228,0.081941,0.118667,-0.989547,0.002807,0.006013,-0.007492
229,0.082062,0.118691,-0.989534,0.0014039999999999,0.004738,-0.003187
230,0.0821679999999999,0.118716,-0.989523,0.00232,0.007215,-0.00416
231,0.082228,0.118768,-0.989511,0.001466,0.0064,-0.0032409999999999
232,0.082282,0.118825,-0.9895,-0.000494,0.001414,-0.003328
233,0.082353,0.1189119999999999,-0.989484,-0.001145,0.007293,-0.007144
234,0.08237,0.119042,-0.989467,-0.000263,0.010337,-0.007131
235,0.082483,0.1191079999999999,-0.989449,-0.001321,0.007509,-0.005927
236,0.0826409999999999,0.119129,-0.989434,-0.002318,0.005352,-0.002006
237,0.082729,0.119144,-0.989424,-0.002651,0.005231,-0.0044259999999999
238,0.082786,0.119171,-0.989416,-0.004478,0.0084689999999999,-0.006128
239,0.082856,0.1191859999999999,-0.989409,-0.001465,0.003098,-0.003709
240,0.083021,0.1192329999999999,-0.989389,-0.000425,0.004409,-0.003393
241,0.083256,0.119317,-0.989359,0.000469,0.005286,-0.003225
242,0.083445,0.1194119999999999,-0.989332,0.003774,0.005207,-0.005617
243,0.083557,0.119474,-0.989315,0.002686,0.005282,-0.003849
244,0.083607,0.119542,-0.989303,0.001568,0.004863,-0.00496
245,0.083648,0.1196,-0.989292,0.000398,0.00746,-0.001919
246,0.083657,0.119649,-0.989285,0.000297,0.006587,-0.0038179999999999
247,0.08362,0.1196619999999999,-0.989287,-0.0015429999999999,0.005124,-0.004823
248,0.08352,0.119725,-0.989288,0.000784,0.004344,-0.004639
249,0.083414,0.1198019999999999,-0.989287,0.001943,0.005732,-0.004731
250,0.083349,0.1198849999999999,-0.989283,-0.0006309999999999,0.003864,-0.00498
251,0.083324,0.119959,-0.989276,-0.000651,0.005666,-0.004682
252,0.083327,0.120044,-0.989265,-0.00122,0.006741,-0.005562
253,0.083393,0.120155,-0.989246,-0.004093,0.005914,-0.004696
254,0.083538,0.120224,-0.989226,-0.002712,0.00946,-0.003328
255,0.0837059999999999,0.120296,-0.989203,-0.00401,0.008183,-0.004175
256,0.083899,0.120378,-0.989177,-0.001471,0.007964,-0.005117
257,0.084093,0.120458,-0.98915,0.000242,0.004435,-0.006074
258,0.084213,0.120527,-0.989132,0.000168,0.005129,-0.002858
259,0.084227,0.120583,-0.989124,0.003877,0.001564,-0.004803
260,0.084211,0.120642,-0.989118,0.002764,0.00216,-0.005465
261,0.084211,0.120752,-0.989104,0.0019399999999999,0.00585,-0.004685
262,0.08424,0.1208569999999999,-0.989089,-0.000424,0.008202,-0.003739
263,0.0842509999999999,0.120896,-0.989083,-0.000709,0.006408,-0.0026309999999999
264,0.084244,0.120901,-0.989083,-0.001114,0.007303,-0.005195
265,0.084163,0.120922,-0.989088,-0.002453,0.007222,-0.0031149999999999
266,0.084067,0.1209349999999999,-0.989094,-0.002417,0.00234,-0.004772
267,0.084003,0.120975,-0.989095,-0.00394,0.005719,-0.007136
268,0.083832,0.121043,-0.989101,-0.000687,0.008947,-0.004261
269,0.083734,0.1211329999999999,-0.989098,0.001715,0.0073,-0.0064769999999999
270,0.083761,0.121198,-0.989088,0.002146,0.006839,-0.006136
271,0.083772,0.121275,-0.989078,-0.002168,0.0052049999999999,-0.005521
272,0.083817,0.121281,-0.989073,-0.001755,0.004986,-0.000398
273,0.083922,0.121228,-0.989071,-0.003829,0.007556,-0.002964
274,0.08399,0.12117,-0.989072,-0.002982,0.006928,-0.007022
275,0.083981,0.121098,-0.989082,0.000339,0.008388,-0.0035479999999999
276,0.083974,0.120975,-0.989097,0.002101,0.006421,-0.0029219999999999
277,0.083967,0.120839,-0.989114,-0.001326,0.006053,-0.00115
278,0.083938,0.120707,-0.989133,-0.0017239999999999,0.00321,-0.000872
279,0.083899,0.120618,-0.989147,-0.000799,0.005465,-0.004063
280,0.083859,0.1205359999999999,-0.989161,-0.0032619999999999,0.003702,-0.003622
281,0.083881,0.120513,-0.989162,-6.4e-05,0.004273,-0.0062759999999999
282,0.083992,0.120513,-0.989152,-0.001289,0.007386,-0.0050799999999999
283,0.084128,0.120565,-0.989134,-0.001197,0.005808,-0.003603
284,0.084211,0.120567,-0.989127,-0.001539,0.007881,-0.004525
285,0.084218,0.12053,-0.989131,-0.000783,0.0092459999999999,-0.004201
286,0.084158,0.120457,-0.989145,-0.002005,0.008236,-0.004141
287,0.084083,0.12037,-0.989162,0.000328,0.0067659999999999,-0.003285
288,0.08403,0.1202849999999999,-0.989177,0.000519,0.005646,-0.005468
289,0.083953,0.120207,-0.989193,-0.003341,0.0053729999999999,-0.004063
290,0.0838899999999999,0.120139,-0.989206,-0.003247,0.004571,-0.004751
291,0.083874,0.120076,-0.989215,-0.001049,0.003184,-0.006909
292,0.08387,0.1200349999999999,-0.989221,-0.000526,0.005804,-0.003638
293,0.083878,0.119969,-0.989228,-6.1e-05,0.00793,-0.005584
294,0.083911,0.1198839999999999,-0.989235,-0.0008119999999999,0.007069,-0.002418
295,0.08395,0.119822,-0.98924,-0.002682,0.007238,-0.004886
296,0.083961,0.1197609999999999,-0.989246,-0.003471,0.00765,-0.007427
297,0.083914,0.119682,-0.98926,-0.001334,0.006798,-0.005476
298,0.083861,0.119614,-0.989272,-4.4e-05,0.006653,-0.002976
299,0.0838309999999999,0.119517,-0.989287,-0.0009449999999999,0.003484,-0.001573
300,0.083839,0.1194369999999999,-0.989296,-0.000724,0.002526,-0.00428
301,0.0838059999999999,0.119418,-0.989301,0.000865,0.007123,-0.007022
302,0.0837789999999999,0.119416,-0.989303,0.001732,0.010391,-0.006089
303,0.083863,0.1194,-0.989298,-0.000458,0.0077819999999999,-0.0062619999999999
304,0.083948,0.119362,-0.989295,-0.000757,0.004799,-0.003136
305,0.083985,0.119374,-0.989291,-0.004334,0.008953,-0.003766
306,0.083975,0.11935,-0.989295,-0.003286,0.0065959999999999,-0.004877
307,0.083935,0.11932,-0.989302,-0.004009,0.005131,-0.002565
308,0.083938,0.119246,-0.98931,-0.001586,0.006318,-0.003182
309,0.0840149999999999,0.1191849999999999,-0.989311,-0.002289,0.005724,-0.004067
310,0.084089,0.119175,-0.989306,-2.8000000000000003e-05,0.0085709999999999,-0.0055369999999999
311,0.08411,0.1191319999999999,-0.989309,-0.000766,0.006967,-0.004251
312,0.084144,0.119056,-0.989316,-0.001182,0.006021,-0.003909
313,0.084152,0.1190079999999999,-0.989321,-0.003571,0.006175,-0.003706
314,0.084149,0.118993,-0.989323,-0.00343,0.00584,-0.005657
315,0.084172,0.119024,-0.989317,-0.00266,0.007029,-0.006914
316,0.084176,0.1190099999999999,-0.989318,-0.001626,0.005471,-0.0044859999999999
317,0.08417,0.1190099999999999,-0.989319,-0.000231,0.005104,-0.0032649999999999
318,0.0841399999999999,0.119042,-0.989318,0.000439,0.005973,-0.004884
319,0.084086,0.1190869999999999,-0.989317,0.000218,0.00457,-0.004854
320,0.084051,0.119083,-0.98932,7.099999999999999e-05,0.007352,-0.005446
321,0.084008,0.119065,-0.989326,-0.001305,0.0079189999999999,-0.003975
322,0.083989,0.119083,-0.989326,-0.002751,0.006207,-0.00454
323,0.083981,0.119116,-0.989322,-0.004177,0.007654,-0.005474
324,0.08399,0.11913,-0.98932,-0.003438,0.0081739999999999,-0.005797
325,0.083982,0.1191049999999999,-0.989323,-0.0026829999999999,0.007604,-0.0042829999999999
326,0.083949,0.1190859999999999,-0.989329,-0.003718,0.004251,-0.002996
327,0.0839039999999999,0.119063,-0.989335,-0.002513,0.006136,-0.003829
328,0.083855,0.119044,-0.989342,-0.0018239999999999,0.006291,-0.004753
329,0.083867,0.1190329999999999,-0.989342,-0.002858,0.0061189999999999,-0.005134
330,0.083906,0.119017,-0.989341,-0.00215,0.0067769999999999,-0.004953
331,0.083939,0.118963,-0.989344,-0.003754,0.004358,-0.00028
332,0.083982,0.118952,-0.989342,-0.0022559999999999,0.0086579999999999,-0.0053479999999999
333,0.084025,0.118964,-0.989337,-0.001887,0.008371,-0.00694
334,0.083998,0.1189619999999999,-0.989339,-0.000685,0.006023,-0.004099
335,0.084025,0.1189079999999999,-0.989344,0.000372,0.004108,-0.0026
336,0.0840559999999999,0.118895,-0.989343,-0.000468,0.006716,-0.004096
337,0.084011,0.11893,-0.989342,-0.002132,0.010022,-0.007209
338,0.084039,0.118976,-0.989334,-0.000421,0.0057799999999999,-0.005325
339,0.084122,0.119006,-0.989323,-1.5e-05,0.005292,-0.005275
340,0.084175,0.119029,-0.989316,-0.006187,0.004124,-0.001483
341,0.084221,0.1190109999999999,-0.989315,-0.0054399999999999,0.008095,-0.003315
342,0.084231,0.118973,-0.989318,-0.002077,0.00618,-0.00557
343,0.084255,0.118932,-0.989321,-0.001888,0.005839,-0.007154
344,0.084347,0.118902,-0.989317,-0.001522,0.0070129999999999,-0.004
345,0.084473,0.118903,-0.989306,-0.0003509999999999,0.006067,-0.002164
346,0.084551,0.118898,-0.9893,-0.002657,0.004439,-0.0042
347,0.084606,0.118906,-0.989294,-0.001903,0.003638,-0.00268
348,0.084634,0.118965,-0.989285,-0.002206,0.003639,-0.005054
349,0.0846789999999999,0.119063,-0.989269,-0.001656,0.007005,-0.0059549999999999
350,0.084761,0.119166,-0.98925,-0.000151,0.005758,-0.002572
351,0.084823,0.119293,-0.989229,-0.000396,0.004944,-0.004393
352,0.084807,0.119458,-0.989211,0.000963,0.006595,-0.0052049999999999
353,0.084775,0.11962,-0.989194,-0.000684,0.006555,-0.00516
354,0.084766,0.119745,-0.989179,0.001065,0.005728,-0.005816
355,0.084794,0.119854,-0.989164,-0.002137,0.00481,-0.003237
356,0.084841,0.11997,-0.989146,-0.003237,0.008539,-0.004507
357,0.084901,0.12009,-0.989126,-0.005266,0.008542,-0.005778
358,0.084946,0.1202319999999999,-0.989105,-0.002838,0.00927,-0.00943
359,0.085006,0.120338,-0.989087,-0.003005,0.007378,-0.004199
360,0.085142,0.120424,-0.989065,-0.003355,0.0072159999999999,-0.003031
361,0.0852639999999999,0.120503,-0.989045,-0.004331,0.0064959999999999,-0.002365
362,0.085324,0.120584,-0.98903,-0.003399,0.006339,-0.005508
363,0.0853179999999999,0.120657,-0.989021,-0.003989,0.0040079999999999,-0.006081
364,0.0853299999999999,0.120716,-0.989013,-0.001025,0.005382,-0.007783
365,0.085414,0.120788,-0.988997,0.001027,0.0047009999999999,-0.002748
366,0.085521,0.12089,-0.988975,0.001515,0.004522,-0.004174
367,0.085586,0.120994,-0.988957,-0.000931,0.007256,-0.004101
368,0.085553,0.121088,-0.988948,-0.001721,0.007437,-0.005559
369,0.085477,0.121124,-0.98895,-0.002378,0.00769,-0.004626
370,0.085407,0.121154,-0.988953,-0.00307,0.008073,-0.002914
371,0.085407,0.1211609999999999,-0.988952,-0.004978,0.002222,-0.000855
372,0.085496,0.121222,-0.988937,-0.004961,0.003503,-0.0079659999999999
373,0.085487,0.121327,-0.988925,-0.001213,0.010478,-0.005674
374,0.085467,0.121419,-0.988915,-0.0034049999999999,0.00941,-0.005485
375,0.085532,0.121459,-0.988904,-0.001228,0.005388,-0.002779
376,0.085658,0.1215369999999999,-0.988884,-0.000346,0.007232,-0.003899
377,0.085783,0.121602,-0.988865,-0.0041329999999999,0.006084,-0.00172
378,0.085911,0.121575,-0.988857,-0.005558,0.006218,-0.002704
379,0.085971,0.1215339999999999,-0.988857,-0.004993,0.006289,-0.0042759999999999
380,0.086026,0.121504,-0.988856,-0.002301,0.006899,-0.00649
381,0.086128,0.1214609999999999,-0.988852,0.0009539999999999,0.007506,-0.005471
382,0.086188,0.121427,-0.988851,0.000695,0.008135,-0.002192
383,0.086163,0.121373,-0.98886,-0.000408,0.002971,-0.002549
384,0.086072,0.1212579999999999,-0.988882,-0.002194,0.005801,-0.002619
385,0.085938,0.1211569999999999,-0.988906,-0.0017399999999999,0.005719,-0.003556
386,0.085849,0.1210789999999999,-0.988924,-0.001011,0.0041649999999999,-0.006072
387,0.085782,0.121029,-0.988936,-0.001462,0.004658,-0.0031149999999999
388,0.085621,0.121003,-0.988953,-0.001118,0.0046229999999999,-0.003784
389,0.085435,0.12099,-0.98897,-0.0028239999999999,0.00575,-0.002729
390,0.0852909999999999,0.1209609999999999,-0.988986,-0.006525,0.01504,-0.0066799999999999
391,0.085315,0.120867,-0.988996,-0.008227,0.0126629999999999,-0.003894
392,0.085558,0.1206589999999999,-0.989,-0.009752,0.01165,-0.0026079999999999
393,0.085771,0.120425,-0.98901,-0.00345,0.0033079999999999,-0.001896
394,0.085754,0.120375,-0.989018,0.003739,-0.003203,-0.005245
395,0.085435,0.1204529999999999,-0.989036,0.005431,-0.003113,-0.004296
396,0.08497,0.120584,-0.98906,0.0018679999999999,0.002982,-0.004241
397,0.084615,0.120637,-0.989084,-0.001546,0.011413,-0.004416
398,0.084486,0.120657,-0.989092,-0.002364,0.014551,-0.004423
399,0.084518,0.12053,-0.989105,-0.0068349999999999,0.013656,-0.006393
400,0.084665,0.1202869999999999,-0.989122,-0.007684,0.0101,-0.005156
401,0.084821,0.120058,-0.989137,-0.0068489999999999,0.004576,-0.005156
402,0.0849299999999999,0.119895,-0.989147,-0.003692,0.001474,-0.005299
403,0.084974,0.119867,-0.989147,-0.001264,-0.001169,-0.0026899999999999
404,0.084985,0.1199089999999999,-0.989141,0.000815,0.000285,-0.003047
405,0.084865,0.11999,-0.989141,0.000768,0.002508,-0.003229
406,0.084709,0.120014,-0.989152,-0.0011359999999999,0.002652,-0.00476
407,0.0846259999999999,0.119985,-0.989162,-0.001314,0.010401,-0.009983
408,0.084545,0.1199549999999999,-0.989173,-0.001552,0.012628,-0.0090879999999999
409,0.084572,0.119938,-0.989173,-0.000511,0.007381,-0.002664
410,0.084654,0.119895,-0.989171,-0.000868,0.0070269999999999,-0.0033979999999999
411,0.084695,0.1198849999999999,-0.989169,-0.006081,0.00629,-0.002775
412,0.084669,0.119878,-0.989172,-0.006437,0.0068769999999999,-0.004389
413,0.084619,0.1198549999999999,-0.989179,-0.007166,0.004748,-0.003985
414,0.084551,0.119801,-0.989191,-0.0034049999999999,0.005519,-0.004034
415,0.084565,0.119734,-0.989198,-0.002747,0.005709,-0.00566
416,0.084661,0.119696,-0.989194,-0.00202,0.007089,-0.0065489999999999
417,0.0848039999999999,0.1196579999999999,-0.989187,-0.002116,0.006624,-0.004862
418,0.084957,0.1196049999999999,-0.98918,-0.0024519999999999,0.005746,-0.0018329999999999
419,0.0850929999999999,0.119555,-0.989174,-0.00297,0.006987,-0.002754
420,0.085145,0.119492,-0.989177,-0.003495,0.005111,-0.003178
421,0.085137,0.119429,-0.989186,-0.003671,0.003877,-0.003689
422,0.085105,0.1194109999999999,-0.989191,-0.002005,0.005131,-0.005789
423,0.085038,0.11942,-0.989195,-0.002793,0.005549,-0.006517
424,0.084966,0.119417,-0.989202,-0.00144,0.004637,-0.004557
425,0.084913,0.1194,-0.989208,-0.000883,0.004928,-0.003345
426,0.084861,0.119362,-0.989218,-0.003929,0.006264,-0.00416
427,0.0848039999999999,0.119353,-0.989224,-0.000667,0.006547,-0.007053
428,0.084741,0.119349,-0.989229,-0.00306,0.006155,-0.0041789999999999
429,0.08471,0.119326,-0.989235,-0.00309,0.006772,-0.005318
430,0.0847049999999999,0.1193299999999999,-0.989235,-0.004535,0.008646,-0.005287
431,0.08467,0.119335,-0.989237,-0.002074,0.006382,-0.003744
432,0.084634,0.119298,-0.989245,-0.00303,0.007151,-0.001768
433,0.084577,0.119255,-0.989255,-0.002408,0.00718,-0.006122
434,0.0845289999999999,0.119215,-0.989264,-0.00207,0.005282,-0.004862
435,0.084502,0.119197,-0.989268,-0.0041189999999999,0.005314,-0.005193
436,0.084532,0.119194,-0.989266,-0.001768,0.004936,-0.002372
437,0.084586,0.1192049999999999,-0.98926,-0.00347,0.005978,-0.004194
438,0.084583,0.119214,-0.989259,-0.004047,0.00658,-0.004271
439,0.084558,0.119208,-0.989262,-0.001565,0.008279,-0.004024
440,0.084552,0.119203,-0.989263,-0.002841,0.008925,-0.006159
441,0.084544,0.119188,-0.989266,-0.001292,0.004561,-0.00193
442,0.084558,0.11914,-0.98927,-0.0017329999999999,0.005005,-0.005649
443,0.084526,0.119183,-0.989268,-0.000206,0.007862,-0.008535
444,0.084454,0.119219,-0.989269,-0.001599,0.009931,-0.005588
445,0.084488,0.119219,-0.989267,-0.0003509999999999,0.005293,-0.00611
446,0.084539,0.119248,-0.989259,-0.004445,0.0047909999999999,-0.004149
447,0.084537,0.119293,-0.989254,-0.00487,0.006623,-0.003788
448,0.0845419999999999,0.119304,-0.989252,-0.003838,0.007969,-0.004095
449,0.08453,0.119248,-0.98926,-0.004497,0.005385,-0.004271
450,0.08454,0.119189,-0.989266,-0.003928,0.0052159999999999,-0.0074379999999999
451,0.084598,0.119192,-0.989261,-0.0027949999999999,0.005091,-0.004743
452,0.084686,0.119214,-0.98925,-0.000732,0.0046409999999999,-0.004951
453,0.0848039999999999,0.119267,-0.989234,-0.002666,0.006023,-0.002282
454,0.084927,0.11934,-0.989215,-0.002911,0.003128,-0.000623
455,0.08499,0.119406,-0.989201,-0.001082,0.006692,-0.004863
456,0.084989,0.1194839999999999,-0.989192,-0.001737,0.007179,-0.00707
457,0.084959,0.1195869999999999,-0.989182,-0.002012,0.0066489999999999,-0.006317
458,0.0849549999999999,0.119684,-0.989171,-0.0004059999999999,0.006247,-0.005397
459,0.084962,0.1197849999999999,-0.989158,-0.001206,0.007352,-0.005654
460,0.08497,0.119875,-0.989146,-0.003061,0.00511,-0.004277
461,0.0849289999999999,0.11997,-0.989138,-0.0029739999999999,0.007868,-0.005598
462,0.084897,0.120043,-0.989132,-0.0033539999999999,0.00836,-0.005848
463,0.084905,0.1201079999999999,-0.989123,-0.003148,0.006311,-0.004849
464,0.084899,0.1201849999999999,-0.989115,-0.003967,0.006479,-0.00292
465,0.084894,0.120276,-0.989104,-0.004145,0.007409,-0.004625
466,0.084863,0.1203559999999999,-0.989097,-0.00512,0.005849,-0.006936
467,0.084855,0.1204339999999999,-0.989088,-0.004243,0.005665,-0.003878
468,0.084867,0.1205,-0.989079,-0.001859,0.00714,-0.004848
469,0.08494,0.120569,-0.989064,-0.002146,0.009329,-0.006297
470,0.085066,0.120642,-0.989045,-0.005217,0.006861,-0.006591
471,0.085196,0.1207029999999999,-0.989026,-0.002112,0.007135,-0.00542
472,0.085321,0.120778,-0.989006,-0.0023899999999999,0.006374,-0.005577
473,0.085439,0.120843,-0.988988,0.001673,0.005439,-0.005382
474,0.0855269999999999,0.120941,-0.988968,0.0014939999999999,0.004975,-0.004028
475,0.085551,0.121076,-0.98895,-0.001048,0.005496,-0.005618
476,0.085579,0.12119,-0.988933,-0.001076,0.006129,-0.004383
477,0.085587,0.1212859999999999,-0.988921,-0.001694,0.006018,-0.005464
478,0.085574,0.1213289999999999,-0.988917,-0.0055119999999999,0.002618,-0.002065
479,0.085621,0.121371,-0.988908,-0.0032689999999999,0.0038729999999999,-0.00592
480,0.085592,0.121486,-0.988896,-0.003424,0.0085799999999999,-0.006298
481,0.0855669999999999,0.121588,-0.988886,-0.005107,0.006723,-0.005026
482,0.085655,0.121644,-0.988871,-0.004264,0.00447,-0.005132
483,0.085767,0.1217289999999999,-0.988851,-0.0037359999999999,0.00646,-0.002833
484,0.085838,0.12183,-0.988832,-0.0068579999999999,0.005459,-0.002562
485,0.085944,0.121852,-0.98882,-0.00611,0.006566,-0.003505
486,0.085998,0.121853,-0.988816,-0.005722,0.0070069999999999,-0.0057979999999999
487,0.086058,0.121859,-0.98881,-0.001387,0.007062,-0.005148
488,0.086185,0.121832,-0.988802,2.7e-05,0.007638,-0.004561
489,0.086301,0.121807,-0.988795,0.000308,0.007618,-0.003545
490,0.086347,0.121765,-0.988796,0.000231,0.00351,0.000377
491,0.086339,0.121716,-0.988803,-0.001622,0.003619,-0.0038729999999999
492,0.086244,0.1216579999999999,-0.988818,-0.002473,0.006103,-0.0040409999999999
493,0.086109,0.121573,-0.98884,-0.00455,0.004037,-0.006399
494,0.086022,0.1215069999999999,-0.988856,-0.001534,0.00476,-0.004964
495,0.085963,0.1214599999999999,-0.988867,-0.005397,0.007065,-0.004465
496,0.085935,0.121431,-0.988873,-0.00366,0.00595,-0.003788
497,0.085876,0.1213839999999999,-0.988884,-0.004898,0.004959,-0.003014
498,0.085785,0.121304,-0.988902,-0.002258,0.0070379999999999,-0.004186
499,0.0856789999999999,0.121228,-0.98892,-0.004502,0.004734,-0.005816
500,0.0856059999999999,0.121151,-0.988936,-0.0038799999999999,0.007434,-0.005449
501,0.085592,0.121119,-0.988941,-0.002523,0.0075739999999999,-0.004528
502,0.085596,0.121092,-0.988944,-0.002634,0.007555,-0.005243
503,0.085613,0.121022,-0.988951,-0.0044659999999999,0.006083,-0.004274
504,0.085592,0.120919,-0.988965,-0.005376,0.004707,-0.003588
505,0.0855409999999999,0.120842,-0.988979,-0.002762,0.002785,-0.0059549999999999
506,0.085496,0.120744,-0.988995,-0.003571,0.005217,-0.00455
507,0.085462,0.120668,-0.989007,-0.0022559999999999,0.005522,-0.004767
508,0.0854429999999999,0.120613,-0.989016,-0.003321,0.004555,-0.005949
509,0.085428,0.120569,-0.989022,-0.003229,0.006567,-0.0060799999999999
510,0.085377,0.120512,-0.989034,-0.0023989999999999,0.005495,-0.006923
511,0.085313,0.120448,-0.989047,-0.0016489999999999,0.004292,-0.00343
512,0.085271,0.120378,-0.989059,-0.00327,0.004988,-0.003052
513,0.085194,0.1203109999999999,-0.989074,-0.003011,0.004811,-0.002885
514,0.085137,0.1202579999999999,-0.989085,-0.004723,0.002132,-0.005284
515,0.085146,0.1202319999999999,-0.989088,-0.002916,0.00344,-0.008608
516,0.085097,0.120221,-0.989093,-0.000426,0.009815,-0.004529
517,0.085114,0.120221,-0.989092,-0.001297,0.008517,-0.004332
518,0.085133,0.120182,-0.989095,-0.002034,0.002956,-0.003077
519,0.085156,0.120207,-0.98909,-0.003384,0.006426,-0.00914
520,0.08517,0.1202369999999999,-0.989085,-0.005901,0.005145,-0.006139
521,0.085215,0.1201839999999999,-0.989088,-0.004542,0.0050149999999999,-0.002642
522,0.085244,0.1201069999999999,-0.989094,-0.003991,0.002634,-0.001399
523,0.085274,0.120088,-0.989094,-0.0054859999999999,0.005202,-0.00494
524,0.085288,0.120095,-0.989092,-0.004035,0.005408,-0.007612
525,0.085302,0.1200619999999999,-0.989095,-0.003011,0.006937,-0.004435
526,0.085288,0.119998,-0.989104,-0.00315,0.005765,-0.001207
527,0.085261,0.119938,-0.989113,-0.004664,0.005306,-0.002311
528,0.085184,0.119893,-0.989126,-0.00297,0.0067709999999999,-0.005778
529,0.085094,0.1198579999999999,-0.989138,-0.003704,0.004135,-0.006575
530,0.08506,0.1198,-0.989147,-0.003502,0.004177,-0.00539
531,0.085016,0.119793,-0.989152,-0.001077,0.005863,-0.004775
532,0.085017,0.119821,-0.989149,-0.003123,0.004965,-0.002245
533,0.085035,0.1198369999999999,-0.989145,-0.00311,0.005728,-0.005011
534,0.085004,0.1198029999999999,-0.989152,-0.004499,0.004785,-0.004531
535,0.084961,0.1197309999999999,-0.989164,-0.003341,0.0062759999999999,-0.005236
536,0.084951,0.119692,-0.98917,-0.002294,0.006102,-0.006558
537,0.084947,0.1197,-0.989169,-0.003633,0.004201,-0.005917
538,0.084976,0.11971,-0.989166,-0.005096,0.0038399999999999,-0.004456
539,0.085001,0.1197119999999999,-0.989163,-0.002405,0.005867,-0.006976
540,0.084976,0.119699,-0.989167,-0.002914,0.003531,-0.001434
541,0.084937,0.11967,-0.989174,-0.002494,0.0044909999999999,-0.0044329999999999
542,0.0849169999999999,0.119657,-0.989177,-0.0024739999999999,0.0026579999999999,-0.00562
543,0.0849029999999999,0.119666,-0.989177,-0.002994,0.0061579999999999,-0.004521
544,0.084928,0.119657,-0.989176,-0.00308,0.006319,-0.004629
545,0.084954,0.119651,-0.989175,-0.003426,0.004266,-0.002814
546,0.084973,0.119665,-0.989171,-0.004132,0.004068,-0.00439
547,0.084949,0.11969,-0.98917,-0.001987,0.005432,-0.003536
548,0.084908,0.119719,-0.98917,-0.005349,0.004762,-0.004375
549,0.084908,0.119722,-0.98917,-0.003289,0.004195,-0.00407
550,0.084901,0.1197569999999999,-0.989166,-0.003068,0.0070739999999999,-0.004104
551,0.084944,0.11975,-0.989164,-0.003462,0.00226,-0.005557
552,0.085036,0.119754,-0.989155,-0.002333,0.0059479999999999,-0.007381
553,0.085023,0.1198019999999999,-0.98915,-0.003709,0.0073799999999999,-0.008057
554,0.0850549999999999,0.119865,-0.98914,-0.001483,0.004006,-0.005245
555,0.085207,0.119938,-0.989118,-0.002016,0.003368,-0.0031149999999999
556,0.085352,0.120058,-0.989091,-0.0016879999999999,0.002791,-0.005477
557,0.085433,0.12018,-0.989069,-0.004088,0.003889,-0.0065819999999999
558,0.085477,0.120244,-0.989058,-0.005109,0.003459,-0.002931
559,0.085537,0.1203019999999999,-0.989045,-0.003674,0.005659,-0.002501
560,0.085635,0.120347,-0.989032,-0.0027489999999999,0.00621,-0.006437
561,0.085699,0.120414,-0.989018,-0.001287,0.004006,-0.006176
562,0.085712,0.1204619999999999,-0.989011,-0.003589,0.007086,-0.0069459999999999
563,0.085689,0.120511,-0.989007,-0.00407,0.004992,-0.005424
564,0.085684,0.120521,-0.989006,-0.004339,0.0048909999999999,-0.002724
565,0.085688,0.120545,-0.989003,-0.0041909999999999,0.004714,-0.0030629999999999
566,0.085656,0.120564,-0.989003,-0.003274,0.00233,-0.004542
567,0.0856519999999999,0.12062,-0.988997,-0.002827,0.003235,-0.006807
568,0.08564,0.120709,-0.988987,-0.000801,0.004306,-0.007961
569,0.085642,0.120798,-0.988976,-0.000147,0.004096,-0.00547
570,0.085684,0.120841,-0.988967,-0.000174,0.0080959999999999,-0.003892
571,0.085725,0.120863,-0.988961,-0.002214,0.00699,-0.00402
572,0.085712,0.1209079999999999,-0.988956,-0.003986,0.00513,-0.005032
573,0.085684,0.120996,-0.988948,-0.002188,0.005194,-0.006261
574,0.085699,0.121053,-0.98894,-0.002371,0.006663,-0.001875
575,0.085744,0.1211,-0.98893,-0.002858,0.005975,-0.002418
576,0.085753,0.1211859999999999,-0.988919,-0.003722,0.004318,-0.004123
577,0.085752,0.121272,-0.988908,-0.001813,0.005025,-0.005782
578,0.085736,0.121332,-0.988902,-0.005047,0.004309,-0.0054979999999999
579,0.085759,0.121368,-0.988896,-0.003514,0.002396,-0.003017
580,0.0858029999999999,0.121397,-0.988889,-0.005268,0.005312,-0.005161
581,0.085832,0.121464,-0.988878,-0.004792,0.005581,-0.005843
582,0.085847,0.121564,-0.988864,-0.0031899999999999,0.006442,-0.005994
583,0.085926,0.121638,-0.988848,-0.001698,0.00533,-0.0038729999999999
584,0.086032,0.121709,-0.98883,-0.00278,0.004481,-0.004044
585,0.086123,0.1218009999999999,-0.988811,-0.002535,0.004755,-0.005238
586,0.086146,0.1219079999999999,-0.988796,-0.002467,0.006571,-0.004612
587,0.086183,0.1219789999999999,-0.988784,-0.002245,0.006195,-0.00435
588,0.086214,0.122044,-0.988773,-0.0038929999999999,0.006542,-0.0060079999999999
589,0.0862309999999999,0.122066,-0.988769,-0.004078,0.002858,-9.2e-05
590,0.086287,0.122091,-0.988761,-0.005003,0.002695,-0.00715
591,0.08623,0.12218,-0.988755,-0.004657,0.007886,-0.006698
592,0.086177,0.122249,-0.988751,-0.005275,0.007954,-0.005801
593,0.086244,0.122208,-0.98875,-0.00139,0.004562,-0.005222
594,0.086359,0.122204,-0.988741,-0.003534,0.006611,-0.004637
595,0.086397,0.1221839999999999,-0.98874,-0.006883,0.006234,-0.002013
596,0.0864159999999999,0.122084,-0.988751,-0.0074519999999999,0.00435,-0.004978
597,0.086392,0.121958,-0.988768,-0.006512,0.003546,-0.007829
598,0.086422,0.121894,-0.988774,-0.002132,0.005654,-0.005306
599,0.086537,0.1218829999999999,-0.988765,0.00114,0.005238,-0.0033159999999999
600,0.086663,0.121848,-0.988758,0.000557,0.003793,-0.0037189999999999
601,0.086762,0.1218619999999999,-0.988748,-0.001755,0.00262,-0.003897
602,0.086912,0.121977,-0.98872,-0.0036299999999999,0.002306,-0.004078
603,0.087074,0.1220619999999999,-0.988696,-0.004463,0.007882,-0.003507
604,0.087309,0.122083,-0.988672,-0.007444,0.012362,-0.004248
605,0.087632,0.1220319999999999,-0.98865,-0.00702,0.009865,-0.003751
606,0.087962,0.1219869999999999,-0.988626,-0.004557,0.004142,-0.003165
607,0.088185,0.122031,-0.988601,-0.000966,-0.007911,-0.004151
608,0.088137,0.122216,-0.988582,0.004957,-0.007363,-0.00185
609,0.087604,0.122514,-0.988593,0.008053,-0.0035259999999999,-0.004037
610,0.086694,0.1227549999999999,-0.988643,0.002676,0.005434,-0.0039109999999999
611,0.085719,0.122819,-0.98872,-0.006693,0.02162,-0.007984
612,0.085016,0.122788,-0.988785,-0.009363,0.029281,-0.00972
613,0.084842,0.1225599999999999,-0.988828,-0.014698,0.032499,-0.0023829999999999
614,0.085276,0.122063,-0.988852,-0.016825,0.020378,-0.001214
615,0.085999,0.121395,-0.988872,-0.0170449999999999,0.013447,0.000453
616,0.086701,0.120852,-0.988877,-0.007828,-0.011614,-0.003417
617,0.087253,0.120501,-0.988871,-0.0033909999999999,-0.015246,-0.006887
618,0.087357,0.1205779999999999,-0.988853,0.019867,-0.02988,-0.0075769999999999
619,0.0869559999999999,0.121064,-0.988829,0.021473,-0.01616,-0.000338
620,0.086012,0.121557,-0.988851,0.009553,0.000864,0.001714
621,0.084838,0.121886,-0.988912,0.004853,0.016069,-0.00178
622,0.083753,0.121984,-0.988992,-0.0149819999999999,0.040873,-0.010688
623,0.083156,0.121649,-0.989084,-0.022411,0.041299,-0.0049039999999999
624,0.083308,0.120858,-0.989168,-0.024196,0.032966,-0.00305
625,0.083998,0.120093,-0.989203,-0.017393,0.0069819999999999,-0.009149
626,0.084785,0.1197829999999999,-0.989173,-0.000343,-0.0038469999999999,-0.008157
627,0.0855799999999999,0.1198299999999999,-0.989099,0.00492,-0.0154449999999999,-0.008017
628,0.086101,0.1202569999999999,-0.989002,0.020161,-0.01137,-0.000668
629,0.085959,0.1207859999999999,-0.98895,0.011652,0.002276,0.003904
630,0.085308,0.121155,-0.988961,0.007542,0.007949,0.001534
631,0.0846,0.1211869999999999,-0.989018,-0.0047659999999999,0.0174229999999999,-0.00674
632,0.084091,0.120959,-0.989089,-0.014099,0.015775,-0.009904
633,0.084063,0.120547,-0.989142,-0.0159319999999999,0.014646,-0.0132229999999999
634,0.084495,0.120156,-0.989153,-0.0110239999999999,0.0036229999999999,-0.004286
635,0.0849299999999999,0.1199619999999999,-0.989139,-0.003479,-0.001142,-0.002698
636,0.08514,0.11996,-0.989121,-0.001033,-0.000484,-0.001357
637,0.085009,0.120102,-0.989115,0.001142,0.000458,-0.000616
638,0.084575,0.1202309999999999,-0.989137,-0.002696,0.007103,-0.002715
639,0.084049,0.120318,-0.989171,-0.004947,0.01254,-0.006282
640,0.083742,0.120318,-0.989197,-0.006792,0.0151949999999999,-0.008575
641,0.083758,0.1201579999999999,-0.989215,-0.009967,0.012563,-0.008527
642,0.084112,0.119915,-0.989215,-0.007665,0.009403,-0.008634
643,0.084676,0.119722,-0.98919,-0.003179,0.003157,-0.004188
644,0.085222,0.119592,-0.989159,-2e-06,-8.499999999999999e-05,-0.000923
645,0.0855419999999999,0.119593,-0.989131,0.002868,-0.001398,-0.001439
646,0.085629,0.1196859999999999,-0.989112,0.00159,-0.001094,-0.000985
647,0.085526,0.119825,-0.989104,0.000122,0.00461,-0.004045
648,0.085368,0.119948,-0.989103,-0.001308,0.006487,-0.00461
649,0.085238,0.1200069999999999,-0.989107,-0.004672,0.008259,-0.003035
650,0.085124,0.1200069999999999,-0.989117,-0.004802,0.007923,-0.006336
651,0.085049,0.1199809999999999,-0.989127,-0.004162,0.005935,-0.004266
652,0.084988,0.119943,-0.989136,-0.003155,0.006415,-0.00505
653,0.084908,0.119904,-0.989148,-0.0035479999999999,0.005477,-0.002918
654,0.084784,0.119864,-0.989163,-0.006049,0.007837,-0.0026579999999999
655,0.0846259999999999,0.119819,-0.989182,-0.005952,0.007378,-0.003585
656,0.0845,0.1198289999999999,-0.989192,-0.002851,0.005857,-0.003545
657,0.084393,0.119854,-0.989198,-0.004391,0.00475,-0.005827
658,0.084326,0.119906,-0.989197,-0.000433,0.0032479999999999,-0.008849
659,0.084316,0.120021,-0.989184,0.001637,0.003774,-0.008023
660,0.0844289999999999,0.120195,-0.989154,0.001768,0.00273,-0.007474
661,0.08463,0.120428,-0.989108,0.000361,0.021815,-0.001081
662,0.08487,0.120498,-0.989079,-0.007264,0.03061,0.002934
663,0.085237,0.120125,-0.989093,-0.01703,0.0025859999999999,0.002719
664,0.085587,0.119584,-0.989128,-0.007386,-0.019349,-0.0106579999999999
665,0.085418,0.1195619999999999,-0.989145,-0.000884,-0.027261,-0.016912
666,0.084632,0.120219,-0.989133,0.012811,-0.017619,-0.01108
667,0.08361,0.120965,-0.989129,0.002205,0.00785,-0.003974
668,0.0827779999999999,0.121571,-0.989125,-0.006622,0.028712,-0.002559
669,0.082159,0.12205,-0.989118,-0.00588,0.035222,-9.4e-05
670,0.0819169999999999,0.122221,-0.989117,-0.0126579999999999,0.03853,-0.002735
671,0.082138,0.121879,-0.989141,-0.012222,0.0324029999999999,-0.007396
672,0.082624,0.121251,-0.989177,-0.009855,0.0073799999999999,-0.008031
673,0.083324,0.120833,-0.98917,0.001179,-0.009612,-0.006039
674,0.084225,0.120795,-0.989098,0.000278,-0.009574,-0.006111
675,0.085063,0.121209,-0.988975,0.0049479999999999,-0.0145199999999999,-0.003624
676,0.085495,0.121824,-0.988863,0.008804,-0.010267,0.002397
677,0.0854299999999999,0.122348,-0.988804,0.003498,-0.007999,0.0051
678,0.084987,0.122666,-0.988802,0.000599,-0.004334,0.001666
679,0.0843759999999999,0.12283,-0.988834,-0.006053,0.013385,-0.010403
680,0.083841,0.122927,-0.988868,-0.008631,0.018354,-0.011254
681,0.083574,0.122939,-0.988889,-0.007539,0.020631,-0.011462
682,0.083491,0.122829,-0.98891,-0.0078219999999999,0.016606,0.000583
683,0.083359,0.122745,-0.988931,-0.008713,0.009503,0.0027559999999999
684,0.08305,0.122664,-0.988967,-0.007839,0.009202,0.000991
685,0.082578,0.122514,-0.989025,-0.0081459999999999,0.007597,-0.005726
686,0.081919,0.122291,-0.989108,-0.0060979999999999,0.009804,-0.005323
687,0.081336,0.121921,-0.989201,-0.0063549999999999,0.0091209999999999,-0.004451
688,0.081065,0.121596,-0.989264,-0.00352,0.0053729999999999,-0.005808
689,0.081138,0.121477,-0.989272,-0.000144,0.002562,-0.008103
690,0.081604,0.121544,-0.989226,0.000396,-0.000252,-0.010133
691,0.0824179999999999,0.121706,-0.989138,-0.000783,0.006361,-0.004056
692,0.083248,0.121738,-0.989065,-0.002087,0.011258,0.004049
693,0.083802,0.121554,-0.989041,-0.004929,0.009824,0.003552
694,0.083967,0.1212859999999999,-0.98906,-0.002088,0.004873,-0.0008849999999999
695,0.083809,0.121043,-0.989103,-0.001777,-0.002833,-0.005099
696,0.083593,0.120896,-0.989139,0.00059,-0.004441,-0.005215
697,0.083445,0.12084,-0.989159,-0.000971,-0.001852,-0.003685
698,0.083338,0.120931,-0.989156,-0.0033979999999999,-0.004445,-0.003184
699,0.083239,0.121148,-0.989138,-0.0031609999999999,0.000297,-0.005796
700,0.083316,0.1214599999999999,-0.989094,-0.0049159999999999,0.008561,-0.010388
701,0.0835279999999999,0.121718,-0.989044,-0.001695,0.012056,-0.007996
702,0.083698,0.12192,-0.989005,-0.002796,0.020231,-0.00506
703,0.0838049999999999,0.121996,-0.988986,-0.002552,0.01843,-0.001187
704,0.0839179999999999,0.121963,-0.988981,-0.001703,0.0097819999999999,-0.0016809999999999
705,0.084019,0.121916,-0.988978,-0.000264,0.008836,-0.004842
706,0.084144,0.1219349999999999,-0.988965,-0.006492,0.001402,-0.005313
707,0.084341,0.121917,-0.98895,-0.006186,0.001725,-0.002459
708,0.084466,0.121898,-0.988942,-0.004083,-0.001156,-0.00381
709,0.084491,0.121898,-0.98894,-0.0031309999999999,0.003895,-0.008939
710,0.084481,0.1219359999999999,-0.988936,-0.000985,0.00639,-0.009904
711,0.084464,0.121996,-0.98893,-0.002722,0.008711,-0.009666
712,0.084549,0.121991,-0.988923,-0.001755,0.009189,-0.0033399999999999
713,0.084711,0.121982,-0.988911,-0.0033659999999999,0.0106319999999999,-0.0036729999999999
714,0.0848889999999999,0.12201,-0.988892,-0.004002,0.010223,-0.0046689999999999
715,0.085046,0.1220589999999999,-0.988872,-2.4e-05,0.0053219999999999,-0.0036659999999999
716,0.085222,0.122122,-0.988849,-0.000277,0.001321,-0.004421
717,0.08541,0.122198,-0.988824,-0.001044,0.000315,-0.003959
718,0.085558,0.1223609999999999,-0.988791,-0.003008,0.004043,-0.004816
719,0.085737,0.122511,-0.988757,-0.003462,0.004259,-0.005033
720,0.085954,0.122617,-0.988725,-0.004304,0.002001,-0.004287
721,0.0861659999999999,0.122722,-0.988693,-0.004898,0.004033,-0.004227
722,0.086408,0.122847,-0.988657,-0.0063,0.007692,-0.002936
723,0.08662,0.122916,-0.98863,-0.005886,0.009882,-0.0017109999999999
724,0.086878,0.122903,-0.988609,-0.007318,0.010367,-0.005395
725,0.087432,0.122924,-0.988557,-0.007064,0.006486,-0.0060409999999999
726,0.08837,0.123002,-0.988464,-0.007864,0.009155,-0.006912
727,0.089742,0.1230869999999999,-0.98833,-0.007803,0.005392,-0.004911
728,0.091547,0.123054,-0.988168,-0.002069,0.0069349999999999,-0.0062159999999999
729,0.0938659999999999,0.1230059999999999,-0.987957,-0.003153,0.002528,-0.010548
730,0.0966409999999999,0.123091,-0.987679,0.0035789999999999,0.005663,-0.010597
731,0.099513,0.123268,-0.987371,0.007955,0.001869,-0.004389
732,0.101999,0.123357,-0.987106,0.003942,0.011103,-0.000625
733,0.103868,0.1235589999999999,-0.986886,0.00392,0.002875,-0.0034549999999999
734,0.105444,0.1240339999999999,-0.98666,0.008906,0.001867,-0.0093879999999999
735,0.106655,0.124471,-0.986474,0.010487,-0.002859,-0.009726
736,0.107704,0.124903,-0.986306,0.015511,0.010473,-0.00164
737,0.1083819999999999,0.125422,-0.986166,0.001756,0.0074819999999999,-0.002177
738,0.108196,0.125803,-0.986138,-0.012615,0.00469,0.001656
739,0.107306,0.125938,-0.986218,-0.00936,0.00512,-0.004871
740,0.1068109999999999,0.126075,-0.986254,-0.022216,0.010827,-0.005629
741,0.1068559999999999,0.1262049999999999,-0.986232,-0.016738,0.007218,-0.0043219999999999
742,0.1070769999999999,0.126255,-0.986202,-0.015387,-0.001209,-0.003331
743,0.107153,0.126281,-0.98619,-0.010077,0.002762,-0.00116
744,0.107195,0.126298,-0.986184,-0.005464,0.003493,0.000329
745,0.107192,0.126296,-0.986184,-0.003646,0.005952,-0.002921
746,0.107074,0.126171,-0.986213,0.005093,-0.001018,-0.0039759999999999
747,0.107016,0.126078,-0.986231,0.005319,-0.001566,-0.002386
748,0.1069109999999999,0.126019,-0.98625,0.009544,0.002186,-0.006181
749,0.106636,0.12597,-0.986286,0.003105,0.014808,-0.006939
750,0.1063119999999999,0.125806,-0.986342,-0.002964,0.017658,-0.003053
751,0.106194,0.125582,-0.986383,-0.005074,0.008863,-0.003088
752,0.106293,0.1254,-0.986396,-0.0077819999999999,0.008725,-0.004083
753,0.1066,0.125408,-0.986362,-0.001222,-0.000774,-0.006787
754,0.1068839999999999,0.1255869999999999,-0.986308,-0.002544,-0.005195,-0.0044909999999999
755,0.107031,0.125795,-0.986266,-0.003836,-0.001497,-0.0038009999999999
756,0.107095,0.125989,-0.986234,-0.005364,0.002292,-0.003924
757,0.107168,0.126136,-0.986207,-0.003652,0.01426,-0.0036
758,0.1072369999999999,0.1262579999999999,-0.986184,-0.003295,0.0153889999999999,-0.006476
759,0.107289,0.126243,-0.98618,-0.003971,0.018075,-0.005671
760,0.107367,0.126116,-0.986188,-0.009878,0.007932,-0.005587
761,0.1075049999999999,0.126022,-0.986185,-0.007102,0.005096,-0.0057729999999999
762,0.1076299999999999,0.126005,-0.986174,-0.0002379999999999,-0.002882,-0.0030989999999999
763,0.1075869999999999,0.126016,-0.986177,0.004474,-0.0039299999999999,-0.002242
764,0.1073869999999999,0.126066,-0.986192,0.006428,-0.002073,-0.0032939999999999
765,0.1072289999999999,0.126175,-0.986196,0.0046939999999999,-0.000977,-0.006282
766,0.107171,0.126288,-0.986187,0.006705,0.003107,-0.009571
767,0.107124,0.126417,-0.986176,0.004051,0.017336,-0.009353
768,0.1070069999999999,0.126516,-0.986176,-0.002805,0.02653,-0.00328
769,0.107031,0.126465,-0.98618,-0.0075439999999999,0.024048,0.003087
770,0.107264,0.1261509999999999,-0.986195,-0.014383,0.009103,0.001042
771,0.107299,0.125838,-0.986231,-0.0180199999999999,0.002885,-0.006292
772,0.107139,0.125699,-0.986266,-0.0240699999999999,0.005115,-0.0079659999999999
773,0.107037,0.125557,-0.986295,-0.025876,0.005013,-0.006869
774,0.1069809999999999,0.125314,-0.986332,-0.017778,0.001563,-0.0042229999999999
775,0.107082,0.125156,-0.986341,-0.006465,0.000301,-0.00313
776,0.1073269999999999,0.125097,-0.986322,0.006122,-0.000647,-0.0058189999999999
777,0.107598,0.125051,-0.986299,0.013083,0.000224,-0.004546
778,0.1078609999999999,0.12495,-0.986283,0.0172,0.002797,-0.006286
779,0.10809,0.124858,-0.986269,0.012561,0.003544,-0.00604
780,0.108206,0.124767,-0.986268,0.010584,0.007756,-0.001861
781,0.108217,0.124662,-0.98628,0.007765,0.004778,-0.002993
782,0.108168,0.124581,-0.986296,0.002168,0.002632,-0.005724
783,0.1080579999999999,0.124567,-0.98631,-0.000179,0.0040799999999999,-0.006168
784,0.10793,0.124621,-0.986317,-0.006337,0.002454,-0.004131
785,0.107749,0.1247109999999999,-0.986325,-0.00614,0.005432,-0.00104
786,0.1075079999999999,0.124786,-0.986342,-0.00619,0.011139,-0.000673
787,0.107091,0.1247349999999999,-0.986394,-0.010793,0.0134639999999999,-0.003581
788,0.106754,0.12455,-0.986454,-0.021152,0.0122,-0.007061
789,0.1066869999999999,0.124343,-0.986487,-0.0258459999999999,0.019471,-0.0136199999999999
790,0.1066599999999999,0.124055,-0.986526,-0.011506,0.027343,-0.007111
791,0.1066759999999999,0.123503,-0.986594,-0.000429,0.0172289999999999,0.006323
792,0.106871,0.122834,-0.986656,0.004946,0.0078269999999999,0.004417
793,0.107053,0.1223809999999999,-0.986693,0.005252,0.001643,-0.009355
794,0.10705,0.122228,-0.986712,0.0103819999999999,-0.0036969999999999,-0.005308
795,0.107084,0.1220339999999999,-0.986732,0.009249,-0.005533,-0.006096
796,0.107169,0.1218539999999999,-0.986745,0.005013,-0.002637,-0.005229
797,0.107135,0.1218099999999999,-0.986755,0.001935,0.00052,-0.006272
798,0.1071309999999999,0.121869,-0.986748,0.002473,0.003329,-0.010414
799,0.107273,0.1219799999999999,-0.986718,0.001156,0.0102989999999999,-0.003348
800,0.107602,0.122146,-0.986662,-0.000226,0.008561,-0.002657
801,0.108,0.12233,-0.986596,-0.002134,0.0079189999999999,-0.005332
802,0.108238,0.122516,-0.986547,0.000389,0.003399,-0.001567
803,0.108347,0.1228279999999999,-0.986496,-0.006998,0.0012109999999999,-0.00499
804,0.108454,0.123231,-0.986434,-0.010324,0.005767,-0.004457
805,0.108473,0.123455,-0.986404,-0.008222,0.021335,-0.00113
806,0.108331,0.1233829999999999,-0.986428,-0.007806,0.017654,-0.001059
807,0.108165,0.12328,-0.98646,-0.0068769999999999,0.014889,-0.0056359999999999
808,0.108102,0.123217,-0.986474,-0.006417,0.0153789999999999,-0.005011
809,0.108114,0.123045,-0.986495,-0.008992,0.012407,-0.002702
810,0.108036,0.122751,-0.98654,-0.005954,-0.0002529999999999,-0.004259
811,0.1079789999999999,0.12252,-0.986575,-0.009575,0.000848,-0.006132
812,0.1079519999999999,0.122404,-0.986592,-0.002284,0.0105,-0.004833
813,0.107847,0.122242,-0.986623,0.004824,0.008251,-0.001063
814,0.107795,0.121995,-0.98666,0.008614,0.003066,-0.002552
815,0.107829,0.121815,-0.986678,0.008108,0.001705,-0.005311
816,0.107814,0.1217839999999999,-0.986684,0.0074659999999999,0.003842,-0.005153
817,0.107748,0.1217299999999999,-0.986698,0.0037479999999999,0.00472,-0.0045439999999999
818,0.107693,0.121641,-0.986715,-0.001003,0.0087,-0.004817
819,0.107671,0.1215779999999999,-0.986725,-0.001119,0.008091,-0.006592
820,0.107676,0.121547,-0.986728,0.004049,0.007176,-0.006604
821,0.1076579999999999,0.121567,-0.986728,0.004601,0.0075069999999999,-0.003675
822,0.107588,0.121621,-0.986729,0.000933,0.008292,-0.001751
823,0.107492,0.121641,-0.986737,-0.001809,0.003222,-0.001529
824,0.107405,0.121655,-0.986744,-0.004118,0.008014,-0.006679
825,0.107292,0.121724,-0.986748,-0.004966,0.010005,-0.005592
826,0.107166,0.121755,-0.986758,0.000958,0.008066,-0.003492
827,0.1070869999999999,0.121722,-0.986771,-0.002839,0.005308,-0.005005
828,0.107095,0.121745,-0.986767,-0.002801,0.007512,-0.002552
829,0.107109,0.121817,-0.986757,-0.0020829999999999,0.006083,-0.003386
830,0.107073,0.121859,-0.986755,-0.002627,0.010068,-0.004044
831,0.106984,0.121845,-0.986767,-0.001713,0.0062369999999999,-0.005253
832,0.106905,0.1218349999999999,-0.986776,-0.0019089999999999,0.0075439999999999,-0.004374
833,0.1068089999999999,0.1218349999999999,-0.986787,-0.004286,0.010093,-0.00273
834,0.106733,0.121799,-0.986799,-0.002866,0.009579,-0.004671
835,0.106677,0.121717,-0.986816,-0.001849,0.015062,-0.004838
836,0.106629,0.1215609999999999,-0.98684,0.000381,0.00524,0.000207
837,0.106599,0.121364,-0.986867,0.00421,0.005879,-0.0010019999999999
838,0.106549,0.1212039999999999,-0.986893,0.00185,0.003415,-0.0028539999999999
839,0.106446,0.121111,-0.986915,0.003432,0.001417,-0.006356
840,0.106277,0.121068,-0.986939,0.004822,0.003886,-0.0038909999999999
841,0.106096,0.121014,-0.986965,-0.00052,0.005055,-0.005101
842,0.105977,0.120983,-0.986981,-0.001287,0.005818,-0.007892
843,0.105901,0.121031,-0.986984,-0.000371,0.008791,-0.005906
844,0.1058829999999999,0.121109,-0.986976,-0.002489,0.012283,-0.0009699999999999
845,0.105845,0.121031,-0.986989,-0.002131,0.010057,0.00144
846,0.105715,0.1208819999999999,-0.987022,-0.0030989999999999,0.0052619999999999,-0.0007099999999999
847,0.105554,0.120839,-0.987044,-0.001504,0.005947,-0.006166
848,0.1054079999999999,0.120827,-0.987061,-0.00235,0.0090099999999999,-0.004592
849,0.105253,0.120728,-0.98709,0.000598,0.0076739999999999,-0.004548
850,0.105117,0.1206119999999999,-0.987119,0.001999,0.006326,-0.002826
851,0.105049,0.120525,-0.987136,0.001045,0.0092819999999999,-0.001313
852,0.104973,0.12043,-0.987156,0.003014,0.007912,-0.003795
853,0.1048299999999999,0.120303,-0.987187,0.001966,0.008985,-0.008098
854,0.1047,0.120093,-0.987226,0.003408,0.006234,-0.001849
855,0.104526,0.119939,-0.987263,0.002606,0.006846,-0.004817
856,0.104344,0.119841,-0.987294,0.00648,0.006395,-0.00236
857,0.10417,0.1197319999999999,-0.987326,0.002535,0.002109,-0.003336
858,0.104017,0.1196869999999999,-0.987348,7.900000000000001e-05,0.00455,-0.0073569999999999
859,0.103869,0.119748,-0.987356,-0.00075,0.008212,-0.005442
860,0.10382,0.1198019999999999,-0.987355,0.001588,0.008235,-0.002163
861,0.1037849999999999,0.119782,-0.987361,0.00144,0.007217,-0.000936
862,0.103736,0.1197839999999999,-0.987365,0.002908,0.007749,-0.0068819999999999
863,0.10367,0.119825,-0.987367,-0.000872,0.010729,-0.00656
864,0.103628,0.119822,-0.987372,0.003336,0.008856,-0.0038079999999999
865,0.103623,0.119781,-0.987378,0.002395,0.009309,-0.0017879999999999
866,0.1036069999999999,0.119763,-0.987382,0.002991,0.005618,-0.001403
867,0.103555,0.119804,-0.987382,0.003974,0.006585,-0.006392
868,0.10342,0.119867,-0.987389,0.0033159999999999,0.006506,-0.007271
869,0.103268,0.119888,-0.987402,0.003406,0.006378,-0.002832
870,0.103169,0.119898,-0.987411,0.003871,0.0072689999999999,-0.003632
871,0.1031319999999999,0.119948,-0.987409,0.003542,0.0073709999999999,-0.003543
872,0.103043,0.120039,-0.987407,0.007659,0.006823,-0.0026899999999999
873,0.102913,0.12015,-0.987407,0.00373,0.005994,-0.006367
874,0.1027569999999999,0.120229,-0.987414,0.00526,0.007136,-0.003019
875,0.102624,0.1203279999999999,-0.987415,0.000968,0.00989,-0.005428
876,0.102605,0.120395,-0.987409,-0.001073,0.0091209999999999,-0.002886
877,0.102665,0.12044,-0.987398,-0.001865,0.008161,-0.005202
878,0.1027049999999999,0.120569,-0.987378,0.0006889999999999,0.011801,-0.009143
879,0.102774,0.120726,-0.987351,0.001368,0.0141009999999999,-0.006377
880,0.102964,0.120748,-0.987329,-0.000272,0.009317,-0.0005099999999999
881,0.103103,0.1207299999999999,-0.987316,0.00618,0.006375,-0.002948
882,0.103156,0.1208549999999999,-0.987296,0.003854,0.004664,-0.006311
883,0.103183,0.121013,-0.987274,0.00401,0.0025989999999999,-0.005555
884,0.103118,0.121091,-0.987271,0.012589,-0.001356,-0.002124
885,0.1030089999999999,0.121202,-0.987269,0.011448,-0.0008869999999999,-0.00469
886,0.10295,0.12147,-0.987242,0.009599,0.0139979999999999,-0.00316
887,0.102951,0.121637,-0.987221,0.00557,0.016257,-0.000557
888,0.103064,0.121673,-0.987205,-0.004965,0.026902,-0.001076
889,0.103292,0.121571,-0.987194,-0.007436,0.0053219999999999,0.000789
890,0.103657,0.121319,-0.987186,-0.001667,-0.017269,-0.007397
891,0.103763,0.121274,-0.987181,0.008313,-0.020047,-0.011278
892,0.1033369999999999,0.121669,-0.987177,0.023418,0.000584,-0.007956
893,0.102492,0.12217,-0.987203,0.023072,0.021202,-0.003031
894,0.101671,0.1225,-0.987247,0.016462,0.0243199999999999,-0.0005
895,0.101259,0.122638,-0.987272,-0.015016,0.0239069999999999,0.010908
896,0.101417,0.122529,-0.98727,-0.025276,0.002548,-0.002995
897,0.101726,0.122324,-0.987263,-0.021373,-0.002527,-0.011623
898,0.101873,0.1223799999999999,-0.987241,0.008356,-0.010915,-0.016772
899,0.101746,0.1226339999999999,-0.987223,0.027236,1e-06,-0.000982
900,0.101392,0.122846,-0.987233,0.0309319999999999,0.004031,0.006321
901,0.1007049999999999,0.123098,-0.987272,0.008639,0.019786,0.002591
902,0.099921,0.123397,-0.987314,0.001366,0.0231789999999999,-0.00025
903,0.099446,0.123405,-0.987361,-0.011647,0.025566,-0.00652
904,0.099613,0.123154,-0.987375,-0.012058,-0.001969,-0.009573
905,0.100016,0.123019,-0.987352,-0.0036409999999999,-0.0066549999999999,-0.006392
906,0.100277,0.123275,-0.987293,0.014103,-0.00154,-0.003582
907,0.1001799999999999,0.1236309999999999,-0.987258,0.018274,0.010371,-0.003235
908,0.1000009999999999,0.12397,-0.987234,0.013449,0.0221479999999999,-0.002573
909,0.100116,0.124299,-0.987181,7.3e-05,0.022262,0.000334
910,0.100006,0.124193,-0.987206,-0.011505,0.02841,0.000755
911,0.099822,0.1238109999999999,-0.987272,-0.0280139999999999,0.012481,-0.005251
912,0.099261,0.123174,-0.987408,-0.0077239999999999,0.0002839999999999,-0.007739
913,0.099219,0.122774,-0.987463,0.005136,-0.006792,-0.007853
914,0.099502,0.122648,-0.98745,0.011384,-0.000547,-0.003715
915,0.099625,0.122567,-0.987447,0.022109,0.000984,-0.0010019999999999
916,0.099375,0.1224109999999999,-0.987492,0.013678,0.008265,0.005818
917,0.099119,0.122253,-0.987537,0.0167259999999999,0.00734,-0.004009
918,0.098984,0.122169,-0.987561,0.024429,0.004952,-0.007465
919,0.0987649999999999,0.122071,-0.987595,0.020208,0.008559,-0.003326
920,0.098451,0.121864,-0.987652,0.011336,0.004159,0.001217
921,0.097844,0.121524,-0.987754,0.010249,0.0052299999999999,0.0021739999999999
922,0.096805,0.121201,-0.987896,0.002484,0.007094,-0.002903
923,0.09551,0.120798,-0.988072,-0.004171,0.008001,-0.002453
924,0.094953,0.1201859999999999,-0.9882,-0.021986,-0.0020829999999999,-0.002904
925,0.09399,0.119342,-0.988394,-0.0292769999999999,0.004361,0.001731
926,0.091277,0.117724,-0.988842,0.001481,0.020596,0.013455
927,0.088057,0.116185,-0.989316,0.024034,0.0064189999999999,-0.029925
928,0.087766,0.116051,-0.989358,-0.00247,0.002754,-0.043128
929,0.089889,0.116722,-0.989088,-0.001388,0.006966,-0.007982
930,0.091757,0.117076,-0.988875,0.018015,0.019063,0.01042
931,0.092767,0.1171779999999999,-0.988769,0.0158449999999999,0.013743,0.010131
932,0.093418,0.117256,-0.988698,0.016613,0.00837,-0.00056
933,0.093609,0.117183,-0.988689,0.024723,0.008351,-0.008092
934,0.0934649999999999,0.116975,-0.988727,0.0249889999999999,0.001037,-0.008664
935,0.093351,0.11684,-0.988754,0.013858,-0.004429,-0.0033729999999999
936,0.093139,0.1169119999999999,-0.988765,0.011856,-0.001921,-0.001515
937,0.092814,0.117196,-0.988762,0.011037,0.001396,-0.00402
938,0.092421,0.1174549999999999,-0.988768,0.005952,0.004661,-0.005571
939,0.092157,0.117626,-0.988773,0.002737,0.009129,-0.008694
940,0.091969,0.1177069999999999,-0.98878,-0.002126,0.012634,-0.001057
941,0.091852,0.117717,-0.98879,-0.008737,0.010945,0.001073
942,0.091728,0.117704,-0.988803,-0.010048,0.0118129999999999,-0.005856
943,0.091676,0.117744,-0.988803,-0.009873,0.010903,-0.008298
944,0.091772,0.117781,-0.98879,-0.004141,0.009904,-0.003321
945,0.091919,0.1177059999999999,-0.988785,-0.0010689999999999,0.007019,-0.000534
946,0.092009,0.117668,-0.988781,0.0039229999999999,0.00486,-0.0014529999999999
947,0.092023,0.117703,-0.988776,0.011706,0.0074189999999999,-0.004403
948,0.092008,0.1176329999999999,-0.988786,0.012805,0.0069849999999999,-0.003097
949,0.092028,0.117489,-0.988801,0.014386,0.004231,-0.003585
950,0.092079,0.1173589999999999,-0.988812,0.015404,0.003964,-0.003696
951,0.092136,0.117296,-0.988814,0.014828,0.0054,-0.002245
952,0.0921299999999999,0.117293,-0.988815,0.0123159999999999,0.0069739999999999,-0.004731
953,0.092109,0.1172859999999999,-0.988818,0.009225,0.007867,-0.005186
954,0.092017,0.117264,-0.988829,0.008478,0.008819,-0.003191
955,0.091892,0.117238,-0.988843,0.002895,0.007991,-0.000338
956,0.091823,0.117266,-0.988846,-0.000331,0.0037359999999999,-0.003189
957,0.091789,0.117398,-0.988834,-0.0002819999999999,0.006168,-0.007184
958,0.091744,0.1175549999999999,-0.988819,0.002662,0.00775,-0.004864
959,0.09176,0.117663,-0.988805,0.0034549999999999,0.006177,-0.004649
960,0.091775,0.1177049999999999,-0.988799,0.005057,0.0099049999999999,-0.0015119999999999
961,0.0917019999999999,0.117742,-0.988801,0.003101,0.011256,-0.002807
962,0.091665,0.117769,-0.988801,0.00181,0.009123,-0.008254
963,0.091725,0.117802,-0.988792,0.00468,0.007076,-0.005288
964,0.091888,0.117835,-0.988773,0.005188,0.0067379999999999,-0.004086
965,0.092007,0.117869,-0.988758,0.007175,0.005758,-0.0023769999999999
966,0.09203,0.1179279999999999,-0.988748,0.012874,0.005744,-0.000769
967,0.091926,0.117997,-0.98875,0.012704,0.006057,-0.003239
968,0.091836,0.1180539999999999,-0.988751,0.009833,0.006367,-0.00458
969,0.091813,0.118149,-0.988742,0.009048,0.00621,-0.006116
970,0.091805,0.118229,-0.988733,0.0055,0.007869,-0.0026609999999999
971,0.091799,0.118309,-0.988724,0.003081,0.008995,-0.0040729999999999
972,0.091762,0.118398,-0.988717,0.004521,0.00944,-0.004508
973,0.091745,0.1184809999999999,-0.988709,0.003699,0.007328,-0.005233
974,0.091769,0.118557,-0.988697,0.003202,0.0051,-0.005855
975,0.09172,0.118669,-0.988688,0.004456,0.008742,-0.003392
976,0.091651,0.118819,-0.988677,0.005258,0.012223,-0.001969
977,0.091602,0.118925,-0.988669,0.005063,0.0053729999999999,-0.003091
978,0.091666,0.119058,-0.988647,0.004312,0.007392,-0.004441
979,0.091722,0.119157,-0.98863,0.00511,0.007628,-0.004595
980,0.091804,0.1191589999999999,-0.988622,0.002464,0.00784,-0.0019329999999999
981,0.091823,0.1191359999999999,-0.988623,0.003041,0.008641,-0.0035189999999999
982,0.091779,0.119123,-0.988629,0.0063799999999999,0.007464,-0.003803
983,0.091711,0.119113,-0.988636,0.008051,0.0076879999999999,-0.005154
984,0.091625,0.119083,-0.988648,0.010334,0.009091,-0.002777
985,0.091526,0.11905,-0.988661,0.008023,0.007812,-0.0030989999999999
986,0.0914519999999999,0.1190119999999999,-0.988672,0.005029,0.007056,-0.003943
987,0.0913799999999999,0.118988,-0.988682,0.004567,0.010941,-0.002712
988,0.091267,0.118926,-0.9887,0.0033979999999999,0.007951,-0.004587
989,0.091171,0.118842,-0.988719,0.006516,0.0086909999999999,-0.003835
990,0.091101,0.1187829999999999,-0.988732,0.005899,0.0088569999999999,-0.001853
991,0.091075,0.118713,-0.988743,0.0062,0.006547,-0.000606
992,0.091026,0.118664,-0.988753,0.007347,0.00481,-0.004197
993,0.090958,0.118645,-0.988762,0.006164,0.0040659999999999,-0.003517
994,0.090898,0.118631,-0.988769,0.006667,0.0075439999999999,-0.005936
995,0.090843,0.118573,-0.988781,0.008065,0.006869,-0.002003
996,0.090766,0.1185109999999999,-0.988796,0.0061119999999999,0.008732,-0.0032549999999999
997,0.090672,0.118466,-0.98881,0.005321,0.00571,-0.002554
998,0.090587,0.1184,-0.988825,0.00716,0.008706,-0.003835
999,0.090502,0.1183319999999999,-0.988841,0.007826,0.006683,-0.002827
1000,0.090462,0.118266,-0.988853,0.005561,0.0072989999999999,-0.003457
1001,0.090407,0.118201,-0.988866,0.005281,0.0069209999999999,-0.002559
1002,0.090326,0.118142,-0.98888,0.004476,0.006461,-0.002484
1003,0.090282,0.1180819999999999,-0.988891,0.00684,0.006872,-0.005097
1004,0.090272,0.1180359999999999,-0.988898,0.006224,0.010092,-0.003061
1005,0.090335,0.1180109999999999,-0.988895,0.006147,0.004639,-0.003476
1006,0.090421,0.117998,-0.988889,0.007266,0.003066,-0.0039549999999999
1007,0.09046,0.1180369999999999,-0.98888,0.006922,0.010152,-0.0060079999999999
1008,0.090456,0.118044,-0.98888,0.008025,0.009214,-0.00465
1009,0.090452,0.1180089999999999,-0.988884,0.01044,0.004336,-0.002235
1010,0.090495,0.118013,-0.98888,0.007955,0.006056,-0.003155
1011,0.090582,0.118041,-0.988869,0.004953,0.005357,-0.004128
1012,0.090616,0.118013,-0.988869,0.004309,0.007231,-0.0017929999999999
1013,0.0906049999999999,0.11793,-0.98888,0.004183,0.007116,-0.002499
1014,0.09067,0.117881,-0.98888,0.0081,0.006981,-0.00372
1015,0.090733,0.117861,-0.988876,0.008891,0.00688,-0.005036
1016,0.090755,0.1178569999999999,-0.988875,0.008717,0.007479,-0.004457
1017,0.090757,0.117839,-0.988877,0.008074,0.005193,-0.001586
1018,0.090798,0.11782,-0.988875,0.006461,0.004983,-0.004319
1019,0.090794,0.1178119999999999,-0.988877,0.0042829999999999,0.0074629999999999,-0.003525
1020,0.090747,0.117791,-0.988883,0.008618,0.007515,-0.002801
1021,0.0907039999999999,0.117753,-0.988892,0.0056549999999999,0.006957,-0.003998
1022,0.090697,0.117752,-0.988893,0.007265,0.00502,-0.003524
1023,0.0907299999999999,0.1178029999999999,-0.988883,0.007948,0.005519,-0.003701
1024,0.0907029999999999,0.117836,-0.988882,0.005489,0.005287,-0.003702
1025,0.09066,0.117827,-0.988887,0.006584,0.007417,-0.003514
1026,0.090608,0.1178319999999999,-0.988891,0.009215,0.006252,-0.004517
1027,0.090572,0.117828,-0.988895,0.005925,0.006256,-0.004818
1028,0.090575,0.117851,-0.988892,0.006669,0.008003,-0.004242
1029,0.090566,0.117855,-0.988892,0.0046479999999999,0.007802,-0.003433
1030,0.090566,0.117866,-0.988891,0.007365,0.006218,-0.003968
1031,0.0905649999999999,0.1178559999999999,-0.988892,0.00494,0.007434,-0.002288
1032,0.0905649999999999,0.117818,-0.988897,0.006679,0.00883,-0.003947
1033,0.09058,0.117792,-0.988899,0.0060539999999999,0.0072689999999999,-0.00425
1034,0.090609,0.117769,-0.988899,0.0062689999999999,0.008513,-0.004204
1035,0.090672,0.117726,-0.988898,0.0033979999999999,0.009487,-0.003045
1036,0.090848,0.117673,-0.988888,0.001956,0.009585,-0.002323
1037,0.091063,0.117603,-0.988877,0.002321,0.002987,-0.0028989999999999
1038,0.0911169999999999,0.117668,-0.988864,0.013253,-0.006889,-0.006848
1039,0.090852,0.1178589999999999,-0.988866,0.016524,0.002868,-0.002544
1040,0.090289,0.118041,-0.988895,0.012693,0.010758,-0.0024219999999999
1041,0.089647,0.118086,-0.988949,0.00955,0.019961,-0.0003549999999999
1042,0.089483,0.117973,-0.988977,-0.005453,0.025353,-0.002097
1043,0.0899799999999999,0.117809,-0.988951,-0.005233,0.006444,-0.0077069999999999
1044,0.090638,0.117753,-0.988898,-0.000444,7.6e-05,-0.009363
1045,0.0908539999999999,0.117863,-0.988865,0.020368,-0.012348,-0.008709
1046,0.090478,0.118091,-0.988872,0.0231539999999999,-0.009326,-0.003468
1047,0.089892,0.118463,-0.988881,0.021238,0.002188,0.001042
1048,0.089376,0.118751,-0.988893,0.002131,0.033135,0.00432
1049,0.089398,0.11868,-0.9889,-0.007993,0.0278649999999999,0.00483
1050,0.089995,0.118301,-0.988891,-0.010604,0.018921,-0.002137
1051,0.090774,0.1179359999999999,-0.988864,0.0038759999999999,-0.006135,-0.0152719999999999
1052,0.091353,0.1179109999999999,-0.988813,0.017961,-0.0189879999999999,-0.014055
1053,0.091754,0.118345,-0.988724,0.025174,-0.013318,-0.011459
1054,0.091975,0.11899,-0.988626,0.021321,0.015455,0.010828
1055,0.092209,0.119403,-0.988555,-0.0137169999999999,0.021696,0.004134
1056,0.092528,0.119473,-0.988516,-0.014037,0.021625,0.004096
1057,0.092736,0.119265,-0.988522,-0.0144889999999999,0.0034,-0.008258
1058,0.092929,0.119024,-0.988533,-0.00806,-0.001425,-0.0095599999999999
1059,0.093252,0.1189099999999999,-0.988516,0.011378,-0.003752,-0.009119
1060,0.093545,0.11912,-0.988463,0.019965,0.000921,-0.007844
1061,0.093689,0.119575,-0.988395,0.019745,0.011331,0.002647
1062,0.093562,0.119946,-0.988362,0.014455,0.016926,0.002598
1063,0.093068,0.1200859999999999,-0.988392,0.011531,0.013429,0.000202
1064,0.09235,0.1199609999999999,-0.988474,0.003949,0.0066409999999999,-0.000448
1065,0.091809,0.119694,-0.988557,0.005954,0.004604,-0.0061329999999999
1066,0.091628,0.119526,-0.988594,0.010911,0.002254,-0.0068439999999999
1067,0.091733,0.119498,-0.988588,0.010577,0.002573,-0.006484
1068,0.091948,0.119601,-0.988555,0.014711,0.00218,-0.003968
1069,0.0919919999999999,0.11975,-0.988533,0.010898,0.003785,0.000237
1070,0.091765,0.1198859999999999,-0.988538,0.003343,0.004016,0.000714
1071,0.091406,0.119968,-0.988561,-0.001791,0.007336,-0.000926
1072,0.09111,0.1200059999999999,-0.988584,-0.005081,0.007878,-0.003116
1073,0.09087,0.1200079999999999,-0.988605,-0.001713,0.009021,-0.007229
1074,0.090693,0.1199799999999999,-0.988625,0.000417,0.011078,-0.005271
1075,0.090624,0.119932,-0.988637,0.0035229999999999,0.007479,-0.00236
1076,0.090627,0.119919,-0.988639,0.007441,0.0097349999999999,-0.004159
1077,0.090616,0.119915,-0.98864,0.008719,0.008259,-0.003013
1078,0.090635,0.119859,-0.988645,0.010759,0.003356,-0.004534
1079,0.090641,0.119845,-0.988646,0.014493,0.007382,-0.00908
1080,0.090658,0.119876,-0.988641,0.0158479999999999,0.009244,-0.00373
1081,0.09075,0.1198819999999999,-0.988632,0.012354,0.003836,-0.002839
1082,0.090848,0.11993,-0.988617,0.012484,0.003148,-0.003479
1083,0.090934,0.120039,-0.988596,0.006402,0.006486,-0.005057
1084,0.090945,0.120057,-0.988593,0.004666,0.008499,-0.000772
1085,0.090901,0.119994,-0.988604,0.004252,0.006928,-0.001539
1086,0.090877,0.119956,-0.988611,0.000645,0.008187,-0.004416
1087,0.090883,0.119989,-0.988607,0.0029579999999999,0.007818,-0.007029
1088,0.0908559999999999,0.120002,-0.988607,0.003413,0.010247,-0.00535
1089,0.090838,0.1199279999999999,-0.988618,0.0037359999999999,0.010611,-0.001372
1090,0.090849,0.119828,-0.988629,0.00519,0.009307,-0.002246
1091,0.090989,0.119728,-0.988629,0.0071709999999999,0.0101549999999999,-0.001469
1092,0.091262,0.119637,-0.988614,0.005647,0.008964,0.000379
1093,0.091601,0.119451,-0.988605,0.004804,-0.007864,-0.004986
1094,0.091922,0.119322,-0.988591,0.0057799999999999,-0.010374,-0.007136
1095,0.091987,0.119525,-0.988561,0.011208,-0.012943,-0.009883
1096,0.091751,0.119956,-0.98853,0.023087,-0.0081549999999999,-0.005946
1097,0.0913539999999999,0.120324,-0.988522,0.017808,0.003684,-0.00162
1098,0.090747,0.1205339999999999,-0.988553,0.011777,0.008479,-0.00043
1099,0.090087,0.120597,-0.988605,-0.001067,0.026726,-0.003475
1100,0.089728,0.120531,-0.988646,-0.003821,0.035597,-0.006502
1101,0.089902,0.120292,-0.988659,-0.005765,0.03611,-0.008823
1102,0.090529,0.119831,-0.988658,-0.004011,0.0245629999999999,0.003246
1103,0.091404,0.119266,-0.988646,-0.003346,0.016492,0.004332
1104,0.0923,0.1188849999999999,-0.988609,0.003067,-0.008564,-0.002816
1105,0.092599,0.118756,-0.988596,0.017111,-0.029736,-0.011984
1106,0.092116,0.1189549999999999,-0.988617,0.0358589999999999,-0.035138,-0.008956
1107,0.09103,0.1193309999999999,-0.988673,0.031117,-0.022743,0.001566
1108,0.089754,0.1197119999999999,-0.988743,0.01898,0.006554,-0.000789
1109,0.08862,0.1200099999999999,-0.988809,-0.000226,0.035813,-0.0086579999999999
1110,0.088035,0.120026,-0.98886,-0.010199,0.046478,-0.0033729999999999
1111,0.08829,0.119551,-0.988895,-0.01427,0.040285,-0.005338
1112,0.089137,0.118949,-0.988891,-0.009792,0.0245449999999999,-0.0038
1113,0.090241,0.118539,-0.98884,-0.002152,0.006781,-0.0074819999999999
1114,0.091263,0.118364,-0.988767,0.005691,-0.0102099999999999,-0.004519
1115,0.091886,0.118472,-0.988697,0.0148949999999999,-0.013156,-0.00227
1116,0.091932,0.118741,-0.98866,0.020693,-0.010785,0.003995
1117,0.091613,0.118951,-0.988665,0.016236,-0.007623,0.00403
1118,0.091094,0.119074,-0.988698,0.012727,0.002569,-0.006068
1119,0.090725,0.119111,-0.988727,0.01247,0.0150139999999999,-0.0066489999999999
1120,0.090769,0.1190119999999999,-0.988735,0.0104269999999999,0.014609,-0.005802
1121,0.0912169999999999,0.1188839999999999,-0.988709,0.0065299999999999,0.011548,-0.002548
1122,0.0917159999999999,0.1188109999999999,-0.988672,0.0036969999999999,0.010919,-0.00582
1123,0.091919,0.118737,-0.988662,0.004104,0.005591,-0.000932
1124,0.091763,0.118663,-0.988685,0.0038179999999999,0.000997,0.000923
1125,0.091412,0.1186359999999999,-0.988721,0.006168,0.00229,-0.000338
1126,0.091021,0.118671,-0.988753,0.0038729999999999,0.006131,-0.006288
1127,0.090746,0.1186789999999999,-0.988777,0.006361,0.007969,-0.007103
1128,0.090663,0.11869,-0.988784,0.003942,0.010994,-0.0067459999999999
1129,0.090741,0.118675,-0.988778,0.006076,0.009163,-0.00225
1130,0.090888,0.118583,-0.988776,0.006936,0.006188,-0.004297
1131,0.091032,0.118505,-0.988772,0.007998,0.005533,-0.001829
1132,0.091144,0.118486,-0.988764,0.007183,0.005828,-0.0041259999999999
1133,0.091168,0.118486,-0.988762,0.009739,0.005202,-0.005684
1134,0.091139,0.1184809999999999,-0.988765,0.009173,0.004627,-0.0030559999999999
1135,0.091093,0.118513,-0.988765,0.010515,0.0066849999999999,-0.003117
1136,0.091015,0.1185359999999999,-0.98877,0.008137,0.004144,-0.0031579999999999
1137,0.090988,0.118538,-0.988772,0.006516,0.004356,-0.005308
1138,0.09101,0.118578,-0.988765,0.0061579999999999,0.005369,-0.004002
1139,0.091071,0.118601,-0.988757,0.0056549999999999,0.00527,-0.005674
1140,0.091137,0.118573,-0.988754,0.006016,0.005877,-0.003159
1141,0.091134,0.118538,-0.988759,0.006415,0.007378,0.000416
1142,0.0910509999999999,0.1185069999999999,-0.98877,0.007308,0.00483,-0.001709
1143,0.090908,0.118516,-0.988782,0.005299,0.006545,-0.004413
1144,0.090754,0.118521,-0.988795,0.008046,0.00744,-0.003499
1145,0.090645,0.1185259999999999,-0.988805,0.007606,0.005681,-0.004756
1146,0.09062,0.118495,-0.988811,0.006151,0.006077,-0.0040479999999999
1147,0.090642,0.118475,-0.988811,0.007624,0.005197,-0.003117
1148,0.090662,0.118439,-0.988814,0.006673,0.006439,-0.001497
1149,0.090686,0.118438,-0.988812,0.008313,0.008378,-0.007755
1150,0.090675,0.118444,-0.988812,0.009164,0.009043,-0.002811
1151,0.090629,0.1184359999999999,-0.988817,0.007104,0.007266,-0.000914
1152,0.090624,0.118423,-0.988819,0.0072459999999999,0.008058,-0.003124
1153,0.090663,0.1184569999999999,-0.988811,0.0076799999999999,0.005094,-0.005405
1154,0.0906889999999999,0.118521,-0.988801,0.00718,0.0046479999999999,-0.002577
1155,0.090702,0.118566,-0.988795,0.007778,0.004832,-0.005285
1156,0.090734,0.118571,-0.988791,0.008891,0.006292,-0.005593
1157,0.090757,0.1185869999999999,-0.988787,0.0074329999999999,0.006642,-0.0005769999999999
1158,0.090849,0.118654,-0.988771,0.005785,0.004134,-0.004408
1159,0.09092,0.118724,-0.988756,0.007881,0.005071,-0.006972
1160,0.090875,0.1188099999999999,-0.98875,0.007956,0.009273,-0.004887
1161,0.090876,0.118913,-0.988737,0.006567,0.005797,-0.0017109999999999
1162,0.090938,0.119016,-0.988719,0.007252,0.001605,-0.001454
1163,0.091023,0.1191579999999999,-0.988694,0.005107,0.009993,-0.006072
1164,0.091069,0.1192599999999999,-0.988678,0.005504,0.010516,-0.004059
1165,0.091114,0.119277,-0.988671,0.004299,0.006089,-0.004233
1166,0.091157,0.119272,-0.988668,0.007826,0.005621,-0.001719
1167,0.0912419999999999,0.119308,-0.988656,0.007589,0.007767,-0.006004
1168,0.091297,0.119374,-0.988643,0.007168,0.008144,-0.003896
1169,0.091335,0.1194279999999999,-0.988633,0.00771,0.006335,-0.0043479999999999
1170,0.091365,0.119444,-0.988628,0.0084739999999999,0.008654,-0.001042
1171,0.091387,0.119438,-0.988627,0.008253,0.003258,-0.002462
1172,0.09141,0.1194539999999999,-0.988623,0.005392,0.005027,-0.003015
1173,0.091383,0.119474,-0.988623,0.00728,0.0066849999999999,-0.003397
1174,0.091357,0.119544,-0.988617,0.0081459999999999,0.004571,-0.005432
1175,0.09135,0.119644,-0.988605,0.008518,0.00557,-0.005535
1176,0.09136,0.1197839999999999,-0.988587,0.008249,0.01048,-0.001983
1177,0.091407,0.119851,-0.988575,0.006249,0.013099,9.5e-05
1178,0.091514,0.119807,-0.98857,0.003152,0.001714,-0.000336
1179,0.091596,0.119742,-0.988571,0.004931,-0.001258,-0.003556
1180,0.091471,0.119772,-0.988579,0.009161,-0.00202,-0.007912
1181,0.091124,0.119889,-0.988596,0.011141,-0.000642,-0.008718
1182,0.090744,0.1200599999999999,-0.988611,0.007187,0.007122,-0.003729
1183,0.090511,0.1202309999999999,-0.988611,0.004277,0.014549,-0.0007379999999999
1184,0.090616,0.1203559999999999,-0.988586,0.000495,0.022039,-0.001892
1185,0.090995,0.120341,-0.988553,0.002526,0.016072,-0.001238
1186,0.0913679999999999,0.120172,-0.98854,0.00577,0.006125,-0.003724
1187,0.091471,0.1199869999999999,-0.988553,0.011816,-0.006965,-0.0043219999999999
1188,0.091209,0.120014,-0.988574,0.017129,-0.006351,-0.004423
1189,0.090755,0.120192,-0.988594,0.010579,0.006227,-0.000664
1190,0.09036,0.12039,-0.988606,0.010973,0.006029,-0.0006519999999999
1191,0.0901899999999999,0.120545,-0.988602,0.003652,0.009475,-4.5e-05
1192,0.0903,0.120623,-0.988583,0.002214,0.019636,-0.005451
1193,0.090509,0.120542,-0.988574,0.000266,0.013811,-0.004163
1194,0.090718,0.1203809999999999,-0.988574,-0.001363,0.012294,-0.005323
1195,0.090844,0.1202,-0.988584,0.004462,0.003381,-0.001436
1196,0.090803,0.120127,-0.988597,0.007143,-0.000499,-0.0018969999999999
1197,0.090577,0.120169,-0.988613,0.009978,0.000361,-0.001118
1198,0.090307,0.120243,-0.988629,0.009165,0.003018,-0.0045049999999999
1199,0.090213,0.120293,-0.988631,0.009259,0.002967,-0.004503
1200,0.090151,0.120324,-0.988633,0.0073989999999999,0.009254,-0.008727
1201,0.090184,0.120275,-0.988636,0.009043,0.013285,-0.004818
1202,0.090366,0.120145,-0.988635,0.007184,0.007022,-0.003507
1203,0.090609,0.120073,-0.988622,0.007886,0.007231,-0.004604
1204,0.090772,0.120047,-0.98861,0.0070209999999999,0.0064329999999999,0.000283
1205,0.090824,0.119979,-0.988613,0.004543,0.004365,0.000225
1206,0.090769,0.119881,-0.98863,0.004628,0.004188,-0.001116
1207,0.090705,0.119845,-0.98864,0.006768,0.006177,-0.0058969999999999
1208,0.0907429999999999,0.119789,-0.988644,0.007875,0.007774,-0.007298
1209,0.090904,0.1197119999999999,-0.988638,0.005714,0.006234,-0.005304
1210,0.091128,0.1196079999999999,-0.98863,0.005582,0.0062619999999999,-0.001619
1211,0.091348,0.119506,-0.988622,0.006415,0.002915,0.000753
1212,0.0914929999999999,0.1194369999999999,-0.988617,0.006667,0.006264,-0.00235
1213,0.0914929999999999,0.119387,-0.988623,0.007338,0.008863,-0.002969
1214,0.091395,0.119349,-0.988637,0.010091,0.005116,-0.0043289999999999
1215,0.091315,0.1193119999999999,-0.988649,0.010553,0.003597,-0.004027
1216,0.091241,0.1193019999999999,-0.988657,0.00994,0.00405,-0.00347
1217,0.091175,0.119318,-0.988661,0.0083579999999999,0.0048119999999999,-0.005464
1218,0.091096,0.1192869999999999,-0.988672,0.00595,0.00794,-0.004141
1219,0.091038,0.119221,-0.988685,0.007702,0.00555,-0.005104
1220,0.091023,0.119155,-0.988695,0.005977,0.005739,-0.003111
1221,0.090997,0.119113,-0.988702,0.004187,0.009473,-0.004462
1222,0.090932,0.119112,-0.988708,0.006114,0.007795,-0.005555
1223,0.090876,0.119149,-0.988709,0.004065,0.006675,-0.004776
1224,0.09083,0.119167,-0.988711,0.005407,0.006337,-0.003767
1225,0.09079,0.119153,-0.988716,0.007369,0.007739,-0.0028
1226,0.090765,0.119143,-0.98872,0.00825,0.005964,-0.0033759999999999
1227,0.090798,0.1191339999999999,-0.988718,0.008323,0.006217,-0.002966
1228,0.090852,0.11914,-0.988712,0.00775,0.0053869999999999,-0.0062369999999999
1229,0.09089,0.1191609999999999,-0.988706,0.011115,0.004938,-0.004107
1230,0.09092,0.1191769999999999,-0.988701,0.00576,0.008523,-0.002723
1231,0.090875,0.119152,-0.988708,0.006736,0.007068,-0.0028079999999999
1232,0.090807,0.119131,-0.988717,0.007017,0.006326,-0.002662
1233,0.090724,0.119139,-0.988724,0.007116,0.004,-0.0034479999999999
1234,0.090678,0.1191869999999999,-0.988722,0.008169,0.008254,-0.006074
1235,0.090639,0.119195,-0.988725,0.005568,0.0064459999999999,-0.004317
1236,0.090622,0.119209,-0.988725,0.006821,0.007561,-0.0018149999999999
1237,0.090636,0.1192329999999999,-0.988721,0.0077069999999999,0.008804,-0.001697
1238,0.090629,0.119239,-0.988721,0.008187,0.006661,-0.001224
1239,0.090655,0.1192109999999999,-0.988722,0.005735,0.006964,-0.004732
1240,0.090682,0.119209,-0.988719,0.008607,0.0075,-0.005116
1241,0.090686,0.119256,-0.988713,0.009,0.00727,-0.003993
1242,0.090748,0.119315,-0.988701,0.008389,0.005548,-0.001305
1243,0.090845,0.11935,-0.988687,0.008322,0.004399,-0.003973
1244,0.090928,0.119376,-0.988677,0.004683,0.005029,-0.004838
1245,0.090963,0.119389,-0.988672,0.0045119999999999,0.007839,-0.004813
1246,0.091001,0.11934,-0.988674,0.005571,0.0058579999999999,-0.002064
1247,0.091082,0.119305,-0.988671,0.007292,0.007816,-0.000587
1248,0.0912309999999999,0.119276,-0.988661,0.004564,0.010302,-0.00049
1249,0.091345,0.119169,-0.988663,0.006173,0.00728,-0.0018
1250,0.091399,0.118986,-0.98868,0.005235,-0.005567,-0.003263
1251,0.091281,0.118891,-0.988702,0.008466,-0.008326,-0.004935
1252,0.090781,0.118931,-0.988744,0.012979,5.7e-05,-0.003001
1253,0.090071,0.118971,-0.988804,0.010728,0.0072349999999999,-0.002651
1254,0.089504,0.1190619999999999,-0.988844,0.006809,0.012697,-0.006975
1255,0.089407,0.119189,-0.988838,0.0016879999999999,0.020932,-0.006462
1256,0.089791,0.1193029999999999,-0.988789,0.003074,0.017858,-0.0042369999999999
1257,0.090495,0.119289,-0.988727,0.0022789999999999,0.0119519999999999,-0.0033539999999999
1258,0.091169,0.1192119999999999,-0.988674,0.007983,0.003194,-0.0032229999999999
1259,0.091473,0.119188,-0.988649,0.0134,-0.007219,-0.003172
1260,0.091403,0.1192829999999999,-0.988644,0.013516,-0.0100299999999999,-0.002903
1261,0.091157,0.119493,-0.988641,0.012541,-0.005449,-0.004416
1262,0.090938,0.119756,-0.98863,0.007572,0.002162,-0.004611
1263,0.090896,0.120003,-0.988604,0.0041659999999999,0.013053,-0.0073069999999999
1264,0.091016,0.120094,-0.988582,0.000308,0.0152819999999999,-0.002904
1265,0.091148,0.120038,-0.988576,0.001564,0.008166,-0.002101
1266,0.091225,0.119964,-0.988578,0.006019,0.0035409999999999,-0.002648
1267,0.0911039999999999,0.120014,-0.988583,0.0084599999999999,0.003064,-0.005069
1268,0.090853,0.12013,-0.988592,0.007383,0.002093,-0.003244
1269,0.090588,0.120296,-0.988596,0.006336,0.004399,-0.0033619999999999
1270,0.090463,0.120465,-0.988587,0.006323,0.012622,-0.002166
1271,0.090476,0.1205859999999999,-0.988571,0.007654,0.015279,-0.004593
1272,0.090656,0.120523,-0.988562,0.005199,0.014228,-0.002191
1273,0.0909659999999999,0.1204109999999999,-0.988548,0.006767,0.007153,-0.006692
1274,0.091257,0.12037,-0.988526,0.010245,0.0041719999999999,-0.004959
1275,0.091488,0.12042,-0.988498,0.01125,-0.0018899999999999,-0.00375
1276,0.091649,0.1205369999999999,-0.988469,0.011729,-0.004082,-0.000575
1277,0.0917019999999999,0.120725,-0.988441,0.010196,0.002093,-0.001564
1278,0.09168,0.120946,-0.988416,0.0085849999999999,0.00674,-0.004336
1279,0.09168,0.121108,-0.988397,0.0072879999999999,0.004762,-0.004081
1280,0.091727,0.121199,-0.988381,0.006235,0.004304,-0.006385
1281,0.091762,0.121305,-0.988365,0.006429,0.008761,-0.006615
1282,0.091805,0.121451,-0.988343,0.007087,0.010736,-0.004577
1283,0.091899,0.121583,-0.988318,0.008976,0.004164,-0.004419
1284,0.092272,0.121902,-0.988244,0.013441,-4.5e-05,-0.007911
1285,0.093064,0.12252,-0.988093,0.004699,0.006219,0.001673
1286,0.093884,0.1229859999999999,-0.987958,0.001483,0.016052,0.004834
1287,0.0943919999999999,0.1231039999999999,-0.987894,-0.007722,0.0185889999999999,0.005152
1288,0.094377,0.122928,-0.987918,-0.011811,0.005261,0.000278
1289,0.094548,0.122583,-0.987944,-0.012516,0.002646,-0.005799
1290,0.095212,0.1224519999999999,-0.987897,-0.002363,0.000152,-0.018252
1291,0.0961809999999999,0.122644,-0.987779,0.014185,0.009894,-0.0064379999999999
1292,0.097538,0.122822,-0.987624,0.016262,0.011578,0.003508
1293,0.099354,0.122924,-0.98743,0.0231889999999999,0.010453,-0.000775
1294,0.100937,0.1231869999999999,-0.987237,0.025192,0.010022,-0.009147
1295,0.102281,0.1235849999999999,-0.987049,0.0301199999999999,0.004375,-0.007794
1296,0.103737,0.124016,-0.986843,0.036155,-0.000329,-0.005467
1297,0.105289,0.12451,-0.986616,0.020703,0.000871,-0.003282
1298,0.106803,0.1252079999999999,-0.986365,0.019204,0.004187,0.000678
1299,0.10801,0.125855,-0.986151,0.015922,0.001693,0.000586
1300,0.108995,0.126321,-0.985983,-0.000841,-0.022729,0.005057
1301,0.109269,0.126701,-0.985904,-0.000168,-0.022407,0.000247
1302,0.1088089999999999,0.126987,-0.985918,-0.005431,0.032468,-0.0078409999999999
1303,0.108176,0.126794,-0.986013,0.0031219999999999,0.024405,-0.00062
1304,0.1078809999999999,0.1263369999999999,-0.986104,0.003157,0.0050409999999999,0.001714
1305,0.107545,0.1262049999999999,-0.986157,0.0097489999999999,-0.007965,-0.003589
1306,0.106902,0.126523,-0.986187,0.002412,0.0037719999999999,-0.005833
1307,0.106119,0.126741,-0.986243,-0.000421,0.004301,0.000769
1308,0.105213,0.12661,-0.986357,0.003994,0.004783,-0.001772
1309,0.104474,0.126469,-0.986454,0.002169,0.009441,-0.0061
1310,0.103906,0.126462,-0.986514,0.006552,0.013781,-0.005002
1311,0.103698,0.126351,-0.986551,0.005631,0.012092,-0.004035
1312,0.103767,0.126094,-0.986576,0.013878,0.004338,-0.008297
1313,0.103852,0.125914,-0.98659,0.010589,0.007875,-0.002194
1314,0.103867,0.1257599999999999,-0.986608,0.009811,0.010089,0.005422
1315,0.103753,0.1255,-0.986654,0.006553,0.009236,0.0008439999999999
1316,0.103447,0.12522,-0.986721,0.0024649999999999,0.002572,-0.006504
1317,0.103099,0.125005,-0.986785,0.001653,0.003626,-0.007356
1318,0.102889,0.124775,-0.986836,0.004533,0.002895,-0.0020559999999999
1319,0.102713,0.124457,-0.986894,0.007349,-0.000769,-0.004591
1320,0.102477,0.1242549999999999,-0.986944,0.011216,0.010693,-0.0076849999999999
1321,0.102376,0.124167,-0.986966,0.0125069999999999,0.014948,-0.005161
1322,0.102282,0.123926,-0.987006,0.014906,0.00231,0.000296
1323,0.102194,0.123699,-0.987044,0.010889,-0.002987,-0.003725
1324,0.102092,0.1237559999999999,-0.987047,0.0065819999999999,0.006462,-0.000715
1325,0.102118,0.123875,-0.987029,0.008508,0.007976,0.0005639999999999
1326,0.102146,0.1238359999999999,-0.987031,0.006909,0.004796,-0.003264
1327,0.102085,0.123826,-0.987039,0.0077329999999999,0.007262,-0.005088
1328,0.102031,0.1239609999999999,-0.987028,0.008565,0.007448,-0.005435
1329,0.1020549999999999,0.12408,-0.98701,0.006298,0.008534,-0.003529
1330,0.102057,0.12415,-0.987001,0.008097,0.008693,-0.000334
1331,0.101996,0.124216,-0.986999,0.006509,0.005682,-0.000473
1332,0.101966,0.124293,-0.986992,0.005472,0.006963,-0.004279
1333,0.101907,0.1244069999999999,-0.986984,0.001914,0.007597,-0.004517
1334,0.101828,0.124503,-0.98698,0.004663,0.005319,-0.004704
1335,0.1017769999999999,0.124567,-0.986977,0.007323,0.005774,-0.002982
1336,0.101729,0.124717,-0.986964,0.007508,0.007714,-0.004171
1337,0.101664,0.124858,-0.986952,0.008092,0.008733,-0.001451
1338,0.101613,0.124868,-0.986956,0.008143,0.004801,-0.002271
1339,0.101574,0.124838,-0.986964,0.007572,0.005121,-0.00594
1340,0.101551,0.124894,-0.986959,0.0060539999999999,0.0055229999999999,-0.0035039999999999
1341,0.101502,0.12493,-0.98696,0.006821,0.007059,-0.003625
1342,0.101438,0.124929,-0.986966,0.006304,0.0059299999999999,-0.003268
1343,0.101387,0.124925,-0.986972,0.008248,0.003859,-0.002545
1344,0.101373,0.124958,-0.98697,0.007422,0.004208,-0.002532
1345,0.101338,0.1249859999999999,-0.98697,0.008647,0.004866,-0.0054009999999999
1346,0.101283,0.124991,-0.986975,0.008,0.003961,-0.002695
1347,0.101256,0.124991,-0.986977,0.007523,0.0048,-0.002509
1348,0.101246,0.125026,-0.986974,0.011562,0.004917,-0.0024059999999999
1349,0.101219,0.125053,-0.986973,0.01078,0.005059,-0.002162
1350,0.101159,0.1250869999999999,-0.986975,0.007712,0.00565,-0.000787
1351,0.101089,0.12511,-0.986979,0.007798,0.003064,-0.004552
1352,0.100994,0.125129,-0.986987,0.008213,0.004769,-0.004621
1353,0.10087,0.125177,-0.986993,0.007803,0.0075739999999999,-0.0048579999999999
1354,0.1008059999999999,0.125201,-0.986997,0.004327,0.006711,-0.0027949999999999
1355,0.100814,0.1251779999999999,-0.986999,0.004914,0.003042,-0.001923
1356,0.1008169999999999,0.125151,-0.987002,0.0070019999999999,0.005586,-0.0059479999999999
1357,0.100781,0.125225,-0.986996,0.00809,0.011432,-0.005985
1358,0.100815,0.125282,-0.986986,0.008926,0.008217,-0.001234
1359,0.100851,0.125228,-0.986989,0.013834,0.003892,-0.000285
1360,0.100828,0.125228,-0.986991,0.006258,0.003724,-0.003915
1361,0.100848,0.125301,-0.98698,0.006375,0.005391,-0.004735
1362,0.100859,0.125289,-0.98698,0.006959,0.0056619999999999,-0.003224
1363,0.10086,0.125242,-0.986986,0.008057,0.004534,-0.003752
1364,0.100878,0.125254,-0.986983,0.009001,0.0084739999999999,-0.002306
1365,0.100863,0.125249,-0.986985,0.009962,0.0076549999999999,-0.001861
1366,0.100779,0.1251779999999999,-0.987003,0.009236,0.007528,-0.0036899999999999
1367,0.100686,0.125115,-0.98702,0.010352,0.003379,-0.0024059999999999
1368,0.100632,0.1251,-0.987027,0.007705,0.005332,-0.005831
1369,0.100592,0.12513,-0.987028,0.008829,0.006141,-0.003313
1370,0.1005269999999999,0.125114,-0.987036,0.011457,0.004678,-0.003381
1371,0.10046,0.125121,-0.987042,0.010014,0.005418,-0.002917
1372,0.100424,0.125134,-0.987044,0.008402,0.0069,-0.001817
1373,0.100385,0.125114,-0.987051,0.0084409999999999,0.008019,-0.001734
1374,0.100358,0.1250619999999999,-0.98706,0.006712,0.004958,-0.003952
1375,0.100327,0.125064,-0.987063,0.007431,0.004971,-0.003431
1376,0.10032,0.125097,-0.987059,0.0089629999999999,0.006525,-0.004487
1377,0.100295,0.125081,-0.987064,0.010179,0.007091,-0.002834
1378,0.100297,0.125093,-0.987063,0.013061,0.009154,-0.0057659999999999
1379,0.100422,0.125217,-0.987034,0.010875,0.008801,-0.000927
1380,0.100685,0.125347,-0.986991,0.0057,0.010365,0.001578
1381,0.100721,0.125272,-0.986997,0.002414,-0.002912,-0.0034509999999999
1382,0.100599,0.125109,-0.98703,-0.002363,-0.0065489999999999,-0.004898
1383,0.100677,0.125161,-0.987015,-0.004363,0.004645,-0.010925
1384,0.101084,0.125331,-0.986952,0.0072989999999999,0.0150199999999999,-0.00371
1385,0.101216,0.125143,-0.986962,0.020824,-0.002264,0.008554
1386,0.100981,0.124865,-0.987022,0.0248889999999999,-0.005175,0.0064
1387,0.100651,0.124943,-0.987045,0.025723,0.003155,-0.011322
1388,0.100592,0.125315,-0.987004,0.016488,0.002828,-0.003367
1389,0.100743,0.125448,-0.986972,0.012905,0.002345,0.000842
1390,0.100719,0.125436,-0.986976,0.002812,0.000785,-0.007821
1391,0.100448,0.125691,-0.986971,0.0130009999999999,0.0182909999999999,-0.0006389999999999
1392,0.100131,0.125894,-0.986977,0.016156,0.016868,0.005013
1393,0.099932,0.125794,-0.98701,0.013441,0.004852,-0.000783
1394,0.099743,0.1257609999999999,-0.987034,0.00864,0.012163,-0.005901
1395,0.099509,0.125841,-0.987047,0.004617,0.012496,-0.00128
1396,0.099262,0.125701,-0.98709,0.000866,0.004899,0.000411
1397,0.099013,0.125478,-0.987143,0.000444,0.005443,-0.005044
1398,0.098827,0.125362,-0.987177,0.0068099999999999,0.010747,-0.00704
1399,0.09875,0.125218,-0.987203,0.008962,0.010356,-0.0041
1400,0.098719,0.124998,-0.987234,0.007498,0.008791,-0.000727
1401,0.098743,0.124718,-0.987267,0.005536,0.013237,-0.004921
1402,0.098867,0.1244779999999999,-0.987284,0.0067239999999999,0.005695,-0.00205
1403,0.0989309999999999,0.124178,-0.987316,0.013252,0.001676,-0.003804
1404,0.098939,0.1239519999999999,-0.987343,0.010497,-0.0029649999999999,-0.004173
1405,0.09883,0.123814,-0.987372,0.014543,-0.001423,-0.006067
1406,0.098713,0.1237559999999999,-0.987391,0.0169789999999999,0.006966,-0.005072
1407,0.09862,0.123693,-0.987408,0.013334,0.008814,-0.000263
1408,0.0985809999999999,0.123542,-0.987431,0.00585,0.009438,-0.005459
1409,0.098614,0.123348,-0.987451,0.009082,0.012669,-0.006842
1410,0.098672,0.123147,-0.987471,0.008673,0.005988,-0.003527
1411,0.0987519999999999,0.122916,-0.987492,0.010959,0.0044329999999999,-0.002087
1412,0.098838,0.122745,-0.987504,0.013436,-0.000644,-0.001784
1413,0.098863,0.122676,-0.98751,0.014297,0.001973,-0.0044329999999999
1414,0.098782,0.12267,-0.987519,0.0138889999999999,0.006038,-0.001403
1415,0.098686,0.1226319999999999,-0.987534,0.013146,0.00571,-9.2e-05
1416,0.098656,0.122565,-0.987545,0.012657,0.005503,-0.002613
1417,0.09865,0.12251,-0.987552,0.009916,0.007311,-0.0063289999999999
1418,0.09858,0.1224809999999999,-0.987563,0.010383,0.011675,-0.0037549999999999
1419,0.098523,0.122378,-0.987581,0.006396,0.006803,-0.000883
1420,0.098435,0.122156,-0.987618,0.004928,0.005347,-0.001472
1421,0.098332,0.1219539999999999,-0.987653,0.005123,0.009165,-0.005679
1422,0.098158,0.121845,-0.987684,0.00612,0.0138979999999999,-0.004779
1423,0.097953,0.121584,-0.987736,0.0092859999999999,0.009138,-0.003246
1424,0.097653,0.121166,-0.987817,0.012668,0.00951,-0.002448
1425,0.097428,0.120905,-0.987871,0.0159139999999999,0.00588,-0.004454
1426,0.097416,0.1207569999999999,-0.987891,0.018017,0.000795,-0.0034729999999999
1427,0.09749,0.1206079999999999,-0.987902,0.017272,0.000104,-0.00099
1428,0.097509,0.120472,-0.987916,0.016367,-0.000217,-0.001921
1429,0.097499,0.1204119999999999,-0.987924,0.011082,0.0067849999999999,-0.004965
1430,0.097395,0.120346,-0.987943,0.012102,0.007675,-0.003207
1431,0.097235,0.120216,-0.987974,0.009378,0.007943,-0.003984
1432,0.097131,0.12013,-0.987995,0.007941,0.0076159999999999,-0.0042689999999999
1433,0.097143,0.120147,-0.987992,0.005854,0.008805,-0.002944
1434,0.097316,0.1202569999999999,-0.987961,0.008519,0.008237,-0.006088
1435,0.097719,0.1205069999999999,-0.987891,0.01489,0.008704,-0.0038079999999999
1436,0.0982789999999999,0.120886,-0.987789,0.007144,0.0057469999999999,0.005657
1437,0.098635,0.121125,-0.987725,0.0005009999999999,0.002029,-0.001014
1438,0.098732,0.121224,-0.987703,-0.001015,0.004188,-0.010542
1439,0.0990149999999999,0.1214869999999999,-0.987642,0.011139,0.008289,-0.006422
1440,0.0993899999999999,0.12165,-0.987584,0.01908,0.002602,6.6e-05
1441,0.0996659999999999,0.121665,-0.987555,0.026555,0.003838,-0.002344
1442,0.100031,0.121944,-0.987483,0.027456,-0.000408,-0.0017289999999999
1443,0.100477,0.1224359999999999,-0.987377,0.020327,0.000535,-0.001346
1444,0.100633,0.122803,-0.987316,0.026244,0.002411,-0.002369
1445,0.100505,0.123107,-0.987291,0.022709,0.006013,0.000734
1446,0.100134,0.123357,-0.987297,0.0179229999999999,0.009654,-0.000648
1447,0.099599,0.123472,-0.987337,0.0144,0.012392,-0.003019
1448,0.099027,0.123545,-0.987386,0.006289,0.013784,0.001042
1449,0.098526,0.123513,-0.98744,0.001755,0.017097,-0.000231
1450,0.098165,0.123402,-0.98749,-0.005651,0.014858,-0.0058119999999999
1451,0.097867,0.1232579999999999,-0.987537,-0.002042,0.011096,-0.002117
1452,0.09764,0.123096,-0.98758,0.001344,0.007427,0.000901
1453,0.09751,0.122949,-0.987611,0.00419,0.009986,-0.002349
1454,0.097322,0.122824,-0.987645,0.008467,0.0102329999999999,-0.0042369999999999
1455,0.097119,0.122733,-0.987676,0.015796,0.0122,-0.005122
1456,0.096965,0.122607,-0.987707,0.015705,0.00639,-0.000849
1457,0.0968789999999999,0.122442,-0.987736,0.0135789999999999,0.00268,-0.00053
1458,0.096819,0.1223079999999999,-0.987759,0.012251,0.006659,-0.005589
1459,0.096824,0.122314,-0.987757,0.010354,0.01529,-0.006536
1460,0.096965,0.122277,-0.987748,0.010518,0.017447,-0.00212
1461,0.097044,0.122017,-0.987772,0.010011,0.008156,0.001734
1462,0.097098,0.12179,-0.987795,0.012399,0.00849,-0.00131
1463,0.09717,0.121694,-0.9878,0.012678,0.0069069999999999,-0.001443
1464,0.097297,0.121636,-0.987794,0.008828,0.001014,-0.000227
1465,0.0975289999999999,0.121557,-0.987781,0.002081,0.003702,-0.0070459999999999
1466,0.097788,0.121519,-0.98776,0.004431,0.005587,-0.005068
1467,0.097992,0.121491,-0.987744,0.014618,0.0074,-0.004139
1468,0.0981809999999999,0.121442,-0.987731,0.0241639999999999,0.002811,-0.001359
1469,0.098332,0.121427,-0.987718,0.029979,7.900000000000001e-05,-0.002044
1470,0.098362,0.121502,-0.987706,0.0312,-0.000133,-0.001583
1471,0.098248,0.1215789999999999,-0.987707,0.02167,0.007373,-0.00297
1472,0.098071,0.121602,-0.987722,0.017712,0.011363,-0.004343
1473,0.097881,0.121581,-0.987743,0.014057,0.00998,-0.001377
1474,0.097799,0.121613,-0.987748,0.011362,0.008148,-0.003906
1475,0.097838,0.121769,-0.987725,0.008287,0.009365,-0.00045
1476,0.097919,0.1219089999999999,-0.987699,0.005337,0.008295,-0.002596
1477,0.097916,0.121942,-0.987696,0.00238,0.0128849999999999,-0.003164
1478,0.0978059999999999,0.121977,-0.987702,-7.4e-05,0.017641,-0.000488
1479,0.09774,0.121973,-0.987709,-0.0001909999999999,0.013555,-0.00042
1480,0.097717,0.121849,-0.987727,0.000748,0.012337,-0.003423
1481,0.097677,0.1217099999999999,-0.987748,0.003428,0.009531,-0.004363
1482,0.097758,0.121609,-0.987752,0.005071,0.005314,-0.002543
1483,0.097893,0.121484,-0.987754,0.007744,0.00611,-0.0025559999999999
1484,0.097938,0.12127,-0.987776,0.018868,0.001121,-0.000459
1485,0.097944,0.121088,-0.987798,0.021669,0.005148,-0.004985
1486,0.097939,0.120997,-0.98781,0.025444,0.011511,-0.007186
1487,0.0979299999999999,0.120892,-0.987823,0.027756,0.009983,-0.002686
1488,0.097954,0.120752,-0.987838,0.0256269999999999,0.0103209999999999,-0.000672
1489,0.097986,0.120583,-0.987855,0.018194,0.005592,-0.003096
1490,0.097929,0.120505,-0.987871,0.0173819999999999,0.006403,-0.002913
1491,0.097775,0.120451,-0.987893,0.012378,0.005831,-0.005485
1492,0.097675,0.1203579999999999,-0.987914,0.007886,0.003604,-0.004594
1493,0.097597,0.1203359999999999,-0.987924,0.007017,0.008754,-0.004477
1494,0.097593,0.12047,-0.987908,0.007189,0.0150289999999999,-0.003669
1495,0.0976539999999999,0.120515,-0.987897,0.006274,0.015685,-0.004611
1496,0.097701,0.120418,-0.987904,0.007691,0.008778,-0.0016899999999999
1497,0.0977799999999999,0.120368,-0.987902,0.0096879999999999,0.006829,-0.005231
1498,0.097934,0.120413,-0.987881,0.010785,0.004724,-0.00159
1499,0.098082,0.12045,-0.987862,0.01436,0.0036799999999999,-0.000984
1500,0.098165,0.12046,-0.987853,0.013438,0.003258,-0.002137
1501,0.098139,0.120463,-0.987855,0.015158,0.0048579999999999,-0.003859
1502,0.0980289999999999,0.1204609999999999,-0.987866,0.0184259999999999,0.004478,-0.0012699999999999
1503,0.097893,0.1204359999999999,-0.987883,0.019173,0.004106,-0.002291
1504,0.097686,0.120419,-0.987905,0.019852,0.015124,-0.001536
1505,0.097426,0.1203279999999999,-0.987942,0.0148479999999999,0.015536,-0.000873
1506,0.097244,0.120156,-0.987981,0.009643,0.013374,-0.002849
1507,0.097195,0.120019,-0.988002,0.00893,0.005713,-0.006428
1508,0.097204,0.120073,-0.987995,0.0140629999999999,0.003066,-0.001721
1509,0.097248,0.120222,-0.987972,0.013257,0.006059,-0.001118
1510,0.097216,0.12032,-0.987964,0.009504,0.006374,-0.002133
1511,0.0971809999999999,0.120415,-0.987955,0.0072959999999999,0.008033,-0.00469
1512,0.097191,0.1205,-0.987944,0.011665,0.013137,-0.004579
1513,0.097238,0.120521,-0.987937,0.009574,0.0181659999999999,-0.0035789999999999
1514,0.097319,0.12047,-0.987935,0.012208,0.012968,-0.001887
1515,0.0974,0.12044,-0.987931,0.013303,0.0091069999999999,-0.0018149999999999
1516,0.097454,0.120415,-0.987929,0.016682,0.0001139999999999,-0.001573
1517,0.097401,0.120387,-0.987937,0.016093,0.002218,-0.003442
1518,0.0972789999999999,0.120415,-0.987946,0.0111659999999999,0.0104599999999999,-0.005325
1519,0.0971679999999999,0.120424,-0.987956,0.0137939999999999,0.01013,-0.004308
1520,0.097137,0.120363,-0.987966,0.014512,0.010771,-0.002283
1521,0.097229,0.120264,-0.987969,0.013779,0.010535,-0.000526
1522,0.097313,0.120155,-0.987974,0.00927,0.006493,-0.0008869999999999
1523,0.097361,0.1200589999999999,-0.987981,0.011999,0.007169,-0.004573
1524,0.097388,0.1200369999999999,-0.987981,0.009988,0.004338,-0.003413
1525,0.097511,0.120103,-0.987961,0.012078,0.000411,-0.000763
1526,0.097593,0.120246,-0.987935,0.011355,0.011651,-0.002146
1527,0.097669,0.120379,-0.987912,0.011233,0.009015,-0.002689
1528,0.097776,0.120431,-0.987895,0.014941,-0.001519,-0.008184
1529,0.097837,0.1205859999999999,-0.98787,0.018267,0.008031,-0.006652
1530,0.097974,0.1208019999999999,-0.98783,0.01871,0.014528,0.000281
1531,0.098241,0.120842,-0.987799,0.01765,0.012856,0.0005549999999999
1532,0.098361,0.120818,-0.98779,0.0187349999999999,0.008546,-0.001423
1533,0.098382,0.120924,-0.987774,0.0153879999999999,0.009112,-0.0026739999999999
1534,0.0984179999999999,0.1210349999999999,-0.987757,0.015383,0.005811,-0.003469
1535,0.098412,0.121056,-0.987755,0.012672,0.005317,-0.003822
1536,0.09835,0.121069,-0.98776,0.012078,0.0070739999999999,-0.0016809999999999
1537,0.098199,0.121111,-0.98777,0.012961,0.007383,-0.0020829999999999
1538,0.098062,0.1211069999999999,-0.987784,0.011648,0.007814,-0.003824
1539,0.09791,0.121016,-0.98781,0.011572,0.010576,-0.002806
1540,0.097737,0.120851,-0.987847,0.012203,0.014311,0.000817
1541,0.097585,0.120652,-0.987887,0.006709,0.011932,0.001238
1542,0.097422,0.1204119999999999,-0.987932,0.008809,0.009043,-0.002134
1543,0.097206,0.120173,-0.987983,0.006004,0.0073599999999999,-0.003671
1544,0.09712,0.119974,-0.988015,0.008776,0.006689,-0.005225
1545,0.097149,0.119776,-0.988036,0.014301,0.0075439999999999,-0.004807
1546,0.0972529999999999,0.119668,-0.988039,0.016517,0.009193,-0.0088939999999999
1547,0.097395,0.119613,-0.988032,0.032412,0.008393,-0.000204
1548,0.097485,0.119602,-0.988024,0.0356779999999999,0.0061909999999999,-0.001173
1549,0.097443,0.11967,-0.98802,0.038406,0.006307,-0.002916
1550,0.097291,0.119767,-0.988023,0.017623,0.0083,-0.005797
1551,0.097127,0.119863,-0.988028,0.016246,0.008158,-0.005792
1552,0.097057,0.1200079999999999,-0.988017,0.01299,0.0068379999999999,-0.004109
1553,0.096943,0.120169,-0.988009,0.012218,0.009195,-0.000562
1554,0.096799,0.120279,-0.98801,0.007266,0.004965,-0.00108
1555,0.096659,0.120345,-0.988015,0.003896,0.005372,-0.002768
1556,0.096428,0.120478,-0.988022,0.003975,0.005758,-0.004837
1557,0.096218,0.1206309999999999,-0.988024,0.005925,0.010595,-0.00244
1558,0.096048,0.120718,-0.988029,0.004721,0.011759,0.004539
1559,0.095939,0.120708,-0.988041,0.008889,0.0065349999999999,0.002415
1560,0.09602,0.120839,-0.988017,0.012684,0.00532,-0.003941
1561,0.096098,0.120943,-0.987997,0.03113,0.013182,-0.010416
1562,0.096226,0.121208,-0.987952,0.030773,0.004723,0.002783
1563,0.095631,0.121302,-0.987998,0.005108,0.012029,0.007911
1564,0.094444,0.121055,-0.988143,-0.0003129999999999,0.005898,-0.000413
1565,0.093073,0.1207,-0.988316,0.0110829999999999,0.0032619999999999,-0.009746
1566,0.092198,0.120594,-0.988411,0.004222,0.009457,-0.010841
1567,0.091697,0.120619,-0.988455,0.002953,0.008348,-0.007166
1568,0.091278,0.120525,-0.988505,0.006592,0.015507,0.002039
1569,0.090645,0.120262,-0.988595,0.0156169999999999,0.01455,0.010309
1570,0.089665,0.119875,-0.988732,0.023052,0.0107099999999999,0.006142
1571,0.0883,0.119362,-0.988916,0.026629,0.007789,-0.006094
1572,0.086886,0.118978,-0.989088,0.023938,0.007578,-0.006304
1573,0.085841,0.1185799999999999,-0.989227,-0.000926,0.02145,0.023483
1574,0.08421,0.117569,-0.989488,-0.006177,-0.0007019999999999,0.01909
1575,0.081429,0.115676,-0.989944,0.0025399999999999,-0.012374,0.0154259999999999
1576,0.075949,0.113688,-0.990609,0.006967,0.014028,-0.025565
1577,0.072916,0.112848,-0.990933,-0.002039,0.0168509999999999,-0.051257
1578,0.074955,0.1137589999999999,-0.990677,-0.008351,0.007289,-0.0350339999999999
1579,0.079359,0.115225,-0.990164,-0.01222,0.0520259999999999,0.025916
1580,0.083204,0.115667,-0.989797,0.053072,-0.000357,0.0276079999999999
1581,0.08462,0.115415,-0.989706,0.003926,0.010576,0.027518
1582,0.085131,0.115383,-0.989666,0.021436,0.005284,-0.01453
1583,0.08454,0.115164,-0.989743,0.032587,0.0034119999999999,-0.012974
1584,0.083196,0.114494,-0.989934,0.026073,-0.011009,-0.002055
1585,0.0821,0.114094,-0.990072,0.019706,-0.007328,-0.0001629999999999
1586,0.08162,0.1143869999999999,-0.990078,0.028579,0.010262,-0.00475
1587,0.081119,0.114841,-0.990066,0.028973,0.014279,-0.003678
1588,0.080845,0.115034,-0.990066,0.026516,0.015215,-0.005692
1589,0.081045,0.1149869999999999,-0.990055,0.019541,0.0133699999999999,-0.006328
1590,0.081564,0.1149829999999999,-0.990013,0.010751,0.014244,-0.003578
1591,0.081966,0.114974,-0.989981,0.006993,0.012742,0.006567
1592,0.082242,0.1148769999999999,-0.98997,0.006122,0.005363,0.001887
1593,0.082326,0.1148049999999999,-0.989971,0.006297,-0.000349,-0.0047799999999999
1594,0.082092,0.1148869999999999,-0.989981,0.0102239999999999,-0.002827,-0.005991
1595,0.081551,0.1151259999999999,-0.989998,0.018318,-0.002806,-0.0017929999999999
1596,0.080761,0.1154579999999999,-0.990024,0.02187,0.002386,-0.002423
1597,0.079856,0.115731,-0.990065,0.015038,0.021079,-0.001268
1598,0.079221,0.115783,-0.99011,0.012103,0.035401,0.00308
1599,0.079144,0.1154839999999999,-0.990151,-0.000806,0.025568,0.0007099999999999
1600,0.0796299999999999,0.115091,-0.990158,0.002401,0.016806,-0.0111849999999999
1601,0.080212,0.1148849999999999,-0.990135,0.016513,-0.008196,-0.01461
1602,0.08039,0.115045,-0.990102,0.033486,-0.01835,-0.007197
1603,0.080051,0.115374,-0.990091,0.036343,-0.003237,0.002359
1604,0.079435,0.115777,-0.990094,0.030199,0.006523,0.0035979999999999
1605,0.078949,0.1161359999999999,-0.990091,0.015747,0.032423,0.008676
1606,0.078975,0.116174,-0.990084,-0.003078,0.024222,0.000704
1607,0.0791559999999999,0.115738,-0.990121,-0.002663,0.021332,-0.007316
1608,0.079126,0.115219,-0.990184,0.009314,-0.001007,-0.014211
1609,0.078923,0.114891,-0.990238,0.019267,0.00512,-0.0027429999999999
1610,0.079055,0.114776,-0.990241,0.02028,0.0123,0.004416
1611,0.079538,0.1148049999999999,-0.990199,0.011358,0.011797,0.005946
1612,0.080329,0.1149029999999999,-0.990124,-0.000159,0.015774,0.006374
1613,0.081075,0.114692,-0.990087,0.001094,-0.000174,-0.003229
1614,0.081616,0.114283,-0.99009,0.010379,-0.002817,-0.010108
1615,0.081889,0.113878,-0.990114,0.024724,-0.013567,-0.010817
1616,0.0820679999999999,0.113883,-0.990099,0.028345,-0.009315,-0.010359
1617,0.082018,0.114192,-0.990067,0.030882,0.0065959999999999,-0.005096
1618,0.081757,0.114417,-0.990063,0.024291,0.025751,0.000653
1619,0.081491,0.114389,-0.990088,0.023551,0.022315,0.00083
1620,0.081023,0.114188,-0.99015,0.0273449999999999,0.009439,0.000236
1621,0.080271,0.1140089999999999,-0.990232,0.033697,0.006734,0.0008359999999999
1622,0.079665,0.113913,-0.990291,0.020051,0.014077,-0.002781
1623,0.079108,0.113799,-0.990349,0.0140159999999999,0.014939,-0.00698
1624,0.078388,0.1136619999999999,-0.990422,0.000103,0.0191509999999999,-0.006114
1625,0.0777679999999999,0.11342,-0.990499,-0.005228,0.011306,-0.003062
1626,0.0775899999999999,0.113157,-0.990543,-0.004698,0.009356,-0.001599
1627,0.077761,0.112999,-0.990548,0.00131,0.009788,-0.0046
1628,0.07817,0.112864,-0.990531,0.009644,0.006887,-0.001947
1629,0.078813,0.112687,-0.9905,0.0143259999999999,0.006591,0.001303
1630,0.079679,0.112507,-0.990451,0.010592,0.006374,-1.2e-05
1631,0.080574,0.112419,-0.990389,0.0067069999999999,0.007683,-0.0045299999999999
1632,0.081185,0.112495,-0.99033,0.009025,0.011635,-0.0085709999999999
1633,0.081491,0.1126359999999999,-0.990289,0.013831,0.009373,-0.005088
1634,0.081674,0.112673,-0.99027,0.022909,0.001707,0.000463
1635,0.081857,0.112751,-0.990246,0.032263,0.005139,0.003109
1636,0.081913,0.112925,-0.990221,0.031749,0.009207,-0.003324
1637,0.081737,0.113062,-0.99022,0.034581,0.008901,-0.005462
1638,0.081345,0.113107,-0.990247,0.028381,0.007391,-0.004656
1639,0.080926,0.113177,-0.990274,0.026129,0.00929,-0.003867
1640,0.080542,0.113346,-0.990286,0.023538,0.009457,-0.007944
1641,0.080191,0.1136119999999999,-0.990284,0.020501,0.010412,-0.005764
1642,0.079934,0.113876,-0.990274,0.012626,0.009263,-0.002905
1643,0.079724,0.1140859999999999,-0.990267,0.0066709999999999,0.009937,-0.002653
1644,0.079566,0.114293,-0.990256,0.0018859999999999,0.008754,0.001044
1645,0.079475,0.1145,-0.990239,-0.000343,0.009569,-0.00381
1646,0.0794309999999999,0.114728,-0.990216,-7e-05,0.0141479999999999,-0.003329
1647,0.079515,0.1148839999999999,-0.990191,0.001875,0.012893,0.000811
1648,0.079817,0.114928,-0.990162,0.003129,0.011415,0.000492
1649,0.080233,0.114927,-0.990129,0.004911,0.011507,-0.00067
1650,0.080606,0.114948,-0.990096,0.0151729999999999,0.010372,-0.0030989999999999
1651,0.080951,0.11485,-0.990079,0.019086,0.007877,0.0019199999999999
1652,0.081283,0.11464,-0.990076,0.0203099999999999,0.004745,0.002283
1653,0.081536,0.114427,-0.99008,0.024833,-0.000765,-0.00342
1654,0.081518,0.114283,-0.990098,0.026622,-0.004587,-0.001265
1655,0.081162,0.114156,-0.990142,0.0241389999999999,-0.005635,-0.000428
1656,0.080614,0.114032,-0.990201,0.0238479999999999,0.0009279999999999,-0.002398
1657,0.079948,0.113947,-0.990265,0.013909,0.008139,-0.0034939999999999
1658,0.07925,0.1139,-0.990326,0.013584,0.014579,-0.0068049999999999
1659,0.078671,0.113879,-0.990375,0.00893,0.023908,-0.006924
1660,0.078404,0.113838,-0.990401,0.006725,0.025108,-0.0054789999999999
1661,0.078583,0.113809,-0.99039,0.008926,0.026786,-0.00604
1662,0.079153,0.113754,-0.990351,0.010248,0.027099,-0.0057729999999999
1663,0.079912,0.1136539999999999,-0.990301,0.008406,0.013574,-0.001718
1664,0.080694,0.113463,-0.99026,0.009577,0.008104,7.099999999999999e-05
1665,0.081382,0.113372,-0.990214,0.011651,-0.000259,-0.001302
1666,0.081711,0.113422,-0.990181,0.016266,-0.00922,-0.002418
1667,0.081652,0.113501,-0.990177,0.020322,-0.011466,-0.001492
1668,0.081369,0.113567,-0.990193,0.018881,-0.004421,-0.001796
1669,0.0810169999999999,0.1137089999999999,-0.990205,0.017997,0.007689,-0.004561
1670,0.08083,0.113894,-0.990199,0.0152389999999999,0.019453,-0.00504
1671,0.080933,0.1140119999999999,-0.990177,0.0117489999999999,0.023638,-0.002315
1672,0.081276,0.1140359999999999,-0.990146,0.011284,0.022805,-0.0023769999999999
1673,0.081566,0.113989,-0.990128,0.01371,0.0102329999999999,-0.00035
1674,0.081498,0.113853,-0.990149,0.017166,0.004036,-0.001794
1675,0.0811289999999999,0.113755,-0.990191,0.018725,-0.001298,-0.0041789999999999
1676,0.080783,0.113821,-0.990211,0.025571,0.005854,-0.005333
1677,0.080803,0.114116,-0.990176,0.022606,0.010685,-0.00752
1678,0.081297,0.114506,-0.990091,0.015993,0.012203,0.000222
1679,0.082009,0.114724,-0.990007,0.002097,0.010978,-0.000503
1680,0.082606,0.114766,-0.989952,-0.006327,0.010616,-0.005318
1681,0.083152,0.114824,-0.9899,-0.006965,0.010389,-0.005248
1682,0.0836929999999999,0.114913,-0.989844,0.000917,0.011491,-0.0028469999999999
1683,0.084092,0.114935,-0.989807,0.0095819999999999,0.004588,0.001084
1684,0.084184,0.11497,-0.989796,0.022567,0.004293,-0.002941
1685,0.083906,0.115147,-0.989798,0.034869,0.005321,-0.000314
1686,0.083449,0.115338,-0.989815,0.039079,0.009036,0.001305
1687,0.082883,0.115418,-0.989853,0.0330079999999999,0.007965,-0.004227
1688,0.082229,0.115442,-0.989905,0.021821,0.004935,-0.005945
1689,0.081768,0.115567,-0.989928,0.01543,0.003848,-0.007493
1690,0.081621,0.115803,-0.989913,0.016112,0.007015,-0.0064709999999999
1691,0.08169,0.116049,-0.989878,0.012213,0.0086909999999999,-0.005254
1692,0.081729,0.116244,-0.989852,0.004392,0.009687,-0.002823
1693,0.081738,0.116269,-0.989849,0.02486,-0.000683,-0.00446
1694,0.081539,0.116197,-0.989874,0.004414,-0.007219,-0.000468
1695,0.081744,0.116479,-0.989823,-0.006045,0.004599,0.001039
1696,0.081674,0.116746,-0.989798,0.003684,0.013625,-0.007181
1697,0.081396,0.116737,-0.989822,-0.0003259999999999,0.019112,-0.002793
1698,0.0815,0.1167869999999999,-0.989807,0.002499,0.016361,0.003479
1699,0.0819299999999999,0.116846,-0.989765,0.008066,0.007926,-0.001614
1700,0.082269,0.116816,-0.98974,0.014457,0.006811,-0.001577
1701,0.08246,0.116827,-0.989723,0.023329,-0.000174,-0.005501
1702,0.082626,0.116865,-0.989705,0.028367,0.002489,-0.001827
1703,0.082684,0.116853,-0.989701,0.027011,0.00447,-0.002395
1704,0.082617,0.11681,-0.989712,0.025796,0.005703,-0.002994
1705,0.082523,0.116889,-0.98971,0.024105,0.009728,-0.0072069999999999
1706,0.082414,0.116924,-0.989715,0.021606,0.010731,-0.004089
1707,0.082329,0.11685,-0.989731,0.013008,0.0067469999999999,-0.001388
1708,0.0822799999999999,0.116798,-0.989742,0.009181,0.008278,-0.001851
1709,0.082211,0.1168329999999999,-0.989743,0.00484,0.011448,-0.003482
1710,0.082102,0.1168859999999999,-0.989746,0.0035759999999999,0.009991,-0.002152
1711,0.081996,0.116923,-0.98975,0.004918,0.009267,-0.003109
1712,0.081997,0.1169579999999999,-0.989746,0.0066409999999999,0.008042,-0.00148
1713,0.0820559999999999,0.1170079999999999,-0.989735,0.0091,0.009381,-0.003627
1714,0.082157,0.117088,-0.989717,0.010647,0.007241,-0.005796
1715,0.082224,0.117139,-0.989706,0.014532,0.007494,-0.000315
1716,0.082319,0.11712,-0.9897,0.016909,0.005363,-0.001343
1717,0.082436,0.117099,-0.989693,0.018409,0.00607,-0.003975
1718,0.0825,0.117155,-0.989681,0.018788,0.008028,-0.005284
1719,0.082534,0.117202,-0.989673,0.017716,0.007523,-0.005246
1720,0.082575,0.117198,-0.98967,0.017736,0.006047,-0.001267
1721,0.082613,0.117166,-0.98967,0.015928,0.006171,-0.002227
1722,0.082657,0.117224,-0.98966,0.01358,0.005961,-0.004862
1723,0.082703,0.117325,-0.989644,0.0147699999999999,0.006912,-0.005473
1724,0.082894,0.117372,-0.989622,0.009452,0.007613,-0.002596
1725,0.083282,0.117424,-0.989584,0.002762,0.012154,-0.005549
1726,0.08398,0.117665,-0.989496,-0.000271,0.016063,-0.007437
1727,0.085148,0.118017,-0.989354,0.0059619999999999,0.000972,-0.004542
1728,0.086767,0.1185809999999999,-0.989146,0.012537,0.000667,-0.0040479999999999
1729,0.088645,0.119367,-0.988885,0.009637,0.009325,-0.006339
1730,0.090771,0.120088,-0.988605,0.018177,0.014891,0.002826
1731,0.092845,0.120627,-0.988347,0.017644,0.015008,-0.000698
1732,0.09473,0.1211039999999999,-0.988109,0.012661,0.008534,-0.004628
1733,0.096157,0.12142,-0.987933,0.011677,0.006281,-0.004484
1734,0.097209,0.121528,-0.987816,0.019002,-0.000175,-0.001701
1735,0.097865,0.121556,-0.987748,0.015096,0.006099,0.000703
1736,0.098284,0.121728,-0.987686,0.013151,0.009086,-0.003785
1737,0.098447,0.12183,-0.987657,0.018908,0.007992,0.001298
1738,0.098514,0.121793,-0.987655,0.010907,0.0079069999999999,0.0038439999999999
1739,0.098281,0.1216589999999999,-0.987694,0.01114,0.006499,0.0012289999999999
1740,0.097853,0.121523,-0.987754,0.013094,0.004682,-0.008111
1741,0.097742,0.121568,-0.987759,0.012366,0.0120989999999999,-0.008045
1742,0.097982,0.121663,-0.987723,0.011576,0.013774,-0.005837
1743,0.09826,0.12172,-0.987689,0.013312,0.008361,-0.001081
1744,0.098386,0.121807,-0.987666,0.013766,0.002735,-0.000784
1745,0.098355,0.121972,-0.987648,0.0137819999999999,0.0038829999999999,-0.003227
1746,0.098372,0.122152,-0.987624,0.0150319999999999,0.006449,-0.00586
1747,0.098504,0.122297,-0.987593,0.01049,0.002886,-0.0030989999999999
1748,0.098689,0.122477,-0.987552,0.011342,0.00794,-0.0016899999999999
1749,0.099119,0.122738,-0.987477,0.009463,0.01125,0.00121
1750,0.099483,0.122825,-0.987429,0.006962,0.010827,-0.005963
1751,0.09961,0.1228119999999999,-0.987418,0.003387,0.0123349999999999,-0.005059
1752,0.099648,0.122723,-0.987426,0.007682,0.009205,0.000808
1753,0.0995679999999999,0.122503,-0.987461,0.009319,0.009761,0.001102
1754,0.0993179999999999,0.12224,-0.987519,0.00998,0.003935,-0.000106
1755,0.099128,0.122068,-0.987559,0.009621,0.005145,-0.0020039999999999
1756,0.099069,0.1219349999999999,-0.987581,0.013526,0.00694,-0.0063149999999999
1757,0.099008,0.121762,-0.987609,0.015158,0.00867,-0.003632
1758,0.098977,0.1216059999999999,-0.987631,0.016913,0.0074379999999999,-0.002542
1759,0.099054,0.121505,-0.987636,0.0168819999999999,0.008592,-0.002385
1760,0.0991269999999999,0.121449,-0.987636,0.016336,0.0066939999999999,-0.003942
1761,0.0991799999999999,0.12137,-0.98764,0.016284,-0.000307,-0.0053869999999999
1762,0.099263,0.12138,-0.98763,0.021571,0.004429,-0.008006
1763,0.099364,0.121514,-0.987604,0.022691,0.0140449999999999,-0.000372
1764,0.099396,0.1215329999999999,-0.987598,0.021591,0.013584,0.002842
1765,0.099269,0.121399,-0.987627,0.0152639999999999,0.003356,-0.001096
1766,0.099077,0.121322,-0.987656,0.00714,0.001359,-0.006683
1767,0.098936,0.121447,-0.987655,0.006411,0.003781,-0.007539
1768,0.098938,0.121588,-0.987637,0.0092769999999999,0.004541,-0.004764
1769,0.099007,0.121696,-0.987617,0.011665,0.010491,-0.0029219999999999
1770,0.0990559999999999,0.121892,-0.987588,0.010945,0.013056,-0.003028
1771,0.099205,0.12215,-0.987541,0.0130389999999999,0.01521,-0.004768
1772,0.099559,0.122366,-0.987479,0.016072,0.013941,-0.006585
1773,0.100012,0.122624,-0.987401,0.010218,0.013927,0.003759
1774,0.100409,0.1227559999999999,-0.987344,0.004282,0.008134,0.0072109999999999
1775,0.100616,0.122902,-0.987305,0.006836,0.003303,-0.001693
