,gravity.x,gravity.y,gravity.z,userAcceleration.x,userAcceleration.y,userAcceleration.z
0,-0.566034,0.117475,0.81596,0.128717,0.0773789999999999,0.120121
1,-0.565861,0.1197039999999999,0.815755,0.158909,0.080872,0.130122
2,-0.567371,0.122075,0.814354,0.196521,0.115184,0.047493
3,-0.567818,0.124476,0.813679,0.174889,0.118047,0.020214
4,-0.567455,0.126039,0.813692,0.089992,0.120848,0.027769
5,-0.566752,0.127486,0.813956,0.0785309999999999,0.0896309999999999,0.021036
6,-0.566802,0.128505,0.813761,0.081481,0.064443,0.010824
7,-0.5649069999999999,0.129914,0.8148529999999999,0.059337,0.045867,0.008694
8,-0.564539,0.131748,0.814814,0.04986,0.002575,0.038793
9,-0.566447,0.132132,0.813427,0.051737,-0.0170349999999999,0.031895
10,-0.567808,0.132947,0.812344,0.030363,-0.041226,0.010227
11,-0.569621,0.133685,0.810952,0.008509,-0.067218,-0.012338
12,-0.5727479999999999,0.134073,0.8086840000000001,-0.0018679999999999,-0.076227,-0.018309
13,-0.575553,0.134065,0.8066909999999999,-0.02041,-0.081956,-0.009664
14,-0.5783550000000001,0.133705,0.804744,-0.012374,-0.065331,0.025532
15,-0.58173,0.134398,0.802192,-0.012783,-0.049772,0.032586
16,-0.585672,0.1350559999999999,0.799207,0.002054,-0.0294649999999999,0.013187
17,-0.58983,0.135632,0.796045,-0.001768,-0.003186,-0.00065
18,-0.59318,0.1368859999999999,0.793337,-0.013311,0.035172,-0.020388
19,-0.595804,0.137643,0.791237,-0.038077,0.0646279999999999,-0.045357
20,-0.598627,0.138432,0.788966,-0.035101,0.057888,-0.059001
21,-0.600322,0.1388339999999999,0.787606,-0.027089,0.063772,-0.057458
22,-0.601305,0.139147,0.7868,0.015276,0.029844,-0.018947
23,-0.600896,0.138901,0.787157,0.008687,0.028092,0.012801
24,-0.5996199999999999,0.1389109999999999,0.788127,-0.002034,0.024342,0.041768
25,-0.598873,0.139444,0.788602,0.030147,0.0211389999999999,0.011127
26,-0.598803,0.139516,0.788642,0.0431089999999999,0.0285899999999999,-0.002616
27,-0.599202,0.1395,0.788342,0.05431,-0.021671,-0.0100819999999999
28,-0.5984689999999999,0.139544,0.78889,0.036838,-0.00963,0.046223
29,-0.5976859999999999,0.139604,0.789473,0.032454,0.010985,0.04561
30,-0.597677,0.139809,0.789443,0.0316829999999999,0.00872,0.0512549999999999
31,-0.598865,0.139829,0.788539,0.045718,-0.005124,0.0062299999999999
32,-0.6008640000000001,0.139816,0.7870189999999999,0.0460089999999999,0.019272,-0.0154729999999999
33,-0.601942,0.1398059999999999,0.786196,0.038619,-0.010702,-0.0095079999999999
34,-0.602317,0.139933,0.785887,0.004233,0.019048,0.003542
35,-0.6023350000000001,0.1396869999999999,0.785917,-0.007559,0.025841,0.014086
36,-0.602665,0.139293,0.785734,-0.0034909999999999,0.015828,-0.001066
37,-0.603043,0.138818,0.785528,0.027756,0.024298,0.0076549999999999
38,-0.603413,0.138287,0.785337,0.033009,0.0076019999999999,0.013704
39,-0.604142,0.137743,0.7848729999999999,0.029542,-0.0328699999999999,0.02131
40,-0.604485,0.137655,0.784625,0.023812,-0.0194139999999999,0.041074
41,-0.605021,0.138192,0.784117,0.0161849999999999,0.011283,0.032655
42,-0.606455,0.139011,0.782863,0.022058,0.033855,0.032109
43,-0.608169,0.139763,0.7813979999999999,0.028213,-0.002861,-0.000605
44,-0.60901,0.140453,0.780618,0.013887,0.015141,-0.01011
45,-0.609755,0.141123,0.7799159999999999,0.009215,0.02088,-0.00422
46,-0.6103569999999999,0.141982,0.779289,0.0018059999999999,0.028581,-0.00164
47,-0.610997,0.142674,0.778662,-0.008876,0.006312,-0.0091
48,-0.6117739999999999,0.143174,0.7779590000000001,-0.018353,-0.0037549999999999,-0.008352
49,-0.612594,0.143862,0.777187,-0.0379339999999999,-0.013506,-0.002727
50,-0.6138560000000001,0.144823,0.7760130000000001,0.0091349999999999,0.00694,-0.015316
51,-0.615334,0.145654,0.7746850000000001,0.018456,-0.0020989999999999,0.002766
52,-0.616866,0.146715,0.7732640000000001,0.0197889999999999,-0.013536,0.040655
53,-0.6187819999999999,0.147999,0.771486,0.014122,0.000668,0.023253
54,-0.62128,0.149767,0.769133,0.016986,0.004713,0.005159
55,-0.624246,0.151366,0.766415,0.014459,0.022874,-0.042324
56,-0.62543,0.151917,0.7653399999999999,0.053912,0.025817,-0.0069319999999999
57,-0.625624,0.1519319999999999,0.765177,0.054518,0.017623,0.011236
58,-0.625065,0.151972,0.765626,0.041248,0.027395,0.008986
59,-0.624753,0.152097,0.7658560000000001,0.007016,0.040546,0.012449
60,-0.6250220000000001,0.152105,0.7656350000000001,0.007682,0.045908,0.009679
61,-0.624675,0.152264,0.765887,0.002132,0.024235,-0.0112629999999999
62,-0.6239939999999999,0.1519869999999999,0.766496,0.001955,0.0195979999999999,-0.00937
63,-0.6228060000000001,0.1517349999999999,0.7675109999999999,-0.000851,0.019743,-0.002038
64,-0.621639,0.151669,0.768469,-0.003926,-0.002545,-0.010412
65,-0.620398,0.151327,0.769538,-0.007318,-0.011556,-0.0075599999999999
66,-0.619112,0.151058,0.770624,-0.008115,-0.020839,0.003759
67,-0.61808,0.150936,0.7714770000000001,0.002006,-0.019603,0.0086439999999999
68,-0.617376,0.15081,0.772065,0.008504,-0.015678,0.009033
69,-0.616987,0.150725,0.772393,0.022428,-0.0125569999999999,0.00547
70,-0.616631,0.150479,0.772725,0.026955,-0.00604,0.012004
71,-0.6161840000000001,0.15037,0.7731020000000001,0.024128,-0.001643,0.015396
72,-0.615855,0.150328,0.7733720000000001,0.02621,0.00963,0.020055
73,-0.615687,0.150393,0.773493,0.0263319999999999,0.019208,0.01293
74,-0.615808,0.150533,0.77337,0.025918,0.021937,0.0112819999999999
75,-0.615872,0.150648,0.773297,0.018414,0.0273759999999999,0.009692
76,-0.615722,0.15082,0.773383,0.005569,0.015074,-0.000388
77,-0.615667,0.150859,0.773419,0.003286,0.0118909999999999,6.4e-05
78,-0.6155149999999999,0.151014,0.77351,0.000342,0.005892,-0.0032
79,-0.615356,0.151317,0.773578,-0.007722,0.009526,-0.003253
80,-0.6153390000000001,0.151424,0.77357,-0.0056939999999999,0.0099379999999999,-0.00561
81,-0.615341,0.15157,0.7735390000000001,-0.000519,0.0012619999999999,-0.005931
82,-0.615282,0.151624,0.773575,0.00728,-0.003019,0.000672
83,-0.615139,0.151644,0.773684,0.016171,0.001661,0.007398
84,-0.615004,0.151704,0.773779,0.02017,0.000884,0.007227
85,-0.614938,0.15173,0.773826,0.022851,0.000782,0.011986
86,-0.614946,0.151765,0.7738119999999999,0.015184,0.017059,0.010169
87,-0.615092,0.151848,0.77368,0.0152539999999999,0.020423,0.00522
88,-0.6152569999999999,0.151885,0.773541,0.015174,0.016038,-0.001355
89,-0.6152310000000001,0.151839,0.77357,0.016385,0.0097209999999999,0.005452
90,-0.615153,0.151742,0.773651,0.0143229999999999,0.006278,0.007812
91,-0.615025,0.151742,0.773753,0.0145759999999999,-0.005898,0.009267
92,-0.614985,0.151903,0.773753,0.015025,-0.013765,0.012242
93,-0.615103,0.152059,0.773629,0.016043,-0.0129909999999999,0.010032
94,-0.615297,0.1523769999999999,0.773412,0.015199,0.000607,0.009547
95,-0.615613,0.152662,0.773104,0.009747,0.006701,-0.002001
96,-0.616023,0.152939,0.7727229999999999,0.007228,0.007553,-0.003512
97,-0.616296,0.153039,0.7724850000000001,0.0057909999999999,0.012244,-0.0081879999999999
98,-0.6164,0.15308,0.7723939999999999,0.002036,0.021206,-0.001413
99,-0.616483,0.15304,0.772335,0.002164,0.022466,-0.0027429999999999
100,-0.61651,0.1529319999999999,0.772336,0.004389,0.01905,-0.00108
101,-0.6164689999999999,0.152831,0.772389,0.006942,0.007692,0.002285
102,-0.616417,0.152677,0.772461,0.007469,-0.001676,-0.000183
103,-0.6162529999999999,0.152674,0.7725920000000001,0.00346,-0.012629,0.006811
104,-0.616046,0.152814,0.77273,-0.0020109999999999,-0.015057,0.002492
105,-0.615917,0.152954,0.772805,-0.003117,-0.0153199999999999,0.000556
106,-0.615764,0.153091,0.7729,0.0051979999999999,0.002503,0.001132
107,-0.61553,0.153267,0.773051,0.006552,0.010216,0.0062
108,-0.6151369999999999,0.153398,0.773338,0.01539,0.022093,0.002999
109,-0.614804,0.153421,0.773598,0.021771,-0.002603,0.006096
110,-0.614408,0.153385,0.7739199999999999,0.019895,0.004101,0.011725
111,-0.613937,0.153357,0.7743,0.015151,0.013102,0.0154949999999999
112,-0.613592,0.153477,0.7745489999999999,0.020437,0.011592,0.004351
113,-0.613538,0.153547,0.774578,0.0250069999999999,0.006182,0.004109
114,-0.61349,0.153534,0.774618,0.023265,-0.0025629999999999,0.01092
115,-0.613187,0.153607,0.7748430000000001,0.011304,-0.001492,0.007368
116,-0.613152,0.153694,0.774854,0.009331,-9.9e-05,0.003634
117,-0.613391,0.153852,0.774633,0.020709,-0.000669,0.003443
118,-0.613588,0.1539299999999999,0.774462,0.023348,0.000886,0.006742
119,-0.613805,0.153945,0.774287,0.018499,-0.001906,0.00765
120,-0.614213,0.153915,0.7739689999999999,0.022493,-0.0046689999999999,0.0024739999999999
121,-0.614664,0.153834,0.7736270000000001,-0.0137229999999999,-0.000849,0.006249
122,-0.615154,0.153936,0.7732180000000001,-0.018559,-0.001959,0.00315
123,-0.615525,0.154113,0.772888,-0.008163,0.014237,-0.0127099999999999
124,-0.615693,0.154204,0.772736,0.012879,0.026552,-0.003006
125,-0.615741,0.154326,0.7726729999999999,0.012958,0.022065,0.000124
126,-0.615714,0.154388,0.772683,-0.001184,0.009018,-0.0031969999999999
127,-0.615718,0.154412,0.772675,-0.006536,-0.0012439999999999,-0.0077209999999999
128,-0.615549,0.1544829999999999,0.772796,-0.000632,-0.014957,-0.0038439999999999
129,-0.615161,0.15439,0.773123,0.003299,-0.010469,0.001764
130,-0.614741,0.154425,0.77345,0.004572,0.002191,0.007098
131,-0.6144970000000001,0.154498,0.77363,0.019252,0.002454,0.004965
132,-0.614183,0.154506,0.773878,0.019716,0.00124,0.008822
133,-0.613872,0.154462,0.774133,0.015483,-0.001035,0.009223
134,-0.613641,0.1545119999999999,0.774306,0.016046,0.003325,0.009797
135,-0.613567,0.15462,0.774343,0.020016,0.00662,0.008723
136,-0.61347,0.154674,0.774409,0.024481,0.010045,0.0074819999999999
137,-0.613226,0.154614,0.774614,0.016806,-0.001035,0.013609
138,-0.613097,0.15452,0.7747350000000001,0.0155319999999999,-0.000742,0.015059
139,-0.613163,0.1545619999999999,0.774675,0.012074,-0.001501,0.009215
140,-0.6133149999999999,0.1547619999999999,0.774515,0.01012,-0.002082,-0.000177
141,-0.613566,0.154901,0.774288,0.007136,-0.001855,6.500000000000001e-05
142,-0.613771,0.155016,0.7741020000000001,0.001726,0.005308,0.001075
143,-0.613928,0.155134,0.773954,0.000784,0.005388,-0.009015
144,-0.614092,0.155201,0.77381,0.005038,0.0035659999999999,-0.009665
145,-0.614049,0.155113,0.7738619999999999,0.0104269999999999,-0.002509,-0.002225
146,-0.6139,0.155076,0.773988,0.0038079999999999,0.002364,0.009567
147,-0.613984,0.1552,0.773895,0.004106,0.002164,0.005173
148,-0.614322,0.155362,0.773595,0.003879,-0.003277,-0.006215
149,-0.614505,0.155389,0.7734449999999999,-0.0032479999999999,-0.000237,-0.002724
150,-0.61444,0.155378,0.7734979999999999,-0.006867,-0.002759,-0.005843
151,-0.61416,0.155376,0.77372,0.005518,-0.004787,0.002342
152,-0.613725,0.155354,0.77407,0.0102239999999999,0.001155,0.005013
153,-0.613202,0.155406,0.774475,0.01817,0.007863,0.0108799999999999
154,-0.612872,0.1554839999999999,0.77472,0.027316,0.006854,0.015304
155,-0.612787,0.155658,0.774752,0.023859,0.0093049999999999,0.0119
156,-0.612781,0.155844,0.7747189999999999,0.014728,0.009393,0.006256
157,-0.61264,0.1559569999999999,0.774809,0.012161,0.0070069999999999,0.002398
158,-0.61249,0.155875,0.774944,0.011675,0.005166,0.006794
159,-0.612251,0.155817,0.775145,0.011391,0.000815,0.00519
160,-0.6120270000000001,0.155782,0.775329,0.008038,-0.002522,0.005921
161,-0.612002,0.155718,0.775362,0.010623,-0.003389,0.003157
162,-0.612016,0.15571,0.775353,0.008195,-0.0069209999999999,0.0001899999999999
163,-0.6120140000000001,0.1556809999999999,0.775361,0.002975,-0.0067239999999999,-0.000687
164,-0.6120720000000001,0.155665,0.7753180000000001,0.002957,-0.00648,0.002301
165,-0.612135,0.155697,0.775262,0.0012029999999999,0.003696,-0.0018859999999999
166,-0.612197,0.155747,0.7752020000000001,0.005981,0.006972,-0.000544
167,-0.6122029999999999,0.155792,0.775189,0.007344,0.007218,0.002201
168,-0.612116,0.1557839999999999,0.7752600000000001,0.011789,0.001198,0.004617
169,-0.61203,0.155866,0.775311,0.010437,0.006518,0.003742
170,-0.611963,0.155954,0.775346,0.008295,0.003028,0.0013109999999999
171,-0.611927,0.155977,0.77537,0.006046,-0.001802,-0.000376
172,-0.611819,0.155923,0.775466,0.00426,0.000128,-2.9e-05
173,-0.611645,0.15585,0.775617,0.0038729999999999,-0.005933,0.00078
174,-0.611466,0.1557579999999999,0.775777,0.001634,-0.005383,0.002941
175,-0.611306,0.155727,0.775909,0.00654,-0.003261,0.005783
176,-0.611204,0.1557339999999999,0.775989,0.015333,-0.008654,0.006238
177,-0.611116,0.1557599999999999,0.776053,0.014558,-0.006926,0.013147
178,-0.611105,0.155851,0.776044,0.010061,-0.003431,0.010104
179,-0.6111409999999999,0.155994,0.775986,0.01701,0.001873,0.004562
180,-0.611187,0.156102,0.775929,0.018657,-0.002492,0.002468
181,-0.611089,0.156128,0.776001,0.012898,-0.000733,0.0076599999999999
182,-0.611002,0.156188,0.776058,-0.002768,0.002702,0.0023539999999999
183,-0.61116,0.156325,0.7759050000000001,0.006668,0.007737,0.002095
184,-0.611296,0.156453,0.775772,0.014738,0.008998,0.003296
185,-0.6112890000000001,0.156612,0.775745,0.01583,0.008625,0.010403
186,-0.611427,0.156817,0.775595,0.015999,0.008191,0.009958
187,-0.611644,0.156978,0.7753909999999999,0.015193,-0.002803,0.0083769999999999
188,-0.61185,0.157142,0.775196,0.0129419999999999,-0.0110689999999999,0.004711
189,-0.612187,0.157254,0.774907,0.012821,-0.005246,0.005732
190,-0.61256,0.157333,0.774596,0.0073659999999999,0.0075379999999999,0.00345
191,-0.6129760000000001,0.157343,0.774265,-0.009461,0.002111,-0.011951
192,-0.6134149999999999,0.15727,0.773932,-0.014667,-0.002104,-0.018241
193,-0.613544,0.157048,0.773875,-0.016385,-0.008778,-0.012569
194,-0.613424,0.156813,0.774018,-0.015208,-0.008162,-0.01262
195,-0.613225,0.1566789999999999,0.774203,-0.011042,-0.014574,-0.013827
196,-0.613015,0.156552,0.774396,-0.024741,-0.014157,-0.006055
197,-0.612488,0.156472,0.774828,-0.022094,-0.007623,-0.005801
198,-0.611747,0.156518,0.775404,-0.0031969999999999,-0.000314,-0.003035
199,-0.61075,0.156623,0.776169,0.032885,0.001168,0.017578
200,-0.609504,0.1567839999999999,0.7771170000000001,0.039115,0.002884,0.02133
201,-0.608477,0.156974,0.777882,0.0432149999999999,0.004953,0.024898
202,-0.607876,0.157289,0.778287,0.049222,0.010161,0.0270259999999999
203,-0.6076590000000001,0.157582,0.778397,0.04818,0.015621,0.028717
204,-0.6076630000000001,0.157921,0.778324,0.045422,0.021401,0.028332
205,-0.607946,0.158327,0.7780199999999999,0.045766,0.023604,0.014933
206,-0.608567,0.158547,0.77749,0.042359,0.0208509999999999,0.013175
207,-0.609256,0.158505,0.776958,0.023807,0.008411,0.008381
208,-0.610109,0.158379,0.7763140000000001,-0.003752,-0.008217,-0.005776
209,-0.611251,0.158096,0.775473,-0.010651,-0.015075,-0.014075
210,-0.612178,0.15773,0.774816,-0.022831,-0.02948,-0.016515
211,-0.612827,0.157335,0.774384,-0.027051,-0.033037,-0.015366
212,-0.6133689999999999,0.1570069999999999,0.7740199999999999,-0.026187,-0.028742,-0.016803
213,-0.613783,0.156778,0.7737390000000001,-0.027407,-0.025583,-0.019894
214,-0.614028,0.156519,0.773597,-0.035905,-0.023737,-0.023536
215,-0.614011,0.156462,0.773623,-0.038577,-0.0140669999999999,-0.019258
216,-0.6134029999999999,0.156584,0.77408,-0.034714,-0.001509,-0.017122
217,-0.612529,0.1567599999999999,0.774736,-0.016942,0.007959,-0.0087599999999999
218,-0.611563,0.156895,0.775472,0.020621,0.028133,0.0073799999999999
219,-0.610264,0.157102,0.776452,0.030079,0.0327019999999999,0.012809
220,-0.609067,0.157227,0.777366,0.047208,0.032135,0.022545
221,-0.608122,0.157333,0.778085,0.052976,0.026169,0.033347
222,-0.607456,0.15739,0.778594,0.048618,0.020589,0.032091
223,-0.607079,0.1575369999999999,0.778857,0.038948,0.005961,0.023847
224,-0.606822,0.157722,0.7790199999999999,0.028727,-0.0123209999999999,0.0090049999999999
225,-0.606838,0.157594,0.779033,0.026302,-0.017335,0.005162
226,-0.606827,0.157321,0.779097,0.018356,-0.023898,0.007112
227,-0.606938,0.15702,0.779071,0.0070079999999999,-0.0108709999999999,0.007428
228,-0.607441,0.156766,0.7787310000000001,0.006336,-0.010084,0.008287
229,-0.6081529999999999,0.156581,0.778213,-0.002809,-0.004833,0.002412
230,-0.609014,0.15647,0.777561,-0.004435,0.0142,-0.004154
231,-0.609775,0.15648,0.776962,-0.003857,0.0156539999999999,-0.003464
232,-0.6103770000000001,0.15648,0.776489,-0.003957,0.013075,-0.006638
233,-0.6108140000000001,0.15647,0.776148,-0.004268,-0.002997,-0.010218
234,-0.6109359999999999,0.156502,0.776046,-0.006587,-0.002571,-0.004561
235,-0.610956,0.1566789999999999,0.775994,-0.007711,-0.001589,0.001289
236,-0.611057,0.157013,0.7758470000000001,0.002918,-0.014496,-0.006743
237,-0.611069,0.157199,0.7758,0.000458,-0.026187,-0.004346
238,-0.610923,0.157273,0.7759,0.000617,-0.0177319999999999,-0.004186
239,-0.610676,0.157326,0.776084,0.006504,-0.0177389999999999,-0.001472
240,-0.6103689999999999,0.157374,0.776315,0.017016,-0.013682,0.005484
241,-0.610082,0.157317,0.7765529999999999,0.017736,-0.006698,0.012281
242,-0.609902,0.157363,0.7766850000000001,0.012642,-0.004668,0.010577
243,-0.609905,0.157411,0.776672,0.011013,0.005461,0.003418
244,-0.609947,0.157495,0.776622,0.012107,0.010992,0.001271
245,-0.609978,0.157599,0.7765770000000001,0.014031,0.010675,0.0040479999999999
246,-0.609942,0.157667,0.7765920000000001,0.0134759999999999,0.014559,0.007573
247,-0.609927,0.1577619999999999,0.776584,0.0133389999999999,-0.001695,0.002392
248,-0.609995,0.15782,0.776519,0.009623,-0.006346,6.2e-05
249,-0.610038,0.1578109999999999,0.776488,0.004813,-0.010823,0.002046
250,-0.610008,0.157818,0.776511,0.002448,-0.01199,0.000375
251,-0.6100180000000001,0.157821,0.776502,0.00342,-0.012466,-0.000104
252,-0.610065,0.15783,0.776463,0.001957,-0.0070129999999999,-0.00063
253,-0.6101300000000001,0.15785,0.776409,-0.000634,0.004046,-0.001873
254,-0.610171,0.157899,0.776366,-0.001325,0.004347,-0.003738
255,-0.610191,0.157907,0.776349,0.006996,0.005378,-0.001629
256,-0.610101,0.157896,0.7764220000000001,0.012933,0.005404,0.009436
257,-0.60993,0.157913,0.776552,0.0143639999999999,0.008102,0.008756
258,-0.6098100000000001,0.1579559999999999,0.776638,0.0136639999999999,-0.002911,0.005085
259,-0.609735,0.157916,0.776705,0.010416,-0.005023,0.006712
260,-0.609584,0.157859,0.776835,0.00674,-0.005012,0.002447
261,-0.609506,0.157824,0.776903,0.006662,-0.0049759999999999,0.002379
262,-0.609402,0.157825,0.776985,0.011852,-0.004398,-0.000251
263,-0.609276,0.1577579999999999,0.777096,0.006539,-0.0027129999999999,0.006305
264,-0.60915,0.157738,0.777199,0.004749,-0.002892,0.003914
265,-0.609155,0.157767,0.7771899999999999,0.004479,-0.002859,0.000962
266,-0.6092420000000001,0.157793,0.777116,0.003743,-0.004809,0.000915
267,-0.609244,0.157806,0.777112,0.00527,-0.004318,0.001986
268,-0.609201,0.157817,0.777144,0.005884,0.000951,0.002337
269,-0.6092489999999999,0.15785,0.777099,0.008144,-0.009275,0.00171
270,-0.609298,0.157884,0.777053,0.007354,-0.00612,0.004197
271,-0.609314,0.157962,0.777025,0.004776,-0.001376,0.003218
272,-0.60935,0.158073,0.7769739999999999,0.007193,-0.009589,0.0001409999999999
273,-0.6094430000000001,0.158168,0.776882,0.006965,-0.01028,0.0003399999999999
274,-0.6094510000000001,0.158235,0.7768619999999999,0.011398,-0.006166,0.0049369999999999
275,-0.60936,0.158306,0.7769189999999999,0.007599,-0.005016,0.0043619999999999
276,-0.609354,0.158413,0.7769010000000001,0.007258,-0.002911,0.0074769999999999
277,-0.609452,0.158501,0.7768079999999999,0.007493,-0.005959,0.002626
278,-0.609502,0.158599,0.776748,0.008596,-0.007903,0.0008849999999999
279,-0.609442,0.158668,0.776781,0.004828,-0.006934,0.003401
280,-0.609334,0.1587849999999999,0.776842,0.00652,-0.004625,0.004667
281,-0.6092609999999999,0.15891,0.776874,0.012628,-0.0072989999999999,0.0055049999999999
282,-0.6092850000000001,0.159066,0.776824,0.0148479999999999,-0.0038229999999999,0.00557
283,-0.609329,0.159202,0.776762,0.009643,0.007988,0.002901
284,-0.609445,0.159322,0.7766460000000001,0.009409,0.002985,-0.001973
285,-0.609503,0.15929,0.776608,0.003836,0.001263,0.007541
286,-0.60943,0.1592839999999999,0.776666,0.006296,0.005267,-0.0011539999999999
287,-0.609466,0.159254,0.776645,0.006729,0.003512,0.001691
288,-0.609442,0.159149,0.7766850000000001,0.009115,0.003144,0.0034659999999999
289,-0.609342,0.159048,0.7767850000000001,0.002774,-0.002477,0.002054
290,-0.609209,0.158992,0.7769,0.0015119999999999,-0.002742,-0.001449
291,-0.609197,0.158972,0.776913,0.004751,-0.0079099999999999,-0.001828
292,-0.609163,0.158942,0.776946,0.002092,-0.011221,-0.000213
293,-0.608992,0.158824,0.777104,-0.001024,-0.00584,0.001216
294,-0.6088399999999999,0.158716,0.777246,0.001739,-0.008005,0.000113
295,-0.608729,0.158641,0.777349,0.009791,-0.006053,0.003397
296,-0.608587,0.15861,0.777466,0.008901,-0.002467,0.006088
297,-0.608445,0.158628,0.777573,0.010804,-0.001463,0.008453
298,-0.608431,0.158688,0.777572,0.01462,-0.001339,0.006043
299,-0.60853,0.158817,0.777468,0.015116,-0.000461,0.006498
300,-0.608558,0.158909,0.777428,0.021232,-0.003864,0.008995
301,-0.6085020000000001,0.158976,0.777458,0.020123,-0.009882,0.010918
302,-0.6085,0.159079,0.777438,0.015986,-0.014182,0.012097
303,-0.60869,0.1592569999999999,0.777254,0.010209,-0.0148469999999999,0.0060409999999999
304,-0.6090409999999999,0.159478,0.776933,0.003725,-0.010705,-0.0005809999999999
305,-0.609383,0.159651,0.776629,0.001869,0.003725,-0.007617
306,-0.609722,0.159754,0.776342,-0.0010869999999999,-0.000421,-0.00646
307,-0.609908,0.159714,0.776204,-0.005738,0.00502,-0.000356
308,-0.610068,0.159685,0.776085,-0.004846,0.0140819999999999,-0.002052
309,-0.610021,0.159618,0.776135,-0.004893,0.014149,-0.002102
310,-0.610042,0.1595619999999999,0.77613,-0.001821,-0.007004,-0.009833
311,-0.6099399999999999,0.15944,0.776235,-0.004349,-0.012559,0.004282
312,-0.6096,0.159399,0.776511,-0.003804,-0.008017,0.004327
313,-0.609429,0.159527,0.776619,0.005577,-0.01083,0.0012289999999999
314,-0.609384,0.15958,0.776642,0.015085,-0.010364,0.003997
315,-0.609137,0.15957,0.776838,0.011817,-0.009347,0.0069599999999999
316,-0.608855,0.159573,0.777058,0.011413,-0.007245,0.010631
317,-0.6087560000000001,0.159663,0.7771170000000001,0.021598,-0.003977,0.01074
318,-0.608807,0.159852,0.777039,0.023343,-0.005997,0.009353
319,-0.6088520000000001,0.159882,0.776998,0.0211909999999999,-0.0047009999999999,0.005549
320,-0.608901,0.159844,0.776968,0.014571,-0.002663,0.010828
321,-0.6089829999999999,0.159846,0.776903,0.015538,0.000204,0.011015
322,-0.609113,0.159902,0.77679,0.011044,0.000316,0.006139
323,-0.609278,0.159973,0.776645,0.004069,-0.002823,-0.000873
324,-0.609483,0.1600099999999999,0.7764770000000001,0.000978,-0.006125,-0.0004
325,-0.609583,0.1600319999999999,0.7763939999999999,-0.001531,-0.0008529999999999,-0.00436
326,-0.6096779999999999,0.160068,0.776312,-0.0011769999999999,0.000989,-0.005118
327,-0.6097520000000001,0.160099,0.776247,0.001598,0.002834,-0.004122
328,-0.609769,0.1600869999999999,0.7762359999999999,-0.001239,-0.003486,-0.004141
329,-0.609742,0.160041,0.776266,0.000322,-0.007362,-0.00469
330,-0.6096689999999999,0.1599269999999999,0.7763479999999999,0.000721,-0.009765,-0.001155
331,-0.609491,0.159832,0.776506,0.007258,-0.008389,0.009718
332,-0.6092810000000001,0.1597859999999999,0.776682,0.0077329999999999,-0.005428,0.008719
333,-0.609179,0.159806,0.7767569999999999,0.012957,-0.0083629999999999,0.0089629999999999
334,-0.609176,0.159855,0.77675,0.014419,-0.011661,0.00215
335,-0.609137,0.159906,0.77677,0.011511,-0.010294,0.004556
336,-0.60898,0.159951,0.776884,0.007295,-0.0071189999999999,0.006273
337,-0.608899,0.159984,0.77694,0.0086489999999999,-0.0077319999999999,0.003379
338,-0.6088640000000001,0.160014,0.776961,0.007271,-0.004847,0.007509
339,-0.608865,0.160082,0.776946,0.004983,0.000364,0.004838
340,-0.608982,0.1602319999999999,0.7768229999999999,0.012318,0.000733,-0.000837
341,-0.609109,0.160338,0.776702,0.010156,-0.002334,0.000489
342,-0.609109,0.160391,0.776692,0.005334,-0.000356,0.005138
343,-0.609073,0.160399,0.776718,0.00722,-0.000136,0.000534
344,-0.609152,0.160415,0.776652,0.009574,-0.004592,0.001866
345,-0.6091840000000001,0.160437,0.776623,0.009986,-0.011496,0.003483
346,-0.6090800000000001,0.160424,0.7767069999999999,0.001826,-0.009622,0.000896
347,-0.609011,0.160421,0.776762,0.00226,-0.010473,0.00049
348,-0.6090399999999999,0.160427,0.776738,0.008485,-0.012539,0.002254
349,-0.609111,0.160458,0.776676,0.005854,-0.005291,0.002682
350,-0.609165,0.1605359999999999,0.776617,0.004001,0.002275,0.002313
351,-0.609212,0.160617,0.776563,0.00327,0.001889,0.00252
352,-0.609232,0.160661,0.7765380000000001,0.007319,-0.0011,0.001599
353,-0.6092069999999999,0.160669,0.776556,0.0070799999999999,-0.011484,0.005564
354,-0.609175,0.160702,0.776574,0.005003,-0.012051,0.0035619999999999
355,-0.60914,0.1607559999999999,0.77659,0.006021,-0.0114019999999999,0.001425
356,-0.6090220000000001,0.160754,0.776683,0.002653,-0.0026579999999999,0.002507
357,-0.608915,0.160751,0.776768,0.003324,-0.0008849999999999,0.001675
358,-0.60887,0.160753,0.776803,0.006483,0.000105,0.000984
359,-0.608796,0.160803,0.77685,0.011918,-0.0035759999999999,0.002843
360,-0.60873,0.160891,0.776883,0.012036,-0.008028,0.003619
361,-0.608694,0.16097,0.776895,0.014624,-0.012288,0.0099849999999999
362,-0.6087100000000001,0.161067,0.7768619999999999,0.012656,-0.010936,0.010537
363,-0.608801,0.1612289999999999,0.776758,0.016744,-0.0114939999999999,0.008826
364,-0.608912,0.161338,0.776648,0.015696,-0.013312,0.003793
365,-0.608959,0.161375,0.776604,0.0049549999999999,-0.003629,0.004799
366,-0.60915,0.161517,0.776424,0.0036969999999999,-0.003222,0.004475
367,-0.6094510000000001,0.161708,0.776149,0.004867,-0.000285,0.003484
368,-0.609688,0.161852,0.775932,0.001564,0.00337,-0.003945
369,-0.609812,0.161901,0.775824,-0.002477,0.00242,-0.00611
370,-0.609819,0.16183,0.775834,0.0038009999999999,-0.008235,-0.006714
371,-0.609777,0.161741,0.775885,0.004018,-0.015257,-0.00228
372,-0.609596,0.16172,0.776031,-0.002312,-0.014793,0.009415
373,-0.609538,0.161825,0.776055,-0.001363,-0.0129,-0.003258
374,-0.6096060000000001,0.16196,0.7759739999999999,0.000551,-0.012501,-0.005908
375,-0.609654,0.161978,0.775932,-0.000117,-0.010336,-0.0070569999999999
376,-0.6095510000000001,0.161851,0.77604,0.001351,-0.004838,0.000983
377,-0.609265,0.161764,0.7762819999999999,0.002072,-0.002859,0.001428
378,-0.608984,0.161704,0.776516,0.009466,-0.0004639999999999,0.00684
379,-0.608748,0.161688,0.776704,0.019728,0.0040219999999999,0.016066
380,-0.608546,0.161736,0.776853,0.026698,0.003944,0.0139949999999999
381,-0.60845,0.161846,0.776904,0.035864,0.009784,0.012753
382,-0.608304,0.161889,0.7770100000000001,0.021177,-0.006402,0.015715
383,-0.608132,0.161759,0.777172,0.012612,-0.01204,0.016011
384,-0.608118,0.161636,0.777208,0.007456,-0.024246,0.0066359999999999
385,-0.608244,0.161673,0.777103,-0.0056479999999999,-0.033575,-0.000415
386,-0.608495,0.161796,0.77688,-0.011362,-0.033333,-0.0046479999999999
387,-0.608766,0.161971,0.776632,-0.00981,-0.029891,-0.0155389999999999
388,-0.6089680000000001,0.161926,0.776483,-0.004603,-0.003906,-0.001566
389,-0.60912,0.161936,0.776362,-0.00291,0.0053159999999999,-0.000132
390,-0.6092850000000001,0.161948,0.77623,0.004945,0.009836,0.0064849999999999
391,-0.609428,0.161972,0.776113,0.01873,0.031525,0.008006
392,-0.6094689999999999,0.162064,0.776062,0.019656,0.028305,0.003113
393,-0.609417,0.162147,0.776085,0.01762,0.008461,0.012809
394,-0.609305,0.1622849999999999,0.776145,0.004782,-0.013115,0.006723
395,-0.609364,0.162453,0.7760630000000001,0.001576,-0.020943,-0.001725
396,-0.60943,0.1625309999999999,0.775995,-0.002447,-0.0302829999999999,-0.008783
397,-0.609388,0.162537,0.776026,-0.001268,-0.022111,-0.000956
398,-0.60929,0.16244,0.7761239999999999,-0.000481,-0.020716,-0.000123
399,-0.609258,0.162239,0.776191,0.0075739999999999,-0.014213,-0.001457
400,-0.609245,0.162014,0.776249,0.012519,-0.005474,0.002071
401,-0.609107,0.161775,0.776407,0.017051,-0.002137,0.011633
402,-0.609043,0.161727,0.776467,0.015568,0.00116,0.017432
403,-0.609133,0.161864,0.776369,0.0150009999999999,0.004,0.01309
404,-0.6092380000000001,0.1621,0.776237,0.0071719999999999,0.002924,-0.002494
405,-0.6093069999999999,0.162243,0.776153,0.00451,-0.001004,-0.004653
406,-0.609263,0.162269,0.7761819999999999,0.002314,-0.00962,-0.003385
407,-0.609047,0.162164,0.776374,-0.004036,-0.019265,-0.004371
408,-0.608766,0.161989,0.77663,-0.004149,-0.020983,-0.004413
409,-0.608495,0.161797,0.776883,-0.006159,-0.023049,-0.002637
410,-0.608278,0.161619,0.77709,-0.000334,-0.011228,0.001383
411,-0.608111,0.1615859999999999,0.777227,0.003817,-0.004543,0.003352
412,-0.607951,0.161674,0.777334,0.009654,0.000741,0.00416
413,-0.607849,0.1617299999999999,0.777402,0.013336,0.002165,0.008136
414,-0.607791,0.1618359999999999,0.7774260000000001,0.015338,0.001525,0.006434
415,-0.607708,0.161973,0.777462,0.018094,0.003417,0.013188
416,-0.607625,0.162149,0.77749,0.025823,0.003073,0.014685
417,-0.60761,0.1623119999999999,0.777467,0.025823,0.000819,0.015853
418,-0.607658,0.162413,0.777408,0.018791,-0.004027,0.013364
419,-0.607841,0.162504,0.777246,0.016456,-0.012022,0.005072
420,-0.60814,0.162528,0.777007,0.0170759999999999,-0.0149449999999999,0.002794
421,-0.608438,0.162546,0.77677,-0.0016239999999999,-0.011758,0.000742
422,-0.608877,0.1625839999999999,0.776418,-0.003825,-0.009385,0.000148
423,-0.6094109999999999,0.162614,0.775992,-0.004908,-0.010148,-0.004599
424,-0.609949,0.162593,0.775573,-0.016073,-0.010616,-0.0142199999999999
425,-0.610328,0.1625359999999999,0.7752859999999999,-0.01838,-0.014358,-0.0154139999999999
426,-0.610406,0.162427,0.775247,-0.01644,-0.012952,-0.011713
427,-0.610274,0.162297,0.775378,-0.000475,0.002101,0.001172
428,-0.610049,0.162319,0.775551,-5.9e-05,0.0034219999999999,0.00045
429,-0.609853,0.162411,0.775686,-0.001857,-0.001431,-0.000799
430,-0.609681,0.162467,0.775809,0.0039369999999999,-0.010703,-0.005256
431,-0.609304,0.16245,0.776109,0.008138,-0.010183,-0.002778
432,-0.608645,0.16238,0.776641,0.010546,-0.013836,0.004761
433,-0.6079680000000001,0.162315,0.777185,0.015057,-0.013374,0.014212
434,-0.607486,0.162318,0.777561,0.019809,-0.016582,0.012631
435,-0.6072,0.162316,0.7777850000000001,0.017554,-0.017938,0.012315
436,-0.6070409999999999,0.162287,0.777914,0.011796,-0.017512,0.008249
437,-0.606953,0.162329,0.7779729999999999,0.0114939999999999,-0.010687,0.009182
438,-0.606921,0.162392,0.777985,0.014407,0.000419,0.009368
439,-0.606965,0.162481,0.777931,0.016023,-0.002218,0.008888
440,-0.6070909999999999,0.1626369999999999,0.7778010000000001,0.015386,-0.003839,0.009613
441,-0.6072420000000001,0.162802,0.7776489999999999,0.012119,-0.000921,0.0088659999999999
442,-0.6074350000000001,0.163013,0.777454,0.015028,-0.004352,0.001462
443,-0.607668,0.16318,0.777237,0.007692,-0.005068,0.004059
444,-0.607874,0.163306,0.777049,0.005808,-0.004645,0.005452
445,-0.608086,0.163426,0.7768579999999999,-0.0022649999999999,-0.0052689999999999,-0.001391
446,-0.608317,0.163485,0.7766649999999999,-0.001379,-0.009829,-0.0066
447,-0.608507,0.163458,0.776521,-0.0036,-0.011572,-0.003267
448,-0.6085430000000001,0.163397,0.776506,-0.007012,-0.011603,-0.003999
449,-0.608556,0.1633339999999999,0.776509,-0.0016579999999999,-0.011783,-0.0004469999999999
450,-0.6086,0.163321,0.7764770000000001,0.0036049999999999,-0.009848,0.000134
451,-0.608603,0.16334,0.776471,0.00376,-0.007929,0.001514
452,-0.608614,0.163351,0.77646,0.003725,-0.00704,-0.000322
453,-0.608576,0.1634,0.776479,0.005854,-0.009683,0.0040079999999999
454,-0.608516,0.163449,0.776515,0.009655,-0.002606,0.005483
455,-0.608408,0.163474,0.776595,0.014124,-0.005134,0.008409
456,-0.6083149999999999,0.163523,0.776658,0.016244,-0.0070129999999999,0.007293
457,-0.608266,0.163537,0.7766930000000001,0.013615,-0.011224,0.008173
458,-0.608191,0.163571,0.776745,0.010001,-0.014218,0.006672
459,-0.608209,0.163596,0.776725,0.008829,-0.015189,0.00396
460,-0.608255,0.163579,0.7766930000000001,0.007989,-0.016316,0.000666
461,-0.6082390000000001,0.163528,0.776717,0.00364,-0.016921,0.003877
462,-0.608269,0.163544,0.77669,0.001458,-0.011674,0.0022719999999999
463,-0.608414,0.163616,0.776561,0.002914,-0.006878,-0.000896
464,-0.6085729999999999,0.163673,0.776424,0.003227,-0.002113,-0.000362
465,-0.608635,0.163719,0.776366,0.000725,5.3e-05,0.001222
466,-0.608622,0.163733,0.776373,0.002802,-0.0018219999999999,0.003611
467,-0.608549,0.16376,0.776424,0.006178,-0.002475,0.003285
468,-0.6084350000000001,0.163799,0.776505,0.005545,-0.006801,0.002853
469,-0.608325,0.163802,0.776591,0.008594,-0.0146169999999999,0.003469
470,-0.6081850000000001,0.163779,0.776706,0.006836,-0.014761,0.004102
471,-0.608065,0.163795,0.776796,0.004092,-0.011634,0.0035229999999999
472,-0.608017,0.163831,0.776826,0.008927,-0.008268,0.003081
473,-0.608051,0.16387,0.776791,0.012699,-0.010565,0.003711
474,-0.608036,0.163876,0.7768010000000001,0.009876,-0.009427,0.006249
475,-0.608015,0.163822,0.776829,0.010588,-0.010075,0.005581
476,-0.608055,0.1638109999999999,0.7768,0.009773,-0.007912,0.006006
477,-0.608089,0.1638099999999999,0.776774,0.011654,-0.00959,0.004354
478,-0.6080810000000001,0.16382,0.776778,0.005984,-0.007189,0.003632
479,-0.608128,0.163854,0.776734,0.0043219999999999,-0.008703,0.001403
480,-0.608139,0.16385,0.776726,0.0051119999999999,-0.006989,0.000587
481,-0.608104,0.1638349999999999,0.776756,0.004421,-0.008394,0.0009689999999999
482,-0.608087,0.163832,0.776771,0.004312,-0.008482,0.0014269999999999
483,-0.608085,0.16384,0.776771,0.006263,-0.00994,0.004602
484,-0.608073,0.163857,0.776776,0.006892,-0.011803,0.0033909999999999
485,-0.608045,0.163869,0.776795,0.0053219999999999,-0.012334,0.007537
486,-0.608045,0.163876,0.7767930000000001,0.005628,-0.006848,0.003679
487,-0.608052,0.163919,0.776778,0.006536,-0.0071189999999999,-0.0009449999999999
488,-0.608019,0.163911,0.776807,0.005892,-0.0076,0.000583
489,-0.607973,0.163904,0.776844,0.005571,-0.005823,0.003124
490,-0.607925,0.1638869999999999,0.776886,0.005492,-0.004174,0.003112
491,-0.6078939999999999,0.163897,0.776908,0.006255,-0.0065489999999999,0.002022
492,-0.607867,0.163917,0.776926,0.006228,-0.006569,0.002005
493,-0.607796,0.163896,0.776986,0.0075,-0.009263,0.0035009999999999
494,-0.6077,0.163867,0.777068,0.006839,-0.011508,0.003907
495,-0.6076590000000001,0.163891,0.777095,0.0068439999999999,-0.013547,0.003987
496,-0.607618,0.163911,0.777123,0.006666,-0.011536,0.004875
497,-0.607576,0.163918,0.777154,0.006853,-0.006936,0.00315
498,-0.60758,0.163989,0.777135,0.004278,-0.009341,0.004939
499,-0.607613,0.164049,0.777096,0.007836,-0.007845,0.000858
500,-0.607595,0.164069,0.7771060000000001,0.007666,-0.0077129999999999,0.004526
501,-0.60755,0.164091,0.777137,0.006552,-0.0086349999999999,0.00335
502,-0.607524,0.1641,0.7771560000000001,0.007076,-0.009544,0.007512
503,-0.607541,0.16413,0.7771359999999999,0.008298,-0.0129,0.003092
504,-0.60754,0.164145,0.777133,0.007213,-0.011969,0.0030489999999999
505,-0.607528,0.164154,0.777142,0.003554,-0.009567,0.002201
506,-0.607521,0.16416,0.777145,0.006843,-0.009039,0.001282
507,-0.607527,0.164181,0.777135,0.0068959999999999,-0.008999,0.0003
508,-0.607513,0.164195,0.777143,0.003372,-0.005779,0.0042899999999999
509,-0.607518,0.164264,0.777125,0.004704,-0.006595,0.0025989999999999
510,-0.607541,0.164297,0.777099,0.008298,-0.00765,0.002457
511,-0.6075149999999999,0.164294,0.77712,0.006822,-0.009616,0.004221
512,-0.607462,0.164272,0.777166,0.005854,-0.010509,0.004542
513,-0.6074229999999999,0.1642559999999999,0.7772,0.006196,-0.012324,0.003104
514,-0.607399,0.164271,0.777215,0.004479,-0.012598,0.0013189999999999
515,-0.607383,0.164325,0.777217,0.004539,-0.011417,0.00063
516,-0.607425,0.164395,0.77717,0.006289,-0.009976,0.002783
517,-0.607453,0.16443,0.7771399999999999,0.006776,-0.009538,0.00263
518,-0.6074729999999999,0.164494,0.777111,0.008458,-0.008794,0.003498
519,-0.607478,0.164539,0.777097,0.009043,-0.008823,0.005206
520,-0.607454,0.1645609999999999,0.777111,0.009112,-0.008617,0.007695
521,-0.607472,0.164627,0.777083,0.008793,-0.011536,0.002046
522,-0.607504,0.164628,0.777057,0.008795,-0.010606,0.002591
523,-0.607457,0.164643,0.777092,0.000584,-0.006745,0.005013
524,-0.60745,0.164726,0.777079,0.002576,-0.008156,0.003927
525,-0.607517,0.164814,0.777007,0.005009,-0.007527,0.0003819999999999
526,-0.60754,0.164854,0.776981,0.007809,-0.011351,0.003841
527,-0.6074579999999999,0.164899,0.777036,0.0055899999999999,-0.011975,0.004427
528,-0.607416,0.164892,0.777071,0.0046939999999999,-0.013144,0.004927
529,-0.607456,0.164906,0.777036,0.0094489999999999,-0.010594,0.001925
530,-0.607463,0.164921,0.777029,0.010112,-0.010685,0.000529
531,-0.607405,0.164892,0.77708,0.005507,-0.010274,0.002873
532,-0.6073689999999999,0.164893,0.777108,0.006692,-0.008246,0.006125
533,-0.6073970000000001,0.164925,0.77708,0.006735,-0.009758,0.000295
534,-0.607421,0.164971,0.777051,0.007109,-0.006814,0.002826
535,-0.6073930000000001,0.165008,0.777065,0.005922,-0.004883,0.005558
536,-0.607388,0.165024,0.777065,0.006726,-0.011627,0.002629
537,-0.6074109999999999,0.165043,0.777043,0.007436,-0.012516,0.001323
538,-0.607396,0.165045,0.777055,0.005406,-0.0148379999999999,0.0035229999999999
539,-0.607363,0.1650599999999999,0.7770779999999999,0.005388,-0.013159,0.00347
540,-0.6073729999999999,0.165107,0.7770600000000001,0.00494,-0.012946,0.005777
541,-0.607409,0.165158,0.777021,0.006991,-0.010205,0.002719
542,-0.607466,0.1652,0.776967,0.002928,-0.009332,0.002025
543,-0.607518,0.165301,0.7769050000000001,0.004155,-0.0096,0.002163
544,-0.6075729999999999,0.1653599999999999,0.77685,0.007155,-0.009248,0.0038659999999999
545,-0.607586,0.165413,0.776829,0.009746,-0.008385,0.00317
546,-0.607596,0.16545,0.776814,0.0080629999999999,-0.010298,0.005657
547,-0.607608,0.165494,0.776796,0.006716,-0.008313,0.00566
548,-0.607649,0.165538,0.776754,0.008315,-0.011042,0.003306
549,-0.607687,0.1656,0.776712,0.008276,-0.0126,0.002494
550,-0.607705,0.165648,0.776687,0.005746,-0.0191789999999999,0.003739
551,-0.607701,0.165699,0.776679,0.00507,-0.009784,0.005136
552,-0.6078020000000001,0.1658589999999999,0.776565,0.00537,-0.008495,9.2e-05
553,-0.607973,0.1660049999999999,0.7764,0.010057,-0.009022,0.000638
554,-0.6080939999999999,0.166097,0.7762859999999999,0.008714,-0.007849,0.001943
555,-0.60811,0.166138,0.776265,0.004228,-0.0094,0.003169
556,-0.608109,0.166153,0.776262,0.0077519999999999,-0.012589,0.006422
557,-0.6081850000000001,0.166184,0.776196,0.010727,-0.014283,0.003528
558,-0.608221,0.166205,0.7761640000000001,0.008031,-0.014502,0.004964
559,-0.6081949999999999,0.1662,0.776185,0.004131,-0.012163,0.00418
560,-0.608223,0.166239,0.7761560000000001,0.005471,-0.011164,0.002287
561,-0.608271,0.166268,0.776112,0.008997,-0.009256,0.002361
562,-0.6082569999999999,0.166264,0.776125,0.007045,-0.004291,0.004575
563,-0.608256,0.166311,0.776116,0.008112,-0.006246,0.0037909999999999
564,-0.60827,0.1663349999999999,0.7761,0.00805,-0.0103299999999999,0.002663
565,-0.608259,0.16629,0.776119,0.00604,-0.0092459999999999,0.002064
566,-0.608209,0.166213,0.776174,0.0069209999999999,-0.0111989999999999,0.003718
567,-0.608119,0.166138,0.7762600000000001,0.007151,-0.01207,0.004867
568,-0.608029,0.16609,0.776342,0.0066799999999999,-0.012694,0.0042369999999999
569,-0.607967,0.166092,0.7763899999999999,0.005672,-0.014359,0.003166
570,-0.607949,0.166095,0.776403,0.004678,-0.01311,0.002238
571,-0.607955,0.1661109999999999,0.776395,0.005813,-0.013477,0.00191
572,-0.60795,0.166173,0.776386,0.004389,-0.014271,0.002774
573,-0.6079319999999999,0.166217,0.776389,0.00225,-0.016681,0.003671
574,-0.607876,0.166251,0.7764270000000001,-0.002598,-0.009222,0.001253
575,-0.607805,0.166236,0.7764850000000001,-0.003279,-0.018607,-0.002102
576,-0.607679,0.166272,0.776576,-0.0033439999999999,-0.013531,-0.000285
577,-0.6074579999999999,0.166414,0.7767189999999999,0.00411,-0.003649,0.002731
578,-0.607213,0.1666109999999999,0.776868,0.028997,0.004074,0.009875
579,-0.607065,0.166775,0.776949,0.034311,0.008625,0.010847
580,-0.6070270000000001,0.166796,0.7769739999999999,0.038225,0.004011,0.018375
581,-0.607011,0.166761,0.776994,0.016084,-0.007383,0.020766
582,-0.607256,0.1667529999999999,0.776804,0.014803,-0.0072829999999999,0.013616
583,-0.607664,0.166744,0.776487,0.014158,-0.020519,0.0013449999999999
584,-0.607931,0.166671,0.7762939999999999,-0.004175,-0.03102,-0.004443
585,-0.608132,0.16646,0.776181,-0.012061,-0.034456,-0.006986
586,-0.60828,0.166217,0.776118,-0.029491,-0.038852,-0.00912
587,-0.608434,0.165996,0.776045,-0.013636,-0.023357,-0.010985
588,-0.608453,0.165975,0.776035,-0.009635,-0.018102,-0.004581
589,-0.6084510000000001,0.166146,0.776,0.002021,-0.001077,0.0028239999999999
590,-0.608522,0.166323,0.775907,0.00432,-0.006075,-0.000165
591,-0.6084350000000001,0.166553,0.775926,0.003668,0.004071,0.006881
592,-0.6084189999999999,0.166801,0.775885,0.009939,0.018379,0.011163
593,-0.608392,0.167074,0.775849,0.030892,7.099999999999999e-05,0.008667
594,-0.6082960000000001,0.167172,0.7759020000000001,0.026997,-0.007962,0.007469
595,-0.6080939999999999,0.167092,0.7760779999999999,0.014984,-0.019219,0.012206
596,-0.607901,0.166943,0.7762600000000001,0.018195,-0.0206879999999999,0.013809
597,-0.607858,0.166831,0.7763180000000001,0.021417,-0.017097,0.013858
598,-0.607973,0.166745,0.776247,0.004259,-0.016553,0.003721
599,-0.60823,0.166728,0.776049,0.000167,-0.015269,-0.000643
600,-0.608482,0.166684,0.77586,-0.004997,-0.008298,-0.007382
601,-0.608626,0.166639,0.7757569999999999,-0.008851,-0.005522,-0.007859
602,-0.6087,0.166594,0.775709,-0.010609,-0.007872,-0.002165
603,-0.608716,0.166555,0.775704,-0.009708,-0.011739,-0.0053939999999999
604,-0.6086739999999999,0.1665559999999999,0.775737,-0.00392,-0.014625,-0.005428
605,-0.608558,0.166572,0.775826,-0.005059,-0.0102,-3.9e-05
606,-0.608358,0.166602,0.775977,0.006078,-0.001563,0.001184
607,-0.608135,0.166579,0.776157,0.0205349999999999,-0.017974,0.012341
608,-0.607771,0.166521,0.776454,0.018537,-0.015948,0.015965
609,-0.607491,0.166538,0.7766689999999999,0.0110549999999999,-0.014775,0.0141789999999999
610,-0.607445,0.16665,0.7766810000000001,0.019051,-0.016077,0.009055
611,-0.607558,0.1667799999999999,0.776565,0.021178,-0.0149699999999999,0.0093239999999999
612,-0.607542,0.16684,0.776564,0.014464,-0.014191,0.0054789999999999
613,-0.607485,0.166773,0.776624,0.0065629999999999,-0.016871,0.005481
614,-0.607582,0.166744,0.776554,0.006767,-0.0140949999999999,0.004436
615,-0.60765,0.1667539999999999,0.7764989999999999,0.010909,-0.015631,0.001059
616,-0.60768,0.166749,0.7764770000000001,0.001296,-0.016786,0.002942
617,-0.6078100000000001,0.16683,0.776358,0.004188,-0.0133569999999999,0.002802
618,-0.607954,0.166954,0.7762180000000001,0.002378,-0.009484,-0.002796
619,-0.608062,0.167051,0.776112,0.002029,-0.003827,-0.000874
620,-0.6081,0.1670829999999999,0.776076,0.006736,-0.005462,0.006822
621,-0.6080720000000001,0.167119,0.77609,0.00828,-0.005132,0.003909
622,-0.608061,0.167142,0.776094,0.007506,-0.008527,0.005187
623,-0.608075,0.167155,0.77608,0.006559,-0.012568,0.005536
624,-0.608062,0.167128,0.776096,0.00621,-0.01277,0.002209
625,-0.608024,0.167076,0.776137,0.0084,-0.0129319999999999,0.002702
626,-0.6079720000000001,0.167001,0.7761939999999999,0.007798,-0.015772,0.005209
627,-0.607928,0.166932,0.776243,0.005435,-0.014497,0.004549
628,-0.6078819999999999,0.166902,0.7762859999999999,0.003146,-0.015397,0.004995
629,-0.607857,0.166883,0.7763100000000001,0.003639,-0.011563,0.001675
630,-0.607845,0.166919,0.776312,0.005535,-0.010425,0.0016579999999999
631,-0.607794,0.16695,0.776345,0.005697,-0.010639,-0.000192
632,-0.6076729999999999,0.166929,0.7764449999999999,0.005622,-0.0096569999999999,0.003081
633,-0.607539,0.166917,0.776551,0.006282,-0.010895,0.003081
634,-0.607405,0.166918,0.776656,0.00714,-0.014147,0.005403
635,-0.607317,0.166942,0.77672,0.00757,-0.010433,0.004454
636,-0.607266,0.166975,0.776753,0.009304,-0.014418,0.000896
637,-0.60718,0.167,0.7768149999999999,0.009951,-0.014137,0.004465
638,-0.6070909999999999,0.167038,0.776876,0.007741,-0.013656,0.008189
639,-0.6071270000000001,0.1671609999999999,0.776822,0.006892,-0.010499,0.006793
640,-0.607244,0.167221,0.776717,0.011251,-0.013122,0.005601
641,-0.607294,0.1673089999999999,0.77666,0.007929,-0.012921,0.006879
642,-0.60729,0.167365,0.776652,0.008581,-0.011878,0.0060479999999999
643,-0.60735,0.16741,0.776595,0.01125,-0.014365,0.005632
644,-0.607462,0.167473,0.7764939999999999,0.008142,-0.0151289999999999,0.004328
645,-0.607494,0.167473,0.776469,0.0023,-0.0168229999999999,0.002584
646,-0.6075470000000001,0.167484,0.776425,0.001666,-0.012394,0.001407
647,-0.607628,0.167537,0.77635,0.004311,-0.010631,0.000139
648,-0.607675,0.167544,0.776312,0.004159,-0.008715,0.002832
649,-0.607693,0.167563,0.776293,0.00163,-0.007162,0.0022559999999999
650,-0.607704,0.16766,0.7762640000000001,0.002632,-0.008144,0.0016129999999999
651,-0.607711,0.167758,0.776237,0.005294,-0.01073,-0.000572
652,-0.607641,0.1678069999999999,0.776281,0.008901,-0.015112,0.000956
653,-0.607462,0.167795,0.776425,0.009012,-0.018091,0.005039
654,-0.607254,0.167699,0.776608,0.00705,-0.02384,0.003406
655,-0.607106,0.1676089999999999,0.776742,0.006108,-0.023337,0.010077
656,-0.607061,0.167642,0.77677,0.005209,-0.015649,0.010583
657,-0.607146,0.16781,0.776668,0.005263,-0.0063409999999999,0.005589
658,-0.607276,0.167973,0.7765310000000001,0.011176,-0.000782,0.001927
659,-0.607348,0.168071,0.776453,0.013003,0.0002029999999999,0.003286
660,-0.6072850000000001,0.168068,0.776504,0.010178,-0.002296,0.007402
661,-0.6072069999999999,0.168078,0.776563,0.002241,-0.010333,0.00339
662,-0.607204,0.168092,0.776562,0.009945,-0.018403,0.004109
663,-0.6071979999999999,0.168068,0.776571,0.007665,-0.0187759999999999,-0.0029809999999999
664,-0.6069829999999999,0.168024,0.776749,0.007663,-0.032892,0.004272
665,-0.606817,0.168015,0.77688,0.008108,-0.027161,0.011191
666,-0.606942,0.168178,0.776748,0.011391,-0.029704,0.0098269999999999
667,-0.60726,0.168431,0.7764439999999999,0.013602,-0.022008,0.00714
668,-0.607781,0.168786,0.7759590000000001,0.005914,-0.00213,0.000118
669,-0.608334,0.169206,0.775435,0.004574,-0.000948,0.0039229999999999
670,-0.608734,0.169484,0.7750600000000001,0.010589,-0.0009199999999999,0.004999
671,-0.608951,0.169596,0.7748649999999999,0.008212,-0.004313,0.00402
672,-0.609004,0.1696119999999999,0.7748189999999999,0.005138,-0.003368,0.001838
673,-0.609069,0.169518,0.7747890000000001,0.004745,-0.008919,0.001181
674,-0.609069,0.169397,0.774816,0.010543,-0.020288,-0.012624
675,-0.60838,0.169415,0.775353,-0.011875,-0.017223,-0.000375
676,-0.60844,0.169284,0.775334,-0.0153699999999999,-0.025027,0.0044659999999999
677,-0.608324,0.1693579999999999,0.77541,-0.004775,-0.01703,-0.011341
678,-0.6082270000000001,0.1695289999999999,0.7754489999999999,0.001873,-0.015568,-0.011151
679,-0.607812,0.169677,0.775741,0.002664,-0.010391,0.006349
680,-0.607488,0.169699,0.77599,0.013433,-0.002508,0.012492
681,-0.6072850000000001,0.169781,0.776131,0.0203099999999999,-0.0030329999999999,0.012535
682,-0.607159,0.169825,0.776219,0.026822,-0.0037329999999999,0.012355
683,-0.607,0.169725,0.776367,0.01943,-0.010378,0.017197
684,-0.606895,0.169572,0.7764810000000001,0.019691,-0.0119189999999999,0.011773
685,-0.6068100000000001,0.169463,0.776572,0.019148,-0.0151659999999999,0.007608
686,-0.606634,0.1693609999999999,0.776732,0.008962,-0.02016,0.005449
687,-0.60651,0.169251,0.7768520000000001,0.005573,-0.025422,0.00249
688,-0.60652,0.169155,0.7768649999999999,0.000121,-0.033337,0.001898
689,-0.6065560000000001,0.169151,0.776838,-0.008816,-0.0299149999999999,-0.002928
690,-0.606625,0.16931,0.77675,-0.0099519999999999,-0.025541,-0.004091
691,-0.606773,0.169517,0.7765890000000001,-0.006966,-0.017082,-0.002632
692,-0.607178,0.169641,0.776245,-0.001846,-0.009104,1.5e-05
693,-0.6077560000000001,0.169693,0.775782,0.004072,-0.002777,0.002462
694,-0.6083569999999999,0.169701,0.775308,0.011967,-0.002999,0.002478
695,-0.608618,0.169712,0.775101,0.011175,-0.0002319999999999,0.005157
696,-0.608503,0.16972,0.775189,0.01109,-0.007428,0.0094939999999999
697,-0.608374,0.1696869999999999,0.7752979999999999,0.01792,-0.009653,0.012666
698,-0.608259,0.169626,0.775401,0.0152719999999999,-0.0115909999999999,0.010503
699,-0.608121,0.169577,0.77552,0.008497,-0.0136009999999999,0.0073319999999999
700,-0.608038,0.169537,0.775594,0.008307,-0.018032,-0.0003109999999999
701,-0.6080220000000001,0.169487,0.775618,0.005132,-0.019768,0.000154
702,-0.6079479999999999,0.169435,0.775688,0.003166,-0.020585,0.000389
703,-0.607824,0.169324,0.775809,0.005696,-0.024701,0.006249
704,-0.607813,0.1692799999999999,0.775827,0.007258,-0.023635,0.004874
705,-0.607895,0.1693,0.775758,0.00972,-0.02161,0.004912
706,-0.608017,0.169345,0.7756529999999999,0.010254,-0.0133389999999999,0.007474
707,-0.608159,0.169452,0.775518,0.010289,-0.0132629999999999,0.005396
708,-0.608305,0.1695809999999999,0.775374,0.009611,-0.00767,0.006196
709,-0.60846,0.1697,0.775226,0.00882,-0.0037,0.0038729999999999
710,-0.608594,0.16983,0.775092,0.006696,-0.006195,0.002923
711,-0.608653,0.1698859999999999,0.775034,0.007167,-0.010828,0.0026
712,-0.608643,0.169903,0.775037,0.001526,-0.018032,0.000277
713,-0.608627,0.1698859999999999,0.775054,0.0019219999999999,-0.0171599999999999,-9.1e-05
714,-0.608586,0.169844,0.775096,-0.004116,-0.018385,-0.0001629999999999
715,-0.6085229999999999,0.16983,0.775149,0.000811,-0.018341,0.002012
716,-0.608426,0.169874,0.775215,0.002744,-0.018477,6.9e-05
717,-0.608349,0.169946,0.7752600000000001,0.0043289999999999,-0.013604,0.001671
718,-0.608265,0.170019,0.77531,0.006962,-0.0118,0.003025
719,-0.608117,0.170042,0.775423,0.010506,-0.008711,0.003874
720,-0.608002,0.170066,0.775507,0.011109,-0.008185,0.005804
721,-0.607912,0.170063,0.775578,0.015246,-0.012439,0.008648
722,-0.607804,0.170011,0.775674,0.01149,-0.015607,0.010443
723,-0.607711,0.169992,0.775751,0.011397,-0.015588,0.010366
724,-0.607727,0.170026,0.7757310000000001,0.014328,-0.018826,0.009181
725,-0.607776,0.170053,0.775687,0.006137,-0.018824,0.001809
726,-0.607823,0.170088,0.7756430000000001,0.004704,-0.0205979999999999,0.006309
727,-0.60783,0.170158,0.775622,0.0004379999999999,-0.018378,0.0029579999999999
728,-0.607887,0.170277,0.775551,0.002434,-0.012852,0.002495
729,-0.60805,0.170527,0.7753680000000001,0.006884,-0.012034,-0.000267
730,-0.60816,0.170742,0.775234,0.001165,-0.009548,5e-05
731,-0.608213,0.170906,0.775155,0.004835,-0.007866,-0.005121
732,-0.60818,0.17101,0.775159,0.005763,-0.013158,-0.000546
733,-0.607985,0.171002,0.7753140000000001,0.004866,-0.0219539999999999,0.005845
734,-0.607779,0.170994,0.7754770000000001,0.0100159999999999,-0.029194,0.0076349999999999
735,-0.6077,0.171087,0.775518,0.011509,-0.031225,0.0106909999999999
736,-0.6076560000000001,0.171229,0.775521,0.010137,-0.015009,0.009498
737,-0.607726,0.171452,0.775417,0.013808,-0.0114939999999999,0.0065349999999999
738,-0.60788,0.171668,0.775249,0.0157479999999999,-0.004554,0.006032
739,-0.608039,0.171806,0.775094,0.013237,0.002754,0.005332
740,-0.60818,0.1719,0.774962,0.011867,0.0059409999999999,0.01117
741,-0.608233,0.171906,0.7749189999999999,0.013491,0.006027,0.004759
742,-0.608271,0.171806,0.7749119999999999,0.009531,-0.02549,-0.0021
743,-0.60825,0.171498,0.774997,0.002919,-0.039448,0.005094
744,-0.608128,0.171201,0.775158,-0.0042229999999999,-0.054746,0.006687
745,-0.608054,0.171179,0.775221,-0.009072,-0.041922,0.00052
746,-0.608182,0.171395,0.7750729999999999,-0.005572,-0.032998,-0.00542
747,-0.608428,0.171666,0.774821,-0.002809,-0.007711,0.005743
748,-0.608596,0.171949,0.774626,0.013472,0.0128199999999999,0.0013449999999999
749,-0.608841,0.1723029999999999,0.774354,0.012497,0.011489,-0.000398
750,-0.609024,0.172515,0.774163,0.0138699999999999,0.010011,0.002891
751,-0.6089640000000001,0.172479,0.7742180000000001,0.0133669999999999,0.010626,0.012159
752,-0.608637,0.172284,0.774518,0.017206,0.002948,0.011248
753,-0.6083149999999999,0.172064,0.77482,0.018029,-0.010412,0.012213
754,-0.608104,0.171881,0.775027,0.009212,-0.02178,0.006712
755,-0.607924,0.171691,0.7752100000000001,0.007963,-0.02716,-0.000262
756,-0.6077,0.1715,0.775428,-0.001843,-0.034064,-0.002815
757,-0.607509,0.1713,0.775621,-0.006123,-0.035848,0.002486
758,-0.607395,0.171189,0.7757350000000001,-0.001919,-0.034455,0.002845
759,-0.607284,0.171179,0.775824,0.001892,-0.034109,-0.0009519999999999
760,-0.607251,0.171194,0.775846,0.001263,-0.028952,0.002535
761,-0.607328,0.171326,0.7757569999999999,0.002042,-0.022812,0.005462
762,-0.6075229999999999,0.171579,0.7755489999999999,0.006861,-0.016092,0.007502
763,-0.6078210000000001,0.171855,0.775254,0.012881,-0.0105239999999999,0.006546
764,-0.608126,0.172097,0.774961,0.015444,-0.001031,0.009219
765,-0.608356,0.1723569999999999,0.774722,0.016803,0.004722,0.007214
766,-0.608538,0.172515,0.774544,0.0161,0.004395,0.006873
767,-0.608634,0.17249,0.774475,0.014273,-0.009999,0.0088659999999999
768,-0.608634,0.1723839999999999,0.7744989999999999,0.0090239999999999,-0.015646,0.005928
769,-0.608591,0.172243,0.774564,0.001001,-0.022112,0.003375
770,-0.6085010000000001,0.172145,0.774655,-0.000217,-0.017009,-0.004224
771,-0.608488,0.172131,0.7746689999999999,-0.000704,-0.0194669999999999,-0.000744
772,-0.608442,0.172104,0.7747109999999999,0.002149,-0.022491,0.000848
773,-0.608376,0.172071,0.77477,0.001488,-0.017881,0.00648
774,-0.608316,0.172101,0.77481,0.00297,-0.016447,0.002931
775,-0.608301,0.172173,0.774806,0.006647,-0.011773,0.004659
776,-0.6083149999999999,0.1722119999999999,0.7747850000000001,0.013741,-0.011399,0.008967
777,-0.60827,0.172244,0.774812,0.0133759999999999,-0.0140259999999999,0.009733
778,-0.608212,0.172282,0.77485,0.012447,-0.013438,0.010886
779,-0.608192,0.172307,0.77486,0.011711,-0.014958,0.005887
780,-0.60817,0.172311,0.774876,0.008209,-0.013924,0.007427
781,-0.608146,0.172302,0.7748970000000001,0.00817,-0.016952,0.003103
782,-0.60819,0.172301,0.7748619999999999,0.008322,-0.018783,0.001902
783,-0.60822,0.1722769999999999,0.774844,0.005071,-0.017309,0.005949
784,-0.608154,0.172222,0.774908,0.0017239999999999,-0.010296,0.004664
785,-0.6081,0.172241,0.774945,0.002219,-0.009033,0.003238
786,-0.608123,0.17228,0.774918,0.01007,-0.011468,0.003082
787,-0.608112,0.172267,0.77493,0.007511,-0.015727,0.005527
788,-0.607971,0.172231,0.775048,0.004684,-0.015371,0.005378
789,-0.607829,0.172147,0.7751779999999999,0.006221,-0.017942,0.004622
790,-0.607735,0.172069,0.775269,0.007348,-0.022655,0.006027
791,-0.607597,0.172019,0.775388,0.008018,-0.021919,0.0054659999999999
792,-0.607466,0.171926,0.775512,0.005552,-0.022725,0.0067909999999999
793,-0.607417,0.171873,0.775562,0.008449,-0.019865,0.003536
794,-0.607356,0.171854,0.7756149999999999,0.00767,-0.017909,0.003895
795,-0.60731,0.171842,0.775655,0.007807,-0.0137,0.006389
796,-0.6073069999999999,0.171849,0.775654,0.010811,-0.016499,0.005321
797,-0.607366,0.171898,0.775598,0.008367,-0.0187449999999999,0.0041259999999999
798,-0.607409,0.171943,0.775554,0.008959,-0.01696,0.008473
799,-0.607422,0.172005,0.77553,0.010666,-0.019173,0.0066359999999999
800,-0.60745,0.1721,0.775487,0.006361,-0.018841,0.006465
801,-0.607506,0.172164,0.775429,0.003853,-0.019149,0.005089
802,-0.607542,0.172217,0.775389,0.003813,-0.014624,0.004396
803,-0.607622,0.17229,0.77531,0.006288,-0.0143919999999999,0.0034219999999999
804,-0.607741,0.17239,0.775195,0.006392,-0.011349,0.007062
805,-0.607874,0.172503,0.775065,0.010752,-0.011126,0.005575
806,-0.607924,0.172537,0.775019,0.007735,-0.009085,0.006918
807,-0.6079319999999999,0.172532,0.775014,0.003836,-0.010621,0.0047409999999999
808,-0.607969,0.172523,0.774987,0.007825,-0.012855,0.006781
809,-0.607955,0.172466,0.775011,0.007887,-0.02325,-7.8e-05
810,-0.607826,0.172345,0.775138,0.0028,-0.023099,0.005929
811,-0.6075550000000001,0.172213,0.7753800000000001,-0.000401,-0.013247,0.01298
812,-0.607424,0.172248,0.775475,0.011614,-0.010642,0.003593
813,-0.607471,0.172393,0.775405,0.013355,-0.012069,0.0010689999999999
814,-0.6074930000000001,0.172439,0.775378,0.010172,-0.018677,0.002835
815,-0.607332,0.172363,0.775521,0.004351,-0.016769,0.007133
816,-0.607157,0.172245,0.7756850000000001,0.008891,-0.0165139999999999,0.004848
817,-0.607111,0.172142,0.775744,0.013224,-0.0243919999999999,0.005293
818,-0.607047,0.172022,0.77582,0.001777,-0.024088,0.0075049999999999
819,-0.6069760000000001,0.17193,0.775896,0.002728,-0.020166,0.008085
820,-0.607006,0.171971,0.775863,0.008541,-0.0165139999999999,0.0053869999999999
821,-0.6071310000000001,0.1720269999999999,0.775752,0.006042,-0.01741,0.004628
822,-0.607269,0.1720829999999999,0.775632,0.004638,-0.011866,0.004748
823,-0.607401,0.17213,0.775518,0.010477,-0.014476,0.004786
824,-0.607517,0.172196,0.775412,0.01009,-0.014634,0.0067849999999999
825,-0.607614,0.172224,0.775329,0.00828,-0.011473,0.007676
826,-0.607654,0.172266,0.775288,0.031665,-0.047708,0.030636
827,-0.607738,0.172276,0.77522,-0.000691,0.006862,0.001299
828,-0.607626,0.171898,0.775392,0.006125,-0.015266,0.007658
829,-0.60715,0.1718049999999999,0.7757850000000001,0.005451,-0.018119,0.005892
830,-0.6071489999999999,0.171761,0.775796,0.00583,-0.020027,0.002341
831,-0.6070909999999999,0.1717119999999999,0.7758520000000001,0.009191,-0.0185129999999999,0.0014
832,-0.606809,0.171702,0.7760739999999999,0.0009289999999999,-0.016734,0.004825
833,-0.606348,0.171698,0.776436,-0.001059,-0.013174,0.006492
834,-0.606043,0.171784,0.776655,0.002985,-0.0154729999999999,0.003924
835,-0.605866,0.171949,0.7767569999999999,0.009964,-0.016202,0.004539
836,-0.60556,0.172105,0.77696,0.010452,-0.015886,0.005251
837,-0.605105,0.172205,0.777292,0.010561,-0.02154,0.0012259999999999
838,-0.604679,0.172279,0.7776069999999999,0.008931,-0.019325,0.0111659999999999
839,-0.604245,0.172341,0.77793,0.008542,-0.018823,0.013574
840,-0.6039359999999999,0.172491,0.778137,0.011833,-0.016668,0.008927
841,-0.6037779999999999,0.172644,0.778225,0.008639,-0.0168819999999999,0.00748
842,-0.603627,0.172827,0.778302,0.006123,-0.015508,0.006961
843,-0.603546,0.173045,0.778316,0.004425,-0.013941,0.005895
844,-0.6036229999999999,0.173198,0.778221,0.010773,-0.018031,0.009529
845,-0.603835,0.173327,0.7780279999999999,0.012618,-0.019336,0.006
846,-0.603974,0.173401,0.777903,0.008378,-0.017075,0.003088
847,-0.6040479999999999,0.173448,0.777834,0.004698,-0.015444,0.003874
848,-0.604129,0.173481,0.777764,0.005664,-0.0142099999999999,0.005028
849,-0.604236,0.173488,0.777679,0.007679,-0.011791,0.00824
850,-0.604403,0.173458,0.777556,0.007204,-0.009563,0.004137
851,-0.604549,0.1733859999999999,0.777457,0.002254,-0.0112459999999999,0.004082
852,-0.60472,0.173333,0.7773359999999999,0.003982,-0.012506,0.001885
853,-0.604937,0.17323,0.7771899999999999,0.007586,-0.015729,-0.004027
854,-0.605141,0.173044,0.7770729999999999,0.00689,-0.021692,0.00732
855,-0.605316,0.172865,0.776976,0.004898,-0.020659,0.009645
856,-0.605498,0.172739,0.776863,0.005522,-0.019434,0.006401
857,-0.605679,0.172565,0.77676,0.010037,-0.021625,0.005467
858,-0.605789,0.172354,0.776722,0.00856,-0.026373,0.005825
859,-0.6059,0.172198,0.7766689999999999,0.010762,-0.026782,0.0070069999999999
860,-0.606001,0.172132,0.776604,0.0009599999999999,-0.015608,0.005332
861,-0.606173,0.172126,0.776472,0.001666,-0.011176,0.004809
862,-0.606395,0.172029,0.77632,0.0009109999999999,-0.008714,0.004167
863,-0.6065649999999999,0.1718609999999999,0.776225,0.011518,-0.023911,0.001424
864,-0.606653,0.17174,0.776183,0.00921,-0.019229,-0.001876
865,-0.606633,0.171644,0.776219,0.008229,-0.010618,-4e-06
866,-0.606525,0.171342,0.77637,0.0075569999999999,-0.01349,0.005795
867,-0.606306,0.170828,0.776654,0.007078,-0.013602,0.015506
868,-0.60621,0.1702789999999999,0.776849,0.011316,-0.007514,0.0197509999999999
869,-0.6065659999999999,0.169638,0.776712,0.0165389999999999,-0.0099849999999999,0.013327
870,-0.6075649999999999,0.168666,0.776143,0.01676,-0.020365,-0.0045369999999999
871,-0.607988,0.16748,0.776069,0.006044,-0.028854,0.001519
872,-0.607979,0.166524,0.7762819999999999,0.0033799999999999,-0.021398,-0.000556
873,-0.607744,0.165737,0.776634,0.0019399999999999,-0.015011,0.0082469999999999
874,-0.6073430000000001,0.1650059999999999,0.777105,0.007123,-0.012936,0.014231
875,-0.607317,0.164376,0.777258,0.017046,-0.011117,0.006952
876,-0.607256,0.163723,0.7774439999999999,0.019899,-0.010403,0.007575
877,-0.606985,0.162966,0.7778149999999999,0.01261,-0.010226,0.009126
878,-0.606878,0.16229,0.77804,0.010107,-0.008664,0.008398
879,-0.607093,0.1617299999999999,0.77799,0.008246,-0.016878,0.000346
880,-0.607232,0.16126,0.777978,-0.0043549999999999,-0.023031,-0.008005
881,-0.607173,0.160822,0.7781140000000001,-0.003789,-0.02746,-0.002861
882,-0.606873,0.160346,0.778446,-0.0022429999999999,-0.049613,0.0100209999999999
883,-0.60614,0.160081,0.779072,0.003754,-0.037156,0.009411
884,-0.605196,0.159949,0.779833,0.007449,-0.032797,0.00633
885,-0.6043189999999999,0.159924,0.780518,0.006235,-0.035489,0.00357
886,-0.603349,0.159795,0.7812939999999999,0.01671,-0.026021,0.004381
887,-0.6024109999999999,0.159423,0.782094,0.017069,-0.016265,0.008525
888,-0.6013189999999999,0.159146,0.782991,0.014497,-0.034726,0.011839
889,-0.600119,0.158931,0.7839550000000001,0.014197,0.000721,0.009563
890,-0.598851,0.158743,0.7849619999999999,0.021153,-0.005957,0.034023
891,-0.598108,0.158503,0.7855770000000001,0.039316,-0.009196,0.047004
892,-0.59759,0.158381,0.785996,0.043391,0.007116,0.056838
893,-0.597724,0.158939,0.785782,0.034689,-0.010379,0.027038
894,-0.597758,0.160443,0.785449,0.0144599999999999,0.0149419999999999,0.035779
895,-0.59824,0.161816,0.7848,0.007175,0.004154,0.025182
896,-0.598349,0.163574,0.784352,-0.0155729999999999,0.0140539999999999,0.046092
897,-0.597784,0.165573,0.784363,-0.020441,0.011856,0.03952
898,-0.596409,0.167668,0.7849649999999999,-0.041591,0.007548,-0.001609
899,-0.59444,0.170089,0.785937,-0.051922,0.035966,0.0017219999999999
900,-0.59223,0.172155,0.787155,-0.055261,0.033823,0.006653
901,-0.589507,0.173819,0.7888310000000001,-0.065934,0.003442,-0.024549
902,-0.585651,0.176057,0.791203,-0.0362209999999999,-0.011979,-0.058522
903,-0.581873,0.178858,0.793359,-0.026235,-0.021372,-0.052697
904,-0.576932,0.181095,0.796454,-0.013033,-0.02013,-0.031989
905,-0.569653,0.182451,0.801369,-0.010365,-0.006258,0.017524
906,-0.561539,0.183875,0.806752,0.012497,-0.009894,0.006893
907,-0.553132,0.185303,0.8122149999999999,0.068742,-0.027527,0.018443
908,-0.545114,0.187198,0.817186,0.042459,-0.056949,-0.001436
909,-0.537137,0.189245,0.821984,0.013364,-0.0755059999999999,-0.0237509999999999
910,-0.529369,0.191149,0.82657,0.030773,-0.119219,-0.048463
911,-0.522695,0.192698,0.830448,0.0359089999999999,-0.110072,-0.0551799999999999
912,-0.5170939999999999,0.193907,0.833667,0.051914,-0.087492,-0.0405149999999999
913,-0.512638,0.194522,0.8362709999999999,0.061252,-0.062107,-0.035627
914,-0.5097149999999999,0.194798,0.837992,0.072962,-0.050908,-0.03158
915,-0.5083770000000001,0.194569,0.838858,0.069962,-0.088078,-0.0287529999999999
916,-0.508363,0.193859,0.8390299999999999,0.0596019999999999,-0.03468,-0.03271
917,-0.509528,0.192707,0.83859,0.055945,-0.042987,-0.021939
918,-0.512131,0.191025,0.8373879999999999,0.055817,-0.033799,-0.007645
919,-0.51542,0.189127,0.8358,0.025506,0.012808,0.006058
920,-0.518466,0.186552,0.834493,0.014011,-0.008955,-0.00588
921,-0.521645,0.1832069999999999,0.833252,0.009316,-0.034068,-0.017655
922,-0.5252829999999999,0.17924,0.831828,-0.013459,-0.049555,0.048802
923,-0.52779,0.174389,0.8312719999999999,-0.030499,-0.0444149999999999,0.1055099999999999
924,-0.528546,0.169301,0.831843,-0.048892,-0.028355,0.127264
925,-0.53103,0.165936,0.830939,0.038156,0.012256,0.006815
926,-0.536867,0.16458,0.82745,0.041979,0.013109,-0.015698
927,-0.543081,0.163025,0.823693,0.015799,0.039764,-0.029717
928,-0.548541,0.160551,0.820556,-0.0276769999999999,-0.004591,0.047776
929,-0.551829,0.157418,0.818956,-0.038976,0.0005099999999999,0.0603159999999999
930,-0.555089,0.154978,0.817217,-0.050395,-0.019145,0.04077
931,-0.558898,0.153727,0.814854,-0.016511,-0.030848,0.01205
932,-0.5622010000000001,0.15289,0.812737,-0.0140159999999999,-0.011792,-0.036782
933,-0.563926,0.151663,0.811771,-0.029809,-0.016027,-0.046589
934,-0.564276,0.149739,0.811884,-0.043756,0.025508,-0.013941
935,-0.5636939999999999,0.147216,0.8127489999999999,-0.021084,0.046112,0.017115
936,-0.562581,0.145116,0.813898,-0.00265,0.026057,0.063757
937,-0.561545,0.143975,0.814814,-0.000726,-0.006082,0.061971
938,-0.56123,0.144043,0.81502,-0.033543,-0.075042,-0.019869
939,-0.560501,0.145017,0.815348,-0.0437629999999999,-0.084974,-0.041224
940,-0.559293,0.146073,0.8159890000000001,-0.044513,-0.068925,-0.0684299999999999
941,-0.5580430000000001,0.1470119999999999,0.8166760000000001,-0.060975,-0.019143,-0.036189
942,-0.556198,0.147828,0.817786,-0.039642,0.004089,-0.00698
943,-0.5528310000000001,0.147677,0.8200930000000001,-0.024363,0.015134,-0.004618
944,-0.548442,0.146599,0.8232280000000001,0.00793,0.042244,0.0102379999999999
945,-0.543151,0.144895,0.8270280000000001,0.043075,0.057864,0.019011
946,-0.537189,0.143232,0.831202,0.0607179999999999,0.054797,0.034979
947,-0.531273,0.141956,0.8352129999999999,0.063149,0.03886,0.064002
948,-0.5260060000000001,0.141235,0.8386629999999999,0.054982,0.0291449999999999,0.056509
949,-0.521414,0.141577,0.841467,0.04032,-0.010824,0.052667
950,-0.517545,0.142966,0.843618,0.066648,-0.033957,0.055185
951,-0.514591,0.144968,0.845082,0.074863,-0.052469,0.052226
952,-0.512433,0.147541,0.8459469999999999,0.055615,-0.062718,0.0715789999999999
953,-0.512716,0.149989,0.8453459999999999,0.0515039999999999,-0.079203,0.054099
954,-0.515418,0.1529569999999999,0.843168,0.028556,-0.083713,0.026522
955,-0.5200899999999999,0.156818,0.8395819999999999,0.0077,-0.051654,-0.017865
956,-0.52589,0.160828,0.835199,-0.001912,-0.036987,-0.014215
957,-0.532287,0.164842,0.8303510000000001,-0.010179,-0.001756,-0.001142
958,-0.5380520000000001,0.168761,0.825836,-0.044712,0.0347149999999999,0.085587
959,-0.5427609999999999,0.172625,0.821945,-0.0418339999999999,0.035367,0.071014
960,-0.5461560000000001,0.176279,0.818915,-0.00873,0.034842,0.001275
961,-0.548509,0.180019,0.816525,0.000978,0.0157509999999999,-0.149899
962,-0.5504640000000001,0.183502,0.8144319999999999,0.0129729999999999,-0.002258,-0.146875
963,-0.550659,0.185907,0.813754,-0.024566,-0.030466,-0.138735
964,-0.548728,0.1869859999999999,0.81481,0.0075439999999999,-0.080663,-0.091574
965,-0.5457380000000001,0.187123,0.8167840000000001,0.029198,-0.097859,-0.075665
966,-0.5430590000000001,0.186636,0.818679,0.055525,-0.112783,-0.03862
967,-0.5406310000000001,0.18597,0.820436,0.032864,-0.103725,0.036376
968,-0.53832,0.18523,0.8221209999999999,0.019094,-0.1008179999999999,0.054573
969,-0.536971,0.184401,0.823189,0.034835,-0.078856,0.048911
970,-0.537361,0.183804,0.823069,0.07122,-0.056896,0.046575
971,-0.539565,0.1834569999999999,0.8217030000000001,0.073928,-0.05243,0.040465
972,-0.543244,0.182996,0.819378,0.035233,-0.034055,0.019809
973,-0.547545,0.182559,0.816608,-0.042848,-0.011401,-0.004154
974,-0.551918,0.1819569999999999,0.8137939999999999,-0.0429,0.005131,-0.028546
975,-0.555667,0.1808529999999999,0.811485,-0.0648779999999999,-0.004507,-0.012627
976,-0.55797,0.179579,0.810186,-0.069258,0.0239419999999999,0.0042369999999999
977,-0.5592010000000001,0.178625,0.8095479999999999,-0.055927,0.0428259999999999,-0.002754
978,-0.560188,0.177546,0.8091020000000001,-0.025231,0.037725,-0.01029
979,-0.560159,0.176169,0.809423,-0.016807,0.021524,-0.008718
980,-0.558819,0.174475,0.810716,-0.016743,-0.0080629999999999,-0.004502
981,-0.55665,0.172806,0.812562,-0.011312,-0.018616,0.003096
982,-0.554191,0.171211,0.814578,0.0071489999999999,-0.040641,0.01399
983,-0.55171,0.169786,0.816557,0.014647,-0.054597,0.043474
984,-0.549557,0.1688619999999999,0.8182,0.019634,-0.055748,0.0468209999999999
985,-0.548157,0.16857,0.8191970000000001,0.023926,-0.0512909999999999,0.042772
986,-0.547478,0.168619,0.819642,0.032478,-0.029718,0.022399
987,-0.54728,0.168788,0.819739,0.03138,-0.024196,0.018122
988,-0.547377,0.168999,0.819631,0.0298589999999999,-0.007958,0.00764
989,-0.547702,0.169115,0.8193889999999999,0.027545,0.004042,0.0103069999999999
990,-0.548032,0.169209,0.819149,0.026395,0.00761,0.0163759999999999
991,-0.548265,0.169327,0.818969,0.020281,0.0092459999999999,0.020798
992,-0.548513,0.1693309999999999,0.818802,0.018667,0.00616,0.017623
993,-0.549042,0.169182,0.818479,0.019135,-0.000679,0.009875
994,-0.5496449999999999,0.168894,0.818134,0.020012,-0.012201,0.000256
995,-0.550084,0.168617,0.8178949999999999,0.016621,-0.033165,0.006567
996,-0.5502670000000001,0.1683869999999999,0.817819,-0.00085,-0.050009,0.018896
997,-0.550257,0.1683599999999999,0.817832,-0.007406,-0.051707,0.024651
998,-0.550558,0.168792,0.817541,-0.006815,-0.051192,0.015528
999,-0.55172,0.169551,0.816599,0.00512,-0.053554,-0.00944
1000,-0.553385,0.170316,0.815311,0.005549,-0.036695,-0.030079
1001,-0.554583,0.17094,0.814366,-0.00044,-0.028301,-0.027623
1002,-0.555022,0.17112,0.814029,-0.017427,-0.012215,-0.013111
1003,-0.554962,0.170899,0.814116,-0.005142,0.000579,6.2e-05
1004,-0.5546989999999999,0.170536,0.814372,-0.003513,0.003002,0.005757
1005,-0.5543020000000001,0.1700819999999999,0.814738,0.000133,0.015633,0.010854
1006,-0.553796,0.169569,0.815189,0.002267,-0.005415,-0.001254
1007,-0.553037,0.169019,0.815818,0.003247,-0.0146919999999999,-0.007545
1008,-0.552003,0.168532,0.8166180000000001,-0.003691,-0.024229,-0.0075819999999999
1009,-0.550462,0.1680549999999999,0.817755,-0.006484,-0.034251,0.011362
1010,-0.548655,0.167574,0.819067,-0.009237,-0.040865,0.01565
1011,-0.547006,0.167224,0.820241,-0.005393,-0.039218,0.023021
1012,-0.545896,0.1670859999999999,0.8210069999999999,0.017133,-0.045504,0.01461
1013,-0.545296,0.167203,0.821382,0.0263139999999999,-0.04498,0.011977
1014,-0.5449729999999999,0.167414,0.8215520000000001,0.039267,-0.036707,0.012417
1015,-0.544931,0.1675849999999999,0.8215469999999999,0.0450529999999999,-0.01933,0.016893
1016,-0.545204,0.167659,0.82135,0.041328,-0.014735,0.01712
1017,-0.545771,0.167537,0.8209989999999999,0.035669,-0.009151,0.017502
1018,-0.546383,0.167397,0.8206209999999999,0.039257,-0.011818,0.021313
1019,-0.546833,0.167232,0.820355,0.041187,-0.0143699999999999,0.023167
1020,-0.546996,0.167061,0.8202809999999999,0.027312,-0.021339,0.018907
1021,-0.5471010000000001,0.166913,0.820241,0.003339,-0.029843,0.011866
1022,-0.547218,0.166914,0.820163,-0.008797,-0.035323,0.009427
1023,-0.547348,0.1670869999999999,0.820041,-0.012421,-0.030155,-0.002735
1024,-0.547553,0.167252,0.8198700000000001,-0.014367,-0.02501,-0.009614
1025,-0.547854,0.1673059999999999,0.819659,-0.0182319999999999,-0.022653,-0.0152
1026,-0.548107,0.1673589999999999,0.8194790000000001,-0.016117,-0.015702,-0.0129449999999999
1027,-0.548235,0.167303,0.8194049999999999,-0.0096569999999999,-0.012182,-0.0111019999999999
1028,-0.548241,0.167149,0.819433,-0.001472,-0.007893,0.000941
1029,-0.54809,0.1670299999999999,0.819558,0.0016879999999999,-0.009773,0.006202
1030,-0.547863,0.166891,0.819739,0.006023,-0.0139669999999999,0.008218
1031,-0.547511,0.166794,0.819994,0.012965,-0.024689,0.013075
1032,-0.54704,0.166766,0.820314,0.016553,-0.031497,0.010619
1033,-0.546618,0.166765,0.8205959999999999,0.016208,-0.038881,0.013739
1034,-0.546216,0.1668089999999999,0.8208559999999999,0.017636,-0.039932,0.0151729999999999
1035,-0.5458729999999999,0.166968,0.821052,0.018071,-0.038687,0.012994
1036,-0.545639,0.1670849999999999,0.821184,0.017044,-0.029741,0.011138
1037,-0.545601,0.167169,0.821191,0.022576,-0.0246979999999999,0.013159
1038,-0.545726,0.167241,0.8210940000000001,0.022472,-0.019505,0.012753
1039,-0.545874,0.167209,0.821002,0.014533,-0.015125,0.010373
1040,-0.546014,0.167233,0.8209049999999999,0.015832,-0.012463,0.0097989999999999
1041,-0.5462060000000001,0.167227,0.8207780000000001,0.014269,-0.007879,0.008674
1042,-0.546425,0.167172,0.820644,0.013588,-0.011364,0.00591
1043,-0.546623,0.167063,0.820533,0.011528,-0.018168,0.0037159999999999
1044,-0.546701,0.166918,0.8205110000000001,0.004037,-0.032305,0.001053
1045,-0.5466439999999999,0.1668079999999999,0.8205709999999999,-0.010332,-0.048232,0.004579
1046,-0.5464829999999999,0.166817,0.8206760000000001,-0.01234,-0.047295,0.004534
1047,-0.5463,0.166952,0.8207709999999999,-0.007044,-0.0445,0.002578
1048,-0.546329,0.167179,0.8207049999999999,-0.005779,-0.02956,0.000935
1049,-0.546635,0.1675309999999999,0.8204309999999999,-0.002834,-0.024907,0.0023079999999999
1050,-0.5470149999999999,0.167895,0.820103,0.0084409999999999,-0.017062,0.000408
1051,-0.54718,0.168164,0.819939,0.0150599999999999,-0.00964,0.005287
1052,-0.547103,0.168355,0.81995,0.014281,-0.006475,0.0076709999999999
1053,-0.546979,0.1683859999999999,0.820026,0.020368,-0.00144,0.017071
1054,-0.546936,0.168417,0.820049,0.029922,0.006678,0.009999
1055,-0.5469890000000001,0.16834,0.8200290000000001,0.02993,-0.000295,0.004922
1056,-0.546906,0.168022,0.82015,0.026108,-0.023537,0.0060979999999999
1057,-0.546399,0.167634,0.8205680000000001,0.005673,-0.054734,0.01273
1058,-0.545718,0.1672809999999999,0.8210930000000001,-0.0027129999999999,-0.057753,0.01489
1059,-0.545151,0.167139,0.821499,-0.018311,-0.057214,0.0183599999999999
1060,-0.545048,0.1673599999999999,0.821522,-0.0157889999999999,-0.04558,0.007198
1061,-0.545663,0.167796,0.821026,0.002785,-0.034251,-0.008739
1062,-0.546482,0.168243,0.8203879999999999,0.010395,-0.017776,-0.006363
1063,-0.546938,0.168512,0.8200299999999999,0.0088519999999999,-0.00332,0.002983
1064,-0.5471,0.168596,0.8199049999999999,0.018459,0.00923,0.005275
1065,-0.547191,0.168509,0.8198620000000001,0.01942,0.005746,0.010186
1066,-0.547217,0.168314,0.8198840000000001,0.0244659999999999,-0.00712,0.011201
1067,-0.5469430000000001,0.16812,0.8201069999999999,0.018471,-0.029891,0.015266
1068,-0.5464640000000001,0.167878,0.820475,0.014116,-0.0383149999999999,0.0147599999999999
1069,-0.545984,0.167712,0.8208290000000001,-0.0001889999999999,-0.045413,0.01633
1070,-0.5457489999999999,0.1677799999999999,0.8209709999999999,8e-05,-0.040674,0.004285
1071,-0.5458770000000001,0.167977,0.820846,0.001382,-0.0378649999999999,0.0022129999999999
1072,-0.546218,0.1681609999999999,0.8205809999999999,0.005737,-0.032907,7.000000000000001e-06
1073,-0.546562,0.168291,0.820325,0.006157,-0.015443,0.001925
1074,-0.5467770000000001,0.168378,0.820163,0.005716,-0.010892,0.000317
1075,-0.5469569999999999,0.168343,0.820051,0.011252,-0.006798,0.005755
1076,-0.547061,0.168263,0.819998,0.019015,-0.01685,0.012018
1077,-0.547018,0.1681869999999999,0.8200430000000001,0.016653,-0.018544,0.011302
1078,-0.546716,0.168119,0.820259,0.00628,-0.023954,0.01458
1079,-0.5464060000000001,0.1681349999999999,0.820462,0.002293,-0.031111,0.0127599999999999
1080,-0.546345,0.168298,0.820469,0.0045969999999999,-0.031396,0.008617
1081,-0.5463560000000001,0.168446,0.8204309999999999,0.006927,-0.027531,0.004566
1082,-0.546423,0.168618,0.820351,0.006231,-0.026467,0.006324
1083,-0.546566,0.1687,0.82024,0.012325,-0.021972,0.0020559999999999
1084,-0.546752,0.1686869999999999,0.820118,0.0145259999999999,-0.021043,0.003246
1085,-0.546896,0.168628,0.8200350000000001,0.013006,-0.022602,0.005557
1086,-0.546886,0.168518,0.8200639999999999,0.0092269999999999,-0.024002,0.013203
1087,-0.5467569999999999,0.168414,0.8201709999999999,0.008091,-0.02518,0.0117069999999999
1088,-0.546642,0.168395,0.8202510000000001,0.006756,-0.027221,0.011811
1089,-0.546603,0.168423,0.8202709999999999,0.004413,-0.026181,0.009273
1090,-0.546646,0.168528,0.8202209999999999,0.0058439999999999,-0.022792,0.003525
1091,-0.546791,0.168695,0.82009,0.010536,-0.023461,0.004617
1092,-0.546921,0.168796,0.819983,0.011337,-0.021228,0.003854
1093,-0.54699,0.168801,0.8199350000000001,0.011025,-0.024087,0.005657
1094,-0.546978,0.168733,0.8199569999999999,0.010265,-0.026246,0.007847
1095,-0.546921,0.168613,0.820019,0.010758,-0.027668,0.007572
1096,-0.54683,0.168503,0.820103,0.006821,-0.0269319999999999,0.008693
1097,-0.546726,0.168462,0.8201799999999999,0.005924,-0.027013,0.009211
1098,-0.5466880000000001,0.168462,0.820205,0.0060079999999999,-0.025914,0.008088
1099,-0.546706,0.168532,0.8201790000000001,0.0082849999999999,-0.025023,0.0073659999999999
1100,-0.5467810000000001,0.168667,0.820102,0.007154,-0.0232509999999999,0.007871
1101,-0.546894,0.168773,0.8200049999999999,0.011417,-0.021847,0.005877
1102,-0.5469890000000001,0.168817,0.819932,0.010948,-0.024378,0.004928
1103,-0.547038,0.168785,0.8199059999999999,0.010859,-0.023781,0.009104
1104,-0.546979,0.168751,0.819951,0.010374,-0.022068,0.009028
1105,-0.5469109999999999,0.168674,0.8200129999999999,0.008718,-0.026798,0.007837
1106,-0.546846,0.168603,0.8200709999999999,0.007219,-0.027688,0.00778
1107,-0.546712,0.16857,0.820167,0.002461,-0.027075,0.008752
1108,-0.546666,0.1686,0.820191,0.005925,-0.023199,0.008254
1109,-0.54668,0.168683,0.8201639999999999,0.0098,-0.024945,0.0066939999999999
1110,-0.546705,0.168759,0.820132,0.0076879999999999,-0.027645,0.007459
1111,-0.5467380000000001,0.168797,0.820102,0.008789,-0.026647,0.006696
1112,-0.546806,0.168795,0.8200569999999999,0.0108569999999999,-0.025347,0.009441
1113,-0.5468569999999999,0.16881,0.8200200000000001,0.013684,-0.023364,0.008456
1114,-0.54685,0.168775,0.820032,0.011113,-0.023267,0.010352
1115,-0.546796,0.16871,0.820081,0.008054,-0.022286,0.01044
1116,-0.546776,0.168689,0.820097,0.00988,-0.023456,0.009065
1117,-0.546754,0.168684,0.8201129999999999,0.008897,-0.023573,0.009904
1118,-0.546743,0.168679,0.8201209999999999,0.009237,-0.025445,0.008279
1119,-0.5467420000000001,0.168706,0.8201149999999999,0.006169,-0.024404,0.007445
1120,-0.5467529999999999,0.168746,0.820099,0.006378,-0.024337,0.006714
1121,-0.546764,0.1687799999999999,0.8200850000000001,0.005199,-0.025637,0.005446
1122,-0.546775,0.168802,0.8200719999999999,0.005744,-0.026285,0.005657
1123,-0.546767,0.168803,0.8200770000000001,0.007902,-0.030787,0.00788
1124,-0.546706,0.168826,0.8201129999999999,0.011275,-0.029361,0.011079
1125,-0.546663,0.168894,0.8201280000000001,0.010119,-0.02891,0.010652
1126,-0.546702,0.168987,0.820083,0.007243,-0.022045,0.008179
1127,-0.546797,0.16915,0.8199860000000001,0.009917,-0.017539,0.005942
1128,-0.546884,0.16931,0.819895,0.009332,-0.019729,0.00971
1129,-0.5469310000000001,0.1694109999999999,0.819843,0.0125379999999999,-0.026238,0.008542
1130,-0.5469430000000001,0.169494,0.819817,0.010322,-0.027496,0.00904
1131,-0.546975,0.169572,0.81978,0.010797,-0.026216,0.008147
1132,-0.546998,0.1696,0.819758,0.010819,-0.025679,0.009954
1133,-0.5470189999999999,0.169623,0.8197399999999999,0.010718,-0.021064,0.008797
1134,-0.547121,0.1696119999999999,0.819674,0.011003,-0.018978,0.004728
1135,-0.54719,0.169537,0.819643,0.012171,-0.0226409999999999,0.004896
1136,-0.547093,0.16946,0.819724,0.013691,-0.0238449999999999,0.007089
1137,-0.5467390000000001,0.169314,0.81999,0.012208,-0.030551,0.007692
1138,-0.546227,0.169183,0.8203590000000001,-0.000663,-0.043253,0.013946
1139,-0.545806,0.16915,0.8206459999999999,-0.004152,-0.044958,0.014391
1140,-0.545611,0.169292,0.8207459999999999,0.000155,-0.042171,0.009255
1141,-0.545687,0.169578,0.8206370000000001,-0.0001199999999999,-0.028129,0.006007
1142,-0.545829,0.169905,0.8204739999999999,0.00135,-0.024627,0.0069489999999999
1143,-0.546004,0.170145,0.8203090000000001,0.003996,-0.015634,0.001926
1144,-0.5461779999999999,0.170274,0.820167,0.019063,-0.00316,0.003045
1145,-0.5462359999999999,0.170327,0.820117,0.021379,-0.003045,0.006772
1146,-0.5462199999999999,0.170229,0.820148,0.01915,-0.0049759999999999,0.011548
1147,-0.546147,0.170031,0.8202370000000001,0.0159039999999999,-0.0145289999999999,0.015243
1148,-0.546079,0.169856,0.820318,0.015469,-0.014705,0.0138639999999999
1149,-0.546021,0.169708,0.8203870000000001,0.01294,-0.024963,0.012712
1150,-0.545984,0.169558,0.820443,0.012903,-0.0309769999999999,0.0080629999999999
1151,-0.5460119999999999,0.169428,0.8204520000000001,0.010947,-0.03393,0.00865
1152,-0.546142,0.169291,0.820393,0.006866,-0.03393,0.007014
1153,-0.546359,0.169182,0.8202709999999999,0.006839,-0.037498,0.0050149999999999
1154,-0.546662,0.169155,0.820075,0.003953,-0.036099,0.00747
1155,-0.547021,0.169243,0.819818,0.0037619999999999,-0.032616,0.006751
1156,-0.5474399999999999,0.169394,0.819506,0.0067599999999999,-0.022025,0.0052619999999999
1157,-0.547912,0.169553,0.8191579999999999,0.01062,-0.018659,0.00825
1158,-0.548375,0.16977,0.818803,0.014333,-0.017136,0.006423
1159,-0.548725,0.169932,0.818534,0.016483,-0.0208229999999999,0.007562
1160,-0.548913,0.1700289999999999,0.818389,0.0142,-0.0183419999999999,0.007967
1161,-0.549002,0.170064,0.818322,0.016089,-0.01914,0.004249
1162,-0.549094,0.170008,0.818271,0.01197,-0.025324,0.0027129999999999
1163,-0.5491560000000001,0.169897,0.818253,0.003257,-0.0360459999999999,0.003264
1164,-0.549086,0.169789,0.8183229999999999,-0.001634,-0.040547,0.005224
1165,-0.548884,0.169752,0.8184670000000001,-0.000768,-0.04698,0.00856
1166,-0.548582,0.169746,0.81867,-0.003084,-0.0553809999999999,0.001139
1167,-0.5483,0.1698849999999999,0.8188310000000001,-0.007608,-0.0496,0.001924
1168,-0.548108,0.170123,0.81891,-0.002688,-0.037311,0.005111
1169,-0.548064,0.1703829999999999,0.8188850000000001,0.011779,-0.023227,0.008355
1170,-0.547991,0.1707,0.818868,0.017809,-0.0129539999999999,0.009486
1171,-0.547837,0.170941,0.818921,0.019471,-0.006711,0.012958
1172,-0.547629,0.171105,0.819025,0.019415,-0.008523,0.013876
1173,-0.547433,0.171163,0.819144,0.020105,-0.006872,0.013085
1174,-0.547312,0.1711599999999999,0.819226,0.017985,-0.01195,0.013828
1175,-0.547271,0.171132,0.819259,0.018218,-0.009877,0.014466
1176,-0.547184,0.171063,0.8193309999999999,0.012897,-0.015652,0.014043
1177,-0.547161,0.1709,0.8193809999999999,0.014126,-0.0215169999999999,0.007447
1178,-0.547248,0.170693,0.819365,0.01197,-0.024346,0.004197
1179,-0.547351,0.170498,0.8193379999999999,0.012073,-0.024151,0.004225
1180,-0.5474289999999999,0.170223,0.819343,0.0080769999999999,-0.033596,0.0034869999999999
1181,-0.547473,0.169904,0.8193790000000001,0.006213,-0.037122,0.00516
1182,-0.547455,0.169602,0.8194540000000001,0.004029,-0.0390779999999999,0.004413
1183,-0.547345,0.16937,0.819576,-0.0019399999999999,-0.050489,0.007725
1184,-0.547188,0.169328,0.8196889999999999,-0.003807,-0.054338,0.007779
1185,-0.5471010000000001,0.169457,0.8197200000000001,-0.003878,-0.045143,0.009579
1186,-0.547271,0.1697509999999999,0.8195469999999999,0.002028,-0.027676,0.0030239999999999
1187,-0.547504,0.1701609999999999,0.819306,0.003879,-0.025172,0.003372
1188,-0.547705,0.170532,0.819094,0.00698,-0.0115959999999999,0.003096
1189,-0.5478430000000001,0.170776,0.81895,0.017417,0.00206,0.004185
1190,-0.547924,0.1709099999999999,0.818869,0.021053,0.0005679999999999,0.005823
1191,-0.547846,0.170823,0.8189390000000001,0.019877,-0.00171,0.015931
1192,-0.547628,0.170714,0.819108,0.016134,-0.004622,0.019408
1193,-0.5475270000000001,0.170628,0.819194,0.02354,-0.005909,0.012075
1194,-0.547475,0.170369,0.819282,0.029485,-0.013585,0.004815
1195,-0.547251,0.169905,0.819528,0.019999,-0.032652,0.006522
1196,-0.546864,0.169406,0.81989,0.007481,-0.056186,0.014659
1197,-0.546469,0.1691089999999999,0.8202139999999999,-0.001032,-0.065044,0.0172189999999999
1198,-0.546235,0.169026,0.8203870000000001,-0.01036,-0.068242,0.012209
1199,-0.546316,0.169176,0.8203020000000001,-0.002085,-0.048586,0.000285
1200,-0.546887,0.169566,0.819842,0.000256,-0.042079,-0.001314
1201,-0.547546,0.170034,0.819305,0.006042,-0.02361,1e-06
1202,-0.548003,0.1703849999999999,0.818926,0.00981,-0.00556,0.004972
1203,-0.548281,0.170668,0.818681,0.0129259999999999,-0.002867,0.006285
1204,-0.5484760000000001,0.170786,0.818526,0.016127,0.0022789999999999,0.013246
1205,-0.548617,0.170814,0.818425,0.02106,0.000466,0.015132
1206,-0.548723,0.170774,0.818362,0.023104,-0.001233,0.013761
1207,-0.548733,0.170632,0.818386,0.023541,-0.007882,0.009297
1208,-0.5485180000000001,0.170352,0.818588,0.016276,-0.024509,0.009018
1209,-0.548172,0.1699369999999999,0.8189069999999999,0.012787,-0.030899,0.007219
1210,-0.547822,0.169513,0.8192290000000001,0.003327,-0.049075,0.007706
1211,-0.547453,0.169277,0.819524,-0.009386,-0.062527,0.00938
1212,-0.547161,0.169217,0.819731,-0.012135,-0.063474,0.00635
1213,-0.547094,0.169311,0.819757,-0.002589,-0.039001,-0.00039
1214,-0.54732,0.169684,0.8195290000000001,0.003023,-0.031546,0.0029809999999999
1215,-0.547666,0.170061,0.8192200000000001,0.012936,-0.016375,0.004007
1216,-0.547938,0.1703569999999999,0.818976,0.020548,-0.005135,0.013437
1217,-0.5480729999999999,0.17062,0.8188310000000001,0.022057,-0.003109,0.0146349999999999
1218,-0.548154,0.170719,0.818756,0.024686,0.0037649999999999,0.017578
1219,-0.548151,0.170715,0.818759,0.030161,-0.0043939999999999,0.014875
1220,-0.54815,0.1706369999999999,0.8187760000000001,0.028222,-0.005781,0.012218
1221,-0.547963,0.170445,0.81894,0.0196889999999999,-0.019139,0.011672
1222,-0.547575,0.1701359999999999,0.819263,0.007063,-0.043962,0.012753
1223,-0.547211,0.169865,0.819564,0.005753,-0.050342,0.008806
1224,-0.5468810000000001,0.169755,0.8198059999999999,-0.009424,-0.058549,0.009845
1225,-0.546673,0.169844,0.8199270000000001,-0.00951,-0.056135,-0.001186
1226,-0.546858,0.17006,0.819759,-0.0049759999999999,-0.046769,-0.004298
1227,-0.547323,0.170311,0.8193969999999999,0.002141,-0.032417,-0.003861
1228,-0.5477770000000001,0.170538,0.819046,0.007494,-0.014852,0.007706
1229,-0.548026,0.170811,0.818823,0.009589,-0.011036,0.009974
1230,-0.5482199999999999,0.170982,0.818656,0.018115,-0.004142,0.011864
1231,-0.548401,0.171117,0.818507,0.026062,0.0020399999999999,0.011953
1232,-0.5485760000000001,0.1711609999999999,0.81838,0.026573,0.000486,0.014093
1233,-0.548539,0.171053,0.8184279999999999,0.0225229999999999,-0.009219,0.011772
1234,-0.5482670000000001,0.170893,0.8186439999999999,0.014698,-0.034174,0.012105
1235,-0.547895,0.170659,0.8189420000000001,0.005155,-0.046377,0.010251
1236,-0.547525,0.170461,0.8192299999999999,0.002054,-0.051259,0.010359
1237,-0.547277,0.170389,0.8194110000000001,-0.003917,-0.055994,0.003633
1238,-0.547247,0.170446,0.819419,-0.002283,-0.0520529999999999,0.00274
1239,-0.547438,0.170594,0.819261,-0.001955,-0.042893,0.001097
1240,-0.547767,0.170823,0.8189930000000001,0.002464,-0.028626,0.00251
1241,-0.548112,0.171036,0.818717,0.008714,-0.013734,0.0076069999999999
1242,-0.548359,0.171271,0.818503,0.0112959999999999,-0.00788,0.0115909999999999
1243,-0.548541,0.171408,0.8183520000000001,0.018542,-0.0028899999999999,0.01072
1244,-0.548642,0.171454,0.818275,0.025174,-0.003088,0.0113
1245,-0.548589,0.171435,0.818314,0.023336,-0.0097069999999999,0.0133199999999999
1246,-0.548289,0.1713049999999999,0.818542,0.017543,-0.026575,0.014176
1247,-0.547834,0.17113,0.8188840000000001,0.009794,-0.0455649999999999,0.010859
1248,-0.547462,0.171021,0.819155,0.004478,-0.047913,0.010847
1249,-0.547237,0.171008,0.819308,0.002345,-0.049609,0.008283
1250,-0.547157,0.1711079999999999,0.81934,0.00283,-0.043819,0.0059619999999999
1251,-0.547324,0.171319,0.819185,0.004721,-0.037926,0.004774
1252,-0.547612,0.171526,0.8189489999999999,0.001775,-0.023195,0.0022329999999999
1253,-0.547908,0.171704,0.818713,0.009533,-0.007855,0.0036439999999999
1254,-0.548201,0.17184,0.818489,0.0130289999999999,-0.005672,0.006828
1255,-0.548335,0.171808,0.818405,0.019481,-0.00622,0.010178
1256,-0.548243,0.17169,0.818492,0.019221,-0.016402,0.0146229999999999
1257,-0.547991,0.171501,0.8187,0.0134449999999999,-0.030174,0.013881
1258,-0.547642,0.171325,0.818971,0.006672,-0.045043,0.013229
1259,-0.547385,0.171227,0.819163,0.005485,-0.047249,0.0093739999999999
1260,-0.5472520000000001,0.171245,0.819249,0.001048,-0.0459399999999999,0.006053
1261,-0.547251,0.171318,0.819233,0.0032909999999999,-0.033989,0.0036729999999999
1262,-0.547474,0.171496,0.819048,0.0073739999999999,-0.030077,0.002821
1263,-0.5478,0.171623,0.818803,0.0100959999999999,-0.018196,0.00067
1264,-0.54808,0.171639,0.818613,0.0148919999999999,-0.013055,0.0119379999999999
1265,-0.548245,0.1716359999999999,0.8185020000000001,0.0160949999999999,-0.013738,0.01034
1266,-0.5483359999999999,0.171579,0.818453,0.015575,-0.015253,0.009794
1267,-0.548271,0.171476,0.8185180000000001,0.01258,-0.024672,0.013284
1268,-0.548093,0.1713309999999999,0.818667,0.012312,-0.028905,0.013715
1269,-0.547866,0.17121,0.8188439999999999,0.0096879999999999,-0.034567,0.011814
1270,-0.547733,0.171181,0.81894,0.003635,-0.038322,0.003067
1271,-0.547704,0.171217,0.818951,0.004323,-0.039275,0.0037719999999999
1272,-0.54772,0.171243,0.8189350000000001,0.00379,-0.038843,0.004018
1273,-0.547774,0.171266,0.818893,0.008712,-0.027848,0.004944
1274,-0.5479,0.171318,0.8187979999999999,0.011584,-0.027458,0.006611
1275,-0.5480430000000001,0.1713309999999999,0.818701,0.012154,-0.0228629999999999,0.006251
1276,-0.548144,0.1713,0.8186399999999999,0.012667,-0.02036,0.009302
1277,-0.548132,0.171308,0.818646,0.014655,-0.021161,0.0084409999999999
1278,-0.548039,0.171317,0.818707,0.0134169999999999,-0.022849,0.014332
1279,-0.547926,0.171329,0.8187800000000001,0.011656,-0.02248,0.015235
1280,-0.5478970000000001,0.1713599999999999,0.818792,0.015106,-0.028675,0.008112
1281,-0.547964,0.1713849999999999,0.818742,0.0112819999999999,-0.0294779999999999,0.005339
1282,-0.548058,0.171393,0.8186770000000001,0.008355,-0.031073,0.0065489999999999
1283,-0.548183,0.171391,0.8185939999999999,0.006816,-0.0301399999999999,0.0077
1284,-0.54824,0.171368,0.8185600000000001,0.00605,-0.030132,0.005674
1285,-0.548435,0.1713839999999999,0.818427,-0.002774,-0.034864,0.002206
1286,-0.548705,0.171469,0.818228,-0.002839,-0.027456,0.004755
1287,-0.548849,0.171678,0.818087,0.0018059999999999,-0.028047,0.00485
1288,-0.549002,0.1718599999999999,0.817946,0.008688,-0.027985,0.007783
1289,-0.549006,0.172009,0.817912,0.011302,-0.023358,0.012242
1290,-0.5488609999999999,0.1721589999999999,0.817978,0.011844,-0.019663,0.013626
1291,-0.5488350000000001,0.172269,0.817972,0.016731,-0.018445,0.01496
1292,-0.549027,0.17234,0.817828,0.0244449999999999,-0.02024,0.016736
1293,-0.549253,0.172419,0.817661,0.025525,-0.023661,0.019284
1294,-0.5494859999999999,0.172519,0.817484,0.020707,-0.025303,0.017737
1295,-0.549726,0.172673,0.81729,0.018857,-0.031438,0.010316
1296,-0.550071,0.172843,0.817022,0.019446,-0.031714,0.008646
1297,-0.550423,0.17294,0.816764,0.012353,-0.034711,0.004144
1298,-0.550725,0.17295,0.816559,0.004811,-0.041099,-0.0007019999999999
1299,-0.5509970000000001,0.172894,0.816387,-0.000227,-0.039471,-0.003704
1300,-0.551214,0.17279,0.816263,-0.007212,-0.0332029999999999,-0.000986
1301,-0.551363,0.172584,0.816206,-0.0078409999999999,-0.029945,-0.001402
1302,-0.5513600000000001,0.172346,0.8162590000000001,-0.002199,-0.016172,2.5e-05
1303,-0.551319,0.172196,0.816318,0.00362,-0.018555,0.0055509999999999
1304,-0.551214,0.1721619999999999,0.816396,0.008505,-0.017819,0.004771
1305,-0.5509970000000001,0.172164,0.816543,0.008592,-0.025039,0.005525
1306,-0.550593,0.172211,0.816805,0.007227,-0.027298,0.014204
1307,-0.5500689999999999,0.172228,0.817155,0.003926,-0.0267199999999999,0.0155629999999999
1308,-0.549675,0.172182,0.817431,0.017601,-0.034608,0.013288
1309,-0.549392,0.1721359999999999,0.817631,0.025024,-0.045167,0.009884
1310,-0.549142,0.172059,0.817816,0.019555,-0.04416,0.012461
1311,-0.548729,0.171981,0.81811,0.013206,-0.034851,0.017583
1312,-0.548492,0.17194,0.818277,0.017425,-0.026967,0.015966
1313,-0.5484829999999999,0.172003,0.8182699999999999,0.0194,-0.023856,0.0168129999999999
1314,-0.548471,0.1720809999999999,0.8182619999999999,0.018213,-0.0201639999999999,0.013083
1315,-0.548691,0.172284,0.818071,0.025483,-0.0137449999999999,0.014769
1316,-0.54897,0.172523,0.8178340000000001,0.023808,-0.010902,0.013084
1317,-0.5492819999999999,0.172746,0.817577,0.0196949999999999,-0.012849,0.019017
1318,-0.549834,0.173004,0.817152,0.016585,-0.014572,0.010637
1319,-0.5506939999999999,0.173181,0.816535,0.012974,-0.013925,0.007379
1320,-0.551485,0.173337,0.815968,0.006639,-0.01846,-0.001362
1321,-0.552104,0.1733579999999999,0.815545,-0.0016059999999999,-0.033313,-0.003564
1322,-0.5525770000000001,0.173219,0.8152550000000001,-0.006611,-0.03998,0.002967
1323,-0.5528430000000001,0.173103,0.815099,-0.007963,-0.037407,0.005442
1324,-0.5529270000000001,0.173044,0.815055,-0.008475,-0.036142,0.001107
1325,-0.55303,0.172977,0.814999,-0.011317,-0.027805,-0.005077
1326,-0.5532090000000001,0.172905,0.8148920000000001,0.001925,-0.043526,-0.000699
1327,-0.5530619999999999,0.172827,0.815009,0.014366,-0.041723,0.011071
1328,-0.552689,0.17273,0.815283,0.0156099999999999,-0.036149,0.017099
1329,-0.5523710000000001,0.172763,0.815491,0.014468,-0.029331,0.015304
1330,-0.5523239999999999,0.1728319999999999,0.815509,0.021821,-0.028957,0.014402
1331,-0.552367,0.172926,0.815459,0.029632,-0.024625,0.01645
1332,-0.552392,0.1730799999999999,0.8154100000000001,0.028435,-0.0261069999999999,0.014897
1333,-0.552404,0.173219,0.815372,0.018682,-0.02617,0.01643
1334,-0.552372,0.173305,0.815376,0.007328,-0.0247,0.009484
1335,-0.552438,0.173376,0.815317,0.010186,-0.021963,0.0035
1336,-0.552608,0.173393,0.8151970000000001,0.007808,-0.025611,-0.000866
1337,-0.5526479999999999,0.17328,0.815194,0.005178,-0.0296339999999999,0.002845
1338,-0.5525760000000001,0.173143,0.815272,0.0034729999999999,-0.0310839999999999,0.005514
1339,-0.5524819999999999,0.173008,0.8153630000000001,-0.002861,-0.027134,0.0075739999999999
1340,-0.552595,0.17287,0.815315,-0.001131,-0.0309029999999999,0.005135
1341,-0.553029,0.172746,0.815048,-0.000758,-0.027375,0.002579
1342,-0.553879,0.172614,0.814499,-0.002075,-0.028479,0.013077
1343,-0.555305,0.172591,0.813531,0.0275949999999999,-0.068389,0.008872
1344,-0.554264,0.172823,0.814192,0.0154449999999999,0.028898,0.008134
1345,-0.554416,0.17315,0.81402,0.026202,-0.04464,0.004462
1346,-0.554193,0.172892,0.814227,0.040704,-0.05427,-0.000582
1347,-0.552795,0.172288,0.8153050000000001,-0.007493,-0.026338,0.021319
1348,-0.5524319999999999,0.172243,0.8155600000000001,0.0292389999999999,-0.030092,0.01522
1349,-0.5529569999999999,0.172448,0.8151609999999999,0.033273,-0.0239039999999999,0.026743
1350,-0.552978,0.172592,0.815117,0.0360399999999999,-0.029342,0.021202
1351,-0.553054,0.172766,0.815028,0.016723,-0.040533,0.01653
1352,-0.553457,0.172992,0.814707,0.005956,-0.044361,0.015218
1353,-0.553974,0.173277,0.814295,0.002643,-0.032606,0.0019579999999999
1354,-0.554703,0.173569,0.813737,-0.014434,-0.003007,-0.004975
1355,-0.5564319999999999,0.174025,0.812458,-0.006083,-0.022703,-0.01305
1356,-0.559088,0.174809,0.8104640000000001,-0.010706,-0.030751,-0.01011
1357,-0.561822,0.17551,0.808419,0.019418,-0.027255,0.004539
1358,-0.562346,0.175551,0.808046,0.017317,-0.0198199999999999,0.011397
1359,-0.561455,0.175213,0.808739,0.006249,-0.018307,0.01699
1360,-0.5605600000000001,0.174844,0.809441,-0.009768,-0.0149169999999999,0.008965
1361,-0.560638,0.174826,0.8093899999999999,-0.00296,-0.01435,0.005567
1362,-0.5617270000000001,0.174953,0.808607,0.016607,-0.033458,0.000704
1363,-0.562837,0.175059,0.807812,0.024842,-0.040614,0.019291
1364,-0.563283,0.174993,0.807515,0.01621,-0.036367,0.0106909999999999
1365,-0.563032,0.174569,0.807782,0.0153789999999999,-0.029122,0.010394
1366,-0.562909,0.174078,0.807975,0.025906,-0.028875,0.0009699999999999
1367,-0.56312,0.173949,0.807855,0.016017,-0.026381,0.021796
1368,-0.563766,0.173868,0.807422,0.015182,-0.033625,0.023327
1369,-0.564856,0.174016,0.806628,0.020529,-0.041783,0.009824
1370,-0.566454,0.174649,0.805369,0.020068,-0.022061,-0.000346
1371,-0.568174,0.175387,0.803996,0.004545,-0.020709,0.008412
1372,-0.569221,0.17595,0.803133,-0.007729,-0.022446,0.00717
1373,-0.569756,0.176025,0.802737,-0.0035619999999999,-0.010193,0.024061
1374,-0.5702689999999999,0.175311,0.802528,0.0167259999999999,-0.036456,-0.007561
1375,-0.571313,0.175028,0.801848,0.017526,-0.026972,0.0084549999999999
1376,-0.571959,0.174826,0.801431,0.006957,-0.024313,0.013129
1377,-0.572203,0.174379,0.801355,-0.004442,-0.028368,0.014747
1378,-0.5721310000000001,0.173589,0.8015770000000001,0.026706,-0.042912,0.008771
1379,-0.571394,0.173035,0.8022229999999999,0.024702,-0.0308839999999999,0.0051649999999999
1380,-0.5707760000000001,0.172813,0.802711,0.018759,-0.0279759999999999,0.006753
1381,-0.5706319999999999,0.172855,0.802804,0.012358,-0.023686,0.012381
1382,-0.570654,0.1728829999999999,0.802783,0.006414,-0.028734,0.013562
1383,-0.5709810000000001,0.172838,0.80256,0.012646,-0.026919,0.013281
1384,-0.571697,0.172822,0.802054,0.021252,-0.036561,0.011117
1385,-0.572287,0.1728579999999999,0.8016260000000001,0.018164,-0.0297,0.009852
1386,-0.572635,0.172987,0.801349,0.012974,-0.030851,0.008847
1387,-0.572759,0.173072,0.801243,0.004751,-0.02935,0.006222
1388,-0.572706,0.173145,0.801265,0.001188,-0.026813,0.008519
1389,-0.572625,0.1731329999999999,0.801325,0.0005269999999999,-0.020454,0.008352
1390,-0.572738,0.173122,0.801247,0.011321,-0.029293,0.006569
1391,-0.572984,0.173256,0.801042,0.01201,-0.031319,0.006011
1392,-0.573175,0.173416,0.800871,0.009637,-0.029098,0.006425
1393,-0.573237,0.173541,0.8008,0.008341,-0.0267519999999999,0.010907
1394,-0.573325,0.173654,0.800712,0.013205,-0.0272,0.01017
1395,-0.5735180000000001,0.173788,0.800545,0.016481,-0.036031,0.007927
1396,-0.573607,0.173848,0.8004680000000001,0.011809,-0.030354,0.014931
1397,-0.5734899999999999,0.173876,0.800546,0.013065,-0.026613,0.016364
1398,-0.573419,0.1738859999999999,0.800595,0.0081269999999999,-0.024457,0.012226
1399,-0.573603,0.173959,0.800447,0.012888,-0.02836,0.009672
1400,-0.573641,0.174028,0.800405,0.016665,-0.030168,0.010737
1401,-0.573558,0.174002,0.80047,0.012629,-0.025916,0.007162
1402,-0.573217,0.173876,0.800741,0.013418,-0.032214,0.009623
1403,-0.572472,0.17364,0.801325,0.012291,-0.032878,0.012258
1404,-0.571103,0.173147,0.802408,0.0175449999999999,-0.035619,0.003836
1405,-0.5698449999999999,0.1726589999999999,0.8034060000000001,0.011847,-0.030798,0.006439
1406,-0.568715,0.172301,0.804284,0.005971,-0.024779,0.015937
1407,-0.567409,0.171896,0.805293,0.004726,-0.029623,0.017873
1408,-0.565905,0.171339,0.80647,0.015657,-0.015715,0.012195
1409,-0.564292,0.170892,0.807693,0.005622,-0.015756,0.011994
1410,-0.563042,0.170587,0.8086300000000001,0.0037619999999999,-0.023752,0.011423
1411,-0.562553,0.170466,0.808995,0.003624,-0.026149,0.0086319999999999
1412,-0.562315,0.170397,0.809175,0.009901,-0.0340139999999999,0.005476
1413,-0.56217,0.1703049999999999,0.809295,0.008322,-0.039858,0.008576
1414,-0.562058,0.170212,0.809393,0.005005,-0.039795,0.006709
1415,-0.561922,0.170149,0.8095,0.006502,-0.033079,0.007609
1416,-0.561804,0.170113,0.809589,0.008826,-0.0312269999999999,0.007519
1417,-0.561763,0.1701339999999999,0.8096140000000001,0.012172,-0.028288,0.0102709999999999
1418,-0.561708,0.170105,0.809658,0.0164659999999999,-0.022461,0.015384
1419,-0.5616270000000001,0.170163,0.809702,0.018857,-0.0223669999999999,0.015111
1420,-0.561587,0.170243,0.809714,0.019259,-0.020509,0.0137729999999999
1421,-0.561579,0.170312,0.809704,0.018091,-0.021432,0.012302
1422,-0.561567,0.170337,0.809707,0.0165389999999999,-0.025547,0.011445
1423,-0.561505,0.170335,0.80975,0.012555,-0.027544,0.009738
1424,-0.561425,0.170301,0.809813,0.008522,-0.028486,0.007768
1425,-0.561422,0.170248,0.8098270000000001,0.01151,-0.029089,0.0064569999999999
1426,-0.5614779999999999,0.1701619999999999,0.809806,0.006547,-0.030392,0.007547
1427,-0.561535,0.1700839999999999,0.809782,0.007336,-0.0324949999999999,0.01053
1428,-0.561559,0.17007,0.809768,0.007513,-0.032253,0.010636
1429,-0.561563,0.17009,0.809761,0.00448,-0.030091,0.006615
1430,-0.561566,0.1701339999999999,0.8097489999999999,0.006497,-0.02548,0.009633
1431,-0.561601,0.170237,0.809703,0.015687,-0.0272779999999999,0.007603
1432,-0.561604,0.170315,0.809686,0.013493,-0.033917,0.007911
1433,-0.561492,0.170364,0.809753,0.0129389999999999,-0.034393,0.010575
1434,-0.5613779999999999,0.170352,0.809834,0.0123209999999999,-0.036441,0.011852
1435,-0.561307,0.170318,0.809891,0.011609,-0.0380089999999999,0.009612
1436,-0.561281,0.17033,0.8099069999999999,0.010241,-0.037518,0.008056
1437,-0.561305,0.170351,0.809886,0.0091349999999999,-0.033205,0.006718
1438,-0.561376,0.170381,0.8098310000000001,0.011892,-0.029588,0.007445
1439,-0.561417,0.170464,0.8097850000000001,0.011154,-0.027322,0.010588
1440,-0.561354,0.170544,0.809812,0.015455,-0.030285,0.010988
1441,-0.561292,0.1705819999999999,0.8098479999999999,0.01434,-0.024769,0.011045
1442,-0.561232,0.170654,0.809874,0.0139449999999999,-0.0283199999999999,0.014147
1443,-0.561125,0.170739,0.80993,0.012267,-0.025033,0.011969
1444,-0.560999,0.170803,0.810004,0.00735,-0.0267139999999999,0.0070129999999999
1445,-0.560948,0.1708299999999999,0.810033,0.009496,-0.022729,0.006892
1446,-0.560854,0.170852,0.810094,0.01079,-0.022903,0.005229
1447,-0.560651,0.17081,0.810243,0.005735,-0.029209,0.008895
1448,-0.560366,0.170669,0.81047,0.0030239999999999,-0.0306089999999999,0.008653
1449,-0.5600970000000001,0.1705,0.8106909999999999,0.00808,-0.032622,0.007165
1450,-0.559951,0.1704,0.810813,-0.005814,-0.047719,-0.010627
1451,-0.56011,0.170738,0.810632,0.0104269999999999,-0.025932,0.015647
1452,-0.5604640000000001,0.1711619999999999,0.810298,0.002527,-0.029331,0.018834
1453,-0.560396,0.171132,0.810351,0.012041,-0.020741,0.00813
1454,-0.560113,0.17118,0.810537,0.021036,-0.019966,0.0013369999999999
1455,-0.560071,0.1711369999999999,0.8105760000000001,0.02731,-0.026682,0.004854
1456,-0.559917,0.171026,0.810706,0.017802,-0.025213,0.019891
1457,-0.559516,0.171062,0.810975,0.026725,-0.041362,0.012984
1458,-0.558797,0.1713829999999999,0.8114020000000001,0.022466,-0.021008,0.02304
1459,-0.558575,0.171441,0.811542,0.0192379999999999,-0.020776,0.019131
1460,-0.558717,0.1713849999999999,0.811457,0.013337,-0.035689,0.017111
1461,-0.5587810000000001,0.171327,0.8114239999999999,0.0130199999999999,-0.038896,0.011131
1462,-0.5587270000000001,0.171515,0.8114210000000001,0.0173,-0.038215,0.006892
1463,-0.558738,0.171785,0.8113560000000001,0.012534,-0.034059,0.004302
1464,-0.5585939999999999,0.172006,0.811409,0.005936,-0.0354709999999999,0.006997
1465,-0.5583640000000001,0.17225,0.811515,0.002333,-0.031183,0.007012
1466,-0.558361,0.172477,0.811469,0.0033689999999999,-0.023368,0.007959
1467,-0.558592,0.172654,0.8112729999999999,0.004759,-0.0238199999999999,0.005591
1468,-0.558812,0.172749,0.811102,0.004765,-0.023976,0.0038399999999999
1469,-0.558793,0.172871,0.811088,-0.000518,-0.019002,0.002663
1470,-0.558653,0.173028,0.8111520000000001,-0.000628,-0.020501,0.005239
1471,-0.558603,0.173145,0.811161,0.0046939999999999,-0.021549,0.010159
1472,-0.558733,0.173165,0.811067,0.015078,-0.026436,0.009505
1473,-0.558958,0.173114,0.810924,0.015486,-0.029071,0.007009
1474,-0.559037,0.1730259999999999,0.810888,0.014573,-0.0307379999999999,0.0080209999999999
1475,-0.558966,0.172903,0.810964,0.009375,-0.038931,0.013392
1476,-0.559029,0.172751,0.810952,0.014916,-0.0411589999999999,0.009223
1477,-0.559057,0.172647,0.810955,0.016531,-0.0344019999999999,0.0098
1478,-0.558971,0.172736,0.810995,0.015987,-0.030661,0.014261
1479,-0.5588890000000001,0.172834,0.811032,0.014531,-0.0269899999999999,0.012211
1480,-0.5587439999999999,0.172854,0.811127,0.011853,-0.027224,0.006912
1481,-0.5584680000000001,0.172888,0.8113090000000001,0.011334,-0.0271509999999999,0.007951
1482,-0.558191,0.1729089999999999,0.811495,0.010935,-0.027325,0.011366
1483,-0.5578930000000001,0.17292,0.811697,0.01349,-0.029243,0.0139099999999999
1484,-0.5576810000000001,0.172985,0.811829,0.014208,-0.028301,0.012389
1485,-0.557603,0.173041,0.811871,0.014802,-0.030982,0.006886
1486,-0.557542,0.173027,0.811916,0.012544,-0.032188,0.010411
1487,-0.5575640000000001,0.172969,0.811913,0.01342,-0.033412,0.007377
1488,-0.557571,0.172933,0.811916,0.012634,-0.031652,0.008809
1489,-0.5575399999999999,0.172922,0.81194,0.01181,-0.03007,0.009044
1490,-0.557591,0.172874,0.8119149999999999,0.008397,-0.033211,0.006185
1491,-0.557742,0.172781,0.8118310000000001,0.008594,-0.032186,0.010862
1492,-0.557913,0.1726609999999999,0.811739,0.00173,-0.028587,0.008192
1493,-0.558094,0.172567,0.811634,0.000859,-0.025518,0.005688
1494,-0.5585140000000001,0.172379,0.811385,-9.5e-05,-0.0289149999999999,0.003694
1495,-0.5590970000000001,0.172044,0.811055,0.010467,-0.03177,0.002712
1496,-0.5590189999999999,0.17189,0.811141,0.007337,-0.020812,0.006959
1497,-0.558791,0.172035,0.811267,0.011993,-0.013954,0.014631
1498,-0.5586949999999999,0.172149,0.811308,0.014231,-0.022262,0.0093099999999999
1499,-0.558582,0.172247,0.811366,0.0223879999999999,-0.031744,0.015096
1500,-0.558595,0.172233,0.8113600000000001,0.020219,-0.03115,0.009395
1501,-0.558479,0.172178,0.811451,0.023185,-0.033811,0.015193
1502,-0.558307,0.172157,0.811575,0.024661,-0.035774,0.020533
1503,-0.558264,0.172125,0.811611,0.027304,-0.045523,0.011708
1504,-0.558239,0.171965,0.811662,0.01759,-0.052244,0.003676
1505,-0.558153,0.171739,0.811769,0.00316,-0.049821,0.010878
1506,-0.55818,0.171707,0.811757,0.003768,-0.038178,0.010448
1507,-0.55837,0.171847,0.811597,0.008031,-0.021823,0.005023
1508,-0.558713,0.17204,0.8113199999999999,0.003018,-0.008237,0.002355
1509,-0.559022,0.172248,0.811063,0.001634,-0.005103,0.00043
1510,-0.5590310000000001,0.172469,0.811009,-0.000127,-0.0070019999999999,0.00468
1511,-0.558972,0.172622,0.811017,0.006558,-0.023421,0.007571
1512,-0.558928,0.172708,0.811029,0.005797,-0.026452,0.011725
1513,-0.5588770000000001,0.1726099999999999,0.811086,0.005685,-0.04085,0.008342
1514,-0.558574,0.172427,0.811334,0.077174,-0.1184109999999999,-0.014444
1515,-0.55557,0.1726339999999999,0.813349,0.059965,-0.0697899999999999,-0.05041
1516,-0.549482,0.173211,0.817353,-0.108431,0.099037,0.051711
1517,-0.550651,0.171934,0.816836,0.005241,-0.073194,0.043699
1518,-0.552832,0.170961,0.815565,0.035666,-0.09862,0.026277
1519,-0.553863,0.171459,0.814761,0.047363,-0.042797,0.004392
1520,-0.5535260000000001,0.172373,0.8147979999999999,0.042524,-0.03393,0.018546
1521,-0.552383,0.172818,0.815479,0.001144,-0.010053,0.027951
1522,-0.5513319999999999,0.172783,0.8161970000000001,0.015428,-0.02256,0.01141
1523,-0.551797,0.172873,0.815864,0.024819,-0.025824,0.010476
1524,-0.5527890000000001,0.173096,0.815145,0.030343,-0.029999,0.012903
1525,-0.55309,0.173146,0.81493,0.028035,-0.0283399999999999,0.007198
1526,-0.55277,0.172989,0.815181,0.022374,-0.027573,0.008336
1527,-0.552265,0.172745,0.815575,0.008274,-0.026764,0.012657
1528,-0.551968,0.1726079999999999,0.815805,0.0018579999999999,-0.034241,0.011466
1529,-0.552109,0.172646,0.815701,-0.000137,-0.0401689999999999,0.009158
1530,-0.5524100000000001,0.172759,0.815473,-0.001941,-0.042068,0.001848
1531,-0.5525359999999999,0.172824,0.815375,-0.005783,-0.0350069999999999,-0.00257
1532,-0.552621,0.172915,0.815298,-0.0032719999999999,-0.030017,4e-05
1533,-0.552905,0.17304,0.815078,0.0027649999999999,-0.025,0.002579
1534,-0.553237,0.173143,0.8148310000000001,0.019042,-0.02205,0.005268
1535,-0.553424,0.173217,0.814688,0.019321,-0.023361,0.006372
1536,-0.553451,0.1731339999999999,0.8146869999999999,0.01741,-0.022636,0.008326
1537,-0.553262,0.173006,0.814843,0.0165039999999999,-0.0278029999999999,0.015189
1538,-0.5529569999999999,0.1728829999999999,0.815076,0.016366,-0.029573,0.0183139999999999
1539,-0.552688,0.172729,0.815291,0.014938,-0.0363459999999999,0.0155199999999999
1540,-0.552519,0.172614,0.81543,0.014265,-0.041572,0.0127409999999999
1541,-0.552458,0.172573,0.815481,0.010679,-0.038646,0.007044
1542,-0.5524399999999999,0.172612,0.815484,0.010234,-0.037984,0.007605
1543,-0.552397,0.172699,0.815495,0.008436,-0.036209,0.008144
1544,-0.5524439999999999,0.1728319999999999,0.815435,0.0111989999999999,-0.033596,0.008097
1545,-0.552605,0.17299,0.815292,0.008888,-0.030168,0.006256
1546,-0.552766,0.173176,0.8151430000000001,0.006211,-0.022801,0.008969
1547,-0.553167,0.173401,0.814823,0.006292,-0.022568,0.0129509999999999
1548,-0.55391,0.173572,0.814282,0.016724,-0.033863,0.00745
1549,-0.554495,0.173748,0.813846,0.0156919999999999,-0.038021,0.00938
1550,-0.554862,0.173929,0.813558,0.013602,-0.035608,0.00915
1551,-0.5551010000000001,0.174034,0.813372,0.015749,-0.038231,0.0146919999999999
1552,-0.5553710000000001,0.174013,0.813193,0.016583,-0.036562,0.009072
1553,-0.555503,0.174031,0.813098,0.012626,-0.033986,0.008618
1554,-0.5554680000000001,0.174129,0.8131010000000001,0.011904,-0.0310779999999999,0.00802
1555,-0.555343,0.1741589999999999,0.81318,0.008956,-0.036631,0.008826
1556,-0.555111,0.174241,0.813321,0.011379,-0.021683,0.007403
1557,-0.554829,0.17429,0.813503,0.014424,-0.0171699999999999,0.007618
1558,-0.554528,0.174247,0.813718,0.014352,-0.0147319999999999,0.01044
1559,-0.554226,0.174054,0.813964,0.018841,-0.027478,0.013062
1560,-0.553882,0.17382,0.814248,0.017368,-0.027198,0.014609
1561,-0.553585,0.173597,0.8144979999999999,0.017757,-0.032637,0.014069
1562,-0.5533100000000001,0.173365,0.8147340000000001,0.01379,-0.037714,0.0133
1563,-0.553098,0.173148,0.814924,0.011945,-0.036368,0.01349
1564,-0.55296,0.173016,0.815046,0.010602,-0.039761,0.00818
1565,-0.552991,0.173016,0.815025,0.010984,-0.036846,0.007896
1566,-0.553096,0.173055,0.814946,0.007762,-0.0335139999999999,0.003703
1567,-0.5532130000000001,0.173067,0.814864,0.004553,-0.027025,0.005113
1568,-0.5532699999999999,0.173092,0.81482,0.004869,-0.0250659999999999,0.0072019999999999
1569,-0.553292,0.173131,0.814796,0.003839,-0.02123,0.00692
1570,-0.553617,0.173153,0.814571,0.0132729999999999,-0.033184,0.00446
1571,-0.5540579999999999,0.1731369999999999,0.814275,0.014675,-0.0387529999999999,0.004817
1572,-0.554149,0.173104,0.8142199999999999,0.006542,-0.037194,0.009877
1573,-0.5540609999999999,0.173163,0.814267,0.002471,-0.029532,0.00719
1574,-0.554339,0.173225,0.8140649999999999,0.005053,-0.031441,0.007178
1575,-0.5548930000000001,0.173072,0.81372,0.009223,-0.0374829999999999,0.010926
1576,-0.555366,0.172931,0.813426,0.02404,-0.037524,0.006154
1577,-0.555175,0.17296,0.813551,0.01567,-0.035493,0.008394
1578,-0.554655,0.173067,0.813882,0.011091,-0.031954,0.018271
1579,-0.554616,0.173163,0.8138890000000001,0.0186509999999999,-0.022619,0.0168
1580,-0.554855,0.173432,0.8136680000000001,0.021652,-0.02266,0.0128849999999999
1581,-0.5551229999999999,0.1736589999999999,0.813438,0.022072,-0.028883,0.005227
1582,-0.555133,0.1736609999999999,0.81343,0.00928,-0.036545,-0.003982
1583,-0.554913,0.1734609999999999,0.813623,0.0066489999999999,-0.039611,-0.0002839999999999
1584,-0.5545899999999999,0.173096,0.813921,0.007883,-0.0526429999999999,0.011442
1585,-0.5543520000000001,0.172875,0.814131,0.0128169999999999,-0.044731,0.029802
1586,-0.554443,0.173018,0.814038,0.014922,-0.040679,0.024005
1587,-0.55491,0.1734619999999999,0.813625,0.0089959999999999,-0.0330209999999999,0.01627
1588,-0.555449,0.1740519999999999,0.813131,0.000793,-0.020045,0.003855
1589,-0.555902,0.1747119999999999,0.8126800000000001,-0.00614,-0.004577,-0.005719
1590,-0.556246,0.175204,0.812339,-0.005781,-0.0001699999999999,-0.0036079999999999
1591,-0.5564060000000001,0.175345,0.812199,0.001673,-0.0120299999999999,-0.001164
1592,-0.556442,0.175346,0.812174,0.012054,-0.043907,-5.5e-05
1593,-0.556283,0.175243,0.812305,0.013284,-0.0483959999999999,0.005139
1594,-0.555859,0.174991,0.812649,0.015576,-0.050648,0.012165
1595,-0.555453,0.174667,0.8129970000000001,0.026904,-0.048095,0.026008
1596,-0.555366,0.174417,0.81311,0.031334,-0.04374,0.030579
1597,-0.5555640000000001,0.1744359999999999,0.812971,0.032218,-0.027326,0.0272089999999999
1598,-0.556028,0.174665,0.812604,0.023984,-0.018827,0.013751
1599,-0.556657,0.17497,0.812107,0.0204479999999999,-0.020566,0.008495
1600,-0.557191,0.175177,0.811697,0.009049,-0.021033,0.004404
1601,-0.557595,0.175296,0.811393,0.000481,-0.019061,-0.000602
1602,-0.557959,0.1753299999999999,0.811135,0.001792,-0.02349,7.000000000000001e-06
1603,-0.558118,0.175306,0.8110310000000001,-0.0011769999999999,-0.023191,-0.000439
1604,-0.558072,0.175144,0.811099,-0.000659,-0.048679,-0.002886
1605,-0.5577840000000001,0.174831,0.8113640000000001,-0.000795,-0.058834,-0.002785
1606,-0.557308,0.174467,0.811769,-0.003452,-0.069486,-0.000612
1607,-0.5567770000000001,0.17418,0.812195,0.003997,-0.056398,0.0121
1608,-0.556221,0.174057,0.812602,0.015419,-0.035751,0.020543
1609,-0.55571,0.1741049999999999,0.812941,0.032517,-0.029436,0.0233169999999999
1610,-0.555389,0.174448,0.813087,0.033599,-0.033854,0.026101
1611,-0.5553819999999999,0.174978,0.812978,0.0308,-0.023382,0.0284069999999999
1612,-0.555604,0.175668,0.8126770000000001,0.026994,-0.0084319999999999,0.009772
1613,-0.555971,0.176241,0.812301,0.027529,-0.013734,0.0028079999999999
1614,-0.556321,0.176494,0.812006,0.009751,-0.0272779999999999,-0.001231
1615,-0.556519,0.176595,0.8118489999999999,-0.0068049999999999,-0.028875,0.002345
1616,-0.556578,0.176628,0.811802,-0.007875,-0.023735,0.000134
1617,-0.556451,0.176517,0.811913,-0.00933,-0.023349,-0.005226
1618,-0.556293,0.176216,0.812087,0.001331,-0.03257,-0.002303
1619,-0.556005,0.17583,0.812366,0.003256,-0.033511,0.000805
1620,-0.555399,0.1754119999999999,0.812871,0.0105989999999999,-0.035154,0.007029
1621,-0.554617,0.175044,0.813485,0.032217,-0.0353949999999999,0.023612
1622,-0.554018,0.174735,0.813959,0.033571,-0.041831,0.02706
1623,-0.553739,0.17461,0.814176,0.029584,-0.045979,0.030917
1624,-0.553612,0.174767,0.814229,0.022362,-0.035515,0.0178639999999999
1625,-0.553704,0.175075,0.8141,0.021249,-0.036266,0.016237
1626,-0.553918,0.175371,0.8138920000000001,0.017297,-0.035219,0.009061
1627,-0.554092,0.175564,0.813732,0.006957,-0.016628,0.004749
1628,-0.5542600000000001,0.175641,0.813601,0.006042,-0.017651,0.0006389999999999
1629,-0.5543100000000001,0.175667,0.813561,0.006977,-0.033394,0.000404
1630,-0.554211,0.175636,0.813635,0.006298,-0.046424,0.003855
1631,-0.553995,0.175557,0.8137989999999999,7e-05,-0.049351,0.008375
1632,-0.553782,0.175451,0.813967,0.002757,-0.046346,0.008619
1633,-0.553671,0.175424,0.814048,0.004553,-0.042581,0.007912
1634,-0.5536840000000001,0.175469,0.81403,0.004688,-0.034905,0.007916
1635,-0.55376,0.175558,0.813959,0.0052829999999999,-0.027792,0.0080629999999999
1636,-0.5537770000000001,0.175723,0.813912,0.00765,-0.021304,0.0088569999999999
1637,-0.55372,0.175871,0.813919,0.016046,-0.015669,0.011215
1638,-0.55365,0.175967,0.813945,0.019242,-0.016818,0.012975
1639,-0.553603,0.1759619999999999,0.813978,0.023803,-0.010541,0.014452
1640,-0.553554,0.175869,0.814032,0.026225,-0.016888,0.01542
1641,-0.553489,0.175673,0.814118,0.02642,-0.020888,0.016418
1642,-0.553383,0.175418,0.814245,0.025231,-0.034686,0.01594
1643,-0.553315,0.175157,0.814347,0.0162819999999999,-0.045702,0.015487
1644,-0.553416,0.174943,0.8143239999999999,0.0111799999999999,-0.049333,0.01316
1645,-0.553566,0.174831,0.814246,0.004753,-0.0574909999999999,0.004709
1646,-0.553588,0.174752,0.814248,-0.0103769999999999,-0.058114,0.006889
1647,-0.553569,0.174766,0.814258,-0.007481,-0.050117,0.0052
1648,-0.553706,0.174898,0.814137,-0.00028,-0.032473,0.004055
1649,-0.5539470000000001,0.1750789999999999,0.813933,0.010856,-0.025528,0.005006
1650,-0.554027,0.1753549999999999,0.81382,0.012325,-0.022019,0.008842
1651,-0.5540619999999999,0.175463,0.813774,0.019241,-0.030413,0.0123209999999999
1652,-0.554072,0.175545,0.813749,0.018595,-0.033516,0.014421
1653,-0.554086,0.175664,0.813714,0.016732,-0.0282329999999999,0.0154479999999999
1654,-0.5541590000000001,0.17575,0.813646,0.019979,-0.023208,0.014006
1655,-0.5542739999999999,0.17578,0.813561,0.020018,-0.02545,0.013954
1656,-0.554355,0.1757,0.8135220000000001,0.01746,-0.027736,0.010163
1657,-0.5543899999999999,0.175558,0.81353,0.009819,-0.032782,0.007912
1658,-0.55445,0.175453,0.813511,0.010123,-0.032951,0.008434
1659,-0.554573,0.175372,0.813445,0.0094069999999999,-0.034641,0.010805
1660,-0.554656,0.175337,0.813396,0.004943,-0.033125,0.008992
1661,-0.55471,0.175346,0.813357,0.005089,-0.033257,0.006559
1662,-0.55479,0.175342,0.8133020000000001,0.010097,-0.035877,0.004325
1663,-0.554787,0.175284,0.813317,0.007912,-0.041892,0.008368
1664,-0.554675,0.175197,0.813412,0.007815,-0.039898,0.008731
1665,-0.554584,0.175122,0.8134899999999999,0.010165,-0.0401889999999999,0.010103
1666,-0.5546300000000001,0.175099,0.8134640000000001,0.016956,-0.036244,0.011686
1667,-0.5546989999999999,0.1751609999999999,0.813403,0.017773,-0.037634,0.0121739999999999
1668,-0.554719,0.175244,0.813371,0.015931,-0.036069,0.01274
1669,-0.554711,0.175322,0.8133600000000001,0.014947,-0.0345139999999999,0.01037
1670,-0.554776,0.175419,0.813295,0.014127,-0.0320019999999999,0.012206
1671,-0.554883,0.175537,0.8131970000000001,0.015546,-0.025375,0.011663
1672,-0.555002,0.1756309999999999,0.813096,0.016275,-0.026857,0.008407
1673,-0.5550970000000001,0.175649,0.813027,0.012586,-0.02802,0.009284
1674,-0.555076,0.175581,0.813056,0.009559,-0.028913,0.011025
1675,-0.555044,0.17552,0.813092,0.0099239999999999,-0.033613,0.008838
1676,-0.555074,0.175521,0.813072,0.011235,-0.033737,0.010537
1677,-0.5550350000000001,0.175534,0.813094,0.010586,-0.034879,0.0115819999999999
1678,-0.55497,0.175523,0.81314,0.006478,-0.038438,0.006943
1679,-0.554948,0.175457,0.81317,0.008409,-0.0437279999999999,0.006319
1680,-0.55495,0.17544,0.813172,0.00896,-0.040812,0.011032
1681,-0.554968,0.175511,0.813145,0.0108849999999999,-0.0373579999999999,0.013226
1682,-0.5549850000000001,0.17554,0.813126,0.0093,-0.0337089999999999,0.009048
1683,-0.555014,0.175589,0.813096,0.007697,-0.033652,0.009612
1684,-0.5550579999999999,0.1756339999999999,0.8130569999999999,0.011723,-0.034765,0.011039
1685,-0.555127,0.175653,0.813006,0.015561,-0.029276,0.009351
1686,-0.5552159999999999,0.175709,0.812933,0.016641,-0.032856,0.009226
1687,-0.55525,0.175763,0.812898,0.014387,-0.03259,0.011992
1688,-0.555157,0.175788,0.812956,0.013821,-0.030875,0.012408
1689,-0.555064,0.175771,0.8130229999999999,0.0136969999999999,-0.033543,0.0109819999999999
1690,-0.5550350000000001,0.175825,0.8130310000000001,0.014218,-0.034605,0.0146819999999999
1691,-0.555034,0.175954,0.813004,0.0081129999999999,-0.029348,0.010101
1692,-0.555118,0.176087,0.812918,0.008639,-0.025421,0.007608
1693,-0.555347,0.1761619999999999,0.8127449999999999,0.006412,-0.02829,0.005325
1694,-0.555534,0.176215,0.812606,0.0081549999999999,-0.028556,-3e-05
1695,-0.555565,0.176121,0.812606,0.0116049999999999,-0.036411,0.000703
1696,-0.555438,0.175773,0.812768,0.009738,-0.052787,0.01992
1697,-0.555022,0.175395,0.813134,0.0138699999999999,-0.048351,0.025382
1698,-0.554447,0.175215,0.813565,0.01743,-0.037245,0.025531
1699,-0.554175,0.17528,0.813736,0.021491,-0.0327779999999999,0.0167539999999999
1700,-0.554299,0.175621,0.813578,0.024574,-0.032448,0.01238
1701,-0.554556,0.176092,0.8133020000000001,0.019934,-0.02828,0.003761
1702,-0.554668,0.176509,0.813134,0.009487,-0.031352,0.006873
1703,-0.554759,0.176731,0.813024,0.006358,-0.035144,0.0072879999999999
1704,-0.5549069999999999,0.1768,0.812908,0.008047,-0.036404,0.0083349999999999
1705,-0.555038,0.176742,0.8128310000000001,0.007095,-0.0413199999999999,0.008366
1706,-0.555052,0.176582,0.812856,0.006179,-0.041054,0.0074719999999999
1707,-0.555033,0.176414,0.812906,0.007166,-0.039298,0.010916
1708,-0.555022,0.1763559999999999,0.812926,0.0116099999999999,-0.026713,0.008836
1709,-0.555008,0.176375,0.8129310000000001,0.0115959999999999,-0.030135,0.009472
1710,-0.5549569999999999,0.176378,0.812966,0.011713,-0.030566,0.009117
1711,-0.554856,0.176405,0.813029,0.011796,-0.037123,0.009618
1712,-0.554729,0.1764859999999999,0.813098,0.0117299999999999,-0.03783,0.011472
1713,-0.554612,0.176553,0.813163,0.013749,-0.034891,0.012292
1714,-0.5545439999999999,0.1766,0.813199,0.016046,-0.043834,0.011188
1715,-0.554502,0.176655,0.8132159999999999,0.017347,-0.038914,0.012422
1716,-0.554462,0.176708,0.813231,0.016116,-0.040523,0.0109719999999999
1717,-0.554469,0.176724,0.8132229999999999,0.0161849999999999,-0.035976,0.014765
1718,-0.554501,0.176758,0.813193,0.014172,-0.028183,0.013193
1719,-0.554601,0.176771,0.813122,0.014195,-0.029005,0.009113
1720,-0.554659,0.176718,0.813094,0.0137349999999999,-0.030111,0.008652
1721,-0.5545979999999999,0.176663,0.813148,0.012087,-0.032849,0.01072
1722,-0.554531,0.1766059999999999,0.8132060000000001,0.0065569999999999,-0.033967,0.009441
1723,-0.554487,0.176555,0.813247,0.009733,-0.040264,0.006715
1724,-0.554442,0.176483,0.813294,0.010268,-0.043747,0.009765
1725,-0.5543600000000001,0.176452,0.813357,0.010811,-0.044799,0.012968
1726,-0.5543239999999999,0.176506,0.813369,0.010089,-0.042885,0.010148
