,gravity.x,gravity.y,gravity.z,userAcceleration.x,userAcceleration.y,userAcceleration.z
0,-0.548707,0.6132270000000001,0.5682159999999999,0.132356,0.045235,0.083304
1,-0.552463,0.610278,0.567753,0.110888,0.092023,0.050594
2,-0.557651,0.607013,0.566179,0.108448,0.100766,0.03932
3,-0.56182,0.60402,0.565258,0.064627,0.079071,0.02277
4,-0.565647,0.600857,0.564812,0.049121,0.070163,0.01754
5,-0.568609,0.5974079999999999,0.565496,0.030691,0.0564309999999999,-0.002477
6,-0.571017,0.593637,0.567038,0.017306,0.035467,-0.029135
7,-0.573166,0.589741,0.568933,0.009384,0.015102,-0.042871
8,-0.575149,0.58612,0.5706720000000001,-0.020386,0.0075239999999999,-0.04905
9,-0.576876,0.583,0.5721229999999999,-0.046903,-0.003333,-0.04423
10,-0.57814,0.580455,0.573433,-0.0735779999999999,-0.014171,-0.04818
11,-0.579059,0.578064,0.57492,-0.0898409999999999,-0.034072,-0.0489649999999999
12,-0.5797680000000001,0.575908,0.576367,-0.109213,-0.052073,-0.057675
13,-0.580216,0.574094,0.577723,-0.135345,-0.058973,-0.059916
14,-0.580324,0.5727270000000001,0.578969,-0.14398,-0.059025,-0.0585679999999999
15,-0.579667,0.571859,0.580484,-0.141509,-0.056707,-0.05755
16,-0.579038,0.571034,0.581922,-0.1242089999999999,-0.058918,-0.042554
17,-0.577593,0.570045,0.5843229999999999,-0.1041849999999999,-0.054847,-0.03812
18,-0.575397,0.568808,0.587685,-0.088696,-0.053748,-0.0377889999999999
19,-0.5738479999999999,0.566908,0.5910270000000001,-0.046955,-0.040923,-0.028649
20,-0.572233,0.56489,0.5945159999999999,-0.02019,-0.020059,-0.008624
21,-0.569765,0.563651,0.598051,-0.017195,-0.007377,-0.0009599999999999
22,-0.566779,0.56306,0.601435,-0.02128,-0.0037649999999999,0.001882
23,-0.56424,0.562666,0.6041850000000001,0.019639,0.031649,0.030336
24,-0.5613100000000001,0.5626899999999999,0.606885,0.024384,0.033303,0.025378
25,-0.5584060000000001,0.562549,0.609688,0.042079,0.032589,0.025001
26,-0.555478,0.562337,0.6125520000000001,0.065702,0.032802,0.026699
27,-0.552476,0.562025,0.615545,0.074647,0.031405,0.0314889999999999
28,-0.549953,0.5617270000000001,0.618071,0.094234,0.037471,0.040757
29,-0.547115,0.561602,0.620698,0.11079,0.033384,0.059234
30,-0.545186,0.561474,0.622508,0.0914809999999999,0.009327,0.0442399999999999
31,-0.543169,0.561539,0.62421,0.066209,0.006439,0.03912
32,-0.541301,0.561678,0.6257050000000001,0.05862,0.005339,0.041394
33,-0.540117,0.561718,0.626691,0.045076,0.0016059999999999,0.041415
34,-0.5388609999999999,0.561876,0.62763,0.04205,-0.009065,0.034006
35,-0.537341,0.561577,0.6291979999999999,-0.002438,-0.025505,0.042066
36,-0.536464,0.560868,0.630578,0.0080069999999999,-0.018143,0.033302
37,-0.535586,0.560584,0.631577,0.006076,-0.02146,0.027389
38,-0.534471,0.56111,0.632054,-0.02513,-0.040022,0.0252949999999999
39,-0.532964,0.562184,0.632371,0.006002,-0.025563,0.006515
40,-0.5317689999999999,0.562929,0.6327149999999999,-0.034683,-0.01665,-0.017038
41,-0.531012,0.563653,0.632706,-0.027079,-0.019967,-0.023331
42,-0.530875,0.564021,0.6324930000000001,-0.030801,-0.031016,-0.029832
43,-0.5313,0.564026,0.632131,-0.008175,-0.030793,-0.042074
44,-0.5318649999999999,0.563906,0.631764,-0.011515,-0.024172,-0.029087
45,-0.532173,0.563852,0.631552,-0.015038,-0.02096,-0.023062
46,-0.532506,0.563659,0.631444,-0.015071,-0.012374,-0.004155
47,-0.532486,0.563416,0.631678,-0.013305,-0.005952,0.0040799999999999
48,-0.532285,0.562991,0.6322270000000001,-0.008853,-0.0017109999999999,0.006827
49,-0.531997,0.562474,0.632929,-0.003846,0.0009109999999999,0.009329
50,-0.53171,0.561893,0.633685,0.003268,0.003887,0.008466
51,-0.531385,0.561281,0.634498,0.008055,0.006651,0.0064629999999999
52,-0.5310229999999999,0.560754,0.635266,0.013872,0.004951,0.011645
53,-0.5307109999999999,0.560437,0.6358060000000001,0.021067,0.00217,0.013852
54,-0.530502,0.560431,0.6359859999999999,0.0241389999999999,0.00062,0.01677
55,-0.530406,0.5606899999999999,0.635838,0.026317,-0.000449,0.018947
56,-0.530351,0.5610890000000001,0.635532,0.022783,0.00428,0.01965
57,-0.530284,0.561569,0.635165,0.022624,0.003708,0.015577
58,-0.530284,0.561914,0.634858,0.0208539999999999,0.004492,0.014052
59,-0.5303140000000001,0.562067,0.634699,0.017817,0.000723,0.0114799999999999
60,-0.530582,0.562066,0.634475,0.016559,0.0004179999999999,0.0115819999999999
61,-0.530932,0.561905,0.634325,0.010699,-0.002884,0.015516
62,-0.531279,0.561562,0.634338,0.004988,-0.0067069999999999,0.009491
63,-0.5317189999999999,0.561064,0.63441,0.002681,-0.004759,0.013616
64,-0.532193,0.560609,0.634414,-0.0002009999999999,-0.004884,0.009873
65,-0.532562,0.5603239999999999,0.634356,-0.001984,-0.007437,0.006803
66,-0.533041,0.560295,0.633979,-0.004068,-0.011146,0.007744
67,-0.5334840000000001,0.560747,0.633207,-0.007349,-0.014666,0.010408
68,-0.5339010000000001,0.5621229999999999,0.631634,-0.025685,-0.018498,0.0141789999999999
69,-0.534447,0.56495,0.6286430000000001,-0.027001,-0.014535,0.0069159999999999
70,-0.535199,0.56842,0.6248630000000001,-0.023822,-0.0145259999999999,0.001769
71,-0.536151,0.571224,0.621482,-0.007993,-0.000331,-0.010764
72,-0.53699,0.573328,0.6188130000000001,-0.001309,-0.002924,-0.009392
73,-0.53754,0.574766,0.6169979999999999,0.0017739999999999,-0.004683,-0.004769
74,-0.538024,0.575808,0.6156020000000001,-0.002183,0.0036299999999999,-0.0015279999999999
75,-0.538316,0.576902,0.614321,-0.001525,0.007067,0.002775
76,-0.538576,0.577847,0.613204,-0.002104,0.0059689999999999,0.002275
77,-0.538786,0.578557,0.61235,-0.000872,0.003993,0.00264
78,-0.539006,0.5789310000000001,0.611803,0.000936,0.003238,0.001555
79,-0.539251,0.579013,0.61151,0.010366,0.0008359999999999,0.001405
80,-0.539555,0.578893,0.611356,0.009907,0.002223,0.0064569999999999
81,-0.539864,0.578659,0.6113029999999999,0.015221,0.0050659999999999,0.009836
82,-0.540148,0.57827,0.611421,0.016986,0.007271,0.009001
83,-0.540396,0.577696,0.611744,0.014487,0.002702,0.0131639999999999
84,-0.5405810000000001,0.577095,0.6121479999999999,0.015313,0.0014269999999999,0.01363
85,-0.540551,0.576755,0.612496,0.009178,-0.003909,0.01194
86,-0.540474,0.576689,0.612626,0.008721,-0.0068189999999999,0.010879
87,-0.5404439999999999,0.576764,0.612581,0.008462,-0.010098,0.008482
88,-0.540345,0.5768310000000001,0.6126060000000001,0.002549,-0.011645,0.009068
89,-0.540329,0.576914,0.612541,0.001389,-0.013652,0.011666
90,-0.540352,0.577092,0.6123529999999999,-0.000877,-0.01215,0.0093969999999999
91,-0.540429,0.5773590000000001,0.612034,-0.006004,-0.002774,0.006802
92,-0.5405409999999999,0.577604,0.611703,-0.0047009999999999,-0.002302,0.006842
93,-0.540573,0.577662,0.6116199999999999,-0.009537,0.002706,0.002165
94,-0.540559,0.577658,0.611637,-0.012877,0.004984,-0.003528
95,-0.540589,0.577541,0.6117199999999999,-0.0093379999999999,0.0033,-0.007961
96,-0.540567,0.577381,0.611891,-0.005835,-0.0003549999999999,-0.010817
97,-0.540507,0.5772189999999999,0.612096,-0.0052689999999999,-0.001199,-0.009328
98,-0.540516,0.5771109999999999,0.61219,-0.003414,0.001823,-0.0070569999999999
99,-0.5406529999999999,0.576829,0.612336,0.00095,0.004211,-0.008011
100,-0.540891,0.576283,0.612639,0.007093,0.003413,-0.007963
101,-0.541043,0.575592,0.613155,0.009625,0.0017699999999999,-0.00526
102,-0.541027,0.5748340000000001,0.6138779999999999,0.00729,0.002513,-0.003619
103,-0.540864,0.573954,0.614846,0.006333,-0.001551,-0.000192
104,-0.540624,0.572969,0.615976,0.002264,-0.008103,0.006904
105,-0.540381,0.571871,0.617209,0.001883,-0.011903,0.0120019999999999
106,-0.540122,0.5707949999999999,0.6184310000000001,0.0013039999999999,-0.013147,0.012687
107,-0.5398069999999999,0.5699270000000001,0.619506,-0.000217,-0.014065,0.022065
108,-0.539507,0.569264,0.620376,-0.000517,-0.013402,0.021195
109,-0.5392319999999999,0.568755,0.621082,0.005892,-0.010482,0.018628
110,-0.539033,0.568313,0.621659,0.009401,-0.004333,0.014343
111,-0.538922,0.567982,0.622058,0.008892,-0.003406,0.013211
112,-0.538883,0.567654,0.62239,0.010684,-0.002789,0.012162
113,-0.538887,0.567207,0.622794,0.007286,0.002206,0.005441
114,-0.538925,0.566766,0.623162,0.006012,0.004477,0.00524
115,-0.538924,0.56629,0.623595,0.005263,0.007043,0.003649
116,-0.538855,0.565828,0.624074,0.006018,0.0061329999999999,0.000682
117,-0.538721,0.565366,0.624607,0.002665,0.003588,4.2e-05
118,-0.538586,0.564928,0.625121,0.001507,0.001998,0.000383
119,-0.5385449999999999,0.5645180000000001,0.625527,-0.001998,-0.000233,0.001762
120,-0.538629,0.5641520000000001,0.625784,-0.00434,-0.00362,0.0035039999999999
121,-0.538792,0.5638489999999999,0.625916,-0.0042369999999999,-0.004203,0.006225
122,-0.538993,0.563569,0.625996,-0.006905,-0.0044259999999999,0.005229
123,-0.5392060000000001,0.563289,0.626065,-0.005853,-0.005519,0.007511
124,-0.53937,0.562986,0.626196,-0.006726,-0.007871,0.006388
125,-0.5394439999999999,0.562653,0.626432,-0.006851,-0.008148,0.00545
126,-0.539467,0.5623600000000001,0.626675,-0.00489,-0.011914,0.005405
127,-0.539443,0.562181,0.6268560000000001,-0.00258,-0.008973,0.005911
128,-0.539392,0.562159,0.62692,-0.002402,-0.0073799999999999,0.005267
129,-0.539329,0.5622050000000001,0.626933,-0.0009699999999999,-0.006678,0.004873
130,-0.539198,0.562213,0.627037,0.00244,-0.002002,0.00547
131,-0.539031,0.562184,0.627207,0.003478,-0.00214,0.003012
132,-0.538892,0.562109,0.627393,0.0065439999999999,-0.002462,0.003467
133,-0.538775,0.5619390000000001,0.627646,0.007083,-0.00063,0.00474
134,-0.538669,0.5617489999999999,0.627907,0.005908,0.001422,0.0068579999999999
135,-0.53859,0.561466,0.628229,0.007294,0.0007599999999999,0.007056
136,-0.53856,0.561109,0.6285729999999999,0.007783,0.003939,0.006528
137,-0.538521,0.5607770000000001,0.6289020000000001,0.007042,0.00035,0.001835
138,-0.538395,0.5605060000000001,0.629252,0.005604,0.001643,0.003896
139,-0.538205,0.5602659999999999,0.629628,0.005643,-0.002939,0.00764
140,-0.538014,0.560063,0.629973,0.0017739999999999,-0.004292,0.007982
141,-0.537932,0.559872,0.630212,-0.00107,-0.0034,0.00585
142,-0.537954,0.559631,0.630408,5.1e-05,-0.001678,0.005945
143,-0.538041,0.559321,0.630609,0.001542,-0.003001,0.003317
144,-0.53815,0.55897,0.630827,0.000721,-0.006434,0.0038009999999999
145,-0.538221,0.5586409999999999,0.631058,0.0010199999999999,-0.0069599999999999,0.003296
146,-0.538209,0.558388,0.631292,-0.001204,-0.007744,0.00326
147,-0.5381279999999999,0.558267,0.631468,-0.002216,-0.009515,0.001955
148,-0.538004,0.5582090000000001,0.631626,-0.004873,-0.008054,0.004117
149,-0.5378539999999999,0.558187,0.6317729999999999,-0.003559,-0.008367,0.003939
150,-0.537719,0.558181,0.631893,-0.00322,-0.006728,0.001652
151,-0.537626,0.558167,0.631984,-0.002459,-0.006364,0.003926
152,-0.5375810000000001,0.558072,0.6321060000000001,0.001143,-0.00401,0.005192
153,-0.537509,0.557987,0.632243,-0.0016,-0.0049479999999999,0.002935
154,-0.537416,0.5578989999999999,0.6324,0.001145,-0.000877,0.0051119999999999
155,-0.537328,0.55778,0.632579,0.002355,0.0008439999999999,0.004918
156,-0.5372239999999999,0.557658,0.632775,0.00483,0.000783,0.0066599999999999
157,-0.53715,0.557558,0.632927,0.003855,0.000517,0.004768
158,-0.537126,0.5574319999999999,0.633059,0.005418,0.002917,0.004148
159,-0.537121,0.557294,0.633185,0.003475,0.000796,0.0035329999999999
160,-0.537092,0.557153,0.633335,0.005765,0.00199,0.005139
161,-0.537047,0.557046,0.633467,0.00482,-0.000359,0.002931
162,-0.537036,0.55693,0.633578,0.002886,0.000199,0.00401
163,-0.537027,0.5568489999999999,0.633657,0.004693,-0.003001,0.004984
164,-0.536988,0.556819,0.633716,0.003815,-0.005839,0.004376
165,-0.5369510000000001,0.556821,0.633744,0.000636,-0.006619,0.006331
166,-0.536882,0.5568310000000001,0.633794,-0.00128,-0.004432,0.004771
167,-0.536824,0.556805,0.633865,-0.00146,-0.0064819999999999,0.005463
168,-0.536775,0.556805,0.6339060000000001,-0.000517,-0.005658,0.006139
169,-0.536749,0.556856,0.633884,-0.002435,-0.004503,0.0057799999999999
170,-0.536744,0.556978,0.633781,-0.0028829999999999,-0.004945,0.005547
171,-0.536738,0.557184,0.633605,-0.00382,-0.0020239999999999,0.0038909999999999
172,-0.536752,0.55747,0.633342,-0.001731,-0.001638,0.003331
173,-0.5367890000000001,0.5577350000000001,0.633078,-0.001663,-0.002925,0.003107
174,-0.536856,0.5579,0.632876,-0.001504,-0.002327,0.003126
175,-0.536958,0.557991,0.632709,0.001527,-0.001289,0.002103
176,-0.5370779999999999,0.558036,0.632567,0.001906,0.000757,0.002381
177,-0.537199,0.5581020000000001,0.632406,0.003034,-0.000302,0.001032
178,-0.537248,0.558331,0.632162,0.003632,-0.000272,0.002039
179,-0.537192,0.5587840000000001,0.63181,0.000846,-0.003333,0.002788
180,-0.537047,0.559368,0.631416,-0.000718,-0.0035659999999999,0.004647
181,-0.536918,0.559983,0.63098,-0.000848,-0.003617,0.007112
182,-0.536872,0.560552,0.630513,-0.00161,-0.0030269999999999,0.0076709999999999
183,-0.536879,0.561055,0.6300600000000001,-0.000292,-0.002614,0.007331
184,-0.536932,0.561491,0.629626,0.001333,-0.005781,0.004682
185,-0.536996,0.5619649999999999,0.6291479999999999,0.002069,-0.00357,0.002154
186,-0.537072,0.562415,0.628681,0.000482,-0.0026,0.0023309999999999
187,-0.5371239999999999,0.5629390000000001,0.6281680000000001,-1.6e-05,-0.003735,-2.4e-05
188,-0.537147,0.5635680000000001,0.627584,-0.0024649999999999,-0.003738,0.001994
189,-0.537149,0.5641930000000001,0.627021,-0.001944,-0.0032189999999999,0.003824
190,-0.537165,0.564771,0.626487,0.000376,-0.003858,0.004769
191,-0.537199,0.5653199999999999,0.625963,0.000547,-0.003202,0.003767
192,-0.537246,0.565915,0.6253850000000001,0.001098,0.0002319999999999,0.004971
193,-0.537295,0.5665680000000001,0.6247520000000001,-0.000837,-0.000482,0.003696
194,-0.537354,0.567189,0.624138,-0.000534,8.7e-05,0.003868
195,-0.5373899999999999,0.567749,0.6235970000000001,-0.0001159999999999,-0.000931,0.0032649999999999
196,-0.5374220000000001,0.568274,0.623091,0.000939,-0.0006309999999999,0.003938
197,-0.537473,0.568783,0.622582,0.000684,-0.00166,0.0029219999999999
198,-0.5375340000000001,0.5693020000000001,0.622056,0.001737,-0.000592,0.003051
199,-0.537619,0.569816,0.6215109999999999,0.000891,-8.4e-05,0.001994
200,-0.537716,0.570311,0.6209720000000001,0.001889,0.000108,-0.00029
201,-0.53784,0.5707810000000001,0.620432,0.000898,-0.0006219999999999,0.001974
202,-0.538024,0.571231,0.619859,0.002898,-0.00191,-0.001497
203,-0.538196,0.5716760000000001,0.6192979999999999,0.001896,-0.0032409999999999,0.002604
204,-0.538374,0.5721189999999999,0.618735,0.002729,-0.001929,0.000421
205,-0.538523,0.5725439999999999,0.618211,0.002634,-0.003025,0.001555
206,-0.5386340000000001,0.5729420000000001,0.617746,-0.000963,-0.002217,0.001776
207,-0.53871,0.573264,0.61738,0.001097,-0.003776,0.000433
208,-0.5387770000000001,0.573491,0.617112,3.5e-05,-0.003224,0.000656
209,-0.5388470000000001,0.573624,0.616926,0.000807,-0.0034189999999999,0.000109
210,-0.53892,0.573735,0.6167590000000001,-8.2e-05,-0.002568,0.001801
211,-0.539026,0.5738,0.616606,0.00033,-0.00509,0.001116
212,-0.539134,0.573769,0.61654,-0.0001419999999999,-0.000436,-0.0006799999999999
213,-0.53923,0.573577,0.616635,0.00267,0.001161,-0.0062829999999999
214,-0.539291,0.5731109999999999,0.617015,0.00328,8.6e-05,-0.005672
215,-0.539309,0.5723739999999999,0.617684,0.006014,0.000579,-0.0038229999999999
216,-0.5392710000000001,0.571457,0.6185649999999999,0.00236,0.001068,-0.002125
217,-0.539146,0.570442,0.61961,0.00045,-0.000496,-0.001003
218,-0.538972,0.5694100000000001,0.62071,0.004411,9.4e-05,0.005053
219,-0.5388729999999999,0.5683010000000001,0.621812,0.003747,0.001355,0.002227
220,-0.538804,0.567297,0.622788,0.001176,0.001322,0.003006
221,-0.538667,0.566442,0.623683,-0.001585,-0.002706,0.002934
222,-0.538429,0.565753,0.624514,-0.002754,-0.006122,0.006696
223,-0.538143,0.5652050000000001,0.625256,-0.005879,-0.005741,0.012226
224,-0.537929,0.564736,0.6258640000000001,-0.004368,-0.006462,0.010061
225,-0.537818,0.5643060000000001,0.626346,-0.00396,-0.005362,0.009304
226,-0.537796,0.5637909999999999,0.626829,-0.002716,-0.005503,0.006136
227,-0.537844,0.56319,0.627328,-1.3e-05,-0.004673,0.003592
228,-0.537896,0.5626140000000001,0.627801,0.002984,-0.002677,0.0034549999999999
229,-0.5379149999999999,0.562083,0.62826,-0.000659,-0.0028179999999999,0.000386
230,-0.537871,0.561646,0.628688,-0.000383,-0.003632,0.004292
231,-0.537744,0.561254,0.629146,0.000726,-0.003515,0.004414
232,-0.537589,0.560896,0.629598,-0.001153,-0.003935,0.002543
233,-0.5374770000000001,0.560567,0.6299859999999999,0.000276,-0.0025989999999999,0.003574
234,-0.537371,0.560308,0.630307,-0.000563,-0.000448,0.0033299999999999
235,-0.5372680000000001,0.560082,0.630596,0.001349,-0.003609,0.002552
236,-0.537166,0.559863,0.630877,-0.000996,-0.001376,0.004759
237,-0.5370689999999999,0.559609,0.631184,-0.0008029999999999,-0.001626,0.00645
238,-0.536993,0.559349,0.631479,0.00025,-0.003715,0.007604
239,-0.536921,0.5591149999999999,0.6317470000000001,-0.001302,-0.004534,0.002408
240,-0.536871,0.5589029999999999,0.6319779999999999,0.001288,-0.004658,0.0043289999999999
241,-0.536816,0.5586899999999999,0.632213,0.000271,-0.002492,0.0033619999999999
242,-0.5367649999999999,0.558433,0.632482,0.002356,-0.003029,0.0050609999999999
243,-0.536716,0.558154,0.6327699999999999,0.0007509999999999,-0.002704,0.002286
244,-0.53666,0.557913,0.63303,0.000711,-0.004431,0.002758
245,-0.536646,0.5577340000000001,0.633199,-0.001577,-0.003169,0.003215
246,-0.5366890000000001,0.557562,0.633315,-0.003167,-0.006185,0.001481
247,-0.536771,0.5573640000000001,0.63342,-0.0005679999999999,-0.006232,0.003634
248,-0.536802,0.557127,0.633602,-0.00255,-0.006483,0.005116
249,-0.536772,0.5569390000000001,0.633793,0.000151,-0.003609,0.006268
250,-0.536691,0.5567989999999999,0.633985,0.00039,0.000513,0.004764
251,-0.536557,0.556715,0.6341720000000001,0.000882,-0.000273,0.0079329999999999
252,-0.536421,0.556664,0.6343310000000001,0.001296,-0.0017629999999999,0.0061259999999999
253,-0.536297,0.556617,0.634478,0.001934,-0.00225,0.005949
254,-0.536203,0.556601,0.6345729999999999,0.00126,-0.00054,0.001642
255,-0.536171,0.556578,0.6346189999999999,0.001305,-0.003829,-0.000784
256,-0.536187,0.55647,0.6347,0.0002529999999999,-0.002866,0.000188
257,-0.536159,0.5562590000000001,0.6349090000000001,-0.000401,-0.005478,0.002436
258,-0.536095,0.5559970000000001,0.635192,-0.001335,-0.00488,0.006029
259,-0.536068,0.555703,0.635472,0.001507,-0.00335,0.004909
260,-0.536119,0.555322,0.635761,0.0029,-0.0046479999999999,0.002834
261,-0.5361899999999999,0.554882,0.636085,0.002972,-0.004207,0.00251
262,-0.536157,0.5544789999999999,0.636465,0.003381,-0.003957,0.003245
263,-0.5360149999999999,0.554221,0.636808,-0.0017809999999999,-0.007102,0.005175
264,-0.535787,0.554108,0.6370979999999999,-0.004419,-0.0069739999999999,0.0062439999999999
265,-0.535507,0.55406,0.637375,-0.003326,-0.0069099999999999,0.003708
266,-0.535212,0.554012,0.6376649999999999,-0.002859,-0.005459,0.0047909999999999
267,-0.534918,0.55397,0.637948,-0.00445,-0.004074,0.003211
268,-0.534728,0.553902,0.638167,-0.00168,-0.003471,0.002931
269,-0.5346069999999999,0.553755,0.6383949999999999,0.002625,6.3e-05,-0.000166
270,-0.5344720000000001,0.5535979999999999,0.638646,0.001925,-0.001718,-0.001942
271,-0.5342899999999999,0.5534819999999999,0.638899,0.002018,-0.002517,0.000292
272,-0.534101,0.5534060000000001,0.6391220000000001,0.0004089999999999,-0.0008699999999999,0.001686
273,-0.5339149999999999,0.553355,0.6393220000000001,-0.000768,-0.0034289999999999,0.003592
274,-0.53378,0.553268,0.63951,-0.000659,-0.002777,0.002626
275,-0.533708,0.553083,0.63973,-0.000762,-0.002897,0.004755
276,-0.533667,0.5528489999999999,0.639966,-0.000802,-0.002663,0.00452
277,-0.533671,0.552595,0.6401819999999999,0.000452,-0.005049,0.005509
278,-0.533672,0.552393,0.640356,0.00143,-0.003702,0.008478
279,-0.533687,0.552233,0.640482,0.001216,-0.004427,0.007376
280,-0.533708,0.552091,0.640587,0.0041979999999999,-0.004468,0.00689
281,-0.53374,0.551924,0.640704,0.0037409999999999,-0.003874,0.010129
282,-0.533697,0.551794,0.6408520000000001,0.0036829999999999,-0.00295,0.009462
283,-0.5336029999999999,0.5517310000000001,0.640984,0.002887,-0.005817,0.006706
284,-0.533515,0.551756,0.6410359999999999,0.003806,-0.0032939999999999,0.007706
285,-0.5334479999999999,0.551834,0.6410239999999999,0.002229,-0.003433,0.0064519999999999
286,-0.533387,0.5519109999999999,0.641009,0.001496,-0.0038759999999999,0.004728
287,-0.533361,0.551996,0.6409560000000001,0.0010429999999999,-0.00448,0.003774
288,-0.533338,0.552037,0.640941,0.000653,-0.0036509999999999,0.002416
289,-0.5332819999999999,0.552074,0.640954,-0.002607,-0.0064959999999999,0.003196
290,-0.533245,0.552142,0.640926,-0.004459,-0.006869,0.003453
291,-0.5332520000000001,0.552255,0.6408229999999999,-0.00346,-0.0056549999999999,0.002061
292,-0.53325,0.552442,0.640663,-0.005233,-0.004697,0.004722
293,-0.533261,0.552633,0.6404890000000001,-0.004688,-0.0036369999999999,0.0054
294,-0.533285,0.552855,0.6402760000000001,-0.002832,-0.003875,0.005507
295,-0.533303,0.553153,0.640005,-0.000389,-0.004965,0.0053659999999999
296,-0.5333,0.553559,0.639655,-0.000544,-0.003083,0.006204
297,-0.533273,0.554084,0.639223,-0.0004639999999999,-0.002616,0.0070319999999999
298,-0.533255,0.554693,0.6387109999999999,-0.002267,-0.0036829999999999,0.00698
299,-0.533267,0.5553279999999999,0.638149,-0.000699,-0.002685,0.002888
300,-0.5332859999999999,0.555948,0.637592,0.00405,-0.0059299999999999,0.002667
301,-0.533356,0.556585,0.6369779999999999,0.002121,-0.003484,0.0019379999999999
302,-0.533439,0.557136,0.6364270000000001,0.000343,-0.004188,0.006594
303,-0.5335529999999999,0.557578,0.635944,-0.001176,-0.003821,0.007306
304,-0.5336890000000001,0.5578569999999999,0.635584,0.004408,-0.002651,0.00588
305,-0.533829,0.558104,0.63525,0.001893,-0.00099,0.006199
306,-0.533927,0.5584060000000001,0.6349020000000001,0.002509,-0.001903,0.006638
307,-0.533914,0.558884,0.634493,0.001749,-0.002548,0.004637
308,-0.533804,0.559545,0.634003,-0.000208,-0.004522,0.006088
309,-0.533766,0.560335,0.633339,-0.000475,-0.004274,0.008416
310,-0.53383,0.561146,0.632566,-0.001525,-0.0062299999999999,0.008105
311,-0.533989,0.561841,0.631815,-0.000786,-0.004681,0.005239
312,-0.534198,0.562411,0.631131,9.5e-05,-0.006106,0.0059689999999999
313,-0.5343899999999999,0.562914,0.63052,0.000272,-0.006273,0.004994
314,-0.534578,0.563409,0.629918,0.000322,-0.003884,0.000957
315,-0.534717,0.564002,0.62927,-0.001477,-0.004691,0.001666
316,-0.53481,0.564654,0.628605,-0.0017649999999999,-0.002932,-0.000111
317,-0.534862,0.565321,0.6279600000000001,-0.002553,-0.006529,0.003006
318,-0.5349079999999999,0.566028,0.6272840000000001,-0.003254,-0.0065489999999999,0.0038659999999999
319,-0.5349729999999999,0.566719,0.626605,-0.003052,-0.007759,0.003995
320,-0.535092,0.567347,0.625934,-0.003208,-0.004405,0.003384
321,-0.535199,0.5679960000000001,0.625254,-0.003085,-0.006625,0.003286
322,-0.535266,0.568576,0.624668,-0.0017059999999999,-0.003756,0.003002
323,-0.53527,0.569136,0.624155,-0.000985,-0.005431,0.001867
324,-0.535269,0.56965,0.623687,0.000723,-0.00277,0.0060729999999999
325,-0.535287,0.57013,0.623233,0.002999,-0.0036009999999999,0.005459
326,-0.535343,0.570596,0.6227590000000001,0.000842,-0.001962,0.004377
327,-0.535406,0.571021,0.622314,-0.000681,-0.000694,0.00467
328,-0.535415,0.571403,0.6219560000000001,0.000137,-0.002204,0.002419
329,-0.535412,0.571783,0.621609,0.001491,-0.004065,0.006046
330,-0.535391,0.572188,0.621255,0.003546,-0.004469,0.004829
331,-0.535346,0.572623,0.620892,0.0018679999999999,-0.0048579999999999,0.00539
332,-0.535328,0.573076,0.6204890000000001,0.000156,-0.004,0.004557
333,-0.535301,0.573497,0.620123,0.000664,-0.004954,0.0035189999999999
334,-0.53527,0.5738310000000001,0.61984,0.000144,-0.004296,0.002764
335,-0.535237,0.574125,0.619596,0.001805,-0.004408,0.004412
336,-0.535209,0.5743149999999999,0.619444,0.000938,-0.00443,0.002199
337,-0.535194,0.574364,0.619413,0.000953,-0.004326,0.002078
338,-0.535198,0.57423,0.619533,0.001812,-0.003567,0.002248
339,-0.535193,0.573896,0.619847,0.001761,-0.003095,-0.000936
340,-0.535181,0.5734279999999999,0.62029,0.003443,-0.001132,0.00059
341,-0.535169,0.572882,0.620805,0.001233,-0.0032259999999999,-4.7e-05
342,-0.535136,0.572304,0.621367,0.002879,-0.0048439999999999,0.0012519999999999
343,-0.535085,0.571738,0.621931,-0.000666,-0.002601,0.0004599999999999
344,-0.535031,0.571187,0.622483,-0.000781,-0.002782,4.5e-05
345,-0.534972,0.570576,0.6230939999999999,0.004668,-0.005558,0.002623
346,-0.5349520000000001,0.569854,0.623772,0.00094,-0.0071709999999999,0.004661
347,-0.5349149999999999,0.569028,0.624558,-0.001249,-0.009396,0.003952
348,-0.534864,0.5681689999999999,0.625383,-0.002734,-0.010201,0.00923
349,-0.5348310000000001,0.567226,0.626267,0.001185,-0.006511,0.007873
350,-0.534832,0.5662560000000001,0.627143,0.0020109999999999,-0.0050219999999999,0.007317
351,-0.534822,0.565361,0.627959,0.002611,-0.005516,0.005464
352,-0.534758,0.564557,0.628736,0.000868,-0.006787,0.008684
353,-0.534625,0.563842,0.629491,0.0006129999999999,-0.00769,0.009914
354,-0.534467,0.563227,0.630175,-0.001269,-0.0070599999999999,0.010893
355,-0.534324,0.5626720000000001,0.630791,0.000206,-0.005086,0.010795
356,-0.534227,0.562077,0.631404,0.002015,-0.00301,0.006078
357,-0.534135,0.561412,0.632073,0.001924,-0.002345,0.005409
358,-0.534043,0.560666,0.632812,0.001832,-0.004193,0.0083319999999999
359,-0.533953,0.560021,0.633458,0.0037259999999999,-0.007272,0.00381
360,-0.533907,0.559581,0.633887,0.003679,-0.006831,0.003381
361,-0.5339229999999999,0.559348,0.634079,-0.007657,-0.00257,0.007141
362,-0.533848,0.559063,0.634393,-0.007915,-0.018246,0.00109
363,-0.53405,0.558916,0.634353,-0.005806,-0.013109,0.0063939999999999
364,-0.534319,0.5587840000000001,0.634243,-0.004957,-0.008048,0.006031
365,-0.53469,0.5585829999999999,0.634108,-0.005166,-0.000233,0.002291
366,-0.535041,0.55815,0.634192,-0.005975,0.00351,0.001703
367,-0.5352520000000001,0.5575140000000001,0.634574,-0.0042229999999999,0.003903,0.007714
368,-0.535378,0.556977,0.634939,-0.0043869999999999,0.004547,0.00825
369,-0.535499,0.556634,0.635137,-0.00274,0.003867,0.005686
370,-0.535516,0.556437,0.6352949999999999,0.001092,0.002034,0.002141
371,-0.535463,0.556347,0.635419,0.00406,0.001194,0.001086
372,-0.535474,0.556326,0.635429,0.004025,-0.00228,0.0025109999999999
373,-0.5355479999999999,0.5563140000000001,0.6353770000000001,0.003321,-0.006418,0.0039049999999999
374,-0.5355409999999999,0.55624,0.635446,0.003559,-0.00996,0.0049039999999999
375,-0.535346,0.556055,0.635774,-0.001764,-0.009225,0.012405
376,-0.535045,0.5558069999999999,0.636243,5.6000000000000006e-05,-0.013983,0.011187
377,-0.534762,0.555546,0.6367079999999999,0.001529,-0.0147139999999999,0.010722
378,-0.5344979999999999,0.555286,0.637158,-0.000277,-0.015216,0.009617
379,-0.534259,0.5549430000000001,0.6376569999999999,0.000842,-0.01588,0.008324
380,-0.533998,0.554525,0.638238,-0.001417,-0.015493,0.008872
381,-0.533767,0.553992,0.638894,0.003646,-0.010062,0.004004
382,-0.5336529999999999,0.553454,0.639455,6.9e-05,-0.00635,0.005549
383,-0.533696,0.552984,0.639826,-0.000346,-0.003469,0.003119
384,-0.533827,0.552693,0.639967,-0.000261,-0.00211,0.00403
385,-0.53395,0.552624,0.639926,0.002089,-0.001553,0.0072
386,-0.533984,0.552743,0.639794,0.004657,0.001685,0.003929
387,-0.533987,0.552971,0.639594,0.003149,0.004356,0.002877
388,-0.533986,0.553188,0.639408,0.001927,0.000996,0.005047
389,-0.533975,0.553295,0.639324,0.001367,-0.0008039999999999,0.004658
390,-0.53397,0.553247,0.63937,-0.002209,-0.003763,0.003849
391,-0.534021,0.553033,0.639512,-0.001867,-0.008264,0.007995
392,-0.534127,0.552621,0.63978,0.00042,-0.008981,0.005545
393,-0.5342819999999999,0.552144,0.640062,0.001139,-0.008672,0.006697
394,-0.534406,0.551705,0.6403369999999999,0.0019199999999999,-0.01252,0.00456
395,-0.534431,0.55133,0.6406390000000001,0.000618,-0.011627,0.006899
396,-0.534324,0.551095,0.64093,-0.002144,-0.014886,0.011703
397,-0.53414,0.551094,0.641085,-0.002222,-0.011559,0.009809
398,-0.533903,0.5513819999999999,0.641034,-0.006929,-0.007116,0.010546
399,-0.533671,0.551874,0.6408050000000001,-0.005025,-0.0073939999999999,0.0103489999999999
400,-0.533512,0.552458,0.6404340000000001,-0.004345,-0.007612,0.011254
401,-0.533508,0.55298,0.6399859999999999,-0.0007019999999999,-0.007448,0.0076739999999999
402,-0.533579,0.553474,0.6395,0.001551,-0.008858,0.006069
403,-0.533676,0.553908,0.639043,0.002944,-0.006942,0.004954
404,-0.53373,0.554366,0.6386,0.0037159999999999,-0.007201,0.001979
405,-0.5337390000000001,0.5548489999999999,0.638173,0.0032979999999999,-0.008752,0.004802
406,-0.53371,0.555311,0.637795,0.001316,-0.006026,0.004051
407,-0.533644,0.5557489999999999,0.63747,0.00128,-0.003274,0.006772
408,-0.533558,0.556174,0.63717,0.000538,-0.003104,0.0073
409,-0.533496,0.556609,0.636842,-7.3e-05,-0.004317,0.00926
410,-0.53346,0.557074,0.636466,0.000654,-0.0029809999999999,0.007959
411,-0.533466,0.5575979999999999,0.6360020000000001,0.000187,-0.004344,0.009598
412,-0.53354,0.558174,0.635434,0.001267,-0.006676,0.010073
413,-0.533656,0.558791,0.634794,0.000682,-0.008712,0.010714
414,-0.53376,0.559439,0.6341359999999999,0.00074,-0.010504,0.010884
415,-0.533825,0.560122,0.633478,0.003109,-0.009554,0.009741
416,-0.533852,0.560801,0.632854,-0.000358,-0.008631,0.006917
417,-0.533872,0.5614140000000001,0.6322939999999999,0.00044,-0.0099,0.0075689999999999
418,-0.53391,0.561966,0.631771,-0.000392,-0.008834,0.007908
419,-0.533978,0.562491,0.631246,-0.001591,-0.0079709999999999,0.0056409999999999
420,-0.534045,0.563044,0.630696,-0.000394,-0.0086,0.006145
421,-0.53413,0.563592,0.6301329999999999,-0.001042,-0.005777,0.006082
422,-0.534205,0.5641609999999999,0.6295609999999999,0.000468,-0.004011,0.006945
423,-0.5342680000000001,0.564712,0.6290140000000001,0.000729,-0.005233,0.005508
424,-0.534328,0.565249,0.62848,-0.001316,-0.005282,0.0054009999999999
425,-0.534381,0.56579,0.627949,0.0002319999999999,-0.005761,0.00433
426,-0.5344260000000001,0.566342,0.627412,0.000734,-0.005719,0.005263
427,-0.53447,0.566906,0.626865,0.000763,-0.0067709999999999,0.005719
428,-0.534522,0.567396,0.6263770000000001,-0.001702,-0.007658,0.006206
429,-0.53459,0.567808,0.625946,0.001692,-0.0075349999999999,0.005158
430,-0.534667,0.568217,0.625508,0.002318,-0.0076549999999999,0.007625
431,-0.5347529999999999,0.568637,0.625053,0.001916,-0.007404,0.0076989999999999
432,-0.534838,0.569091,0.624567,-0.000395,-0.007613,0.00765
433,-0.534928,0.569578,0.624045,0.00116,-0.009169,0.006677
434,-0.535047,0.570021,0.623538,0.000379,-0.009886,0.007612
435,-0.535183,0.570372,0.6231,0.0019039999999999,-0.0073989999999999,0.006661
436,-0.535283,0.570563,0.622839,9.6e-05,-0.010657,0.007654
437,-0.5353479999999999,0.570604,0.622745,0.000878,-0.007844,0.008175
438,-0.535406,0.570549,0.622746,0.004522,-0.006187,0.00526
439,-0.535511,0.570397,0.622794,0.002644,-0.003137,0.003961
440,-0.535629,0.570224,0.622851,0.003067,-0.003757,-1.8e-05
441,-0.535671,0.5700529999999999,0.622973,0.002941,-0.00647,0.000593
442,-0.535644,0.569816,0.623213,0.0040729999999999,-0.0066599999999999,0.002977
443,-0.535575,0.569468,0.6235890000000001,0.002479,-0.004695,0.002403
444,-0.535574,0.5689489999999999,0.6240640000000001,0.001974,-0.0059,0.003164
445,-0.535574,0.5682649999999999,0.624687,0.001974,-0.004926,0.0031969999999999
446,-0.535557,0.567431,0.62546,0.00211,-0.007998,0.00897
447,-0.5355260000000001,0.566601,0.626239,0.002079,-0.007168,0.008191
448,-0.5354770000000001,0.565864,0.626946,0.000306,-0.007499,0.006629
449,-0.535384,0.565262,0.6275689999999999,-0.0014199999999999,-0.007461,0.006846
450,-0.5352399999999999,0.564785,0.62812,-0.001564,-0.0069849999999999,0.006294
451,-0.535049,0.564405,0.628626,-0.004716,-0.011472,0.010901
452,-0.534881,0.5640609999999999,0.629076,-0.005905,-0.012273,0.008741
453,-0.534764,0.563711,0.62949,-0.005306,-0.012136,0.0114709999999999
454,-0.534708,0.563322,0.629886,-0.00112,-0.008817,0.008374
455,-0.534675,0.56287,0.630318,-0.00155,-0.007816,0.007453
456,-0.534656,0.562362,0.630787,0.002186,-0.007811,0.010998
457,-0.534619,0.5618609999999999,0.631264,7.3e-05,-0.007204,0.012153
458,-0.534571,0.56137,0.631741,0.000682,-0.005965,0.0092959999999999
459,-0.534514,0.560914,0.632195,0.001403,-0.007523,0.006965
460,-0.534433,0.560539,0.632596,0.001245,-0.005485,0.009387
461,-0.534381,0.5602229999999999,0.632919,0.002215,-0.004864,0.009888
462,-0.5343359999999999,0.56001,0.633146,0.002872,-0.004513,0.007067
463,-0.5343,0.559868,0.633301,0.000593,-0.005562,0.006347
464,-0.534258,0.55972,0.633468,0.001284,-0.0074129999999999,0.007965
465,-0.534223,0.559571,0.63363,0.003507,-0.009247,0.007986
466,-0.534169,0.559413,0.633814,0.002248,-0.008998,0.0093739999999999
467,-0.534116,0.559289,0.633969,0.001309,-0.011056,0.008701
468,-0.534085,0.559138,0.634128,-0.002338,-0.011851,0.007992
469,-0.534079,0.55898,0.6342720000000001,-0.002221,-0.010274,0.007437
470,-0.5341,0.5587840000000001,0.634426,-0.00066,-0.010673,0.008579
471,-0.534131,0.558608,0.634554,-0.00101,-0.006575,0.009168
472,-0.534184,0.558479,0.6346229999999999,-0.000179,-0.008064,0.008245
473,-0.534203,0.558403,0.6346729999999999,-0.001395,-0.008812,0.007737
474,-0.534219,0.5583100000000001,0.634742,0.00039,-0.007422,0.008202
475,-0.534241,0.558222,0.6348020000000001,0.000672,-0.008219,0.009775
476,-0.5342359999999999,0.558171,0.634851,0.001231,-0.007389,0.009329
477,-0.53423,0.558181,0.634847,0.001088,-0.006469,0.010737
478,-0.5342180000000001,0.55825,0.6347970000000001,0.000786,-0.007988,0.009963
479,-0.534217,0.5583239999999999,0.634733,0.000587,-0.00707,0.0084099999999999
480,-0.534208,0.558393,0.63468,0.002394,-0.007474,0.008646
481,-0.534212,0.55847,0.634609,0.000261,-0.009154,0.008534
482,-0.534237,0.5584359999999999,0.634618,0.000515,-0.009608,0.008052
483,-0.534271,0.5583359999999999,0.634678,-0.000855,-0.009554,0.009732
484,-0.534331,0.5581020000000001,0.634832,0.003325,-0.007565,0.009791
485,-0.5344,0.557752,0.6350819999999999,0.003211,-0.007749,0.0071909999999999
486,-0.534469,0.557397,0.635336,0.002791,-0.0071189999999999,0.004984
487,-0.534485,0.557125,0.6355609999999999,0.002228,-0.007839,0.008436
488,-0.534401,0.557013,0.635729,0.00074,-0.009436,0.009809
489,-0.5342520000000001,0.5570390000000001,0.635831,-0.000233,-0.010621,0.009066
490,-0.5341359999999999,0.557116,0.635861,-0.002073,-0.009798,0.011326
491,-0.534067,0.557154,0.635885,0.000666,-0.009409,0.008447
492,-0.534039,0.5571050000000001,0.635953,0.00163,-0.008216,0.009021
493,-0.534058,0.5569930000000001,0.6360359999999999,0.00119,-0.009004,0.008251
494,-0.534086,0.556848,0.6361399999999999,0.002042,-0.008584,0.008865
495,-0.5340699999999999,0.556773,0.636217,0.002027,-0.00851,0.008787
496,-0.53398,0.5567439999999999,0.636319,-0.00049,-0.0101739999999999,0.0067319999999999
497,-0.5338689999999999,0.556772,0.636387,-0.00031,-0.011408,0.008602
498,-0.5338069999999999,0.556867,0.636357,-0.00077,-0.012067,0.0077469999999999
499,-0.533768,0.556951,0.636315,0.000123,-0.009755,0.011436
500,-0.533772,0.5570039999999999,0.636265,0.000768,-0.009869,0.0105239999999999
501,-0.53378,0.5571050000000001,0.636171,0.002255,-0.0086129999999999,0.011809
502,-0.533754,0.557257,0.636059,0.001085,-0.007422,0.010898
503,-0.533714,0.557439,0.635933,-0.00042,-0.008901,0.013405
504,-0.533645,0.557747,0.63572,0.000182,-0.009545,0.014456
505,-0.533587,0.558174,0.635394,-0.003568,-0.010047,0.013623
506,-0.533546,0.558717,0.6349520000000001,-0.002754,-0.008515,0.0130889999999999
507,-0.533535,0.559355,0.6343989999999999,-0.001346,-0.008879,0.012192
508,-0.533572,0.560085,0.6337229999999999,0.000156,-0.01025,0.012898
509,-0.5336989999999999,0.56088,0.6329130000000001,0.00013,-0.01103,0.013404
510,-0.533848,0.561746,0.632019,0.00182,-0.010782,0.010071
511,-0.5340010000000001,0.562603,0.631127,0.001744,-0.009609,0.0081549999999999
512,-0.534125,0.563479,0.630239,0.0022949999999999,-0.010729,0.008966
513,-0.5342279999999999,0.564375,0.62935,0.001955,-0.009932,0.008421
514,-0.5342939999999999,0.565225,0.6285310000000001,0.001442,-0.009927,0.006998
515,-0.53437,0.566075,0.6277010000000001,3.7e-05,-0.010518,0.007523
516,-0.5344810000000001,0.566916,0.626846,0.000515,-0.009497,0.009583
517,-0.534579,0.567767,0.625992,0.000293,-0.00722,0.009842
518,-0.534665,0.568662,0.625105,-0.000262,-0.010084,0.010118
519,-0.534737,0.569585,0.624202,-0.000175,-0.009344,0.010227
520,-0.5348189999999999,0.5704899999999999,0.623305,0.000197,-0.007243,0.007753
521,-0.5349470000000001,0.571349,0.622409,0.001377,-0.004607,0.009427
522,-0.5350239999999999,0.5721149999999999,0.621638,0.0066269999999999,-0.002871,0.007024
523,-0.5350090000000001,0.572633,0.621174,0.00411,-0.006028,0.010875
524,-0.535133,0.5729390000000001,0.620785,-0.000374,-0.006121,0.019306
525,-0.5355449999999999,0.5732689999999999,0.620124,0.000237,-0.006389,0.018471
526,-0.5358109999999999,0.573625,0.6195649999999999,0.001723,-0.0038469999999999,0.008532
527,-0.535644,0.573731,0.6196119999999999,-0.0103,-0.009629,0.013811
528,-0.535431,0.5736829999999999,0.61984,-0.017715,-0.008818,0.0068379999999999
529,-0.535728,0.574158,0.619143,-0.012901,-0.007019,0.009275
530,-0.53706,0.57498,0.617222,0.0014,-0.007231,0.008678
531,-0.538913,0.5756399999999999,0.6149859999999999,0.0141479999999999,-0.011294,0.0010869999999999
532,-0.5403899999999999,0.576146,0.613214,0.021393,-0.018926,-0.000986
533,-0.5412939999999999,0.576577,0.612011,0.020267,-0.0138789999999999,-0.003689
534,-0.541828,0.576944,0.611192,0.018161,-0.010782,-0.005037
535,-0.542267,0.577322,0.610446,0.007095,-0.002035,0.00131
536,-0.542805,0.5777260000000001,0.609586,0.008244,-0.009366,0.01015
537,-0.54338,0.5780890000000001,0.608729,0.0041189999999999,-0.01745,0.0152639999999999
538,-0.54384,0.578341,0.608078,0.0027329999999999,-0.016543,0.016159
539,-0.544193,0.578434,0.6076739999999999,-0.003384,-0.025868,0.019111
540,-0.544237,0.578363,0.6077020000000001,-0.004774,-0.019968,0.021952
541,-0.544361,0.578612,0.607354,-0.004635,-0.01544,0.018927
542,-0.544488,0.579544,0.606351,-0.0141669999999999,-0.0149539999999999,0.020297
543,-0.544953,0.580631,0.604892,-0.0117489999999999,-0.018009,0.01962
544,-0.545562,0.581389,0.6036130000000001,-0.013383,-0.020247,0.016519
545,-0.546132,0.582022,0.602487,-0.010264,-0.014242,0.010489
546,-0.546497,0.5826819999999999,0.601517,-0.007367,-0.0156199999999999,0.010361
547,-0.546746,0.5832930000000001,0.600698,-0.003028,-0.0129039999999999,0.007548
548,-0.546995,0.583918,0.599863,0.007139,0.0016829999999999,0.000799
549,-0.547258,0.584519,0.599037,0.009279,0.005843,-0.001122
550,-0.547437,0.584707,0.598692,0.010251,0.009165,-0.002592
551,-0.547493,0.58435,0.598988,0.005409,0.0035859999999999,0.004268
552,-0.547358,0.58377,0.599676,0.004451,0.000412,0.005732
553,-0.5471560000000001,0.583182,0.600433,0.004691,-0.0071319999999999,0.00908
554,-0.547098,0.5827399999999999,0.600915,0.006052,-0.0136479999999999,0.00875
555,-0.547261,0.5825,0.600999,0.00536,-0.012142,0.008697
556,-0.547466,0.582317,0.600989,-0.000904,-0.015636,0.016946
557,-0.547538,0.5820609999999999,0.601171,-0.005761,-0.019683,0.021647
558,-0.547525,0.58181,0.601425,-0.007742,-0.018563,0.021881
559,-0.547471,0.581616,0.601662,-0.007369,-0.014676,0.026542
560,-0.54748,0.581501,0.601767,-0.00527,-0.015491,0.02128
561,-0.547539,0.581454,0.601757,-0.00312,-0.016512,0.019321
562,-0.547676,0.581374,0.6017100000000001,0.0017629999999999,-0.016234,0.011815
563,-0.547828,0.581335,0.6016100000000001,0.002662,-0.015615,0.007475
564,-0.5479470000000001,0.581359,0.601478,0.0042,-0.013488,0.007729
565,-0.548038,0.581363,0.601391,0.006122,-0.00899,0.003803
566,-0.548086,0.581372,0.601338,0.005514,-0.006543,0.0068769999999999
567,-0.5480689999999999,0.581309,0.601414,0.002629,-0.005137,0.005291
568,-0.548045,0.58119,0.6015510000000001,0.003367,-0.003492,0.006115
569,-0.548021,0.5810489999999999,0.601709,0.002306,-0.003534,0.008292
570,-0.5479470000000001,0.580955,0.601867,-0.0003779999999999,-0.0064769999999999,0.007996
571,-0.5478569999999999,0.58085,0.60205,-2.6e-05,-0.009607,0.0107739999999999
572,-0.5477770000000001,0.580703,0.602264,-0.000593,-0.010848,0.013062
573,-0.547772,0.580531,0.602434,-0.003742,-0.015697,0.013884
574,-0.547808,0.580391,0.602536,-0.001707,-0.016502,0.016284
575,-0.547812,0.580268,0.60265,-0.003442,-0.016929,0.013607
576,-0.547779,0.580214,0.602731,-0.002575,-0.012725,0.013358
577,-0.547787,0.580187,0.602751,-0.000462,-0.013613,0.011461
578,-0.547864,0.580098,0.602765,-0.000918,-0.012227,0.009418
579,-0.547998,0.579902,0.6028319999999999,0.002207,-0.014854,0.011868
580,-0.548158,0.5795640000000001,0.603012,0.004274,-0.013112,0.007309
581,-0.548287,0.57899,0.603446,0.0067989999999999,-0.009043,0.005715
582,-0.548349,0.57825,0.6040989999999999,0.007928,-0.009677,0.0062369999999999
583,-0.548261,0.577491,0.604906,0.0067269999999999,-0.0114349999999999,0.005613
584,-0.5480079999999999,0.576786,0.605808,0.002171,-0.010303,0.011838
585,-0.547668,0.5761189999999999,0.606749,0.003311,-0.011116,0.011415
586,-0.547342,0.575455,0.607672,-0.000677,-0.010163,0.0152979999999999
587,-0.547083,0.57476,0.608563,0.000697,-0.009589,0.017993
588,-0.546917,0.574045,0.609387,-6.4e-05,-0.010248,0.015522
589,-0.546747,0.573285,0.610254,-3.6e-05,-0.010281,0.016272
590,-0.546599,0.572491,0.6111310000000001,-0.002565,-0.013455,0.017409
591,-0.546502,0.571773,0.6118899999999999,-0.002357,-0.014369,0.0173819999999999
592,-0.5464859999999999,0.5712189999999999,0.612422,-0.003899,-0.013419,0.016988
593,-0.546539,0.57081,0.612755,-0.001801,-0.012491,0.0133889999999999
594,-0.546647,0.570574,0.612879,-0.003616,-0.0133689999999999,0.012792
595,-0.546741,0.570419,0.6129399999999999,-0.001553,-0.013534,0.011694
596,-0.546841,0.570188,0.613065,-0.000125,-0.012495,0.010668
597,-0.5468890000000001,0.569944,0.61325,0.0007,-0.011778,0.010499
598,-0.546864,0.569688,0.6135109999999999,0.0030859999999999,-0.010941,0.011443
599,-0.546794,0.569415,0.613827,0.001353,-0.012484,0.011737
600,-0.546713,0.569156,0.614138,0.000128,-0.012088,0.01428
601,-0.546671,0.568878,0.614433,-0.0008289999999999,-0.012878,0.014763
602,-0.54666,0.568662,0.614643,-0.000246,-0.01579,0.014691
603,-0.546669,0.568484,0.614799,-0.000404,-0.013812,0.014137
604,-0.5466479999999999,0.568349,0.6149439999999999,-0.000746,-0.0145919999999999,0.0155039999999999
605,-0.546623,0.5682510000000001,0.615057,-0.0007099999999999,-0.012877,0.011729
606,-0.546589,0.568194,0.615139,0.0016059999999999,-0.014163,0.013187
607,-0.5465800000000001,0.5681109999999999,0.615223,0.000133,-0.012859,0.013073
608,-0.546563,0.56802,0.615322,0.001153,-0.0128289999999999,0.012821
609,-0.546525,0.56795,0.615421,0.002564,-0.0108209999999999,0.012341
610,-0.546465,0.567878,0.615541,0.0002299999999999,-0.010414,0.0134259999999999
611,-0.546395,0.56784,0.615638,0.000725,-0.013366,0.014001
612,-0.546331,0.567809,0.615722,0.000372,-0.011474,0.013397
613,-0.5462670000000001,0.5677909999999999,0.615796,0.001269,-0.013546,0.012606
614,-0.546234,0.567747,0.615867,0.001006,-0.0121129999999999,0.014672
615,-0.5462199999999999,0.567714,0.615909,-0.000319,-0.0132699999999999,0.0149349999999999
616,-0.546207,0.567688,0.6159439999999999,0.001072,-0.013672,0.015541
617,-0.546167,0.567632,0.616031,-0.0015019999999999,-0.013097,0.011594
618,-0.546078,0.567509,0.616222,0.001172,-0.012791,0.015187
619,-0.545957,0.5673159999999999,0.6165069999999999,-0.0003689999999999,-0.0141699999999999,0.0130699999999999
620,-0.54587,0.567091,0.616791,-0.0003799999999999,-0.014555,0.01384
621,-0.5458529999999999,0.566941,0.6169439999999999,-0.001373,-0.0182039999999999,0.015685
622,-0.545866,0.566947,0.616926,-0.000291,-0.016074,0.0139479999999999
623,-0.545806,0.567066,0.61687,0.002105,-0.014881,0.01289
624,-0.5456840000000001,0.567192,0.616862,0.00032,-0.012428,0.012898
625,-0.545569,0.5672550000000001,0.616905,0.00109,-0.01269,0.012886
626,-0.545462,0.56726,0.616995,0.002219,-0.012908,0.013406
627,-0.54537,0.567166,0.617163,0.001715,-0.013593,0.0137419999999999
628,-0.545291,0.566964,0.617418,-0.001599,-0.0113,0.01689
629,-0.545209,0.56663,0.617798,0.001141,-0.010646,0.018677
630,-0.545189,0.566124,0.618279,0.004799,-0.008019,0.01696
631,-0.545323,0.565609,0.618632,0.006108,-0.0163689999999999,0.011617
632,-0.545563,0.565612,0.618417,0.007996,-0.012725,0.011741
633,-0.545539,0.565812,0.618256,0.006263,-0.013566,0.011871
634,-0.545402,0.565943,0.618256,0.001121,-0.012156,0.01268
635,-0.5452600000000001,0.565869,0.618449,-0.002424,-0.014844,0.015584
636,-0.5451819999999999,0.56565,0.6187189999999999,-0.001709,-0.016364,0.0138039999999999
637,-0.5451199999999999,0.565491,0.6189180000000001,-0.000535,-0.014908,0.015878
638,-0.5450510000000001,0.565477,0.618991,-0.000878,-0.0152,0.015989
639,-0.544988,0.565597,0.618937,0.000463,-0.015655,0.019842
640,-0.54492,0.565833,0.618783,0.000593,-0.014334,0.016853
641,-0.5448390000000001,0.566154,0.618559,-0.001655,-0.014717,0.015916
642,-0.544721,0.5665479999999999,0.6183029999999999,-0.003237,-0.016651,0.016981
643,-0.544616,0.56693,0.618046,-0.001084,-0.018178,0.0182909999999999
644,-0.544586,0.567227,0.6178,-0.0007019999999999,-0.016599,0.01602
645,-0.5446489999999999,0.5675680000000001,0.6174310000000001,-0.000761,-0.017138,0.0138699999999999
646,-0.5447609999999999,0.56785,0.617073,0.000236,-0.014338,0.013588
647,-0.544812,0.568152,0.616751,0.002439,-0.013205,0.015177
648,-0.544795,0.568445,0.616496,0.004436,-0.012323,0.014806
649,-0.5447350000000001,0.568767,0.616252,0.000683,-0.011989,0.015096
650,-0.544673,0.569155,0.6159479999999999,0.001292,-0.011004,0.0169099999999999
651,-0.544632,0.5696,0.615574,3.1e-05,-0.013249,0.015362
652,-0.5446340000000001,0.5700930000000001,0.615114,-0.002012,-0.014109,0.018034
653,-0.544662,0.570657,0.614566,0.00148,-0.012597,0.015316
654,-0.5446810000000001,0.571317,0.613935,0.001102,-0.0139289999999999,0.0134449999999999
655,-0.544741,0.571982,0.613264,0.001604,-0.016531,0.0152449999999999
656,-0.544802,0.572615,0.612618,0.000384,-0.0150289999999999,0.016822
657,-0.544856,0.573231,0.611995,0.00027,-0.015797,0.014318
658,-0.544888,0.5738340000000001,0.611399,0.000745,-0.014875,0.014959
659,-0.544905,0.574425,0.610829,0.001952,-0.014946,0.014736
660,-0.54495,0.575055,0.6101949999999999,0.000196,-0.017103,0.01743
661,-0.545044,0.575839,0.609372,-4.6e-05,-0.018282,0.020877
662,-0.545147,0.576998,0.608183,-0.002964,-0.019258,0.021471
663,-0.5452279999999999,0.578677,0.606511,-0.0079329999999999,-0.0152919999999999,0.0161539999999999
664,-0.5453640000000001,0.580685,0.6044649999999999,-0.0037229999999999,-0.010525,0.009197
665,-0.545611,0.582548,0.602448,0.0031149999999999,-0.011182,0.008041
666,-0.545808,0.584026,0.600835,0.0058909999999999,-0.01524,0.008647
667,-0.545913,0.585106,0.599687,0.006302,-0.015846,0.013441
668,-0.54599,0.585911,0.598831,0.003662,-0.0129129999999999,0.012237
669,-0.546074,0.58658,0.5981,0.002815,-0.013704,0.014387
670,-0.546147,0.58716,0.597464,0.00153,-0.012408,0.015863
671,-0.546168,0.587587,0.597024,0.001918,-0.010607,0.013907
672,-0.546172,0.587917,0.596696,0.000334,-0.010342,0.015685
673,-0.5462090000000001,0.58816,0.596422,0.006552,-0.013011,0.0155319999999999
674,-0.546227,0.5884010000000001,0.596169,0.004128,-0.016548,0.018333
675,-0.546157,0.588835,0.595804,-0.003068,-0.019194,0.02706
676,-0.5459649999999999,0.589594,0.59523,-0.008036,-0.015238,0.026322
677,-0.5457310000000001,0.590618,0.594429,-0.00589,-0.00787,0.018028
678,-0.545624,0.591589,0.593562,-0.0008849999999999,-0.002813,0.012395
679,-0.545687,0.592294,0.592801,0.003221,-0.007501,0.0114159999999999
680,-0.545914,0.592747,0.5921390000000001,0.00589,-0.0148659999999999,0.0142759999999999
681,-0.5462739999999999,0.5930770000000001,0.591477,0.002923,-0.019927,0.014831
682,-0.546633,0.593375,0.590845,0.001818,-0.019171,0.01145
683,-0.5467890000000001,0.593676,0.590398,-9e-06,-0.014956,0.006434
684,-0.546721,0.593859,0.590277,-0.001207,-0.013552,0.002618
685,-0.5465260000000001,0.593905,0.590411,-0.001249,-0.013705,0.002881
686,-0.546304,0.593919,0.590603,-0.000297,-0.015535,0.007633
687,-0.5461159999999999,0.594166,0.5905279999999999,0.001179,-0.018605,0.0128659999999999
688,-0.545945,0.594739,0.59011,-0.0016769999999999,-0.0175449999999999,0.011651
689,-0.5456850000000001,0.595586,0.589496,-0.0058439999999999,-0.023839,0.020841
690,-0.545343,0.596781,0.588603,-0.005957,-0.02595,0.0250139999999999
691,-0.5450520000000001,0.598287,0.587341,-0.003974,-0.024465,0.023499
692,-0.5449390000000001,0.59991,0.585789,0.0015429999999999,-0.024898,0.022243
693,-0.5450510000000001,0.601326,0.58423,0.010184,-0.021522,0.0182629999999999
694,-0.545208,0.6024010000000001,0.582974,0.0107689999999999,-0.016372,0.014957
695,-0.545285,0.602997,0.582287,0.007672,-0.012085,0.016895
696,-0.54525,0.603133,0.58218,0.005699,-0.0120989999999999,0.019108
697,-0.545133,0.602929,0.5825,0.005888,-0.011819,0.017216
698,-0.544909,0.602636,0.583012,0.003207,-0.016928,0.0169169999999999
699,-0.544597,0.60245,0.583496,0.0059619999999999,-0.016222,0.016205
700,-0.544305,0.602517,0.5836979999999999,0.006357,-0.012933,0.016903
701,-0.5441699999999999,0.6028720000000001,0.5834590000000001,0.005214,-0.012295,0.015128
702,-0.5440470000000001,0.603549,0.582873,-0.002797,-0.010577,0.017209
703,-0.543941,0.604596,0.581887,-0.002751,-0.013912,0.017021
704,-0.5440229999999999,0.606047,0.580298,0.000337,-0.016371,0.0110569999999999
705,-0.544283,0.6077239999999999,0.578295,0.0003689999999999,-0.010068,0.005918
706,-0.544569,0.609151,0.576523,0.000669,-0.010777,0.011856
707,-0.544733,0.609958,0.575515,-0.001349,-0.0104099999999999,0.02086
708,-0.5446949999999999,0.6101439999999999,0.575353,-0.005186,-0.010962,0.015925
709,-0.544523,0.609999,0.57567,-0.006579,-0.011915,0.016722
710,-0.54433,0.609704,0.576164,-0.0032619999999999,-0.016335,0.0205909999999999
711,-0.544198,0.6094,0.576611,-0.002311,-0.023585,0.026493
712,-0.544195,0.609232,0.576792,-0.000727,-0.027292,0.028219
713,-0.544366,0.609297,0.576561,-0.00228,-0.020262,0.021401
714,-0.544539,0.609693,0.575979,-0.003191,-0.019819,0.019953
715,-0.544604,0.6104,0.575168,-0.003125,-0.019809,0.024395
716,-0.5446449999999999,0.611367,0.574101,0.000487,-0.0105519999999999,0.032298
717,-0.544728,0.612588,0.57272,0.000569,-0.011773,0.03368
718,-0.544872,0.613797,0.571286,0.005733,-0.013577,0.028354
719,-0.5450020000000001,0.614966,0.569902,0.005314,-0.0128389999999999,0.022246
720,-0.54491,0.61607,0.568796,0.007252,-0.016613,0.0194
721,-0.544485,0.6172529999999999,0.567921,0.0065209999999999,-0.020299,0.019421
722,-0.5436770000000001,0.618939,0.566858,0.0048579999999999,-0.022946,0.020239
723,-0.542744,0.621395,0.565062,0.001896,-0.016201,0.01877
724,-0.541713,0.62417,0.562988,-0.001989,-0.019388,0.0140229999999999
725,-0.540691,0.626739,0.561114,0.002682,-0.018066,0.01843
726,-0.540084,0.629085,0.5590689999999999,0.013625,-0.009746,0.0293709999999999
727,-0.539902,0.631737,0.556248,0.034714,-0.008461,0.031993
728,-0.540138,0.6349229999999999,0.5523779999999999,0.0587539999999999,-0.041249,0.042898
729,-0.540511,0.639171,0.547088,0.07785,-0.057995,0.056962
730,-0.54233,0.644075,0.539485,0.066469,-0.0393079999999999,0.037984
731,-0.54573,0.648929,0.530159,0.031891,0.010754,0.041283
732,-0.549708,0.653438,0.520422,0.019144,0.032506,0.023752
733,-0.552901,0.658243,0.510898,0.004103,0.0128849999999999,-0.004932
734,-0.5549689999999999,0.664141,0.500925,0.015785,-0.036791,-0.008935
735,-0.555986,0.6712,0.490276,0.007264,-0.042538,-0.000941
736,-0.555972,0.678121,0.480672,-0.024899,-0.011114,0.037806
737,-0.555009,0.684226,0.473075,0.022981,-0.018302,0.033593
738,-0.5540579999999999,0.688909,0.467359,0.006893,-0.002141,0.0207389999999999
739,-0.552609,0.6928,0.463305,-0.030399,-0.001089,0.0258009999999999
740,-0.551005,0.696865,0.4590979999999999,-0.026876,0.001728,0.019479
741,-0.549241,0.7018399999999999,0.453602,-0.062942,-0.0017519999999999,-0.01067
742,-0.54742,0.706801,0.4480659999999999,-0.0606429999999999,0.006562,-0.009391
743,-0.5453939999999999,0.711124,0.443675,-0.049882,-0.013583,0.003225
744,-0.5432560000000001,0.715114,0.439867,-0.045092,-0.026302,0.003599
745,-0.540779,0.7191350000000001,0.436351,-0.011589,-0.037479,0.016973
746,-0.538053,0.7236279999999999,0.432274,-0.049487,-0.050487,0.017799
747,-0.535154,0.728064,0.428407,-0.052141,-0.0300959999999999,0.022094
748,-0.531539,0.73245,0.425421,-0.055833,-0.010343,0.022912
749,-0.527401,0.7367739999999999,0.423097,-0.045292,-0.022815,0.02101
750,-0.523033,0.741359,0.420502,-0.033867,-0.03448,0.023239
751,-0.5187689999999999,0.745903,0.417739,-0.0326529999999999,-0.024345,0.024949
752,-0.514353,0.750265,0.41538,-0.036932,-0.00672,0.032664
753,-0.5099779999999999,0.75417,0.4136979999999999,-0.047456,-0.007893,0.039152
754,-0.5055609999999999,0.758046,0.412031,-0.01162,-0.013402,0.053622
755,-0.501149,0.7623770000000001,0.4094219999999999,0.0149889999999999,-0.011477,0.057024
756,-0.496676,0.766911,0.406395,0.013415,-0.009892,0.049401
757,-0.492005,0.7712439999999999,0.403869,0.0082709999999999,-0.01305,0.040116
758,-0.487282,0.774899,0.402594,-0.000923,-0.0281949999999999,0.045725
759,-0.4821729999999999,0.778473,0.4018489999999999,0.001292,-0.053421,0.03472
760,-0.4768159999999999,0.7825409999999999,0.400337,0.001917,-0.046686,0.02845
761,-0.471164,0.787195,0.397895,-0.000882,-0.019816,0.036156
762,-0.4651149999999999,0.7916380000000001,0.396194,-0.011844,0.021228,0.034485
763,-0.458552,0.7954979999999999,0.396113,-0.040166,0.032673,0.015432
764,-0.45151,0.7988529999999999,0.397448,-0.00955,0.03211,0.0019199999999999
765,-0.445194,0.801566,0.399104,-0.047314,0.019036,0.020146
766,-0.4388609999999999,0.805079,0.399048,-0.032742,0.001425,0.0068969999999999
767,-0.43268,0.8091689999999999,0.397523,-0.053282,-0.007228,-0.014894
768,-0.426363,0.813247,0.396022,-0.051283,-0.003036,-0.029429
769,-0.4197649999999999,0.816868,0.3956179999999999,-0.023915,0.000331,-0.024356
770,-0.412896,0.820208,0.395937,0.008874,0.0068189999999999,-0.0137349999999999
771,-0.405848,0.8232200000000001,0.39697,-0.005254,0.00669,-0.01074
772,-0.398997,0.8257200000000001,0.3987199999999999,-0.039602,-0.001898,0.0063549999999999
773,-0.392112,0.828089,0.40063,-0.029488,0.005605,0.006383
774,-0.385281,0.830216,0.4028489999999999,-0.032917,0.004577,0.00569
775,-0.378445,0.8318059999999999,0.406038,-0.037068,0.007,-0.004823
776,-0.371287,0.8325440000000001,0.411101,-0.011327,0.030524,0.006059
777,-0.364057,0.832987,0.416633,-0.00983,0.009893,-0.001945
778,-0.356931,0.8333,0.422135,0.0246699999999999,-0.000399,-0.001924
779,-0.3501,0.833517,0.427396,0.032793,0.002513,0.008395
780,-0.343408,0.8338399999999999,0.432167,0.041513,-0.009713,0.016121
781,-0.337252,0.834247,0.436208,0.025637,-0.009739,0.016596
782,-0.331842,0.834484,0.439889,0.024683,-0.00291,0.014075
783,-0.327434,0.83473,0.442718,0.025157,-0.023222,0.044755
784,-0.324028,0.835241,0.444256,0.020149,-0.02912,0.044346
785,-0.321252,0.835772,0.445272,0.011712,-0.016986,0.038432
786,-0.31874,0.836463,0.445779,0.012145,-0.015083,0.039465
787,-0.316648,0.837525,0.445275,0.054563,-0.019211,0.036139
788,-0.315718,0.8386819999999999,0.443755,0.052122,-0.026594,0.041337
789,-0.31544,0.839527,0.442352,0.0662789999999999,-0.028369,0.036499
790,-0.315822,0.8399120000000001,0.4413479999999999,0.0901899999999999,-0.020103,0.029691
791,-0.317436,0.839765,0.440468,0.10157,-0.031431,0.0221479999999999
792,-0.320214,0.839182,0.439567,0.108743,-0.044962,0.01957
793,-0.323662,0.8382870000000001,0.4387479999999999,0.096963,-0.032608,0.03226
794,-0.327235,0.8369639999999999,0.438621,0.081218,-0.010579,0.055001
795,-0.330926,0.8351059999999999,0.4393939999999999,0.104256,0.00248,0.078657
796,-0.335649,0.8325229999999999,0.4407109999999999,0.081484,0.001736,0.053262
797,-0.342005,0.8291620000000001,0.4421569999999999,0.0538429999999999,0.000916,0.024457
798,-0.349468,0.825842,0.442533,0.0286829999999999,-0.036322,0.01787
799,-0.357751,0.823033,0.441147,0.009728,-0.039143,0.024597
800,-0.366661,0.8209799999999999,0.437643,0.006874,-0.046047,0.0444279999999999
801,-0.375924,0.819931,0.43171,0.013116,-0.051636,0.060844
802,-0.385436,0.8197530000000001,0.4235859999999999,0.038313,-0.030293,0.065077
803,-0.395873,0.81916,0.41502,0.0894,0.042259,0.069736
804,-0.408169,0.816608,0.408083,0.122128,0.092419,0.091017
805,-0.422386,0.8122689999999999,0.402234,0.1589269999999999,0.095355,0.082218
806,-0.437735,0.807021,0.396342,0.156195,0.081087,0.053228
807,-0.453655,0.801429,0.389731,0.114818,0.053216,0.0303279999999999
808,-0.4696,0.7952199999999999,0.383513,0.059871,0.039848,0.005967
809,-0.4854479999999999,0.787713,0.379249,0.025823,0.038337,-0.014717
810,-0.501727,0.779047,0.37595,-0.0091989999999999,0.040305,0.005275
811,-0.518364,0.7696430000000001,0.372732,-0.018272,0.046702,0.01626
812,-0.534243,0.759915,0.370264,-0.070813,0.028629,-0.009775
813,-0.548916,0.750367,0.368267,-0.0561409999999999,0.038176,-0.007778
814,-0.5622739999999999,0.741334,0.366404,-0.063748,-0.020158,-0.024562
815,-0.5740109999999999,0.733119,0.364733,-0.045618,-0.02682,-0.005068
816,-0.585124,0.725097,0.363104,-0.039845,-0.016205,-0.004599
817,-0.59605,0.716609,0.362184,-0.061665,-0.0256,0.027006
818,-0.6063,0.7077899999999999,0.362512,-0.080437,-0.042843,0.032111
819,-0.615358,0.69943,0.363475,-0.1027049999999999,-0.067014,0.022618
820,-0.623199,0.691992,0.364352,-0.132065,-0.085806,0.024701
821,-0.629947,0.6852699999999999,0.365448,-0.133648,-0.0754529999999999,0.031143
822,-0.63713,0.678154,0.366269,-0.096283,-0.0491259999999999,0.0102569999999999
823,-0.644949,0.670268,0.3671,-0.045847,-0.035472,0.001873
824,-0.652652,0.6617609999999999,0.3689159999999999,-0.01138,-0.03142,-0.00153
825,-0.659945,0.652305,0.372762,0.017977,-0.036552,-0.019918
826,-0.666619,0.641833,0.3790139999999999,0.01928,-0.0303209999999999,-0.0253919999999999
827,-0.6725300000000001,0.631888,0.385229,-0.01822,-0.027137,0.007059
828,-0.678375,0.622891,0.389609,-0.024643,-0.012616,0.037515
829,-0.6843819999999999,0.614514,0.392396,-0.016683,-0.008832,0.044463
830,-0.690125,0.606792,0.39435,-0.007965,-0.006663,0.038908
831,-0.694742,0.600528,0.39583,-0.011939,-0.027866,0.026137
832,-0.697967,0.595459,0.39781,-0.03711,-0.048629,0.018297
833,-0.699317,0.592333,0.400098,-0.0085069999999999,-0.018786,0.004397
834,-0.699742,0.588797,0.404551,-0.05566,-0.095801,0.017279
835,-0.698921,0.5860989999999999,0.409852,-0.0120159999999999,-0.0496,-0.029862
836,-0.6977949999999999,0.5831350000000001,0.415952,-0.05106,-0.114538,0.001986
837,-0.695645,0.582434,0.420512,-0.022556,-0.0759789999999999,0.002675
838,-0.693232,0.582414,0.424506,-0.022726,-0.060853,-0.009818
839,-0.690472,0.5820390000000001,0.429488,0.007244,-0.059898,-0.027038
840,-0.687149,0.58187,0.43501,-0.012451,-0.083594,-0.016858
841,-0.6829270000000001,0.582151,0.441237,-0.031382,-0.132184,0.003144
842,-0.678417,0.58375,0.446058,-0.0416459999999999,-0.134791,0.018695
843,-0.674805,0.58626,0.448238,-0.035598,-0.112994,0.014897
844,-0.672126,0.589136,0.448493,-0.027947,-0.0734799999999999,-0.016334
845,-0.669848,0.591953,0.448191,-0.030591,-0.044056,-0.017618
846,-0.668043,0.594341,0.4477239999999999,-0.04236,-0.01559,0.033736
847,-0.6672899999999999,0.595847,0.4468439999999999,-0.076759,0.020578,0.099634
848,-0.6682560000000001,0.595427,0.4459609999999999,-0.069507,0.028414,0.09629
849,-0.670025,0.594013,0.44519,-0.034504,-0.006062,0.005738
850,-0.671546,0.59438,0.4424,-0.022256,-0.05782,-0.003297
851,-0.671505,0.598581,0.4367609999999999,0.05563,-0.054819,-0.000757
852,-0.669231,0.60617,0.429728,0.121899,-0.011047,0.037084
853,-0.665425,0.6143460000000001,0.42399,0.150288,0.016102,0.063238
854,-0.660586,0.621207,0.421554,0.176653,0.0514159999999999,0.156327
855,-0.65488,0.626341,0.422856,0.170948,0.046282,0.155025
856,-0.648654,0.629183,0.428199,0.0657529999999999,0.0072299999999999,0.145836
857,-0.642687,0.6292479999999999,0.437012,-0.049101,-0.001455,0.098938
858,-0.6374449999999999,0.626754,0.448131,-0.091299,0.006211,0.069097
859,-0.632864,0.623257,0.4593609999999999,-0.1907299999999999,0.007969,-0.016199
860,-0.6292800000000001,0.620304,0.468196,-0.1865619999999999,-0.0149729999999999,-0.058436
861,-0.627121,0.618799,0.473058,-0.121857,-0.045908,-0.070562
862,-0.625829,0.61931,0.474101,-0.040812,-0.041093,-0.0494029999999999
863,-0.6244029999999999,0.6214189999999999,0.47322,0.012312,-0.023641,-0.028136
864,-0.622695,0.623749,0.472404,0.044295,-0.010514,-0.022178
865,-0.620854,0.625603,0.472377,0.0520669999999999,-0.008812,-0.015406
866,-0.618717,0.626572,0.473892,0.02721,-0.011292,-0.004745
867,-0.616183,0.626572,0.4771829999999999,0.013705,-0.0152129999999999,0.017187
868,-0.613266,0.626103,0.4815359999999999,0.027131,-0.002934,0.032945
869,-0.6101489999999999,0.625478,0.486284,0.051326,0.010615,0.0424029999999999
870,-0.607216,0.624778,0.490834,0.0490639999999999,0.00895,0.044505
871,-0.604582,0.62388,0.495209,0.047269,0.002508,0.037765
872,-0.602165,0.622671,0.499654,0.011757,-0.044363,0.033946
873,-0.5995159999999999,0.621373,0.504433,-0.002718,-0.046392,0.022666
874,-0.5961930000000001,0.619953,0.510088,-0.0130599999999999,-0.03928,0.012465
875,-0.592186,0.618021,0.517053,-0.000557,-0.027125,0.0167
876,-0.588124,0.614997,0.525231,0.020252,-0.0073,0.038627
877,-0.5846939999999999,0.61032,0.534434,0.047661,0.011796,0.051916
878,-0.581613,0.604205,0.544646,0.052561,0.009,0.057404
879,-0.5787180000000001,0.597527,0.555,0.042082,-0.00187,0.058419
880,-0.576397,0.591734,0.563555,0.030361,0.009203,0.056776
881,-0.574572,0.587711,0.569596,0.00104,0.0261649999999999,0.046401
882,-0.573222,0.586174,0.5725319999999999,-0.0045829999999999,0.0129319999999999,0.043435
883,-0.572541,0.587689,0.571661,-6.1e-05,0.003544,0.049616
884,-0.572681,0.592722,0.566299,-0.0266689999999999,0.053869,0.083817
885,-0.57313,0.599591,0.558559,-0.003622,0.038119,0.01363
886,-0.5731930000000001,0.6008760000000001,0.5571109999999999,0.006665,-0.00702,-0.010175
887,-0.572958,0.598435,0.5599729999999999,0.004538,-0.033524,-0.000708
888,-0.571987,0.596301,0.563233,-0.020298,-0.079821,0.0077659999999999
889,-0.570207,0.595303,0.566084,-0.040648,-0.092404,0.020052
890,-0.5683,0.594576,0.568759,-0.0241979999999999,-0.084307,0.01994
891,-0.5669420000000001,0.594987,0.569684,0.014696,-0.064149,0.017352
892,-0.5658489999999999,0.5967680000000001,0.568908,0.032768,-0.0539059999999999,0.02472
893,-0.5648569999999999,0.598526,0.568046,0.030601,-0.056961,0.034294
894,-0.564024,0.598906,0.568473,0.016524,-0.051375,0.042367
895,-0.56338,0.598635,0.569395,0.018397,-0.048296,0.050753
896,-0.562811,0.599071,0.569501,0.0290279999999999,-0.043041,0.052722
897,-0.56221,0.599975,0.5691430000000001,0.03543,-0.034041,0.056848
898,-0.561368,0.60092,0.5689770000000001,0.0411959999999999,-0.0269149999999999,0.063713
899,-0.560348,0.601767,0.569088,0.041,-0.011862,0.0528
900,-0.559434,0.602577,0.569131,0.040055,-0.014259,0.048026
901,-0.5586810000000001,0.60313,0.569284,0.035381,-0.0142009999999999,0.040747
902,-0.55804,0.6035159999999999,0.569503,0.015529,-0.014497,0.038758
903,-0.557617,0.604002,0.569403,0.010117,-0.01573,0.043528
904,-0.557353,0.604383,0.569258,0.005961,-0.0182319999999999,0.0320149999999999
905,-0.557404,0.604113,0.569494,0.0050659999999999,-0.015596,0.022516
906,-0.557782,0.603147,0.5701470000000001,0.005886,-0.009015,0.008176
907,-0.5581510000000001,0.6018680000000001,0.571136,0.018646,0.0009449999999999,-0.013244
908,-0.558196,0.600558,0.572469,0.0093379999999999,-0.009662,-0.001745
909,-0.5577810000000001,0.5991350000000001,0.574362,0.003154,-0.009612,-0.002875
910,-0.556904,0.597317,0.577099,-0.0017809999999999,-0.005841,-0.005612
911,-0.555821,0.595061,0.580464,0.020665,-0.018859,0.036815
912,-0.5555829999999999,0.592485,0.583318,0.019222,-0.032488,0.044398
913,-0.556462,0.589867,0.5851310000000001,0.016285,-0.041054,0.041593
914,-0.557704,0.587078,0.586751,0.0116379999999999,-0.027691,0.040156
915,-0.558578,0.5837859999999999,0.5892,0.004974,-0.025787,0.04578
916,-0.55889,0.580095,0.59254,0.00199,-0.0244,0.052586
917,-0.559042,0.576717,0.595685,-0.004099,-0.030452,0.071734
918,-0.559701,0.574442,0.597262,-0.0009369999999999,-0.024469,0.071302
919,-0.5606479999999999,0.573655,0.5971310000000001,0.009134,-0.025178,0.05683
920,-0.561754,0.574318,0.5954520000000001,0.00377,-0.018136,0.046852
921,-0.5627449999999999,0.5758270000000001,0.5930529999999999,0.000596,-0.020453,0.045879
922,-0.563499,0.577905,0.590309,-0.008309,-0.022744,0.019722
923,-0.5641520000000001,0.580391,0.587237,-0.008129,-0.023079,0.005277
924,-0.564714,0.583097,0.584006,-0.01007,-0.028562,0.005196
925,-0.565224,0.5858760000000001,0.580723,0.00367,-0.0333399999999999,-0.002445
926,-0.565595,0.588649,0.577547,0.010191,-0.038478,-0.002276
927,-0.565511,0.591115,0.575106,0.009633,-0.042866,0.01605
928,-0.565034,0.593043,0.573587,0.009889,-0.038768,0.047095
929,-0.564496,0.594173,0.572947,0.014508,-0.029079,0.059499
930,-0.564307,0.594491,0.572803,0.023078,-0.020913,0.054944
931,-0.564503,0.5942350000000001,0.572875,0.022267,-0.0066349999999999,0.0393079999999999
932,-0.564692,0.593324,0.573634,0.0146729999999999,-0.001664,0.0308279999999999
933,-0.56447,0.5917520000000001,0.575471,0.001635,-0.006379,0.029921
934,-0.563724,0.589841,0.578158,-0.0134849999999999,-0.010709,0.026197
935,-0.562555,0.58791,0.581255,-0.027044,-0.010426,0.004347
936,-0.5610729999999999,0.586224,0.58438,-0.051827,-0.004162,-0.025573
937,-0.559303,0.58485,0.587447,-0.071557,-0.014232,-0.036833
938,-0.557196,0.583741,0.590543,-0.0676659999999999,-0.018143,-0.047711
939,-0.5544319999999999,0.5822890000000001,0.594564,-0.034206,-0.017896,-0.038488
940,-0.5512520000000001,0.5800770000000001,0.5996630000000001,0.014447,-0.040541,0.017769
941,-0.548195,0.577774,0.604667,0.082939,0.016128,0.0272759999999999
942,-0.545395,0.574127,0.610643,0.109177,0.0570679999999999,0.037825
943,-0.5436300000000001,0.568288,0.617639,0.075277,0.00114,0.069663
944,-0.542425,0.56225,0.624188,0.045538,-0.112757,0.110858
945,-0.5411199999999999,0.558481,0.628688,0.052397,-0.164881,0.1233869999999999
946,-0.538758,0.5572199999999999,0.631829,0.082307,-0.110885,0.1064069999999999
947,-0.537065,0.5556399999999999,0.634655,0.088014,-0.012519,0.109547
948,-0.538391,0.552374,0.6363810000000001,0.0872039999999999,0.021448,0.100802
949,-0.542324,0.548697,0.6362220000000001,0.072827,0.018228,0.084801
950,-0.546763,0.546041,0.634706,0.0602669999999999,0.002817,0.050749
951,-0.549619,0.545095,0.63305,0.031355,-0.007238,0.024741
952,-0.5506989999999999,0.545184,0.632035,0.0043729999999999,-0.013675,0.001586
953,-0.5503899999999999,0.544782,0.6326510000000001,-0.053294,-0.0241669999999999,-0.032675
954,-0.549499,0.543495,0.63453,-0.064454,-0.030113,-0.041787
955,-0.548538,0.541982,0.636651,-0.069031,-0.035955,-0.04818
956,-0.547719,0.5408430000000001,0.6383220000000001,-0.058619,-0.039317,-0.041688
957,-0.547061,0.540011,0.6395890000000001,-0.04823,-0.033083,-0.037295
958,-0.546317,0.538767,0.6412720000000001,-0.035791,-0.027201,-0.031836
959,-0.545588,0.536319,0.643939,0.010187,-0.004047,0.011029
960,-0.544317,0.532717,0.647992,0.018652,-0.003145,0.0197479999999999
961,-0.5427890000000001,0.527962,0.653145,0.020557,-0.0031969999999999,0.019966
962,-0.541367,0.5221359999999999,0.658983,0.022309,-0.0145669999999999,0.028624
963,-0.539844,0.5158229999999999,0.6651739999999999,0.019153,-0.0155639999999999,0.0302759999999999
964,-0.53798,0.510062,0.6711,0.013963,-0.037528,0.057324
965,-0.535621,0.505337,0.676541,0.012336,-0.044567,0.07262
966,-0.5331279999999999,0.501508,0.681342,0.015397,-0.047635,0.071847
967,-0.530662,0.498126,0.6857340000000001,0.008705,-0.049716,0.066661
968,-0.528613,0.4953579999999999,0.689312,0.002398,-0.052411,0.063846
969,-0.527193,0.493652,0.69162,-0.00337,-0.057312,0.0590669999999999
970,-0.526402,0.4931779999999999,0.6925600000000001,-0.004848,-0.049804,0.046088
971,-0.526091,0.4935989999999999,0.692496,-0.001436,-0.040092,0.0350889999999999
972,-0.526133,0.4944189999999999,0.691879,0.0002839999999999,-0.038243,0.0285339999999999
973,-0.526403,0.495151,0.69115,0.004613,-0.036426,0.016217
974,-0.52657,0.495515,0.690762,0.011418,-0.033799,0.01543
975,-0.526315,0.495168,0.6912050000000001,0.024224,-0.028081,0.007709
976,-0.525688,0.4937399999999999,0.692702,0.029716,-0.005169,0.000505
977,-0.525045,0.491054,0.695095,0.025426,0.006352,0.017689
978,-0.523501,0.4875359999999999,0.6987260000000001,0.03168,0.0137759999999999,0.022252
979,-0.520991,0.483442,0.703432,0.030573,-0.007337,0.0075819999999999
980,-0.5183260000000001,0.4791229999999999,0.708338,0.016479,-0.028149,-0.0027559999999999
981,-0.5160710000000001,0.475275,0.7125630000000001,0.002506,-0.039667,-0.00158
982,-0.5141560000000001,0.4720109999999999,0.7161069999999999,-0.0055119999999999,-0.041789,0.017703
983,-0.512125,0.4689439999999999,0.719569,-0.0036829999999999,-0.043987,0.034063
984,-0.509834,0.465892,0.723169,-0.000771,-0.046397,0.047049
985,-0.507333,0.462738,0.726942,-0.002783,-0.049835,0.0555279999999999
986,-0.505117,0.459491,0.730535,0.009314,-0.05141,0.053461
987,-0.5036579999999999,0.456762,0.7332489999999999,0.011592,-0.051809,0.053235
988,-0.503199,0.455172,0.7345510000000001,0.0077,-0.042407,0.052421
989,-0.503612,0.4547899999999999,0.734505,0.0071819999999999,-0.038866,0.045875
990,-0.504533,0.4554649999999999,0.733453,0.00879,-0.038549,0.037375
991,-0.505758,0.456766,0.731799,0.018682,-0.028391,0.020383
992,-0.5071439999999999,0.458229,0.7299220000000001,0.024936,-0.019783,0.0145389999999999
993,-0.508464,0.459322,0.728314,0.027568,-0.011461,0.0069459999999999
994,-0.509357,0.459712,0.727444,0.024647,-0.012126,0.006259
995,-0.509537,0.459312,0.727571,0.024201,-0.018699,0.012267
996,-0.509046,0.458215,0.7286060000000001,0.028073,-0.026513,0.019426
997,-0.508101,0.456541,0.730314,0.029204,-0.029997,0.0269339999999999
998,-0.507075,0.454333,0.7324,0.028056,-0.032169,0.034324
999,-0.506188,0.451769,0.734596,0.026467,-0.0367,0.040261
1000,-0.505499,0.449158,0.736667,0.017325,-0.0371709999999999,0.037487
1001,-0.505132,0.44686,0.738314,0.015752,-0.042822,0.037839
1002,-0.505311,0.445403,0.7390720000000001,0.01796,-0.0433189999999999,0.040301
1003,-0.505962,0.4449079999999999,0.738925,0.010448,-0.039803,0.039471
1004,-0.5068600000000001,0.445005,0.738251,0.003626,-0.038846,0.035629
1005,-0.507861,0.4452859999999999,0.737394,0.0034659999999999,-0.038853,0.032549
1006,-0.5088159999999999,0.4455399999999999,0.736582,0.008679,-0.034057,0.025534
1007,-0.509652,0.44548,0.736041,0.007836,-0.030197,0.01547
1008,-0.510251,0.444934,0.735956,0.009259,-0.027667,0.013052
1009,-0.510394,0.4437899999999999,0.736548,0.004748,-0.026249,0.0063409999999999
1010,-0.5101319999999999,0.441945,0.737839,0.0077659999999999,-0.021031,0.002777
1011,-0.509533,0.439741,0.739567,0.008282,-0.020521,0.000713
1012,-0.5084850000000001,0.437363,0.741695,0.00673,-0.020447,0.004185
1013,-0.506977,0.434888,0.744178,0.0051,-0.036481,0.0176169999999999
1014,-0.505217,0.4323369999999999,0.746858,0.003966,-0.038966,0.020156
1015,-0.503538,0.429692,0.749513,0.003065,-0.0395089999999999,0.0224289999999999
1016,-0.5019939999999999,0.4269489999999999,0.752112,0.007761,-0.044045,0.034723
1017,-0.500572,0.424376,0.7545109999999999,0.009453,-0.04373,0.036749
1018,-0.499208,0.4220319999999999,0.756726,0.010667,-0.043248,0.036823
1019,-0.497963,0.420008,0.75867,0.012215,-0.04162,0.034848
1020,-0.496841,0.418334,0.760328,0.016693,-0.045714,0.028505
1021,-0.495838,0.417016,0.761705,0.01453,-0.043587,0.026732
1022,-0.494971,0.4159569999999999,0.762847,0.01554,-0.041232,0.026048
1023,-0.4941439999999999,0.415068,0.763867,0.0162539999999999,-0.039992,0.0264009999999999
1024,-0.49327,0.414227,0.764888,0.017348,-0.0372889999999999,0.0242509999999999
1025,-0.4923399999999999,0.4133739999999999,0.765948,0.018601,-0.032865,0.02371
1026,-0.491338,0.412416,0.767107,0.017522,-0.0295269999999999,0.022718
1027,-0.490148,0.411309,0.76846,0.015874,-0.027932,0.023806
1028,-0.488864,0.41011,0.769917,0.01073,-0.026291,0.025539
1029,-0.487737,0.408805,0.771324,0.0110829999999999,-0.0267399999999999,0.027961
1030,-0.486827,0.407524,0.772575,0.0133009999999999,-0.026879,0.0269699999999999
1031,-0.486139,0.406484,0.7735569999999999,0.013025,-0.0300339999999999,0.0306579999999999
1032,-0.485675,0.405877,0.7741680000000001,0.010531,-0.033425,0.02878
1033,-0.4856229999999999,0.405776,0.774253,0.013165,-0.030532,0.028939
1034,-0.486089,0.406088,0.773798,0.01592,-0.027654,0.029516
1035,-0.487019,0.406674,0.7729050000000001,0.016987,-0.029401,0.030531
1036,-0.48821,0.40752,0.771706,0.019293,-0.030293,0.031242
1037,-0.489363,0.408588,0.770411,0.023756,-0.043567,0.0251979999999999
1038,-0.490127,0.4096909999999999,0.7693369999999999,0.026062,-0.046318,0.026241
1039,-0.490285,0.410376,0.768872,0.020055,-0.058935,0.0298339999999999
1040,-0.489966,0.4105399999999999,0.768988,0.010824,-0.069231,0.031382
1041,-0.489558,0.410497,0.76927,0.0088,-0.066457,0.026888
1042,-0.489317,0.4105439999999999,0.7693979999999999,0.003721,-0.056159,0.021282
1043,-0.489334,0.4111229999999999,0.769077,0.0038759999999999,-0.048437,0.023464
1044,-0.4895859999999999,0.412429,0.7682180000000001,-0.004157,-0.035506,0.0281079999999999
1045,-0.490247,0.4141859999999999,0.766849,-0.001071,-0.021806,0.031552
1046,-0.491493,0.416678,0.764699,0.002891,-0.015952,0.028408
1047,-0.493381,0.420079,0.7616149999999999,0.0069459999999999,-0.01566,0.0282709999999999
1048,-0.4955859999999999,0.424069,0.757965,0.012797,-0.014676,0.031159
1049,-0.497729,0.427884,0.754408,0.015887,-0.020413,0.0287949999999999
1050,-0.499612,0.430955,0.751409,0.021402,-0.024141,0.023524
1051,-0.501109,0.433221,0.749106,0.020106,-0.027872,0.021738
1052,-0.502182,0.434987,0.747362,0.019989,-0.0308269999999999,0.021483
1053,-0.5030399999999999,0.436593,0.745846,0.018924,-0.037988,0.02013
1054,-0.503846,0.438234,0.744337,0.018555,-0.040407,0.022966
1055,-0.504516,0.43991,0.742893,0.015288,-0.042617,0.026944
1056,-0.505153,0.441575,0.74147,0.008693,-0.0460519999999999,0.0360269999999999
1057,-0.505771,0.44318,0.740089,0.002017,-0.047306,0.0357899999999999
1058,-0.50643,0.444795,0.738668,0.004644,-0.048082,0.035334
1059,-0.50744,0.446521,0.736931,0.0049369999999999,-0.04668,0.035698
1060,-0.5086149999999999,0.447555,0.7354930000000001,0.007486,-0.035965,0.024516
1061,-0.509737,0.44756,0.7347130000000001,0.0270709999999999,-0.024388,0.018537
1062,-0.510633,0.447214,0.7343,0.039579,-0.02656,0.01628
1063,-0.5112479999999999,0.447125,0.733926,0.045916,-0.029293,0.013312
1064,-0.511739,0.447264,0.733499,0.032201,-0.028716,0.013419
1065,-0.511999,0.447071,0.733436,0.020391,-0.026249,0.011315
1066,-0.511749,0.446106,0.7341979999999999,0.017333,-0.023437,0.011728
1067,-0.510962,0.444536,0.735696,0.014273,-0.025911,0.016211
1068,-0.509907,0.442939,0.73739,0.01511,-0.035926,0.023749
1069,-0.5089060000000001,0.441662,0.738845,0.011653,-0.042157,0.037523
1070,-0.508192,0.44091,0.739785,0.0152719999999999,-0.04583,0.046699
1071,-0.507674,0.44073,0.7402489999999999,0.016982,-0.049037,0.047685
1072,-0.5071979999999999,0.440845,0.740507,0.016811,-0.050845,0.044619
1073,-0.506781,0.441007,0.740695,0.011283,-0.049802,0.039166
1074,-0.506629,0.441135,0.740722,0.013007,-0.050968,0.028519
1075,-0.506632,0.441165,0.740703,0.016047,-0.048083,0.021336
1076,-0.5065430000000001,0.441036,0.740841,0.02055,-0.040005,0.019352
1077,-0.5061720000000001,0.44061,0.741348,0.0215379999999999,-0.032102,0.01918
1078,-0.5055029999999999,0.4396319999999999,0.742386,0.023294,-0.0287279999999999,0.020371
1079,-0.5045649999999999,0.437909,0.744039,0.022708,-0.019177,0.018199
1080,-0.503368,0.435454,0.746287,0.017147,-0.019134,0.016729
1081,-0.50171,0.432633,0.749039,0.011155,-0.01558,0.018555
1082,-0.49932,0.430002,0.7521439999999999,-0.002984,-0.031076,0.018913
1083,-0.496174,0.4275279999999999,0.755627,-0.0043289999999999,-0.044502,0.024814
1084,-0.493403,0.4254229999999999,0.758624,-0.0016989999999999,-0.039727,0.018628
1085,-0.491569,0.4237899999999999,0.760725,0.012092,-0.040672,0.044939
1086,-0.4906859999999999,0.422401,0.762066,0.011209,-0.039283,0.043598
1087,-0.490079,0.421101,0.763175,-0.002642,-0.037785,0.040734
1088,-0.49,0.420417,0.7636029999999999,-0.010091,-0.054893,0.025002
1089,-0.4905819999999999,0.420781,0.763029,-0.002826,-0.056249,0.025225
1090,-0.491481,0.421338,0.762143,0.004146,-0.033139,0.033053
1091,-0.492648,0.4215319999999999,0.761283,0.0079519999999999,-0.021828,0.033288
1092,-0.493689,0.421355,0.760706,0.022375,-0.028823,0.028921
1093,-0.4941149999999999,0.420927,0.760667,0.037648,-0.027937,0.027541
1094,-0.494039,0.420093,0.761177,0.043035,-0.030673,0.023811
1095,-0.49391,0.418699,0.762029,0.04408,-0.04019,0.0271399999999999
1096,-0.493789,0.416993,0.763042,0.031844,-0.040727,0.029088
1097,-0.4934949999999999,0.415653,0.763962,0.013606,-0.038715,0.022354
1098,-0.492988,0.4150859999999999,0.764596,0.010688,-0.0378579999999999,0.021933
1099,-0.4923359999999999,0.414968,0.765081,0.010525,-0.040456,0.021373
1100,-0.491804,0.414866,0.765479,0.011152,-0.0409029999999999,0.0279939999999999
1101,-0.491515,0.414538,0.765842,0.0130599999999999,-0.044039,0.034069
1102,-0.491353,0.414026,0.7662220000000001,0.019384,-0.043467,0.039533
1103,-0.491266,0.413473,0.7665770000000001,0.022348,-0.040792,0.039026
1104,-0.491134,0.4128409999999999,0.7670020000000001,0.0208889999999999,-0.040511,0.034466
1105,-0.490955,0.4122189999999999,0.767451,0.010425,-0.044299,0.026098
1106,-0.490896,0.412142,0.767529,0.007009,-0.043032,0.024905
1107,-0.491095,0.412646,0.7671319999999999,0.008323,-0.039431,0.0246319999999999
1108,-0.491513,0.413539,0.7663840000000001,0.002621,-0.037196,0.021855
1109,-0.492121,0.414444,0.765505,0.005899,-0.035324,0.0259529999999999
1110,-0.492709,0.4149859999999999,0.764832,0.012195,-0.032555,0.029312
1111,-0.493063,0.4153229999999999,0.764422,0.017324,-0.026483,0.031996
1112,-0.493363,0.415549,0.764105,0.017029,-0.029456,0.027261
1113,-0.493675,0.415631,0.763858,0.015404,-0.033673,0.024273
1114,-0.49393,0.4154989999999999,0.7637649999999999,0.012592,-0.039156,0.0230539999999999
1115,-0.493985,0.415196,0.763895,0.0141409999999999,-0.037953,0.022726
1116,-0.493937,0.414822,0.764129,0.011851,-0.034283,0.019975
1117,-0.4938109999999999,0.414464,0.764405,0.007284,-0.032628,0.012084
1118,-0.493541,0.414217,0.764713,0.007808,-0.036226,0.008496
1119,-0.493159,0.414145,0.764999,0.0186099999999999,-0.041617,0.016007
1120,-0.492714,0.414083,0.765319,0.0242539999999999,-0.0422569999999999,0.026521
1121,-0.492129,0.413729,0.765886,0.025927,-0.044253,0.033628
1122,-0.491333,0.412995,0.766794,0.023453,-0.049835,0.037299
1123,-0.490331,0.4120609999999999,0.767937,0.018728,-0.049176,0.035545
1124,-0.4892829999999999,0.411101,0.76912,0.012888,-0.04962,0.0276639999999999
1125,-0.488353,0.4102449999999999,0.7701680000000001,0.009684,-0.038769,0.023213
1126,-0.487588,0.4096149999999999,0.770987,0.004343,-0.028221,0.024256
1127,-0.487069,0.409125,0.771575,0.009072,-0.0287839999999999,0.026307
1128,-0.486716,0.40881,0.771965,0.014716,-0.031567,0.0306019999999999
1129,-0.486519,0.408763,0.772113,0.017266,-0.032206,0.031049
1130,-0.4865359999999999,0.408816,0.7720739999999999,0.021616,-0.031374,0.028707
1131,-0.486656,0.40874,0.772039,0.022545,-0.0293149999999999,0.021616
1132,-0.4868149999999999,0.40854,0.772045,0.022521,-0.030122,0.019322
1133,-0.486911,0.4081329999999999,0.772199,0.025775,-0.031043,0.022158
1134,-0.486764,0.407458,0.77265,0.024773,-0.031817,0.032053
1135,-0.486451,0.4068,0.773193,0.021608,-0.032013,0.033127
1136,-0.4863149999999999,0.406403,0.773487,0.018252,-0.031845,0.0359149999999999
1137,-0.486592,0.406371,0.773329,0.018712,-0.034255,0.036058
1138,-0.487212,0.40656,0.77284,0.018401,-0.037481,0.0359209999999999
1139,-0.488046,0.406842,0.772166,0.013406,-0.042111,0.032735
1140,-0.489098,0.407201,0.771311,0.015648,-0.044485,0.032156
1141,-0.490089,0.407678,0.7704300000000001,0.007712,-0.048029,0.028017
1142,-0.491072,0.408332,0.769457,0.004866,-0.040366,0.019163
1143,-0.492183,0.409309,0.768227,0.008022,-0.0401829999999999,0.020973
1144,-0.493392,0.410558,0.766783,0.007949,-0.038915,0.024156
1145,-0.494461,0.41183,0.76541,-0.00206,-0.044048,0.022172
1146,-0.495035,0.413009,0.764404,-0.0007379999999999,-0.047668,0.0251319999999999
1147,-0.495383,0.413817,0.763742,0.002448,-0.039763,0.018226
1148,-0.4957319999999999,0.414472,0.7631600000000001,0.006429,-0.029417,0.015527
1149,-0.496059,0.414909,0.7627109999999999,0.009777,-0.024742,0.016464
1150,-0.496141,0.415048,0.7625810000000001,0.005007,-0.027093,0.005989
1151,-0.496096,0.41515,0.762555,0.009127,-0.037266,0.008578
1152,-0.4960489999999999,0.41527,0.762521,0.0142979999999999,-0.043947,0.024436
1153,-0.495541,0.4146579999999999,0.763184,0.0228699999999999,-0.032471,0.035568
1154,-0.494422,0.412912,0.764854,0.024909,-0.0289399999999999,0.032357
1155,-0.4927979999999999,0.410788,0.767042,0.023804,-0.041861,0.029329
1156,-0.490737,0.409127,0.7692479999999999,0.0193169999999999,-0.048943,0.028741
1157,-0.4887229999999999,0.407919,0.771169,0.021713,-0.044683,0.031535
1158,-0.48752,0.407073,0.7723770000000001,0.023989,-0.039244,0.033013
1159,-0.487364,0.406706,0.7726689999999999,0.029554,-0.047026,0.036124
1160,-0.487647,0.406752,0.772465,0.030494,-0.049223,0.036663
1161,-0.487716,0.407041,0.772269,0.033004,-0.045529,0.041162
1162,-0.487618,0.407252,0.77222,0.026833,-0.03779,0.040219
1163,-0.48757,0.407129,0.772315,0.021002,-0.0338529999999999,0.032861
1164,-0.4877069999999999,0.406758,0.772424,0.018621,-0.0295,0.0271509999999999
1165,-0.488089,0.40636,0.772393,0.013861,-0.0267519999999999,0.02021
1166,-0.488667,0.406152,0.772137,0.01215,-0.027841,0.01749
1167,-0.489246,0.40605,0.771825,0.011355,-0.030974,0.0151169999999999
1168,-0.4895279999999999,0.405914,0.771717,0.005336,-0.030807,0.012081
1169,-0.489589,0.405864,0.771705,0.004344,-0.03358,0.019372
1170,-0.48961,0.405958,0.771642,0.007326,-0.038603,0.022853
1171,-0.4897229999999999,0.406058,0.771518,0.00843,-0.043524,0.028149
1172,-0.4898979999999999,0.405969,0.771454,0.009673,-0.045968,0.028122
1173,-0.489922,0.405605,0.77163,0.006234,-0.044689,0.0308449999999999
1174,-0.489646,0.405134,0.7720520000000001,0.005286,-0.048322,0.028637
1175,-0.489205,0.404712,0.772554,0.008934,-0.047168,0.028288
1176,-0.4888479999999999,0.404483,0.7729,0.012514,-0.047274,0.030811
1177,-0.488795,0.404467,0.772941,0.016596,-0.043124,0.030342
1178,-0.489048,0.404676,0.772672,0.0201,-0.038023,0.03403
1179,-0.489596,0.4051079999999999,0.772098,0.0135979999999999,-0.02756,0.032971
1180,-0.490303,0.405478,0.771456,0.011315,-0.018835,0.0383279999999999
1181,-0.490642,0.4052929999999999,0.7713369999999999,0.029017,-0.0712629999999999,0.012705
1182,-0.489276,0.406227,0.771713,0.01807,-0.076271,0.000748
1183,-0.48804,0.408276,0.771414,0.01958,-0.020856,0.027323
1184,-0.4881939999999999,0.408995,0.770936,0.0212289999999999,-0.005874,0.048538
1185,-0.488428,0.4073469999999999,0.77166,0.022974,-0.010237,0.039452
1186,-0.488405,0.405468,0.772663,0.01639,-0.047725,-0.000644
1187,-0.488014,0.404866,0.773226,0.013862,-0.052739,0.004652
1188,-0.48732,0.404811,0.773692,0.018646,-0.032985,0.019444
1189,-0.48656,0.404411,0.7743800000000001,0.014911,-0.029044,0.0327029999999999
1190,-0.48555,0.4031659999999999,0.775662,0.018067,-0.029615,0.043125
1191,-0.4842,0.400895,0.77768,0.031853,-0.03711,0.040191
1192,-0.482606,0.398258,0.780021,0.033937,-0.0461009999999999,0.0354089999999999
1193,-0.4813439999999999,0.3962449999999999,0.781824,0.022009,-0.051916,0.032461
1194,-0.480704,0.39507,0.782813,0.009848,-0.050053,0.029138
1195,-0.4802,0.394401,0.783459,0.006552,-0.044944,0.0259889999999999
1196,-0.479368,0.394026,0.784158,0.009611,-0.045775,0.02848
1197,-0.478315,0.3936199999999999,0.785004,0.016096,-0.044362,0.0298149999999999
1198,-0.477505,0.3927489999999999,0.785933,0.021084,-0.035099,0.027574
1199,-0.477159,0.391316,0.786859,0.023637,-0.031422,0.0184849999999999
1200,-0.476896,0.389637,0.78785,0.020674,-0.035878,0.017402
1201,-0.476275,0.388006,0.78903,0.016359,-0.036275,0.02025
1202,-0.475202,0.386444,0.790442,0.0162639999999999,-0.0334779999999999,0.021296
1203,-0.473827,0.384733,0.792099,0.014705,-0.0292949999999999,0.0199729999999999
1204,-0.472351,0.382803,0.793914,0.014328,-0.035329,0.022355
1205,-0.470756,0.380665,0.795887,0.008353,-0.037067,0.026226
1206,-0.469164,0.378513,0.797851,0.008943,-0.037861,0.024521
1207,-0.467763,0.376641,0.799557,0.012472,-0.041726,0.029117
1208,-0.466715,0.375264,0.800816,0.016306,-0.044179,0.030681
1209,-0.466059,0.37426,0.801669,0.018488,-0.043297,0.0323
1210,-0.46568,0.373444,0.802269,0.019711,-0.049973,0.032783
1211,-0.465445,0.372717,0.802744,0.020377,-0.049673,0.030005
1212,-0.465254,0.372166,0.80311,0.020567,-0.047474,0.03063
1213,-0.465099,0.371667,0.803431,0.01852,-0.044702,0.028265
1214,-0.465054,0.3711239999999999,0.803708,0.0200009999999999,-0.043579,0.028827
1215,-0.465045,0.370535,0.8039850000000001,0.019793,-0.0422569999999999,0.027222
1216,-0.465026,0.370094,0.804199,0.01866,-0.038216,0.027863
1217,-0.4650319999999999,0.369861,0.804303,0.018239,-0.034809,0.026614
1218,-0.465217,0.369823,0.804213,0.017921,-0.036891,0.024446
1219,-0.4656149999999999,0.370038,0.803883,0.016762,-0.04202,0.024944
1220,-0.466177,0.370593,0.8033020000000001,0.013433,-0.045093,0.027447
1221,-0.466855,0.371577,0.802454,0.01196,-0.046687,0.028494
1222,-0.467726,0.372902,0.80133,0.0126629999999999,-0.0444569999999999,0.030899
1223,-0.4688569999999999,0.3744619999999999,0.79994,0.014496,-0.047222,0.032518
1224,-0.470234,0.376317,0.798259,0.014301,-0.047398,0.03545
1225,-0.471854,0.378467,0.796284,0.0120299999999999,-0.045474,0.031612
1226,-0.473728,0.380913,0.7940010000000001,0.014667,-0.04345,0.028905
1227,-0.4758729999999999,0.3835719999999999,0.791435,0.013669,-0.042233,0.028694
1228,-0.478081,0.386233,0.788805,0.014702,-0.039874,0.024915
1229,-0.480196,0.388735,0.786287,0.016237,-0.040376,0.024977
1230,-0.48212,0.39115,0.7839079999999999,0.017749,-0.041175,0.026273
1231,-0.4837979999999999,0.393532,0.781679,0.018253,-0.033913,0.0233139999999999
1232,-0.485326,0.395816,0.779575,0.019902,-0.033817,0.021633
1233,-0.486712,0.397808,0.777694,0.019808,-0.035122,0.024307
1234,-0.4879439999999999,0.399596,0.776004,0.0170729999999999,-0.039794,0.026104
1235,-0.4888979999999999,0.401215,0.774567,0.0148379999999999,-0.041397,0.02922
1236,-0.489668,0.4026409999999999,0.773338,0.015333,-0.038216,0.029137
1237,-0.49058,0.404005,0.772047,0.015208,-0.0384959999999999,0.0280319999999999
1238,-0.491749,0.405636,0.770447,0.0158729999999999,-0.040676,0.02652
1239,-0.493013,0.407781,0.768504,0.01732,-0.041585,0.031179
1240,-0.494252,0.410145,0.766447,0.018223,-0.0453379999999999,0.032213
1241,-0.4952819999999999,0.412264,0.7646430000000001,0.014981,-0.045626,0.028539
1242,-0.4961569999999999,0.414056,0.763105,0.018191,-0.041925,0.029528
1243,-0.496889,0.415408,0.761893,0.018999,-0.043216,0.028649
1244,-0.497467,0.4163699999999999,0.760991,0.018433,-0.036198,0.0250659999999999
1245,-0.497955,0.4172619999999999,0.760184,0.018325,-0.03535,0.027399
1246,-0.4982899999999999,0.4180239999999999,0.759545,0.020644,-0.035029,0.024406
1247,-0.498427,0.418543,0.759169,0.018797,-0.031595,0.021471
1248,-0.498401,0.418839,0.759022,0.021945,-0.034577,0.022258
1249,-0.498176,0.418626,0.759288,0.022499,-0.035066,0.023381
1250,-0.497712,0.417886,0.759999,0.021577,-0.036432,0.0258899999999999
1251,-0.497077,0.417054,0.760871,0.0192789999999999,-0.03711,0.025338
1252,-0.496367,0.4165029999999999,0.761636,0.02043,-0.034636,0.024634
1253,-0.495595,0.416154,0.7623300000000001,0.015447,-0.035004,0.0260459999999999
1254,-0.494838,0.415802,0.763013,0.0141409999999999,-0.038589,0.025988
1255,-0.494138,0.415222,0.763783,0.014707,-0.042435,0.032299
1256,-0.493502,0.4145189999999999,0.764576,0.015856,-0.0434709999999999,0.036267
1257,-0.4929989999999999,0.4137979999999999,0.7652899999999999,0.017887,-0.045268,0.03218
1258,-0.492591,0.4131229999999999,0.765918,0.016303,-0.043662,0.031338
1259,-0.492206,0.412587,0.766455,0.016849,-0.041661,0.0291839999999999
1260,-0.491832,0.412117,0.766947,0.015452,-0.041557,0.031744
1261,-0.491522,0.4116689999999999,0.767386,0.014044,-0.043139,0.030451
1262,-0.491309,0.411222,0.767762,0.017646,-0.039151,0.032379
1263,-0.4911899999999999,0.410892,0.768015,0.020273,-0.039402,0.029898
1264,-0.491087,0.4106109999999999,0.76823,0.019835,-0.040311,0.029972
1265,-0.4909159999999999,0.410296,0.768508,0.017894,-0.0408959999999999,0.032121
1266,-0.490731,0.409909,0.768833,0.016366,-0.040631,0.030529
1267,-0.490622,0.409601,0.7690670000000001,0.015174,-0.03837,0.0302649999999999
1268,-0.4906279999999999,0.409462,0.769138,0.015698,-0.0361709999999999,0.0281189999999999
1269,-0.490651,0.409332,0.769192,0.018269,-0.038635,0.027683
1270,-0.490672,0.409094,0.769305,0.017528,-0.038901,0.0296139999999999
1271,-0.490602,0.408773,0.769521,0.015886,-0.043447,0.030971
1272,-0.4902979999999999,0.408261,0.769987,0.016238,-0.043591,0.0283839999999999
1273,-0.489777,0.407389,0.77078,0.015885,-0.0412839999999999,0.028857
1274,-0.4892689999999999,0.406303,0.771675,0.017467,-0.038612,0.028054
1275,-0.4889239999999999,0.405398,0.77237,0.01758,-0.040042,0.0275569999999999
1276,-0.488647,0.404938,0.772786,0.015411,-0.040772,0.027599
1277,-0.488343,0.404769,0.7730670000000001,0.013062,-0.043822,0.029286
1278,-0.488046,0.404606,0.7733399999999999,0.0114069999999999,-0.0426519999999999,0.02915
1279,-0.487782,0.404302,0.773666,0.01273,-0.04186,0.030106
1280,-0.487596,0.403947,0.773968,0.015566,-0.040605,0.027637
1281,-0.4875229999999999,0.403679,0.774155,0.015355,-0.040672,0.028244
1282,-0.48745,0.403493,0.7742979999999999,0.018257,-0.040395,0.027857
1283,-0.487322,0.403365,0.7744449999999999,0.017123,-0.0395649999999999,0.031585
1284,-0.487188,0.403421,0.7745,0.015188,-0.0420629999999999,0.027578
1285,-0.487141,0.403681,0.7743939999999999,0.0178569999999999,-0.044702,0.032246
1286,-0.487152,0.404053,0.7741939999999999,0.016937,-0.043015,0.032477
1287,-0.4872609999999999,0.404508,0.773887,0.017779,-0.043119,0.035179
1288,-0.487484,0.405023,0.773478,0.018856,-0.0414519999999999,0.0351
1289,-0.487793,0.405474,0.773047,0.019471,-0.0410639999999999,0.0318699999999999
1290,-0.488166,0.405846,0.772617,0.0177219999999999,-0.042656,0.03201
1291,-0.488568,0.406177,0.772187,0.0202,-0.046192,0.0295399999999999
1292,-0.488972,0.40675,0.77163,0.017613,-0.045285,0.029273
1293,-0.4893729999999999,0.407598,0.770929,0.015832,-0.041998,0.02941
1294,-0.489802,0.408512,0.770173,0.017985,-0.045201,0.032958
1295,-0.490281,0.409419,0.769386,0.026826,-0.046794,0.039467
1296,-0.4909489999999999,0.4106689999999999,0.768293,0.02168,-0.048563,0.0435199999999999
1297,-0.491818,0.412755,0.766618,0.000362,-0.051762,0.04428
1298,-0.4931649999999999,0.415871,0.764065,-0.010284,-0.055763,0.041905
1299,-0.49537,0.42013,0.7602979999999999,-0.012595,-0.046671,0.02968
1300,-0.498478,0.4252,0.755433,0.0171699999999999,-0.027663,0.021408
1301,-0.5020060000000001,0.430243,0.750224,0.026527,-0.018607,0.0208789999999999
1302,-0.505396,0.434586,0.74543,0.032907,-0.024796,0.023888
1303,-0.508211,0.438021,0.741496,0.046648,-0.030275,0.015431
1304,-0.51012,0.440767,0.738553,0.041263,-0.033937,0.015888
1305,-0.510985,0.4426199999999999,0.736843,0.028106,-0.030938,0.013218
1306,-0.510892,0.4432439999999999,0.736533,0.026792,-0.03469,0.014947
1307,-0.5099600000000001,0.442464,0.737646,0.019299,-0.040456,0.021067
1308,-0.5083880000000001,0.440581,0.739855,0.016781,-0.050231,0.031507
1309,-0.5063770000000001,0.438058,0.742727,0.013198,-0.049371,0.042872
1310,-0.5042760000000001,0.435221,0.745817,0.013843,-0.046137,0.046343
1311,-0.502516,0.432642,0.748501,0.015624,-0.053751,0.041614
1312,-0.501221,0.431376,0.7500979999999999,0.010071,-0.048594,0.040139
1313,-0.501,0.431737,0.750038,0.011147,-0.030797,0.047432
1314,-0.5019979999999999,0.4323619999999999,0.7490100000000001,0.017715,-0.033024,0.05165
1315,-0.5030680000000001,0.431977,0.748514,0.019197,-0.047059,0.035056
1316,-0.503574,0.43125,0.7485930000000001,0.010593,-0.0557159999999999,0.0183289999999999
1317,-0.503687,0.431052,0.748632,0.011622,-0.046179,0.010081
1318,-0.503558,0.430991,0.748754,0.0123159999999999,-0.035849,0.011332
1319,-0.5031760000000001,0.430278,0.749421,0.01372,-0.031978,0.018508
1320,-0.5024850000000001,0.428745,0.750762,0.016554,-0.039539,0.025148
1321,-0.501263,0.426922,0.752616,0.016018,-0.040158,0.0280079999999999
1322,-0.499874,0.425437,0.7543770000000001,0.018475,-0.045966,0.034762
1323,-0.498691,0.424455,0.7557119999999999,0.014712,-0.045839,0.036829
1324,-0.4978399999999999,0.423755,0.756666,0.009559,-0.045093,0.036074
1325,-0.4971609999999999,0.423092,0.757484,0.012481,-0.0522269999999999,0.040551
1326,-0.4964949999999999,0.422491,0.758256,0.013752,-0.053763,0.0445389999999999
1327,-0.496121,0.42213,0.7587010000000001,0.017727,-0.052532,0.04417
1328,-0.496285,0.421938,0.7587010000000001,0.025613,-0.0385,0.041806
1329,-0.496751,0.421768,0.75849,0.026979,-0.035462,0.035638
1330,-0.497071,0.421238,0.758576,0.0264899999999999,-0.034549,0.0297389999999999
1331,-0.497043,0.420228,0.759154,0.023898,-0.036836,0.020418
1332,-0.496852,0.418993,0.759962,0.024653,-0.035799,0.0207389999999999
1333,-0.496536,0.417663,0.760901,0.024613,-0.03453,0.01658
1334,-0.4959199999999999,0.416162,0.762124,0.020502,-0.035226,0.021155
1335,-0.49501,0.41452,0.763609,0.017807,-0.035949,0.026079
1336,-0.4938619999999999,0.4129359999999999,0.765209,0.01556,-0.0362269999999999,0.0289649999999999
1337,-0.492767,0.411608,0.766628,0.019516,-0.042604,0.038868
1338,-0.4921319999999999,0.410655,0.767547,0.019796,-0.043697,0.042329
1339,-0.4919439999999999,0.4101329999999999,0.767946,0.017746,-0.044136,0.047285
1340,-0.4920489999999999,0.410122,0.767885,0.015884,-0.048442,0.047087
1341,-0.49237,0.410567,0.767441,0.009353,-0.047454,0.044373
1342,-0.49305,0.4114239999999999,0.766545,0.0068439999999999,-0.042009,0.037044
1343,-0.49428,0.4125939999999999,0.765123,0.006106,-0.037868,0.024932
1344,-0.495799,0.41353,0.763632,0.009288,-0.038835,0.021158
1345,-0.497005,0.413592,0.7628149999999999,0.020305,-0.044726,0.014819
1346,-0.497724,0.41328,0.762514,0.018034,-0.0379899999999999,0.0182169999999999
1347,-0.498185,0.413354,0.762173,0.015641,-0.035989,0.018497
1348,-0.4984189999999999,0.4138199999999999,0.761768,0.019231,-0.033098,0.0268519999999999
1349,-0.498277,0.413847,0.761846,0.017945,-0.033262,0.028803
1350,-0.497928,0.41288,0.762598,0.012332,-0.043267,0.032614
1351,-0.49751,0.411535,0.763598,0.011411,-0.042318,0.029523
1352,-0.497038,0.410595,0.764411,0.008925,-0.050579,0.029427
1353,-0.496631,0.4102119999999999,0.764882,0.010135,-0.053171,0.0323139999999999
1354,-0.496397,0.4101359999999999,0.765074,0.015669,-0.0546059999999999,0.032213
1355,-0.496322,0.410308,0.765031,0.021331,-0.053665,0.035384
1356,-0.496347,0.410497,0.7649130000000001,0.020105,-0.048132,0.031275
1357,-0.49641,0.410542,0.764848,0.0238449999999999,-0.042851,0.026213
1358,-0.496354,0.410334,0.764997,0.024384,-0.038707,0.021151
1359,-0.496,0.409708,0.765562,0.032056,-0.034052,0.021227
1360,-0.495147,0.408314,0.766858,0.0303339999999999,-0.033787,0.024036
1361,-0.493728,0.40617,0.768908,0.028991,-0.034695,0.030317
1362,-0.491879,0.403734,0.7713720000000001,0.025356,-0.033754,0.031972
1363,-0.4899189999999999,0.401633,0.773712,0.021108,-0.038245,0.034683
1364,-0.4882609999999999,0.400129,0.775537,0.014613,-0.036909,0.037649
1365,-0.4871979999999999,0.399259,0.7766529999999999,0.012665,-0.040586,0.039998
1366,-0.486725,0.398863,0.777153,0.00821,-0.043028,0.036995
1367,-0.48678,0.398963,0.777068,0.005319,-0.0503,0.038805
1368,-0.4873729999999999,0.399603,0.776367,0.006691,-0.057287,0.038346
1369,-0.48843,0.400552,0.775213,0.015102,-0.0558409999999999,0.0362959999999999
1370,-0.4897439999999999,0.401519,0.773881,0.019041,-0.051773,0.03659
1371,-0.491162,0.402366,0.772541,0.020352,-0.051414,0.035823
1372,-0.492536,0.403022,0.7713220000000001,0.021009,-0.042838,0.024439
1373,-0.493631,0.4035809999999999,0.7703300000000001,0.020426,-0.036638,0.0221199999999999
1374,-0.494381,0.404033,0.769612,0.019497,-0.035183,0.022868
1375,-0.494929,0.404334,0.7691020000000001,0.018305,-0.034858,0.022936
1376,-0.49526,0.404452,0.768827,0.0183009999999999,-0.03232,0.024828
1377,-0.4954729999999999,0.404509,0.768659,0.01943,-0.031874,0.026201
1378,-0.4956069999999999,0.404594,0.768529,0.020342,-0.0340339999999999,0.025874
1379,-0.4956609999999999,0.4046929999999999,0.768442,0.021143,-0.040786,0.026617
1380,-0.495652,0.4047929999999999,0.7683939999999999,0.019441,-0.042992,0.025841
1381,-0.495512,0.404785,0.768489,0.0204139999999999,-0.0437769999999999,0.028386
1382,-0.495205,0.404623,0.768771,0.0157889999999999,-0.0535179999999999,0.029736
1383,-0.4948369999999999,0.404453,0.769098,0.014368,-0.052936,0.028556
1384,-0.494439,0.404246,0.769462,0.01394,-0.050135,0.032143
1385,-0.493921,0.403821,0.770018,0.014428,-0.049054,0.029771
1386,-0.493237,0.403163,0.7708010000000001,0.0145379999999999,-0.047602,0.028332
1387,-0.492433,0.402291,0.77177,0.016007,-0.045464,0.027516
1388,-0.491464,0.40109,0.773011,0.018259,-0.041242,0.026687
1389,-0.4903439999999999,0.399792,0.774393,0.0174129999999999,-0.038296,0.027685
1390,-0.489055,0.398371,0.775938,0.01739,-0.036051,0.025499
1391,-0.487609,0.396568,0.77777,0.019103,-0.03582,0.027787
1392,-0.486063,0.394432,0.779821,0.019754,-0.034523,0.024592
1393,-0.4845279999999999,0.392317,0.78184,0.018479,-0.0373519999999999,0.026662
1394,-0.483106,0.3906719999999999,0.783542,0.019346,-0.0399329999999999,0.030026
1395,-0.481864,0.389522,0.784877,0.019431,-0.042309,0.0320019999999999
1396,-0.480885,0.3886469999999999,0.7859109999999999,0.019246,-0.045797,0.035317
1397,-0.48016,0.387922,0.786712,0.022412,-0.0481399999999999,0.038102
1398,-0.4796439999999999,0.387244,0.787361,0.022323,-0.047843,0.036873
1399,-0.47923,0.386571,0.7879430000000001,0.0216349999999999,-0.048497,0.035116
1400,-0.47889,0.38591,0.788474,0.021553,-0.049836,0.031381
1401,-0.4786069999999999,0.385274,0.788956,0.0200039999999999,-0.0477649999999999,0.030517
1402,-0.478397,0.384746,0.789341,0.021305,-0.0455589999999999,0.030712
1403,-0.478311,0.384421,0.789552,0.021951,-0.0435399999999999,0.028945
1404,-0.478253,0.384186,0.789702,0.021725,-0.0435329999999999,0.03026
1405,-0.4781479999999999,0.383924,0.7898930000000001,0.019392,-0.044202,0.028955
1406,-0.478064,0.383707,0.790049,0.019339,-0.045054,0.0313769999999999
1407,-0.478101,0.383664,0.790049,0.018354,-0.047146,0.035253
1408,-0.478228,0.383936,0.78984,0.01462,-0.047739,0.032685
1409,-0.478581,0.384611,0.7892979999999999,0.012165,-0.047666,0.0329529999999999
1410,-0.479225,0.385711,0.78837,0.010261,-0.044906,0.0376639999999999
1411,-0.480162,0.387102,0.787117,0.010298,-0.048052,0.034691
1412,-0.481368,0.388653,0.785614,0.010268,-0.048489,0.032425
1413,-0.4828479999999999,0.390248,0.783913,0.0127099999999999,-0.043858,0.030037
1414,-0.484537,0.391715,0.782137,0.0172979999999999,-0.0384889999999999,0.028013
1415,-0.486284,0.392953,0.7804300000000001,0.021745,-0.040506,0.025204
1416,-0.487902,0.39409,0.778844,0.022036,-0.0377819999999999,0.022654
1417,-0.489139,0.395023,0.777595,0.021319,-0.041279,0.019448
1418,-0.4897729999999999,0.395594,0.776906,0.02084,-0.041559,0.015925
1419,-0.489966,0.395954,0.7766,0.0184849999999999,-0.040378,0.017391
1420,-0.490039,0.396289,0.776384,0.019412,-0.034289,0.02281
1421,-0.4900819999999999,0.396576,0.776209,0.0215759999999999,-0.037125,0.0257319999999999
1422,-0.489926,0.3966739999999999,0.776258,0.020551,-0.04177,0.028033
1423,-0.489546,0.396491,0.776591,0.019331,-0.045326,0.030447
1424,-0.489025,0.396094,0.777122,0.020046,-0.048956,0.030266
1425,-0.488519,0.395538,0.7777229999999999,0.019906,-0.051147,0.028872
1426,-0.488018,0.394854,0.778385,0.021327,-0.051028,0.028133
1427,-0.487436,0.394108,0.7791279999999999,0.020883,-0.053013,0.0274519999999999
1428,-0.486664,0.393296,0.7800199999999999,0.021362,-0.052323,0.0278709999999999
1429,-0.4856939999999999,0.392295,0.781129,0.021399,-0.049552,0.027953
1430,-0.4846149999999999,0.3911199999999999,0.7823869999999999,0.023586,-0.045997,0.032707
1431,-0.483479,0.389961,0.783666,0.022649,-0.044563,0.033106
1432,-0.482314,0.388791,0.784964,0.02124,-0.041699,0.031016
1433,-0.481213,0.387605,0.786225,0.024899,-0.0404529999999999,0.030517
1434,-0.480309,0.386429,0.7873560000000001,0.02575,-0.039841,0.030713
1435,-0.479554,0.385217,0.78841,0.022096,-0.038766,0.030621
1436,-0.478835,0.383994,0.789443,0.019088,-0.04032,0.0299079999999999
1437,-0.4780979999999999,0.38274,0.790499,0.020853,-0.038212,0.028288
1438,-0.477357,0.381267,0.791658,0.021745,-0.037685,0.027663
1439,-0.476654,0.379743,0.792812,0.019852,-0.043485,0.026249
1440,-0.476041,0.378638,0.793709,0.017484,-0.048712,0.031013
1441,-0.475473,0.378033,0.794337,0.016153,-0.048916,0.028386
1442,-0.4750149999999999,0.377686,0.794776,0.012262,-0.0527809999999999,0.034799
1443,-0.4746689999999999,0.377422,0.795108,0.0106489999999999,-0.055049,0.03703
1444,-0.474485,0.377453,0.795203,0.0122659999999999,-0.057034,0.034906
1445,-0.474659,0.3779389999999999,0.794868,0.011448,-0.049707,0.0354089999999999
1446,-0.475238,0.378847,0.79409,0.014147,-0.047014,0.035057
1447,-0.476106,0.379832,0.793099,0.014772,-0.047969,0.033775
1448,-0.476992,0.380893,0.792057,0.017291,-0.048816,0.034038
1449,-0.47785,0.382548,0.790741,0.018347,-0.054027,0.029847
1450,-0.4786069999999999,0.385535,0.78883,0.009902,-0.069815,0.033893
1451,-0.4798739999999999,0.39074,0.785492,-0.005264,-0.062706,0.037826
1452,-0.482635,0.398444,0.77991,-0.012116,-0.050269,0.035566
1453,-0.4865319999999999,0.407672,0.772686,-0.01359,-0.017474,0.044849
1454,-0.491405,0.416502,0.764854,0.024486,-0.029036,0.043267
1455,-0.496081,0.423257,0.758097,0.04729,-0.029733,0.023962
1456,-0.499577,0.4281569999999999,0.753034,0.040638,-0.0276589999999999,0.0134449999999999
1457,-0.501999,0.431918,0.749266,0.028656,-0.025271,0.007325
1458,-0.50366,0.435141,0.74628,0.0319949999999999,-0.024115,0.005398
1459,-0.5047189999999999,0.437752,0.744034,0.032094,-0.032128,0.016983
1460,-0.505132,0.439312,0.742834,0.033223,-0.037075,0.0298709999999999
1461,-0.505067,0.4395729999999999,0.7427229999999999,0.0310529999999999,-0.039365,0.033507
1462,-0.504688,0.438579,0.743568,0.031894,-0.042201,0.030663
1463,-0.503983,0.4368859999999999,0.745041,0.022537,-0.0475579999999999,0.032471
1464,-0.503062,0.435115,0.746697,0.01623,-0.051936,0.040351
1465,-0.502262,0.4337979999999999,0.748,0.0076019999999999,-0.0590269999999999,0.047593
1466,-0.50188,0.433138,0.748639,-2.7e-05,-0.058672,0.0533019999999999
1467,-0.50213,0.433122,0.74848,-3.7e-05,-0.0544299999999999,0.04899
1468,-0.503131,0.433725,0.747458,0.008136,-0.050927,0.046731
1469,-0.5046579999999999,0.435068,0.745646,0.015842,-0.044107,0.032812
1470,-0.506202,0.436927,0.743508,0.011695,-0.039679,0.028754
1471,-0.50759,0.439112,0.741271,0.010306,-0.0413,0.028962
1472,-0.508948,0.441505,0.7389140000000001,0.01853,-0.032951,0.0175099999999999
1473,-0.510067,0.443918,0.736693,0.01965,-0.035364,0.019731
1474,-0.510554,0.445577,0.7353529999999999,0.021434,-0.04128,0.014571
1475,-0.5104350000000001,0.446271,0.735015,0.026594,-0.0381899999999999,0.0131539999999999
1476,-0.5098590000000001,0.445947,0.735611,0.026018,-0.037866,0.012558
1477,-0.50884,0.444618,0.73712,0.028981,-0.032554,0.0225539999999999
1478,-0.50715,0.4431529999999999,0.739162,0.012781,-0.055687,0.04221
1479,-0.504821,0.441985,0.741453,0.001449,-0.062331,0.051501
1480,-0.5028239999999999,0.441086,0.7433420000000001,-0.005553,-0.064026,0.057409
1481,-0.50217,0.439904,0.744482,0.013645,-0.04049,0.044641
1482,-0.502438,0.4385729999999999,0.7450859999999999,0.0198479999999999,-0.039769,0.037125
1483,-0.502913,0.437983,0.745113,0.024794,-0.04452,0.031163
1484,-0.503255,0.438337,0.744674,0.02422,-0.048261,0.02768
1485,-0.503592,0.439047,0.744027,0.0244659999999999,-0.048407,0.024848
1486,-0.503953,0.439476,0.74353,0.030137,-0.049354,0.021713
1487,-0.5040060000000001,0.439083,0.743726,0.03402,-0.040524,0.014346
1488,-0.5032270000000001,0.437359,0.745267,0.037193,-0.032391,0.0128199999999999
1489,-0.501289,0.4344659999999999,0.748258,0.037346,-0.041095,0.027224
1490,-0.4985,0.431371,0.751903,0.032375,-0.052693,0.040486
1491,-0.495405,0.428656,0.7554930000000001,0.021024,-0.052786,0.050217
1492,-0.492696,0.42631,0.758586,0.002537,-0.038554,0.053991
1493,-0.491096,0.424149,0.760831,-0.008065,-0.03032,0.054599
1494,-0.490629,0.422251,0.7621859999999999,-0.000536,-0.0362959999999999,0.045203
1495,-0.490845,0.420944,0.76277,0.014237,-0.049636,0.031282
1496,-0.491425,0.420517,0.762632,0.017304,-0.0575559999999999,0.030962
1497,-0.492293,0.421052,0.761777,0.010085,-0.051819,0.028568
1498,-0.493489,0.4223659999999999,0.760273,0.008565,-0.044314,0.020031
1499,-0.494829,0.423776,0.758616,0.014681,-0.0418329999999999,0.01885
1500,-0.4958439999999999,0.4246479999999999,0.757464,0.02302,-0.045238,0.0222449999999999
1501,-0.496064,0.424703,0.757288,0.0251319999999999,-0.040609,0.021001
1502,-0.495364,0.423809,0.758246,0.022556,-0.034969,0.02337
1503,-0.4940229999999999,0.422226,0.7600020000000001,0.017476,-0.035675,0.033623
1504,-0.492266,0.42053,0.76208,0.006533,-0.040784,0.044759
1505,-0.490674,0.4192619999999999,0.7638020000000001,-0.005358,-0.04118,0.056007
1506,-0.490314,0.418824,0.764274,-0.004483,-0.047685,0.056267
1507,-0.491462,0.4190529999999999,0.763411,0.006965,-0.0527659999999999,0.040773
1508,-0.493134,0.419276,0.762209,0.016861,-0.060801,0.025785
1509,-0.4946569999999999,0.419332,0.761189,0.024977,-0.061239,0.0261339999999999
1510,-0.495876,0.419431,0.760342,0.033993,-0.050641,0.022068
1511,-0.4966899999999999,0.4197,0.759662,0.035158,-0.039131,0.0165979999999999
1512,-0.4969439999999999,0.4199699999999999,0.759347,0.0325279999999999,-0.033617,0.016761
1513,-0.49653,0.419993,0.759605,0.030832,-0.030757,0.015832
1514,-0.495504,0.419472,0.760563,0.026968,-0.031563,0.017971
1515,-0.494079,0.418285,0.762141,0.02124,-0.037868,0.021993
1516,-0.492576,0.41677,0.763941,0.019829,-0.042365,0.024724
1517,-0.491303,0.415522,0.765439,0.0148169999999999,-0.047389,0.0423
1518,-0.490443,0.414868,0.766346,0.013956,-0.046734,0.041394
1519,-0.490008,0.414813,0.766653,0.0134759999999999,-0.040912,0.048426
1520,-0.490185,0.415383,0.766231,0.012234,-0.048943,0.053044
1521,-0.490963,0.416687,0.7650239999999999,0.012005,-0.051224,0.053229
1522,-0.49212,0.418436,0.763323,0.006692,-0.056635,0.044065
1523,-0.4936069999999999,0.420404,0.7612800000000001,0.006745,-0.051446,0.039608
1524,-0.4952539999999999,0.4223369999999999,0.759137,0.010116,-0.047352,0.0282779999999999
1525,-0.496882,0.424225,0.757017,0.01655,-0.048264,0.02756
1526,-0.498351,0.426122,0.754983,0.022307,-0.047354,0.028816
1527,-0.499512,0.427799,0.753265,0.025924,-0.0443,0.0298459999999999
1528,-0.5003380000000001,0.429188,0.7519239999999999,0.025164,-0.040501,0.0307449999999999
1529,-0.500901,0.430318,0.750903,0.020555,-0.035894,0.0260889999999999
1530,-0.5013350000000001,0.431259,0.750074,0.018959,-0.034378,0.023745
1531,-0.501847,0.432189,0.749196,0.012559,-0.0320579999999999,0.028575
1532,-0.502475,0.433239,0.748168,0.016589,-0.039334,0.030182
1533,-0.50308,0.434395,0.747091,0.01843,-0.03872,0.0360819999999999
1534,-0.5036649999999999,0.435546,0.746027,0.020099,-0.038024,0.034506
1535,-0.50417,0.4365979999999999,0.74507,0.021641,-0.042433,0.038972
1536,-0.504586,0.43749,0.744265,0.01841,-0.043539,0.036481
1537,-0.504996,0.4383439999999999,0.7434850000000001,0.012106,-0.039891,0.032822
1538,-0.505551,0.439327,0.742526,0.010434,-0.038494,0.032056
1539,-0.506267,0.440291,0.741467,0.012173,-0.0407089999999999,0.032962
1540,-0.5070020000000001,0.4411279999999999,0.740468,0.015959,-0.0422779999999999,0.031795
1541,-0.507625,0.441816,0.73963,0.017757,-0.044508,0.03193
1542,-0.508069,0.442389,0.738983,0.0215889999999999,-0.046011,0.0345759999999999
1543,-0.508369,0.4427779999999999,0.738544,0.021187,-0.044722,0.033047
1544,-0.50853,0.442892,0.7383649999999999,0.023408,-0.042425,0.0301899999999999
1545,-0.508505,0.44268,0.738509,0.022421,-0.041267,0.030885
1546,-0.508163,0.442088,0.739099,0.0209199999999999,-0.038508,0.031958
1547,-0.507447,0.441267,0.740081,0.0155039999999999,-0.04019,0.031022
1548,-0.506528,0.440458,0.741193,0.015287,-0.039823,0.030795
1549,-0.505601,0.439717,0.742265,0.018525,-0.047917,0.035674
1550,-0.50472,0.43898,0.743301,0.01328,-0.052658,0.040924
1551,-0.503862,0.438245,0.744316,0.013506,-0.051099,0.042046
1552,-0.503161,0.437601,0.745169,0.016421,-0.052423,0.03866
1553,-0.502736,0.437303,0.74563,0.020375,-0.043352,0.035269
1554,-0.502708,0.437155,0.745736,0.0223,-0.035086,0.033378
1555,-0.502896,0.4368979999999999,0.7457600000000001,0.023877,-0.033975,0.035612
1556,-0.503021,0.436759,0.7457560000000001,0.024689,-0.040351,0.033632
1557,-0.502935,0.43699,0.74568,0.02181,-0.049081,0.034166
1558,-0.5026510000000001,0.437431,0.7456119999999999,0.01469,-0.050133,0.031076
1559,-0.502321,0.4375239999999999,0.74578,0.0070819999999999,-0.036462,0.0266649999999999
1560,-0.502042,0.436926,0.746318,0.0091069999999999,-0.032568,0.02274
1561,-0.501613,0.435959,0.7471720000000001,0.008419,-0.033569,0.019139
1562,-0.500913,0.434949,0.7482300000000001,0.0105569999999999,-0.044262,0.022506
1563,-0.5000640000000001,0.434062,0.749313,0.009708,-0.043376,0.021424
1564,-0.499237,0.433159,0.750386,0.009048,-0.039498,0.026011
1565,-0.498525,0.43212,0.751458,0.012395,-0.043235,0.03173
1566,-0.497729,0.430884,0.752695,0.013461,-0.044531,0.035223
1567,-0.496828,0.429587,0.75403,0.016909,-0.0465,0.03514
1568,-0.496044,0.4284,0.755221,0.020107,-0.0487149999999999,0.039548
1569,-0.495497,0.427569,0.756051,0.01895,-0.0484949999999999,0.0363529999999999
1570,-0.49512,0.427112,0.756558,0.013293,-0.046374,0.034946
1571,-0.4948079999999999,0.426959,0.756848,0.015087,-0.048282,0.035038
1572,-0.494472,0.426806,0.757153,0.019069,-0.051043,0.037509
1573,-0.49423,0.426593,0.7574310000000001,0.020505,-0.048938,0.037735
1574,-0.4942069999999999,0.42645,0.757525,0.026784,-0.042234,0.035611
1575,-0.49438,0.426519,0.757373,0.027232,-0.044225,0.037442
1576,-0.49465,0.42672,0.757083,0.030142,-0.0413899999999999,0.039716
1577,-0.494908,0.426963,0.756778,0.031666,-0.0447,0.040311
1578,-0.4950449999999999,0.427167,0.7565729999999999,0.0269209999999999,-0.044355,0.036319
1579,-0.495038,0.427303,0.756501,0.023297,-0.04214,0.034194
1580,-0.494979,0.427342,0.7565189999999999,0.018264,-0.041157,0.033124
1581,-0.494927,0.4272479999999999,0.756605,0.014718,-0.040575,0.0301529999999999
1582,-0.494997,0.427101,0.756642,0.016436,-0.041466,0.031291
1583,-0.4952189999999999,0.4269729999999999,0.75657,0.01739,-0.039827,0.026755
1584,-0.495476,0.4268079999999999,0.756495,0.016731,-0.044087,0.033712
1585,-0.495783,0.426737,0.756333,0.016474,-0.044291,0.033828
1586,-0.496079,0.4267939999999999,0.756107,0.01355,-0.046255,0.0288959999999999
1587,-0.496376,0.426918,0.755843,0.011558,-0.0429,0.030473
1588,-0.496625,0.4269529999999999,0.755659,0.010343,-0.044064,0.027651
1589,-0.49668,0.426575,0.755836,0.011176,-0.042985,0.0257649999999999
1590,-0.496459,0.425743,0.75645,0.0158069999999999,-0.046669,0.023031
1591,-0.4959159999999999,0.424583,0.757458,0.015142,-0.045967,0.026249
1592,-0.49505,0.423378,0.758699,0.017984,-0.0478279999999999,0.03044
1593,-0.493904,0.422151,0.760127,0.015541,-0.046388,0.03391
1594,-0.49259,0.4205779999999999,0.761849,0.016928,-0.046723,0.038383
1595,-0.491368,0.418805,0.763613,0.017231,-0.052792,0.038816
1596,-0.490406,0.417483,0.764954,0.012714,-0.0529049999999999,0.039474
1597,-0.489825,0.417025,0.765575,0.009158,-0.041857,0.037174
1598,-0.489937,0.417469,0.765262,0.012443,-0.03661,0.0402649999999999
1599,-0.490854,0.418409,0.764161,0.019022,-0.0355199999999999,0.041503
1600,-0.4921439999999999,0.419271,0.762857,0.023226,-0.041585,0.037329
1601,-0.493317,0.419778,0.761821,0.027985,-0.043115,0.034123
1602,-0.4943109999999999,0.420077,0.761012,0.032122,-0.041476,0.0286459999999999
1603,-0.495225,0.420471,0.760201,0.034013,-0.042022,0.025993
1604,-0.496018,0.421095,0.759336,0.0315709999999999,-0.040099,0.031664
1605,-0.496897,0.421829,0.758355,0.03158,-0.034439,0.036307
1606,-0.497697,0.4223909999999999,0.757517,0.0296029999999999,-0.03204,0.034429
1607,-0.498267,0.422793,0.756918,0.021735,-0.044437,0.025629
1608,-0.498432,0.4231,0.7566390000000001,0.0219,-0.052128,0.027953
1609,-0.498366,0.423278,0.756583,0.021574,-0.0547169999999999,0.0319
1610,-0.4983619999999999,0.423405,0.7565149999999999,0.005396,-0.047505,0.039353
1611,-0.498695,0.423625,0.7561720000000001,0.005729,-0.047725,0.0396959999999999
1612,-0.499063,0.424359,0.755518,-0.001242,-0.0599179999999999,0.028311
1613,-0.499557,0.425456,0.754574,-0.001969,-0.050914,0.0299259999999999
1614,-0.500145,0.4263979999999999,0.753652,0.002877,-0.044837,0.028879
1615,-0.500618,0.42711,0.752935,0.0046159999999999,-0.04622,0.026682
1616,-0.50074,0.4275609999999999,0.752599,0.00364,-0.0489449999999999,0.027156
1617,-0.500627,0.4278649999999999,0.752502,0.009996,-0.047662,0.026231
1618,-0.50065,0.428555,0.7520939999999999,0.011636,-0.039654,0.0238449999999999
1619,-0.500704,0.4295609999999999,0.751484,0.010408,-0.03651,0.0199699999999999
1620,-0.500382,0.430252,0.7513029999999999,0.008805,-0.040451,0.020334
1621,-0.499593,0.430331,0.751783,0.011831,-0.0448939999999999,0.022387
1622,-0.498698,0.430046,0.75254,0.02064,-0.040795,0.034356
1623,-0.497936,0.429772,0.753201,0.022502,-0.036263,0.034411
1624,-0.4972819999999999,0.429591,0.753736,0.021773,-0.037837,0.038119
1625,-0.496718,0.429353,0.754243,0.026762,-0.036516,0.0395649999999999
1626,-0.4962399999999999,0.429142,0.754677,0.027429,-0.038853,0.039131
1627,-0.495985,0.428929,0.754966,0.0287459999999999,-0.042988,0.036904
1628,-0.4959449999999999,0.428772,0.7550819999999999,0.0301399999999999,-0.044464,0.037307
1629,-0.496005,0.428625,0.755125,0.031085,-0.0430199999999999,0.039201
1630,-0.496152,0.428564,0.755063,0.029935,-0.040777,0.036899
1631,-0.496405,0.428752,0.75479,0.027869,-0.042948,0.037202
1632,-0.496716,0.42922,0.75432,0.026501,-0.043584,0.03636
1633,-0.497083,0.429774,0.753763,0.021665,-0.046686,0.034476
1634,-0.49756,0.430222,0.7531909999999999,0.022417,-0.049347,0.034285
1635,-0.4981069999999999,0.430529,0.752654,0.020736,-0.04613,0.033479
1636,-0.498536,0.430629,0.752312,0.0164659999999999,-0.045131,0.030418
1637,-0.498838,0.4304939999999999,0.752189,0.012723,-0.04292,0.024742
1638,-0.498989,0.4302069999999999,0.752253,0.013729,-0.044023,0.022206
1639,-0.4990229999999999,0.429929,0.752391,0.0111989999999999,-0.042005,0.020803
1640,-0.498934,0.429606,0.752634,0.012697,-0.041681,0.022879
1641,-0.498634,0.4290989999999999,0.753121,0.010246,-0.040152,0.027259
1642,-0.498309,0.4286819999999999,0.753574,0.008608,-0.04178,0.031094
1643,-0.498068,0.4285529999999999,0.753807,0.010015,-0.042749,0.034614
1644,-0.497924,0.42861,0.7538699999999999,0.009047,-0.046499,0.03475
1645,-0.497831,0.428704,0.753877,0.009306,-0.0478139999999999,0.034865
1646,-0.497789,0.428831,0.753834,0.0076459999999999,-0.0464,0.033092
1647,-0.497793,0.428871,0.753808,0.009481,-0.046654,0.032951
1648,-0.4978229999999999,0.42883,0.753811,0.012654,-0.044187,0.033299
1649,-0.497971,0.428803,0.753729,0.019211,-0.042848,0.0303139999999999
1650,-0.49818,0.42895,0.7535069999999999,0.02087,-0.039744,0.030032
1651,-0.4982939999999999,0.429158,0.753314,0.021655,-0.039646,0.030423
1652,-0.498224,0.429234,0.753317,0.024377,-0.042241,0.028818
1653,-0.4980279999999999,0.4291689999999999,0.753483,0.024182,-0.042175,0.0286519999999999
1654,-0.497704,0.428893,0.753855,0.018959,-0.041229,0.0332089999999999
1655,-0.497297,0.428544,0.754321,0.018415,-0.037675,0.0285
1656,-0.4969149999999999,0.4282069999999999,0.754764,0.0193,-0.038192,0.030606
1657,-0.496532,0.427954,0.75516,0.01945,-0.040335,0.029966
1658,-0.496297,0.427804,0.7553989999999999,0.020482,-0.0400779999999999,0.031298
1659,-0.496264,0.427642,0.755512,0.023562,-0.034347,0.031567
1660,-0.496247,0.427113,0.755822,0.026857,-0.034062,0.027198
1661,-0.495977,0.426112,0.756564,0.025518,-0.0397449999999999,0.025754
1662,-0.495309,0.42498,0.757638,0.026299,-0.04763,0.029639
1663,-0.494357,0.424009,0.758804,0.0236539999999999,-0.050733,0.033676
1664,-0.4932689999999999,0.423203,0.759961,0.018644,-0.050019,0.037188
1665,-0.492208,0.422368,0.761113,0.015477,-0.048925,0.040522
1666,-0.491279,0.421456,0.762219,0.012824,-0.047463,0.0397519999999999
1667,-0.490598,0.420605,0.763127,0.010191,-0.044277,0.035945
1668,-0.490214,0.420021,0.763695,0.011973,-0.044091,0.0310589999999999
1669,-0.490046,0.419629,0.764019,0.010997,-0.042523,0.028584
1670,-0.4899529999999999,0.4192649999999999,0.764278,0.012338,-0.044387,0.031666
1671,-0.489805,0.418842,0.764605,0.015913,-0.046085,0.029447
1672,-0.489605,0.418488,0.764927,0.0171009999999999,-0.043259,0.028881
1673,-0.489383,0.4182479999999999,0.7652,0.018878,-0.041524,0.028441
1674,-0.489138,0.418029,0.765476,0.016268,-0.035735,0.0307589999999999
1675,-0.488822,0.417722,0.765845,0.0172189999999999,-0.033948,0.033502
1676,-0.488372,0.417278,0.766374,0.017119,-0.0386769999999999,0.03131
1677,-0.487821,0.416725,0.767025,0.020322,-0.039925,0.031909
1678,-0.487333,0.4161439999999999,0.767651,0.017271,-0.043662,0.0330079999999999
1679,-0.4869949999999999,0.4157649999999999,0.768071,0.018718,-0.045037,0.032481
1680,-0.4868409999999999,0.41568,0.768215,0.018472,-0.04805,0.035161
1681,-0.486825,0.41561,0.768263,0.018212,-0.043357,0.034746
1682,-0.486906,0.4153199999999999,0.768368,0.015929,-0.040915,0.033085
1683,-0.487041,0.4149859999999999,0.768463,0.015102,-0.0377889999999999,0.029557
1684,-0.4872829999999999,0.414947,0.7683300000000001,0.019128,-0.03743,0.025905
1685,-0.487589,0.415109,0.768048,0.02334,-0.037957,0.027606
1686,-0.487795,0.415114,0.767915,0.025682,-0.038893,0.0347279999999999
1687,-0.487709,0.4146,0.768247,0.025566,-0.036167,0.036044
1688,-0.487388,0.413448,0.769072,0.024161,-0.036907,0.033739
1689,-0.4869989999999999,0.412257,0.769957,0.020492,-0.040293,0.026155
1690,-0.486626,0.4116,0.770544,0.018151,-0.04455,0.025355
1691,-0.486338,0.411462,0.7708,0.012064,-0.047799,0.026823
1692,-0.486191,0.4114529999999999,0.770898,0.0121459999999999,-0.048126,0.028419
1693,-0.486117,0.411272,0.77104,0.013507,-0.04645,0.030748
1694,-0.4859699999999999,0.410829,0.771369,0.013238,-0.044542,0.031365
1695,-0.485749,0.4102979999999999,0.771791,0.013672,-0.0458579999999999,0.031462
1696,-0.485509,0.409831,0.7721899999999999,0.015965,-0.044978,0.029538
1697,-0.485267,0.409376,0.772582,0.01696,-0.044157,0.028519
1698,-0.484952,0.409014,0.772972,0.016645,-0.043795,0.02813
1699,-0.4845899999999999,0.40856,0.773439,0.017686,-0.0439209999999999,0.033079
1700,-0.484231,0.40818,0.7738649999999999,0.015634,-0.044883,0.031906
1701,-0.483893,0.40794,0.7742020000000001,0.015296,-0.044644,0.031569
1702,-0.483598,0.407742,0.774491,0.019685,-0.042218,0.030105
1703,-0.483354,0.407642,0.774696,0.017396,-0.042591,0.032983
1704,-0.4832369999999999,0.407684,0.774746,0.01879,-0.042099,0.036472
1705,-0.4831649999999999,0.4078989999999999,0.774678,0.01617,-0.042818,0.038219
1706,-0.483231,0.408316,0.774417,0.0112,-0.039908,0.033109
1707,-0.4836069999999999,0.408918,0.773864,0.009669,-0.037015,0.0328829999999999
1708,-0.484342,0.409563,0.7730640000000001,0.014204,-0.038011,0.032036
1709,-0.4853479999999999,0.410176,0.772108,0.022106,-0.036717,0.03171
1710,-0.486383,0.410729,0.771162,0.0234319999999999,-0.0355759999999999,0.030718
1711,-0.487268,0.411135,0.770387,0.024194,-0.041003,0.029204
1712,-0.487853,0.411337,0.7699090000000001,0.023177,-0.043188,0.025318
1713,-0.488116,0.411387,0.769716,0.018786,-0.0457259999999999,0.023207
1714,-0.4882319999999999,0.4115939999999999,0.7695310000000001,0.017986,-0.037113,0.026306
1715,-0.4883369999999999,0.4118979999999999,0.769302,0.016734,-0.035768,0.027954
1716,-0.488303,0.411977,0.769282,0.0175379999999999,-0.037389,0.031942
1717,-0.488164,0.411724,0.769506,0.0199169999999999,-0.040813,0.031398
1718,-0.488079,0.411282,0.7697970000000001,0.021969,-0.042767,0.034891
