id;Attitude Roll;Attitude Pitch;Attitude Azimuth;Gravity X;Gravity Y;Gravity Z;Rotation Rate X;Rotation Rate Y;Rotation Rate Z;User Acceleration X;User Acceleration Y;User Acceleration Z
1;-2.318353;2.875245;1.8871459;2.1803849;1.0664535;9.501526;0.0018364686;-0.0010113885;0.004870634;-0.30442137;1.0703872;0.9682494
2;-2.318353;2.875245;1.8871459;2.1803849;1.0664535;9.501526;0.0018364686;-0.0010113885;0.004870634;-0.30442137;1.0703872;0.9682494
3;-2.318353;2.875245;1.8871459;2.1803849;1.0664535;9.501526;0.0018364686;-0.0010113885;0.004870634;-0.30442137;1.0703872;0.9682494
4;-2.316965;2.869409;1.8803718;2.229361;0.9576973;9.501745;0.0009432529;-0.002146273;-0.0023538736;-0.2672133;0.99779856;0.9531402
5;-2.316965;2.869409;1.8803718;2.229361;0.9576973;9.501745;0.0009432529;-0.002146273;-0.0023538736;-0.2672133;0.99779856;0.9531402
6;-2.316965;2.869409;1.8803718;2.229361;0.9576973;9.501745;0.0009432529;-0.002146273;-0.0023538736;-0.2672133;0.99779856;0.9531402
7;-2.3059247;2.8578231;1.8817973;2.3243754;0.7792234;9.495287;-0.002995839;0.001278608;-0.0033791023;-0.17991772;1.0147498;0.8875627
8;-2.3059247;2.8578231;1.8817973;2.3243754;0.7792234;9.495287;-0.002995839;0.001278608;-0.0033791023;-0.17991772;1.0147498;0.8875627
9;-2.3059247;2.8578231;1.8817973;2.3243754;0.7792234;9.495287;-0.002995839;0.001278608;-0.0033791023;-0.17991772;1.0147498;0.8875627
10;-2.3059247;2.8578231;1.8817973;2.3243754;0.7792234;9.495287;-0.002995839;0.001278608;-0.0033791023;-0.17991772;1.0147498;0.8875627
11;-2.2929869;2.8435454;1.883415;2.4430475;0.53479093;9.4824;-0.004702424;0.0008623418;0.0010561026;-0.6627684;1.6409773;0.98924106
12;-2.2929869;2.8435454;1.883415;2.4430475;0.53479093;9.4824;-0.004702424;0.0008623418;0.0010561026;-0.6627684;1.6409773;0.98924106
13;-2.2929869;2.8435454;1.883415;2.4430475;0.53479093;9.4824;-0.004702424;0.0008623418;0.0010561026;-0.6627684;1.6409773;0.98924106
14;-2.2929869;2.8435454;1.883415;2.4430475;0.53479093;9.4824;-0.004702424;0.0008623418;0.0010561026;-0.6627684;1.6409773;0.98924106
15;-2.2800634;2.8279958;1.8844645;2.5769522;0.23313826;9.459142;-0.019481473;0.07118152;-0.009512375;-0.1522184;0.9995971;1.1337925
16;-2.2800634;2.8279958;1.8844645;2.5769522;0.23313826;9.459142;-0.019481473;0.07118152;-0.009512375;-0.1522184;0.9995971;1.1337925
17;-2.2800634;2.8279958;1.8844645;2.5769522;0.23313826;9.459142;-0.019481473;0.07118152;-0.009512375;-0.1522184;0.9995971;1.1337925
18;-2.2800634;2.8279958;1.8844645;2.5769522;0.23313826;9.459142;-0.019481473;0.07118152;-0.009512375;-0.1522184;0.9995971;1.1337925
19;-2.2800634;2.8279958;1.8844645;2.5769522;0.23313826;9.459142;-0.019481473;0.07118152;-0.009512375;-0.1522184;0.9995971;1.1337925
20;-2.2694178;2.813191;1.8839254;2.7137132;-0.11574376;9.422991;-0.006583607;0.10006039;-0.014799275;0.05306332;0.68336755;0.576586
21;-2.2694178;2.813191;1.8839254;2.7137132;-0.11574376;9.422991;-0.006583607;0.10006039;-0.014799275;0.05306332;0.68336755;0.576586
22;-2.2694178;2.813191;1.8839254;2.7137132;-0.11574376;9.422991;-0.006583607;0.10006039;-0.014799275;0.05306332;0.68336755;0.576586
23;-2.2694178;2.813191;1.8839254;2.7137132;-0.11574376;9.422991;-0.006583607;0.10006039;-0.014799275;0.05306332;0.68336755;0.576586
24;-2.2694178;2.813191;1.8839254;2.7137132;-0.11574376;9.422991;-0.006583607;0.10006039;-0.014799275;0.05306332;0.68336755;0.576586
25;-2.2668176;2.8058248;1.880538;2.7985263;-0.4780524;9.386699;0.032448538;0.1089489;-0.011356296;0.19252351;0.36040005;0.4069277
26;-2.2668176;2.8058248;1.880538;2.7985263;-0.4780524;9.386699;0.032448538;0.1089489;-0.011356296;0.19252351;0.36040005;0.4069277
27;-2.2668176;2.8058248;1.880538;2.7985263;-0.4780524;9.386699;0.032448538;0.1089489;-0.011356296;0.19252351;0.36040005;0.4069277
28;-2.2668176;2.8058248;1.880538;2.7985263;-0.4780524;9.386699;0.032448538;0.1089489;-0.011356296;0.19252351;0.36040005;0.4069277
29;-2.2668176;2.8058248;1.880538;2.7985263;-0.4780524;9.386699;0.032448538;0.1089489;-0.011356296;0.19252351;0.36040005;0.4069277
30;-2.26497;2.7985911;1.876988;2.8856773;-0.8488828;9.333952;0.08963138;0.091002606;0.009626289;0.051068235;0.4294958;0.6207141
31;-2.26497;2.7985911;1.876988;2.8856773;-0.8488828;9.333952;0.08963138;0.091002606;0.009626289;0.051068235;0.4294958;0.6207141
32;-2.26497;2.7985911;1.876988;2.8856773;-0.8488828;9.333952;0.08963138;0.091002606;0.009626289;0.051068235;0.4294958;0.6207141
33;-2.26497;2.7985911;1.876988;2.8856773;-0.8488828;9.333952;0.08963138;0.091002606;0.009626289;0.051068235;0.4294958;0.6207141
34;-2.26497;2.7985911;1.876988;2.8856773;-0.8488828;9.333952;0.08963138;0.091002606;0.009626289;0.051068235;0.4294958;0.6207141
35;-2.2675695;2.7952836;1.8714981;2.9461079;-1.2070245;9.275447;0.13782883;0.05680703;0.038944844;-0.040394496;0.68683267;0.7646013
36;-2.2675695;2.7952836;1.8714981;2.9461079;-1.2070245;9.275447;0.13782883;0.05680703;0.038944844;-0.040394496;0.68683267;0.7646013
37;-2.2675695;2.7952836;1.8714981;2.9461079;-1.2070245;9.275447;0.13782883;0.05680703;0.038944844;-0.040394496;0.68683267;0.7646013
38;-2.2675695;2.7952836;1.8714981;2.9461079;-1.2070245;9.275447;0.13782883;0.05680703;0.038944844;-0.040394496;0.68683267;0.7646013
39;-2.2675695;2.7952836;1.8714981;2.9461079;-1.2070245;9.275447;0.13782883;0.05680703;0.038944844;-0.040394496;0.68683267;0.7646013
40;-2.2697935;2.7910712;1.8667128;3.014416;-1.5848022;9.196308;0.14767443;0.033488672;0.04789404;-0.16034105;0.7474104;0.64768475
41;-2.2697935;2.7910712;1.8667128;3.014416;-1.5848022;9.196308;0.14767443;0.033488672;0.04789404;-0.16034105;0.7474104;0.64768475
42;-2.2697935;2.7910712;1.8667128;3.014416;-1.5848022;9.196308;0.14767443;0.033488672;0.04789404;-0.16034105;0.7474104;0.64768475
43;-2.2697935;2.7910712;1.8667128;3.014416;-1.5848022;9.196308;0.14767443;0.033488672;0.04789404;-0.16034105;0.7474104;0.64768475
44;-2.2697935;2.7910712;1.8667128;3.014416;-1.5848022;9.196308;0.14767443;0.033488672;0.04789404;-0.16034105;0.7474104;0.64768475
45;-2.2721841;2.7867136;1.8633139;3.0818748;-1.9921801;9.094155;0.11303598;0.041636202;0.023265129;-0.2876959;0.9992403;0.9535696
46;-2.2721841;2.7867136;1.8633139;3.0818748;-1.9921801;9.094155;0.11303598;0.041636202;0.023265129;-0.2876959;0.9992403;0.9535696
47;-2.2721841;2.7867136;1.8633139;3.0818748;-1.9921801;9.094155;0.11303598;0.041636202;0.023265129;-0.2876959;0.9992403;0.9535696
48;-2.2721841;2.7867136;1.8633139;3.0818748;-1.9921801;9.094155;0.11303598;0.041636202;0.023265129;-0.2876959;0.9992403;0.9535696
49;-2.273844;2.7811992;1.8615507;3.157808;-2.4211984;8.963059;0.062140774;0.06904483;-0.011089076;-0.21747693;0.87155175;0.56679875
50;-2.273844;2.7811992;1.8615507;3.157808;-2.4211984;8.963059;0.062140774;0.06904483;-0.011089076;-0.21747693;0.87155175;0.56679875
51;-2.273844;2.7811992;1.8615507;3.157808;-2.4211984;8.963059;0.062140774;0.06904483;-0.011089076;-0.21747693;0.87155175;0.56679875
52;-2.273844;2.7811992;1.8615507;3.157808;-2.4211984;8.963059;0.062140774;0.06904483;-0.011089076;-0.21747693;0.87155175;0.56679875
53;-2.273844;2.7811992;1.8615507;3.157808;-2.4211984;8.963059;0.062140774;0.06904483;-0.011089076;-0.21747693;0.87155175;0.56679875
54;-2.2731347;2.7725065;1.8601876;3.2662234;-2.836906;8.800803;0.03541244;0.081963986;-0.022987263;-0.014596539;0.3459429;0.68937135
55;-2.2731347;2.7725065;1.8601876;3.2662234;-2.836906;8.800803;0.03541244;0.081963986;-0.022987263;-0.014596539;0.3459429;0.68937135
56;-2.2731347;2.7725065;1.8601876;3.2662234;-2.836906;8.800803;0.03541244;0.081963986;-0.022987263;-0.014596539;0.3459429;0.68937135
57;-2.2731347;2.7725065;1.8601876;3.2662234;-2.836906;8.800803;0.03541244;0.081963986;-0.022987263;-0.014596539;0.3459429;0.68937135
58;-2.2731347;2.7725065;1.8601876;3.2662234;-2.836906;8.800803;0.03541244;0.081963986;-0.022987263;-0.014596539;0.3459429;0.68937135
59;-2.277544;2.7686684;1.8576107;3.3336442;-3.245789;8.632616;0.044616073;0.06536976;-0.010019134;0.09819688;0.18174607;0.37106052
60;-2.277544;2.7686684;1.8576107;3.3336442;-3.245789;8.632616;0.044616073;0.06536976;-0.010019134;0.09819688;0.18174607;0.37106052
61;-2.277544;2.7686684;1.8576107;3.3336442;-3.245789;8.632616;0.044616073;0.06536976;-0.010019134;0.09819688;0.18174607;0.37106052
62;-2.277544;2.7686684;1.8576107;3.3336442;-3.245789;8.632616;0.044616073;0.06536976;-0.010019134;0.09819688;0.18174607;0.37106052
63;-2.277544;2.7686684;1.8576107;3.3336442;-3.245789;8.632616;0.044616073;0.06536976;-0.010019134;0.09819688;0.18174607;0.37106052
64;-2.2828436;2.765271;1.8551738;3.398017;-3.6504354;8.443826;0.07312019;0.028868223;0.011961;-0.060711868;0.42994937;0.65981585
65;-2.2828436;2.765271;1.8551738;3.398017;-3.6504354;8.443826;0.07312019;0.028868223;0.011961;-0.060711868;0.42994937;0.65981585
66;-2.2828436;2.765271;1.8551738;3.398017;-3.6504354;8.443826;0.07312019;0.028868223;0.011961;-0.060711868;0.42994937;0.65981585
67;-2.2828436;2.765271;1.8551738;3.398017;-3.6504354;8.443826;0.07312019;0.028868223;0.011961;-0.060711868;0.42994937;0.65981585
68;-2.2828436;2.765271;1.8551738;3.398017;-3.6504354;8.443826;0.07312019;0.028868223;0.011961;-0.060711868;0.42994937;0.65981585
69;-2.2904687;2.7636316;1.8508891;3.4504747;-4.030912;8.247203;0.09250372;-0.003614383;0.02662294;-0.0099698575;0.44534552;0.606581
70;-2.2904687;2.7636316;1.8508891;3.4504747;-4.030912;8.247203;0.09250372;-0.003614383;0.02662294;-0.0099698575;0.44534552;0.606581
71;-2.2904687;2.7636316;1.8508891;3.4504747;-4.030912;8.247203;0.09250372;-0.003614383;0.02662294;-0.0099698575;0.44534552;0.606581
72;-2.2904687;2.7636316;1.8508891;3.4504747;-4.030912;8.247203;0.09250372;-0.003614383;0.02662294;-0.0099698575;0.44534552;0.606581
73;-2.2904687;2.7636316;1.8508891;3.4504747;-4.030912;8.247203;0.09250372;-0.003614383;0.02662294;-0.0099698575;0.44534552;0.606581
74;-2.2955413;2.759548;1.8506417;3.5185678;-4.4289975;8.010871;0.07933225;-0.0028638265;0.018002715;-0.18851207;0.47700682;0.5732159
75;-2.2955413;2.759548;1.8506417;3.5185678;-4.4289975;8.010871;0.07933225;-0.0028638265;0.018002715;-0.18851207;0.47700682;0.5732159
76;-2.2955413;2.759548;1.8506417;3.5185678;-4.4289975;8.010871;0.07933225;-0.0028638265;0.018002715;-0.18851207;0.47700682;0.5732159
77;-2.2955413;2.759548;1.8506417;3.5185678;-4.4289975;8.010871;0.07933225;-0.0028638265;0.018002715;-0.18851207;0.47700682;0.5732159
78;-2.2955413;2.759548;1.8506417;3.5185678;-4.4289975;8.010871;0.07933225;-0.0028638265;0.018002715;-0.18851207;0.47700682;0.5732159
79;-2.297044;2.752221;1.855662;3.609838;-4.8351874;7.7304864;0.0257936;0.052321788;-0.023297068;-0.39641908;0.9510497;0.9692937
80;-2.297044;2.752221;1.855662;3.609838;-4.8351874;7.7304864;0.0257936;0.052321788;-0.023297068;-0.39641908;0.9510497;0.9692937
81;-2.297044;2.752221;1.855662;3.609838;-4.8351874;7.7304864;0.0257936;0.052321788;-0.023297068;-0.39641908;0.9510497;0.9692937
82;-2.297044;2.752221;1.855662;3.609838;-4.8351874;7.7304864;0.0257936;0.052321788;-0.023297068;-0.39641908;0.9510497;0.9692937
83;-2.297044;2.752221;1.855662;3.609838;-4.8351874;7.7304864;0.0257936;0.052321788;-0.023297068;-0.39641908;0.9510497;0.9692937
84;-2.29892;2.7453227;1.8631394;3.694329;-5.2265;7.430075;-0.060288336;0.15931924;-0.089071386;-0.40781903;0.50651383;0.3919829
85;-2.29892;2.7453227;1.8631394;3.694329;-5.2265;7.430075;-0.060288336;0.15931924;-0.089071386;-0.40781903;0.50651383;0.3919829
86;-2.29892;2.7453227;1.8631394;3.694329;-5.2265;7.430075;-0.060288336;0.15931924;-0.089071386;-0.40781903;0.50651383;0.3919829
87;-2.29892;2.7453227;1.8631394;3.694329;-5.2265;7.430075;-0.060288336;0.15931924;-0.089071386;-0.40781903;0.50651383;0.3919829
88;-2.29892;2.7453227;1.8631394;3.694329;-5.2265;7.430075;-0.060288336;0.15931924;-0.089071386;-0.40781903;0.50651383;0.3919829
89;-2.2994375;2.7371504;1.871952;3.7923582;-5.580832;7.11637;-0.14900202;0.27803388;-0.15173596;0.23721029;-0.1578085;0.48545015
90;-2.2994375;2.7371504;1.871952;3.7923582;-5.580832;7.11637;-0.14900202;0.27803388;-0.15173596;0.23721029;-0.1578085;0.48545015
91;-2.2994375;2.7371504;1.871952;3.7923582;-5.580832;7.11637;-0.14900202;0.27803388;-0.15173596;0.23721029;-0.1578085;0.48545015
92;-2.2994375;2.7371504;1.871952;3.7923582;-5.580832;7.11637;-0.14900202;0.27803388;-0.15173596;0.23721029;-0.1578085;0.48545015
93;-2.2994375;2.7371504;1.871952;3.7923582;-5.580832;7.11637;-0.14900202;0.27803388;-0.15173596;0.23721029;-0.1578085;0.48545015
94;-2.2994375;2.7371504;1.871952;3.7923582;-5.580832;7.11637;-0.14900202;0.27803388;-0.15173596;0.23721029;-0.1578085;0.48545015
95;-2.2986813;2.728037;1.8868468;3.891639;-5.922088;6.7789674;-0.21080424;0.36839986;-0.1924321;-0.34670427;0.90029246;0.44861588
96;-2.2986813;2.728037;1.8868468;3.891639;-5.922088;6.7789674;-0.21080424;0.36839986;-0.1924321;-0.34670427;0.90029246;0.44861588
97;-2.2986813;2.728037;1.8868468;3.891639;-5.922088;6.7789674;-0.21080424;0.36839986;-0.1924321;-0.34670427;0.90029246;0.44861588
98;-2.2986813;2.728037;1.8868468;3.891639;-5.922088;6.7789674;-0.21080424;0.36839986;-0.1924321;-0.34670427;0.90029246;0.44861588
99;-2.2986813;2.728037;1.8868468;3.891639;-5.922088;6.7789674;-0.21080424;0.36839986;-0.1924321;-0.34670427;0.90029246;0.44861588
100;-2.2986813;2.728037;1.8868468;3.891639;-5.922088;6.7789674;-0.21080424;0.36839986;-0.1924321;-0.34670427;0.90029246;0.44861588
101;-2.2991743;2.720224;1.9050575;3.9748714;-6.2382736;6.4385343;-0.24127364;0.42384204;-0.21226276;-0.28647968;0.2501091;0.5749908
102;-2.2991743;2.720224;1.9050575;3.9748714;-6.2382736;6.4385343;-0.24127364;0.42384204;-0.21226276;-0.28647968;0.2501091;0.5749908
103;-2.2991743;2.720224;1.9050575;3.9748714;-6.2382736;6.4385343;-0.24127364;0.42384204;-0.21226276;-0.28647968;0.2501091;0.5749908
104;-2.2991743;2.720224;1.9050575;3.9748714;-6.2382736;6.4385343;-0.24127364;0.42384204;-0.21226276;-0.28647968;0.2501091;0.5749908
105;-2.2991743;2.720224;1.9050575;3.9748714;-6.2382736;6.4385343;-0.24127364;0.42384204;-0.21226276;-0.28647968;0.2501091;0.5749908
106;-2.2991743;2.720224;1.9050575;3.9748714;-6.2382736;6.4385343;-0.24127364;0.42384204;-0.21226276;-0.28647968;0.2501091;0.5749908
107;-2.3005774;2.7133503;1.928668;4.042255;-6.533429;6.094659;-0.25701192;0.45377916;-0.21667774;-0.037018117;0.25370175;0.4203493
108;-2.3005774;2.7133503;1.928668;4.042255;-6.533429;6.094659;-0.25701192;0.45377916;-0.21667774;-0.037018117;0.25370175;0.4203493
109;-2.3005774;2.7133503;1.928668;4.042255;-6.533429;6.094659;-0.25701192;0.45377916;-0.21667774;-0.037018117;0.25370175;0.4203493
110;-2.3005774;2.7133503;1.928668;4.042255;-6.533429;6.094659;-0.25701192;0.45377916;-0.21667774;-0.037018117;0.25370175;0.4203493
111;-2.3005774;2.7133503;1.928668;4.042255;-6.533429;6.094659;-0.25701192;0.45377916;-0.21667774;-0.037018117;0.25370175;0.4203493
112;-2.3005774;2.7133503;1.928668;4.042255;-6.533429;6.094659;-0.25701192;0.45377916;-0.21667774;-0.037018117;0.25370175;0.4203493
113;-2.3033774;2.7077856;1.9585596;4.088746;-6.80804;5.7535324;-0.264081;0.44704223;-0.20178159;-0.2646213;0.6220575;0.6633129
114;-2.3033774;2.7077856;1.9585596;4.088746;-6.80804;5.7535324;-0.264081;0.44704223;-0.20178159;-0.2646213;0.6220575;0.6633129
115;-2.3033774;2.7077856;1.9585596;4.088746;-6.80804;5.7535324;-0.264081;0.44704223;-0.20178159;-0.2646213;0.6220575;0.6633129
116;-2.3033774;2.7077856;1.9585596;4.088746;-6.80804;5.7535324;-0.264081;0.44704223;-0.20178159;-0.2646213;0.6220575;0.6633129
117;-2.3033774;2.7077856;1.9585596;4.088746;-6.80804;5.7535324;-0.264081;0.44704223;-0.20178159;-0.2646213;0.6220575;0.6633129
118;-2.3033774;2.7077856;1.9585596;4.088746;-6.80804;5.7535324;-0.264081;0.44704223;-0.20178159;-0.2646213;0.6220575;0.6633129
119;-2.3059628;2.7016792;1.9996763;4.126123;-7.0607877;5.412094;-0.24922849;0.3866847;-0.16375019;-0.1875941;0.28682882;0.31025738
120;-2.3059628;2.7016792;1.9996763;4.126123;-7.0607877;5.412094;-0.24922849;0.3866847;-0.16375019;-0.1875941;0.28682882;0.31025738
121;-2.3059628;2.7016792;1.9996763;4.126123;-7.0607877;5.412094;-0.24922849;0.3866847;-0.16375019;-0.1875941;0.28682882;0.31025738
122;-2.3059628;2.7016792;1.9996763;4.126123;-7.0607877;5.412094;-0.24922849;0.3866847;-0.16375019;-0.1875941;0.28682882;0.31025738
123;-2.3059628;2.7016792;1.9996763;4.126123;-7.0607877;5.412094;-0.24922849;0.3866847;-0.16375019;-0.1875941;0.28682882;0.31025738
124;-2.3059628;2.7016792;1.9996763;4.126123;-7.0607877;5.412094;-0.24922849;0.3866847;-0.16375019;-0.1875941;0.28682882;0.31025738
125;-2.3089328;2.6948094;2.0587943;4.1455092;-7.298223;5.0715947;-0.21211265;0.29682976;-0.1160893;0.2634471;-0.27869317;0.23405826
126;-2.3089328;2.6948094;2.0587943;4.1455092;-7.298223;5.0715947;-0.21211265;0.29682976;-0.1160893;0.2634471;-0.27869317;0.23405826
127;-2.3089328;2.6948094;2.0587943;4.1455092;-7.298223;5.0715947;-0.21211265;0.29682976;-0.1160893;0.2634471;-0.27869317;0.23405826
128;-2.3089328;2.6948094;2.0587943;4.1455092;-7.298223;5.0715947;-0.21211265;0.29682976;-0.1160893;0.2634471;-0.27869317;0.23405826
129;-2.3089328;2.6948094;2.0587943;4.1455092;-7.298223;5.0715947;-0.21211265;0.29682976;-0.1160893;0.2634471;-0.27869317;0.23405826
130;-2.3089328;2.6948094;2.0587943;4.1455092;-7.298223;5.0715947;-0.21211265;0.29682976;-0.1160893;0.2634471;-0.27869317;0.23405826
131;-2.3113735;2.6850412;2.1405983;4.159315;-7.509491;4.741101;-0.1736586;0.23076692;-0.08183836;-0.56103474;0.8424461;-0.5210639
132;-2.3113735;2.6850412;2.1405983;4.159315;-7.509491;4.741101;-0.1736586;0.23076692;-0.08183836;-0.56103474;0.8424461;-0.5210639
133;-2.3113735;2.6850412;2.1405983;4.159315;-7.509491;4.741101;-0.1736586;0.23076692;-0.08183836;-0.56103474;0.8424461;-0.5210639
134;-2.3113735;2.6850412;2.1405983;4.159315;-7.509491;4.741101;-0.1736586;0.23076692;-0.08183836;-0.56103474;0.8424461;-0.5210639
135;-2.3113735;2.6850412;2.1405983;4.159315;-7.509491;4.741101;-0.1736586;0.23076692;-0.08183836;-0.56103474;0.8424461;-0.5210639
136;-2.3113735;2.6850412;2.1405983;4.159315;-7.509491;4.741101;-0.1736586;0.23076692;-0.08183836;-0.56103474;0.8424461;-0.5210639
137;-2.3136854;2.668938;2.2608716;4.1638646;-7.7011867;4.418637;-0.1532541;0.21769233;-0.07229298;-0.30431104;0.068280794;0.356398
138;-2.3136854;2.668938;2.2608716;4.1638646;-7.7011867;4.418637;-0.1532541;0.21769233;-0.07229298;-0.30431104;0.068280794;0.356398
139;-2.3136854;2.668938;2.2608716;4.1638646;-7.7011867;4.418637;-0.1532541;0.21769233;-0.07229298;-0.30431104;0.068280794;0.356398
140;-2.3136854;2.668938;2.2608716;4.1638646;-7.7011867;4.418637;-0.1532541;0.21769233;-0.07229298;-0.30431104;0.068280794;0.356398
141;-2.3136854;2.668938;2.2608716;4.1638646;-7.7011867;4.418637;-0.1532541;0.21769233;-0.07229298;-0.30431104;0.068280794;0.356398
142;-2.3136854;2.668938;2.2608716;4.1638646;-7.7011867;4.418637;-0.1532541;0.21769233;-0.07229298;-0.30431104;0.068280794;0.356398
143;-2.3265417;2.5845249;2.64138;4.1413426;-8.0146675;3.8450952;-0.124882;0.21006753;-0.06353223;-0.049370676;0.27940634;0.25107405
144;-2.3265417;2.5845249;2.64138;4.1413426;-8.0146675;3.8450952;-0.124882;0.21006753;-0.06353223;-0.049370676;0.27940634;0.25107405
145;-2.3265417;2.5845249;2.64138;4.1413426;-8.0146675;3.8450952;-0.124882;0.21006753;-0.06353223;-0.049370676;0.27940634;0.25107405
146;-2.3265417;2.5845249;2.64138;4.1413426;-8.0146675;3.8450952;-0.124882;0.21006753;-0.06353223;-0.049370676;0.27940634;0.25107405
147;-2.3265417;2.5845249;2.64138;4.1413426;-8.0146675;3.8450952;-0.124882;0.21006753;-0.06353223;-0.049370676;0.27940634;0.25107405
148;-2.3480978;2.460931;2.8696084;4.121914;-8.120371;3.6386533;-0.064609624;0.11121867;-0.01930155;0.116071954;-0.19507714;0.12459737
149;-2.3480978;2.460931;2.8696084;4.121914;-8.120371;3.6386533;-0.064609624;0.11121867;-0.01930155;0.116071954;-0.19507714;0.12459737
150;-2.3480978;2.460931;2.8696084;4.121914;-8.120371;3.6386533;-0.064609624;0.11121867;-0.01930155;0.116071954;-0.19507714;0.12459737
151;-2.3480978;2.460931;2.8696084;4.121914;-8.120371;3.6386533;-0.064609624;0.11121867;-0.01930155;0.116071954;-0.19507714;0.12459737
152;-2.3480978;2.460931;2.8696084;4.121914;-8.120371;3.6386533;-0.064609624;0.11121867;-0.01930155;0.116071954;-0.19507714;0.12459737
153;-2.3480978;2.460931;2.8696084;4.121914;-8.120371;3.6386533;-0.064609624;0.11121867;-0.01930155;0.116071954;-0.19507714;0.12459737
154;-2.418455;2.0814707;3.1018045;4.103197;-8.194771;3.4899693;0.017193604;-0.020871865;0.038889486;0.19421475;-0.4535519;-0.42113912
155;-2.418455;2.0814707;3.1018045;4.103197;-8.194771;3.4899693;0.017193604;-0.020871865;0.038889486;0.19421475;-0.4535519;-0.42113912
156;-2.418455;2.0814707;3.1018045;4.103197;-8.194771;3.4899693;0.017193604;-0.020871865;0.038889486;0.19421475;-0.4535519;-0.42113912
157;-2.418455;2.0814707;3.1018045;4.103197;-8.194771;3.4899693;0.017193604;-0.020871865;0.038889486;0.19421475;-0.4535519;-0.42113912
158;-2.418455;2.0814707;3.1018045;4.103197;-8.194771;3.4899693;0.017193604;-0.020871865;0.038889486;0.19421475;-0.4535519;-0.42113912
159;-2.5608397;1.481006;-3.0508115;4.0479593;-8.244206;3.4376557;0.08239409;-0.1054644;0.07656424;0.29645723;0.06369095;0.0011162169
160;-2.5608397;1.481006;-3.0508115;4.0479593;-8.244206;3.4376557;0.08239409;-0.1054644;0.07656424;0.29645723;0.06369095;0.0011162169
161;-2.5608397;1.481006;-3.0508115;4.0479593;-8.244206;3.4376557;0.08239409;-0.1054644;0.07656424;0.29645723;0.06369095;0.0011162169
162;-2.5608397;1.481006;-3.0508115;4.0479593;-8.244206;3.4376557;0.08239409;-0.1054644;0.07656424;0.29645723;0.06369095;0.0011162169
163;-2.5608397;1.481006;-3.0508115;4.0479593;-8.244206;3.4376557;0.08239409;-0.1054644;0.07656424;0.29645723;0.06369095;0.0011162169
164;-2.5608397;1.481006;-3.0508115;4.0479593;-8.244206;3.4376557;0.08239409;-0.1054644;0.07656424;0.29645723;0.06369095;0.0011162169
165;-3.0000358;0.8776696;-2.9403903;3.9957097;-8.273742;3.4278107;0.122068204;-0.13276018;0.08888614;0.10174275;-0.11845767;0.15240426
166;-3.0000358;0.8776696;-2.9403903;3.9957097;-8.273742;3.4278107;0.122068204;-0.13276018;0.08888614;0.10174275;-0.11845767;0.15240426
167;-3.0000358;0.8776696;-2.9403903;3.9957097;-8.273742;3.4278107;0.122068204;-0.13276018;0.08888614;0.10174275;-0.11845767;0.15240426
168;-3.0000358;0.8776696;-2.9403903;3.9957097;-8.273742;3.4278107;0.122068204;-0.13276018;0.08888614;0.10174275;-0.11845767;0.15240426
169;-3.0000358;0.8776696;-2.9403903;3.9957097;-8.273742;3.4278107;0.122068204;-0.13276018;0.08888614;0.10174275;-0.11845767;0.15240426
170;2.2139862;0.6142579;-2.847424;3.953781;-8.285238;3.4485972;0.15149961;-0.1602561;0.09859973;-0.09338394;0.2581707;0.3102316
171;2.2139862;0.6142579;-2.847424;3.953781;-8.285238;3.4485972;0.15149961;-0.1602561;0.09859973;-0.09338394;0.2581707;0.3102316
172;2.2139862;0.6142579;-2.847424;3.953781;-8.285238;3.4485972;0.15149961;-0.1602561;0.09859973;-0.09338394;0.2581707;0.3102316
173;-2.3679755;2.614739;2.6970193;3.9047801;-8.292856;3.485917;0.1811844;-0.2407637;0.12716028;0.48442936;0.36526746;0.19200733
174;-2.3679755;2.614739;2.6970193;3.9047801;-8.292856;3.485917;0.1811844;-0.2407637;0.12716028;0.48442936;0.36526746;0.19200733
175;-2.3679755;2.614739;2.6970193;3.9047801;-8.292856;3.485917;0.1811844;-0.2407637;0.12716028;0.48442936;0.36526746;0.19200733
176;-2.3679755;2.614739;2.6970193;3.9047801;-8.292856;3.485917;0.1811844;-0.2407637;0.12716028;0.48442936;0.36526746;0.19200733
177;-2.3679755;2.614739;2.6970193;3.9047801;-8.292856;3.485917;0.1811844;-0.2407637;0.12716028;0.48442936;0.36526746;0.19200733
178;-2.3679755;2.614739;2.6970193;3.9047801;-8.292856;3.485917;0.1811844;-0.2407637;0.12716028;0.48442936;0.36526746;0.19200733
179;-2.4355252;2.0867455;3.0915515;3.8974507;-8.318135;3.433496;0.18306558;-0.31954873;0.15437302;-0.05324334;-0.18497354;0.58886975
180;-2.4355252;2.0867455;3.0915515;3.8974507;-8.318135;3.433496;0.18306558;-0.31954873;0.15437302;-0.05324334;-0.18497354;0.58886975
181;-2.4355252;2.0867455;3.0915515;3.8974507;-8.318135;3.433496;0.18306558;-0.31954873;0.15437302;-0.05324334;-0.18497354;0.58886975
182;-2.4355252;2.0867455;3.0915515;3.8974507;-8.318135;3.433496;0.18306558;-0.31954873;0.15437302;-0.05324334;-0.18497354;0.58886975
183;-2.4355252;2.0867455;3.0915515;3.8974507;-8.318135;3.433496;0.18306558;-0.31954873;0.15437302;-0.05324334;-0.18497354;0.58886975
184;-2.4355252;2.0867455;3.0915515;3.8974507;-8.318135;3.433496;0.18306558;-0.31954873;0.15437302;-0.05324334;-0.18497354;0.58886975
185;-2.7039073;1.1366644;-3.0052538;3.8814917;-8.364301;3.3380952;0.14066817;-0.32287142;0.15248865;0.15111402;-0.09742589;0.18865357
186;-2.7039073;1.1366644;-3.0052538;3.8814917;-8.364301;3.3380952;0.14066817;-0.32287142;0.15248865;0.15111402;-0.09742589;0.18865357
187;-2.7039073;1.1366644;-3.0052538;3.8814917;-8.364301;3.3380952;0.14066817;-0.32287142;0.15248865;0.15111402;-0.09742589;0.18865357
188;-2.7039073;1.1366644;-3.0052538;3.8814917;-8.364301;3.3380952;0.14066817;-0.32287142;0.15248865;0.15111402;-0.09742589;0.18865357
189;-2.7039073;1.1366644;-3.0052538;3.8814917;-8.364301;3.3380952;0.14066817;-0.32287142;0.15248865;0.15111402;-0.09742589;0.18865357
190;-2.7039073;1.1366644;-3.0052538;3.8814917;-8.364301;3.3380952;0.14066817;-0.32287142;0.15248865;0.15111402;-0.09742589;0.18865357
191;-2.8964942;0.9296758;-2.9588017;3.870748;-8.408589;3.2377954;0.09492041;-0.28512213;0.1339121;0.029942771;0.3500532;-0.43854696
192;-2.8964942;0.9296758;-2.9588017;3.870748;-8.408589;3.2377954;0.09492041;-0.28512213;0.1339121;0.029942771;0.3500532;-0.43854696
193;-2.8964942;0.9296758;-2.9588017;3.870748;-8.408589;3.2377954;0.09492041;-0.28512213;0.1339121;0.029942771;0.3500532;-0.43854696
194;-2.8964942;0.9296758;-2.9588017;3.870748;-8.408589;3.2377954;0.09492041;-0.28512213;0.1339121;0.029942771;0.3500532;-0.43854696
195;-2.8964942;0.9296758;-2.9588017;3.870748;-8.408589;3.2377954;0.09492041;-0.28512213;0.1339121;0.029942771;0.3500532;-0.43854696
196;-2.8964942;0.9296758;-2.9588017;3.870748;-8.408589;3.2377954;0.09492041;-0.28512213;0.1339121;0.029942771;0.3500532;-0.43854696
197;-2.8894346;0.95093006;-2.9567432;3.8568187;-8.453534;3.135777;0.08403361;-0.27345815;0.121276125;0.071965;-0.107986405;0.62441665
198;-2.8894346;0.95093006;-2.9567432;3.8568187;-8.453534;3.135777;0.08403361;-0.27345815;0.121276125;0.071965;-0.107986405;0.62441665
199;-2.8894346;0.95093006;-2.9567432;3.8568187;-8.453534;3.135777;0.08403361;-0.27345815;0.121276125;0.071965;-0.107986405;0.62441665
200;-2.8894346;0.95093006;-2.9567432;3.8568187;-8.453534;3.135777;0.08403361;-0.27345815;0.121276125;0.071965;-0.107986405;0.62441665
201;-2.8894346;0.95093006;-2.9567432;3.8568187;-8.453534;3.135777;0.08403361;-0.27345815;0.121276125;0.071965;-0.107986405;0.62441665
202;-2.8894346;0.95093006;-2.9567432;3.8568187;-8.453534;3.135777;0.08403361;-0.27345815;0.121276125;0.071965;-0.107986405;0.62441665
203;-2.8162034;1.0478897;-2.9672272;3.8501248;-8.491786;3.039162;0.10942372;-0.32211766;0.125014;-0.11468881;0.015024016;0.2660545
204;-2.8162034;1.0478897;-2.9672272;3.8501248;-8.491786;3.039162;0.10942372;-0.32211766;0.125014;-0.11468881;0.015024016;0.2660545
205;-2.8162034;1.0478897;-2.9672272;3.8501248;-8.491786;3.039162;0.10942372;-0.32211766;0.125014;-0.11468881;0.015024016;0.2660545
206;-2.8162034;1.0478897;-2.9672272;3.8501248;-8.491786;3.039162;0.10942372;-0.32211766;0.125014;-0.11468881;0.015024016;0.2660545
207;-2.8162034;1.0478897;-2.9672272;3.8501248;-8.491786;3.039162;0.10942372;-0.32211766;0.125014;-0.11468881;0.015024016;0.2660545
208;-2.8162034;1.0478897;-2.9672272;3.8501248;-8.491786;3.039162;0.10942372;-0.32211766;0.125014;-0.11468881;0.015024016;0.2660545
209;-2.799784;1.1023248;-2.9646652;3.8745303;-8.511184;2.9526489;0.13414419;-0.38816345;0.12851128;-0.24106315;0.28639063;0.0141547965
210;-2.799784;1.1023248;-2.9646652;3.8745303;-8.511184;2.9526489;0.13414419;-0.38816345;0.12851128;-0.24106315;0.28639063;0.0141547965
211;-2.799784;1.1023248;-2.9646652;3.8745303;-8.511184;2.9526489;0.13414419;-0.38816345;0.12851128;-0.24106315;0.28639063;0.0141547965
212;-2.799784;1.1023248;-2.9646652;3.8745303;-8.511184;2.9526489;0.13414419;-0.38816345;0.12851128;-0.24106315;0.28639063;0.0141547965
213;-2.799784;1.1023248;-2.9646652;3.8745303;-8.511184;2.9526489;0.13414419;-0.38816345;0.12851128;-0.24106315;0.28639063;0.0141547965
214;-2.799784;1.1023248;-2.9646652;3.8745303;-8.511184;2.9526489;0.13414419;-0.38816345;0.12851128;-0.24106315;0.28639063;0.0141547965
215;-2.559422;1.7559055;-3.0534632;3.8776186;-8.524047;2.911201;0.120879024;-0.3938166;0.10601268;-0.45014933;0.5496372;0.3472166
216;-2.559422;1.7559055;-3.0534632;3.8776186;-8.524047;2.911201;0.120879024;-0.3938166;0.10601268;-0.45014933;0.5496372;0.3472166
217;-2.559422;1.7559055;-3.0534632;3.8776186;-8.524047;2.911201;0.120879024;-0.3938166;0.10601268;-0.45014933;0.5496372;0.3472166
218;-2.559422;1.7559055;-3.0534632;3.8776186;-8.524047;2.911201;0.120879024;-0.3938166;0.10601268;-0.45014933;0.5496372;0.3472166
219;-2.559422;1.7559055;-3.0534632;3.8776186;-8.524047;2.911201;0.120879024;-0.3938166;0.10601268;-0.45014933;0.5496372;0.3472166
220;-2.559422;1.7559055;-3.0534632;3.8776186;-8.524047;2.911201;0.120879024;-0.3938166;0.10601268;-0.45014933;0.5496372;0.3472166
221;-2.4815648;2.1679914;-3.1239038;3.89719;-8.539211;2.839748;0.08128263;-0.33469507;0.059578236;0.23911047;0.113669805;-0.13353783
222;-2.4815648;2.1679914;-3.1239038;3.89719;-8.539211;2.839748;0.08128263;-0.33469507;0.059578236;0.23911047;0.113669805;-0.13353783
223;-2.4815648;2.1679914;-3.1239038;3.89719;-8.539211;2.839748;0.08128263;-0.33469507;0.059578236;0.23911047;0.113669805;-0.13353783
224;-2.4815648;2.1679914;-3.1239038;3.89719;-8.539211;2.839748;0.08128263;-0.33469507;0.059578236;0.23911047;0.113669805;-0.13353783
225;-2.4815648;2.1679914;-3.1239038;3.89719;-8.539211;2.839748;0.08128263;-0.33469507;0.059578236;0.23911047;0.113669805;-0.13353783
226;-2.4815648;2.1679914;-3.1239038;3.89719;-8.539211;2.839748;0.08128263;-0.33469507;0.059578236;0.23911047;0.113669805;-0.13353783
227;-2.4604216;2.3166397;3.1283362;3.918254;-8.563141;2.7368362;0.0803266;-0.32600033;0.03216854;0.34376162;-0.348573;0.18788931
228;-2.4604216;2.3166397;3.1283362;3.918254;-8.563141;2.7368362;0.0803266;-0.32600033;0.03216854;0.34376162;-0.348573;0.18788931
229;-2.4604216;2.3166397;3.1283362;3.918254;-8.563141;2.7368362;0.0803266;-0.32600033;0.03216854;0.34376162;-0.348573;0.18788931
230;-2.4604216;2.3166397;3.1283362;3.918254;-8.563141;2.7368362;0.0803266;-0.32600033;0.03216854;0.34376162;-0.348573;0.18788931
231;-2.4604216;2.3166397;3.1283362;3.918254;-8.563141;2.7368362;0.0803266;-0.32600033;0.03216854;0.34376162;-0.348573;0.18788931
232;-2.4604216;2.3166397;3.1283362;3.918254;-8.563141;2.7368362;0.0803266;-0.32600033;0.03216854;0.34376162;-0.348573;0.18788931
233;-2.4454546;2.418;3.0994658;3.9482114;-8.580928;2.6362271;0.15838663;-0.4584411;0.059736863;-0.043675926;0.058165383;0.046330854
234;-2.4454546;2.418;3.0994658;3.9482114;-8.580928;2.6362271;0.15838663;-0.4584411;0.059736863;-0.043675926;0.058165383;0.046330854
235;-2.4454546;2.418;3.0994658;3.9482114;-8.580928;2.6362271;0.15838663;-0.4584411;0.059736863;-0.043675926;0.058165383;0.046330854
236;-2.4454546;2.418;3.0994658;3.9482114;-8.580928;2.6362271;0.15838663;-0.4584411;0.059736863;-0.043675926;0.058165383;0.046330854
237;-2.4454546;2.418;3.0994658;3.9482114;-8.580928;2.6362271;0.15838663;-0.4584411;0.059736863;-0.043675926;0.058165383;0.046330854
238;-2.4454546;2.418;3.0994658;3.9482114;-8.580928;2.6362271;0.15838663;-0.4584411;0.059736863;-0.043675926;0.058165383;0.046330854
239;-2.4176872;2.5707731;2.978923;3.965214;-8.593088;2.5702736;0.24865146;-0.61131513;0.10782679;-0.08684923;0.028615186;-0.08925439
240;-2.4176872;2.5707731;2.978923;3.965214;-8.593088;2.5702736;0.24865146;-0.61131513;0.10782679;-0.08684923;0.028615186;-0.08925439
241;-2.4176872;2.5707731;2.978923;3.965214;-8.593088;2.5702736;0.24865146;-0.61131513;0.10782679;-0.08684923;0.028615186;-0.08925439
242;-2.4176872;2.5707731;2.978923;3.965214;-8.593088;2.5702736;0.24865146;-0.61131513;0.10782679;-0.08684923;0.028615186;-0.08925439
243;-2.4176872;2.5707731;2.978923;3.965214;-8.593088;2.5702736;0.24865146;-0.61131513;0.10782679;-0.08684923;0.028615186;-0.08925439
244;-2.4176872;2.5707731;2.978923;3.965214;-8.593088;2.5702736;0.24865146;-0.61131513;0.10782679;-0.08684923;0.028615186;-0.08925439
245;-2.4077318;2.6680238;2.7778366;3.95871;-8.612251;2.5155783;0.26889306;-0.6300982;0.12110046;-0.27006692;0.40592644;0.09358222
246;-2.4077318;2.6680238;2.7778366;3.95871;-8.612251;2.5155783;0.26889306;-0.6300982;0.12110046;-0.27006692;0.40592644;0.09358222
247;-2.4077318;2.6680238;2.7778366;3.95871;-8.612251;2.5155783;0.26889306;-0.6300982;0.12110046;-0.27006692;0.40592644;0.09358222
248;-2.4077318;2.6680238;2.7778366;3.95871;-8.612251;2.5155783;0.26889306;-0.6300982;0.12110046;-0.27006692;0.40592644;0.09358222
249;-2.4077318;2.6680238;2.7778366;3.95871;-8.612251;2.5155783;0.26889306;-0.6300982;0.12110046;-0.27006692;0.40592644;0.09358222
250;-2.4077318;2.6680238;2.7778366;3.95871;-8.612251;2.5155783;0.26889306;-0.6300982;0.12110046;-0.27006692;0.40592644;0.09358222
251;-2.4126914;2.717581;2.518299;3.946656;-8.631659;2.467544;0.22464642;-0.53363836;0.09099409;-0.13364752;0.04274366;0.5709425
252;-2.4126914;2.717581;2.518299;3.946656;-8.631659;2.467544;0.22464642;-0.53363836;0.09099409;-0.13364752;0.04274366;0.5709425
253;-2.4126914;2.717581;2.518299;3.946656;-8.631659;2.467544;0.22464642;-0.53363836;0.09099409;-0.13364752;0.04274366;0.5709425
254;-2.4126914;2.717581;2.518299;3.946656;-8.631659;2.467544;0.22464642;-0.53363836;0.09099409;-0.13364752;0.04274366;0.5709425
255;-2.4126914;2.717581;2.518299;3.946656;-8.631659;2.467544;0.22464642;-0.53363836;0.09099409;-0.13364752;0.04274366;0.5709425
256;-2.4126914;2.717581;2.518299;3.946656;-8.631659;2.467544;0.22464642;-0.53363836;0.09099409;-0.13364752;0.04274366;0.5709425
257;-2.4275753;2.7456033;2.1963649;3.9205194;-8.653817;2.4313316;0.1546594;-0.4021217;0.043420505;0.2829783;-0.5408591;-0.02287885
258;-2.4275753;2.7456033;2.1963649;3.9205194;-8.653817;2.4313316;0.1546594;-0.4021217;0.043420505;0.2829783;-0.5408591;-0.02287885
259;-2.4275753;2.7456033;2.1963649;3.9205194;-8.653817;2.4313316;0.1546594;-0.4021217;0.043420505;0.2829783;-0.5408591;-0.02287885
260;-2.4275753;2.7456033;2.1963649;3.9205194;-8.653817;2.4313316;0.1546594;-0.4021217;0.043420505;0.2829783;-0.5408591;-0.02287885
261;-2.4275753;2.7456033;2.1963649;3.9205194;-8.653817;2.4313316;0.1546594;-0.4021217;0.043420505;0.2829783;-0.5408591;-0.02287885
262;-2.4275753;2.7456033;2.1963649;3.9205194;-8.653817;2.4313316;0.1546594;-0.4021217;0.043420505;0.2829783;-0.5408591;-0.02287885
263;-2.4318383;2.7481894;2.1686406;3.9206545;-8.682079;2.3281634;0.07668348;-0.2682447;0.0008005939;0.22685894;0.17720453;-2.4236906
264;-2.4318383;2.7481894;2.1686406;3.9206545;-8.682079;2.3281634;0.07668348;-0.2682447;0.0008005939;0.22685894;0.17720453;-2.4236906
265;-2.4318383;2.7481894;2.1686406;3.9206545;-8.682079;2.3281634;0.07668348;-0.2682447;0.0008005939;0.22685894;0.17720453;-2.4236906
266;-2.4318383;2.7481894;2.1686406;3.9206545;-8.682079;2.3281634;0.07668348;-0.2682447;0.0008005939;0.22685894;0.17720453;-2.4236906
267;-2.4318383;2.7481894;2.1686406;3.9206545;-8.682079;2.3281634;0.07668348;-0.2682447;0.0008005939;0.22685894;0.17720453;-2.4236906
268;-2.4318383;2.7481894;2.1686406;3.9206545;-8.682079;2.3281634;0.07668348;-0.2682447;0.0008005939;0.22685894;0.17720453;-2.4236906
269;-2.4352927;2.7500052;2.141432;3.9250555;-8.707107;2.2249978;0.009805146;-0.15495324;-0.03058971;-0.14609979;-0.1553118;0.08641461
270;-2.4352927;2.7500052;2.141432;3.9250555;-8.707107;2.2249978;0.009805146;-0.15495324;-0.03058971;-0.14609979;-0.1553118;0.08641461
271;-2.4352927;2.7500052;2.141432;3.9250555;-8.707107;2.2249978;0.009805146;-0.15495324;-0.03058971;-0.14609979;-0.1553118;0.08641461
272;-2.4352927;2.7500052;2.141432;3.9250555;-8.707107;2.2249978;0.009805146;-0.15495324;-0.03058971;-0.14609979;-0.1553118;0.08641461
273;-2.4352927;2.7500052;2.141432;3.9250555;-8.707107;2.2249978;0.009805146;-0.15495324;-0.03058971;-0.14609979;-0.1553118;0.08641461
274;-2.4352927;2.7500052;2.141432;3.9250555;-8.707107;2.2249978;0.009805146;-0.15495324;-0.03058971;-0.14609979;-0.1553118;0.08641461
275;-2.4371235;2.7501464;2.1494727;3.9325044;-8.731355;2.1140552;-0.022415563;-0.091573246;-0.045891486;-0.075052;0.04039078;-0.021541106
276;-2.4371235;2.7501464;2.1494727;3.9325044;-8.731355;2.1140552;-0.022415563;-0.091573246;-0.045891486;-0.075052;0.04039078;-0.021541106
277;-2.4371235;2.7501464;2.1494727;3.9325044;-8.731355;2.1140552;-0.022415563;-0.091573246;-0.045891486;-0.075052;0.04039078;-0.021541106
278;-2.4371235;2.7501464;2.1494727;3.9325044;-8.731355;2.1140552;-0.022415563;-0.091573246;-0.045891486;-0.075052;0.04039078;-0.021541106
279;-2.4371235;2.7501464;2.1494727;3.9325044;-8.731355;2.1140552;-0.022415563;-0.091573246;-0.045891486;-0.075052;0.04039078;-0.021541106
280;-2.4371235;2.7501464;2.1494727;3.9325044;-8.731355;2.1140552;-0.022415563;-0.091573246;-0.045891486;-0.075052;0.04039078;-0.021541106
281;-2.4365337;2.7477896;2.210214;3.9499521;-8.752974;1.9883988;-0.017926063;-0.08045755;-0.04288181;-0.2265413;0.5067766;0.16040742
282;-2.4365337;2.7477896;2.210214;3.9499521;-8.752974;1.9883988;-0.017926063;-0.08045755;-0.04288181;-0.2265413;0.5067766;0.16040742
283;-2.4365337;2.7477896;2.210214;3.9499521;-8.752974;1.9883988;-0.017926063;-0.08045755;-0.04288181;-0.2265413;0.5067766;0.16040742
284;-2.4365337;2.7477896;2.210214;3.9499521;-8.752974;1.9883988;-0.017926063;-0.08045755;-0.04288181;-0.2265413;0.5067766;0.16040742
285;-2.4365337;2.7477896;2.210214;3.9499521;-8.752974;1.9883988;-0.017926063;-0.08045755;-0.04288181;-0.2265413;0.5067766;0.16040742
286;-2.4365337;2.7477896;2.210214;3.9499521;-8.752974;1.9883988;-0.017926063;-0.08045755;-0.04288181;-0.2265413;0.5067766;0.16040742
287;-2.437342;2.747251;2.224858;3.9644146;-8.771022;1.8769614;0.008000615;-0.10083224;-0.028032495;-0.13232537;0.17887653;0.53172934
288;-2.437342;2.747251;2.224858;3.9644146;-8.771022;1.8769614;0.008000615;-0.10083224;-0.028032495;-0.13232537;0.17887653;0.53172934
289;-2.437342;2.747251;2.224858;3.9644146;-8.771022;1.8769614;0.008000615;-0.10083224;-0.028032495;-0.13232537;0.17887653;0.53172934
290;-2.437342;2.747251;2.224858;3.9644146;-8.771022;1.8769614;0.008000615;-0.10083224;-0.028032495;-0.13232537;0.17887653;0.53172934
291;-2.437342;2.747251;2.224858;3.9644146;-8.771022;1.8769614;0.008000615;-0.10083224;-0.028032495;-0.13232537;0.17887653;0.53172934
292;-2.437342;2.747251;2.224858;3.9644146;-8.771022;1.8769614;0.008000615;-0.10083224;-0.028032495;-0.13232537;0.17887653;0.53172934
293;-2.4370716;2.74542;2.273635;3.9835842;-8.78749;1.7554138;0.03882561;-0.12905957;-0.011382911;0.30893147;-0.39145508;-0.08152936
294;-2.4370716;2.74542;2.273635;3.9835842;-8.78749;1.7554138;0.03882561;-0.12905957;-0.011382911;0.30893147;-0.39145508;-0.08152936
295;-2.4370716;2.74542;2.273635;3.9835842;-8.78749;1.7554138;0.03882561;-0.12905957;-0.011382911;0.30893147;-0.39145508;-0.08152936
296;-2.4370716;2.74542;2.273635;3.9835842;-8.78749;1.7554138;0.03882561;-0.12905957;-0.011382911;0.30893147;-0.39145508;-0.08152936
297;-2.4370716;2.74542;2.273635;3.9835842;-8.78749;1.7554138;0.03882561;-0.12905957;-0.011382911;0.30893147;-0.39145508;-0.08152936
298;-2.4370716;2.74542;2.273635;3.9835842;-8.78749;1.7554138;0.03882561;-0.12905957;-0.011382911;0.30893147;-0.39145508;-0.08152936
299;-2.4414427;2.749049;2.1961818;3.9758444;-8.806747;1.6745929;0.068852134;-0.15393439;-0.00090918504;0.091419816;-0.07175092;-1.146047
300;-2.4414427;2.749049;2.1961818;3.9758444;-8.806747;1.6745929;0.068852134;-0.15393439;-0.00090918504;0.091419816;-0.07175092;-1.146047
301;-2.4414427;2.749049;2.1961818;3.9758444;-8.806747;1.6745929;0.068852134;-0.15393439;-0.00090918504;0.091419816;-0.07175092;-1.146047
302;-2.4414427;2.749049;2.1961818;3.9758444;-8.806747;1.6745929;0.068852134;-0.15393439;-0.00090918504;0.091419816;-0.07175092;-1.146047
303;-2.4414427;2.749049;2.1961818;3.9758444;-8.806747;1.6745929;0.068852134;-0.15393439;-0.00090918504;0.091419816;-0.07175092;-1.146047
304;-2.4414427;2.749049;2.1961818;3.9758444;-8.806747;1.6745929;0.068852134;-0.15393439;-0.00090918504;0.091419816;-0.07175092;-1.146047
305;-2.444766;2.751354;2.121359;3.9744914;-8.822299;1.594003;0.092372775;-0.16756791;-0.00071116583;-0.22159927;-0.09432514;0.035272118
306;-2.444766;2.751354;2.121359;3.9744914;-8.822299;1.594003;0.092372775;-0.16756791;-0.00071116583;-0.22159927;-0.09432514;0.035272118
307;-2.444766;2.751354;2.121359;3.9744914;-8.822299;1.594003;0.092372775;-0.16756791;-0.00071116583;-0.22159927;-0.09432514;0.035272118
308;-2.444766;2.751354;2.121359;3.9744914;-8.822299;1.594003;0.092372775;-0.16756791;-0.00071116583;-0.22159927;-0.09432514;0.035272118
309;-2.444766;2.751354;2.121359;3.9744914;-8.822299;1.594003;0.092372775;-0.16756791;-0.00071116583;-0.22159927;-0.09432514;0.035272118
310;-2.444766;2.751354;2.121359;3.9744914;-8.822299;1.594003;0.092372775;-0.16756791;-0.00071116583;-0.22159927;-0.09432514;0.035272118
311;-2.448008;2.753208;2.0617132;3.970183;-8.839199;1.5088362;0.09818347;-0.1607767;-0.010927254;-0.042900566;0.05721997;-0.09983109
312;-2.448008;2.753208;2.0617132;3.970183;-8.839199;1.5088362;0.09818347;-0.1607767;-0.010927254;-0.042900566;0.05721997;-0.09983109
313;-2.448008;2.753208;2.0617132;3.970183;-8.839199;1.5088362;0.09818347;-0.1607767;-0.010927254;-0.042900566;0.05721997;-0.09983109
314;-2.448008;2.753208;2.0617132;3.970183;-8.839199;1.5088362;0.09818347;-0.1607767;-0.010927254;-0.042900566;0.05721997;-0.09983109
315;-2.448008;2.753208;2.0617132;3.970183;-8.839199;1.5088362;0.09818347;-0.1607767;-0.010927254;-0.042900566;0.05721997;-0.09983109
316;-2.448008;2.753208;2.0617132;3.970183;-8.839199;1.5088362;0.09818347;-0.1607767;-0.010927254;-0.042900566;0.05721997;-0.09983109
317;-2.449071;2.7533214;2.0093732;3.9808855;-8.848941;1.4209797;0.086767554;-0.13843247;-0.024249902;-0.0496194;0.10113341;-0.17419417
318;-2.449071;2.7533214;2.0093732;3.9808855;-8.848941;1.4209797;0.086767554;-0.13843247;-0.024249902;-0.0496194;0.10113341;-0.17419417
319;-2.449071;2.7533214;2.0093732;3.9808855;-8.848941;1.4209797;0.086767554;-0.13843247;-0.024249902;-0.0496194;0.10113341;-0.17419417
320;-2.449071;2.7533214;2.0093732;3.9808855;-8.848941;1.4209797;0.086767554;-0.13843247;-0.024249902;-0.0496194;0.10113341;-0.17419417
321;-2.449071;2.7533214;2.0093732;3.9808855;-8.848941;1.4209797;0.086767554;-0.13843247;-0.024249902;-0.0496194;0.10113341;-0.17419417
322;-2.449071;2.7533214;2.0093732;3.9808855;-8.848941;1.4209797;0.086767554;-0.13843247;-0.024249902;-0.0496194;0.10113341;-0.17419417
323;-2.449433;2.752869;2.0137324;3.989907;-8.861472;1.3135303;0.063644014;-0.10767349;-0.030220289;0.16607045;0.17258501;-0.6054135
324;-2.449433;2.752869;2.0137324;3.989907;-8.861472;1.3135303;0.063644014;-0.10767349;-0.030220289;0.16607045;0.17258501;-0.6054135
325;-2.449433;2.752869;2.0137324;3.989907;-8.861472;1.3135303;0.063644014;-0.10767349;-0.030220289;0.16607045;0.17258501;-0.6054135
326;-2.449433;2.752869;2.0137324;3.989907;-8.861472;1.3135303;0.063644014;-0.10767349;-0.030220289;0.16607045;0.17258501;-0.6054135
327;-2.449433;2.752869;2.0137324;3.989907;-8.861472;1.3135303;0.063644014;-0.10767349;-0.030220289;0.16607045;0.17258501;-0.6054135
328;-2.449433;2.752869;2.0137324;3.989907;-8.861472;1.3135303;0.063644014;-0.10767349;-0.030220289;0.16607045;0.17258501;-0.6054135
329;-2.4490283;2.7519355;2.0024462;4.0056005;-8.868854;1.212018;0.0307526;-0.06908422;-0.025620067;0.27261472;-0.22109927;-0.13692138
330;-2.4490283;2.7519355;2.0024462;4.0056005;-8.868854;1.212018;0.0307526;-0.06908422;-0.025620067;0.27261472;-0.22109927;-0.13692138
331;-2.4490283;2.7519355;2.0024462;4.0056005;-8.868854;1.212018;0.0307526;-0.06908422;-0.025620067;0.27261472;-0.22109927;-0.13692138
332;-2.4490283;2.7519355;2.0024462;4.0056005;-8.868854;1.212018;0.0307526;-0.06908422;-0.025620067;0.27261472;-0.22109927;-0.13692138
333;-2.4490283;2.7519355;2.0024462;4.0056005;-8.868854;1.212018;0.0307526;-0.06908422;-0.025620067;0.27261472;-0.22109927;-0.13692138
334;-2.4490283;2.7519355;2.0024462;4.0056005;-8.868854;1.212018;0.0307526;-0.06908422;-0.025620067;0.27261472;-0.22109927;-0.13692138
335;-2.444992;2.7484372;1.9730762;4.0510793;-8.860528;1.1181098;-0.0007281997;-0.032194093;-0.016119404;0.19817619;-0.57608587;-0.92552423
336;-2.444992;2.7484372;1.9730762;4.0510793;-8.860528;1.1181098;-0.0007281997;-0.032194093;-0.016119404;0.19817619;-0.57608587;-0.92552423
337;-2.444992;2.7484372;1.9730762;4.0510793;-8.860528;1.1181098;-0.0007281997;-0.032194093;-0.016119404;0.19817619;-0.57608587;-0.92552423
338;-2.444992;2.7484372;1.9730762;4.0510793;-8.860528;1.1181098;-0.0007281997;-0.032194093;-0.016119404;0.19817619;-0.57608587;-0.92552423
339;-2.444992;2.7484372;1.9730762;4.0510793;-8.860528;1.1181098;-0.0007281997;-0.032194093;-0.016119404;0.19817619;-0.57608587;-0.92552423
340;-2.444992;2.7484372;1.9730762;4.0510793;-8.860528;1.1181098;-0.0007281997;-0.032194093;-0.016119404;0.19817619;-0.57608587;-0.92552423
341;-2.444992;2.7484372;1.9730762;4.0510793;-8.860528;1.1181098;-0.0007281997;-0.032194093;-0.016119404;0.19817619;-0.57608587;-0.92552423
342;-2.4420805;2.7458053;1.9474365;4.0853934;-8.855964;1.0256028;-0.012638098;-0.012830794;-0.006482468;0.16164872;0.08577411;-0.27014264
343;-2.4420805;2.7458053;1.9474365;4.0853934;-8.855964;1.0256028;-0.012638098;-0.012830794;-0.006482468;0.16164872;0.08577411;-0.27014264
344;-2.4420805;2.7458053;1.9474365;4.0853934;-8.855964;1.0256028;-0.012638098;-0.012830794;-0.006482468;0.16164872;0.08577411;-0.27014264
345;-2.4420805;2.7458053;1.9474365;4.0853934;-8.855964;1.0256028;-0.012638098;-0.012830794;-0.006482468;0.16164872;0.08577411;-0.27014264
346;-2.4420805;2.7458053;1.9474365;4.0853934;-8.855964;1.0256028;-0.012638098;-0.012830794;-0.006482468;0.16164872;0.08577411;-0.27014264
347;-2.439832;2.7436497;1.8715264;4.1154895;-8.850331;0.95120203;-0.002017454;-0.0121217575;0.0044501093;0.059283957;-0.07961051;-0.017561981
348;-2.439832;2.7436497;1.8715264;4.1154895;-8.850331;0.95120203;-0.002017454;-0.0121217575;0.0044501093;0.059283957;-0.07961051;-0.017561981
349;-2.439832;2.7436497;1.8715264;4.1154895;-8.850331;0.95120203;-0.002017454;-0.0121217575;0.0044501093;0.059283957;-0.07961051;-0.017561981
350;-2.439832;2.7436497;1.8715264;4.1154895;-8.850331;0.95120203;-0.002017454;-0.0121217575;0.0044501093;0.059283957;-0.07961051;-0.017561981
351;-2.439832;2.7436497;1.8715264;4.1154895;-8.850331;0.95120203;-0.002017454;-0.0121217575;0.0044501093;0.059283957;-0.07961051;-0.017561981
352;-2.439832;2.7436497;1.8715264;4.1154895;-8.850331;0.95120203;-0.002017454;-0.0121217575;0.0044501093;0.059283957;-0.07961051;-0.017561981
353;-2.4361336;2.7403402;1.7676924;4.157872;-8.837053;0.8882481;0.013794275;-0.0153933335;0.016753918;-0.088687286;0.1545734;-0.080600545
354;-2.4361336;2.7403402;1.7676924;4.157872;-8.837053;0.8882481;0.013794275;-0.0153933335;0.016753918;-0.088687286;0.1545734;-0.080600545
355;-2.4361336;2.7403402;1.7676924;4.157872;-8.837053;0.8882481;0.013794275;-0.0153933335;0.016753918;-0.088687286;0.1545734;-0.080600545
356;-2.4361336;2.7403402;1.7676924;4.157872;-8.837053;0.8882481;0.013794275;-0.0153933335;0.016753918;-0.088687286;0.1545734;-0.080600545
357;-2.4361336;2.7403402;1.7676924;4.157872;-8.837053;0.8882481;0.013794275;-0.0153933335;0.016753918;-0.088687286;0.1545734;-0.080600545
358;-2.4361336;2.7403402;1.7676924;4.157872;-8.837053;0.8882481;0.013794275;-0.0153933335;0.016753918;-0.088687286;0.1545734;-0.080600545
359;-2.4327745;2.7370741;1.6399659;4.1981897;-8.822893;0.8379471;0.014822697;-0.0095262155;0.023099048;0.102858365;0.14234965;-0.66170275
360;-2.4327745;2.7370741;1.6399659;4.1981897;-8.822893;0.8379471;0.014822697;-0.0095262155;0.023099048;0.102858365;0.14234965;-0.66170275
361;-2.4327745;2.7370741;1.6399659;4.1981897;-8.822893;0.8379471;0.014822697;-0.0095262155;0.023099048;0.102858365;0.14234965;-0.66170275
362;-2.4327745;2.7370741;1.6399659;4.1981897;-8.822893;0.8379471;0.014822697;-0.0095262155;0.023099048;0.102858365;0.14234965;-0.66170275
363;-2.4327745;2.7370741;1.6399659;4.1981897;-8.822893;0.8379471;0.014822697;-0.0095262155;0.023099048;0.102858365;0.14234965;-0.66170275
364;-2.4327745;2.7370741;1.6399659;4.1981897;-8.822893;0.8379471;0.014822697;-0.0095262155;0.023099048;0.102858365;0.14234965;-0.66170275
365;-2.4300008;2.7332165;1.4438157;4.2420244;-8.802758;0.8288971;-0.00097093295;0.00360906;0.016182216;0.2679163;-0.31052023;-0.09006739
366;-2.4300008;2.7332165;1.4438157;4.2420244;-8.802758;0.8288971;-0.00097093295;0.00360906;0.016182216;0.2679163;-0.31052023;-0.09006739
367;-2.4300008;2.7332165;1.4438157;4.2420244;-8.802758;0.8288971;-0.00097093295;0.00360906;0.016182216;0.2679163;-0.31052023;-0.09006739
368;-2.4300008;2.7332165;1.4438157;4.2420244;-8.802758;0.8288971;-0.00097093295;0.00360906;0.016182216;0.2679163;-0.31052023;-0.09006739
369;-2.4300008;2.7332165;1.4438157;4.2420244;-8.802758;0.8288971;-0.00097093295;0.00360906;0.016182216;0.2679163;-0.31052023;-0.09006739
370;-2.4300008;2.7332165;1.4438157;4.2420244;-8.802758;0.8288971;-0.00097093295;0.00360906;0.016182216;0.2679163;-0.31052023;-0.09006739
371;-2.4276123;2.7299469;1.3356798;4.276262;-8.788512;0.8037677;-0.010265061;0.0066932626;0.0023634552;0.42369795;-0.44378757;-0.0037922345
372;-2.4276123;2.7299469;1.3356798;4.276262;-8.788512;0.8037677;-0.010265061;0.0066932626;0.0023634552;0.42369795;-0.44378757;-0.0037922345
373;-2.4276123;2.7299469;1.3356798;4.276262;-8.788512;0.8037677;-0.010265061;0.0066932626;0.0023634552;0.42369795;-0.44378757;-0.0037922345
374;-2.4276123;2.7299469;1.3356798;4.276262;-8.788512;0.8037677;-0.010265061;0.0066932626;0.0023634552;0.42369795;-0.44378757;-0.0037922345
375;-2.4276123;2.7299469;1.3356798;4.276262;-8.788512;0.8037677;-0.010265061;0.0066932626;0.0023634552;0.42369795;-0.44378757;-0.0037922345
376;-2.4276123;2.7299469;1.3356798;4.276262;-8.788512;0.8037677;-0.010265061;0.0066932626;0.0023634552;0.42369795;-0.44378757;-0.0037922345
377;-2.425053;2.7261395;1.2438686;4.314276;-8.7704;0.798428;0.014247802;-0.01726174;-0.0037985623;-0.24895316;0.018838517;0.04789167
378;-2.425053;2.7261395;1.2438686;4.314276;-8.7704;0.798428;0.014247802;-0.01726174;-0.0037985623;-0.24895316;0.018838517;0.04789167
379;-2.425053;2.7261395;1.2438686;4.314276;-8.7704;0.798428;0.014247802;-0.01726174;-0.0037985623;-0.24895316;0.018838517;0.04789167
380;-2.425053;2.7261395;1.2438686;4.314276;-8.7704;0.798428;0.014247802;-0.01726174;-0.0037985623;-0.24895316;0.018838517;0.04789167
381;-2.425053;2.7261395;1.2438686;4.314276;-8.7704;0.798428;0.014247802;-0.01726174;-0.0037985623;-0.24895316;0.018838517;0.04789167
382;-2.425053;2.7261395;1.2438686;4.314276;-8.7704;0.798428;0.014247802;-0.01726174;-0.0037985623;-0.24895316;0.018838517;0.04789167
383;-2.425053;2.7261395;1.2438686;4.355352;-8.751414;0.7836198;0.066063896;-0.058972467;0.0028212417;-0.03634131;0.0637279;-0.2254974
384;-2.425053;2.7261395;1.2438686;4.355352;-8.751414;0.7836198;0.066063896;-0.058972467;0.0028212417;-0.03634131;0.0637279;-0.2254974
385;-2.425053;2.7261395;1.2438686;4.355352;-8.751414;0.7836198;0.066063896;-0.058972467;0.0028212417;-0.03634131;0.0637279;-0.2254974
386;-2.425053;2.7261395;1.2438686;4.355352;-8.751414;0.7836198;0.066063896;-0.058972467;0.0028212417;-0.03634131;0.0637279;-0.2254974
387;-2.425053;2.7261395;1.2438686;4.355352;-8.751414;0.7836198;0.066063896;-0.058972467;0.0028212417;-0.03634131;0.0637279;-0.2254974
388;-2.425053;2.7261395;1.2438686;4.355352;-8.751414;0.7836198;0.066063896;-0.058972467;0.0028212417;-0.03634131;0.0637279;-0.2254974
389;-2.421705;2.7223964;1.1884755;4.3528495;-8.75338;0.77551365;0.10515566;-0.085287735;0.014592739;-0.27528426;0.66146743;0.10510578
390;-2.421705;2.7223964;1.1884755;4.3528495;-8.75338;0.77551365;0.10515566;-0.085287735;0.014592739;-0.27528426;0.66146743;0.10510578
391;-2.421705;2.7223964;1.1884755;4.3528495;-8.75338;0.77551365;0.10515566;-0.085287735;0.014592739;-0.27528426;0.66146743;0.10510578
392;-2.421705;2.7223964;1.1884755;4.3528495;-8.75338;0.77551365;0.10515566;-0.085287735;0.014592739;-0.27528426;0.66146743;0.10510578
393;-2.421705;2.7223964;1.1884755;4.3528495;-8.75338;0.77551365;0.10515566;-0.085287735;0.014592739;-0.27528426;0.66146743;0.10510578
394;-2.421705;2.7223964;1.1884755;4.3528495;-8.75338;0.77551365;0.10515566;-0.085287735;0.014592739;-0.27528426;0.66146743;0.10510578
395;-2.421705;2.7223964;1.1884755;4.3218694;-8.768137;0.78204155;0.10292422;-0.074809745;0.023819797;-0.31553894;0.09960802;-0.28569633
396;-2.421705;2.7223964;1.1884755;4.3218694;-8.768137;0.78204155;0.10292422;-0.074809745;0.023819797;-0.31553894;0.09960802;-0.28569633
397;-2.421705;2.7223964;1.1884755;4.3218694;-8.768137;0.78204155;0.10292422;-0.074809745;0.023819797;-0.31553894;0.09960802;-0.28569633
398;-2.421705;2.7223964;1.1884755;4.3218694;-8.768137;0.78204155;0.10292422;-0.074809745;0.023819797;-0.31553894;0.09960802;-0.28569633
399;-2.421705;2.7223964;1.1884755;4.3218694;-8.768137;0.78204155;0.10292422;-0.074809745;0.023819797;-0.31553894;0.09960802;-0.28569633
400;-2.421705;2.7223964;1.1884755;4.3218694;-8.768137;0.78204155;0.10292422;-0.074809745;0.023819797;-0.31553894;0.09960802;-0.28569633
401;-2.421705;2.7223964;1.1884755;4.2960587;-8.779824;0.79306746;0.07475652;-0.04127104;0.033159703;0.32809317;-0.5112379;-0.27139333
402;-2.421705;2.7223964;1.1884755;4.2960587;-8.779824;0.79306746;0.07475652;-0.04127104;0.033159703;0.32809317;-0.5112379;-0.27139333
403;-2.421705;2.7223964;1.1884755;4.2960587;-8.779824;0.79306746;0.07475652;-0.04127104;0.033159703;0.32809317;-0.5112379;-0.27139333
404;-2.421705;2.7223964;1.1884755;4.2960587;-8.779824;0.79306746;0.07475652;-0.04127104;0.033159703;0.32809317;-0.5112379;-0.27139333
405;-2.421705;2.7223964;1.1884755;4.2960587;-8.779824;0.79306746;0.07475652;-0.04127104;0.033159703;0.32809317;-0.5112379;-0.27139333
406;-2.421705;2.7223964;1.1884755;4.2960587;-8.779824;0.79306746;0.07475652;-0.04127104;0.033159703;0.32809317;-0.5112379;-0.27139333
407;-2.421705;2.7223964;1.1884755;4.2779193;-8.784859;0.8343008;0.053911265;-0.013408883;0.04510154;0.19738194;0.3043758;-0.77971
408;-2.421705;2.7223964;1.1884755;4.2779193;-8.784859;0.8343008;0.053911265;-0.013408883;0.04510154;0.19738194;0.3043758;-0.77971
409;-2.421705;2.7223964;1.1884755;4.2779193;-8.784859;0.8343008;0.053911265;-0.013408883;0.04510154;0.19738194;0.3043758;-0.77971
410;-2.421705;2.7223964;1.1884755;4.2779193;-8.784859;0.8343008;0.053911265;-0.013408883;0.04510154;0.19738194;0.3043758;-0.77971
411;-2.421705;2.7223964;1.1884755;4.2779193;-8.784859;0.8343008;0.053911265;-0.013408883;0.04510154;0.19738194;0.3043758;-0.77971
412;-2.421705;2.7223964;1.1884755;4.2779193;-8.784859;0.8343008;0.053911265;-0.013408883;0.04510154;0.19738194;0.3043758;-0.77971
413;-2.4361174;2.7313783;1.1778625;4.243046;-8.798825;0.86465526;0.051891685;-0.0036580325;0.053867616;-0.059016056;-0.19687682;0.040975466
414;-2.4361174;2.7313783;1.1778625;4.243046;-8.798825;0.86465526;0.051891685;-0.0036580325;0.053867616;-0.059016056;-0.19687682;0.040975466
415;-2.4361174;2.7313783;1.1778625;4.243046;-8.798825;0.86465526;0.051891685;-0.0036580325;0.053867616;-0.059016056;-0.19687682;0.040975466
416;-2.4361174;2.7313783;1.1778625;4.243046;-8.798825;0.86465526;0.051891685;-0.0036580325;0.053867616;-0.059016056;-0.19687682;0.040975466
417;-2.4361174;2.7313783;1.1778625;4.243046;-8.798825;0.86465526;0.051891685;-0.0036580325;0.053867616;-0.059016056;-0.19687682;0.040975466
418;-2.4361174;2.7313783;1.1778625;4.243046;-8.798825;0.86465526;0.051891685;-0.0036580325;0.053867616;-0.059016056;-0.19687682;0.040975466
419;-2.4361174;2.7313783;1.1778625;4.2009172;-8.818249;0.8724563;0.05920349;-0.006456917;0.054245558;-0.04036915;0.079368256;-0.11100905
420;-2.4361174;2.7313783;1.1778625;4.2009172;-8.818249;0.8724563;0.05920349;-0.006456917;0.054245558;-0.04036915;0.079368256;-0.11100905
421;-2.4361174;2.7313783;1.1778625;4.2009172;-8.818249;0.8724563;0.05920349;-0.006456917;0.054245558;-0.04036915;0.079368256;-0.11100905
422;-2.4361174;2.7313783;1.1778625;4.2009172;-8.818249;0.8724563;0.05920349;-0.006456917;0.054245558;-0.04036915;0.079368256;-0.11100905
423;-2.4361174;2.7313783;1.1778625;4.2009172;-8.818249;0.8724563;0.05920349;-0.006456917;0.054245558;-0.04036915;0.079368256;-0.11100905
424;-2.4361174;2.7313783;1.1778625;4.2009172;-8.818249;0.8724563;0.05920349;-0.006456917;0.054245558;-0.04036915;0.079368256;-0.11100905
425;-2.4361174;2.7313783;1.1778625;4.148343;-8.838471;0.91818714;0.05812929;-0.0057585267;0.049829517;-0.038894795;-0.14722568;0.48134205
426;-2.4361174;2.7313783;1.1778625;4.148343;-8.838471;0.91818714;0.05812929;-0.0057585267;0.049829517;-0.038894795;-0.14722568;0.48134205
427;-2.4361174;2.7313783;1.1778625;4.148343;-8.838471;0.91818714;0.05812929;-0.0057585267;0.049829517;-0.038894795;-0.14722568;0.48134205
428;-2.4361174;2.7313783;1.1778625;4.148343;-8.838471;0.91818714;0.05812929;-0.0057585267;0.049829517;-0.038894795;-0.14722568;0.48134205
429;-2.4361174;2.7313783;1.1778625;4.148343;-8.838471;0.91818714;0.05812929;-0.0057585267;0.049829517;-0.038894795;-0.14722568;0.48134205
430;-2.4361174;2.7313783;1.1778625;4.148343;-8.838471;0.91818714;0.05812929;-0.0057585267;0.049829517;-0.038894795;-0.14722568;0.48134205
431;-2.4537857;2.742499;1.1756845;4.1098824;-8.851264;0.96663046;0.031370077;0.016753918;0.048260264;-0.34691048;-0.035775326;0.12605196
432;-2.4537857;2.742499;1.1756845;4.1098824;-8.851264;0.96663046;0.031370077;0.016753918;0.048260264;-0.34691048;-0.035775326;0.12605196
433;-2.4537857;2.742499;1.1756845;4.1098824;-8.851264;0.96663046;0.031370077;0.016753918;0.048260264;-0.34691048;-0.035775326;0.12605196
434;-2.4537857;2.742499;1.1756845;4.1098824;-8.851264;0.96663046;0.031370077;0.016753918;0.048260264;-0.34691048;-0.035775326;0.12605196
435;-2.4537857;2.742499;1.1756845;4.1098824;-8.851264;0.96663046;0.031370077;0.016753918;0.048260264;-0.34691048;-0.035775326;0.12605196
436;-2.4537857;2.742499;1.1756845;4.1098824;-8.851264;0.96663046;0.031370077;0.016753918;0.048260264;-0.34691048;-0.035775326;0.12605196
437;-2.4537857;2.742499;1.1756845;4.051401;-8.875649;0.98964083;-0.014917448;0.05896395;0.05449468;0.13621852;-0.026058251;-0.0038813741
438;-2.4537857;2.742499;1.1756845;4.051401;-8.875649;0.98964083;-0.014917448;0.05896395;0.05449468;0.13621852;-0.026058251;-0.0038813741
439;-2.4537857;2.742499;1.1756845;4.051401;-8.875649;0.98964083;-0.014917448;0.05896395;0.05449468;0.13621852;-0.026058251;-0.0038813741
440;-2.4537857;2.742499;1.1756845;4.051401;-8.875649;0.98964083;-0.014917448;0.05896395;0.05449468;0.13621852;-0.026058251;-0.0038813741
441;-2.4537857;2.742499;1.1756845;4.051401;-8.875649;0.98964083;-0.014917448;0.05896395;0.05449468;0.13621852;-0.026058251;-0.0038813741
442;-2.4537857;2.742499;1.1756845;4.051401;-8.875649;0.98964083;-0.014917448;0.05896395;0.05449468;0.13621852;-0.026058251;-0.0038813741
443;-2.46977;2.7515774;1.1746832;3.9997714;-8.887016;1.0923263;-0.05279235;0.097099684;0.06426363;0.033332713;0.27297327;-0.8349228
444;-2.46977;2.7515774;1.1746832;3.9997714;-8.887016;1.0923263;-0.05279235;0.097099684;0.06426363;0.033332713;0.27297327;-0.8349228
445;-2.46977;2.7515774;1.1746832;3.9997714;-8.887016;1.0923263;-0.05279235;0.097099684;0.06426363;0.033332713;0.27297327;-0.8349228
446;-2.46977;2.7515774;1.1746832;3.9997714;-8.887016;1.0923263;-0.05279235;0.097099684;0.06426363;0.033332713;0.27297327;-0.8349228
447;-2.46977;2.7515774;1.1746832;3.9997714;-8.887016;1.0923263;-0.05279235;0.097099684;0.06426363;0.033332713;0.27297327;-0.8349228
448;-2.46977;2.7515774;1.1746832;3.9997714;-8.887016;1.0923263;-0.05279235;0.097099684;0.06426363;0.033332713;0.27297327;-0.8349228
449;-2.46977;2.7515774;1.1746832;3.9336195;-8.903621;1.19271;-0.06662921;0.11536323;0.06790037;-0.1154518;0.1712172;0.42048922
450;-2.46977;2.7515774;1.1746832;3.9336195;-8.903621;1.19271;-0.06662921;0.11536323;0.06790037;-0.1154518;0.1712172;0.42048922
451;-2.46977;2.7515774;1.1746832;3.9336195;-8.903621;1.19271;-0.06662921;0.11536323;0.06790037;-0.1154518;0.1712172;0.42048922
452;-2.46977;2.7515774;1.1746832;3.9336195;-8.903621;1.19271;-0.06662921;0.11536323;0.06790037;-0.1154518;0.1712172;0.42048922
453;-2.46977;2.7515774;1.1746832;3.9336195;-8.903621;1.19271;-0.06662921;0.11536323;0.06790037;-0.1154518;0.1712172;0.42048922
454;-2.46977;2.7515774;1.1746832;3.9336195;-8.903621;1.19271;-0.06662921;0.11536323;0.06790037;-0.1154518;0.1712172;0.42048922
455;-2.4913206;2.7616458;1.1669549;3.8718543;-8.915073;1.304071;-0.064130545;0.11693461;0.058913913;-0.049018957;-0.021779062;-0.072380885
456;-2.4913206;2.7616458;1.1669549;3.8718543;-8.915073;1.304071;-0.064130545;0.11693461;0.058913913;-0.049018957;-0.021779062;-0.072380885
457;-2.4913206;2.7616458;1.1669549;3.8718543;-8.915073;1.304071;-0.064130545;0.11693461;0.058913913;-0.049018957;-0.021779062;-0.072380885
458;-2.4913206;2.7616458;1.1669549;3.8718543;-8.915073;1.304071;-0.064130545;0.11693461;0.058913913;-0.049018957;-0.021779062;-0.072380885
459;-2.4913206;2.7616458;1.1669549;3.8718543;-8.915073;1.304071;-0.064130545;0.11693461;0.058913913;-0.049018957;-0.021779062;-0.072380885
460;-2.4913206;2.7616458;1.1669549;3.8718543;-8.915073;1.304071;-0.064130545;0.11693461;0.058913913;-0.049018957;-0.021779062;-0.072380885
461;-2.4959762;2.7630453;1.1726471;3.8518996;-8.909861;1.3955765;-0.06501099;0.11535685;0.034667205;-0.3185396;0.2711327;-0.11040019
462;-2.4959762;2.7630453;1.1726471;3.8518996;-8.909861;1.3955765;-0.06501099;0.11535685;0.034667205;-0.3185396;0.2711327;-0.11040019
463;-2.4959762;2.7630453;1.1726471;3.8518996;-8.909861;1.3955765;-0.06501099;0.11535685;0.034667205;-0.3185396;0.2711327;-0.11040019
464;-2.4959762;2.7630453;1.1726471;3.8518996;-8.909861;1.3955765;-0.06501099;0.11535685;0.034667205;-0.3185396;0.2711327;-0.11040019
465;-2.4959762;2.7630453;1.1726471;3.8518996;-8.909861;1.3955765;-0.06501099;0.11535685;0.034667205;-0.3185396;0.2711327;-0.11040019
466;-2.4959762;2.7630453;1.1726471;3.8518996;-8.909861;1.3955765;-0.06501099;0.11535685;0.034667205;-0.3185396;0.2711327;-0.11040019
467;-2.4959762;2.7630453;1.1726471;3.834241;-8.903482;1.4822263;-0.07842839;0.12051492;0.0030682334;-0.13924937;0.024797086;-0.02688591
468;-2.4959762;2.7630453;1.1726471;3.834241;-8.903482;1.4822263;-0.07842839;0.12051492;0.0030682334;-0.13924937;0.024797086;-0.02688591
469;-2.4959762;2.7630453;1.1726471;3.834241;-8.903482;1.4822263;-0.07842839;0.12051492;0.0030682334;-0.13924937;0.024797086;-0.02688591
470;-2.4959762;2.7630453;1.1726471;3.834241;-8.903482;1.4822263;-0.07842839;0.12051492;0.0030682334;-0.13924937;0.024797086;-0.02688591
471;-2.4959762;2.7630453;1.1726471;3.834241;-8.903482;1.4822263;-0.07842839;0.12051492;0.0030682334;-0.13924937;0.024797086;-0.02688591
472;-2.4959762;2.7630453;1.1726471;3.834241;-8.903482;1.4822263;-0.07842839;0.12051492;0.0030682334;-0.13924937;0.024797086;-0.02688591
473;-2.5055387;2.7635002;1.1728234;3.830927;-8.881551;1.6163014;-0.09320637;0.12837075;-0.022771146;0.24016564;-0.3288025;-0.16306975
474;-2.5055387;2.7635002;1.1728234;3.830927;-8.881551;1.6163014;-0.09320637;0.12837075;-0.022771146;0.24016564;-0.3288025;-0.16306975
475;-2.5055387;2.7635002;1.1728234;3.830927;-8.881551;1.6163014;-0.09320637;0.12837075;-0.022771146;0.24016564;-0.3288025;-0.16306975
476;-2.5055387;2.7635002;1.1728234;3.830927;-8.881551;1.6163014;-0.09320637;0.12837075;-0.022771146;0.24016564;-0.3288025;-0.16306975
477;-2.5055387;2.7635002;1.1728234;3.830927;-8.881551;1.6163014;-0.09320637;0.12837075;-0.022771146;0.24016564;-0.3288025;-0.16306975
478;-2.5055387;2.7635002;1.1728234;3.830927;-8.881551;1.6163014;-0.09320637;0.12837075;-0.022771146;0.24016564;-0.3288025;-0.16306975
479;-2.5055387;2.7635002;1.1728234;3.8039544;-8.87887;1.6929209;-0.0859446;0.12109834;-0.02949209;0.058278248;-0.06592378;-0.05958904
480;-2.5055387;2.7635002;1.1728234;3.8039544;-8.87887;1.6929209;-0.0859446;0.12109834;-0.02949209;0.058278248;-0.06592378;-0.05958904
481;-2.5055387;2.7635002;1.1728234;3.8039544;-8.87887;1.6929209;-0.0859446;0.12109834;-0.02949209;0.058278248;-0.06592378;-0.05958904
482;-2.5055387;2.7635002;1.1728234;3.8039544;-8.87887;1.6929209;-0.0859446;0.12109834;-0.02949209;0.058278248;-0.06592378;-0.05958904
483;-2.5055387;2.7635002;1.1728234;3.8039544;-8.87887;1.6929209;-0.0859446;0.12109834;-0.02949209;0.058278248;-0.06592378;-0.05958904
484;-2.5055387;2.7635002;1.1728234;3.8039544;-8.87887;1.6929209;-0.0859446;0.12109834;-0.02949209;0.058278248;-0.06592378;-0.05958904
485;-2.5163107;2.7677608;1.1849809;3.7774167;-8.874121;1.7752415;-0.04139134;0.08189798;-0.0122771915;-0.16700698;-0.39052367;0.014697861
486;-2.5163107;2.7677608;1.1849809;3.7774167;-8.874121;1.7752415;-0.04139134;0.08189798;-0.0122771915;-0.16700698;-0.39052367;0.014697861
487;-2.5163107;2.7677608;1.1849809;3.7774167;-8.874121;1.7752415;-0.04139134;0.08189798;-0.0122771915;-0.16700698;-0.39052367;0.014697861
488;-2.5163107;2.7677608;1.1849809;3.7774167;-8.874121;1.7752415;-0.04139134;0.08189798;-0.0122771915;-0.16700698;-0.39052367;0.014697861
489;-2.5163107;2.7677608;1.1849809;3.7774167;-8.874121;1.7752415;-0.04139134;0.08189798;-0.0122771915;-0.16700698;-0.39052367;0.014697861
490;-2.5163107;2.7677608;1.1849809;3.7774167;-8.874121;1.7752415;-0.04139134;0.08189798;-0.0122771915;-0.16700698;-0.39052367;0.014697861
491;-2.524674;2.770636;1.1844796;3.7385907;-8.871398;1.8685896;0.023441857;0.021113534;0.020541834;-0.488239;0.31263825;0.054964654
492;-2.524674;2.770636;1.1844796;3.7385907;-8.871398;1.8685896;0.023441857;0.021113534;0.020541834;-0.488239;0.31263825;0.054964654
493;-2.524674;2.770636;1.1844796;3.7385907;-8.871398;1.8685896;0.023441857;0.021113534;0.020541834;-0.488239;0.31263825;0.054964654
494;-2.524674;2.770636;1.1844796;3.7385907;-8.871398;1.8685896;0.023441857;0.021113534;0.020541834;-0.488239;0.31263825;0.054964654
495;-2.524674;2.770636;1.1844796;3.7385907;-8.871398;1.8685896;0.023441857;0.021113534;0.020541834;-0.488239;0.31263825;0.054964654
496;-2.524674;2.770636;1.1844796;3.7385907;-8.871398;1.8685896;0.023441857;0.021113534;0.020541834;-0.488239;0.31263825;0.054964654
497;-2.524674;2.770636;1.1844796;3.6813726;-8.875561;1.9601812;0.07106016;-0.028333783;0.050753605;-0.07282907;0.17456566;-0.014285161
498;-2.524674;2.770636;1.1844796;3.6813726;-8.875561;1.9601812;0.07106016;-0.028333783;0.050753605;-0.07282907;0.17456566;-0.014285161
499;-2.524674;2.770636;1.1844796;3.6813726;-8.875561;1.9601812;0.07106016;-0.028333783;0.050753605;-0.07282907;0.17456566;-0.014285161
500;-2.524674;2.770636;1.1844796;3.6813726;-8.875561;1.9601812;0.07106016;-0.028333783;0.050753605;-0.07282907;0.17456566;-0.014285161
501;-2.524674;2.770636;1.1844796;3.6813726;-8.875561;1.9601812;0.07106016;-0.028333783;0.050753605;-0.07282907;0.17456566;-0.014285161
502;-2.524674;2.770636;1.1844796;3.6813726;-8.875561;1.9601812;0.07106016;-0.028333783;0.050753605;-0.07282907;0.17456566;-0.014285161
503;-2.551368;2.778955;1.1682386;3.620689;-8.870855;2.0901964;0.0846085;-0.049501613;0.06060027;0.416909;-0.5434587;-0.07083216
504;-2.551368;2.778955;1.1682386;3.620689;-8.870855;2.0901964;0.0846085;-0.049501613;0.06060027;0.416909;-0.5434587;-0.07083216
505;-2.551368;2.778955;1.1682386;3.620689;-8.870855;2.0901964;0.0846085;-0.049501613;0.06060027;0.416909;-0.5434587;-0.07083216
506;-2.551368;2.778955;1.1682386;3.620689;-8.870855;2.0901964;0.0846085;-0.049501613;0.06060027;0.416909;-0.5434587;-0.07083216
507;-2.551368;2.778955;1.1682386;3.620689;-8.870855;2.0901964;0.0846085;-0.049501613;0.06060027;0.416909;-0.5434587;-0.07083216
508;-2.551368;2.778955;1.1682386;3.620689;-8.870855;2.0901964;0.0846085;-0.049501613;0.06060027;0.416909;-0.5434587;-0.07083216
509;-2.565564;2.7849004;1.1642292;3.5468547;-8.880271;2.1750813;0.08198315;-0.058123965;0.05167663;0.06477398;-0.05679242;-3.4213812
510;-2.565564;2.7849004;1.1642292;3.5468547;-8.880271;2.1750813;0.08198315;-0.058123965;0.05167663;0.06477398;-0.05679242;-3.4213812
511;-2.565564;2.7849004;1.1642292;3.5468547;-8.880271;2.1750813;0.08198315;-0.058123965;0.05167663;0.06477398;-0.05679242;-3.4213812
512;-2.565564;2.7849004;1.1642292;3.5468547;-8.880271;2.1750813;0.08198315;-0.058123965;0.05167663;0.06477398;-0.05679242;-3.4213812
513;-2.565564;2.7849004;1.1642292;3.5468547;-8.880271;2.1750813;0.08198315;-0.058123965;0.05167663;0.06477398;-0.05679242;-3.4213812
514;-2.565564;2.7849004;1.1642292;3.5468547;-8.880271;2.1750813;0.08198315;-0.058123965;0.05167663;0.06477398;-0.05679242;-3.4213812
515;-2.565564;2.7849004;1.1642292;3.4907072;-8.89122;2.2207124;0.077855624;-0.06723178;0.037205257;-0.06493051;-0.27365503;0.15773056
516;-2.565564;2.7849004;1.1642292;3.4907072;-8.89122;2.2207124;0.077855624;-0.06723178;0.037205257;-0.06493051;-0.27365503;0.15773056
517;-2.565564;2.7849004;1.1642292;3.4907072;-8.89122;2.2207124;0.077855624;-0.06723178;0.037205257;-0.06493051;-0.27365503;0.15773056
518;-2.565564;2.7849004;1.1642292;3.4907072;-8.89122;2.2207124;0.077855624;-0.06723178;0.037205257;-0.06493051;-0.27365503;0.15773056
519;-2.565564;2.7849004;1.1642292;3.4907072;-8.89122;2.2207124;0.077855624;-0.06723178;0.037205257;-0.06493051;-0.27365503;0.15773056
520;-2.565564;2.7849004;1.1642292;3.4907072;-8.89122;2.2207124;0.077855624;-0.06723178;0.037205257;-0.06493051;-0.27365503;0.15773056
521;-2.5821998;2.7937906;1.1683507;3.4472475;-8.896578;2.2666633;0.063482195;-0.065920174;0.022898901;-0.38517052;0.30274978;0.038433656
522;-2.5821998;2.7937906;1.1683507;3.4472475;-8.896578;2.2666633;0.063482195;-0.065920174;0.022898901;-0.38517052;0.30274978;0.038433656
523;-2.5821998;2.7937906;1.1683507;3.4472475;-8.896578;2.2666633;0.063482195;-0.065920174;0.022898901;-0.38517052;0.30274978;0.038433656
524;-2.5821998;2.7937906;1.1683507;3.4472475;-8.896578;2.2666633;0.063482195;-0.065920174;0.022898901;-0.38517052;0.30274978;0.038433656
525;-2.5821998;2.7937906;1.1683507;3.4472475;-8.896578;2.2666633;0.063482195;-0.065920174;0.022898901;-0.38517052;0.30274978;0.038433656
526;-2.5821998;2.7937906;1.1683507;3.4472475;-8.896578;2.2666633;0.063482195;-0.065920174;0.022898901;-0.38517052;0.30274978;0.038433656
527;-2.5821998;2.7937906;1.1683507;3.4163089;-8.904409;2.2826984;0.026621874;-0.03854029;0.0047907876;-0.11400413;0.20676912;-0.62767196
528;-2.5821998;2.7937906;1.1683507;3.4163089;-8.904409;2.2826984;0.026621874;-0.03854029;0.0047907876;-0.11400413;0.20676912;-0.62767196
529;-2.5821998;2.7937906;1.1683507;3.4163089;-8.904409;2.2826984;0.026621874;-0.03854029;0.0047907876;-0.11400413;0.20676912;-0.62767196
530;-2.5821998;2.7937906;1.1683507;3.4163089;-8.904409;2.2826984;0.026621874;-0.03854029;0.0047907876;-0.11400413;0.20676912;-0.62767196
531;-2.5821998;2.7937906;1.1683507;3.4163089;-8.904409;2.2826984;0.026621874;-0.03854029;0.0047907876;-0.11400413;0.20676912;-0.62767196
532;-2.5821998;2.7937906;1.1683507;3.4163089;-8.904409;2.2826984;0.026621874;-0.03854029;0.0047907876;-0.11400413;0.20676912;-0.62767196
533;-2.5821998;2.7937906;1.1683507;3.3819451;-8.9093075;2.3145323;-0.01947615;0.004468208;-0.01309482;0.33936778;-0.17836407;0.01109774
534;-2.5821998;2.7937906;1.1683507;3.3819451;-8.9093075;2.3145323;-0.01947615;0.004468208;-0.01309482;0.33936778;-0.17836407;0.01109774
535;-2.5821998;2.7937906;1.1683507;3.3819451;-8.9093075;2.3145323;-0.01947615;0.004468208;-0.01309482;0.33936778;-0.17836407;0.01109774
536;-2.5821998;2.7937906;1.1683507;3.3819451;-8.9093075;2.3145323;-0.01947615;0.004468208;-0.01309482;0.33936778;-0.17836407;0.01109774
537;-2.5821998;2.7937906;1.1683507;3.3819451;-8.9093075;2.3145323;-0.01947615;0.004468208;-0.01309482;0.33936778;-0.17836407;0.01109774
538;-2.5821998;2.7937906;1.1683507;3.3819451;-8.9093075;2.3145323;-0.01947615;0.004468208;-0.01309482;0.33936778;-0.17836407;0.01109774
539;-2.59769;2.803711;1.1756082;3.3425379;-8.920831;2.3273575;-0.050323498;0.03696465;-0.020032944;0.49252346;-0.70865446;-1.2937883
540;-2.59769;2.803711;1.1756082;3.3425379;-8.920831;2.3273575;-0.050323498;0.03696465;-0.020032944;0.49252346;-0.70865446;-1.2937883
541;-2.59769;2.803711;1.1756082;3.3425379;-8.920831;2.3273575;-0.050323498;0.03696465;-0.020032944;0.49252346;-0.70865446;-1.2937883
542;-2.59769;2.803711;1.1756082;3.3425379;-8.920831;2.3273575;-0.050323498;0.03696465;-0.020032944;0.49252346;-0.70865446;-1.2937883
543;-2.59769;2.803711;1.1756082;3.3425379;-8.920831;2.3273575;-0.050323498;0.03696465;-0.020032944;0.49252346;-0.70865446;-1.2937883
544;-2.59769;2.803711;1.1756082;3.3425379;-8.920831;2.3273575;-0.050323498;0.03696465;-0.020032944;0.49252346;-0.70865446;-1.2937883
545;-2.59769;2.803711;1.1756082;3.311345;-8.930118;2.3363159;-0.06095266;0.049168386;-0.015370976;-0.17937256;-0.17853293;0.17097916
546;-2.59769;2.803711;1.1756082;3.311345;-8.930118;2.3363159;-0.06095266;0.049168386;-0.015370976;-0.17937256;-0.17853293;0.17097916
547;-2.59769;2.803711;1.1756082;3.311345;-8.930118;2.3363159;-0.06095266;0.049168386;-0.015370976;-0.17937256;-0.17853293;0.17097916
548;-2.59769;2.803711;1.1756082;3.311345;-8.930118;2.3363159;-0.06095266;0.049168386;-0.015370976;-0.17937256;-0.17853293;0.17097916
549;-2.59769;2.803711;1.1756082;3.311345;-8.930118;2.3363159;-0.06095266;0.049168386;-0.015370976;-0.17937256;-0.17853293;0.17097916
550;-2.59769;2.803711;1.1756082;3.311345;-8.930118;2.3363159;-0.06095266;0.049168386;-0.015370976;-0.17937256;-0.17853293;0.17097916
551;-2.59769;2.803711;1.1756082;3.2813478;-8.938786;2.3454778;-0.057044443;0.045204807;-0.0070626857;-0.25857624;0.11735686;0.063063644
552;-2.59769;2.803711;1.1756082;3.2813478;-8.938786;2.3454778;-0.057044443;0.045204807;-0.0070626857;-0.25857624;0.11735686;0.063063644
553;-2.59769;2.803711;1.1756082;3.2813478;-8.938786;2.3454778;-0.057044443;0.045204807;-0.0070626857;-0.25857624;0.11735686;0.063063644
554;-2.59769;2.803711;1.1756082;3.2813478;-8.938786;2.3454778;-0.057044443;0.045204807;-0.0070626857;-0.25857624;0.11735686;0.063063644
555;-2.59769;2.803711;1.1756082;3.2813478;-8.938786;2.3454778;-0.057044443;0.045204807;-0.0070626857;-0.25857624;0.11735686;0.063063644
556;-2.59769;2.803711;1.1756082;3.2813478;-8.938786;2.3454778;-0.057044443;0.045204807;-0.0070626857;-0.25857624;0.11735686;0.063063644
557;-2.6054635;2.812353;1.1927413;3.2621112;-8.949466;2.331543;-0.047196712;0.036289684;-0.0048227264;-0.12728198;0.38131416;-0.36594483
558;-2.6054635;2.812353;1.1927413;3.2621112;-8.949466;2.331543;-0.047196712;0.036289684;-0.0048227264;-0.12728198;0.38131416;-0.36594483
559;-2.6054635;2.812353;1.1927413;3.2621112;-8.949466;2.331543;-0.047196712;0.036289684;-0.0048227264;-0.12728198;0.38131416;-0.36594483
560;-2.6054635;2.812353;1.1927413;3.2621112;-8.949466;2.331543;-0.047196712;0.036289684;-0.0048227264;-0.12728198;0.38131416;-0.36594483
561;-2.6054635;2.812353;1.1927413;3.2621112;-8.949466;2.331543;-0.047196712;0.036289684;-0.0048227264;-0.12728198;0.38131416;-0.36594483
562;-2.6054635;2.812353;1.1927413;3.2621112;-8.949466;2.331543;-0.047196712;0.036289684;-0.0048227264;-0.12728198;0.38131416;-0.36594483
563;-2.6054635;2.812353;1.1927413;3.2231114;-8.956955;2.3568854;-0.033068147;0.024370205;-0.013671843;0.23531623;-0.06168066;0.022248682
564;-2.6054635;2.812353;1.1927413;3.2231114;-8.956955;2.3568854;-0.033068147;0.024370205;-0.013671843;0.23531623;-0.06168066;0.022248682
565;-2.6054635;2.812353;1.1927413;3.2231114;-8.956955;2.3568854;-0.033068147;0.024370205;-0.013671843;0.23531623;-0.06168066;0.022248682
566;-2.6054635;2.812353;1.1927413;3.2231114;-8.956955;2.3568854;-0.033068147;0.024370205;-0.013671843;0.23531623;-0.06168066;0.022248682
567;-2.6054635;2.812353;1.1927413;3.2231114;-8.956955;2.3568854;-0.033068147;0.024370205;-0.013671843;0.23531623;-0.06168066;0.022248682
568;-2.6054635;2.812353;1.1927413;3.2231114;-8.956955;2.3568854;-0.033068147;0.024370205;-0.013671843;0.23531623;-0.06168066;0.022248682
569;-2.6054635;2.812353;1.1927413;3.1888006;-8.9672985;2.3642123;-0.017022202;0.0098285675;-0.026511155;-0.002964216;-0.5396226;-1.2675782
570;-2.6054635;2.812353;1.1927413;3.1888006;-8.9672985;2.3642123;-0.017022202;0.0098285675;-0.026511155;-0.002964216;-0.5396226;-1.2675782
571;-2.6054635;2.812353;1.1927413;3.1888006;-8.9672985;2.3642123;-0.017022202;0.0098285675;-0.026511155;-0.002964216;-0.5396226;-1.2675782
572;-2.6054635;2.812353;1.1927413;3.1888006;-8.9672985;2.3642123;-0.017022202;0.0098285675;-0.026511155;-0.002964216;-0.5396226;-1.2675782
573;-2.6054635;2.812353;1.1927413;3.1888006;-8.9672985;2.3642123;-0.017022202;0.0098285675;-0.026511155;-0.002964216;-0.5396226;-1.2675782
574;-2.6054635;2.812353;1.1927413;3.1888006;-8.9672985;2.3642123;-0.017022202;0.0098285675;-0.026511155;-0.002964216;-0.5396226;-1.2675782
575;-2.6054635;2.812353;1.1927413;3.1978114;-8.965808;2.3576872;0.003768753;-0.01391777;-0.02856161;-0.022546474;0.12631702;-0.026969125
576;-2.6054635;2.812353;1.1927413;3.1978114;-8.965808;2.3576872;0.003768753;-0.01391777;-0.02856161;-0.022546474;0.12631702;-0.026969125
577;-2.6054635;2.812353;1.1927413;3.1978114;-8.965808;2.3576872;0.003768753;-0.01391777;-0.02856161;-0.022546474;0.12631702;-0.026969125
578;-2.6054635;2.812353;1.1927413;3.1978114;-8.965808;2.3576872;0.003768753;-0.01391777;-0.02856161;-0.022546474;0.12631702;-0.026969125
579;-2.6054635;2.812353;1.1927413;3.1978114;-8.965808;2.3576872;0.003768753;-0.01391777;-0.02856161;-0.022546474;0.12631702;-0.026969125
580;-2.6054635;2.812353;1.1927413;3.1978114;-8.965808;2.3576872;0.003768753;-0.01391777;-0.02856161;-0.022546474;0.12631702;-0.026969125
581;-2.6088545;2.81706;1.2038574;3.219516;-8.967341;2.3220453;0.023498282;-0.039306816;-0.016665554;0.014810241;0.015846936;-0.09600963
582;-2.6088545;2.81706;1.2038574;3.219516;-8.967341;2.3220453;0.023498282;-0.039306816;-0.016665554;0.014810241;0.015846936;-0.09600963
583;-2.6088545;2.81706;1.2038574;3.219516;-8.967341;2.3220453;0.023498282;-0.039306816;-0.016665554;0.014810241;0.015846936;-0.09600963
584;-2.6088545;2.81706;1.2038574;3.219516;-8.967341;2.3220453;0.023498282;-0.039306816;-0.016665554;0.014810241;0.015846936;-0.09600963
585;-2.6088545;2.81706;1.2038574;3.219516;-8.967341;2.3220453;0.023498282;-0.039306816;-0.016665554;0.014810241;0.015846936;-0.09600963
586;-2.6088545;2.81706;1.2038574;3.219516;-8.967341;2.3220453;0.023498282;-0.039306816;-0.016665554;0.014810241;0.015846936;-0.09600963
587;-2.6088545;2.81706;1.2038574;3.2263498;-8.969767;2.3031151;0.016573995;-0.03108476;-0.0060864296;-0.28175464;0.530072;0.29352823
588;-2.6088545;2.81706;1.2038574;3.2263498;-8.969767;2.3031151;0.016573995;-0.03108476;-0.0060864296;-0.28175464;0.530072;0.29352823
589;-2.6088545;2.81706;1.2038574;3.2263498;-8.969767;2.3031151;0.016573995;-0.03108476;-0.0060864296;-0.28175464;0.530072;0.29352823
590;-2.6088545;2.81706;1.2038574;3.2263498;-8.969767;2.3031151;0.016573995;-0.03108476;-0.0060864296;-0.28175464;0.530072;0.29352823
591;-2.6088545;2.81706;1.2038574;3.2263498;-8.969767;2.3031151;0.016573995;-0.03108476;-0.0060864296;-0.28175464;0.530072;0.29352823
592;-2.6088545;2.81706;1.2038574;3.2263498;-8.969767;2.3031151;0.016573995;-0.03108476;-0.0060864296;-0.28175464;0.530072;0.29352823
593;-2.6088545;2.81706;1.2038574;3.2225459;-8.968716;2.3125155;-0.011411657;0.0066144806;-0.0031768244;-0.035644766;-0.006258281;-0.0945405
594;-2.6088545;2.81706;1.2038574;3.2225459;-8.968716;2.3125155;-0.011411657;0.0066144806;-0.0031768244;-0.035644766;-0.006258281;-0.0945405
595;-2.6088545;2.81706;1.2038574;3.2225459;-8.968716;2.3125155;-0.011411657;0.0066144806;-0.0031768244;-0.035644766;-0.006258281;-0.0945405
596;-2.6088545;2.81706;1.2038574;3.2225459;-8.968716;2.3125155;-0.011411657;0.0066144806;-0.0031768244;-0.035644766;-0.006258281;-0.0945405
597;-2.6088545;2.81706;1.2038574;3.2225459;-8.968716;2.3125155;-0.011411657;0.0066144806;-0.0031768244;-0.035644766;-0.006258281;-0.0945405
598;-2.6088545;2.81706;1.2038574;3.2225459;-8.968716;2.3125155;-0.011411657;0.0066144806;-0.0031768244;-0.035644766;-0.006258281;-0.0945405
599;-2.6112378;2.8145642;1.1825298;3.2334158;-8.961458;2.3254414;-0.018890608;0.019765725;0.0053401315;0.1319102;-0.4477499;-0.26259848
600;-2.6112378;2.8145642;1.1825298;3.2334158;-8.961458;2.3254414;-0.018890608;0.019765725;0.0053401315;0.1319102;-0.4477499;-0.26259848
601;-2.6112378;2.8145642;1.1825298;3.2334158;-8.961458;2.3254414;-0.018890608;0.019765725;0.0053401315;0.1319102;-0.4477499;-0.26259848
602;-2.6112378;2.8145642;1.1825298;3.2334158;-8.961458;2.3254414;-0.018890608;0.019765725;0.0053401315;0.1319102;-0.4477499;-0.26259848
603;-2.6112378;2.8145642;1.1825298;3.2334158;-8.961458;2.3254414;-0.018890608;0.019765725;0.0053401315;0.1319102;-0.4477499;-0.26259848
604;-2.6112378;2.8145642;1.1825298;3.2334158;-8.961458;2.3254414;-0.018890608;0.019765725;0.0053401315;0.1319102;-0.4477499;-0.26259848
605;-2.6112378;2.8145642;1.1825298;3.2934287;-8.9482975;2.2916572;0.016958324;-0.026282262;0.024892934;0.29471236;-0.479112;-0.09032124
606;-2.6112378;2.8145642;1.1825298;3.2934287;-8.9482975;2.2916572;0.016958324;-0.026282262;0.024892934;0.29471236;-0.479112;-0.09032124
607;-2.6112378;2.8145642;1.1825298;3.2934287;-8.9482975;2.2916572;0.016958324;-0.026282262;0.024892934;0.29471236;-0.479112;-0.09032124
608;-2.6112378;2.8145642;1.1825298;3.2934287;-8.9482975;2.2916572;0.016958324;-0.026282262;0.024892934;0.29471236;-0.479112;-0.09032124
609;-2.6112378;2.8145642;1.1825298;3.2934287;-8.9482975;2.2916572;0.016958324;-0.026282262;0.024892934;0.29471236;-0.479112;-0.09032124
610;-2.6112378;2.8145642;1.1825298;3.2934287;-8.9482975;2.2916572;0.016958324;-0.026282262;0.024892934;0.29471236;-0.479112;-0.09032124
611;-2.595447;2.805577;1.1803484;3.330982;-8.941021;2.2656317;0.063573755;-0.091563664;0.042399537;0.05985261;-0.16451284;0.09787843
612;-2.595447;2.805577;1.1803484;3.330982;-8.941021;2.2656317;0.063573755;-0.091563664;0.042399537;0.05985261;-0.16451284;0.09787843
613;-2.595447;2.805577;1.1803484;3.330982;-8.941021;2.2656317;0.063573755;-0.091563664;0.042399537;0.05985261;-0.16451284;0.09787843
614;-2.595447;2.805577;1.1803484;3.330982;-8.941021;2.2656317;0.063573755;-0.091563664;0.042399537;0.05985261;-0.16451284;0.09787843
615;-2.595447;2.805577;1.1803484;3.330982;-8.941021;2.2656317;0.063573755;-0.091563664;0.042399537;0.05985261;-0.16451284;0.09787843
616;-2.595447;2.805577;1.1803484;3.330982;-8.941021;2.2656317;0.063573755;-0.091563664;0.042399537;0.05985261;-0.16451284;0.09787843
617;-2.5921047;2.7991195;1.1591164;3.38548;-8.921757;2.260791;0.071169816;-0.11027009;0.03616406;-0.15131472;0.2157393;0.14033903
618;-2.5921047;2.7991195;1.1591164;3.38548;-8.921757;2.260791;0.071169816;-0.11027009;0.03616406;-0.15131472;0.2157393;0.14033903
619;-2.5921047;2.7991195;1.1591164;3.38548;-8.921757;2.260791;0.071169816;-0.11027009;0.03616406;-0.15131472;0.2157393;0.14033903
620;-2.5921047;2.7991195;1.1591164;3.38548;-8.921757;2.260791;0.071169816;-0.11027009;0.03616406;-0.15131472;0.2157393;0.14033903
621;-2.5921047;2.7991195;1.1591164;3.38548;-8.921757;2.260791;0.071169816;-0.11027009;0.03616406;-0.15131472;0.2157393;0.14033903
622;-2.582926;2.7983508;1.1730382;3.4087532;-8.930244;2.1912382;0.024948293;-0.058233622;0.0026264163;0.4324016;0.17387252;-0.349984
623;-2.582926;2.7983508;1.1730382;3.4087532;-8.930244;2.1912382;0.024948293;-0.058233622;0.0026264163;0.4324016;0.17387252;-0.349984
624;-2.582926;2.7983508;1.1730382;3.4087532;-8.930244;2.1912382;0.024948293;-0.058233622;0.0026264163;0.4324016;0.17387252;-0.349984
625;-2.582926;2.7983508;1.1730382;3.4087532;-8.930244;2.1912382;0.024948293;-0.058233622;0.0026264163;0.4324016;0.17387252;-0.349984
626;-2.582926;2.7983508;1.1730382;3.4087532;-8.930244;2.1912382;0.024948293;-0.058233622;0.0026264163;0.4324016;0.17387252;-0.349984
627;-2.582926;2.7983508;1.1730382;3.4087532;-8.930244;2.1912382;0.024948293;-0.058233622;0.0026264163;0.4324016;0.17387252;-0.349984
628;-2.582926;2.7983508;1.1730382;3.4087532;-8.930244;2.1912382;0.024948293;-0.058233622;0.0026264163;0.4324016;0.17387252;-0.349984
629;-2.582926;2.7983508;1.1730382;3.456161;-8.929552;2.1185944;-0.04880961;0.03705834;-0.03476302;0.035516273;-0.23216787;0.097533345
630;-2.582926;2.7983508;1.1730382;3.456161;-8.929552;2.1185944;-0.04880961;0.03705834;-0.03476302;0.035516273;-0.23216787;0.097533345
631;-2.582926;2.7983508;1.1730382;3.456161;-8.929552;2.1185944;-0.04880961;0.03705834;-0.03476302;0.035516273;-0.23216787;0.097533345
632;-2.582926;2.7983508;1.1730382;3.456161;-8.929552;2.1185944;-0.04880961;0.03705834;-0.03476302;0.035516273;-0.23216787;0.097533345
633;-2.582926;2.7983508;1.1730382;3.456161;-8.929552;2.1185944;-0.04880961;0.03705834;-0.03476302;0.035516273;-0.23216787;0.097533345
634;-2.582926;2.7983508;1.1730382;3.456161;-8.929552;2.1185944;-0.04880961;0.03705834;-0.03476302;0.035516273;-0.23216787;0.097533345
635;-2.5635204;2.790695;1.177209;3.503743;-8.926159;2.0537407;-0.10303281;0.110718295;-0.052316464;0.2434221;-0.30503908;0.055290032
636;-2.5635204;2.790695;1.177209;3.503743;-8.926159;2.0537407;-0.10303281;0.110718295;-0.052316464;0.2434221;-0.30503908;0.055290032
637;-2.5635204;2.790695;1.177209;3.503743;-8.926159;2.0537407;-0.10303281;0.110718295;-0.052316464;0.2434221;-0.30503908;0.055290032
638;-2.5635204;2.790695;1.177209;3.503743;-8.926159;2.0537407;-0.10303281;0.110718295;-0.052316464;0.2434221;-0.30503908;0.055290032
639;-2.5635204;2.790695;1.177209;3.503743;-8.926159;2.0537407;-0.10303281;0.110718295;-0.052316464;0.2434221;-0.30503908;0.055290032
640;-2.5635204;2.790695;1.177209;3.503743;-8.926159;2.0537407;-0.10303281;0.110718295;-0.052316464;0.2434221;-0.30503908;0.055290032
641;-2.5635204;2.790695;1.177209;3.505003;-8.937422;2.0019593;-0.101374134;0.10247069;-0.04740431;-0.17818008;0.17997447;-0.82176024
642;-2.5635204;2.790695;1.177209;3.505003;-8.937422;2.0019593;-0.101374134;0.10247069;-0.04740431;-0.17818008;0.17997447;-0.82176024
643;-2.5635204;2.790695;1.177209;3.505003;-8.937422;2.0019593;-0.101374134;0.10247069;-0.04740431;-0.17818008;0.17997447;-0.82176024
644;-2.5635204;2.790695;1.177209;3.505003;-8.937422;2.0019593;-0.101374134;0.10247069;-0.04740431;-0.17818008;0.17997447;-0.82176024
645;-2.5635204;2.790695;1.177209;3.505003;-8.937422;2.0019593;-0.101374134;0.10247069;-0.04740431;-0.17818008;0.17997447;-0.82176024
646;-2.5635204;2.790695;1.177209;3.505003;-8.937422;2.0019593;-0.101374134;0.10247069;-0.04740431;-0.17818008;0.17997447;-0.82176024
647;-2.5642228;2.7897966;1.141387;3.5033047;-8.953309;1.9327422;-0.045324046;0.007238348;-0.03364091;0.089133374;0.2520603;0.21037899
648;-2.5642228;2.7897966;1.141387;3.5033047;-8.953309;1.9327422;-0.045324046;0.007238348;-0.03364091;0.089133374;0.2520603;0.21037899
649;-2.5642228;2.7897966;1.141387;3.5033047;-8.953309;1.9327422;-0.045324046;0.007238348;-0.03364091;0.089133374;0.2520603;0.21037899
650;-2.5642228;2.7897966;1.141387;3.5033047;-8.953309;1.9327422;-0.045324046;0.007238348;-0.03364091;0.089133374;0.2520603;0.21037899
651;-2.5642228;2.7897966;1.141387;3.5033047;-8.953309;1.9327422;-0.045324046;0.007238348;-0.03364091;0.089133374;0.2520603;0.21037899
652;-2.5642228;2.7897966;1.141387;3.5033047;-8.953309;1.9327422;-0.045324046;0.007238348;-0.03364091;0.089133374;0.2520603;0.21037899
653;-2.5608644;2.7929955;1.1502712;3.4837594;-8.983353;1.8257031;0.03048112;-0.12349586;-0.019104596;-0.06661498;0.019584056;0.068653174
654;-2.5608644;2.7929955;1.1502712;3.4837594;-8.983353;1.8257031;0.03048112;-0.12349586;-0.019104596;-0.06661498;0.019584056;0.068653174
655;-2.5608644;2.7929955;1.1502712;3.4837594;-8.983353;1.8257031;0.03048112;-0.12349586;-0.019104596;-0.06661498;0.019584056;0.068653174
656;-2.5608644;2.7929955;1.1502712;3.4837594;-8.983353;1.8257031;0.03048112;-0.12349586;-0.019104596;-0.06661498;0.019584056;0.068653174
657;-2.5608644;2.7929955;1.1502712;3.4837594;-8.983353;1.8257031;0.03048112;-0.12349586;-0.019104596;-0.06661498;0.019584056;0.068653174
658;-2.5608644;2.7929955;1.1502712;3.4837594;-8.983353;1.8257031;0.03048112;-0.12349586;-0.019104596;-0.06661498;0.019584056;0.068653174
659;-2.5585887;2.7895973;1.1190128;3.5104039;-8.987881;1.7508435;0.08529732;-0.22176556;-0.004143499;-0.38263747;0.2041177;0.038568966
660;-2.5585887;2.7895973;1.1190128;3.5104039;-8.987881;1.7508435;0.08529732;-0.22176556;-0.004143499;-0.38263747;0.2041177;0.038568966
661;-2.5585887;2.7895973;1.1190128;3.5104039;-8.987881;1.7508435;0.08529732;-0.22176556;-0.004143499;-0.38263747;0.2041177;0.038568966
662;-2.5585887;2.7895973;1.1190128;3.5104039;-8.987881;1.7508435;0.08529732;-0.22176556;-0.004143499;-0.38263747;0.2041177;0.038568966
663;-2.5585887;2.7895973;1.1190128;3.5104039;-8.987881;1.7508435;0.08529732;-0.22176556;-0.004143499;-0.38263747;0.2041177;0.038568966
664;-2.5585887;2.7895973;1.1190128;3.5104039;-8.987881;1.7508435;0.08529732;-0.22176556;-0.004143499;-0.38263747;0.2041177;0.038568966
665;-2.5585887;2.7895973;1.1190128;3.505685;-9.00412;1.6752288;0.10219815;-0.25358385;0.010419431;-0.113191344;0.0413847;0.18168832
666;-2.5585887;2.7895973;1.1190128;3.505685;-9.00412;1.6752288;0.10219815;-0.25358385;0.010419431;-0.113191344;0.0413847;0.18168832
667;-2.5585887;2.7895973;1.1190128;3.505685;-9.00412;1.6752288;0.10219815;-0.25358385;0.010419431;-0.113191344;0.0413847;0.18168832
668;-2.5585887;2.7895973;1.1190128;3.505685;-9.00412;1.6752288;0.10219815;-0.25358385;0.010419431;-0.113191344;0.0413847;0.18168832
669;-2.5585887;2.7895973;1.1190128;3.505685;-9.00412;1.6752288;0.10219815;-0.25358385;0.010419431;-0.113191344;0.0413847;0.18168832
670;-2.5585887;2.7895973;1.1190128;3.505685;-9.00412;1.6752288;0.10219815;-0.25358385;0.010419431;-0.113191344;0.0413847;0.18168832
671;-2.5644326;2.7844398;1.0338962;3.5236459;-9.003696;1.6394385;0.10011469;-0.24338159;0.022217544;0.2879169;-0.5760366;-0.30616924
672;-2.5644326;2.7844398;1.0338962;3.5236459;-9.003696;1.6394385;0.10011469;-0.24338159;0.022217544;0.2879169;-0.5760366;-0.30616924
673;-2.5644326;2.7844398;1.0338962;3.5236459;-9.003696;1.6394385;0.10011469;-0.24338159;0.022217544;0.2879169;-0.5760366;-0.30616924
674;-2.5644326;2.7844398;1.0338962;3.5236459;-9.003696;1.6394385;0.10011469;-0.24338159;0.022217544;0.2879169;-0.5760366;-0.30616924
675;-2.5644326;2.7844398;1.0338962;3.5236459;-9.003696;1.6394385;0.10011469;-0.24338159;0.022217544;0.2879169;-0.5760366;-0.30616924
676;-2.5644326;2.7844398;1.0338962;3.5236459;-9.003696;1.6394385;0.10011469;-0.24338159;0.022217544;0.2879169;-0.5760366;-0.30616924
677;-2.5733438;2.7781453;0.97412586;3.5370378;-9.000179;1.6298839;0.102295026;-0.22325815;0.032321848;0.24535176;-0.37799177;-0.1162906
678;-2.5733438;2.7781453;0.97412586;3.5370378;-9.000179;1.6298839;0.102295026;-0.22325815;0.032321848;0.24535176;-0.37799177;-0.1162906
679;-2.5733438;2.7781453;0.97412586;3.5370378;-9.000179;1.6298839;0.102295026;-0.22325815;0.032321848;0.24535176;-0.37799177;-0.1162906
680;-2.5733438;2.7781453;0.97412586;3.5370378;-9.000179;1.6298839;0.102295026;-0.22325815;0.032321848;0.24535176;-0.37799177;-0.1162906
681;-2.5733438;2.7781453;0.97412586;3.5370378;-9.000179;1.6298839;0.102295026;-0.22325815;0.032321848;0.24535176;-0.37799177;-0.1162906
682;-2.5733438;2.7781453;0.97412586;3.5370378;-9.000179;1.6298839;0.102295026;-0.22325815;0.032321848;0.24535176;-0.37799177;-0.1162906
683;-2.5773218;2.772404;0.9368831;3.557907;-8.996326;1.6055529;0.1132127;-0.20234051;0.03953571;-0.07125945;-0.35368145;-0.08460282
684;-2.5773218;2.772404;0.9368831;3.557907;-8.996326;1.6055529;0.1132127;-0.20234051;0.03953571;-0.07125945;-0.35368145;-0.08460282
685;-2.5773218;2.772404;0.9368831;3.557907;-8.996326;1.6055529;0.1132127;-0.20234051;0.03953571;-0.07125945;-0.35368145;-0.08460282
686;-2.5773218;2.772404;0.9368831;3.557907;-8.996326;1.6055529;0.1132127;-0.20234051;0.03953571;-0.07125945;-0.35368145;-0.08460282
687;-2.5773218;2.772404;0.9368831;3.557907;-8.996326;1.6055529;0.1132127;-0.20234051;0.03953571;-0.07125945;-0.35368145;-0.08460282
688;-2.5773218;2.772404;0.9368831;3.557907;-8.996326;1.6055529;0.1132127;-0.20234051;0.03953571;-0.07125945;-0.35368145;-0.08460282
689;-2.5928478;2.7615905;0.8864648;3.5753562;-8.982324;1.6447134;0.12055219;-0.17646281;0.03729362;-0.16271056;0.06996469;-0.014227415
690;-2.5928478;2.7615905;0.8864648;3.5753562;-8.982324;1.6447134;0.12055219;-0.17646281;0.03729362;-0.16271056;0.06996469;-0.014227415
691;-2.5928478;2.7615905;0.8864648;3.5753562;-8.982324;1.6447134;0.12055219;-0.17646281;0.03729362;-0.16271056;0.06996469;-0.014227415
692;-2.5928478;2.7615905;0.8864648;3.5753562;-8.982324;1.6447134;0.12055219;-0.17646281;0.03729362;-0.16271056;0.06996469;-0.014227415
693;-2.5928478;2.7615905;0.8864648;3.5753562;-8.982324;1.6447134;0.12055219;-0.17646281;0.03729362;-0.16271056;0.06996469;-0.014227415
694;-2.6053953;2.7502172;0.85290504;3.6010692;-8.9665165;1.6745936;0.11088544;-0.14303268;0.022136632;-0.17619723;0.27902457;0.6277599
695;-2.6053953;2.7502172;0.85290504;3.6010692;-8.9665165;1.6745936;0.11088544;-0.14303268;0.022136632;-0.17619723;0.27902457;0.6277599
696;-2.6053953;2.7502172;0.85290504;3.6010692;-8.9665165;1.6745936;0.11088544;-0.14303268;0.022136632;-0.17619723;0.27902457;0.6277599
697;-2.6053953;2.7502172;0.85290504;3.6010692;-8.9665165;1.6745936;0.11088544;-0.14303268;0.022136632;-0.17619723;0.27902457;0.6277599
698;-2.6053953;2.7502172;0.85290504;3.6010692;-8.9665165;1.6745936;0.11088544;-0.14303268;0.022136632;-0.17619723;0.27902457;0.6277599
699;-2.6053953;2.7502172;0.85290504;3.6010692;-8.9665165;1.6745936;0.11088544;-0.14303268;0.022136632;-0.17619723;0.27902457;0.6277599
700;-2.6053953;2.7502172;0.85290504;3.6010692;-8.9665165;1.6745936;0.11088544;-0.14303268;0.022136632;-0.17619723;0.27902457;0.6277599
701;-2.6163409;2.7364573;0.8275645;3.6427116;-8.943964;1.7048619;0.08947275;-0.1145999;-0.002503985;0.0027925596;-0.0042232894;0.035346087
702;-2.6163409;2.7364573;0.8275645;3.6427116;-8.943964;1.7048619;0.08947275;-0.1145999;-0.002503985;0.0027925596;-0.0042232894;0.035346087
703;-2.6163409;2.7364573;0.8275645;3.6427116;-8.943964;1.7048619;0.08947275;-0.1145999;-0.002503985;0.0027925596;-0.0042232894;0.035346087
704;-2.6163409;2.7364573;0.8275645;3.6427116;-8.943964;1.7048619;0.08947275;-0.1145999;-0.002503985;0.0027925596;-0.0042232894;0.035346087
705;-2.6163409;2.7364573;0.8275645;3.6427116;-8.943964;1.7048619;0.08947275;-0.1145999;-0.002503985;0.0027925596;-0.0042232894;0.035346087
706;-2.6163409;2.7364573;0.8275645;3.6427116;-8.943964;1.7048619;0.08947275;-0.1145999;-0.002503985;0.0027925596;-0.0042232894;0.035346087
707;-2.5997045;2.737583;0.8311609;3.6829755;-8.943117;1.6207241;0.04349077;-0.073253274;-0.03457671;0.2270364;-0.47565526;-0.37446046
708;-2.5997045;2.737583;0.8311609;3.6829755;-8.943117;1.6207241;0.04349077;-0.073253274;-0.03457671;0.2270364;-0.47565526;-0.37446046
709;-2.5997045;2.737583;0.8311609;3.6829755;-8.943117;1.6207241;0.04349077;-0.073253274;-0.03457671;0.2270364;-0.47565526;-0.37446046
710;-2.5997045;2.737583;0.8311609;3.6829755;-8.943117;1.6207241;0.04349077;-0.073253274;-0.03457671;0.2270364;-0.47565526;-0.37446046
711;-2.5997045;2.737583;0.8311609;3.6829755;-8.943117;1.6207241;0.04349077;-0.073253274;-0.03457671;0.2270364;-0.47565526;-0.37446046
712;-2.5997045;2.737583;0.8311609;3.6829755;-8.943117;1.6207241;0.04349077;-0.073253274;-0.03457671;0.2270364;-0.47565526;-0.37446046
713;-2.5774903;2.7376716;0.8385763;3.7476814;-8.934356;1.517417;-0.03581912;-0.0017214897;-0.072009794;0.20336924;-0.09500929;-0.05551422
714;-2.5774903;2.7376716;0.8385763;3.7476814;-8.934356;1.517417;-0.03581912;-0.0017214897;-0.072009794;0.20336924;-0.09500929;-0.05551422
715;-2.5774903;2.7376716;0.8385763;3.7476814;-8.934356;1.517417;-0.03581912;-0.0017214897;-0.072009794;0.20336924;-0.09500929;-0.05551422
716;-2.5774903;2.7376716;0.8385763;3.7476814;-8.934356;1.517417;-0.03581912;-0.0017214897;-0.072009794;0.20336924;-0.09500929;-0.05551422
717;-2.5774903;2.7376716;0.8385763;3.7476814;-8.934356;1.517417;-0.03581912;-0.0017214897;-0.072009794;0.20336924;-0.09500929;-0.05551422
718;-2.5774903;2.7376716;0.8385763;3.7476814;-8.934356;1.517417;-0.03581912;-0.0017214897;-0.072009794;0.20336924;-0.09500929;-0.05551422
719;-2.5774903;2.7376716;0.8385763;3.8126721;-8.917872;1.4510242;-0.11344479;0.07409006;-0.09884992;0.18558848;-0.17972526;0.045591135
720;-2.5774903;2.7376716;0.8385763;3.8126721;-8.917872;1.4510242;-0.11344479;0.07409006;-0.09884992;0.18558848;-0.17972526;0.045591135
721;-2.5774903;2.7376716;0.8385763;3.8126721;-8.917872;1.4510242;-0.11344479;0.07409006;-0.09884992;0.18558848;-0.17972526;0.045591135
722;-2.5774903;2.7376716;0.8385763;3.8126721;-8.917872;1.4510242;-0.11344479;0.07409006;-0.09884992;0.18558848;-0.17972526;0.045591135
723;-2.5774903;2.7376716;0.8385763;3.8126721;-8.917872;1.4510242;-0.11344479;0.07409006;-0.09884992;0.18558848;-0.17972526;0.045591135
724;-2.5774903;2.7376716;0.8385763;3.8126721;-8.917872;1.4510242;-0.11344479;0.07409006;-0.09884992;0.18558848;-0.17972526;0.045591135
725;-2.5557356;2.7293487;0.83443034;3.8599286;-8.903578;1.4133793;-0.13792145;0.108243056;-0.09636403;-0.094164886;0.43773192;-0.17301647
726;-2.5557356;2.7293487;0.83443034;3.8599286;-8.903578;1.4133793;-0.13792145;0.108243056;-0.09636403;-0.094164886;0.43773192;-0.17301647
727;-2.5557356;2.7293487;0.83443034;3.8599286;-8.903578;1.4133793;-0.13792145;0.108243056;-0.09636403;-0.094164886;0.43773192;-0.17301647
728;-2.5557356;2.7293487;0.83443034;3.8599286;-8.903578;1.4133793;-0.13792145;0.108243056;-0.09636403;-0.094164886;0.43773192;-0.17301647
729;-2.5557356;2.7293487;0.83443034;3.8599286;-8.903578;1.4133793;-0.13792145;0.108243056;-0.09636403;-0.094164886;0.43773192;-0.17301647
730;-2.5557356;2.7293487;0.83443034;3.8599286;-8.903578;1.4133793;-0.13792145;0.108243056;-0.09636403;-0.094164886;0.43773192;-0.17301647
731;-2.5557356;2.7293487;0.83443034;3.8818035;-8.895539;1.4040569;-0.09100793;0.080375575;-0.0615382;-0.11438827;-0.009049309;0.44789064
732;-2.5557356;2.7293487;0.83443034;3.8818035;-8.895539;1.4040569;-0.09100793;0.080375575;-0.0615382;-0.11438827;-0.009049309;0.44789064
733;-2.5557356;2.7293487;0.83443034;3.8818035;-8.895539;1.4040569;-0.09100793;0.080375575;-0.0615382;-0.11438827;-0.009049309;0.44789064
734;-2.5557356;2.7293487;0.83443034;3.8818035;-8.895539;1.4040569;-0.09100793;0.080375575;-0.0615382;-0.11438827;-0.009049309;0.44789064
735;-2.5557356;2.7293487;0.83443034;3.8818035;-8.895539;1.4040569;-0.09100793;0.080375575;-0.0615382;-0.11438827;-0.009049309;0.44789064
736;-2.5557356;2.7293487;0.83443034;3.8818035;-8.895539;1.4040569;-0.09100793;0.080375575;-0.0615382;-0.11438827;-0.009049309;0.44789064
737;-2.5627337;2.7187095;0.81480604;3.8948064;-8.885313;1.4325095;-0.015901156;0.029555965;-0.012332552;0.37407508;-0.5268722;-0.15105373
738;-2.5627337;2.7187095;0.81480604;3.8948064;-8.885313;1.4325095;-0.015901156;0.029555965;-0.012332552;0.37407508;-0.5268722;-0.15105373
739;-2.5627337;2.7187095;0.81480604;3.8948064;-8.885313;1.4325095;-0.015901156;0.029555965;-0.012332552;0.37407508;-0.5268722;-0.15105373
740;-2.5627337;2.7187095;0.81480604;3.8948064;-8.885313;1.4325095;-0.015901156;0.029555965;-0.012332552;0.37407508;-0.5268722;-0.15105373
741;-2.5627337;2.7187095;0.81480604;3.8948064;-8.885313;1.4325095;-0.015901156;0.029555965;-0.012332552;0.37407508;-0.5268722;-0.15105373
742;-2.5627337;2.7187095;0.81480604;3.8948064;-8.885313;1.4325095;-0.015901156;0.029555965;-0.012332552;0.37407508;-0.5268722;-0.15105373
743;-2.5791519;2.7101033;0.8019561;3.8895125;-8.875959;1.503143;0.050050955;-0.011243447;0.0313754;-0.036968537;0.63823354;0.6332241
744;-2.5791519;2.7101033;0.8019561;3.8895125;-8.875959;1.503143;0.050050955;-0.011243447;0.0313754;-0.036968537;0.63823354;0.6332241
745;-2.5791519;2.7101033;0.8019561;3.8895125;-8.875959;1.503143;0.050050955;-0.011243447;0.0313754;-0.036968537;0.63823354;0.6332241
746;-2.5791519;2.7101033;0.8019561;3.8895125;-8.875959;1.503143;0.050050955;-0.011243447;0.0313754;-0.036968537;0.63823354;0.6332241
747;-2.5791519;2.7101033;0.8019561;3.8895125;-8.875959;1.503143;0.050050955;-0.011243447;0.0313754;-0.036968537;0.63823354;0.6332241
748;-2.5791519;2.7101033;0.8019561;3.8895125;-8.875959;1.503143;0.050050955;-0.011243447;0.0313754;-0.036968537;0.63823354;0.6332241
749;-2.5953522;2.7017987;0.7934403;3.8836467;-8.866118;1.5746777;0.08975168;-0.029455893;0.059562266;-0.107854895;-0.32234824;0.07527997
750;-2.5953522;2.7017987;0.7934403;3.8836467;-8.866118;1.5746777;0.08975168;-0.029455893;0.059562266;-0.107854895;-0.32234824;0.07527997
751;-2.5953522;2.7017987;0.7934403;3.8836467;-8.866118;1.5746777;0.08975168;-0.029455893;0.059562266;-0.107854895;-0.32234824;0.07527997
752;-2.5953522;2.7017987;0.7934403;3.8836467;-8.866118;1.5746777;0.08975168;-0.029455893;0.059562266;-0.107854895;-0.32234824;0.07527997
753;-2.5953522;2.7017987;0.7934403;3.8836467;-8.866118;1.5746777;0.08975168;-0.029455893;0.059562266;-0.107854895;-0.32234824;0.07527997
754;-2.5953522;2.7017987;0.7934403;3.8836467;-8.866118;1.5746777;0.08975168;-0.029455893;0.059562266;-0.107854895;-0.32234824;0.07527997
755;-2.6064818;2.6996224;0.78986454;3.8602195;-8.868399;1.6188309;0.087522365;-0.015599869;0.06796424;-0.29475015;0.21532108;-0.069093995
756;-2.6064818;2.6996224;0.78986454;3.8602195;-8.868399;1.6188309;0.087522365;-0.015599869;0.06796424;-0.29475015;0.21532108;-0.069093995
757;-2.6064818;2.6996224;0.78986454;3.8602195;-8.868399;1.6188309;0.087522365;-0.015599869;0.06796424;-0.29475015;0.21532108;-0.069093995
758;-2.6064818;2.6996224;0.78986454;3.8602195;-8.868399;1.6188309;0.087522365;-0.015599869;0.06796424;-0.29475015;0.21532108;-0.069093995
759;-2.6064818;2.6996224;0.78986454;3.8602195;-8.868399;1.6188309;0.087522365;-0.015599869;0.06796424;-0.29475015;0.21532108;-0.069093995
760;-2.6064818;2.6996224;0.78986454;3.8602195;-8.868399;1.6188309;0.087522365;-0.015599869;0.06796424;-0.29475015;0.21532108;-0.069093995
761;-2.6064818;2.6996224;0.78986454;3.8269882;-8.87602;1.6555399;0.04868292;0.022168571;0.060972888;0.1138307;0.24871223;-0.38311428
762;-2.6064818;2.6996224;0.78986454;3.8269882;-8.87602;1.6555399;0.04868292;0.022168571;0.060972888;0.1138307;0.24871223;-0.38311428
763;-2.6064818;2.6996224;0.78986454;3.8269882;-8.87602;1.6555399;0.04868292;0.022168571;0.060972888;0.1138307;0.24871223;-0.38311428
764;-2.6064818;2.6996224;0.78986454;3.8269882;-8.87602;1.6555399;0.04868292;0.022168571;0.060972888;0.1138307;0.24871223;-0.38311428
765;-2.6064818;2.6996224;0.78986454;3.8269882;-8.87602;1.6555399;0.04868292;0.022168571;0.060972888;0.1138307;0.24871223;-0.38311428
766;-2.6064818;2.6996224;0.78986454;3.8269882;-8.87602;1.6555399;0.04868292;0.022168571;0.060972888;0.1138307;0.24871223;-0.38311428
767;-2.6299472;2.6957705;0.7860026;3.8099353;-8.870972;1.7206528;0.010266126;0.05284984;0.050953753;0.36347115;-0.45756248;-0.045047402
768;-2.6299472;2.6957705;0.7860026;3.8099353;-8.870972;1.7206528;0.010266126;0.05284984;0.050953753;0.36347115;-0.45756248;-0.045047402
769;-2.6299472;2.6957705;0.7860026;3.8099353;-8.870972;1.7206528;0.010266126;0.05284984;0.050953753;0.36347115;-0.45756248;-0.045047402
770;-2.6299472;2.6957705;0.7860026;3.8099353;-8.870972;1.7206528;0.010266126;0.05284984;0.050953753;0.36347115;-0.45756248;-0.045047402
771;-2.6299472;2.6957705;0.7860026;3.8099353;-8.870972;1.7206528;0.010266126;0.05284984;0.050953753;0.36347115;-0.45756248;-0.045047402
772;-2.6299472;2.6957705;0.7860026;3.8099353;-8.870972;1.7206528;0.010266126;0.05284984;0.050953753;0.36347115;-0.45756248;-0.045047402
773;-2.6299472;2.6957705;0.7860026;3.7928352;-8.875301;1.7360367;0.007042458;0.051779896;0.049234394;0.3778358;-0.17001645;-1.4116632
774;-2.6299472;2.6957705;0.7860026;3.7928352;-8.875301;1.7360367;0.007042458;0.051779896;0.049234394;0.3778358;-0.17001645;-1.4116632
775;-2.6299472;2.6957705;0.7860026;3.7928352;-8.875301;1.7360367;0.007042458;0.051779896;0.049234394;0.3778358;-0.17001645;-1.4116632
776;-2.6299472;2.6957705;0.7860026;3.7928352;-8.875301;1.7360367;0.007042458;0.051779896;0.049234394;0.3778358;-0.17001645;-1.4116632
777;-2.6299472;2.6957705;0.7860026;3.7928352;-8.875301;1.7360367;0.007042458;0.051779896;0.049234394;0.3778358;-0.17001645;-1.4116632
778;-2.6299472;2.6957705;0.7860026;3.7928352;-8.875301;1.7360367;0.007042458;0.051779896;0.049234394;0.3778358;-0.17001645;-1.4116632
779;-2.6299472;2.6957705;0.7860026;3.7783098;-8.877315;1.7572817;0.03221645;0.02969543;0.056766577;-0.040982474;-0.25173676;0.06265473
780;-2.6299472;2.6957705;0.7860026;3.7783098;-8.877315;1.7572817;0.03221645;0.02969543;0.056766577;-0.040982474;-0.25173676;0.06265473
781;-2.6299472;2.6957705;0.7860026;3.7783098;-8.877315;1.7572817;0.03221645;0.02969543;0.056766577;-0.040982474;-0.25173676;0.06265473
782;-2.6299472;2.6957705;0.7860026;3.7783098;-8.877315;1.7572817;0.03221645;0.02969543;0.056766577;-0.040982474;-0.25173676;0.06265473
783;-2.6299472;2.6957705;0.7860026;3.7783098;-8.877315;1.7572817;0.03221645;0.02969543;0.056766577;-0.040982474;-0.25173676;0.06265473
784;-2.6299472;2.6957705;0.7860026;3.7783098;-8.877315;1.7572817;0.03221645;0.02969543;0.056766577;-0.040982474;-0.25173676;0.06265473
785;-2.6477032;2.7005246;0.78810054;3.7344847;-8.886983;1.8015442;0.05135405;0.014918513;0.064745896;-0.055700265;0.15534109;-0.028503656
786;-2.6477032;2.7005246;0.78810054;3.7344847;-8.886983;1.8015442;0.05135405;0.014918513;0.064745896;-0.055700265;0.15534109;-0.028503656
787;-2.6477032;2.7005246;0.78810054;3.7344847;-8.886983;1.8015442;0.05135405;0.014918513;0.064745896;-0.055700265;0.15534109;-0.028503656
788;-2.6477032;2.7005246;0.78810054;3.7344847;-8.886983;1.8015442;0.05135405;0.014918513;0.064745896;-0.055700265;0.15534109;-0.028503656
789;-2.6477032;2.7005246;0.78810054;3.7344847;-8.886983;1.8015442;0.05135405;0.014918513;0.064745896;-0.055700265;0.15534109;-0.028503656
790;-2.6477032;2.7005246;0.78810054;3.7344847;-8.886983;1.8015442;0.05135405;0.014918513;0.064745896;-0.055700265;0.15534109;-0.028503656
791;-2.6477032;2.7005246;0.78810054;3.7159119;-8.886294;1.8428648;0.043604683;0.016812472;0.06070354;-0.29432887;0.47854286;0.31690022
792;-2.6477032;2.7005246;0.78810054;3.7159119;-8.886294;1.8428648;0.043604683;0.016812472;0.06070354;-0.29432887;0.47854286;0.31690022
793;-2.6477032;2.7005246;0.78810054;3.7159119;-8.886294;1.8428648;0.043604683;0.016812472;0.06070354;-0.29432887;0.47854286;0.31690022
794;-2.6477032;2.7005246;0.78810054;3.7159119;-8.886294;1.8428648;0.043604683;0.016812472;0.06070354;-0.29432887;0.47854286;0.31690022
795;-2.6477032;2.7005246;0.78810054;3.7159119;-8.886294;1.8428648;0.043604683;0.016812472;0.06070354;-0.29432887;0.47854286;0.31690022
796;-2.6477032;2.7005246;0.78810054;3.7159119;-8.886294;1.8428648;0.043604683;0.016812472;0.06070354;-0.29432887;0.47854286;0.31690022
797;-2.664257;2.6978488;0.78925425;3.7043304;-8.881702;1.8877699;0.027707787;0.013763401;0.041206095;0.23604685;-0.0730461;0.037395272
798;-2.664257;2.6978488;0.78925425;3.7043304;-8.881702;1.8877699;0.027707787;0.013763401;0.041206095;0.23604685;-0.0730461;0.037395272
799;-2.664257;2.6978488;0.78925425;3.7043304;-8.881702;1.8877699;0.027707787;0.013763401;0.041206095;0.23604685;-0.0730461;0.037395272
800;-2.664257;2.6978488;0.78925425;3.7043304;-8.881702;1.8877699;0.027707787;0.013763401;0.041206095;0.23604685;-0.0730461;0.037395272
801;-2.664257;2.6978488;0.78925425;3.7043304;-8.881702;1.8877699;0.027707787;0.013763401;0.041206095;0.23604685;-0.0730461;0.037395272
802;-2.664257;2.6978488;0.78925425;3.7043304;-8.881702;1.8877699;0.027707787;0.013763401;0.041206095;0.23604685;-0.0730461;0.037395272
803;-2.664257;2.6978488;0.78925425;3.697248;-8.8854885;1.8838384;0.021856638;-0.007517278;0.00966568;0.15478605;-0.44781566;-0.2622195
804;-2.664257;2.6978488;0.78925425;3.697248;-8.8854885;1.8838384;0.021856638;-0.007517278;0.00966568;0.15478605;-0.44781566;-0.2622195
805;-2.664257;2.6978488;0.78925425;3.697248;-8.8854885;1.8838384;0.021856638;-0.007517278;0.00966568;0.15478605;-0.44781566;-0.2622195
806;-2.664257;2.6978488;0.78925425;3.697248;-8.8854885;1.8838384;0.021856638;-0.007517278;0.00966568;0.15478605;-0.44781566;-0.2622195
807;-2.664257;2.6978488;0.78925425;3.697248;-8.8854885;1.8838384;0.021856638;-0.007517278;0.00966568;0.15478605;-0.44781566;-0.2622195
808;-2.664257;2.6978488;0.78925425;3.697248;-8.8854885;1.8838384;0.021856638;-0.007517278;0.00966568;0.15478605;-0.44781566;-0.2622195
809;-2.664257;2.6978488;0.78925425;3.7048988;-8.881517;1.8875288;0.019076917;-0.034363788;-0.028066562;0.35618088;-0.24484347;0.02907275
810;-2.664257;2.6978488;0.78925425;3.7048988;-8.881517;1.8875288;0.019076917;-0.034363788;-0.028066562;0.35618088;-0.24484347;0.02907275
811;-2.664257;2.6978488;0.78925425;3.7048988;-8.881517;1.8875288;0.019076917;-0.034363788;-0.028066562;0.35618088;-0.24484347;0.02907275
812;-2.664257;2.6978488;0.78925425;3.7048988;-8.881517;1.8875288;0.019076917;-0.034363788;-0.028066562;0.35618088;-0.24484347;0.02907275
813;-2.664257;2.6978488;0.78925425;3.7048988;-8.881517;1.8875288;0.019076917;-0.034363788;-0.028066562;0.35618088;-0.24484347;0.02907275
814;-2.664257;2.6978488;0.78925425;3.7048988;-8.881517;1.8875288;0.019076917;-0.034363788;-0.028066562;0.35618088;-0.24484347;0.02907275
815;-2.664257;2.6978488;0.78925425;3.7157257;-8.878122;1.882211;0.0069115097;-0.046250265;-0.05959314;0.07954757;-0.11856393;0.074901514
816;-2.664257;2.6978488;0.78925425;3.7157257;-8.878122;1.882211;0.0069115097;-0.046250265;-0.05959314;0.07954757;-0.11856393;0.074901514
817;-2.664257;2.6978488;0.78925425;3.7157257;-8.878122;1.882211;0.0069115097;-0.046250265;-0.05959314;0.07954757;-0.11856393;0.074901514
818;-2.664257;2.6978488;0.78925425;3.7157257;-8.878122;1.882211;0.0069115097;-0.046250265;-0.05959314;0.07954757;-0.11856393;0.074901514
819;-2.664257;2.6978488;0.78925425;3.7157257;-8.878122;1.882211;0.0069115097;-0.046250265;-0.05959314;0.07954757;-0.11856393;0.074901514
820;-2.664257;2.6978488;0.78925425;3.7175772;-8.870467;1.9143747;-0.009751914;-0.040145736;-0.073193654;-0.26731282;0.2458615;-0.010168479
821;-2.664257;2.6978488;0.78925425;3.7175772;-8.870467;1.9143747;-0.009751914;-0.040145736;-0.073193654;-0.26731282;0.2458615;-0.010168479
822;-2.664257;2.6978488;0.78925425;3.7175772;-8.870467;1.9143747;-0.009751914;-0.040145736;-0.073193654;-0.26731282;0.2458615;-0.010168479
823;-2.664257;2.6978488;0.78925425;3.7175772;-8.870467;1.9143747;-0.009751914;-0.040145736;-0.073193654;-0.26731282;0.2458615;-0.010168479
824;-2.664257;2.6978488;0.78925425;3.7175772;-8.870467;1.9143747;-0.009751914;-0.040145736;-0.073193654;-0.26731282;0.2458615;-0.010168479
825;-2.6640656;2.7029111;0.80803716;3.695651;-8.868419;1.9656317;-0.014502247;-0.026686817;-0.061586108;0.037475877;0.13185154;-0.06839835
826;-2.6640656;2.7029111;0.80803716;3.695651;-8.868419;1.9656317;-0.014502247;-0.026686817;-0.061586108;0.037475877;0.13185154;-0.06839835
827;-2.6640656;2.7029111;0.80803716;3.695651;-8.868419;1.9656317;-0.014502247;-0.026686817;-0.061586108;0.037475877;0.13185154;-0.06839835
828;-2.6640656;2.7029111;0.80803716;3.695651;-8.868419;1.9656317;-0.014502247;-0.026686817;-0.061586108;0.037475877;0.13185154;-0.06839835
829;-2.6640656;2.7029111;0.80803716;3.695651;-8.868419;1.9656317;-0.014502247;-0.026686817;-0.061586108;0.037475877;0.13185154;-0.06839835
830;-2.6640656;2.7029111;0.80803716;3.695651;-8.868419;1.9656317;-0.014502247;-0.026686817;-0.061586108;0.037475877;0.13185154;-0.06839835
831;-2.674954;2.7026272;0.8162252;3.6765697;-8.855621;2.0569892;0.0033482283;-0.018319972;-0.028563742;0.23565757;-0.49992797;-0.08202702
832;-2.674954;2.7026272;0.8162252;3.6765697;-8.855621;2.0569892;0.0033482283;-0.018319972;-0.028563742;0.23565757;-0.49992797;-0.08202702
833;-2.674954;2.7026272;0.8162252;3.6765697;-8.855621;2.0569892;0.0033482283;-0.018319972;-0.028563742;0.23565757;-0.49992797;-0.08202702
834;-2.674954;2.7026272;0.8162252;3.6765697;-8.855621;2.0569892;0.0033482283;-0.018319972;-0.028563742;0.23565757;-0.49992797;-0.08202702
835;-2.674954;2.7026272;0.8162252;3.6765697;-8.855621;2.0569892;0.0033482283;-0.018319972;-0.028563742;0.23565757;-0.49992797;-0.08202702
836;-2.674954;2.7026272;0.8162252;3.6765697;-8.855621;2.0569892;0.0033482283;-0.018319972;-0.028563742;0.23565757;-0.49992797;-0.08202702
837;-2.6922274;2.7015126;0.8255554;3.6478484;-8.836322;2.1870093;0.04051516;-0.022589097;0.009659292;-0.31493422;0.56173515;-2.928634
838;-2.6922274;2.7015126;0.8255554;3.6478484;-8.836322;2.1870093;0.04051516;-0.022589097;0.009659292;-0.31493422;0.56173515;-2.928634
839;-2.6922274;2.7015126;0.8255554;3.6478484;-8.836322;2.1870093;0.04051516;-0.022589097;0.009659292;-0.31493422;0.56173515;-2.928634
840;-2.6922274;2.7015126;0.8255554;3.6478484;-8.836322;2.1870093;0.04051516;-0.022589097;0.009659292;-0.31493422;0.56173515;-2.928634
841;-2.6922274;2.7015126;0.8255554;3.6478484;-8.836322;2.1870093;0.04051516;-0.022589097;0.009659292;-0.31493422;0.56173515;-2.928634
842;-2.6922274;2.7015126;0.8255554;3.6478484;-8.836322;2.1870093;0.04051516;-0.022589097;0.009659292;-0.31493422;0.56173515;-2.928634
843;-2.708624;2.6996458;0.8349762;3.6274412;-8.811697;2.3164718;0.07291898;-0.02982212;0.03586703;-0.19791466;-0.13668656;0.06547612
844;-2.708624;2.6996458;0.8349762;3.6274412;-8.811697;2.3164718;0.07291898;-0.02982212;0.03586703;-0.19791466;-0.13668656;0.06547612
845;-2.708624;2.6996458;0.8349762;3.6274412;-8.811697;2.3164718;0.07291898;-0.02982212;0.03586703;-0.19791466;-0.13668656;0.06547612
846;-2.708624;2.6996458;0.8349762;3.6274412;-8.811697;2.3164718;0.07291898;-0.02982212;0.03586703;-0.19791466;-0.13668656;0.06547612
847;-2.708624;2.6996458;0.8349762;3.6274412;-8.811697;2.3164718;0.07291898;-0.02982212;0.03586703;-0.19791466;-0.13668656;0.06547612
848;-2.708624;2.6996458;0.8349762;3.6274412;-8.811697;2.3164718;0.07291898;-0.02982212;0.03586703;-0.19791466;-0.13668656;0.06547612
849;-2.7176101;2.7025733;0.84315306;3.5978756;-8.802681;2.3955116;0.076705836;-0.025226159;0.04329914;0.01188931;-0.05181183;-0.009446236
850;-2.7176101;2.7025733;0.84315306;3.5978756;-8.802681;2.3955116;0.076705836;-0.025226159;0.04329914;0.01188931;-0.05181183;-0.009446236
851;-2.7176101;2.7025733;0.84315306;3.5978756;-8.802681;2.3955116;0.076705836;-0.025226159;0.04329914;0.01188931;-0.05181183;-0.009446236
852;-2.7176101;2.7025733;0.84315306;3.5978756;-8.802681;2.3955116;0.076705836;-0.025226159;0.04329914;0.01188931;-0.05181183;-0.009446236
853;-2.7176101;2.7025733;0.84315306;3.5978756;-8.802681;2.3955116;0.076705836;-0.025226159;0.04329914;0.01188931;-0.05181183;-0.009446236
854;-2.7176101;2.7025733;0.84315306;3.5978756;-8.802681;2.3955116;0.076705836;-0.025226159;0.04329914;0.01188931;-0.05181183;-0.009446236
855;-2.7176101;2.7025733;0.84315306;3.6105666;-8.794902;2.4049754;0.049581457;-0.006527182;0.03541776;-0.2938408;0.6611397;0.36004466
856;-2.7176101;2.7025733;0.84315306;3.6105666;-8.794902;2.4049754;0.049581457;-0.006527182;0.03541776;-0.2938408;0.6611397;0.36004466
857;-2.7176101;2.7025733;0.84315306;3.6105666;-8.794902;2.4049754;0.049581457;-0.006527182;0.03541776;-0.2938408;0.6611397;0.36004466
858;-2.7176101;2.7025733;0.84315306;3.6105666;-8.794902;2.4049754;0.049581457;-0.006527182;0.03541776;-0.2938408;0.6611397;0.36004466
859;-2.7176101;2.7025733;0.84315306;3.6105666;-8.794902;2.4049754;0.049581457;-0.006527182;0.03541776;-0.2938408;0.6611397;0.36004466
860;-2.7176101;2.7025733;0.84315306;3.6105666;-8.794902;2.4049754;0.049581457;-0.006527182;0.03541776;-0.2938408;0.6611397;0.36004466
861;-2.7176101;2.7025733;0.84315306;3.6260722;-8.785265;2.4168353;0.013700588;0.010021263;0.01762797;-0.32935688;0.15057836;0.017621271
862;-2.7176101;2.7025733;0.84315306;3.6260722;-8.785265;2.4168353;0.013700588;0.010021263;0.01762797;-0.32935688;0.15057836;0.017621271
863;-2.7176101;2.7025733;0.84315306;3.6260722;-8.785265;2.4168353;0.013700588;0.010021263;0.01762797;-0.32935688;0.15057836;0.017621271
864;-2.7176101;2.7025733;0.84315306;3.6260722;-8.785265;2.4168353;0.013700588;0.010021263;0.01762797;-0.32935688;0.15057836;0.017621271
865;-2.7176101;2.7025733;0.84315306;3.6260722;-8.785265;2.4168353;0.013700588;0.010021263;0.01762797;-0.32935688;0.15057836;0.017621271
866;-2.7176101;2.7025733;0.84315306;3.6260722;-8.785265;2.4168353;0.013700588;0.010021263;0.01762797;-0.32935688;0.15057836;0.017621271
867;-2.7039046;2.7020473;0.8599979;3.6536853;-8.772357;2.4221315;-0.0054263654;0.008931093;-0.002716909;0.27774322;-0.4787493;-0.0350433
868;-2.7039046;2.7020473;0.8599979;3.6536853;-8.772357;2.4221315;-0.0054263654;0.008931093;-0.002716909;0.27774322;-0.4787493;-0.0350433
869;-2.7039046;2.7020473;0.8599979;3.6536853;-8.772357;2.4221315;-0.0054263654;0.008931093;-0.002716909;0.27774322;-0.4787493;-0.0350433
870;-2.7039046;2.7020473;0.8599979;3.6536853;-8.772357;2.4221315;-0.0054263654;0.008931093;-0.002716909;0.27774322;-0.4787493;-0.0350433
871;-2.7039046;2.7020473;0.8599979;3.6536853;-8.772357;2.4221315;-0.0054263654;0.008931093;-0.002716909;0.27774322;-0.4787493;-0.0350433
872;-2.7039046;2.7020473;0.8599979;3.6536853;-8.772357;2.4221315;-0.0054263654;0.008931093;-0.002716909;0.27774322;-0.4787493;-0.0350433
873;-2.7039046;2.7020473;0.8599979;3.6582675;-8.763765;2.4461963;0.0030086148;-0.00874159;-0.015240028;-0.80149823;0.97328985;-2.456077
874;-2.7039046;2.7020473;0.8599979;3.6582675;-8.763765;2.4461963;0.0030086148;-0.00874159;-0.015240028;-0.80149823;0.97328985;-2.456077
875;-2.7039046;2.7020473;0.8599979;3.6582675;-8.763765;2.4461963;0.0030086148;-0.00874159;-0.015240028;-0.80149823;0.97328985;-2.456077
876;-2.7039046;2.7020473;0.8599979;3.6582675;-8.763765;2.4461963;0.0030086148;-0.00874159;-0.015240028;-0.80149823;0.97328985;-2.456077
877;-2.7039046;2.7020473;0.8599979;3.6582675;-8.763765;2.4461963;0.0030086148;-0.00874159;-0.015240028;-0.80149823;0.97328985;-2.456077
878;-2.7039046;2.7020473;0.8599979;3.6582675;-8.763765;2.4461963;0.0030086148;-0.00874159;-0.015240028;-0.80149823;0.97328985;-2.456077
879;-2.7039046;2.7020473;0.8599979;3.6448324;-8.76361;2.4667277;0.029686915;-0.027283004;-0.013079915;-0.2185951;0.024411825;0.1008054
880;-2.7039046;2.7020473;0.8599979;3.6448324;-8.76361;2.4667277;0.029686915;-0.027283004;-0.013079915;-0.2185951;0.024411825;0.1008054
881;-2.7039046;2.7020473;0.8599979;3.6448324;-8.76361;2.4667277;0.029686915;-0.027283004;-0.013079915;-0.2185951;0.024411825;0.1008054
882;-2.7039046;2.7020473;0.8599979;3.6448324;-8.76361;2.4667277;0.029686915;-0.027283004;-0.013079915;-0.2185951;0.024411825;0.1008054
883;-2.7039046;2.7020473;0.8599979;3.6448324;-8.76361;2.4667277;0.029686915;-0.027283004;-0.013079915;-0.2185951;0.024411825;0.1008054
884;-2.7039046;2.7020473;0.8599979;3.6448324;-8.76361;2.4667277;0.029686915;-0.027283004;-0.013079915;-0.2185951;0.024411825;0.1008054
885;-2.7281935;2.700893;0.8710359;3.615016;-8.736365;2.6034524;0.04662927;-0.026892288;-0.0016608064;0.0502451;-0.0011215637;0.15769672
886;-2.7281935;2.700893;0.8710359;3.615016;-8.736365;2.6034524;0.04662927;-0.026892288;-0.0016608064;0.0502451;-0.0011215637;0.15769672
887;-2.7281935;2.700893;0.8710359;3.615016;-8.736365;2.6034524;0.04662927;-0.026892288;-0.0016608064;0.0502451;-0.0011215637;0.15769672
888;-2.7281935;2.700893;0.8710359;3.615016;-8.736365;2.6034524;0.04662927;-0.026892288;-0.0016608064;0.0502451;-0.0011215637;0.15769672
889;-2.7281935;2.700893;0.8710359;3.615016;-8.736365;2.6034524;0.04662927;-0.026892288;-0.0016608064;0.0502451;-0.0011215637;0.15769672
890;-2.7281935;2.700893;0.8710359;3.615016;-8.736365;2.6034524;0.04662927;-0.026892288;-0.0016608064;0.0502451;-0.0011215637;0.15769672
891;-2.7551208;2.701121;0.8751802;3.5562975;-8.71377;2.7556012;0.025485925;0.002621093;0.0050707827;0.04084273;0.07391073;0.17174193
892;-2.7551208;2.701121;0.8751802;3.5562975;-8.71377;2.7556012;0.025485925;0.002621093;0.0050707827;0.04084273;0.07391073;0.17174193
893;-2.7551208;2.701121;0.8751802;3.5562975;-8.71377;2.7556012;0.025485925;0.002621093;0.0050707827;0.04084273;0.07391073;0.17174193
