,Gravity X,Gravity Y,Gravity Z,User Acceleration X,User Acceleration Y,User Acceleration Z
0,0.8284095,-0.33908483,9.765713,-0.10446238,0.34186232,0.08191809
1,0.8284095,-0.33908483,9.765713,-0.10446238,0.34186232,0.08191809
2,0.8409915,-0.37770182,9.76322,-0.09292941,0.34183073,0.078247175
3,0.8409915,-0.37770182,9.76322,-0.09292941,0.34183073,0.078247175
4,0.8409915,-0.37770182,9.76322,-0.09292941,0.34183073,0.078247175
5,0.8409915,-0.37770182,9.76322,-0.09292941,0.34183073,0.078247175
6,0.8591497,-0.4356808,9.759223,-0.1071862,0.32811072,0.08613769
7,0.8591497,-0.4356808,9.759223,-0.1071862,0.32811072,0.08613769
8,0.8591497,-0.4356808,9.759223,-0.1071862,0.32811072,0.08613769
9,0.8591497,-0.4356808,9.759223,-0.1071862,0.32811072,0.08613769
10,0.88279223,-0.5130974,9.753348,-0.10721672,0.31729046,0.08163393
11,0.88279223,-0.5130974,9.753348,-0.10721672,0.31729046,0.08163393
12,0.88279223,-0.5130974,9.753348,-0.10721672,0.31729046,0.08163393
13,0.88279223,-0.5130974,9.753348,-0.10721672,0.31729046,0.08163393
14,0.91291636,-0.6099142,9.744998,-0.06997797,0.30937368,0.068579875
15,0.91291636,-0.6099142,9.744998,-0.06997797,0.30937368,0.068579875
16,0.91291636,-0.6099142,9.744998,-0.06997797,0.30937368,0.068579875
17,0.91291636,-0.6099142,9.744998,-0.06997797,0.30937368,0.068579875
18,0.91291636,-0.6099142,9.744998,-0.06997797,0.30937368,0.068579875
19,0.947942,-0.7256581,9.733715,-0.09178951,0.30880174,0.08402561
20,0.947942,-0.7256581,9.733715,-0.09178951,0.30880174,0.08402561
21,0.947942,-0.7256581,9.733715,-0.09178951,0.30880174,0.08402561
22,0.947942,-0.7256581,9.733715,-0.09178951,0.30880174,0.08402561
23,0.947942,-0.7256581,9.733715,-0.09178951,0.30880174,0.08402561
24,0.98201936,-0.84168583,9.720986,-0.10344731,0.29355747,0.090049796
25,0.98201936,-0.84168583,9.720986,-0.10344731,0.29355747,0.090049796
26,0.98201936,-0.84168583,9.720986,-0.10344731,0.29355747,0.090049796
27,0.98201936,-0.84168583,9.720986,-0.10344731,0.29355747,0.090049796
28,0.98201936,-0.84168583,9.720986,-0.10344731,0.29355747,0.090049796
29,1.0149778,-0.9576962,9.706855,-0.06787209,0.26904076,0.06420357
30,1.0149778,-0.9576962,9.706855,-0.06787209,0.26904076,0.06420357
31,1.0149778,-0.9576962,9.706855,-0.06787209,0.26904076,0.06420357
32,1.0149778,-0.9576962,9.706855,-0.06787209,0.26904076,0.06420357
33,1.0149778,-0.9576962,9.706855,-0.06787209,0.26904076,0.06420357
34,1.0480678,-1.0737427,9.691182,-0.06693957,0.27380723,0.08164239
35,1.0480678,-1.0737427,9.691182,-0.06693957,0.27380723,0.08164239
36,1.0480678,-1.0737427,9.691182,-0.06693957,0.27380723,0.08164239
37,1.0480678,-1.0737427,9.691182,-0.06693957,0.27380723,0.08164239
38,1.0797135,-1.1871296,9.674468,-0.06713051,0.24516496,0.07993861
39,1.0797135,-1.1871296,9.674468,-0.06713051,0.24516496,0.07993861
40,1.0797135,-1.1871296,9.674468,-0.06713051,0.24516496,0.07993861
41,1.0797135,-1.1871296,9.674468,-0.06713051,0.24516496,0.07993861
42,1.0797135,-1.1871296,9.674468,-0.06713051,0.24516496,0.07993861
43,1.1082168,-1.2993827,9.656803,-0.059831955,0.20492348,0.0986387
44,1.1082168,-1.2993827,9.656803,-0.059831955,0.20492348,0.0986387
45,1.1082168,-1.2993827,9.656803,-0.059831955,0.20492348,0.0986387
46,1.1082168,-1.2993827,9.656803,-0.059831955,0.20492348,0.0986387
47,1.1082168,-1.2993827,9.656803,-0.059831955,0.20492348,0.0986387
48,1.1371442,-1.4122676,9.637571,-0.06615736,0.29738465,0.054700464
49,1.1371442,-1.4122676,9.637571,-0.06615736,0.29738465,0.054700464
50,1.1371442,-1.4122676,9.637571,-0.06615736,0.29738465,0.054700464
51,1.1371442,-1.4122676,9.637571,-0.06615736,0.29738465,0.054700464
52,1.1371442,-1.4122676,9.637571,-0.06615736,0.29738465,0.054700464
53,1.1637795,-1.525054,9.617184,-0.049286928,0.223409,0.07409923
54,1.1637795,-1.525054,9.617184,-0.049286928,0.223409,0.07409923
55,1.1637795,-1.525054,9.617184,-0.049286928,0.223409,0.07409923
56,1.1637795,-1.525054,9.617184,-0.049286928,0.223409,0.07409923
57,1.1914089,-1.6380043,9.595201,-0.00058774673,0.21287142,0.058679257
58,1.1914089,-1.6380043,9.595201,-0.00058774673,0.21287142,0.058679257
59,1.1914089,-1.6380043,9.595201,-0.00058774673,0.21287142,0.058679257
60,1.1914089,-1.6380043,9.595201,-0.00058774673,0.21287142,0.058679257
61,1.1914089,-1.6380043,9.595201,-0.00058774673,0.21287142,0.058679257
62,1.2103019,-1.7538031,9.572342,-0.083105616,0.20106727,0.076849915
63,1.2103019,-1.7538031,9.572342,-0.083105616,0.20106727,0.076849915
64,1.2103019,-1.7538031,9.572342,-0.083105616,0.20106727,0.076849915
65,1.2103019,-1.7538031,9.572342,-0.083105616,0.20106727,0.076849915
66,1.2103019,-1.7538031,9.572342,-0.083105616,0.20106727,0.076849915
67,1.2280613,-1.8694197,9.548169,0.08271109,0.28251147,0.046563316
68,1.2280613,-1.8694197,9.548169,0.08271109,0.28251147,0.046563316
69,1.2280613,-1.8694197,9.548169,0.08271109,0.28251147,0.046563316
70,1.2280613,-1.8694197,9.548169,0.08271109,0.28251147,0.046563316
71,1.2280613,-1.8694197,9.548169,0.08271109,0.28251147,0.046563316
72,1.2364291,-1.9849596,9.523737,0.013275637,0.139431,0.018690849
73,1.2364291,-1.9849596,9.523737,0.013275637,0.139431,0.018690849
74,1.2364291,-1.9849596,9.523737,0.013275637,0.139431,0.018690849
75,1.2364291,-1.9849596,9.523737,0.013275637,0.139431,0.018690849
76,1.2364291,-1.9849596,9.523737,0.013275637,0.139431,0.018690849
77,1.2310467,-2.0892053,9.502112,0.14598213,0.091219746,0.038939755
78,1.2310467,-2.0892053,9.502112,0.14598213,0.091219746,0.038939755
79,1.2310467,-2.0892053,9.502112,0.14598213,0.091219746,0.038939755
80,1.2310467,-2.0892053,9.502112,0.14598213,0.091219746,0.038939755
81,1.2310467,-2.0892053,9.502112,0.14598213,0.091219746,0.038939755
82,1.2310467,-2.0892053,9.502112,0.14598213,0.091219746,0.038939755
83,1.2161933,-2.1892488,9.48148,0.20987532,0.010733186,0.29407272
84,1.2161933,-2.1892488,9.48148,0.20987532,0.010733186,0.29407272
85,1.2161933,-2.1892488,9.48148,0.20987532,0.010733186,0.29407272
86,1.2161933,-2.1892488,9.48148,0.20987532,0.010733186,0.29407272
87,1.2161933,-2.1892488,9.48148,0.20987532,0.010733186,0.29407272
88,1.2161933,-2.1892488,9.48148,0.20987532,0.010733186,0.29407272
89,1.1853393,-2.2820535,9.463487,0.16768104,0.07546633,0.020847067
90,1.1853393,-2.2820535,9.463487,0.16768104,0.07546633,0.020847067
91,1.1853393,-2.2820535,9.463487,0.16768104,0.07546633,0.020847067
92,1.1853393,-2.2820535,9.463487,0.16768104,0.07546633,0.020847067
93,1.1853393,-2.2820535,9.463487,0.16768104,0.07546633,0.020847067
94,1.1853393,-2.2820535,9.463487,0.16768104,0.07546633,0.020847067
95,1.1502831,-2.3690903,9.446409,0.22024065,-0.00613494,0.046928745
96,1.1502831,-2.3690903,9.446409,0.22024065,-0.00613494,0.046928745
97,1.1502831,-2.3690903,9.446409,0.22024065,-0.00613494,0.046928745
98,1.1502831,-2.3690903,9.446409,0.22024065,-0.00613494,0.046928745
99,1.1502831,-2.3690903,9.446409,0.22024065,-0.00613494,0.046928745
100,1.1502831,-2.3690903,9.446409,0.22024065,-0.00613494,0.046928745
101,1.1042628,-2.4525838,9.430579,0.13745122,0.23722088,-0.3466406
102,1.1042628,-2.4525838,9.430579,0.13745122,0.23722088,-0.3466406
103,1.1042628,-2.4525838,9.430579,0.13745122,0.23722088,-0.3466406
104,1.1042628,-2.4525838,9.430579,0.13745122,0.23722088,-0.3466406
105,1.1042628,-2.4525838,9.430579,0.13745122,0.23722088,-0.3466406
106,1.1042628,-2.4525838,9.430579,0.13745122,0.23722088,-0.3466406
107,1.0576143,-2.5321023,9.414897,0.17418572,0.04265544,0.02223947
108,1.0576143,-2.5321023,9.414897,0.17418572,0.04265544,0.02223947
109,1.0576143,-2.5321023,9.414897,0.17418572,0.04265544,0.02223947
110,1.0576143,-2.5321023,9.414897,0.17418572,0.04265544,0.02223947
111,1.0576143,-2.5321023,9.414897,0.17418572,0.04265544,0.02223947
112,1.0576143,-2.5321023,9.414897,0.17418572,0.04265544,0.02223947
113,1.0120587,-2.6174688,9.396542,0.15001737,0.029072313,0.01158233
114,1.0120587,-2.6174688,9.396542,0.15001737,0.029072313,0.01158233
115,1.0120587,-2.6174688,9.396542,0.15001737,0.029072313,0.01158233
116,1.0120587,-2.6174688,9.396542,0.15001737,0.029072313,0.01158233
117,1.0120587,-2.6174688,9.396542,0.15001737,0.029072313,0.01158233
118,1.0120587,-2.6174688,9.396542,0.15001737,0.029072313,0.01158233
119,0.96703136,-2.7027574,9.377118,0.1205336,0.04868889,0.016435958
120,0.96703136,-2.7027574,9.377118,0.1205336,0.04868889,0.016435958
121,0.96703136,-2.7027574,9.377118,0.1205336,0.04868889,0.016435958
122,0.96703136,-2.7027574,9.377118,0.1205336,0.04868889,0.016435958
123,0.96703136,-2.7027574,9.377118,0.1205336,0.04868889,0.016435958
124,0.96703136,-2.7027574,9.377118,0.1205336,0.04868889,0.016435958
125,0.92567176,-2.7884345,9.356182,0.119734325,-0.012761081,0.0055157566
126,0.92567176,-2.7884345,9.356182,0.119734325,-0.012761081,0.0055157566
127,0.92567176,-2.7884345,9.356182,0.119734325,-0.012761081,0.0055157566
128,0.92567176,-2.7884345,9.356182,0.119734325,-0.012761081,0.0055157566
129,0.92567176,-2.7884345,9.356182,0.119734325,-0.012761081,0.0055157566
130,0.92567176,-2.7884345,9.356182,0.119734325,-0.012761081,0.0055157566
131,0.88349867,-2.872742,9.334729,0.15253201,0.020622697,0.008210056
132,0.88349867,-2.872742,9.334729,0.15253201,0.020622697,0.008210056
133,0.88349867,-2.872742,9.334729,0.15253201,0.020622697,0.008210056
134,0.88349867,-2.872742,9.334729,0.15253201,0.020622697,0.008210056
135,0.88349867,-2.872742,9.334729,0.15253201,0.020622697,0.008210056
136,0.88349867,-2.872742,9.334729,0.15253201,0.020622697,0.008210056
137,0.8434938,-2.957706,9.311868,0.10940492,-0.0017054584,-0.002906422
138,0.8434938,-2.957706,9.311868,0.10940492,-0.0017054584,-0.002906422
139,0.8434938,-2.957706,9.311868,0.10940492,-0.0017054584,-0.002906422
140,0.8434938,-2.957706,9.311868,0.10940492,-0.0017054584,-0.002906422
141,0.8434938,-2.957706,9.311868,0.10940492,-0.0017054584,-0.002906422
142,0.8434938,-2.957706,9.311868,0.10940492,-0.0017054584,-0.002906422
143,0.8035954,-3.042148,9.288162,0.11705255,-0.0064083072,-0.003858541
144,0.8035954,-3.042148,9.288162,0.11705255,-0.0064083072,-0.003858541
145,0.8035954,-3.042148,9.288162,0.11705255,-0.0064083072,-0.003858541
146,0.8035954,-3.042148,9.288162,0.11705255,-0.0064083072,-0.003858541
147,0.8035954,-3.042148,9.288162,0.11705255,-0.0064083072,-0.003858541
148,0.8035954,-3.042148,9.288162,0.11705255,-0.0064083072,-0.003858541
149,0.7644923,-3.126552,9.263402,0.10525667,-0.020381434,0.00093918934
150,0.7644923,-3.126552,9.263402,0.10525667,-0.020381434,0.00093918934
151,0.7644923,-3.126552,9.263402,0.10525667,-0.020381434,0.00093918934
152,0.7644923,-3.126552,9.263402,0.10525667,-0.020381434,0.00093918934
153,0.7644923,-3.126552,9.263402,0.10525667,-0.020381434,0.00093918934
154,0.7644923,-3.126552,9.263402,0.10525667,-0.020381434,0.00093918934
155,0.71900994,-3.1913218,9.244938,0.10550148,-0.022102714,-0.0058241207
156,0.71900994,-3.1913218,9.244938,0.10550148,-0.022102714,-0.0058241207
157,0.71900994,-3.1913218,9.244938,0.10550148,-0.022102714,-0.0058241207
158,0.71900994,-3.1913218,9.244938,0.10550148,-0.022102714,-0.0058241207
159,0.71900994,-3.1913218,9.244938,0.10550148,-0.022102714,-0.0058241207
160,0.71900994,-3.1913218,9.244938,0.10550148,-0.022102714,-0.0058241207
161,0.66741747,-3.2393835,9.232082,0.09828986,-0.028466303,-0.0071345726
162,0.66741747,-3.2393835,9.232082,0.09828986,-0.028466303,-0.0071345726
163,0.66741747,-3.2393835,9.232082,0.09828986,-0.028466303,-0.0071345726
164,0.66741747,-3.2393835,9.232082,0.09828986,-0.028466303,-0.0071345726
165,0.66741747,-3.2393835,9.232082,0.09828986,-0.028466303,-0.0071345726
166,0.66741747,-3.2393835,9.232082,0.09828986,-0.028466303,-0.0071345726
167,0.6127966,-3.2686067,9.225567,0.095162556,-0.032909565,-0.00877497
168,0.6127966,-3.2686067,9.225567,0.095162556,-0.032909565,-0.00877497
169,0.6127966,-3.2686067,9.225567,0.095162556,-0.032909565,-0.00877497
170,0.6127966,-3.2686067,9.225567,0.095162556,-0.032909565,-0.00877497
171,0.6127966,-3.2686067,9.225567,0.095162556,-0.032909565,-0.00877497
172,0.6127966,-3.2686067,9.225567,0.095162556,-0.032909565,-0.00877497
173,0.5526545,-3.279809,9.2253895,0.08854375,-0.03942075,-0.0053762537
174,0.5526545,-3.279809,9.2253895,0.08854375,-0.03942075,-0.0053762537
175,0.5526545,-3.279809,9.2253895,0.08854375,-0.03942075,-0.0053762537
176,0.5526545,-3.279809,9.2253895,0.08854375,-0.03942075,-0.0053762537
177,0.5526545,-3.279809,9.2253895,0.08854375,-0.03942075,-0.0053762537
178,0.5526545,-3.279809,9.2253895,0.08854375,-0.03942075,-0.0053762537
179,0.48691484,-3.2728019,9.23158,0.07744943,-0.030896641,-0.00425712
180,0.48691484,-3.2728019,9.23158,0.07744943,-0.030896641,-0.00425712
181,0.48691484,-3.2728019,9.23158,0.07744943,-0.030896641,-0.00425712
182,0.48691484,-3.2728019,9.23158,0.07744943,-0.030896641,-0.00425712
183,0.48691484,-3.2728019,9.23158,0.07744943,-0.030896641,-0.00425712
184,0.48691484,-3.2728019,9.23158,0.07744943,-0.030896641,-0.00425712
185,0.4170653,-3.2479172,9.243781,0.06691239,-0.03372923,-0.006430156
186,0.4170653,-3.2479172,9.243781,0.06691239,-0.03372923,-0.006430156
187,0.4170653,-3.2479172,9.243781,0.06691239,-0.03372923,-0.006430156
188,0.4170653,-3.2479172,9.243781,0.06691239,-0.03372923,-0.006430156
189,0.4170653,-3.2479172,9.243781,0.06691239,-0.03372923,-0.006430156
190,0.4170653,-3.2479172,9.243781,0.06691239,-0.03372923,-0.006430156
191,0.34801143,-3.2223365,9.255584,0.064754404,-0.027704822,-0.0066913716
192,0.34801143,-3.2223365,9.255584,0.064754404,-0.027704822,-0.0066913716
193,0.34801143,-3.2223365,9.255584,0.064754404,-0.027704822,-0.0066913716
194,0.34801143,-3.2223365,9.255584,0.064754404,-0.027704822,-0.0066913716
195,0.34801143,-3.2223365,9.255584,0.064754404,-0.027704822,-0.0066913716
196,0.34801143,-3.2223365,9.255584,0.064754404,-0.027704822,-0.0066913716
197,0.2796889,-3.1966825,9.266789,0.053884912,-0.025577841,-0.00066796085
198,0.2796889,-3.1966825,9.266789,0.053884912,-0.025577841,-0.00066796085
199,0.2796889,-3.1966825,9.266789,0.053884912,-0.025577841,-0.00066796085
200,0.2796889,-3.1966825,9.266789,0.053884912,-0.025577841,-0.00066796085
201,0.2796889,-3.1966825,9.266789,0.053884912,-0.025577841,-0.00066796085
202,0.2796889,-3.1966825,9.266789,0.053884912,-0.025577841,-0.00066796085
203,0.21105862,-3.1706908,9.27753,0.047377076,-0.02390456,-0.0029899292
204,0.21105862,-3.1706908,9.27753,0.047377076,-0.02390456,-0.0029899292
205,0.21105862,-3.1706908,9.27753,0.047377076,-0.02390456,-0.0029899292
206,0.21105862,-3.1706908,9.27753,0.047377076,-0.02390456,-0.0029899292
207,0.21105862,-3.1706908,9.27753,0.047377076,-0.02390456,-0.0029899292
208,0.21105862,-3.1706908,9.27753,0.047377076,-0.02390456,-0.0029899292
209,0.14412099,-3.1469595,9.286886,0.040065553,-0.019044904,-0.004476728
210,0.14412099,-3.1469595,9.286886,0.040065553,-0.019044904,-0.004476728
211,0.14412099,-3.1469595,9.286886,0.040065553,-0.019044904,-0.004476728
212,0.14412099,-3.1469595,9.286886,0.040065553,-0.019044904,-0.004476728
213,0.14412099,-3.1469595,9.286886,0.040065553,-0.019044904,-0.004476728
214,0.14412099,-3.1469595,9.286886,0.040065553,-0.019044904,-0.004476728
215,0.08001249,-3.123634,9.29553,0.03597111,-0.017155297,0.0032380207
216,0.08001249,-3.123634,9.29553,0.03597111,-0.017155297,0.0032380207
217,0.08001249,-3.123634,9.29553,0.03597111,-0.017155297,0.0032380207
218,0.08001249,-3.123634,9.29553,0.03597111,-0.017155297,0.0032380207
219,0.08001249,-3.123634,9.29553,0.03597111,-0.017155297,0.0032380207
220,0.08001249,-3.123634,9.29553,0.03597111,-0.017155297,0.0032380207
221,0.015401598,-3.099666,9.303883,0.027432427,-0.013247737,0.0016488552
222,0.015401598,-3.099666,9.303883,0.027432427,-0.013247737,0.0016488552
223,0.015401598,-3.099666,9.303883,0.027432427,-0.013247737,0.0016488552
224,0.015401598,-3.099666,9.303883,0.027432427,-0.013247737,0.0016488552
225,0.015401598,-3.099666,9.303883,0.027432427,-0.013247737,0.0016488552
226,0.015401598,-3.099666,9.303883,0.027432427,-0.013247737,0.0016488552
227,-0.046446405,-3.0755732,9.311771,0.016246697,-0.019089721,-0.0068211528
228,-0.046446405,-3.0755732,9.311771,0.016246697,-0.019089721,-0.0068211528
229,-0.046446405,-3.0755732,9.311771,0.016246697,-0.019089721,-0.0068211528
230,-0.046446405,-3.0755732,9.311771,0.016246697,-0.019089721,-0.0068211528
231,-0.046446405,-3.0755732,9.311771,0.016246697,-0.019089721,-0.0068211528
232,-0.046446405,-3.0755732,9.311771,0.016246697,-0.019089721,-0.0068211528
233,-0.10911999,-3.0509305,9.319351,0.01766778,-0.011208468,0.0042019025
234,-0.10911999,-3.0509305,9.319351,0.01766778,-0.011208468,0.0042019025
235,-0.10911999,-3.0509305,9.319351,0.01766778,-0.011208468,0.0042019025
236,-0.10911999,-3.0509305,9.319351,0.01766778,-0.011208468,0.0042019025
237,-0.10911999,-3.0509305,9.319351,0.01766778,-0.011208468,0.0042019025
238,-0.10911999,-3.0509305,9.319351,0.01766778,-0.011208468,0.0042019025
239,-0.1626632,-3.0234144,9.327535,0.003911814,-0.013772816,0.00064307393
240,-0.1626632,-3.0234144,9.327535,0.003911814,-0.013772816,0.00064307393
241,-0.1626632,-3.0234144,9.327535,0.003911814,-0.013772816,0.00064307393
242,-0.1626632,-3.0234144,9.327535,0.003911814,-0.013772816,0.00064307393
243,-0.1626632,-3.0234144,9.327535,0.003911814,-0.013772816,0.00064307393
244,-0.1626632,-3.0234144,9.327535,0.003911814,-0.013772816,0.00064307393
245,-0.1626632,-3.0234144,9.327535,0.003911814,-0.013772816,0.00064307393
246,-0.21547982,-2.9954324,9.335488,0.0014565422,-0.009456079,0.0014538429
247,-0.21547982,-2.9954324,9.335488,0.0014565422,-0.009456079,0.0014538429
248,-0.21547982,-2.9954324,9.335488,0.0014565422,-0.009456079,0.0014538429
249,-0.21547982,-2.9954324,9.335488,0.0014565422,-0.009456079,0.0014538429
250,-0.21547982,-2.9954324,9.335488,0.0014565422,-0.009456079,0.0014538429
251,-0.21547982,-2.9954324,9.335488,0.0014565422,-0.009456079,0.0014538429
252,-0.2596092,-2.9675465,9.343268,0.0008630491,-0.004661022,0.004687489
253,-0.2596092,-2.9675465,9.343268,0.0008630491,-0.004661022,0.004687489
254,-0.2596092,-2.9675465,9.343268,0.0008630491,-0.004661022,0.004687489
255,-0.2596092,-2.9675465,9.343268,0.0008630491,-0.004661022,0.004687489
256,-0.2596092,-2.9675465,9.343268,0.0008630491,-0.004661022,0.004687489
257,-0.2596092,-2.9675465,9.343268,0.0008630491,-0.004661022,0.004687489
258,-0.29049695,-2.9500732,9.347891,-0.006190463,-0.015570823,0.0022300035
259,-0.29049695,-2.9500732,9.347891,-0.006190463,-0.015570823,0.0022300035
260,-0.29049695,-2.9500732,9.347891,-0.006190463,-0.015570823,0.0022300035
261,-0.29049695,-2.9500732,9.347891,-0.006190463,-0.015570823,0.0022300035
262,-0.29049695,-2.9500732,9.347891,-0.006190463,-0.015570823,0.0022300035
263,-0.29049695,-2.9500732,9.347891,-0.006190463,-0.015570823,0.0022300035
264,-0.31224367,-2.936265,9.351538,-0.0020617708,-0.007817771,0.0030898657
265,-0.31224367,-2.936265,9.351538,-0.0020617708,-0.007817771,0.0030898657
266,-0.31224367,-2.936265,9.351538,-0.0020617708,-0.007817771,0.0030898657
267,-0.31224367,-2.936265,9.351538,-0.0020617708,-0.007817771,0.0030898657
268,-0.31224367,-2.936265,9.351538,-0.0020617708,-0.007817771,0.0030898657
269,-0.31224367,-2.936265,9.351538,-0.0020617708,-0.007817771,0.0030898657
270,-0.3182075,-2.9295094,9.353454,-0.006574617,-0.0056647863,0.0067019677
271,-0.3182075,-2.9295094,9.353454,-0.006574617,-0.0056647863,0.0067019677
272,-0.3182075,-2.9295094,9.353454,-0.006574617,-0.0056647863,0.0067019677
273,-0.3182075,-2.9295094,9.353454,-0.006574617,-0.0056647863,0.0067019677
274,-0.3182075,-2.9295094,9.353454,-0.006574617,-0.0056647863,0.0067019677
275,-0.3182075,-2.9295094,9.353454,-0.006574617,-0.0056647863,0.0067019677
276,-0.32171822,-2.9285977,9.35362,-0.0069324877,-0.008988648,0.002813971
277,-0.32171822,-2.9285977,9.35362,-0.0069324877,-0.008988648,0.002813971
278,-0.32171822,-2.9285977,9.35362,-0.0069324877,-0.008988648,0.002813971
279,-0.32171822,-2.9285977,9.35362,-0.0069324877,-0.008988648,0.002813971
280,-0.32171822,-2.9285977,9.35362,-0.0069324877,-0.008988648,0.002813971
281,-0.32171822,-2.9285977,9.35362,-0.0069324877,-0.008988648,0.002813971
282,-0.31467474,-2.9313025,9.353011,-0.0023095857,-0.00780003,0.00079949206
283,-0.31467474,-2.9313025,9.353011,-0.0023095857,-0.00780003,0.00079949206
284,-0.31467474,-2.9313025,9.353011,-0.0023095857,-0.00780003,0.00079949206
285,-0.31467474,-2.9313025,9.353011,-0.0023095857,-0.00780003,0.00079949206
286,-0.31467474,-2.9313025,9.353011,-0.0023095857,-0.00780003,0.00079949206
287,-0.31467474,-2.9313025,9.353011,-0.0023095857,-0.00780003,0.00079949206
288,-0.30639735,-2.9374483,9.351358,-0.0053707277,-0.0064740484,0.0020953615
289,-0.30639735,-2.9374483,9.351358,-0.0053707277,-0.0064740484,0.0020953615
290,-0.30639735,-2.9374483,9.351358,-0.0053707277,-0.0064740484,0.0020953615
291,-0.30639735,-2.9374483,9.351358,-0.0053707277,-0.0064740484,0.0020953615
292,-0.30639735,-2.9374483,9.351358,-0.0053707277,-0.0064740484,0.0020953615
293,-0.30639735,-2.9374483,9.351358,-0.0053707277,-0.0064740484,0.0020953615
294,-0.2993504,-2.9373941,9.3516035,-0.0026999293,-0.008909102,0.0055371434
295,-0.2993504,-2.9373941,9.3516035,-0.0026999293,-0.008909102,0.0055371434
296,-0.2993504,-2.9373941,9.3516035,-0.0026999293,-0.008909102,0.0055371434
297,-0.2993504,-2.9373941,9.3516035,-0.0026999293,-0.008909102,0.0055371434
298,-0.2993504,-2.9373941,9.3516035,-0.0026999293,-0.008909102,0.0055371434
299,-0.2993504,-2.9373941,9.3516035,-0.0026999293,-0.008909102,0.0055371434
300,-0.29311016,-2.93684,9.351975,0.0008648658,-0.004947708,0.0070393994
301,-0.29311016,-2.93684,9.351975,0.0008648658,-0.004947708,0.0070393994
302,-0.29311016,-2.93684,9.351975,0.0008648658,-0.004947708,0.0070393994
303,-0.29311016,-2.93684,9.351975,0.0008648658,-0.004947708,0.0070393994
304,-0.29311016,-2.93684,9.351975,0.0008648658,-0.004947708,0.0070393994
305,-0.29311016,-2.93684,9.351975,0.0008648658,-0.004947708,0.0070393994
306,-0.29063642,-2.9356334,9.352431,-0.004740339,-0.008729619,-0.0017001844
307,-0.29063642,-2.9356334,9.352431,-0.004740339,-0.008729619,-0.0017001844
308,-0.29063642,-2.9356334,9.352431,-0.004740339,-0.008729619,-0.0017001844
309,-0.29063642,-2.9356334,9.352431,-0.004740339,-0.008729619,-0.0017001844
310,-0.29063642,-2.9356334,9.352431,-0.004740339,-0.008729619,-0.0017001844
311,-0.29063642,-2.9356334,9.352431,-0.004740339,-0.008729619,-0.0017001844
312,-0.2857943,-2.9349058,9.352809,-0.0066873175,-0.0052386466,0.0037075668
313,-0.2857943,-2.9349058,9.352809,-0.0066873175,-0.0052386466,0.0037075668
314,-0.2857943,-2.9349058,9.352809,-0.0066873175,-0.0052386466,0.0037075668
315,-0.2857943,-2.9349058,9.352809,-0.0066873175,-0.0052386466,0.0037075668
316,-0.2857943,-2.9349058,9.352809,-0.0066873175,-0.0052386466,0.0037075668
317,-0.2857943,-2.9349058,9.352809,-0.0066873175,-0.0052386466,0.0037075668
318,-0.28326625,-2.932977,9.353491,-0.0020365892,-0.0011371181,0.009634444
319,-0.28326625,-2.932977,9.353491,-0.0020365892,-0.0011371181,0.009634444
320,-0.28326625,-2.932977,9.353491,-0.0020365892,-0.0011371181,0.009634444
321,-0.28326625,-2.932977,9.353491,-0.0020365892,-0.0011371181,0.009634444
322,-0.28326625,-2.932977,9.353491,-0.0020365892,-0.0011371181,0.009634444
323,-0.28326625,-2.932977,9.353491,-0.0020365892,-0.0011371181,0.009634444
324,-0.28109092,-2.931026,9.354168,-0.010112784,-0.0028906974,0.0053104395
325,-0.28109092,-2.931026,9.354168,-0.010112784,-0.0028906974,0.0053104395
326,-0.28109092,-2.931026,9.354168,-0.010112784,-0.0028906974,0.0053104395
327,-0.28109092,-2.931026,9.354168,-0.010112784,-0.0028906974,0.0053104395
328,-0.28109092,-2.931026,9.354168,-0.010112784,-0.0028906974,0.0053104395
329,-0.28109092,-2.931026,9.354168,-0.010112784,-0.0028906974,0.0053104395
330,-0.27958596,-2.928455,9.355019,-0.0031257758,-0.0011642895,0.005397155
331,-0.27958596,-2.928455,9.355019,-0.0031257758,-0.0011642895,0.005397155
332,-0.27958596,-2.928455,9.355019,-0.0031257758,-0.0011642895,0.005397155
333,-0.27958596,-2.928455,9.355019,-0.0031257758,-0.0011642895,0.005397155
334,-0.27958596,-2.928455,9.355019,-0.0031257758,-0.0011642895,0.005397155
335,-0.27958596,-2.928455,9.355019,-0.0031257758,-0.0011642895,0.005397155
336,-0.27733254,-2.9272463,9.355464,-0.0028960702,-0.007386552,0.00251387
337,-0.27733254,-2.9272463,9.355464,-0.0028960702,-0.007386552,0.00251387
338,-0.27733254,-2.9272463,9.355464,-0.0028960702,-0.007386552,0.00251387
339,-0.27733254,-2.9272463,9.355464,-0.0028960702,-0.007386552,0.00251387
340,-0.27733254,-2.9272463,9.355464,-0.0028960702,-0.007386552,0.00251387
341,-0.27733254,-2.9272463,9.355464,-0.0028960702,-0.007386552,0.00251387
342,-0.27477318,-2.9242146,9.356487,-0.0006827192,-0.0021963674,0.006034979
343,-0.27477318,-2.9242146,9.356487,-0.0006827192,-0.0021963674,0.006034979
344,-0.27477318,-2.9242146,9.356487,-0.0006827192,-0.0021963674,0.006034979
345,-0.27477318,-2.9242146,9.356487,-0.0006827192,-0.0021963674,0.006034979
346,-0.27477318,-2.9242146,9.356487,-0.0006827192,-0.0021963674,0.006034979
347,-0.27477318,-2.9242146,9.356487,-0.0006827192,-0.0021963674,0.006034979
348,-0.2744381,-2.9221282,9.357149,-0.0035772491,-0.0024718002,0.005126218
349,-0.2744381,-2.9221282,9.357149,-0.0035772491,-0.0024718002,0.005126218
350,-0.2744381,-2.9221282,9.357149,-0.0035772491,-0.0024718002,0.005126218
351,-0.2744381,-2.9221282,9.357149,-0.0035772491,-0.0024718002,0.005126218
352,-0.2744381,-2.9221282,9.357149,-0.0035772491,-0.0024718002,0.005126218
353,-0.2744381,-2.9221282,9.357149,-0.0035772491,-0.0024718002,0.005126218
354,-0.2729733,-2.9199667,9.357866,0.00047698297,-0.0022514635,0.0037349812
355,-0.2729733,-2.9199667,9.357866,0.00047698297,-0.0022514635,0.0037349812
356,-0.2729733,-2.9199667,9.357866,0.00047698297,-0.0022514635,0.0037349812
357,-0.2729733,-2.9199667,9.357866,0.00047698297,-0.0022514635,0.0037349812
358,-0.2729733,-2.9199667,9.357866,0.00047698297,-0.0022514635,0.0037349812
359,-0.2729733,-2.9199667,9.357866,0.00047698297,-0.0022514635,0.0037349812
360,-0.27171826,-2.9181361,9.358475,0.000116803225,-0.0049935444,0.007213802
361,-0.27171826,-2.9181361,9.358475,0.000116803225,-0.0049935444,0.007213802
362,-0.27171826,-2.9181361,9.358475,0.000116803225,-0.0049935444,0.007213802
363,-0.27171826,-2.9181361,9.358475,0.000116803225,-0.0049935444,0.007213802
364,-0.27171826,-2.9181361,9.358475,0.000116803225,-0.0049935444,0.007213802
365,-0.27171826,-2.9181361,9.358475,0.000116803225,-0.0049935444,0.007213802
366,-0.27065262,-2.9167304,9.358943,-0.0007507967,-0.00485025,0.0053090784
367,-0.27065262,-2.9167304,9.358943,-0.0007507967,-0.00485025,0.0053090784
368,-0.27065262,-2.9167304,9.358943,-0.0007507967,-0.00485025,0.0053090784
369,-0.27065262,-2.9167304,9.358943,-0.0007507967,-0.00485025,0.0053090784
370,-0.27065262,-2.9167304,9.358943,-0.0007507967,-0.00485025,0.0053090784
371,-0.27065262,-2.9167304,9.358943,-0.0007507967,-0.00485025,0.0053090784
372,-0.26970467,-2.9158168,9.359256,0.00032206252,-0.00085220666,0.0029003946
373,-0.26970467,-2.9158168,9.359256,0.00032206252,-0.00085220666,0.0029003946
374,-0.26970467,-2.9158168,9.359256,0.00032206252,-0.00085220666,0.0029003946
375,-0.26970467,-2.9158168,9.359256,0.00032206252,-0.00085220666,0.0029003946
376,-0.26970467,-2.9158168,9.359256,0.00032206252,-0.00085220666,0.0029003946
377,-0.26970467,-2.9158168,9.359256,0.00032206252,-0.00085220666,0.0029003946
378,-0.26851916,-2.9147494,9.359622,0.0028834795,-0.0041601975,0.0063545234
379,-0.26851916,-2.9147494,9.359622,0.0028834795,-0.0041601975,0.0063545234
380,-0.26851916,-2.9147494,9.359622,0.0028834795,-0.0041601975,0.0063545234
381,-0.26851916,-2.9147494,9.359622,0.0028834795,-0.0041601975,0.0063545234
382,-0.26851916,-2.9147494,9.359622,0.0028834795,-0.0041601975,0.0063545234
383,-0.26851916,-2.9147494,9.359622,0.0028834795,-0.0041601975,0.0063545234
384,-0.26770407,-2.9138021,9.359941,0.0024784533,-0.006016095,0.006875107
385,-0.26770407,-2.9138021,9.359941,0.0024784533,-0.006016095,0.006875107
386,-0.26770407,-2.9138021,9.359941,0.0024784533,-0.006016095,0.006875107
387,-0.26770407,-2.9138021,9.359941,0.0024784533,-0.006016095,0.006875107
388,-0.26770407,-2.9138021,9.359941,0.0024784533,-0.006016095,0.006875107
389,-0.26770407,-2.9138021,9.359941,0.0024784533,-0.006016095,0.006875107
390,-0.26753116,-2.9129946,9.360196,0.0015198515,-0.0044694366,0.0010437921
391,-0.26753116,-2.9129946,9.360196,0.0015198515,-0.0044694366,0.0010437921
392,-0.26753116,-2.9129946,9.360196,0.0015198515,-0.0044694366,0.0010437921
393,-0.26753116,-2.9129946,9.360196,0.0015198515,-0.0044694366,0.0010437921
394,-0.26753116,-2.9129946,9.360196,0.0015198515,-0.0044694366,0.0010437921
395,-0.26753116,-2.9129946,9.360196,0.0015198515,-0.0044694366,0.0010437921
396,-0.26731586,-2.9118001,9.360575,-0.005779914,-0.006788246,0.007915983
397,-0.26731586,-2.9118001,9.360575,-0.005779914,-0.006788246,0.007915983
398,-0.26731586,-2.9118001,9.360575,-0.005779914,-0.006788246,0.007915983
399,-0.26731586,-2.9118001,9.360575,-0.005779914,-0.006788246,0.007915983
400,-0.26731586,-2.9118001,9.360575,-0.005779914,-0.006788246,0.007915983
401,-0.26731586,-2.9118001,9.360575,-0.005779914,-0.006788246,0.007915983
402,-0.26757982,-2.9106102,9.360936,0.0044435747,0.007000246,0.004047915
403,-0.26757982,-2.9106102,9.360936,0.0044435747,0.007000246,0.004047915
404,-0.26757982,-2.9106102,9.360936,0.0044435747,0.007000246,0.004047915
405,-0.26757982,-2.9106102,9.360936,0.0044435747,0.007000246,0.004047915
406,-0.26757982,-2.9106102,9.360936,0.0044435747,0.007000246,0.004047915
407,-0.26757982,-2.9106102,9.360936,0.0044435747,0.007000246,0.004047915
408,-0.26740906,-2.9096386,9.361243,0.001044184,-0.010960936,0.008472244
409,-0.26740906,-2.9096386,9.361243,0.001044184,-0.010960936,0.008472244
410,-0.26740906,-2.9096386,9.361243,0.001044184,-0.010960936,0.008472244
411,-0.26740906,-2.9096386,9.361243,0.001044184,-0.010960936,0.008472244
412,-0.26740906,-2.9096386,9.361243,0.001044184,-0.010960936,0.008472244
413,-0.26740906,-2.9096386,9.361243,0.001044184,-0.010960936,0.008472244
414,-0.26766223,-2.9087315,9.361518,4.2148564e-05,-0.014773372,0.006547786
415,-0.26766223,-2.9087315,9.361518,4.2148564e-05,-0.014773372,0.006547786
416,-0.26766223,-2.9087315,9.361518,4.2148564e-05,-0.014773372,0.006547786
417,-0.26766223,-2.9087315,9.361518,4.2148564e-05,-0.014773372,0.006547786
418,-0.26766223,-2.9087315,9.361518,4.2148564e-05,-0.014773372,0.006547786
419,-0.26766223,-2.9087315,9.361518,4.2148564e-05,-0.014773372,0.006547786
420,-0.26796785,-2.9077592,9.361812,0.0044040205,-0.0029595254,0.0041371575
421,-0.26796785,-2.9077592,9.361812,0.0044040205,-0.0029595254,0.0041371575
422,-0.26796785,-2.9077592,9.361812,0.0044040205,-0.0029595254,0.0041371575
423,-0.26796785,-2.9077592,9.361812,0.0044040205,-0.0029595254,0.0041371575
424,-0.26796785,-2.9077592,9.361812,0.0044040205,-0.0029595254,0.0041371575
425,-0.26796785,-2.9077592,9.361812,0.0044040205,-0.0029595254,0.0041371575
426,-0.26862368,-2.9070811,9.362003,-0.006401343,0.0024788482,0.010014066
427,-0.26862368,-2.9070811,9.362003,-0.006401343,0.0024788482,0.010014066
428,-0.26862368,-2.9070811,9.362003,-0.006401343,0.0024788482,0.010014066
429,-0.26862368,-2.9070811,9.362003,-0.006401343,0.0024788482,0.010014066
430,-0.26862368,-2.9070811,9.362003,-0.006401343,0.0024788482,0.010014066
431,-0.26862368,-2.9070811,9.362003,-0.006401343,0.0024788482,0.010014066
432,-0.26911443,-2.9069412,9.362033,-0.00010588482,-0.008245394,0.0041597113
433,-0.26911443,-2.9069412,9.362033,-0.00010588482,-0.008245394,0.0041597113
434,-0.26911443,-2.9069412,9.362033,-0.00010588482,-0.008245394,0.0041597113
435,-0.26911443,-2.9069412,9.362033,-0.00010588482,-0.008245394,0.0041597113
436,-0.26911443,-2.9069412,9.362033,-0.00010588482,-0.008245394,0.0041597113
437,-0.26911443,-2.9069412,9.362033,-0.00010588482,-0.008245394,0.0041597113
438,-0.26874536,-2.9077482,9.361793,0.009205907,-0.0024702935,0.0055995556
439,-0.26874536,-2.9077482,9.361793,0.009205907,-0.0024702935,0.0055995556
440,-0.26874536,-2.9077482,9.361793,0.009205907,-0.0024702935,0.0055995556
441,-0.26874536,-2.9077482,9.361793,0.009205907,-0.0024702935,0.0055995556
442,-0.26874536,-2.9077482,9.361793,0.009205907,-0.0024702935,0.0055995556
443,-0.26874536,-2.9077482,9.361793,0.009205907,-0.0024702935,0.0055995556
444,-0.26874536,-2.9077482,9.361793,0.009205907,-0.0024702935,0.0055995556
445,-0.2689792,-2.9085834,9.3615265,0.00918207,-0.004995999,0.0050843186
446,-0.2689792,-2.9085834,9.3615265,0.00918207,-0.004995999,0.0050843186
447,-0.2689792,-2.9085834,9.3615265,0.00918207,-0.004995999,0.0050843186
448,-0.2689792,-2.9085834,9.3615265,0.00918207,-0.004995999,0.0050843186
449,-0.2689792,-2.9085834,9.3615265,0.00918207,-0.004995999,0.0050843186
450,-0.2689792,-2.9085834,9.3615265,0.00918207,-0.004995999,0.0050843186
451,-0.2691073,-2.9098868,9.361117,0.0052640955,-0.00024772686,0.0021139295
452,-0.2691073,-2.9098868,9.361117,0.0052640955,-0.00024772686,0.0021139295
453,-0.2691073,-2.9098868,9.361117,0.0052640955,-0.00024772686,0.0021139295
454,-0.2691073,-2.9098868,9.361117,0.0052640955,-0.00024772686,0.0021139295
455,-0.2691073,-2.9098868,9.361117,0.0052640955,-0.00024772686,0.0021139295
456,-0.26916102,-2.9118412,9.360509,0.002329937,-0.00972111,0.005956819
457,-0.26916102,-2.9118412,9.360509,0.002329937,-0.00972111,0.005956819
458,-0.26916102,-2.9118412,9.360509,0.002329937,-0.00972111,0.005956819
459,-0.26916102,-2.9118412,9.360509,0.002329937,-0.00972111,0.005956819
460,-0.26916102,-2.9118412,9.360509,0.002329937,-0.00972111,0.005956819
461,-0.26916102,-2.9118412,9.360509,0.002329937,-0.00972111,0.005956819
462,-0.26916102,-2.9118412,9.360509,0.002329937,-0.00972111,0.005956819
463,-0.26813498,-2.913876,9.359904,0.0078037847,-0.0011424891,0.006383299
464,-0.26813498,-2.913876,9.359904,0.0078037847,-0.0011424891,0.006383299
465,-0.26813498,-2.913876,9.359904,0.0078037847,-0.0011424891,0.006383299
466,-0.26813498,-2.913876,9.359904,0.0078037847,-0.0011424891,0.006383299
467,-0.26813498,-2.913876,9.359904,0.0078037847,-0.0011424891,0.006383299
468,-0.26813498,-2.913876,9.359904,0.0078037847,-0.0011424891,0.006383299
469,-0.2675852,-2.9159343,9.35928,0.00590737,0.00060015375,0.001926597
470,-0.2675852,-2.9159343,9.35928,0.00590737,0.00060015375,0.001926597
471,-0.2675852,-2.9159343,9.35928,0.00590737,0.00060015375,0.001926597
472,-0.2675852,-2.9159343,9.35928,0.00590737,0.00060015375,0.001926597
473,-0.2675852,-2.9159343,9.35928,0.00590737,0.00060015375,0.001926597
474,-0.2675852,-2.9159343,9.35928,0.00590737,0.00060015375,0.001926597
475,-0.26720107,-2.9177532,9.358724,-0.0013751842,-0.007883197,0.003334263
476,-0.26720107,-2.9177532,9.358724,-0.0013751842,-0.007883197,0.003334263
477,-0.26720107,-2.9177532,9.358724,-0.0013751842,-0.007883197,0.003334263
478,-0.26720107,-2.9177532,9.358724,-0.0013751842,-0.007883197,0.003334263
479,-0.26720107,-2.9177532,9.358724,-0.0013751842,-0.007883197,0.003334263
480,-0.26720107,-2.9177532,9.358724,-0.0013751842,-0.007883197,0.003334263
481,-0.26677507,-2.9194596,9.358204,0.0050137225,0.0017051424,0.000840711
482,-0.26677507,-2.9194596,9.358204,0.0050137225,0.0017051424,0.000840711
483,-0.26677507,-2.9194596,9.358204,0.0050137225,0.0017051424,0.000840711
484,-0.26677507,-2.9194596,9.358204,0.0050137225,0.0017051424,0.000840711
485,-0.26677507,-2.9194596,9.358204,0.0050137225,0.0017051424,0.000840711
486,-0.26677507,-2.9194596,9.358204,0.0050137225,0.0017051424,0.000840711
487,-0.2661898,-2.920108,9.358019,0.0021446978,0.0021271505,0.0042386497
488,-0.2661898,-2.920108,9.358019,0.0021446978,0.0021271505,0.0042386497
489,-0.2661898,-2.920108,9.358019,0.0021446978,0.0021271505,0.0042386497
490,-0.2661898,-2.920108,9.358019,0.0021446978,0.0021271505,0.0042386497
491,-0.2661898,-2.920108,9.358019,0.0021446978,0.0021271505,0.0042386497
492,-0.2661898,-2.920108,9.358019,0.0021446978,0.0021271505,0.0042386497
493,-0.26629144,-2.921039,9.357724,-0.0017705753,-0.009194378,0.005672952
494,-0.26629144,-2.921039,9.357724,-0.0017705753,-0.009194378,0.005672952
495,-0.26629144,-2.921039,9.357724,-0.0017705753,-0.009194378,0.005672952
496,-0.26629144,-2.921039,9.357724,-0.0017705753,-0.009194378,0.005672952
497,-0.26629144,-2.921039,9.357724,-0.0017705753,-0.009194378,0.005672952
498,-0.26629144,-2.921039,9.357724,-0.0017705753,-0.009194378,0.005672952
499,-0.26501194,-2.9216204,9.357579,0.008610252,-0.0009556915,0.005658176
500,-0.26501194,-2.9216204,9.357579,0.008610252,-0.0009556915,0.005658176
501,-0.26501194,-2.9216204,9.357579,0.008610252,-0.0009556915,0.005658176
502,-0.26501194,-2.9216204,9.357579,0.008610252,-0.0009556915,0.005658176
503,-0.26501194,-2.9216204,9.357579,0.008610252,-0.0009556915,0.005658176
504,-0.26501194,-2.9216204,9.357579,0.008610252,-0.0009556915,0.005658176
505,-0.26414177,-2.9226935,9.357268,0.013580094,0.00039925997,0.0051383697
506,-0.26414177,-2.9226935,9.357268,0.013580094,0.00039925997,0.0051383697
507,-0.26414177,-2.9226935,9.357268,0.013580094,0.00039925997,0.0051383697
508,-0.26414177,-2.9226935,9.357268,0.013580094,0.00039925997,0.0051383697
509,-0.26414177,-2.9226935,9.357268,0.013580094,0.00039925997,0.0051383697
510,-0.26414177,-2.9226935,9.357268,0.013580094,0.00039925997,0.0051383697
511,-0.26372918,-2.9235587,9.35701,-0.020545838,-0.0099393325,0.0026714546
512,-0.26372918,-2.9235587,9.35701,-0.020545838,-0.0099393325,0.0026714546
513,-0.26372918,-2.9235587,9.35701,-0.020545838,-0.0099393325,0.0026714546
514,-0.26372918,-2.9235587,9.35701,-0.020545838,-0.0099393325,0.0026714546
515,-0.26372918,-2.9235587,9.35701,-0.020545838,-0.0099393325,0.0026714546
516,-0.26372918,-2.9235587,9.35701,-0.020545838,-0.0099393325,0.0026714546
517,-0.26341578,-2.9240973,9.356851,-0.0009893246,0.00025616022,0.007048246
518,-0.26341578,-2.9240973,9.356851,-0.0009893246,0.00025616022,0.007048246
519,-0.26341578,-2.9240973,9.356851,-0.0009893246,0.00025616022,0.007048246
520,-0.26341578,-2.9240973,9.356851,-0.0009893246,0.00025616022,0.007048246
521,-0.26341578,-2.9240973,9.356851,-0.0009893246,0.00025616022,0.007048246
522,-0.26341578,-2.9240973,9.356851,-0.0009893246,0.00025616022,0.007048246
523,-0.2633684,-2.925636,9.356371,0.02537367,-0.0018531515,0.008951803
524,-0.2633684,-2.925636,9.356371,0.02537367,-0.0018531515,0.008951803
525,-0.2633684,-2.925636,9.356371,0.02537367,-0.0018531515,0.008951803
526,-0.2633684,-2.925636,9.356371,0.02537367,-0.0018531515,0.008951803
527,-0.2633684,-2.925636,9.356371,0.02537367,-0.0018531515,0.008951803
528,-0.2633684,-2.925636,9.356371,0.02537367,-0.0018531515,0.008951803
529,-0.2633684,-2.925636,9.356371,0.02537367,-0.0018531515,0.008951803
530,-0.26255924,-2.9255342,9.356425,-0.0052950387,-0.005747686,0.00602866
531,-0.26255924,-2.9255342,9.356425,-0.0052950387,-0.005747686,0.00602866
532,-0.26255924,-2.9255342,9.356425,-0.0052950387,-0.005747686,0.00602866
533,-0.26255924,-2.9255342,9.356425,-0.0052950387,-0.005747686,0.00602866
534,-0.26255924,-2.9255342,9.356425,-0.0052950387,-0.005747686,0.00602866
535,-0.26255924,-2.9255342,9.356425,-0.0052950387,-0.005747686,0.00602866
536,-0.2635458,-2.9257143,9.356342,0.031212952,-0.001861123,0.013341913
537,-0.2635458,-2.9257143,9.356342,0.031212952,-0.001861123,0.013341913
538,-0.2635458,-2.9257143,9.356342,0.031212952,-0.001861123,0.013341913
539,-0.2635458,-2.9257143,9.356342,0.031212952,-0.001861123,0.013341913
540,-0.2635458,-2.9257143,9.356342,0.031212952,-0.001861123,0.013341913
541,-0.2635458,-2.9257143,9.356342,0.031212952,-0.001861123,0.013341913
542,-0.2639856,-2.9256554,9.356347,0.005786186,-0.000390778,0.0045563467
543,-0.2639856,-2.9256554,9.356347,0.005786186,-0.000390778,0.0045563467
544,-0.2639856,-2.9256554,9.356347,0.005786186,-0.000390778,0.0045563467
545,-0.2639856,-2.9256554,9.356347,0.005786186,-0.000390778,0.0045563467
546,-0.2639856,-2.9256554,9.356347,0.005786186,-0.000390778,0.0045563467
547,-0.2639856,-2.9256554,9.356347,0.005786186,-0.000390778,0.0045563467
548,-0.26455605,-2.9257517,9.356301,0.0076804925,-0.004305509,0.0045516803
549,-0.26455605,-2.9257517,9.356301,0.0076804925,-0.004305509,0.0045516803
550,-0.26455605,-2.9257517,9.356301,0.0076804925,-0.004305509,0.0045516803
551,-0.26455605,-2.9257517,9.356301,0.0076804925,-0.004305509,0.0045516803
552,-0.26455605,-2.9257517,9.356301,0.0076804925,-0.004305509,0.0045516803
553,-0.26455605,-2.9257517,9.356301,0.0076804925,-0.004305509,0.0045516803
554,-0.2650467,-2.9257996,9.356273,0.011535394,-0.0033341658,0.007477448
555,-0.2650467,-2.9257996,9.356273,0.011535394,-0.0033341658,0.007477448
556,-0.2650467,-2.9257996,9.356273,0.011535394,-0.0033341658,0.007477448
557,-0.2650467,-2.9257996,9.356273,0.011535394,-0.0033341658,0.007477448
558,-0.2650467,-2.9257996,9.356273,0.011535394,-0.0033341658,0.007477448
559,-0.2650467,-2.9257996,9.356273,0.011535394,-0.0033341658,0.007477448
560,-0.26536292,-2.926978,9.355895,0.00076464674,-0.0107760085,0.0093914075
561,-0.26536292,-2.926978,9.355895,0.00076464674,-0.0107760085,0.0093914075
562,-0.26536292,-2.926978,9.355895,0.00076464674,-0.0107760085,0.0093914075
563,-0.26536292,-2.926978,9.355895,0.00076464674,-0.0107760085,0.0093914075
564,-0.26536292,-2.926978,9.355895,0.00076464674,-0.0107760085,0.0093914075
565,-0.26536292,-2.926978,9.355895,0.00076464674,-0.0107760085,0.0093914075
566,-0.26544666,-2.9294777,9.35511,0.016375761,0.0006839283,0.0054064873
567,-0.26544666,-2.9294777,9.35511,0.016375761,0.0006839283,0.0054064873
568,-0.26544666,-2.9294777,9.35511,0.016375761,0.0006839283,0.0054064873
569,-0.26544666,-2.9294777,9.35511,0.016375761,0.0006839283,0.0054064873
570,-0.26544666,-2.9294777,9.35511,0.016375761,0.0006839283,0.0054064873
571,-0.26544666,-2.9294777,9.35511,0.016375761,0.0006839283,0.0054064873
572,-0.26557973,-2.9315028,9.354471,0.005135572,0.0038942916,0.0092462655
573,-0.26557973,-2.9315028,9.354471,0.005135572,0.0038942916,0.0092462655
574,-0.26557973,-2.9315028,9.354471,0.005135572,0.0038942916,0.0092462655
575,-0.26557973,-2.9315028,9.354471,0.005135572,0.0038942916,0.0092462655
576,-0.26557973,-2.9315028,9.354471,0.005135572,0.0038942916,0.0092462655
577,-0.26557973,-2.9315028,9.354471,0.005135572,0.0038942916,0.0092462655
578,-0.2664341,-2.9341354,9.353622,-0.012035514,0.0036259308,0.008671631
579,-0.2664341,-2.9341354,9.353622,-0.012035514,0.0036259308,0.008671631
580,-0.2664341,-2.9341354,9.353622,-0.012035514,0.0036259308,0.008671631
581,-0.2664341,-2.9341354,9.353622,-0.012035514,0.0036259308,0.008671631
582,-0.2664341,-2.9341354,9.353622,-0.012035514,0.0036259308,0.008671631
583,-0.2664341,-2.9341354,9.353622,-0.012035514,0.0036259308,0.008671631
584,-0.26738825,-2.937812,9.352441,-0.02189506,-0.007975478,0.004158156
585,-0.26738825,-2.937812,9.352441,-0.02189506,-0.007975478,0.004158156
586,-0.26738825,-2.937812,9.352441,-0.02189506,-0.007975478,0.004158156
587,-0.26738825,-2.937812,9.352441,-0.02189506,-0.007975478,0.004158156
588,-0.26738825,-2.937812,9.352441,-0.02189506,-0.007975478,0.004158156
589,-0.26738825,-2.937812,9.352441,-0.02189506,-0.007975478,0.004158156
590,-0.26916292,-2.9413166,9.351288,-0.005480083,-0.0073564886,0.0020881675
591,-0.26916292,-2.9413166,9.351288,-0.005480083,-0.0073564886,0.0020881675
592,-0.26916292,-2.9413166,9.351288,-0.005480083,-0.0073564886,0.0020881675
593,-0.26916292,-2.9413166,9.351288,-0.005480083,-0.0073564886,0.0020881675
594,-0.26916292,-2.9413166,9.351288,-0.005480083,-0.0073564886,0.0020881675
595,-0.26916292,-2.9413166,9.351288,-0.005480083,-0.0073564886,0.0020881675
596,-0.27103826,-2.9432578,9.350624,-0.0032306795,-0.0012088866,0.009342217
597,-0.27103826,-2.9432578,9.350624,-0.0032306795,-0.0012088866,0.009342217
598,-0.27103826,-2.9432578,9.350624,-0.0032306795,-0.0012088866,0.009342217
599,-0.27103826,-2.9432578,9.350624,-0.0032306795,-0.0012088866,0.009342217
600,-0.27103826,-2.9432578,9.350624,-0.0032306795,-0.0012088866,0.009342217
601,-0.27103826,-2.9432578,9.350624,-0.0032306795,-0.0012088866,0.009342217
602,-0.2736692,-2.9450908,9.34997,-0.0020345263,0.0054378635,0.0078111854
603,-0.2736692,-2.9450908,9.34997,-0.0020345263,0.0054378635,0.0078111854
604,-0.2736692,-2.9450908,9.34997,-0.0020345263,0.0054378635,0.0078111854
605,-0.2736692,-2.9450908,9.34997,-0.0020345263,0.0054378635,0.0078111854
606,-0.2736692,-2.9450908,9.34997,-0.0020345263,0.0054378635,0.0078111854
607,-0.2736692,-2.9450908,9.34997,-0.0020345263,0.0054378635,0.0078111854
608,-0.27660632,-2.9464946,9.349442,-0.0052626114,0.014080816,0.0067811003
609,-0.27660632,-2.9464946,9.349442,-0.0052626114,0.014080816,0.0067811003
610,-0.27660632,-2.9464946,9.349442,-0.0052626114,0.014080816,0.0067811003
611,-0.27660632,-2.9464946,9.349442,-0.0052626114,0.014080816,0.0067811003
612,-0.27660632,-2.9464946,9.349442,-0.0052626114,0.014080816,0.0067811003
613,-0.27660632,-2.9464946,9.349442,-0.0052626114,0.014080816,0.0067811003
614,-0.2805637,-2.947918,9.348874,-0.010547156,-0.0070531797,0.0018421176
615,-0.2805637,-2.947918,9.348874,-0.010547156,-0.0070531797,0.0018421176
616,-0.2805637,-2.947918,9.348874,-0.010547156,-0.0070531797,0.0018421176
617,-0.2805637,-2.947918,9.348874,-0.010547156,-0.0070531797,0.0018421176
618,-0.2805637,-2.947918,9.348874,-0.010547156,-0.0070531797,0.0018421176
619,-0.2805637,-2.947918,9.348874,-0.010547156,-0.0070531797,0.0018421176
620,-0.2837819,-2.9475925,9.34888,0.00035141828,-0.011901145,0.0013545869
621,-0.2837819,-2.9475925,9.34888,0.00035141828,-0.011901145,0.0013545869
622,-0.2837819,-2.9475925,9.34888,0.00035141828,-0.011901145,0.0013545869
623,-0.2837819,-2.9475925,9.34888,0.00035141828,-0.011901145,0.0013545869
624,-0.2837819,-2.9475925,9.34888,0.00035141828,-0.011901145,0.0013545869
625,-0.2837819,-2.9475925,9.34888,0.00035141828,-0.011901145,0.0013545869
626,-0.2851002,-2.9479005,9.3487425,0.00900309,0.001734647,0.0052455002
627,-0.2851002,-2.9479005,9.3487425,0.00900309,0.001734647,0.0052455002
628,-0.2851002,-2.9479005,9.3487425,0.00900309,0.001734647,0.0052455002
629,-0.2851002,-2.9479005,9.3487425,0.00900309,0.001734647,0.0052455002
630,-0.2851002,-2.9479005,9.3487425,0.00900309,0.001734647,0.0052455002
631,-0.2851002,-2.9479005,9.3487425,0.00900309,0.001734647,0.0052455002
632,-0.2851002,-2.9479005,9.3487425,0.00900309,0.001734647,0.0052455002
633,-0.2859924,-2.9490263,9.34836,-0.0057312855,0.0030842272,0.0042302893
634,-0.2859924,-2.9490263,9.34836,-0.0057312855,0.0030842272,0.0042302893
635,-0.2859924,-2.9490263,9.34836,-0.0057312855,0.0030842272,0.0042302893
636,-0.2859924,-2.9490263,9.34836,-0.0057312855,0.0030842272,0.0042302893
637,-0.2859924,-2.9490263,9.34836,-0.0057312855,0.0030842272,0.0042302893
638,-0.2859924,-2.9490263,9.34836,-0.0057312855,0.0030842272,0.0042302893
639,-0.28624886,-2.9504192,9.347914,0.006445428,-0.024880253,0.004672907
640,-0.28624886,-2.9504192,9.347914,0.006445428,-0.024880253,0.004672907
641,-0.28624886,-2.9504192,9.347914,0.006445428,-0.024880253,0.004672907
642,-0.28624886,-2.9504192,9.347914,0.006445428,-0.024880253,0.004672907
643,-0.28624886,-2.9504192,9.347914,0.006445428,-0.024880253,0.004672907
644,-0.28624886,-2.9504192,9.347914,0.006445428,-0.024880253,0.004672907
645,-0.2879798,-2.9520411,9.347347,-0.0010527328,-0.0064972583,0.011448758
646,-0.2879798,-2.9520411,9.347347,-0.0010527328,-0.0064972583,0.011448758
647,-0.2879798,-2.9520411,9.347347,-0.0010527328,-0.0064972583,0.011448758
648,-0.2879798,-2.9520411,9.347347,-0.0010527328,-0.0064972583,0.011448758
649,-0.2879798,-2.9520411,9.347347,-0.0010527328,-0.0064972583,0.011448758
650,-0.2879798,-2.9520411,9.347347,-0.0010527328,-0.0064972583,0.011448758
651,-0.28722587,-2.95262,9.347189,0.020989258,0.028099827,0.01631376
652,-0.28722587,-2.95262,9.347189,0.020989258,0.028099827,0.01631376
653,-0.28722587,-2.95262,9.347189,0.020989258,0.028099827,0.01631376
654,-0.28722587,-2.95262,9.347189,0.020989258,0.028099827,0.01631376
655,-0.28722587,-2.95262,9.347189,0.020989258,0.028099827,0.01631376
656,-0.28722587,-2.95262,9.347189,0.020989258,0.028099827,0.01631376
657,-0.2878634,-2.9537916,9.346798,-0.0073863505,-0.0017945555,0.005535394
658,-0.2878634,-2.9537916,9.346798,-0.0073863505,-0.0017945555,0.005535394
659,-0.2878634,-2.9537916,9.346798,-0.0073863505,-0.0017945555,0.005535394
660,-0.2878634,-2.9537916,9.346798,-0.0073863505,-0.0017945555,0.005535394
661,-0.2878634,-2.9537916,9.346798,-0.0073863505,-0.0017945555,0.005535394
662,-0.2878634,-2.9537916,9.346798,-0.0073863505,-0.0017945555,0.005535394
663,-0.28985286,-2.9554975,9.346197,0.00070879096,-0.01319507,0.0040098066
664,-0.28985286,-2.9554975,9.346197,0.00070879096,-0.01319507,0.0040098066
665,-0.28985286,-2.9554975,9.346197,0.00070879096,-0.01319507,0.0040098066
666,-0.28985286,-2.9554975,9.346197,0.00070879096,-0.01319507,0.0040098066
667,-0.28985286,-2.9554975,9.346197,0.00070879096,-0.01319507,0.0040098066
668,-0.28985286,-2.9554975,9.346197,0.00070879096,-0.01319507,0.0040098066
669,-0.29196915,-2.9576914,9.345438,0.0009811769,0.010986988,0.01076602
670,-0.29196915,-2.9576914,9.345438,0.0009811769,0.010986988,0.01076602
671,-0.29196915,-2.9576914,9.345438,0.0009811769,0.010986988,0.01076602
672,-0.29196915,-2.9576914,9.345438,0.0009811769,0.010986988,0.01076602
673,-0.29196915,-2.9576914,9.345438,0.0009811769,0.010986988,0.01076602
674,-0.29196915,-2.9576914,9.345438,0.0009811769,0.010986988,0.01076602
675,-0.293311,-2.9590716,9.344958,0.00084439304,0.024513487,0.0068122093
676,-0.293311,-2.9590716,9.344958,0.00084439304,0.024513487,0.0068122093
677,-0.293311,-2.9590716,9.344958,0.00084439304,0.024513487,0.0068122093
678,-0.293311,-2.9590716,9.344958,0.00084439304,0.024513487,0.0068122093
679,-0.293311,-2.9590716,9.344958,0.00084439304,0.024513487,0.0068122093
680,-0.293311,-2.9590716,9.344958,0.00084439304,0.024513487,0.0068122093
681,-0.2937519,-2.9613132,9.344234,-0.00749849,0.002319854,-0.001559515
682,-0.2937519,-2.9613132,9.344234,-0.00749849,0.002319854,-0.001559515
683,-0.2937519,-2.9613132,9.344234,-0.00749849,0.002319854,-0.001559515
684,-0.2937519,-2.9613132,9.344234,-0.00749849,0.002319854,-0.001559515
685,-0.2937519,-2.9613132,9.344234,-0.00749849,0.002319854,-0.001559515
686,-0.2937519,-2.9613132,9.344234,-0.00749849,0.002319854,-0.001559515
687,-0.2937519,-2.9613132,9.344234,-0.00749849,0.002319854,-0.001559515
688,-0.29377997,-2.963548,9.343525,-0.0031083245,0.0045326264,0.0047136396
689,-0.29377997,-2.963548,9.343525,-0.0031083245,0.0045326264,0.0047136396
690,-0.29377997,-2.963548,9.343525,-0.0031083245,0.0045326264,0.0047136396
691,-0.29377997,-2.963548,9.343525,-0.0031083245,0.0045326264,0.0047136396
692,-0.29377997,-2.963548,9.343525,-0.0031083245,0.0045326264,0.0047136396
693,-0.29377997,-2.963548,9.343525,-0.0031083245,0.0045326264,0.0047136396
694,-0.2928324,-2.9656358,9.342893,-0.01082156,-0.003490025,-0.0007200678
695,-0.2928324,-2.9656358,9.342893,-0.01082156,-0.003490025,-0.0007200678
696,-0.2928324,-2.9656358,9.342893,-0.01082156,-0.003490025,-0.0007200678
697,-0.2928324,-2.9656358,9.342893,-0.01082156,-0.003490025,-0.0007200678
698,-0.2928324,-2.9656358,9.342893,-0.01082156,-0.003490025,-0.0007200678
699,-0.2928324,-2.9656358,9.342893,-0.01082156,-0.003490025,-0.0007200678
700,-0.29189745,-2.9670477,9.342474,-0.005845112,0.0031996453,0.0075351936
701,-0.29189745,-2.9670477,9.342474,-0.005845112,0.0031996453,0.0075351936
702,-0.29189745,-2.9670477,9.342474,-0.005845112,0.0031996453,0.0075351936
703,-0.29189745,-2.9670477,9.342474,-0.005845112,0.0031996453,0.0075351936
704,-0.29189745,-2.9670477,9.342474,-0.005845112,0.0031996453,0.0075351936
705,-0.29189745,-2.9670477,9.342474,-0.005845112,0.0031996453,0.0075351936
706,-0.29139194,-2.9674542,9.3423605,-0.0023767822,-0.0017229327,0.0036187128
707,-0.29139194,-2.9674542,9.3423605,-0.0023767822,-0.0017229327,0.0036187128
708,-0.29139194,-2.9674542,9.3423605,-0.0023767822,-0.0017229327,0.0036187128
709,-0.29139194,-2.9674542,9.3423605,-0.0023767822,-0.0017229327,0.0036187128
710,-0.29139194,-2.9674542,9.3423605,-0.0023767822,-0.0017229327,0.0036187128
711,-0.29139194,-2.9674542,9.3423605,-0.0023767822,-0.0017229327,0.0036187128
712,-0.29208672,-2.968941,9.3418665,0.0068265633,-0.003826946,0.0030802416
713,-0.29208672,-2.968941,9.3418665,0.0068265633,-0.003826946,0.0030802416
714,-0.29208672,-2.968941,9.3418665,0.0068265633,-0.003826946,0.0030802416
715,-0.29208672,-2.968941,9.3418665,0.0068265633,-0.003826946,0.0030802416
716,-0.29208672,-2.968941,9.3418665,0.0068265633,-0.003826946,0.0030802416
717,-0.29208672,-2.968941,9.3418665,0.0068265633,-0.003826946,0.0030802416
718,-0.2922391,-2.9705167,9.34136,-2.2568955e-05,-0.0015469987,0.0025405067
719,-0.2922391,-2.9705167,9.34136,-2.2568955e-05,-0.0015469987,0.0025405067
720,-0.2922391,-2.9705167,9.34136,-2.2568955e-05,-0.0015469987,0.0025405067
721,-0.2922391,-2.9705167,9.34136,-2.2568955e-05,-0.0015469987,0.0025405067
722,-0.2922391,-2.9705167,9.34136,-2.2568955e-05,-0.0015469987,0.0025405067
723,-0.2922391,-2.9705167,9.34136,-2.2568955e-05,-0.0015469987,0.0025405067
724,-0.29353258,-2.9719691,9.340858,0.010584089,-0.010481109,0.0020012578
725,-0.29353258,-2.9719691,9.340858,0.010584089,-0.010481109,0.0020012578
726,-0.29353258,-2.9719691,9.340858,0.010584089,-0.010481109,0.0020012578
727,-0.29353258,-2.9719691,9.340858,0.010584089,-0.010481109,0.0020012578
728,-0.29353258,-2.9719691,9.340858,0.010584089,-0.010481109,0.0020012578
729,-0.29353258,-2.9719691,9.340858,0.010584089,-0.010481109,0.0020012578
730,-0.29475528,-2.9734094,9.340362,0.0016733957,-0.009651699,0.000974381
731,-0.29475528,-2.9734094,9.340362,0.0016733957,-0.009651699,0.000974381
732,-0.29475528,-2.9734094,9.340362,0.0016733957,-0.009651699,0.000974381
733,-0.29475528,-2.9734094,9.340362,0.0016733957,-0.009651699,0.000974381
734,-0.29475528,-2.9734094,9.340362,0.0016733957,-0.009651699,0.000974381
735,-0.29475528,-2.9734094,9.340362,0.0016733957,-0.009651699,0.000974381
736,-0.29659665,-2.9747705,9.3398695,0.0019738069,-0.007349878,0.0038529024
737,-0.29659665,-2.9747705,9.3398695,0.0019738069,-0.007349878,0.0038529024
738,-0.29659665,-2.9747705,9.3398695,0.0019738069,-0.007349878,0.0038529024
739,-0.29659665,-2.9747705,9.3398695,0.0019738069,-0.007349878,0.0038529024
740,-0.29659665,-2.9747705,9.3398695,0.0019738069,-0.007349878,0.0038529024
741,-0.29659665,-2.9747705,9.3398695,0.0019738069,-0.007349878,0.0038529024
742,-0.29659665,-2.9747705,9.3398695,0.0019738069,-0.007349878,0.0038529024
743,-0.29866412,-2.975071,9.339707,0.006644198,-0.008356729,0.00676506
744,-0.29866412,-2.975071,9.339707,0.006644198,-0.008356729,0.00676506
745,-0.29866412,-2.975071,9.339707,0.006644198,-0.008356729,0.00676506
746,-0.29866412,-2.975071,9.339707,0.006644198,-0.008356729,0.00676506
747,-0.29866412,-2.975071,9.339707,0.006644198,-0.008356729,0.00676506
748,-0.29866412,-2.975071,9.339707,0.006644198,-0.008356729,0.00676506
749,-0.3006501,-2.9739928,9.339987,-0.0018561864,-0.0072705997,0.008257886
750,-0.3006501,-2.9739928,9.339987,-0.0018561864,-0.0072705997,0.008257886
751,-0.3006501,-2.9739928,9.339987,-0.0018561864,-0.0072705997,0.008257886
752,-0.3006501,-2.9739928,9.339987,-0.0018561864,-0.0072705997,0.008257886
753,-0.3006501,-2.9739928,9.339987,-0.0018561864,-0.0072705997,0.008257886
754,-0.3006501,-2.9739928,9.339987,-0.0018561864,-0.0072705997,0.008257886
755,-0.30196223,-2.973165,9.340208,0.0009387427,-0.0071862177,0.0073042116
756,-0.30196223,-2.973165,9.340208,0.0009387427,-0.0071862177,0.0073042116
757,-0.30196223,-2.973165,9.340208,0.0009387427,-0.0071862177,0.0073042116
758,-0.30196223,-2.973165,9.340208,0.0009387427,-0.0071862177,0.0073042116
759,-0.30196223,-2.973165,9.340208,0.0009387427,-0.0071862177,0.0073042116
760,-0.30196223,-2.973165,9.340208,0.0009387427,-0.0071862177,0.0073042116
761,-0.30237368,-2.9723291,9.340461,0.003337371,-0.004172325,0.0024488333
762,-0.30237368,-2.9723291,9.340461,0.003337371,-0.004172325,0.0024488333
763,-0.30237368,-2.9723291,9.340461,0.003337371,-0.004172325,0.0024488333
764,-0.30237368,-2.9723291,9.340461,0.003337371,-0.004172325,0.0024488333
765,-0.30237368,-2.9723291,9.340461,0.003337371,-0.004172325,0.0024488333
766,-0.30237368,-2.9723291,9.340461,0.003337371,-0.004172325,0.0024488333
767,-0.30237368,-2.9723291,9.340461,0.003337371,-0.004172325,0.0024488333
768,-0.30214104,-2.9702735,9.341123,0.000432401,-0.003962779,0.0010519582
769,-0.30214104,-2.9702735,9.341123,0.000432401,-0.003962779,0.0010519582
770,-0.30214104,-2.9702735,9.341123,0.000432401,-0.003962779,0.0010519582
771,-0.30214104,-2.9702735,9.341123,0.000432401,-0.003962779,0.0010519582
772,-0.30214104,-2.9702735,9.341123,0.000432401,-0.003962779,0.0010519582
773,-0.30214104,-2.9702735,9.341123,0.000432401,-0.003962779,0.0010519582
774,-0.3012173,-2.96832,9.341773,-0.0014258907,-0.0042517493,0.0016063724
775,-0.3012173,-2.96832,9.341773,-0.0014258907,-0.0042517493,0.0016063724
776,-0.3012173,-2.96832,9.341773,-0.0014258907,-0.0042517493,0.0016063724
777,-0.3012173,-2.96832,9.341773,-0.0014258907,-0.0042517493,0.0016063724
778,-0.3012173,-2.96832,9.341773,-0.0014258907,-0.0042517493,0.0016063724
779,-0.3012173,-2.96832,9.341773,-0.0014258907,-0.0042517493,0.0016063724
780,-0.3012173,-2.96832,9.341773,-0.0014258907,-0.0042517493,0.0016063724
781,-0.29985273,-2.9676306,9.342036,0.0021300062,-0.0007646893,-0.0022717086
782,-0.29985273,-2.9676306,9.342036,0.0021300062,-0.0007646893,-0.0022717086
783,-0.29985273,-2.9676306,9.342036,0.0021300062,-0.0007646893,-0.0022717086
784,-0.29985273,-2.9676306,9.342036,0.0021300062,-0.0007646893,-0.0022717086
785,-0.29985273,-2.9676306,9.342036,0.0021300062,-0.0007646893,-0.0022717086
786,-0.29985273,-2.9676306,9.342036,0.0021300062,-0.0007646893,-0.0022717086
787,-0.29794347,-2.9674914,9.342142,0.0037889718,-0.0051435223,0.0035964504
788,-0.29794347,-2.9674914,9.342142,0.0037889718,-0.0051435223,0.0035964504
789,-0.29794347,-2.9674914,9.342142,0.0037889718,-0.0051435223,0.0035964504
790,-0.29794347,-2.9674914,9.342142,0.0037889718,-0.0051435223,0.0035964504
791,-0.29794347,-2.9674914,9.342142,0.0037889718,-0.0051435223,0.0035964504
792,-0.29794347,-2.9674914,9.342142,0.0037889718,-0.0051435223,0.0035964504
793,-0.29533845,-2.9677541,9.342141,0.00014960705,-0.0071227606,0.0075012655
794,-0.29533845,-2.9677541,9.342141,0.00014960705,-0.0071227606,0.0075012655
795,-0.29533845,-2.9677541,9.342141,0.00014960705,-0.0071227606,0.0075012655
796,-0.29533845,-2.9677541,9.342141,0.00014960705,-0.0071227606,0.0075012655
797,-0.29533845,-2.9677541,9.342141,0.00014960705,-0.0071227606,0.0075012655
798,-0.29533845,-2.9677541,9.342141,0.00014960705,-0.0071227606,0.0075012655
799,-0.29533845,-2.9677541,9.342141,0.00014960705,-0.0071227606,0.0075012655
800,-0.2922117,-2.9673784,9.342359,0.00046833695,-0.009525028,0.005570974
801,-0.2922117,-2.9673784,9.342359,0.00046833695,-0.009525028,0.005570974
802,-0.2922117,-2.9673784,9.342359,0.00046833695,-0.009525028,0.005570974
803,-0.2922117,-2.9673784,9.342359,0.00046833695,-0.009525028,0.005570974
804,-0.2922117,-2.9673784,9.342359,0.00046833695,-0.009525028,0.005570974
805,-0.2922117,-2.9673784,9.342359,0.00046833695,-0.009525028,0.005570974
806,-0.2907555,-2.9679976,9.342207,0.0050098035,-0.008123803,0.006043631
807,-0.2907555,-2.9679976,9.342207,0.0050098035,-0.008123803,0.006043631
808,-0.2907555,-2.9679976,9.342207,0.0050098035,-0.008123803,0.006043631
809,-0.2907555,-2.9679976,9.342207,0.0050098035,-0.008123803,0.006043631
810,-0.2907555,-2.9679976,9.342207,0.0050098035,-0.008123803,0.006043631
811,-0.2907555,-2.9679976,9.342207,0.0050098035,-0.008123803,0.006043631
812,-0.29101878,-2.968006,9.342196,0.0069354256,-0.0051959693,0.0040901056
813,-0.29101878,-2.968006,9.342196,0.0069354256,-0.0051959693,0.0040901056
814,-0.29101878,-2.968006,9.342196,0.0069354256,-0.0051959693,0.0040901056
815,-0.29101878,-2.968006,9.342196,0.0069354256,-0.0051959693,0.0040901056
816,-0.29101878,-2.968006,9.342196,0.0069354256,-0.0051959693,0.0040901056
817,-0.29101878,-2.968006,9.342196,0.0069354256,-0.0051959693,0.0040901056
818,-0.29101878,-2.968006,9.342196,0.0069354256,-0.0051959693,0.0040901056
819,-0.29122177,-2.9671693,9.342456,-0.009193033,-0.00071766175,0.00314032
820,-0.29122177,-2.9671693,9.342456,-0.009193033,-0.00071766175,0.00314032
821,-0.29122177,-2.9671693,9.342456,-0.009193033,-0.00071766175,0.00314032
822,-0.29122177,-2.9671693,9.342456,-0.009193033,-0.00071766175,0.00314032
823,-0.29122177,-2.9671693,9.342456,-0.009193033,-0.00071766175,0.00314032
824,-0.29122177,-2.9671693,9.342456,-0.009193033,-0.00071766175,0.00314032
825,-0.29122177,-2.9671693,9.342456,-0.009193033,-0.00071766175,0.00314032
826,-0.29152554,-2.9649353,9.343155,-0.009223999,-0.0004899368,0.0032115784
827,-0.29152554,-2.9649353,9.343155,-0.009223999,-0.0004899368,0.0032115784
828,-0.29152554,-2.9649353,9.343155,-0.009223999,-0.0004899368,0.0032115784
829,-0.29152554,-2.9649353,9.343155,-0.009223999,-0.0004899368,0.0032115784
830,-0.29152554,-2.9649353,9.343155,-0.009223999,-0.0004899368,0.0032115784
831,-0.29152554,-2.9649353,9.343155,-0.009223999,-0.0004899368,0.0032115784
832,-0.2908832,-2.9620407,9.344093,-0.006229838,-0.0031235507,0.0023310094
833,-0.2908832,-2.9620407,9.344093,-0.006229838,-0.0031235507,0.0023310094
834,-0.2908832,-2.9620407,9.344093,-0.006229838,-0.0031235507,0.0023310094
835,-0.2908832,-2.9620407,9.344093,-0.006229838,-0.0031235507,0.0023310094
836,-0.2908832,-2.9620407,9.344093,-0.006229838,-0.0031235507,0.0023310094
837,-0.2908832,-2.9620407,9.344093,-0.006229838,-0.0031235507,0.0023310094
838,-0.2908832,-2.9620407,9.344093,-0.006229838,-0.0031235507,0.0023310094
839,-0.2927549,-2.9586716,9.345103,0.009687137,-0.03255507,0.0029220735
840,-0.2927549,-2.9586716,9.345103,0.009687137,-0.03255507,0.0029220735
841,-0.2927549,-2.9586716,9.345103,0.009687137,-0.03255507,0.0029220735
842,-0.2927549,-2.9586716,9.345103,0.009687137,-0.03255507,0.0029220735
843,-0.2927549,-2.9586716,9.345103,0.009687137,-0.03255507,0.0029220735
844,-0.2927549,-2.9586716,9.345103,0.009687137,-0.03255507,0.0029220735
845,-0.2934174,-2.9542677,9.346476,0.007179033,-0.014534054,0.0020857372
846,-0.2934174,-2.9542677,9.346476,0.007179033,-0.014534054,0.0020857372
847,-0.2934174,-2.9542677,9.346476,0.007179033,-0.014534054,0.0020857372
848,-0.2934174,-2.9542677,9.346476,0.007179033,-0.014534054,0.0020857372
849,-0.2934174,-2.9542677,9.346476,0.007179033,-0.014534054,0.0020857372
850,-0.2934174,-2.9542677,9.346476,0.007179033,-0.014534054,0.0020857372
851,-0.2917887,-2.949218,9.348121,-0.005345912,-0.002792681,0.0027415461
852,-0.2917887,-2.949218,9.348121,-0.005345912,-0.002792681,0.0027415461
853,-0.2917887,-2.949218,9.348121,-0.005345912,-0.002792681,0.0027415461
854,-0.2917887,-2.949218,9.348121,-0.005345912,-0.002792681,0.0027415461
855,-0.2917887,-2.949218,9.348121,-0.005345912,-0.002792681,0.0027415461
856,-0.2917887,-2.949218,9.348121,-0.005345912,-0.002792681,0.0027415461
857,-0.2907839,-2.943771,9.349869,0.0030544524,-0.010535355,0.0048721964
858,-0.2907839,-2.943771,9.349869,0.0030544524,-0.010535355,0.0048721964
859,-0.2907839,-2.943771,9.349869,0.0030544524,-0.010535355,0.0048721964
860,-0.2907839,-2.943771,9.349869,0.0030544524,-0.010535355,0.0048721964
861,-0.2907839,-2.943771,9.349869,0.0030544524,-0.010535355,0.0048721964
862,-0.2907839,-2.943771,9.349869,0.0030544524,-0.010535355,0.0048721964
863,-0.2907839,-2.943771,9.349869,0.0030544524,-0.010535355,0.0048721964
864,-0.2904776,-2.9392583,9.351298,-0.002771692,-0.0042179916,0.005506035
865,-0.2904776,-2.9392583,9.351298,-0.002771692,-0.0042179916,0.005506035
866,-0.2904776,-2.9392583,9.351298,-0.002771692,-0.0042179916,0.005506035
867,-0.2904776,-2.9392583,9.351298,-0.002771692,-0.0042179916,0.005506035
868,-0.2904776,-2.9392583,9.351298,-0.002771692,-0.0042179916,0.005506035
869,-0.2904776,-2.9392583,9.351298,-0.002771692,-0.0042179916,0.005506035
870,-0.29268116,-2.9342182,9.352812,0.0033491673,-0.00028741467,0.009565227
871,-0.29268116,-2.9342182,9.352812,0.0033491673,-0.00028741467,0.009565227
872,-0.29268116,-2.9342182,9.352812,0.0033491673,-0.00028741467,0.009565227
873,-0.29268116,-2.9342182,9.352812,0.0033491673,-0.00028741467,0.009565227
874,-0.29268116,-2.9342182,9.352812,0.0033491673,-0.00028741467,0.009565227
875,-0.29268116,-2.9342182,9.352812,0.0033491673,-0.00028741467,0.009565227
876,-0.29268116,-2.9342182,9.352812,0.0033491673,-0.00028741467,0.009565227
877,-0.29405403,-2.9300745,9.354068,-0.0011838053,0.0011112103,0.0028596618
878,-0.29405403,-2.9300745,9.354068,-0.0011838053,0.0011112103,0.0028596618
879,-0.29405403,-2.9300745,9.354068,-0.0011838053,0.0011112103,0.0028596618
880,-0.29405403,-2.9300745,9.354068,-0.0011838053,0.0011112103,0.0028596618
881,-0.29405403,-2.9300745,9.354068,-0.0011838053,0.0011112103,0.0028596618
882,-0.29405403,-2.9300745,9.354068,-0.0011838053,0.0011112103,0.0028596618
883,-0.29484886,-2.9273746,9.354888,-0.010050883,0.011148705,0.0009908102
884,-0.29484886,-2.9273746,9.354888,-0.010050883,0.011148705,0.0009908102
885,-0.29484886,-2.9273746,9.354888,-0.010050883,0.011148705,0.0009908102
886,-0.29484886,-2.9273746,9.354888,-0.010050883,0.011148705,0.0009908102
887,-0.29484886,-2.9273746,9.354888,-0.010050883,0.011148705,0.0009908102
888,-0.29484886,-2.9273746,9.354888,-0.010050883,0.011148705,0.0009908102
889,-0.29484886,-2.9273746,9.354888,-0.010050883,0.011148705,0.0009908102
890,-0.29623637,-2.9255216,9.355424,0.0024986467,0.0069445665,-0.0023713533
891,-0.29623637,-2.9255216,9.355424,0.0024986467,0.0069445665,-0.0023713533
892,-0.29623637,-2.9255216,9.355424,0.0024986467,0.0069445665,-0.0023713533
893,-0.29623637,-2.9255216,9.355424,0.0024986467,0.0069445665,-0.0023713533
894,-0.29623637,-2.9255216,9.355424,0.0024986467,0.0069445665,-0.0023713533
895,-0.29623637,-2.9255216,9.355424,0.0024986467,0.0069445665,-0.0023713533
896,-0.29745215,-2.9243634,9.355747,0.0048152865,-0.007580787,0.0054714265
897,-0.29745215,-2.9243634,9.355747,0.0048152865,-0.007580787,0.0054714265
898,-0.29745215,-2.9243634,9.355747,0.0048152865,-0.007580787,0.0054714265
899,-0.29745215,-2.9243634,9.355747,0.0048152865,-0.007580787,0.0054714265
900,-0.29745215,-2.9243634,9.355747,0.0048152865,-0.007580787,0.0054714265
901,-0.29745215,-2.9243634,9.355747,0.0048152865,-0.007580787,0.0054714265
902,-0.29830045,-2.923625,9.355951,0.001800127,-0.0045768344,0.0015873184
903,-0.29830045,-2.923625,9.355951,0.001800127,-0.0045768344,0.0015873184
904,-0.29830045,-2.923625,9.355951,0.001800127,-0.0045768344,0.0015873184
905,-0.29830045,-2.923625,9.355951,0.001800127,-0.0045768344,0.0015873184
906,-0.29830045,-2.923625,9.355951,0.001800127,-0.0045768344,0.0015873184
907,-0.29830045,-2.923625,9.355951,0.001800127,-0.0045768344,0.0015873184
908,-0.29830045,-2.923625,9.355951,0.001800127,-0.0045768344,0.0015873184
909,-0.29844517,-2.922139,9.356411,0.005202176,-0.00686592,0.010420228
910,-0.29844517,-2.922139,9.356411,0.005202176,-0.00686592,0.010420228
911,-0.29844517,-2.922139,9.356411,0.005202176,-0.00686592,0.010420228
912,-0.29844517,-2.922139,9.356411,0.005202176,-0.00686592,0.010420228
913,-0.29844517,-2.922139,9.356411,0.005202176,-0.00686592,0.010420228
914,-0.29844517,-2.922139,9.356411,0.005202176,-0.00686592,0.010420228
915,-0.29867852,-2.9208496,9.356806,-0.0055601243,-0.00478203,0.0036268786
916,-0.29867852,-2.9208496,9.356806,-0.0055601243,-0.00478203,0.0036268786
917,-0.29867852,-2.9208496,9.356806,-0.0055601243,-0.00478203,0.0036268786
918,-0.29867852,-2.9208496,9.356806,-0.0055601243,-0.00478203,0.0036268786
919,-0.29867852,-2.9208496,9.356806,-0.0055601243,-0.00478203,0.0036268786
920,-0.29867852,-2.9208496,9.356806,-0.0055601243,-0.00478203,0.0036268786
921,-0.29908702,-2.9191701,9.357317,0.0026961744,-0.005098949,0.0051433276
922,-0.29908702,-2.9191701,9.357317,0.0026961744,-0.005098949,0.0051433276
923,-0.29908702,-2.9191701,9.357317,0.0026961744,-0.005098949,0.0051433276
924,-0.29908702,-2.9191701,9.357317,0.0026961744,-0.005098949,0.0051433276
925,-0.29908702,-2.9191701,9.357317,0.0026961744,-0.005098949,0.0051433276
926,-0.29908702,-2.9191701,9.357317,0.0026961744,-0.005098949,0.0051433276
927,-0.29945615,-2.9179509,9.357685,0.0046110055,-0.0025340905,0.0027402823
928,-0.29945615,-2.9179509,9.357685,0.0046110055,-0.0025340905,0.0027402823
929,-0.29945615,-2.9179509,9.357685,0.0046110055,-0.0025340905,0.0027402823
930,-0.29945615,-2.9179509,9.357685,0.0046110055,-0.0025340905,0.0027402823
931,-0.29945615,-2.9179509,9.357685,0.0046110055,-0.0025340905,0.0027402823
932,-0.29945615,-2.9179509,9.357685,0.0046110055,-0.0025340905,0.0027402823
933,-0.29945615,-2.9179509,9.357685,0.0046110055,-0.0025340905,0.0027402823
934,-0.29920828,-2.9171915,9.35793,-0.005126013,-0.0005042273,-0.0045564435
935,-0.29920828,-2.9171915,9.35793,-0.005126013,-0.0005042273,-0.0045564435
936,-0.29920828,-2.9171915,9.35793,-0.005126013,-0.0005042273,-0.0045564435
937,-0.29920828,-2.9171915,9.35793,-0.005126013,-0.0005042273,-0.0045564435
938,-0.29920828,-2.9171915,9.35793,-0.005126013,-0.0005042273,-0.0045564435
939,-0.29920828,-2.9171915,9.35793,-0.005126013,-0.0005042273,-0.0045564435
940,-0.299052,-2.9176183,9.357801,-0.006574424,0.010678892,0.009097625
941,-0.299052,-2.9176183,9.357801,-0.006574424,0.010678892,0.009097625
942,-0.299052,-2.9176183,9.357801,-0.006574424,0.010678892,0.009097625
943,-0.299052,-2.9176183,9.357801,-0.006574424,0.010678892,0.009097625
944,-0.299052,-2.9176183,9.357801,-0.006574424,0.010678892,0.009097625
945,-0.299052,-2.9176183,9.357801,-0.006574424,0.010678892,0.009097625
946,-0.29774168,-2.9186563,9.35752,-0.016203137,0.0012989073,0.0071164905
947,-0.29774168,-2.9186563,9.35752,-0.016203137,0.0012989073,0.0071164905
948,-0.29774168,-2.9186563,9.35752,-0.016203137,0.0012989073,0.0071164905
949,-0.29774168,-2.9186563,9.35752,-0.016203137,0.0012989073,0.0071164905
950,-0.29774168,-2.9186563,9.35752,-0.016203137,0.0012989073,0.0071164905
951,-0.29774168,-2.9186563,9.35752,-0.016203137,0.0012989073,0.0071164905
952,-0.29630026,-2.9196856,9.3572445,0.0024921333,-0.0012465816,0.0066002817
953,-0.29630026,-2.9196856,9.3572445,0.0024921333,-0.0012465816,0.0066002817
954,-0.29630026,-2.9196856,9.3572445,0.0024921333,-0.0012465816,0.0066002817
955,-0.29630026,-2.9196856,9.3572445,0.0024921333,-0.0012465816,0.0066002817
956,-0.29630026,-2.9196856,9.3572445,0.0024921333,-0.0012465816,0.0066002817
957,-0.29630026,-2.9196856,9.3572445,0.0024921333,-0.0012465816,0.0066002817
958,-0.29630026,-2.9196856,9.3572445,0.0024921333,-0.0012465816,0.0066002817
959,-0.2956394,-2.9207447,9.3569355,-0.00573844,-0.0037951083,0.0055925557
960,-0.2956394,-2.9207447,9.3569355,-0.00573844,-0.0037951083,0.0055925557
961,-0.2956394,-2.9207447,9.3569355,-0.00573844,-0.0037951083,0.0055925557
962,-0.2956394,-2.9207447,9.3569355,-0.00573844,-0.0037951083,0.0055925557
963,-0.2956394,-2.9207447,9.3569355,-0.00573844,-0.0037951083,0.0055925557
964,-0.2956394,-2.9207447,9.3569355,-0.00573844,-0.0037951083,0.0055925557
965,-0.2953295,-2.9213057,9.35677,0.006984118,0.0034694155,0.0041112984
966,-0.2953295,-2.9213057,9.35677,0.006984118,0.0034694155,0.0041112984
967,-0.2953295,-2.9213057,9.35677,0.006984118,0.0034694155,0.0041112984
968,-0.2953295,-2.9213057,9.35677,0.006984118,0.0034694155,0.0041112984
969,-0.2953295,-2.9213057,9.35677,0.006984118,0.0034694155,0.0041112984
970,-0.2953295,-2.9213057,9.35677,0.006984118,0.0034694155,0.0041112984
971,-0.29558292,-2.9218602,9.356588,-0.0013396554,-0.0024444829,0.004580942
972,-0.29558292,-2.9218602,9.356588,-0.0013396554,-0.0024444829,0.004580942
973,-0.29558292,-2.9218602,9.356588,-0.0013396554,-0.0024444829,0.004580942
974,-0.29558292,-2.9218602,9.356588,-0.0013396554,-0.0024444829,0.004580942
975,-0.29558292,-2.9218602,9.356588,-0.0013396554,-0.0024444829,0.004580942
976,-0.29558292,-2.9218602,9.356588,-0.0013396554,-0.0024444829,0.004580942
977,-0.29558292,-2.9218602,9.356588,-0.0013396554,-0.0024444829,0.004580942
978,-0.29555497,-2.9209898,9.356862,-0.008170404,0.0025253897,0.0065612984
979,-0.29555497,-2.9209898,9.356862,-0.008170404,0.0025253897,0.0065612984
980,-0.29555497,-2.9209898,9.356862,-0.008170404,0.0025253897,0.0065612984
981,-0.29555497,-2.9209898,9.356862,-0.008170404,0.0025253897,0.0065612984
982,-0.29555497,-2.9209898,9.356862,-0.008170404,0.0025253897,0.0065612984
983,-0.29555497,-2.9209898,9.356862,-0.008170404,0.0025253897,0.0065612984
984,-0.29555497,-2.9209898,9.356862,-0.008170404,0.0025253897,0.0065612984
985,-0.29684302,-2.9201596,9.35708,0.001948692,-0.00080678315,0.0056073326
986,-0.29684302,-2.9201596,9.35708,0.001948692,-0.00080678315,0.0056073326
987,-0.29684302,-2.9201596,9.35708,0.001948692,-0.00080678315,0.0056073326
988,-0.29684302,-2.9201596,9.35708,0.001948692,-0.00080678315,0.0056073326
989,-0.29684302,-2.9201596,9.35708,0.001948692,-0.00080678315,0.0056073326
990,-0.29684302,-2.9201596,9.35708,0.001948692,-0.00080678315,0.0056073326
991,-0.29684302,-2.9201596,9.35708,0.001948692,-0.00080678315,0.0056073326
992,-0.2980074,-2.9199128,9.35712,-0.0010986849,-0.002245971,0.0012182922
993,-0.2980074,-2.9199128,9.35712,-0.0010986849,-0.002245971,0.0012182922
994,-0.2980074,-2.9199128,9.35712,-0.0010986849,-0.002245971,0.0012182922
995,-0.2980074,-2.9199128,9.35712,-0.0010986849,-0.002245971,0.0012182922
996,-0.2980074,-2.9199128,9.35712,-0.0010986849,-0.002245971,0.0012182922
997,-0.2980074,-2.9199128,9.35712,-0.0010986849,-0.002245971,0.0012182922
998,-0.29858932,-2.9198866,9.357109,0.0007944521,-0.0007789555,0.005122135
999,-0.29858932,-2.9198866,9.357109,0.0007944521,-0.0007789555,0.005122135
1000,-0.29858932,-2.9198866,9.357109,0.0007944521,-0.0007789555,0.005122135
1001,-0.29858932,-2.9198866,9.357109,0.0007944521,-0.0007789555,0.005122135
1002,-0.29858932,-2.9198866,9.357109,0.0007944521,-0.0007789555,0.005122135
1003,-0.29858932,-2.9198866,9.357109,0.0007944521,-0.0007789555,0.005122135
1004,-0.29829285,-2.9199474,9.3571005,0.005217703,-0.002249495,0.00268069
1005,-0.29829285,-2.9199474,9.3571005,0.005217703,-0.002249495,0.00268069
1006,-0.29829285,-2.9199474,9.3571005,0.005217703,-0.002249495,0.00268069
1007,-0.29829285,-2.9199474,9.3571005,0.005217703,-0.002249495,0.00268069
1008,-0.29829285,-2.9199474,9.3571005,0.005217703,-0.002249495,0.00268069
1009,-0.29829285,-2.9199474,9.3571005,0.005217703,-0.002249495,0.00268069
1010,-0.29829285,-2.9199474,9.3571005,0.005217703,-0.002249495,0.00268069
1011,-0.29748523,-2.9197326,9.357193,-0.0049503706,-0.0051562814,0.00513069
1012,-0.29748523,-2.9197326,9.357193,-0.0049503706,-0.0051562814,0.00513069
1013,-0.29748523,-2.9197326,9.357193,-0.0049503706,-0.0051562814,0.00513069
1014,-0.29748523,-2.9197326,9.357193,-0.0049503706,-0.0051562814,0.00513069
1015,-0.29748523,-2.9197326,9.357193,-0.0049503706,-0.0051562814,0.00513069
1016,-0.29748523,-2.9197326,9.357193,-0.0049503706,-0.0051562814,0.00513069
1017,-0.29748523,-2.9197326,9.357193,-0.0049503706,-0.0051562814,0.00513069
1018,-0.2979346,-2.9201186,9.357058,0.002813649,-0.0008026029,0.01048614
1019,-0.2979346,-2.9201186,9.357058,0.002813649,-0.0008026029,0.01048614
1020,-0.2979346,-2.9201186,9.357058,0.002813649,-0.0008026029,0.01048614
1021,-0.2979346,-2.9201186,9.357058,0.002813649,-0.0008026029,0.01048614
1022,-0.2979346,-2.9201186,9.357058,0.002813649,-0.0008026029,0.01048614
1023,-0.2979346,-2.9201186,9.357058,0.002813649,-0.0008026029,0.01048614
1024,-0.29827872,-2.9197462,9.357162,-0.0006382284,-0.019801088,0.0026870088
1025,-0.29827872,-2.9197462,9.357162,-0.0006382284,-0.019801088,0.0026870088
1026,-0.29827872,-2.9197462,9.357162,-0.0006382284,-0.019801088,0.0026870088
1027,-0.29827872,-2.9197462,9.357162,-0.0006382284,-0.019801088,0.0026870088
1028,-0.29827872,-2.9197462,9.357162,-0.0006382284,-0.019801088,0.0026870088
1029,-0.29827872,-2.9197462,9.357162,-0.0006382284,-0.019801088,0.0026870088
1030,-0.29800802,-2.9201703,9.357039,-0.0040274328,-0.009593929,-0.001230444
1031,-0.29800802,-2.9201703,9.357039,-0.0040274328,-0.009593929,-0.001230444
1032,-0.29800802,-2.9201703,9.357039,-0.0040274328,-0.009593929,-0.001230444
1033,-0.29800802,-2.9201703,9.357039,-0.0040274328,-0.009593929,-0.001230444
1034,-0.29800802,-2.9201703,9.357039,-0.0040274328,-0.009593929,-0.001230444
1035,-0.29800802,-2.9201703,9.357039,-0.0040274328,-0.009593929,-0.001230444
1036,-0.29701194,-2.920983,9.356817,-0.014176292,-0.0077243242,0.0011874752
1037,-0.29701194,-2.920983,9.356817,-0.014176292,-0.0077243242,0.0011874752
1038,-0.29701194,-2.920983,9.356817,-0.014176292,-0.0077243242,0.0011874752
1039,-0.29701194,-2.920983,9.356817,-0.014176292,-0.0077243242,0.0011874752
1040,-0.29701194,-2.920983,9.356817,-0.014176292,-0.0077243242,0.0011874752
1041,-0.29701194,-2.920983,9.356817,-0.014176292,-0.0077243242,0.0011874752
1042,-0.29701194,-2.920983,9.356817,-0.014176292,-0.0077243242,0.0011874752
1043,-0.2972103,-2.9214334,9.35667,-0.014684628,-0.013627602,0.006053644
1044,-0.2972103,-2.9214334,9.35667,-0.014684628,-0.013627602,0.006053644
1045,-0.2972103,-2.9214334,9.35667,-0.014684628,-0.013627602,0.006053644
1046,-0.2972103,-2.9214334,9.35667,-0.014684628,-0.013627602,0.006053644
1047,-0.2972103,-2.9214334,9.35667,-0.014684628,-0.013627602,0.006053644
1048,-0.2972103,-2.9214334,9.35667,-0.014684628,-0.013627602,0.006053644
1049,-0.2972103,-2.9214334,9.35667,-0.014684628,-0.013627602,0.006053644
1050,-0.29712078,-2.9218347,9.356548,-0.008330017,-0.006346795,0.007993657
1051,-0.29712078,-2.9218347,9.356548,-0.008330017,-0.006346795,0.007993657
1052,-0.29712078,-2.9218347,9.356548,-0.008330017,-0.006346795,0.007993657
1053,-0.29712078,-2.9218347,9.356548,-0.008330017,-0.006346795,0.007993657
1054,-0.29712078,-2.9218347,9.356548,-0.008330017,-0.006346795,0.007993657
1055,-0.29712078,-2.9218347,9.356548,-0.008330017,-0.006346795,0.007993657
1056,-0.29712078,-2.9218347,9.356548,-0.008330017,-0.006346795,0.007993657
1057,-0.29538202,-2.9216688,9.356655,-0.0018072905,-0.0014487391,0.0016590627
1058,-0.29538202,-2.9216688,9.356655,-0.0018072905,-0.0014487391,0.0016590627
1059,-0.29538202,-2.9216688,9.356655,-0.0018072905,-0.0014487391,0.0016590627
1060,-0.29538202,-2.9216688,9.356655,-0.0018072905,-0.0014487391,0.0016590627
1061,-0.29538202,-2.9216688,9.356655,-0.0018072905,-0.0014487391,0.0016590627
1062,-0.29538202,-2.9216688,9.356655,-0.0018072905,-0.0014487391,0.0016590627
1063,-0.29538202,-2.9216688,9.356655,-0.0018072905,-0.0014487391,0.0016590627
1064,-0.29308492,-2.9219098,9.356651,-0.004989931,-0.0029376522,0.004587358
1065,-0.29308492,-2.9219098,9.356651,-0.004989931,-0.0029376522,0.004587358
1066,-0.29308492,-2.9219098,9.356651,-0.004989931,-0.0029376522,0.004587358
1067,-0.29308492,-2.9219098,9.356651,-0.004989931,-0.0029376522,0.004587358
1068,-0.29308492,-2.9219098,9.356651,-0.004989931,-0.0029376522,0.004587358
1069,-0.29308492,-2.9219098,9.356651,-0.004989931,-0.0029376522,0.004587358
1070,-0.2907564,-2.9215837,9.356826,-0.0076812534,-0.0038806328,0.00606949
1071,-0.2907564,-2.9215837,9.356826,-0.0076812534,-0.0038806328,0.00606949
1072,-0.2907564,-2.9215837,9.356826,-0.0076812534,-0.0038806328,0.00606949
1073,-0.2907564,-2.9215837,9.356826,-0.0076812534,-0.0038806328,0.00606949
1074,-0.2907564,-2.9215837,9.356826,-0.0076812534,-0.0038806328,0.00606949
1075,-0.2907564,-2.9215837,9.356826,-0.0076812534,-0.0038806328,0.00606949
1076,-0.2907564,-2.9215837,9.356826,-0.0076812534,-0.0038806328,0.00606949
1077,-0.28987375,-2.9207006,9.357129,-0.0056388224,-0.00232627,0.0026836065
1078,-0.28987375,-2.9207006,9.357129,-0.0056388224,-0.00232627,0.0026836065
1079,-0.28987375,-2.9207006,9.357129,-0.0056388224,-0.00232627,0.0026836065
1080,-0.28987375,-2.9207006,9.357129,-0.0056388224,-0.00232627,0.0026836065
1081,-0.28987375,-2.9207006,9.357129,-0.0056388224,-0.00232627,0.0026836065
1082,-0.28987375,-2.9207006,9.357129,-0.0056388224,-0.00232627,0.0026836065
1083,-0.28759536,-2.9198594,9.357462,-0.0029659993,-0.006145439,0.0056462185
1084,-0.28759536,-2.9198594,9.357462,-0.0029659993,-0.006145439,0.0056462185
1085,-0.28759536,-2.9198594,9.357462,-0.0029659993,-0.006145439,0.0056462185
1086,-0.28759536,-2.9198594,9.357462,-0.0029659993,-0.006145439,0.0056462185
1087,-0.28759536,-2.9198594,9.357462,-0.0029659993,-0.006145439,0.0056462185
1088,-0.28759536,-2.9198594,9.357462,-0.0029659993,-0.006145439,0.0056462185
1089,-0.28539598,-2.919517,9.357636,0.0016512248,-0.003181855,0.0051758946
1090,-0.28539598,-2.919517,9.357636,0.0016512248,-0.003181855,0.0051758946
1091,-0.28539598,-2.919517,9.357636,0.0016512248,-0.003181855,0.0051758946
1092,-0.28539598,-2.919517,9.357636,0.0016512248,-0.003181855,0.0051758946
1093,-0.28539598,-2.919517,9.357636,0.0016512248,-0.003181855,0.0051758946
1094,-0.28539598,-2.919517,9.357636,0.0016512248,-0.003181855,0.0051758946
1095,-0.28539598,-2.919517,9.357636,0.0016512248,-0.003181855,0.0051758946
1096,-0.28434896,-2.9186838,9.357928,-0.00019450192,-0.0001682297,-0.009925893
1097,-0.28434896,-2.9186838,9.357928,-0.00019450192,-0.0001682297,-0.009925893
1098,-0.28434896,-2.9186838,9.357928,-0.00019450192,-0.0001682297,-0.009925893
1099,-0.28434896,-2.9186838,9.357928,-0.00019450192,-0.0001682297,-0.009925893
1100,-0.28434896,-2.9186838,9.357928,-0.00019450192,-0.0001682297,-0.009925893
1101,-0.28434896,-2.9186838,9.357928,-0.00019450192,-0.0001682297,-0.009925893
1102,-0.28371087,-2.9174385,9.3583355,0.009144713,-0.0088273445,-0.01574175
1103,-0.28371087,-2.9174385,9.3583355,0.009144713,-0.0088273445,-0.01574175
1104,-0.28371087,-2.9174385,9.3583355,0.009144713,-0.0088273445,-0.01574175
1105,-0.28371087,-2.9174385,9.3583355,0.009144713,-0.0088273445,-0.01574175
1106,-0.28371087,-2.9174385,9.3583355,0.009144713,-0.0088273445,-0.01574175
1107,-0.28371087,-2.9174385,9.3583355,0.009144713,-0.0088273445,-0.01574175
1108,-0.28371087,-2.9174385,9.3583355,0.009144713,-0.0088273445,-0.01574175
1109,-0.28468168,-2.914286,9.359288,0.02905843,-0.021685056,-0.0044180104
1110,-0.28468168,-2.914286,9.359288,0.02905843,-0.021685056,-0.0044180104
1111,-0.28468168,-2.914286,9.359288,0.02905843,-0.021685056,-0.0044180104
1112,-0.28468168,-2.914286,9.359288,0.02905843,-0.021685056,-0.0044180104
1113,-0.28468168,-2.914286,9.359288,0.02905843,-0.021685056,-0.0044180104
1114,-0.28468168,-2.914286,9.359288,0.02905843,-0.021685056,-0.0044180104
1115,-0.28711128,-2.9087677,9.36093,0.023441508,-0.033813536,0.00014241925
1116,-0.28711128,-2.9087677,9.36093,0.023441508,-0.033813536,0.00014241925
1117,-0.28711128,-2.9087677,9.36093,0.023441508,-0.033813536,0.00014241925
1118,-0.28711128,-2.9087677,9.36093,0.023441508,-0.033813536,0.00014241925
1119,-0.28711128,-2.9087677,9.36093,0.023441508,-0.033813536,0.00014241925
1120,-0.28711128,-2.9087677,9.36093,0.023441508,-0.033813536,0.00014241925
1121,-0.28711128,-2.9087677,9.36093,0.023441508,-0.033813536,0.00014241925
1122,-0.29045728,-2.9023788,9.36281,0.040184427,-0.05610363,0.026692186
1123,-0.29045728,-2.9023788,9.36281,0.040184427,-0.05610363,0.026692186
1124,-0.29045728,-2.9023788,9.36281,0.040184427,-0.05610363,0.026692186
1125,-0.29045728,-2.9023788,9.36281,0.040184427,-0.05610363,0.026692186
1126,-0.29045728,-2.9023788,9.36281,0.040184427,-0.05610363,0.026692186
1127,-0.29045728,-2.9023788,9.36281,0.040184427,-0.05610363,0.026692186
1128,-0.29045728,-2.9023788,9.36281,0.040184427,-0.05610363,0.026692186
1129,-0.29433188,-2.8967252,9.36444,0.003180898,-0.022335542,0.015143589
1130,-0.29433188,-2.8967252,9.36444,0.003180898,-0.022335542,0.015143589
1131,-0.29433188,-2.8967252,9.36444,0.003180898,-0.022335542,0.015143589
1132,-0.29433188,-2.8967252,9.36444,0.003180898,-0.022335542,0.015143589
1133,-0.29433188,-2.8967252,9.36444,0.003180898,-0.022335542,0.015143589
1134,-0.29433188,-2.8967252,9.36444,0.003180898,-0.022335542,0.015143589
1135,-0.2971264,-2.8902583,9.366349,-0.008330592,-0.0080091385,-0.014436742
1136,-0.2971264,-2.8902583,9.366349,-0.008330592,-0.0080091385,-0.014436742
1137,-0.2971264,-2.8902583,9.366349,-0.008330592,-0.0080091385,-0.014436742
1138,-0.2971264,-2.8902583,9.366349,-0.008330592,-0.0080091385,-0.014436742
1139,-0.2971264,-2.8902583,9.366349,-0.008330592,-0.0080091385,-0.014436742
1140,-0.2971264,-2.8902583,9.366349,-0.008330592,-0.0080091385,-0.014436742
1141,-0.2971264,-2.8902583,9.366349,-0.008330592,-0.0080091385,-0.014436742
1142,-0.30114463,-2.8840716,9.368128,0.0068794573,-0.0015211153,0.007709693
1143,-0.30114463,-2.8840716,9.368128,0.0068794573,-0.0015211153,0.007709693
1144,-0.30114463,-2.8840716,9.368128,0.0068794573,-0.0015211153,0.007709693
1145,-0.30114463,-2.8840716,9.368128,0.0068794573,-0.0015211153,0.007709693
1146,-0.30114463,-2.8840716,9.368128,0.0068794573,-0.0015211153,0.007709693
1147,-0.30114463,-2.8840716,9.368128,0.0068794573,-0.0015211153,0.007709693
1148,-0.30320704,-2.8795977,9.369438,-0.005045518,0.0072328807,0.007843266
1149,-0.30320704,-2.8795977,9.369438,-0.005045518,0.0072328807,0.007843266
1150,-0.30320704,-2.8795977,9.369438,-0.005045518,0.0072328807,0.007843266
1151,-0.30320704,-2.8795977,9.369438,-0.005045518,0.0072328807,0.007843266
1152,-0.30320704,-2.8795977,9.369438,-0.005045518,0.0072328807,0.007843266
1153,-0.30320704,-2.8795977,9.369438,-0.005045518,0.0072328807,0.007843266
1154,-0.30320704,-2.8795977,9.369438,-0.005045518,0.0072328807,0.007843266
1155,-0.3033351,-2.8776653,9.370028,0.0032393665,0.0035249493,0.007415231
1156,-0.3033351,-2.8776653,9.370028,0.0032393665,0.0035249493,0.007415231
1157,-0.3033351,-2.8776653,9.370028,0.0032393665,0.0035249493,0.007415231
1158,-0.3033351,-2.8776653,9.370028,0.0032393665,0.0035249493,0.007415231
1159,-0.3033351,-2.8776653,9.370028,0.0032393665,0.0035249493,0.007415231
1160,-0.3033351,-2.8776653,9.370028,0.0032393665,0.0035249493,0.007415231
1161,-0.30293846,-2.877153,9.370197,-0.0025775696,0.0030890638,0.0064563067
1162,-0.30293846,-2.877153,9.370197,-0.0025775696,0.0030890638,0.0064563067
1163,-0.30293846,-2.877153,9.370197,-0.0025775696,0.0030890638,0.0064563067
1164,-0.30293846,-2.877153,9.370197,-0.0025775696,0.0030890638,0.0064563067
1165,-0.30293846,-2.877153,9.370197,-0.0025775696,0.0030890638,0.0064563067
1166,-0.30293846,-2.877153,9.370197,-0.0025775696,0.0030890638,0.0064563067
1167,-0.30293846,-2.877153,9.370197,-0.0025775696,0.0030890638,0.0064563067
1168,-0.30210984,-2.875311,9.37079,-0.0039574443,0.0052292896,0.009933475
1169,-0.30210984,-2.875311,9.37079,-0.0039574443,0.0052292896,0.009933475
1170,-0.30210984,-2.875311,9.37079,-0.0039574443,0.0052292896,0.009933475
1171,-0.30210984,-2.875311,9.37079,-0.0039574443,0.0052292896,0.009933475
1172,-0.30210984,-2.875311,9.37079,-0.0039574443,0.0052292896,0.009933475
1173,-0.30168825,-2.8752544,9.370821,-0.0029382415,0.0023063654,0.006031771
1174,-0.30168825,-2.8752544,9.370821,-0.0029382415,0.0023063654,0.006031771
1175,-0.30168825,-2.8752544,9.370821,-0.0029382415,0.0023063654,0.006031771
1176,-0.30168825,-2.8752544,9.370821,-0.0029382415,0.0023063654,0.006031771
1177,-0.30168825,-2.8752544,9.370821,-0.0029382415,0.0023063654,0.006031771
1178,-0.30168825,-2.8752544,9.370821,-0.0029382415,0.0023063654,0.006031771
1179,-0.30039096,-2.875671,9.370735,-0.0013416574,0.0051925913,0.008463592
1180,-0.30039096,-2.875671,9.370735,-0.0013416574,0.0051925913,0.008463592
1181,-0.30039096,-2.875671,9.370735,-0.0013416574,0.0051925913,0.008463592
1182,-0.30039096,-2.875671,9.370735,-0.0013416574,0.0051925913,0.008463592
1183,-0.30039096,-2.875671,9.370735,-0.0013416574,0.0051925913,0.008463592
1184,-0.30039096,-2.875671,9.370735,-0.0013416574,0.0051925913,0.008463592
1185,-0.2995541,-2.8755944,9.370785,-0.006625607,0.0032479365,0.011397331
1186,-0.2995541,-2.8755944,9.370785,-0.006625607,0.0032479365,0.011397331
1187,-0.2995541,-2.8755944,9.370785,-0.006625607,0.0032479365,0.011397331
1188,-0.2995541,-2.8755944,9.370785,-0.006625607,0.0032479365,0.011397331
1189,-0.2995541,-2.8755944,9.370785,-0.006625607,0.0032479365,0.011397331
1190,-0.2995541,-2.8755944,9.370785,-0.006625607,0.0032479365,0.011397331
1191,-0.29880834,-2.8754103,9.370866,0.00028401217,0.003754813,0.008965025
1192,-0.29880834,-2.8754103,9.370866,0.00028401217,0.003754813,0.008965025
1193,-0.29880834,-2.8754103,9.370866,0.00028401217,0.003754813,0.008965025
1194,-0.29880834,-2.8754103,9.370866,0.00028401217,0.003754813,0.008965025
1195,-0.29880834,-2.8754103,9.370866,0.00028401217,0.003754813,0.008965025
1196,-0.29880834,-2.8754103,9.370866,0.00028401217,0.003754813,0.008965025
1197,-0.29832524,-2.875187,9.370949,-0.00064297067,0.0032894714,0.00750914
1198,-0.29832524,-2.875187,9.370949,-0.00064297067,0.0032894714,0.00750914
1199,-0.29832524,-2.875187,9.370949,-0.00064297067,0.0032894714,0.00750914
1200,-0.29832524,-2.875187,9.370949,-0.00064297067,0.0032894714,0.00750914
1201,-0.29832524,-2.875187,9.370949,-0.00064297067,0.0032894714,0.00750914
1202,-0.29832524,-2.875187,9.370949,-0.00064297067,0.0032894714,0.00750914
1203,-0.2988182,-2.8752983,9.370899,-0.0016694495,0.00034943753,0.012873339
1204,-0.2988182,-2.8752983,9.370899,-0.0016694495,0.00034943753,0.012873339
1205,-0.2988182,-2.8752983,9.370899,-0.0016694495,0.00034943753,0.012873339
1206,-0.2988182,-2.8752983,9.370899,-0.0016694495,0.00034943753,0.012873339
1207,-0.2988182,-2.8752983,9.370899,-0.0016694495,0.00034943753,0.012873339
1208,-0.2988182,-2.8752983,9.370899,-0.0016694495,0.00034943753,0.012873339
1209,-0.29842636,-2.8752105,9.370938,-0.00065327843,0.0023108374,0.0075080707
1210,-0.29842636,-2.8752105,9.370938,-0.00065327843,0.0023108374,0.0075080707
1211,-0.29842636,-2.8752105,9.370938,-0.00065327843,0.0023108374,0.0075080707
1212,-0.29842636,-2.8752105,9.370938,-0.00065327843,0.0023108374,0.0075080707
1213,-0.29842636,-2.8752105,9.370938,-0.00065327843,0.0023108374,0.0075080707
1214,-0.29842636,-2.8752105,9.370938,-0.00065327843,0.0023108374,0.0075080707
1215,-0.2981941,-2.876293,9.370614,-0.004046402,0.005129183,0.0060106753
1216,-0.2981941,-2.876293,9.370614,-0.004046402,0.005129183,0.0060106753
1217,-0.2981941,-2.876293,9.370614,-0.004046402,0.005129183,0.0060106753
1218,-0.2981941,-2.876293,9.370614,-0.004046402,0.005129183,0.0060106753
1219,-0.2981941,-2.876293,9.370614,-0.004046402,0.005129183,0.0060106753
1220,-0.2981941,-2.876293,9.370614,-0.004046402,0.005129183,0.0060106753
1221,-0.2980876,-2.8781548,9.370046,-0.00013063199,0.004939396,0.0049765077
1222,-0.2980876,-2.8781548,9.370046,-0.00013063199,0.004939396,0.0049765077
1223,-0.2980876,-2.8781548,9.370046,-0.00013063199,0.004939396,0.0049765077
1224,-0.2980876,-2.8781548,9.370046,-0.00013063199,0.004939396,0.0049765077
1225,-0.2980876,-2.8781548,9.370046,-0.00013063199,0.004939396,0.0049765077
1226,-0.2980876,-2.8781548,9.370046,-0.00013063199,0.004939396,0.0049765077
1227,-0.29806283,-2.8803182,9.369382,-0.004521134,0.00032583872,0.0058850744
1228,-0.29806283,-2.8803182,9.369382,-0.004521134,0.00032583872,0.0058850744
1229,-0.29806283,-2.8803182,9.369382,-0.004521134,0.00032583872,0.0058850744
1230,-0.29806283,-2.8803182,9.369382,-0.004521134,0.00032583872,0.0058850744
1231,-0.29806283,-2.8803182,9.369382,-0.004521134,0.00032583872,0.0058850744
1232,-0.29806283,-2.8803182,9.369382,-0.004521134,0.00032583872,0.0058850744
1233,-0.29766765,-2.882722,9.368655,-0.0039927363,0.0005689236,0.005810997
1234,-0.29766765,-2.882722,9.368655,-0.0039927363,0.0005689236,0.005810997
1235,-0.29766765,-2.882722,9.368655,-0.0039927363,0.0005689236,0.005810997
1236,-0.29766765,-2.882722,9.368655,-0.0039927363,0.0005689236,0.005810997
1237,-0.29766765,-2.882722,9.368655,-0.0039927363,0.0005689236,0.005810997
1238,-0.29766765,-2.882722,9.368655,-0.0039927363,0.0005689236,0.005810997
1239,-0.29717332,-2.885319,9.367871,-0.02200257,0.0027447543,0.0057310867
1240,-0.29717332,-2.885319,9.367871,-0.02200257,0.0027447543,0.0057310867
1241,-0.29717332,-2.885319,9.367871,-0.02200257,0.0027447543,0.0057310867
1242,-0.29717332,-2.885319,9.367871,-0.02200257,0.0027447543,0.0057310867
1243,-0.29717332,-2.885319,9.367871,-0.02200257,0.0027447543,0.0057310867
1244,-0.29717332,-2.885319,9.367871,-0.02200257,0.0027447543,0.0057310867
1245,-0.2977719,-2.887892,9.36706,-0.010836963,0.0044349255,0.004184015
1246,-0.2977719,-2.887892,9.36706,-0.010836963,0.0044349255,0.004184015
1247,-0.2977719,-2.887892,9.36706,-0.010836963,0.0044349255,0.004184015
1248,-0.2977719,-2.887892,9.36706,-0.010836963,0.0044349255,0.004184015
1249,-0.2977719,-2.887892,9.36706,-0.010836963,0.0044349255,0.004184015
1250,-0.2977719,-2.887892,9.36706,-0.010836963,0.0044349255,0.004184015
1251,-0.29769826,-2.8894095,9.366594,-0.0054602,-0.004505819,0.005600916
1252,-0.29769826,-2.8894095,9.366594,-0.0054602,-0.004505819,0.005600916
1253,-0.29769826,-2.8894095,9.366594,-0.0054602,-0.004505819,0.005600916
1254,-0.29769826,-2.8894095,9.366594,-0.0054602,-0.004505819,0.005600916
1255,-0.29769826,-2.8894095,9.366594,-0.0054602,-0.004505819,0.005600916
1256,-0.29769826,-2.8894095,9.366594,-0.0054602,-0.004505819,0.005600916
1257,-0.29803863,-2.8899846,9.3664055,-0.015257178,0.0017810427,0.0031410977
1258,-0.29803863,-2.8899846,9.3664055,-0.015257178,0.0017810427,0.0031410977
1259,-0.29803863,-2.8899846,9.3664055,-0.015257178,0.0017810427,0.0031410977
1260,-0.29803863,-2.8899846,9.3664055,-0.015257178,0.0017810427,0.0031410977
1261,-0.29803863,-2.8899846,9.3664055,-0.015257178,0.0017810427,0.0031410977
1262,-0.29921186,-2.8903904,9.366242,-0.011959976,0.00027533577,0.0075175003
1263,-0.29921186,-2.8903904,9.366242,-0.011959976,0.00027533577,0.0075175003
1264,-0.29921186,-2.8903904,9.366242,-0.011959976,0.00027533577,0.0075175003
1265,-0.29921186,-2.8903904,9.366242,-0.011959976,0.00027533577,0.0075175003
1266,-0.29921186,-2.8903904,9.366242,-0.011959976,0.00027533577,0.0075175003
1267,-0.29921186,-2.8903904,9.366242,-0.011959976,0.00027533577,0.0075175003
1268,-0.29918492,-2.8898714,9.366404,-0.0046355156,0.005209385,0.0016765613
1269,-0.29918492,-2.8898714,9.366404,-0.0046355156,0.005209385,0.0016765613
1270,-0.29918492,-2.8898714,9.366404,-0.0046355156,0.005209385,0.0016765613
1271,-0.29918492,-2.8898714,9.366404,-0.0046355156,0.005209385,0.0016765613
1272,-0.29918492,-2.8898714,9.366404,-0.0046355156,0.005209385,0.0016765613
1273,-0.29728258,-2.889997,9.3664255,-0.013227653,0.0017797789,0.0021669113
1274,-0.29728258,-2.889997,9.3664255,-0.013227653,0.0017797789,0.0021669113
1275,-0.29728258,-2.889997,9.3664255,-0.013227653,0.0017797789,0.0021669113
1276,-0.29728258,-2.889997,9.3664255,-0.013227653,0.0017797789,0.0021669113
1277,-0.29728258,-2.889997,9.3664255,-0.013227653,0.0017797789,0.0021669113
1278,-0.29728258,-2.889997,9.3664255,-0.013227653,0.0017797789,0.0021669113
1279,-0.29526916,-2.8914196,9.366051,-0.00814127,-0.0017820391,0.006033618
1280,-0.29526916,-2.8914196,9.366051,-0.00814127,-0.0017820391,0.006033618
1281,-0.29526916,-2.8914196,9.366051,-0.00814127,-0.0017820391,0.006033618
1282,-0.29526916,-2.8914196,9.366051,-0.00814127,-0.0017820391,0.006033618
1283,-0.29526916,-2.8914196,9.366051,-0.00814127,-0.0017820391,0.006033618
1284,-0.29526916,-2.8914196,9.366051,-0.00814127,-0.0017820391,0.006033618
1285,-0.29087493,-2.8947597,9.365156,-0.0057408796,-0.005051193,0.007894887
1286,-0.29087493,-2.8947597,9.365156,-0.0057408796,-0.005051193,0.007894887
1287,-0.29087493,-2.8947597,9.365156,-0.0057408796,-0.005051193,0.007894887
1288,-0.29087493,-2.8947597,9.365156,-0.0057408796,-0.005051193,0.007894887
1289,-0.29087493,-2.8947597,9.365156,-0.0057408796,-0.005051193,0.007894887
1290,-0.29087493,-2.8947597,9.365156,-0.0057408796,-0.005051193,0.007894887
1291,-0.28487107,-2.9006484,9.363519,0.0007285042,-0.00077032775,0.0057755136
1292,-0.28487107,-2.9006484,9.363519,0.0007285042,-0.00077032775,0.0057755136
1293,-0.28487107,-2.9006484,9.363519,0.0007285042,-0.00077032775,0.0057755136
1294,-0.28487107,-2.9006484,9.363519,0.0007285042,-0.00077032775,0.0057755136
1295,-0.2775549,-2.9065554,9.361906,-0.008287992,-0.00088436034,0.006587352
1296,-0.2775549,-2.9065554,9.361906,-0.008287992,-0.00088436034,0.006587352
1297,-0.2775549,-2.9065554,9.361906,-0.008287992,-0.00088436034,0.006587352
1298,-0.2775549,-2.9065554,9.361906,-0.008287992,-0.00088436034,0.006587352
1299,-0.2775549,-2.9065554,9.361906,-0.008287992,-0.00088436034,0.006587352
1300,-0.2775549,-2.9065554,9.361906,-0.008287992,-0.00088436034,0.006587352
1301,-0.27048206,-2.9108007,9.360794,-0.009519466,-0.0061982507,0.0030572016
1302,-0.27048206,-2.9108007,9.360794,-0.009519466,-0.0061982507,0.0030572016
1303,-0.27048206,-2.9108007,9.360794,-0.009519466,-0.0061982507,0.0030572016
1304,-0.27048206,-2.9108007,9.360794,-0.009519466,-0.0061982507,0.0030572016
1305,-0.27048206,-2.9108007,9.360794,-0.009519466,-0.0061982507,0.0030572016
1306,-0.27048206,-2.9108007,9.360794,-0.009519466,-0.0061982507,0.0030572016
1307,-0.264738,-2.914567,9.359787,-0.00258845,-0.005605947,0.0034426572
1308,-0.264738,-2.914567,9.359787,-0.00258845,-0.005605947,0.0034426572
1309,-0.264738,-2.914567,9.359787,-0.00258845,-0.005605947,0.0034426572
1310,-0.264738,-2.914567,9.359787,-0.00258845,-0.005605947,0.0034426572
1311,-0.264738,-2.914567,9.359787,-0.00258845,-0.005605947,0.0034426572
1312,-0.264738,-2.914567,9.359787,-0.00258845,-0.005605947,0.0034426572
1313,-0.25969735,-2.9174001,9.359045,-0.009396334,-0.0039422913,0.0023907963
1314,-0.25969735,-2.9174001,9.359045,-0.009396334,-0.0039422913,0.0023907963
1315,-0.25969735,-2.9174001,9.359045,-0.009396334,-0.0039422913,0.0023907963
1316,-0.25969735,-2.9174001,9.359045,-0.009396334,-0.0039422913,0.0023907963
1317,-0.25969735,-2.9174001,9.359045,-0.009396334,-0.0039422913,0.0023907963
1318,-0.25969735,-2.9174001,9.359045,-0.009396334,-0.0039422913,0.0023907963
1319,-0.25673613,-2.9183998,9.358815,0.00359649,-0.004044196,0.0038317097
1320,-0.25673613,-2.9183998,9.358815,0.00359649,-0.004044196,0.0038317097
1321,-0.25673613,-2.9183998,9.358815,0.00359649,-0.004044196,0.0038317097
1322,-0.25673613,-2.9183998,9.358815,0.00359649,-0.004044196,0.0038317097
1323,-0.25673613,-2.9183998,9.358815,0.00359649,-0.004044196,0.0038317097
1324,-0.25673613,-2.9183998,9.358815,0.00359649,-0.004044196,0.0038317097
1325,-0.2542127,-2.9167595,9.359395,-0.0142065035,-0.00094830315,0.007307614
1326,-0.2542127,-2.9167595,9.359395,-0.0142065035,-0.00094830315,0.007307614
1327,-0.2542127,-2.9167595,9.359395,-0.0142065035,-0.00094830315,0.007307614
1328,-0.2542127,-2.9167595,9.359395,-0.0142065035,-0.00094830315,0.007307614
1329,-0.2542127,-2.9167595,9.359395,-0.0142065035,-0.00094830315,0.007307614
1330,-0.2542127,-2.9167595,9.359395,-0.0142065035,-0.00094830315,0.007307614
1331,-0.25245452,-2.9145606,9.360128,-0.0120748235,-0.004629063,0.0068942583
1332,-0.25245452,-2.9145606,9.360128,-0.0120748235,-0.004629063,0.0068942583
1333,-0.25245452,-2.9145606,9.360128,-0.0120748235,-0.004629063,0.0068942583
1334,-0.25245452,-2.9145606,9.360128,-0.0120748235,-0.004629063,0.0068942583
1335,-0.25245452,-2.9145606,9.360128,-0.0120748235,-0.004629063,0.0068942583
1336,-0.25245452,-2.9145606,9.360128,-0.0120748235,-0.004629063,0.0068942583
1337,-0.25042617,-2.9140072,9.360354,-0.002593891,0.001284714,0.006917298
1338,-0.25042617,-2.9140072,9.360354,-0.002593891,0.001284714,0.006917298
1339,-0.25042617,-2.9140072,9.360354,-0.002593891,0.001284714,0.006917298
1340,-0.25042617,-2.9140072,9.360354,-0.002593891,0.001284714,0.006917298
1341,-0.25042617,-2.9140072,9.360354,-0.002593891,0.001284714,0.006917298
1342,-0.25042617,-2.9140072,9.360354,-0.002593891,0.001284714,0.006917298
1343,-0.24832806,-2.912856,9.360768,0.0020130116,-0.0015266322,0.003542691
1344,-0.24832806,-2.912856,9.360768,0.0020130116,-0.0015266322,0.003542691
1345,-0.24832806,-2.912856,9.360768,0.0020130116,-0.0015266322,0.003542691
1346,-0.24832806,-2.912856,9.360768,0.0020130116,-0.0015266322,0.003542691
1347,-0.24832806,-2.912856,9.360768,0.0020130116,-0.0015266322,0.003542691
1348,-0.24832806,-2.912856,9.360768,0.0020130116,-0.0015266322,0.003542691
1349,-0.24541488,-2.9114296,9.361289,-0.005011742,-0.0101672765,0.002619542
1350,-0.24541488,-2.9114296,9.361289,-0.005011742,-0.0101672765,0.002619542
1351,-0.24541488,-2.9114296,9.361289,-0.005011742,-0.0101672765,0.002619542
1352,-0.24541488,-2.9114296,9.361289,-0.005011742,-0.0101672765,0.002619542
1353,-0.24541488,-2.9114296,9.361289,-0.005011742,-0.0101672765,0.002619542
1354,-0.24541488,-2.9114296,9.361289,-0.005011742,-0.0101672765,0.002619542
1355,-0.24247076,-2.9099011,9.361841,-0.0042235116,-0.0026897553,0.0056045135
1356,-0.24247076,-2.9099011,9.361841,-0.0042235116,-0.0026897553,0.0056045135
1357,-0.24247076,-2.9099011,9.361841,-0.0042235116,-0.0026897553,0.0056045135
1358,-0.24247076,-2.9099011,9.361841,-0.0042235116,-0.0026897553,0.0056045135
1359,-0.24247076,-2.9099011,9.361841,-0.0042235116,-0.0026897553,0.0056045135
1360,-0.24247076,-2.9099011,9.361841,-0.0042235116,-0.0026897553,0.0056045135
1361,-0.24032295,-2.9086943,9.362271,-0.0040045707,-0.0030548442,0.005648357
1362,-0.24032295,-2.9086943,9.362271,-0.0040045707,-0.0030548442,0.005648357
1363,-0.24032295,-2.9086943,9.362271,-0.0040045707,-0.0030548442,0.005648357
1364,-0.24032295,-2.9086943,9.362271,-0.0040045707,-0.0030548442,0.005648357
1365,-0.24032295,-2.9086943,9.362271,-0.0040045707,-0.0030548442,0.005648357
1366,-0.24032295,-2.9086943,9.362271,-0.0040045707,-0.0030548442,0.005648357
1367,-0.23798956,-2.907642,9.362658,-0.0018142565,-0.006364366,0.007640185
1368,-0.23798956,-2.907642,9.362658,-0.0018142565,-0.006364366,0.007640185
1369,-0.23798956,-2.907642,9.362658,-0.0018142565,-0.006364366,0.007640185
1370,-0.23798956,-2.907642,9.362658,-0.0018142565,-0.006364366,0.007640185
1371,-0.23798956,-2.907642,9.362658,-0.0018142565,-0.006364366,0.007640185
1372,-0.23798956,-2.907642,9.362658,-0.0018142565,-0.006364366,0.007640185
1373,-0.23572847,-2.9064093,9.363098,-0.0045124544,0.004987906,0.004756414
1374,-0.23572847,-2.9064093,9.363098,-0.0045124544,0.004987906,0.004756414
1375,-0.23572847,-2.9064093,9.363098,-0.0045124544,0.004987906,0.004756414
1376,-0.23572847,-2.9064093,9.363098,-0.0045124544,0.004987906,0.004756414
1377,-0.23572847,-2.9064093,9.363098,-0.0045124544,0.004987906,0.004756414
1378,-0.23572847,-2.9064093,9.363098,-0.0045124544,0.004987906,0.004756414
1379,-0.23343895,-2.9053397,9.363487,-0.00818398,0.00070390594,0.006748534
1380,-0.23343895,-2.9053397,9.363487,-0.00818398,0.00070390594,0.006748534
1381,-0.23343895,-2.9053397,9.363487,-0.00818398,0.00070390594,0.006748534
1382,-0.23343895,-2.9053397,9.363487,-0.00818398,0.00070390594,0.006748534
1383,-0.23343895,-2.9053397,9.363487,-0.00818398,0.00070390594,0.006748534
1384,-0.23343895,-2.9053397,9.363487,-0.00818398,0.00070390594,0.006748534
1385,-0.23123403,-2.903732,9.36404,-0.0011256194,-0.0005965568,0.004852462
1386,-0.23123403,-2.903732,9.36404,-0.0011256194,-0.0005965568,0.004852462
1387,-0.23123403,-2.903732,9.36404,-0.0011256194,-0.0005965568,0.004852462
1388,-0.23123403,-2.903732,9.36404,-0.0011256194,-0.0005965568,0.004852462
1389,-0.23123403,-2.903732,9.36404,-0.0011256194,-0.0005965568,0.004852462
1390,-0.23123403,-2.903732,9.36404,-0.0011256194,-0.0005965568,0.004852462
1391,-0.22906032,-2.9019918,9.364634,-0.0018802667,-0.0013953927,0.0044248155
1392,-0.22906032,-2.9019918,9.364634,-0.0018802667,-0.0013953927,0.0044248155
1393,-0.22906032,-2.9019918,9.364634,-0.0018802667,-0.0013953927,0.0044248155
1394,-0.22906032,-2.9019918,9.364634,-0.0018802667,-0.0013953927,0.0044248155
1395,-0.22906032,-2.9019918,9.364634,-0.0018802667,-0.0013953927,0.0044248155
1396,-0.22906032,-2.9019918,9.364634,-0.0018802667,-0.0013953927,0.0044248155
1397,-0.22720851,-2.9001267,9.365256,0.0031896427,-0.0055982918,0.0030239543
1398,-0.22720851,-2.9001267,9.365256,0.0031896427,-0.0055982918,0.0030239543
1399,-0.22720851,-2.9001267,9.365256,0.0031896427,-0.0055982918,0.0030239543
1400,-0.22720851,-2.9001267,9.365256,0.0031896427,-0.0055982918,0.0030239543
1401,-0.22720851,-2.9001267,9.365256,0.0031896427,-0.0055982918,0.0030239543
1402,-0.22720851,-2.9001267,9.365256,0.0031896427,-0.0055982918,0.0030239543
1403,-0.22571807,-2.8986757,9.365742,-0.0020276818,0.00040698852,0.0060021207
1404,-0.22571807,-2.8986757,9.365742,-0.0020276818,0.00040698852,0.0060021207
1405,-0.22571807,-2.8986757,9.365742,-0.0020276818,0.00040698852,0.0060021207
1406,-0.22571807,-2.8986757,9.365742,-0.0020276818,0.00040698852,0.0060021207
1407,-0.22571807,-2.8986757,9.365742,-0.0020276818,0.00040698852,0.0060021207
1408,-0.22571807,-2.8986757,9.365742,-0.0020276818,0.00040698852,0.0060021207
1409,-0.22426364,-2.8977733,9.3660555,0.0039779474,-0.0004772503,0.004569762
1410,-0.22426364,-2.8977733,9.3660555,0.0039779474,-0.0004772503,0.004569762
1411,-0.22426364,-2.8977733,9.3660555,0.0039779474,-0.0004772503,0.004569762
1412,-0.22426364,-2.8977733,9.3660555,0.0039779474,-0.0004772503,0.004569762
1413,-0.22426364,-2.8977733,9.3660555,0.0039779474,-0.0004772503,0.004569762
1414,-0.22426364,-2.8977733,9.3660555,0.0039779474,-0.0004772503,0.004569762
1415,-0.2234268,-2.8972764,9.36623,0.0035751378,-0.0028671715,0.0060518943
1416,-0.2234268,-2.8972764,9.36623,0.0035751378,-0.0028671715,0.0060518943
1417,-0.2234268,-2.8972764,9.36623,0.0035751378,-0.0028671715,0.0060518943
1418,-0.2234268,-2.8972764,9.36623,0.0035751378,-0.0028671715,0.0060518943
1419,-0.2234268,-2.8972764,9.36623,0.0035751378,-0.0028671715,0.0060518943
1420,-0.2234268,-2.8972764,9.36623,0.0035751378,-0.0028671715,0.0060518943
1421,-0.22360075,-2.8975296,9.366147,0.0055098627,-0.000452412,0.005555323
1422,-0.22360075,-2.8975296,9.366147,0.0055098627,-0.000452412,0.005555323
1423,-0.22360075,-2.8975296,9.366147,0.0055098627,-0.000452412,0.005555323
1424,-0.22360075,-2.8975296,9.366147,0.0055098627,-0.000452412,0.005555323
1425,-0.22360075,-2.8975296,9.366147,0.0055098627,-0.000452412,0.005555323
1426,-0.22360075,-2.8975296,9.366147,0.0055098627,-0.000452412,0.005555323
1427,-0.22403711,-2.8976886,9.366087,0.009858407,-0.009254674,0.008965996
1428,-0.22403711,-2.8976886,9.366087,0.009858407,-0.009254674,0.008965996
1429,-0.22403711,-2.8976886,9.366087,0.009858407,-0.009254674,0.008965996
1430,-0.22403711,-2.8976886,9.366087,0.009858407,-0.009254674,0.008965996
1431,-0.22403711,-2.8976886,9.366087,0.009858407,-0.009254674,0.008965996
1432,-0.22403711,-2.8976886,9.366087,0.009858407,-0.009254674,0.008965996
1433,-0.22466312,-2.8976102,9.3660965,-0.005825058,-0.0014368547,0.0021333722
1434,-0.22466312,-2.8976102,9.3660965,-0.005825058,-0.0014368547,0.0021333722
1435,-0.22466312,-2.8976102,9.3660965,-0.005825058,-0.0014368547,0.0021333722
1436,-0.22466312,-2.8976102,9.3660965,-0.005825058,-0.0014368547,0.0021333722
1437,-0.22466312,-2.8976102,9.3660965,-0.005825058,-0.0014368547,0.0021333722
1438,-0.22466312,-2.8976102,9.3660965,-0.005825058,-0.0014368547,0.0021333722
1439,-0.22549106,-2.8973467,9.3661585,0.004340942,-0.0033624552,0.0070208316
1440,-0.22549106,-2.8973467,9.3661585,0.004340942,-0.0033624552,0.0070208316
1441,-0.22549106,-2.8973467,9.3661585,0.004340942,-0.0033624552,0.0070208316
1442,-0.22549106,-2.8973467,9.3661585,0.004340942,-0.0033624552,0.0070208316
1443,-0.22549106,-2.8973467,9.3661585,0.004340942,-0.0033624552,0.0070208316
1444,-0.22687507,-2.8974893,9.366081,0.004687975,0.0058971774,0.0026199308
1445,-0.22687507,-2.8974893,9.366081,0.004687975,0.0058971774,0.0026199308
1446,-0.22687507,-2.8974893,9.366081,0.004687975,0.0058971774,0.0026199308
1447,-0.22687507,-2.8974893,9.366081,0.004687975,0.0058971774,0.0026199308
1448,-0.22687507,-2.8974893,9.366081,0.004687975,0.0058971774,0.0026199308
1449,-0.22687507,-2.8974893,9.366081,0.004687975,0.0058971774,0.0026199308
1450,-0.22687507,-2.8974893,9.366081,0.004687975,0.0058971774,0.0026199308
1451,-0.22836818,-2.8976858,9.365984,0.004535772,0.007829607,0.005538699
1452,-0.22836818,-2.8976858,9.365984,0.004535772,0.007829607,0.005538699
1453,-0.22836818,-2.8976858,9.365984,0.004535772,0.007829607,0.005538699
1454,-0.22836818,-2.8976858,9.365984,0.004535772,0.007829607,0.005538699
1455,-0.22836818,-2.8976858,9.365984,0.004535772,0.007829607,0.005538699
1456,-0.22836818,-2.8976858,9.365984,0.004535772,0.007829607,0.005538699
1457,-0.22962916,-2.8973508,9.366056,0.004895346,0.0024944998,0.0050579733
1458,-0.22962916,-2.8973508,9.366056,0.004895346,0.0024944998,0.0050579733
1459,-0.22962916,-2.8973508,9.366056,0.004895346,0.0024944998,0.0050579733
1460,-0.22962916,-2.8973508,9.366056,0.004895346,0.0024944998,0.0050579733
1461,-0.22962916,-2.8973508,9.366056,0.004895346,0.0024944998,0.0050579733
1462,-0.23068261,-2.897633,9.365944,0.0018592745,-0.0019273019,0.00602273
1463,-0.23068261,-2.897633,9.365944,0.0018592745,-0.0019273019,0.00602273
1464,-0.23068261,-2.897633,9.365944,0.0018592745,-0.0019273019,0.00602273
1465,-0.23068261,-2.897633,9.365944,0.0018592745,-0.0019273019,0.00602273
1466,-0.23068261,-2.897633,9.365944,0.0018592745,-0.0019273019,0.00602273
1467,-0.23068261,-2.897633,9.365944,0.0018592745,-0.0019273019,0.00602273
1468,-0.23068261,-2.897633,9.365944,0.0018592745,-0.0019273019,0.00602273
1469,-0.2319157,-2.8978176,9.365856,-0.008028705,0.0048874835,0.010406813
1470,-0.2319157,-2.8978176,9.365856,-0.008028705,0.0048874835,0.010406813
1471,-0.2319157,-2.8978176,9.365856,-0.008028705,0.0048874835,0.010406813
1472,-0.2319157,-2.8978176,9.365856,-0.008028705,0.0048874835,0.010406813
1473,-0.2319157,-2.8978176,9.365856,-0.008028705,0.0048874835,0.010406813
1474,-0.2340891,-2.8972573,9.365975,-0.0043453425,-0.017020535,0.037265234
1475,-0.2340891,-2.8972573,9.365975,-0.0043453425,-0.017020535,0.037265234
1476,-0.2340891,-2.8972573,9.365975,-0.0043453425,-0.017020535,0.037265234
1477,-0.2340891,-2.8972573,9.365975,-0.0043453425,-0.017020535,0.037265234
1478,-0.2340891,-2.8972573,9.365975,-0.0043453425,-0.017020535,0.037265234
1479,-0.2340891,-2.8972573,9.365975,-0.0043453425,-0.017020535,0.037265234
1480,-0.2372707,-2.8943756,9.366786,0.019736044,-0.022584144,-0.0007250258
1481,-0.2372707,-2.8943756,9.366786,0.019736044,-0.022584144,-0.0007250258
1482,-0.2372707,-2.8943756,9.366786,0.019736044,-0.022584144,-0.0007250258
1483,-0.2372707,-2.8943756,9.366786,0.019736044,-0.022584144,-0.0007250258
1484,-0.2372707,-2.8943756,9.366786,0.019736044,-0.022584144,-0.0007250258
1485,-0.2372707,-2.8943756,9.366786,0.019736044,-0.022584144,-0.0007250258
1486,-0.24349795,-2.884335,9.369723,0.025446743,-0.05670488,-0.0077473153
1487,-0.24349795,-2.884335,9.369723,0.025446743,-0.05670488,-0.0077473153
1488,-0.24349795,-2.884335,9.369723,0.025446743,-0.05670488,-0.0077473153
1489,-0.24349795,-2.884335,9.369723,0.025446743,-0.05670488,-0.0077473153
1490,-0.24349795,-2.884335,9.369723,0.025446743,-0.05670488,-0.0077473153
1491,-0.24349795,-2.884335,9.369723,0.025446743,-0.05670488,-0.0077473153
1492,-0.24349795,-2.884335,9.369723,0.025446743,-0.05670488,-0.0077473153
1493,-0.24695729,-2.8705032,9.373879,0.061702665,-0.1480366,-0.0014662864
1494,-0.24695729,-2.8705032,9.373879,0.061702665,-0.1480366,-0.0014662864
1495,-0.24695729,-2.8705032,9.373879,0.061702665,-0.1480366,-0.0014662864
1496,-0.24695729,-2.8705032,9.373879,0.061702665,-0.1480366,-0.0014662864
1497,-0.24695729,-2.8705032,9.373879,0.061702665,-0.1480366,-0.0014662864
1498,-0.24695729,-2.8705032,9.373879,0.061702665,-0.1480366,-0.0014662864
1499,-0.2476186,-2.8511946,9.379753,-0.05941705,-0.08944709,-0.028690042
1500,-0.2476186,-2.8511946,9.379753,-0.05941705,-0.08944709,-0.028690042
1501,-0.2476186,-2.8511946,9.379753,-0.05941705,-0.08944709,-0.028690042
1502,-0.2476186,-2.8511946,9.379753,-0.05941705,-0.08944709,-0.028690042
1503,-0.2476186,-2.8511946,9.379753,-0.05941705,-0.08944709,-0.028690042
1504,-0.24524382,-2.8229194,9.388364,-0.066496685,-0.16661553,-0.027812291
1505,-0.24524382,-2.8229194,9.388364,-0.066496685,-0.16661553,-0.027812291
1506,-0.24524382,-2.8229194,9.388364,-0.066496685,-0.16661553,-0.027812291
1507,-0.24524382,-2.8229194,9.388364,-0.066496685,-0.16661553,-0.027812291
1508,-0.24524382,-2.8229194,9.388364,-0.066496685,-0.16661553,-0.027812291
1509,-0.24524382,-2.8229194,9.388364,-0.066496685,-0.16661553,-0.027812291
1510,-0.23921327,-2.791148,9.398013,-0.04830984,-0.08186178,0.033697464
1511,-0.23921327,-2.791148,9.398013,-0.04830984,-0.08186178,0.033697464
1512,-0.23921327,-2.791148,9.398013,-0.04830984,-0.08186178,0.033697464
1513,-0.23921327,-2.791148,9.398013,-0.04830984,-0.08186178,0.033697464
1514,-0.23921327,-2.791148,9.398013,-0.04830984,-0.08186178,0.033697464
1515,-0.23921327,-2.791148,9.398013,-0.04830984,-0.08186178,0.033697464
1516,-0.23558682,-2.761121,9.406971,0.06725477,0.016869439,-0.036654048
1517,-0.23558682,-2.761121,9.406971,0.06725477,0.016869439,-0.036654048
1518,-0.23558682,-2.761121,9.406971,0.06725477,0.016869439,-0.036654048
1519,-0.23558682,-2.761121,9.406971,0.06725477,0.016869439,-0.036654048
1520,-0.23558682,-2.761121,9.406971,0.06725477,0.016869439,-0.036654048
1521,-0.23558682,-2.761121,9.406971,0.06725477,0.016869439,-0.036654048
1522,-0.23558682,-2.761121,9.406971,0.06725477,0.016869439,-0.036654048
1523,-0.23573382,-2.7348053,9.414651,0.12727782,-0.041950416,-0.01537039
1524,-0.23573382,-2.7348053,9.414651,0.12727782,-0.041950416,-0.01537039
1525,-0.23573382,-2.7348053,9.414651,0.12727782,-0.041950416,-0.01537039
1526,-0.23573382,-2.7348053,9.414651,0.12727782,-0.041950416,-0.01537039
1527,-0.23573382,-2.7348053,9.414651,0.12727782,-0.041950416,-0.01537039
1528,-0.24356988,-2.707639,9.4223,0.09182294,-0.061634406,-0.04338936
1529,-0.24356988,-2.707639,9.4223,0.09182294,-0.061634406,-0.04338936
1530,-0.24356988,-2.707639,9.4223,0.09182294,-0.061634406,-0.04338936
1531,-0.24356988,-2.707639,9.4223,0.09182294,-0.061634406,-0.04338936
1532,-0.24356988,-2.707639,9.4223,0.09182294,-0.061634406,-0.04338936
1533,-0.24356988,-2.707639,9.4223,0.09182294,-0.061634406,-0.04338936
1534,-0.25552443,-2.6801968,9.429827,0.012017949,-0.050050985,-0.0133353025
1535,-0.25552443,-2.6801968,9.429827,0.012017949,-0.050050985,-0.0133353025
1536,-0.25552443,-2.6801968,9.429827,0.012017949,-0.050050985,-0.0133353025
1537,-0.25552443,-2.6801968,9.429827,0.012017949,-0.050050985,-0.0133353025
1538,-0.25552443,-2.6801968,9.429827,0.012017949,-0.050050985,-0.0133353025
1539,-0.25552443,-2.6801968,9.429827,0.012017949,-0.050050985,-0.0133353025
1540,-0.27001897,-2.6520176,9.437387,-0.014353401,-0.19019593,-0.008171559
1541,-0.27001897,-2.6520176,9.437387,-0.014353401,-0.19019593,-0.008171559
1542,-0.27001897,-2.6520176,9.437387,-0.014353401,-0.19019593,-0.008171559
1543,-0.27001897,-2.6520176,9.437387,-0.014353401,-0.19019593,-0.008171559
1544,-0.27001897,-2.6520176,9.437387,-0.014353401,-0.19019593,-0.008171559
1545,-0.27001897,-2.6520176,9.437387,-0.014353401,-0.19019593,-0.008171559
1546,-0.28504553,-2.6210997,9.44558,-0.037850298,-0.07087309,0.013652416
1547,-0.28504553,-2.6210997,9.44558,-0.037850298,-0.07087309,0.013652416
1548,-0.28504553,-2.6210997,9.44558,-0.037850298,-0.07087309,0.013652416
1549,-0.28504553,-2.6210997,9.44558,-0.037850298,-0.07087309,0.013652416
1550,-0.28504553,-2.6210997,9.44558,-0.037850298,-0.07087309,0.013652416
1551,-0.28504553,-2.6210997,9.44558,-0.037850298,-0.07087309,0.013652416
1552,-0.29616106,-2.5801604,9.456504,0.0025063236,-0.105260886,-0.064796574
1553,-0.29616106,-2.5801604,9.456504,0.0025063236,-0.105260886,-0.064796574
1554,-0.29616106,-2.5801604,9.456504,0.0025063236,-0.105260886,-0.064796574
1555,-0.29616106,-2.5801604,9.456504,0.0025063236,-0.105260886,-0.064796574
1556,-0.29616106,-2.5801604,9.456504,0.0025063236,-0.105260886,-0.064796574
1557,-0.29616106,-2.5801604,9.456504,0.0025063236,-0.105260886,-0.064796574
1558,-0.3003725,-2.5366251,9.468142,0.0035413634,-0.03980878,-0.017239437
1559,-0.3003725,-2.5366251,9.468142,0.0035413634,-0.03980878,-0.017239437
1560,-0.3003725,-2.5366251,9.468142,0.0035413634,-0.03980878,-0.017239437
1561,-0.3003725,-2.5366251,9.468142,0.0035413634,-0.03980878,-0.017239437
1562,-0.3003725,-2.5366251,9.468142,0.0035413634,-0.03980878,-0.017239437
1563,-0.3003725,-2.5366251,9.468142,0.0035413634,-0.03980878,-0.017239437
1564,-0.30283323,-2.4906693,9.480255,0.07260274,-0.15275969,0.032806784
1565,-0.30283323,-2.4906693,9.480255,0.07260274,-0.15275969,0.032806784
1566,-0.30283323,-2.4906693,9.480255,0.07260274,-0.15275969,0.032806784
1567,-0.30283323,-2.4906693,9.480255,0.07260274,-0.15275969,0.032806784
1568,-0.30283323,-2.4906693,9.480255,0.07260274,-0.15275969,0.032806784
1569,-0.30283323,-2.4906693,9.480255,0.07260274,-0.15275969,0.032806784
1570,-0.2974758,-2.4420552,9.493064,-0.095250525,-0.11265992,-0.054236166
1571,-0.2974758,-2.4420552,9.493064,-0.095250525,-0.11265992,-0.054236166
1572,-0.2974758,-2.4420552,9.493064,-0.095250525,-0.11265992,-0.054236166
1573,-0.2974758,-2.4420552,9.493064,-0.095250525,-0.11265992,-0.054236166
1574,-0.2974758,-2.4420552,9.493064,-0.095250525,-0.11265992,-0.054236166
1575,-0.2974758,-2.4420552,9.493064,-0.095250525,-0.11265992,-0.054236166
1576,-0.2820469,-2.3992643,9.504439,-0.17372848,-0.053141057,0.055772834
1577,-0.2820469,-2.3992643,9.504439,-0.17372848,-0.053141057,0.055772834
1578,-0.2820469,-2.3992643,9.504439,-0.17372848,-0.053141057,0.055772834
1579,-0.2820469,-2.3992643,9.504439,-0.17372848,-0.053141057,0.055772834
1580,-0.2820469,-2.3992643,9.504439,-0.17372848,-0.053141057,0.055772834
1581,-0.2820469,-2.3992643,9.504439,-0.17372848,-0.053141057,0.055772834
1582,-0.26412672,-2.3564548,9.515658,-0.06549286,-0.073182896,-0.023134233
1583,-0.26412672,-2.3564548,9.515658,-0.06549286,-0.073182896,-0.023134233
1584,-0.26412672,-2.3564548,9.515658,-0.06549286,-0.073182896,-0.023134233
1585,-0.26412672,-2.3564548,9.515658,-0.06549286,-0.073182896,-0.023134233
1586,-0.26412672,-2.3564548,9.515658,-0.06549286,-0.073182896,-0.023134233
1587,-0.26412672,-2.3564548,9.515658,-0.06549286,-0.073182896,-0.023134233
1588,-0.23787709,-2.3197002,9.525376,-0.16532104,-0.01037444,-0.017750591
1589,-0.23787709,-2.3197002,9.525376,-0.16532104,-0.01037444,-0.017750591
1590,-0.23787709,-2.3197002,9.525376,-0.16532104,-0.01037444,-0.017750591
1591,-0.23787709,-2.3197002,9.525376,-0.16532104,-0.01037444,-0.017750591
1592,-0.23787709,-2.3197002,9.525376,-0.16532104,-0.01037444,-0.017750591
1593,-0.23787709,-2.3197002,9.525376,-0.16532104,-0.01037444,-0.017750591
1594,-0.20145942,-2.284205,9.534789,-0.1811333,-0.026280725,0.026651064
1595,-0.20145942,-2.284205,9.534789,-0.1811333,-0.026280725,0.026651064
1596,-0.20145942,-2.284205,9.534789,-0.1811333,-0.026280725,0.026651064
1597,-0.20145942,-2.284205,9.534789,-0.1811333,-0.026280725,0.026651064
1598,-0.20145942,-2.284205,9.534789,-0.1811333,-0.026280725,0.026651064
1599,-0.20145942,-2.284205,9.534789,-0.1811333,-0.026280725,0.026651064
1600,-0.15162255,-2.2520425,9.54336,-0.16092154,-0.012751796,0.003607144
1601,-0.15162255,-2.2520425,9.54336,-0.16092154,-0.012751796,0.003607144
1602,-0.15162255,-2.2520425,9.54336,-0.16092154,-0.012751796,0.003607144
1603,-0.15162255,-2.2520425,9.54336,-0.16092154,-0.012751796,0.003607144
1604,-0.15162255,-2.2520425,9.54336,-0.16092154,-0.012751796,0.003607144
1605,-0.15162255,-2.2520425,9.54336,-0.16092154,-0.012751796,0.003607144
1606,-0.09757724,-2.2240517,9.550626,-0.18079427,-0.010874731,0.016062558
1607,-0.09757724,-2.2240517,9.550626,-0.18079427,-0.010874731,0.016062558
1608,-0.09757724,-2.2240517,9.550626,-0.18079427,-0.010874731,0.016062558
1609,-0.09757724,-2.2240517,9.550626,-0.18079427,-0.010874731,0.016062558
1610,-0.09757724,-2.2240517,9.550626,-0.18079427,-0.010874731,0.016062558
1611,-0.09757724,-2.2240517,9.550626,-0.18079427,-0.010874731,0.016062558
1612,-0.044185434,-2.1968217,9.5573225,-0.1411837,0.014354256,0.019673882
1613,-0.044185434,-2.1968217,9.5573225,-0.1411837,0.014354256,0.019673882
1614,-0.044185434,-2.1968217,9.5573225,-0.1411837,0.014354256,0.019673882
1615,-0.044185434,-2.1968217,9.5573225,-0.1411837,0.014354256,0.019673882
1616,-0.044185434,-2.1968217,9.5573225,-0.1411837,0.014354256,0.019673882
1617,-0.044185434,-2.1968217,9.5573225,-0.1411837,0.014354256,0.019673882
1618,0.014762788,-2.1720881,9.563065,-0.16397344,-0.004601503,0.010008817
1619,0.014762788,-2.1720881,9.563065,-0.16397344,-0.004601503,0.010008817
1620,0.014762788,-2.1720881,9.563065,-0.16397344,-0.004601503,0.010008817
