,gravity.x,gravity.y,gravity.z,userAcceleration.x,userAcceleration.y,userAcceleration.z
0,0.377515,0.756513,-0.534011,-0.274594,-0.088727,0.3029469999999999
1,0.400426,0.7220340000000001,-0.5642010000000001,-0.029088,-0.200763,0.398429
2,0.4109649999999999,0.686349,-0.600024,-0.130096,-0.211359,0.5022
3,0.408026,0.654745,-0.636255,-0.4442359999999999,-0.291875,0.664927
4,0.393214,0.637303,-0.66274,-0.520487,-0.5942890000000001,0.5950979999999999
5,0.373447,0.634153,-0.677041,-0.560383,-0.71301,0.535272
6,0.361438,0.6459560000000001,-0.672385,-0.413333,-0.8163050000000001,0.332602
7,0.360649,0.66992,-0.64895,-0.061424,-0.711928,0.243997
8,0.373971,0.705146,-0.60242,-0.290201,-0.530235,0.8289219999999999
9,0.3845929999999999,0.751912,-0.535456,-0.300822,-0.577,0.761957
10,0.379722,0.792902,-0.476564,-0.4277109999999999,-0.164881,-0.03166
11,0.370674,0.8306879999999999,-0.415396,0.6127239999999999,3.750611,-0.7805270000000001
12,0.365525,0.858826,-0.358894,0.6178739999999999,3.722473,-0.8370280000000001
13,0.365651,0.865821,-0.341537,-0.371343,-0.4133979999999999,-0.289613
14,0.364054,0.8724040000000001,-0.3261449999999999,-0.657419,-0.547041,0.098819
15,0.343567,0.8899229999999999,-0.299988,-0.570175,-0.5631109999999999,0.273606
16,0.314982,0.911344,-0.265015,-0.457881,-0.183454,0.292008
17,0.283533,0.931476,-0.227938,-0.052424,0.8292510000000001,0.223284
18,0.258538,0.945914,-0.195957,0.266731,0.7474149999999999,0.233677
19,0.2411039999999999,0.955059,-0.1724099999999999,0.052337,0.063221,0.048142
20,0.228066,0.96245,-0.147205,-0.0695269999999999,0.009962,-0.046643
21,0.210169,0.970207,-0.120498,0.047201,-0.187935,0.007751
22,0.188776,0.977026,-0.098879,0.057974,-0.299688,0.131655
23,0.165233,0.982887,-0.0813779999999999,-0.005229,-0.339287,0.0871
24,0.142177,0.987736,-0.064463,-0.085048,-0.3653909999999999,0.016184
25,0.121998,0.991464,-0.045905,-0.117298,-0.167261,0.05268
26,0.104827,0.994122,-0.026899,-0.1090839999999999,-0.124646,0.000776
27,0.089182,0.995996,-0.005511,-0.067636,-0.073693,-0.095944
28,0.073694,0.997146,0.016135,-0.033075,-0.026,-0.168906
29,0.058057,0.997752,0.033341,0.197222,0.1803789999999999,-0.176728
30,0.044138,0.997918,0.046939,0.342398,0.2223889999999999,-0.168857
31,0.029618,0.997882,0.057847,0.4702149999999999,0.117353,-0.150605
32,0.0144979999999999,0.997738,0.065567,0.257734,0.268146,-0.272019
33,4.2e-05,0.997651,0.068423,0.159504,0.354537,-0.27312
34,-0.012386,0.997749,0.065823,-0.199284,0.577141,-0.352887
35,-0.0190539999999999,0.997945,0.061089,-0.148991,0.635783,-0.319023
36,-0.019725,0.998644,0.048073,-0.049519,0.736769,-0.324318
37,-0.01411,0.999666,0.021405,-0.364415,0.345564,-0.759518
38,0.001811,0.999908,-0.013093,-0.366664,0.235474,-0.8312219999999999
39,0.0295029999999999,0.998114,-0.053748,-0.051018,0.320825,-0.73678
40,0.069814,0.991875,-0.1063009999999999,0.387996,0.366676,-0.055823
41,0.118072,0.976701,-0.179181,0.267808,0.482833,0.280683
42,0.169164,0.954583,-0.2452489999999999,0.271189,0.3844059999999999,0.42248
43,0.214536,0.932829,-0.289477,-0.68266,0.18387,0.492983
44,0.239515,0.913171,-0.329765,-0.740309,0.155067,0.795387
45,0.260158,0.8875,-0.380334,-0.2398489999999999,0.317761,-0.1061309999999999
46,0.300106,0.8484,-0.436059,-0.797482,0.211796,0.433175
47,0.317055,0.80506,-0.501347,-0.351174,0.033197,0.448171
48,0.3483739999999999,0.7592760000000001,-0.549665,-0.357728,0.084032,0.151349
49,0.378233,0.711741,-0.591913,-0.1308109999999999,-0.043452,0.312403
50,0.391696,0.663237,-0.63772,2.7e-05,0.0143139999999999,0.4312069999999999
51,0.392681,0.614474,-0.684266,-0.327389,-0.113101,0.555497
52,0.378323,0.573785,-0.726388,-0.493832,-0.3322989999999999,0.704431
53,0.358411,0.546292,-0.757037,-0.366178,-0.6045189999999999,0.742861
54,0.341539,0.533587,-0.773714,-0.349306,-0.5918140000000001,0.7595390000000001
55,0.332433,0.534378,-0.777127,-0.167867,-0.700775,0.659482
56,0.329511,0.5465869999999999,-0.769846,-0.114575,-0.612947,0.333811
57,0.331338,0.568809,-0.7527739999999999,-0.071176,-0.577964,0.208524
58,0.335059,0.594122,-0.731267,0.1290369999999999,-0.418387,-0.005473
59,0.345112,0.6170180000000001,-0.707237,0.292828,-0.094069,-0.483956
60,0.363734,0.628838,-0.68721,0.2409869999999999,0.077705,-0.89
61,0.386522,0.637126,-0.666834,0.273466,0.644018,-0.757039
62,0.409975,0.652381,-0.63743,0.530821,1.045175,0.019494
63,0.42567,0.677725,-0.5995739999999999,0.529866,1.001291,0.462642
64,0.420855,0.7016600000000001,-0.5749350000000001,-0.507677,-0.399902,0.0129389999999999
65,0.42743,0.727718,-0.5364,-0.424073,-0.326839,0.087837
66,0.432075,0.75051,-0.500041,-0.589271,-0.008185,0.059047
67,0.4374149999999999,0.771658,-0.461743,-0.7032079999999999,0.388712,0.192364
68,0.443614,0.794711,-0.414289,-0.393717,0.5328649999999999,0.136198
69,0.446412,0.817351,-0.364207,-0.34163,0.462205,0.152675
70,0.4464439999999999,0.8395229999999999,-0.309648,-0.232577,0.352448,0.170838
71,0.4404119999999999,0.860974,-0.2544679999999999,-0.13873,0.304965,0.145261
72,0.431355,0.879116,-0.20268,-0.1068,0.262394,0.102308
73,0.4210529999999999,0.8936370000000001,-0.155303,-0.1149309999999999,0.086298,0.118834
74,0.405994,0.90694,-0.11234,-0.169467,-0.062198,0.054036
75,0.383767,0.920482,-0.073657,-0.203515,-0.0581929999999999,0.043841
76,0.357807,0.933186,-0.0335699999999999,-0.203465,-0.01949,0.043992
77,0.330501,0.943759,0.008766,-0.044093,-0.041477,0.013359
78,0.305001,0.951011,0.050408,-0.061502,-0.066032,-0.068016
79,0.279992,0.956036,0.087116,-0.117196,0.008457,-0.043903
80,0.257133,0.958848,0.120338,-0.121253,-0.0083319999999999,-0.061546
81,0.2330449999999999,0.961006,0.148811,-0.173001,-0.045952,-0.069602
82,0.206948,0.96248,0.175474,-0.20057,-0.054888,-0.104567
83,0.179395,0.963151,0.2003609999999999,-0.2291389999999999,-0.002793,-0.144681
84,0.149151,0.963953,0.220306,-0.158001,0.020849,-0.0606679999999999
85,0.121171,0.963815,0.237411,0.002867,0.009802,-0.142044
86,0.0896049999999999,0.96432,0.249086,0.032831,0.011541,-0.123231
87,0.054629,0.963912,0.260527,0.188199,-0.025161,-0.0303029999999999
88,0.022624,0.96197,0.27219,0.40453,-0.091898,-0.121219
89,-0.00461,0.959007,0.2833179999999999,0.405962,-0.123695,-0.176521
90,-0.029462,0.954974,0.295198,0.3146489999999999,-0.169802,-0.164384
91,-0.0532669999999999,0.949284,0.309849,0.20764,-0.071095,-0.218189
92,-0.077711,0.942341,0.325482,0.227934,-0.006,-0.258511
93,-0.103568,0.934574,0.340337,0.304816,0.16615,-0.294698
94,-0.1285849999999999,0.925815,0.355411,0.517181,0.386792,-0.430637
95,-0.148449,0.917437,0.369129,0.576306,0.33708,-0.563175
96,-0.162109,0.91175,0.377381,0.589965,0.342767,-0.571427
97,-0.169896,0.909261,0.379952,0.465322,0.304255,-0.4576189999999999
98,-0.178654,0.909963,0.374211,0.141301,0.495417,-0.504552
99,-0.190031,0.914452,0.357282,0.152677,0.490928,-0.487623
100,-0.198039,0.925272,0.32348,0.551234,0.3165949999999999,-0.326241
101,-0.187502,0.942254,0.277466,0.53557,0.130027,-0.393493
102,-0.149926,0.96255,0.22585,0.353631,-0.03921,-0.455388
103,-0.090931,0.981633,0.167677,-0.133571,0.474055,-0.562528
104,-0.020268,0.994013,0.1073109999999999,-0.974147,1.154562,0.347019
105,0.043219,0.997214,0.060701,-1.037635,1.15136,0.393629
106,0.096993,0.994947,0.025756,-0.5574720000000001,0.8683190000000001,-0.329909
107,0.157013,0.98754,-0.010123,-0.142105,0.709589,-0.598123
108,0.221384,0.973654,-0.054574,-0.209177,0.575388,-0.214377
109,0.283118,0.954462,-0.094011,-0.4290989999999999,0.086569,0.274598
110,0.335438,0.933123,-0.129432,-0.3981969999999999,-0.211627,0.259376
111,0.370003,0.911716,-0.1785,-0.380807,-0.413837,0.325259
112,0.391088,0.8932610000000001,-0.221644,-0.15061,-0.343685,0.1091859999999999
113,0.407009,0.876152,-0.2582489999999999,-0.171414,-0.532997,0.33053
114,0.414786,0.8587299999999999,-0.300879,-0.230521,-0.544505,0.431281
115,0.416489,0.843311,-0.339642,-0.327026,-0.527957,0.4534729999999999
116,0.411975,0.8323229999999999,-0.370821,-0.476535,-0.695894,0.498507
117,0.396416,0.8299790000000001,-0.392406,-0.48243,-0.767509,0.507885
118,0.37306,0.836873,-0.400579,-0.458051,-0.96613,0.382497
119,0.34464,0.8532120000000001,-0.391466,-0.426839,-0.825624,0.0677659999999999
120,0.310318,0.8788530000000001,-0.362371,-0.382981,-0.726174,-0.233836
121,0.270764,0.903686,-0.33171,0.5331,0.23906,-1.117219
122,0.260515,0.91307,-0.313731,1.3998549999999998,2.809235,-1.156606
123,0.276983,0.912266,-0.301734,0.965784,2.673885,-1.004326
124,0.281342,0.907421,-0.312131,-0.016937,-0.854504,-0.464434
125,0.285829,0.898278,-0.333752,-0.157487,-1.072595,0.075284
126,0.288412,0.902364,-0.320235,-0.099462,-0.6889390000000001,1.107313
127,0.275458,0.92621,-0.257392,-0.138694,2.313384,-2.084482
128,0.263183,0.922515,-0.2822989999999999,0.188859,2.657837,-1.643254
129,0.25598,0.91295,-0.317789,-0.09648,0.671477,0.158792
130,0.241311,0.918217,-0.3140699999999999,-0.51339,-0.6969029999999999,0.900328
131,0.225185,0.931634,-0.285205,-0.4446819999999999,-0.586648,1.134433
132,0.20597,0.944287,-0.256691,-0.639167,-0.115155,0.592278
133,0.179491,0.953508,-0.2420719999999999,0.209165,0.906966,0.2103489999999999
134,0.148176,0.962698,-0.226381,0.412325,0.8642059999999999,0.298677
135,0.123491,0.969385,-0.212213,0.158263,0.119543,0.296014
136,0.110122,0.975546,-0.190201,-0.417785,-0.133215,0.24147
137,0.100384,0.981621,-0.1622849999999999,-0.476025,-0.108955,0.143623
138,0.087671,0.986864,-0.13567,-0.322306,-0.026338,0.087132
139,0.072561,0.991204,-0.110639,0.0200599999999999,-0.03486,0.014799
140,0.056551,0.994665,-0.086223,0.043364,-0.060614,-0.033498
141,0.038747,0.997355,-0.0614279999999999,0.055018,-0.1108339999999999,-0.0985299999999999
142,0.018473,0.9991,-0.038055,0.1033839999999999,-0.167344,-0.072541
143,-0.0037619999999999,0.999814,-0.018654,0.23388,-0.094144,-0.029899
144,-0.02333,0.99972,-0.002251,0.253448,-0.09405,-0.0463019999999999
145,-0.03952,0.999136,0.012458,0.150542,-0.084478,-0.193305
146,-0.054037,0.998235,0.024435,0.1187039999999999,-0.079472,-0.150976
147,-0.069569,0.996948,0.035273,0.117176,-0.069595,-0.1060589999999999
148,-0.086104,0.995216,0.046048,0.185195,-0.097496,-0.0444
149,-0.102047,0.993107,0.057564,0.1686359999999999,0.035412,-0.059548
150,-0.116623,0.990533,0.072337,0.170715,0.0805879999999999,-0.083399
151,-0.1301119999999999,0.98748,0.089126,0.154632,0.144951,-0.125426
152,-0.14595,0.984082,0.101341,0.2217559999999999,0.203006,-0.123955
153,-0.164396,0.980533,0.107317,0.333891,0.188321,-0.095598
154,-0.182901,0.976989,0.109672,0.643122,0.316224,-0.108421
155,-0.2001089999999999,0.974352,0.102875,0.476613,0.4464399999999999,-0.3723599999999999
156,-0.214454,0.972964,0.085671,0.490958,0.4478279999999999,-0.3551559999999999
157,-0.225491,0.972728,0.054255,0.608776,0.465902,-0.276239
158,-0.225578,0.974208,0.004664,0.6818770000000001,0.04044,-0.208246
159,-0.207613,0.976393,-0.0595179999999999,0.635912,0.0147409999999999,-0.102592
160,-0.1722769999999999,0.977118,-0.124705,0.5443479999999999,0.079523,0.008662
161,-0.121798,0.975331,-0.184082,0.411822,0.327663,0.293823
162,-0.059425,0.972536,-0.225019,0.238807,0.464277,0.422254
163,0.001385,0.969037,-0.2468969999999999,0.118656,0.656299,0.330164
164,0.052764,0.963722,-0.261625,0.1578369999999999,0.435662,0.183713
165,0.09988,0.957907,-0.269127,0.1718329999999999,0.40896,0.129082
166,0.145234,0.950043,-0.276255,0.349456,0.33908,0.405573
167,0.195461,0.940727,-0.2771639999999999,0.287755,0.3119429999999999,0.421191
168,0.240738,0.927854,-0.2848219999999999,0.044037,0.280764,0.5079359999999999
169,0.275005,0.914399,-0.297051,-0.268444,0.022323,0.475045
170,0.300159,0.902855,-0.307815,-0.371738,-0.019905,0.551986
171,0.314668,0.8920600000000001,-0.324354,-0.401841,-0.111528,0.711591
172,0.319809,0.883703,-0.341736,-0.506119,-0.3900659999999999,0.538895
173,0.318113,0.8792200000000001,-0.35464,-0.492399,-0.327767,0.517497
174,0.309053,0.8792469999999999,-0.3624969999999999,-0.520708,-0.329366,0.518808
175,0.294937,0.883192,-0.364659,-0.695434,-0.25395,0.555852
176,0.275823,0.889856,-0.363415,-0.694341,-0.2881869999999999,0.543362
177,0.253304,0.897761,-0.360355,-0.7464529999999999,-0.303355,0.380786
178,0.2302699999999999,0.907136,-0.3522389999999999,-0.596497,-0.104921,-0.058711
179,0.209007,0.918273,-0.336278,-0.324059,0.042664,-0.361292
180,0.190606,0.925049,-0.328553,0.388435,0.619278,-0.955947
181,0.180343,0.919814,-0.348442,0.814515,0.627077,-0.439201
182,0.18405,0.912448,-0.365456,0.533342,0.3860139999999999,-0.202491
183,0.199103,0.908722,-0.366846,0.188409,-0.053757,-0.010519
184,0.212934,0.906321,-0.365014,0.143023,-0.725046,-0.13285
185,0.218457,0.909952,-0.3525,0.719607,-0.262034,1.585975
186,0.228152,0.927735,-0.295377,0.709912,-0.279816,1.528851
187,0.231185,0.937497,-0.260088,0.969957,1.751239,0.008989
188,0.221188,0.923021,-0.314804,-1.024181,1.522002,-1.893982
189,0.170378,0.91735,-0.359768,-1.6182379999999998,-0.091514,-0.658878
190,0.155437,0.930045,-0.332939,-0.799724,-1.064109,0.978478
191,0.15019,0.947245,-0.28313,-0.543669,-0.754175,0.7883939999999999
192,0.128451,0.957788,-0.257165,-0.44768,-0.267358,0.790536
193,0.077394,0.96507,-0.250285,0.455687,1.508823,0.155192
194,0.030836,0.975316,-0.21863,0.963899,0.600184,0.0279399999999999
195,0.017421,0.982161,-0.187211,0.8195389999999999,-0.08145,-0.116866
196,-0.001207,0.986276,-0.165076,-0.06816,-0.217553,0.091193
197,-0.011447,0.990497,-0.13702,-0.334928,-0.255237,0.354336
198,-0.017345,0.995076,-0.097538,-0.32903,-0.259816,0.314854
199,-0.029247,0.998018,-0.055625,-0.299504,-0.3287219999999999,0.045402
200,-0.049841,0.998633,-0.015399,0.003943,-0.0548919999999999,-0.049206
201,-0.0720809999999999,0.997154,0.0218669999999999,0.0261829999999999,-0.053413,-0.086472
202,-0.092682,0.994404,0.050586,-0.0147699999999999,-0.0264329999999999,-0.144366
203,-0.112268,0.991208,0.069947,0.039316,-0.066327,0.045333
204,-0.1305859999999999,0.987504,0.088161,0.0801409999999999,0.011626,0.013402
205,-0.148167,0.983057,0.107864,0.2342119999999999,0.289358,-0.224059
206,-0.166287,0.978226,0.124145,0.270428,0.255279,-0.363419
207,-0.187677,0.97365,0.1295089999999999,0.266748,0.308195,-0.33213
208,-0.20765,0.969783,0.1280329999999999,0.877343,0.444127,-0.188351
209,-0.220234,0.967869,0.1213109999999999,1.2122540000000002,0.336254,-0.226459
210,-0.224935,0.968225,0.109246,1.190816,0.298941,-0.247048
211,-0.222276,0.971718,0.079673,0.458543,0.4926069999999999,-0.251487
212,-0.199146,0.979212,0.038408,0.615925,0.251241,-0.276918
213,-0.1555349999999999,0.987798,-0.00743,0.38016,0.36259,-0.273438
214,-0.100685,0.993146,-0.059292,-0.2390679999999999,0.546115,0.32455
215,-0.045214,0.993819,-0.101357,-0.442518,0.891481,0.635704
216,0.006759,0.99075,-0.135507,-0.506576,1.146884,0.653558
217,0.063929,0.982742,-0.173565,-0.187113,0.788712,-0.305363
218,0.120423,0.969842,-0.211894,-0.186784,0.36135,0.03155
219,0.167839,0.955409,-0.242936,-0.241417,0.267354,0.1739359999999999
220,0.211256,0.940497,-0.2661409999999999,-0.180647,0.259714,0.411695
221,0.2560449999999999,0.925103,-0.280391,-0.311297,-0.140451,0.370693
222,0.294523,0.902335,-0.31471,-0.279677,-0.165183,0.402387
223,0.3235389999999999,0.882443,-0.341485,-0.18502,-0.400464,0.33854
224,0.34636,0.8660709999999999,-0.360487,-0.234727,-0.499662,0.447843
225,0.356525,0.8503209999999999,-0.387092,-0.390521,-0.519617,0.566856
226,0.357141,0.8365100000000001,-0.415568,-0.5241020000000001,-0.440209,0.5953470000000001
227,0.3499739999999999,0.827889,-0.438308,-0.552,-0.45205,0.707046
228,0.338568,0.824375,-0.453622,-0.5405949999999999,-0.448536,0.722359
229,0.32232,0.829003,-0.457013,-0.5948869999999999,-0.720513,0.5761689999999999
230,0.299743,0.8432569999999999,-0.446169,-0.5208119999999999,-0.572902,0.273333
231,0.273499,0.864186,-0.422347,-0.494568,-0.59383,0.249511
232,0.250352,0.8844559999999999,-0.3937719999999999,0.638686,1.412419,-1.342129
233,0.23465,0.888919,-0.393392,1.484908,2.154752,-1.585658
234,0.2490679999999999,0.882065,-0.399902,1.291322,2.055358,-1.319764
235,0.26669,0.878674,-0.395985,-0.229932,-0.555203,-0.131465
236,0.276084,0.875604,-0.396346,-0.4614939999999999,-0.746362,0.26947
237,0.275984,0.881224,-0.38376,-0.379591,-0.53041,1.263383
238,0.276131,0.906693,-0.318832,0.039161,1.562454,-0.4919739999999999
239,0.275584,0.907925,-0.315786,0.717703,2.685856,-1.046518
240,0.285233,0.8943760000000001,-0.344572,-0.668122,-0.018353,0.4806189999999999
241,0.272945,0.8981100000000001,-0.344811,-0.995174,-0.746514,0.586327
242,0.258923,0.91564,-0.307501,-0.8861959999999999,-0.587271,1.0781459999999998
243,0.239498,0.935042,-0.261401,-0.821011,-0.469314,0.940432
244,0.211497,0.949475,-0.231863,-0.425135,0.412815,0.705313
245,0.172293,0.963287,-0.20588,0.491433,0.883667,0.111535
246,0.1459609999999999,0.974324,-0.1714089999999999,0.434041,0.364207,0.110161
247,0.127064,0.982914,-0.133144,-0.2041359999999999,-0.091374,0.31187
248,0.1144319999999999,0.988477,-0.099052,-0.287451,-0.132367,0.259575
249,0.103121,0.99231,-0.068413,-0.261385,-0.240616,0.209115
250,0.089556,0.995435,-0.032898,-0.073412,-0.31442,0.252671
251,0.073141,0.997296,0.0065829999999999,0.073679,-0.0390589999999999,0.0886769999999999
252,0.056774,0.997584,0.039941,0.144276,0.0130669999999999,-0.089364
253,0.041682,0.997063,0.064178,0.013616,-0.165734,-0.25679
254,0.02908,0.996522,0.078032,0.001895,-0.140702,-0.080763
255,0.0143069999999999,0.995935,0.088877,0.084844,-0.100839,0.022359
256,-0.004423,0.994852,0.101187,0.180326,-0.075068,-0.061987
257,-0.026363,0.992791,0.116879,0.263042,-0.011666,-0.110669
258,-0.051488,0.989624,0.134097,0.306005,0.139008,-0.163943
259,-0.078069,0.985182,0.152679,0.345907,0.253054,-0.240417
260,-0.102657,0.98028,0.168822,0.406306,0.2395679999999999,-0.308562
261,-0.126115,0.976655,0.173865,0.6336069999999999,0.305205,-0.308478
262,-0.139892,0.975428,0.170177,0.949584,0.5474760000000001,-0.3932
263,-0.144266,0.977418,0.15437,0.814615,0.49861,-0.372998
264,-0.140066,0.982667,0.121395,0.629217,0.547484,-0.341763
265,-0.112288,0.990688,0.076929,0.585921,0.251652,-0.550958
266,-0.0608519999999999,0.997968,0.018657,0.177643,0.287417,-0.505703
267,0.004971,0.998297,-0.0580539999999999,-0.408093,0.707666,-0.196523
268,0.068185,0.990148,-0.122269,-0.841409,1.216486,0.773133
269,0.125796,0.97628,-0.1762,-0.627947,1.306023,0.2265239999999999
270,0.186065,0.957801,-0.219069,-0.365951,1.1048209999999998,-0.2886829999999999
271,0.2439739999999999,0.934972,-0.257483,0.109023,0.415889,0.127997
272,0.3045719999999999,0.907061,-0.290636,-0.061866,0.223157,0.5206770000000001
273,0.376938,0.86906,-0.320385,-0.048081,0.553197,0.201244
274,0.429906,0.8370219999999999,-0.33848,-0.057439,-0.01761,0.385919
275,0.463651,0.804666,-0.370855,-0.110013,0.085745,0.309225
276,0.488309,0.7659189999999999,-0.41823,-0.212231,0.034282,0.487551
277,0.4978899999999999,0.726547,-0.473529,-0.3886679999999999,-0.054474,0.550556
278,0.4927729999999999,0.6911729999999999,-0.5286310000000001,-0.6964319999999999,-0.388027,0.719915
279,0.4776,0.6657390000000001,-0.573311,-0.6181180000000001,-0.54994,0.7881090000000001
280,0.456157,0.653516,-0.604015,-0.718684,-1.168485,0.68008
281,0.432709,0.6580199999999999,-0.616254,-0.581711,-1.036011,0.4496739999999999
282,0.424997,0.674147,-0.604069,-0.232965,-0.848525,0.153965
283,0.443785,0.6925020000000001,-0.568764,0.545779,-0.171323,-0.4238659999999999
284,0.4590579999999999,0.700627,-0.546245,0.256396,0.97668,-0.373311
285,0.458802,0.700863,-0.546158,0.055633,0.8714790000000001,0.026871
286,0.450899,0.718068,-0.530155,-0.542604,-0.23325,1.294239
287,0.4498689999999999,0.7533340000000001,-0.479689,-1.191782,0.276864,0.702284
288,0.4415689999999999,0.788293,-0.428491,-0.530467,1.058493,1.04606
289,0.444108,0.81139,-0.38001,0.108718,2.203792,0.210576
290,0.439393,0.823341,-0.359218,-0.473268,0.167657,0.527111
291,0.417406,0.847255,-0.328519,-0.558855,0.144322,0.3281219999999999
292,0.384267,0.873337,-0.299356,-0.658269,0.179534,0.4672479999999999
293,0.350163,0.895709,-0.274016,-0.269902,0.3498969999999999,0.4430989999999999
294,0.321642,0.912835,-0.251537,-0.149324,0.462592,0.36494
295,0.296245,0.927469,-0.228105,0.0040479999999999,0.276144,0.260942
296,0.271852,0.941916,-0.197189,0.070173,0.057672,0.129394
297,0.2481809999999999,0.954251,-0.166741,0.097248,-0.071057,0.091637
298,0.22865,0.963346,-0.140263,-0.0606809999999999,-0.253218,0.163075
299,0.208944,0.970502,-0.120248,-0.021963,-0.232907,0.1486299999999999
300,0.1910069999999999,0.976589,-0.098897,-0.016599,-0.152294,0.055425
301,0.176082,0.981542,-0.074569,-0.058574,-0.16512,-0.038529
302,0.163368,0.985144,-0.052828,-0.080177,-0.218542,-0.0581799999999999
303,0.152668,0.987831,-0.029516,-0.156849,-0.18711,-0.074518
304,0.14132,0.989925,-0.008019,-0.012872,-0.034878,-0.061179
305,0.1240349999999999,0.99224,0.00787,0.03133,0.060082,-0.086788
306,0.1075319999999999,0.993995,0.019933,0.220807,0.246086,-0.121541
307,0.092333,0.995279,0.02968,0.366057,0.243567,-0.1459369999999999
308,0.078462,0.996267,0.03582,0.367064,0.253321,-0.1711349999999999
309,0.0636149999999999,0.997262,0.037529,0.263945,0.298926,-0.197899
310,0.049466,0.998088,0.036887,-0.0111209999999999,0.5014390000000001,-0.22637
311,0.03937,0.998602,0.0351029999999999,-0.0518669999999999,0.619257,-0.168618
312,0.032934,0.999115,0.02592,0.167735,0.67128,0.028524
313,0.033096,0.999433,0.005122,-0.388397,0.63872,-0.372218
314,0.044392,0.998781,-0.02129,-0.491704,0.311857,-0.632534
315,0.061474,0.996825,-0.050496,-0.508786,0.313814,-0.603328
316,0.08886,0.991793,-0.091864,0.053124,0.163556,-0.511621
317,0.132941,0.980127,-0.1472,0.402962,0.415915,0.016325
318,0.189187,0.961005,-0.201663,0.346717,0.435037,0.070788
319,0.239193,0.939593,-0.244831,-0.165646,0.171689,0.266651
320,0.28188,0.917365,-0.281028,-0.4527779999999999,0.180718,0.227653
321,0.311168,0.895508,-0.31817,-0.6385460000000001,0.148117,0.49891
322,0.332579,0.8715790000000001,-0.360186,-0.328963,0.088687,0.2282429999999999
323,0.365513,0.839435,-0.402172,-0.505817,0.1571779999999999,-0.177586
324,0.394919,0.8029310000000001,-0.4464689999999999,-0.4744939999999999,-0.000608,0.2888
325,0.418465,0.768811,-0.483538,-0.229744,-0.088666,0.3659699999999999
326,0.4443729999999999,0.7350760000000001,-0.512046,-0.278098,-0.176924,0.336402
327,0.465001,0.701592,-0.539941,-0.3477369999999999,-0.1819849999999999,0.342553
328,0.471929,0.670638,-0.572296,-0.228688,-0.197356,0.39859
329,0.4702409999999999,0.643841,-0.603603,-0.370098,-0.294048,0.466121
330,0.4582529999999999,0.627492,-0.629487,-0.417527,-0.367559,0.5255890000000001
331,0.440665,0.6242979999999999,-0.6450279999999999,-0.5133270000000001,-0.580811,0.570062
332,0.4288369999999999,0.633497,-0.644031,-0.621464,-0.624189,0.219516
333,0.4293729999999999,0.654932,-0.62185,-0.515432,-0.661356,0.1363609999999999
334,0.441976,0.687357,-0.576361,-0.054113,-0.460734,0.269125
335,0.460001,0.726647,-0.510271,-0.100351,-0.357873,0.356584
336,0.4667729999999999,0.761037,-0.4504869999999999,-0.056953,-0.1108599999999999,-0.409789
337,0.467513,0.7945399999999999,-0.387466,1.4218,2.951996,0.325744
338,0.469496,0.8095180000000001,-0.352485,0.686983,1.253822,-0.765862
339,0.4516,0.8185100000000001,-0.355092,-0.480989,-0.06204,0.117818
340,0.434576,0.8348639999999999,-0.337841,-0.885335,-0.952998,0.01495
341,0.41362,0.856798,-0.307905,-0.639817,-0.271517,0.231154
342,0.384368,0.881769,-0.273378,-0.5712729999999999,0.04621,0.422991
343,0.353276,0.904842,-0.237584,0.032878,1.082371,0.379247
344,0.3235119999999999,0.922328,-0.21128,0.561299,0.592396,0.216865
345,0.304715,0.933658,-0.188204,0.2011599999999999,0.121045,0.11986
346,0.28738,0.943817,-0.163128,-0.256298,-0.108322,0.1016799999999999
347,0.266701,0.953747,-0.138653,-0.143989,-0.1985589999999999,0.115399
348,0.24513,0.96276,-0.113979,-0.009809,-0.17115,0.077999
349,0.22113,0.970711,-0.093856,0.007111,-0.134773,0.024779
350,0.197226,0.977532,-0.074299,0.02038,-0.148995,0.0289959999999999
351,0.176307,0.98274,-0.0559039999999999,-0.086982,-0.2021609999999999,0.042827
352,0.158418,0.986696,-0.0363529999999999,-0.189775,-0.225557,-0.059914
353,0.141209,0.989826,-0.017052,-0.177083,-0.2141,-0.068381
354,0.122292,0.992486,0.001334,-0.088753,-0.156076,-0.0311649999999999
355,0.10388,0.994384,0.0198889999999999,0.098437,0.04564,-0.0067819999999999
356,0.086295,0.995615,0.035913,0.156656,0.0842649999999999,-0.057046
357,0.071845,0.996173,0.049628,0.312569,0.1970029999999999,-0.101385
358,0.060085,0.996358,0.0603789999999999,0.3781469999999999,0.2406559999999999,-0.181915
359,0.048307,0.99665,0.065876,0.314486,0.2373579999999999,-0.301243
360,0.035904,0.997115,0.06677,0.326889,0.236894,-0.302137
361,0.024156,0.997561,0.065369,0.0411819999999999,0.285001,-0.301926
362,0.0154449999999999,0.997854,0.063515,-0.079639,0.6405430000000001,-0.2953119999999999
363,0.011623,0.998359,0.0559389999999999,0.066426,0.799874,-0.213928
364,0.0144699999999999,0.999301,0.034267,-0.001668,0.717252,-0.188854
365,0.026169,0.99964,0.004492,-0.383636,0.293084,-0.648917
366,0.045069,0.998504,-0.030754,-0.289775,0.158479,-0.5700609999999999
367,0.071636,0.994584,-0.075219,0.163777,0.251769,-0.439246
368,0.108607,0.985152,-0.132919,0.507879,0.4591989999999999,0.007706
369,0.152881,0.968572,-0.196171,0.400448,0.399653,0.259785
370,0.198176,0.948076,-0.248734,0.175939,0.24916,0.387803
371,0.238904,0.928838,-0.283152,-0.568738,0.100474,0.487741
372,0.268991,0.910295,-0.31464,-0.682275,0.084182,0.637181
373,0.296317,0.8877780000000001,-0.352191,-0.4120399999999999,0.0542389999999999,0.149172
374,0.334459,0.856592,-0.392911,-0.5063489999999999,0.0674039999999999,-0.1504849999999999
375,0.367673,0.8217190000000001,-0.4354159999999999,-0.508374,-0.010882,0.308173
376,0.39479,0.788845,-0.471017,-0.226379,-0.1175349999999999,0.3618099999999999
377,0.423021,0.754731,-0.5014270000000001,-0.221025,-0.048676,0.323845
378,0.4433539999999999,0.721075,-0.532429,-0.2570449999999999,-0.104742,0.326481
379,0.45155,0.689805,-0.565921,-0.223568,-0.196274,0.426349
380,0.455661,0.662543,-0.594478,-0.393848,-0.223898,0.480114
381,0.450866,0.6455850000000001,-0.616388,-0.4501189999999999,-0.249223,0.545099
382,0.4375,0.6421020000000001,-0.629518,-0.519379,-0.570417,0.492631
383,0.4270239999999999,0.652035,-0.626495,-0.465476,-0.668896,0.250823
384,0.428426,0.675383,-0.6002529999999999,-0.3461349999999999,-0.712493,0.148944
385,0.44143,0.709379,-0.5494680000000001,-0.146188,-0.4473859999999999,0.659285
386,0.4529829999999999,0.750995,-0.4804229999999999,-0.271861,-0.534137,0.4543149999999999
387,0.451418,0.7883600000000001,-0.4179739999999999,-0.4233729999999999,0.412446,0.072271
388,0.431241,0.826784,-0.36118,0.849094,3.195433,-0.274226
389,0.428249,0.845872,-0.317953,1.189961,1.464797,-0.410441
390,0.4189199999999999,0.854513,-0.30709,-0.129766,-0.019781,0.210898
391,0.405411,0.866318,-0.291761,-0.721146,-0.738205,-0.062472
392,0.381019,0.884832,-0.2681179999999999,-0.591575,-0.349477,0.337362
393,0.345328,0.908422,-0.2356,-0.531409,-0.141241,0.438527
394,0.307977,0.930145,-0.199925,0.264625,0.941971,0.287373
395,0.276353,0.945526,-0.172044,0.444656,0.440217,0.244981
396,0.258032,0.954272,-0.150908,-0.075369,0.045728,-0.02762
397,0.240958,0.962141,-0.12733,-0.254798,-0.154539,0.084071
398,0.222098,0.96975,-0.101222,-0.202002,-0.201576,0.0825149999999999
399,0.201962,0.976228,-0.078593,-0.0317649999999999,-0.2161269999999999,0.044124
400,0.181038,0.981696,-0.059029,0.157738,-0.189597,-0.008216
401,0.158665,0.986373,-0.043352,0.137996,-0.220855,0.042741
402,0.139505,0.989823,-0.027847,0.157156,-0.224304,0.027237
403,0.1231119999999999,0.992309,-0.012367,-0.038471,-0.212279,0.008842
404,0.10745,0.994198,0.003123,-0.139051,-0.16084,-0.007212
405,0.093314,0.995449,0.018953,-0.124915,-0.16209,-0.023042
406,0.078646,0.996349,0.033013,0.021497,-0.029552,-0.074196
407,0.063489,0.997016,0.043736,0.163683,0.1481859999999999,-0.144123
408,0.050432,0.997357,0.05217,0.255156,0.184772,-0.126236
409,0.040342,0.997438,0.05895,0.300295,0.294325,-0.147268
410,0.031504,0.997599,0.061551,0.326421,0.322729,-0.319364
411,0.021185,0.997933,0.060542,0.292978,0.292334,-0.339549
412,0.010878,0.998243,0.058112,0.075288,0.333132,-0.289512
413,0.003954,0.998447,0.055442,-0.03081,0.5083439999999999,-0.1916119999999999
414,0.001447,0.998981,0.044939,0.05791,0.64822,-0.133623
415,0.006787,0.99972,0.022337,-0.068021,0.671148,-0.180693
416,0.019896,0.999768,-0.007306,-0.300627,0.251239,-0.658846
417,0.038229,0.99844,-0.040525,-0.15116,0.152347,-0.630129
418,0.065257,0.994463,-0.082297,0.23145,0.322981,-0.5092399999999999
419,0.104827,0.984562,-0.140132,0.547227,0.307293,0.187068
420,0.153572,0.966623,-0.2050489999999999,0.399361,0.11962,0.457582
421,0.2023,0.945533,-0.255013,0.234727,0.162621,0.44442
422,0.242681,0.927754,-0.283493,-0.546072,0.1988329999999999,0.39621
423,0.272717,0.910966,-0.3094449999999999,-0.476804,0.110946,0.357144
424,0.3049489999999999,0.8877370000000001,-0.3448469999999999,-0.287142,0.210346,-0.313189
425,0.343157,0.8547520000000001,-0.389402,-0.62253,0.085419,0.067869
426,0.371078,0.821715,-0.432525,-0.544768,-0.028609,0.4323109999999999
427,0.397792,0.789662,-0.467105,-0.205119,-0.090154,0.29108
428,0.424188,0.7558189999999999,-0.498793,-0.299798,-0.066748,0.291884
429,0.441871,0.722487,-0.531748,-0.3320079999999999,-0.097609,0.34112
430,0.450918,0.692826,-0.562724,-0.168204,-0.097077,0.378261
431,0.456963,0.669497,-0.5856210000000001,-0.334542,-0.135958,0.4167369999999999
432,0.453067,0.655157,-0.604561,-0.541064,-0.3300079999999999,0.5013350000000001
433,0.438606,0.653943,-0.616424,-0.565681,-0.629437,0.337188
434,0.4302189999999999,0.666948,-0.608347,-0.4410229999999999,-0.678636,0.193445
435,0.434777,0.693368,-0.574633,-0.156182,-0.691736,0.18413
436,0.451789,0.7284619999999999,-0.514997,-0.434256,-0.566246,0.187193
437,0.456495,0.767975,-0.449242,-0.376127,-0.412842,-0.418968
438,0.448337,0.802454,-0.393766,0.216809,1.617345,0.763944
439,0.443795,0.828834,-0.340692,2.006447,3.669641,-0.903327
440,0.43872,0.83595,-0.3296989999999999,-0.296386,-0.0727049999999999,0.276538
441,0.425091,0.8474700000000001,-0.3179329999999999,-0.715526,-0.760754,0.229051
442,0.401953,0.865617,-0.298545,-0.647544,-0.724321,0.1115029999999999
443,0.368904,0.888476,-0.272963,-0.499367,-0.128909,0.442061
444,0.336717,0.911191,-0.237364,-0.4955449999999999,0.250736,0.42198
445,0.3104099999999999,0.928505,-0.203745,0.599014,0.366539,0.188868
446,0.294025,0.938487,-0.181048,0.264416,0.112416,0.115481
447,0.279508,0.946597,-0.1606759999999999,0.0133689999999999,0.087049,0.0324259999999999
448,0.260363,0.955726,-0.13706,-0.0487839999999999,-0.217979,0.097463
449,0.239812,0.964218,-0.112963,0.007396,-0.255783,0.133577
450,0.21545,0.97205,-0.093199,0.018834,-0.247822,0.099882
451,0.191278,0.97871,-0.074321,0.086828,-0.187313,0.053447
452,0.169716,0.983876,-0.056302,-0.060723,-0.17461,0.055173
453,0.152085,0.987603,-0.03866,-0.043092,-0.178338,0.037531
454,0.133969,0.99078,-0.019787,-0.245648,-0.099178,-0.0788919999999999
455,0.113093,0.993574,-0.0020039999999999,-0.109125,-0.0344519999999999,-0.073268
456,0.093362,0.995499,0.015765,-0.022989,0.017486,-0.099887
457,0.073318,0.996814,0.0311329999999999,0.159501,0.131482,-0.0919389999999999
458,0.055585,0.997461,0.044334,0.427249,0.258215,-0.111854
459,0.040891,0.99768,0.054273,0.427554,0.234116,-0.173612
460,0.027665,0.997867,0.058989,0.46408,0.240918,-0.265837
461,0.014913,0.998249,0.0571029999999999,0.263698,0.22955,-0.287709
462,0.0034549999999999,0.998705,0.050597,0.145348,0.2746099999999999,-0.3175489999999999
463,-0.00352,0.999019,0.04396,-0.0752309999999999,0.480671,-0.362823
464,-0.003363,0.999483,0.0317519999999999,0.006644,0.8611129999999999,-0.319472
465,0.003625,0.999953,0.008154,-0.132088,0.675584,-0.355642
466,0.020626,0.999501,-0.023631,-0.271801,0.3679,-0.609578
467,0.047353,0.996893,-0.0628389999999999,0.013133,0.249613,-0.527875
468,0.0843059999999999,0.989981,-0.1132079999999999,0.1663349999999999,0.289392,-0.445783
469,0.132631,0.975674,-0.17452,0.439421,0.242313,0.258413
470,0.188634,0.95302,-0.236979,0.292597,0.346632,0.424601
471,0.243711,0.930365,-0.273888,0.0347009999999999,0.464502,0.434258
472,0.283976,0.911147,-0.298593,-0.677439,0.143448,0.6392760000000001
473,0.317181,0.887509,-0.334238,-0.26846,0.21297,-0.16059
474,0.3582079999999999,0.851615,-0.382662,-0.8947069999999999,0.39985,-0.466322
475,0.387737,0.812592,-0.435139,-0.3334,-0.097367,0.343922
476,0.415302,0.777403,-0.4724,-0.310901,-0.082335,0.3347199999999999
477,0.446431,0.742013,-0.500108,-0.194676,-0.000375,0.243928
478,0.470816,0.706666,-0.5281560000000001,-0.189123,-0.1083079999999999,0.2195619999999999
479,0.484735,0.671691,-0.56023,-0.269769,-0.173644,0.348896
480,0.482075,0.6417430000000001,-0.596459,-0.3572889999999999,-0.207921,0.475243
481,0.468889,0.625045,-0.6240640000000001,-0.50107,-0.6129600000000001,0.482783
482,0.4523819999999999,0.62343,-0.6377149999999999,-0.545629,-0.702684,0.444172
483,0.442721,0.635895,-0.632163,-0.515521,-0.800247,0.33361
484,0.4473229999999999,0.660985,-0.602491,-0.122128,-0.8276870000000001,0.2659579999999999
485,0.465202,0.695946,-0.547027,-0.233757,-0.7103659999999999,0.685974
486,0.472629,0.741837,-0.475702,-0.444827,-0.744218,0.523187
487,0.474422,0.773634,-0.420005,0.771351,0.499712,0.1564559999999999
488,0.491152,0.793491,-0.359349,2.042875,5.096722,-1.648997
489,0.473625,0.804949,-0.357388,1.538384,3.002149,-0.3977239999999999
490,0.451285,0.822308,-0.346614,-0.950812,-1.369168,0.389888
491,0.436438,0.8408399999999999,-0.320155,-0.803244,-0.710454,0.1915079999999999
492,0.4105479999999999,0.864899,-0.2887699999999999,-0.777354,-0.734513,0.160123
493,0.381891,0.890682,-0.246644,-0.513238,0.712788,0.415025
494,0.353073,0.912044,-0.2085719999999999,0.695984,0.95203,0.1035609999999999
495,0.330169,0.925151,-0.187272,0.718888,0.938924,0.082261
496,0.310911,0.936322,-0.163163,-0.218779,-0.163266,0.066071
497,0.2898969999999999,0.947809,-0.132675,-0.226039,-0.153513,0.082199
498,0.265638,0.958494,-0.103494,-0.072202,-0.166014,0.1110319999999999
499,0.239137,0.9679,-0.077245,0.124526,-0.113301,0.16541
500,0.211286,0.975881,-0.054762,0.101245,-0.104818,0.003584
501,0.186848,0.981844,-0.032477,0.005062,-0.137148,-0.006342
502,0.166183,0.986028,-0.010751,-0.101196,-0.117177,-0.013816
503,0.148284,0.988866,0.011766,-0.1433549999999999,-0.10201,-0.093766
504,0.129967,0.990984,0.032288,-0.061729,-0.104616,-0.090394
505,0.114795,0.992118,0.0500769999999999,0.0267449999999999,-0.122168,-0.078748
506,0.1043119999999999,0.992484,0.063853,-0.002902,-0.0530919999999999,-0.093012
507,0.096591,0.99258,0.073748,-0.0306269999999999,-0.073344,-0.052355
508,0.089893,0.992787,0.07922,-0.0508459999999999,-0.069371,-0.0060079999999999
509,0.083435,0.993244,0.080545,-0.044021,0.014309,0.066993
510,0.075707,0.993923,0.079799,-0.003777,0.093861,0.073522
511,0.067624,0.994536,0.079413,0.079029,0.10225,0.0534
512,0.056395,0.994851,0.084099,0.144853,0.161872,-0.0384899999999999
513,0.042358,0.994874,0.091723,0.233719,0.254211,-0.130404
514,0.025958,0.994486,0.101508,0.264798,0.312444,-0.185493
515,0.0084549999999999,0.993691,0.111746,0.175261,0.332236,-0.254492
516,-0.008897,0.992704,0.120168,0.123765,0.357927,-0.262609
517,-0.024577,0.991857,0.124889,0.138483,0.562022,-0.060939
518,-0.032898,0.991936,0.122321,0.018829,0.4251479999999999,-0.151069
519,-0.037198,0.992771,0.1140359999999999,-0.105364,0.390301,-0.472282
520,-0.038747,0.994569,0.096514,0.022726,0.1292559999999999,-0.466005
521,-0.034453,0.997061,0.068313,0.120208,-0.174215,-0.357161
522,-0.015399,0.99945,0.029105,0.222461,-0.151305,-0.295569
523,0.023972,0.99966,-0.00945,0.4095,0.018772,-0.1627
524,0.078543,0.996357,-0.032994,0.233698,0.196682,-0.06512
525,0.13513,0.989873,-0.043313,0.01993,0.309291,-0.02146
526,0.187667,0.980913,-0.050753,-0.5227350000000001,0.36537,-0.345228
527,0.23312,0.969998,-0.068885,-1.264157,0.338627,-0.394449
528,0.26053,0.959845,-0.103957,-1.31714,0.072854,0.306395
529,0.274894,0.952012,-0.13451,-0.505316,-0.100633,-0.061977
530,0.296558,0.94053,-0.165664,-0.422702,0.297065,-0.5323180000000001
531,0.318272,0.926077,-0.2026619999999999,-0.512302,0.2382139999999999,-0.261175
532,0.339792,0.911456,-0.2319,-0.5025270000000001,-0.026874,0.1900609999999999
533,0.360478,0.8965059999999999,-0.25753,-0.354023,-0.053198,-0.0541149999999999
534,0.375851,0.881451,-0.285955,-0.369396,-0.038143,-0.025691
535,0.39042,0.865424,-0.31401,-0.209558,0.007241,0.055145
536,0.403026,0.848741,-0.342342,-0.180309,-0.051821,0.260082
537,0.411404,0.8338270000000001,-0.368064,-0.188686,-0.036906,0.285803
538,0.413834,0.8218979999999999,-0.391428,-0.175171,-0.216231,0.25976
539,0.4087969999999999,0.8145600000000001,-0.411543,-0.251067,-0.377656,0.326582
540,0.399034,0.812322,-0.4253189999999999,-0.241304,-0.375417,0.340358
541,0.385464,0.814859,-0.432913,-0.343609,-0.419275,0.387625
542,0.368926,0.8219,-0.434011,-0.365844,-0.438446,0.3942469999999999
543,0.352678,0.8328059999999999,-0.4266649999999999,-0.349596,-0.4493529999999999,0.3869
544,0.338394,0.846195,-0.4116229999999999,-0.299072,-0.5352979999999999,0.12282
545,0.324008,0.861858,-0.390142,-0.059573,-0.431285,-0.308177
546,0.307133,0.8798520000000001,-0.362657,0.032406,-0.311981,-0.622236
547,0.2919449999999999,0.897375,-0.33087,0.518007,0.171014,-1.018099
548,0.289007,0.912026,-0.290985,0.844691,0.575172,-0.517288
549,0.291776,0.920916,-0.258398,0.597262,0.2458929999999999,-0.4622439999999999
550,0.309471,0.919486,-0.24241,0.175835,-0.00727,-0.411857
551,0.331252,0.916511,-0.224205,0.14885,0.824257,0.039849
552,0.340281,0.917038,-0.2079369999999999,0.139821,0.82373,0.023581
553,0.350011,0.913446,-0.207598,-0.1506849999999999,-0.007517,-0.502271
554,0.366172,0.907377,-0.206334,-0.960014,-0.270017,0.224843
555,0.378827,0.907472,-0.181586,-1.060269,-0.306535,0.387137
556,0.380267,0.914046,-0.141079,-0.887149,-0.160766,0.493527
557,0.37232,0.922992,-0.097214,-0.695516,0.318692,0.337846
558,0.358502,0.931165,-0.066288,-0.6816979999999999,0.310519,0.3069199999999999
559,0.344773,0.937772,-0.041243,0.010482,0.323886,0.173583
560,0.337057,0.941366,-0.014436,-0.117605,0.129755,0.2993639999999999
561,0.3353,0.941921,0.018565,-0.264194,0.095036,0.263509
562,0.330228,0.942195,0.0565919999999999,-0.567274,0.091832,0.280612
563,0.317227,0.943483,0.095876,-0.538175,0.073943,0.262721
564,0.300064,0.944382,0.134491,-0.369003,0.051712,0.1825099999999999
565,0.281037,0.944672,0.169107,-0.204545,0.0170139999999999,0.073264
566,0.261425,0.944178,0.200418,-0.129818,-0.007243,0.173987
567,0.2463969999999999,0.942947,0.223876,-0.1026599999999999,0.013016,0.269852
568,0.234213,0.942433,0.2386309999999999,-0.079459,0.010081,0.446427
569,0.217088,0.942619,0.2536219999999999,0.054442,0.024773,0.364191
570,0.192159,0.941878,0.275539,0.0940039999999999,0.0508589999999999,0.275395
571,0.1627829999999999,0.940828,0.297195,0.275038,0.0863169999999999,0.073563
572,0.133317,0.940276,0.313189,0.52928,0.083863,-0.099184
573,0.102476,0.941009,0.322461,0.6176010000000001,-0.045333,-0.2274449999999999
574,0.076476,0.943132,0.323471,0.350831,-0.2205369999999999,-0.137436
575,0.052745,0.94581,0.3203789999999999,0.3302199999999999,-0.2013329999999999,0.00242
576,0.026717,0.946952,0.320233,0.367158,-0.142585,0.0876649999999999
577,-0.003825,0.944929,0.327225,0.40478,-0.056852,0.040023
578,-0.036267,0.939988,0.339246,0.454038,0.191588,-0.3241239999999999
579,-0.066258,0.933593,0.3521289999999999,0.484029,0.197984,-0.337008
580,-0.092996,0.927898,0.361023,0.476251,0.154469,-0.479492
581,-0.114257,0.923929,0.365077,0.5473319999999999,0.266974,-0.490428
582,-0.130076,0.92103,0.367103,0.5631510000000001,0.269873,-0.492454
583,-0.14247,0.919439,0.366488,0.676665,0.309488,-0.525454
584,-0.152726,0.920435,0.359796,0.518556,0.4041949999999999,-0.59559
585,-0.157255,0.925645,0.34414,0.394499,0.370207,-0.526925
586,-0.153275,0.936631,0.314976,0.231125,0.45729,-0.472813
587,-0.134811,0.952621,0.272619,0.108261,0.281022,-0.6661729999999999
588,-0.093383,0.972958,0.21122,0.066833,0.260684,-0.604775
589,-0.032604,0.99034,0.134711,-0.236927,0.600999,-0.4226899999999999
590,0.03183,0.99812,0.052229,-0.609391,1.305896,-0.319364
591,0.092372,0.995472,-0.02208,-0.65649,1.352062,-0.200317
592,0.146039,0.985996,-0.080437,-0.600583,0.915447,0.011773
593,0.20554,0.970394,-0.126791,-0.1318099999999999,0.528645,0.013815
594,0.273071,0.947266,-0.167651,-0.131775,-0.075562,0.555682
595,0.344192,0.910698,-0.228363,0.107422,0.662849,0.423447
596,0.412814,0.874403,-0.254936,0.290204,0.269441,-0.0081409999999999
597,0.458181,0.834239,-0.306765,0.244837,0.309606,0.043689
598,0.4916069999999999,0.792445,-0.361032,-0.256804,-0.0341589999999999,0.234613
599,0.507946,0.753737,-0.416967,-0.7151609999999999,-0.481933,0.478506
600,0.504993,0.7255010000000001,-0.467571,-0.559131,-0.744636,0.5014
601,0.489726,0.707288,-0.509808,-0.402003,-0.891752,0.7017939999999999
602,0.466971,0.702818,-0.536636,-0.582465,-1.095839,0.668532
603,0.446799,0.713659,-0.539495,-0.446036,-0.822866,0.231115
604,0.439108,0.736296,-0.514826,-0.054296,-0.674315,-0.069372
605,0.443279,0.76005,-0.475206,-0.032268,-0.4492279999999999,-0.138899
606,0.446403,0.783733,-0.43183,-0.472206,-0.4733239999999999,0.414633
607,0.43926,0.812049,-0.384211,0.406184,1.032998,0.143336
608,0.435217,0.840025,-0.323935,0.976328,2.134188,1.286597
609,0.43853,0.8612200000000001,-0.256867,0.745979,2.834474,0.014252
610,0.432345,0.8684540000000001,-0.242596,-0.223894,-0.216919,0.5459109999999999
611,0.424853,0.881817,-0.204665,-0.784563,-0.907177,-0.180254
612,0.404754,0.89765,-0.174314,-0.888152,-0.463614,0.0464759999999999
613,0.364944,0.918655,-0.151244,-0.7390439999999999,0.317764,0.166426
614,0.317842,0.939685,-0.1263119999999999,-0.253999,0.972134,0.17807
615,0.280288,0.953966,-0.106646,0.454926,0.623976,0.252978
616,0.2520429999999999,0.96345,-0.090685,-0.090239,0.040395,0.109194
617,0.225626,0.971831,-0.067999,-0.178064,-0.047957,0.044226
618,0.200255,0.978896,-0.040563,-0.006301,-0.123244,0.099981
619,0.1752119999999999,0.984388,-0.016302,0.226384,-0.253828,0.107747
620,0.148264,0.988938,0.001798,0.32839,-0.224351,-0.001707
621,0.124265,0.992044,0.01978,0.247027,-0.199731,-0.075124
622,0.103573,0.993991,0.035203,0.084919,-0.196109,-0.039125
623,0.084767,0.99503,0.052095,-0.002019,-0.233677,-0.088716
624,0.065832,0.995328,0.070505,-0.008214,-0.233808,-0.076898
625,0.045984,0.995037,0.08815,0.065176,-0.169704,-0.076691
626,0.026254,0.99408,0.105354,0.2441469999999999,0.0575559999999999,-0.118126
627,0.0068049999999999,0.992912,0.1185819999999999,0.298813,0.12043,-0.1519829999999999
628,-0.0116709999999999,0.991774,0.127398,0.360075,0.201585,-0.26636
629,-0.028045,0.991004,0.1308,0.439589,0.277444,-0.338762
630,-0.042324,0.990548,0.130406,0.510296,0.2742679999999999,-0.313313
631,-0.0555779999999999,0.990152,0.128419,0.42336,0.221182,-0.2594309999999999
632,-0.067537,0.989675,0.126348,0.059633,0.2892409999999999,-0.307607
633,-0.076563,0.98927,0.124356,-0.014547,0.514957,-0.280514
634,-0.081672,0.989856,0.116169,0.235756,0.679028,-0.129918
635,-0.078191,0.992275,0.0962129999999999,-0.302622,0.614155,-0.497381
636,-0.066786,0.995443,0.0679309999999999,-0.392045,0.5044810000000001,-0.660796
637,-0.04947,0.998223,0.03295,-0.071578,0.1791,-0.632147
638,-0.023515,0.999619,-0.013826,0.560533,0.30519,-0.328398
639,0.016385,0.997288,-0.071638,0.581852,0.3355059999999999,-0.100786
640,0.063202,0.989774,-0.12782,0.398529,0.3240989999999999,0.283917
641,0.1103329999999999,0.978871,-0.172117,0.047855,0.031063,0.237455
642,0.156742,0.966169,-0.204784,-0.158039,0.1094079999999999,0.176677
643,0.1972529999999999,0.952268,-0.232946,-0.5902430000000001,0.03818,0.069021
644,0.22803,0.934569,-0.273077,-0.589434,0.042818,0.240835
645,0.258829,0.911055,-0.320896,-0.068689,0.08336,0.149189
646,0.305103,0.8812549999999999,-0.360957,-0.2132909999999999,0.0370949999999999,-0.072896
647,0.33944,0.8503360000000001,-0.402118,-0.136498,-0.058985,0.273212
648,0.36835,0.819364,-0.4392609999999999,-0.104373,-0.059858,0.240745
649,0.389237,0.788358,-0.476421,-0.131638,-0.227857,0.271496
650,0.39969,0.758828,-0.514217,-0.136659,-0.207101,0.290569
651,0.403448,0.733954,-0.5463819999999999,-0.2224179999999999,-0.193823,0.333553
652,0.400576,0.718639,-0.5684100000000001,-0.375704,-0.342174,0.37264
653,0.3921739999999999,0.712588,-0.58173,-0.4272689999999999,-0.532169,0.452244
654,0.382023,0.715535,-0.58486,-0.444507,-0.589192,0.397405
655,0.374386,0.728797,-0.573308,-0.331509,-0.756446,0.222188
656,0.372773,0.751992,-0.543636,-0.059694,-0.7989430000000001,0.279628
657,0.380871,0.782629,-0.492361,0.043262,-0.757391,0.286963
658,0.3860389999999999,0.816932,-0.428468,0.141533,-0.383003,-0.04106
659,0.3849869999999999,0.843894,-0.373652,0.0805429999999999,1.134499,0.038951
660,0.373636,0.86864,-0.325342,0.827902,2.9408540000000003,-0.378927
661,0.359275,0.876511,-0.320369,-0.138221,0.042709,0.298823
662,0.337681,0.8870299999999999,-0.31486,-0.841175,-0.950796,0.323771
663,0.315706,0.901355,-0.296437,-0.764177,-0.84119,-0.208201
664,0.285707,0.919411,-0.27026,-0.401979,-0.19143,0.349941
665,0.247236,0.938823,-0.239732,-0.215132,0.622304,0.309312
666,0.207901,0.954846,-0.212205,0.59906,1.060062,0.33925
667,0.180313,0.96463,-0.192251,0.540924,0.083237,0.230062
668,0.163605,0.971381,-0.172151,-0.105988,-0.093757,0.103547
669,0.146362,0.978195,-0.147296,-0.135132,-0.1651,0.133487
670,0.126266,0.98443,-0.122221,-0.0675809999999999,-0.198205,0.121351
671,0.104708,0.989681,-0.097723,0.137282,-0.1102099999999999,0.039221
672,0.0808919999999999,0.993794,-0.076228,0.1801549999999999,-0.101735,-0.012776
673,0.056673,0.996784,-0.0564929999999999,0.169905,-0.093204,0.000509
674,0.034491,0.998711,-0.036967,0.0751889999999999,-0.116341,-0.055563
675,0.014171,0.999732,-0.01774,0.059911,-0.1255869999999999,-0.107168
676,-0.005184,0.999976,-0.000908,0.006069,-0.1090759999999999,-0.135033
677,-0.0245629999999999,0.999597,0.013468,0.131909,-0.060282,-0.091288
678,-0.043756,0.998689,0.026169,0.206827,-0.07155,-0.08693
679,-0.06127,0.997342,0.039159,0.285513,0.002459,-0.02451
680,-0.076474,0.995728,0.051536,0.414868,0.1454,-0.02259
681,-0.088688,0.994124,0.061902,0.4270819999999999,0.147005,-0.032956
682,-0.0990549999999999,0.992593,0.070189,0.568736,0.255073,-0.2702469999999999
683,-0.109044,0.991241,0.074357,0.451375,0.16069,-0.281541
684,-0.117838,0.990188,0.074976,0.146449,0.2064219999999999,-0.217966
685,-0.124296,0.989563,0.072768,-0.043887,0.3936469999999999,-0.131469
686,-0.128556,0.989452,0.066607,-0.013869,0.451604,-0.081256
687,-0.1264819999999999,0.990584,0.052186,0.063158,0.6995859999999999,-0.162904
688,-0.118113,0.992587,0.028273,-0.140905,0.394269,-0.582579
689,-0.10313,0.994654,-0.002558,-0.013524,0.211126,-0.670004
690,-0.081511,0.99586,-0.039977,0.055144,0.21703,-0.622193
691,-0.050883,0.994529,-0.091124,0.4817149999999999,0.401482,-0.297243
692,-0.007117,0.987785,-0.155605,0.638831,0.330635,0.245281
693,0.044895,0.975716,-0.214352,0.524181,0.232033,0.457532
694,0.099676,0.962307,-0.253013,-0.3317469999999999,0.24477,0.262702
695,0.149154,0.949796,-0.275003,-0.463852,0.273395,0.275568
696,0.187101,0.938396,-0.290501,-0.4331489999999999,0.149036,0.1648599999999999
697,0.2217239999999999,0.921187,-0.31975,0.027025,0.207429,-0.420088
698,0.268739,0.893605,-0.359494,-0.329042,0.1082559999999999,-0.166476
699,0.297686,0.866524,-0.400633,-0.342288,-0.043801,0.462416
700,0.326343,0.840829,-0.431851,-0.128467,-0.113794,0.165799
701,0.351053,0.81386,-0.4630149999999999,-0.227167,-0.089876,0.18474
702,0.365759,0.785939,-0.498508,-0.142965,-0.176274,0.293842
703,0.37401,0.760724,-0.5304770000000001,-0.157777,-0.1809049999999999,0.381155
704,0.378407,0.743387,-0.551521,-0.311268,-0.234765,0.410973
705,0.377644,0.734538,-0.563765,-0.3397719999999999,-0.315623,0.367811
706,0.3712789999999999,0.73295,-0.570023,-0.444308,-0.6909890000000001,0.384187
707,0.364353,0.741362,-0.563578,-0.3629489999999999,-0.755812,0.257746
708,0.362295,0.759579,-0.5401600000000001,-0.068334,-0.81065,0.22795
709,0.3674,0.7850560000000001,-0.498693,0.119645,-0.700781,0.32932
710,0.37048,0.816375,-0.443018,0.081699,-0.565261,0.115488
711,0.362871,0.8445450000000001,-0.39377,0.176481,-0.156969,-0.13748
712,0.35407,0.873619,-0.333783,0.483988,2.655068,-0.038868
713,0.349641,0.8886379999999999,-0.296748,1.607208,2.113758,-0.648626
714,0.342895,0.8938649999999999,-0.288813,-0.477462,-0.4765069999999999,0.4185439999999999
715,0.331784,0.902984,-0.272991,-0.7743800000000001,-0.929733,0.0417439999999999
716,0.308319,0.918337,-0.248153,-0.3803559999999999,-0.2590659999999999,0.350601
717,0.274897,0.937037,-0.21535,-0.313654,0.090566,0.343356
718,0.240058,0.954007,-0.1795119999999999,-0.074775,0.973147,0.1782
719,0.208821,0.965968,-0.152581,0.35995,0.090077,0.177377
720,0.188727,0.972894,-0.133568,0.058282,-0.02273,0.016487
721,0.16912,0.979312,-0.1110319999999999,-0.205161,-0.123797,0.059533
722,0.145405,0.985536,-0.086939,-0.16721,-0.179383,0.106333
723,0.119945,0.990718,-0.063809,0.050435,-0.1892049999999999,0.0611539999999999
724,0.093523,0.994649,-0.043674,0.170301,-0.134175,-0.011136
725,0.067022,0.997445,-0.0243,0.21522,-0.119272,-0.009193
726,0.043157,0.999052,-0.003343,0.238307,-0.1439339999999999,-0.036467
727,0.022244,0.999621,0.015569,0.132617,-0.159624,-0.05837
728,0.003471,0.999409,0.033881,0.0586779999999999,-0.171009,-0.075232
729,-0.014629,0.998604,0.050532,0.088009,-0.142891,-0.081736
730,-0.032063,0.997383,0.064625,0.191334,-0.086937,-0.152195
731,-0.0471399999999999,0.995908,0.076947,0.234197,0.037157,-0.198987
732,-0.059417,0.994566,0.08535,0.240692,0.077394,-0.148079
733,-0.066626,0.993821,0.088637,0.240195,0.149978,-0.151427
734,-0.070671,0.993683,0.087036,0.327125,0.135818,-0.096848
735,-0.073987,0.99363,0.08486,0.434797,0.117835,-0.071814
736,-0.080101,0.993112,0.085375,0.38691,0.14353,-0.116579
737,-0.089604,0.992166,0.08691,0.298649,0.195196,-0.142086
738,-0.101015,0.990844,0.0894409999999999,0.2620409999999999,0.242173,-0.1556789999999999
739,-0.111889,0.98958,0.090495,0.112896,0.585936,-0.201289
740,-0.12072,0.988979,0.085582,0.247689,0.6561020000000001,-0.131969
741,-0.123925,0.989642,0.072307,0.320245,0.776471,-0.063716
742,-0.1194089999999999,0.991549,0.050494,-0.040442,0.486738,-0.485583
743,-0.109349,0.993724,0.023106,-0.077418,0.321751,-0.564839
744,-0.093422,0.995588,-0.007525,0.009362,0.115115,-0.577771
745,-0.067433,0.996483,-0.049554,0.343053,0.265938,-0.408194
746,-0.0279269999999999,0.9941,-0.104719,0.575137,0.298914,-0.047212
747,0.021583,0.986898,-0.159845,0.516305,0.308101,0.1469359999999999
748,0.073663,0.976448,-0.202748,0.36309,0.155342,0.346333
749,0.120853,0.965654,-0.229981,-0.199909,0.242415,0.266648
750,0.162525,0.954471,-0.250111,-0.438846,0.211942,0.2411239999999999
751,0.196368,0.940061,-0.2787659999999999,-0.34508,0.047412,-0.026166
752,0.2288639999999999,0.918042,-0.323738,-0.181119,0.039447,-0.120324
753,0.266452,0.892342,-0.364302,-0.311526,-0.034173,0.049636
754,0.294506,0.867626,-0.400599,-0.1656,-0.1412,0.374949
755,0.322529,0.8412950000000001,-0.433803,-0.176991,-0.164019,0.25288
756,0.34634,0.813663,-0.466894,-0.175518,-0.145267,0.273047
757,0.364824,0.785447,-0.4999659999999999,-0.144762,-0.150757,0.3028079999999999
758,0.379753,0.7598689999999999,-0.527614,-0.336678,-0.1701619999999999,0.358822
759,0.386755,0.7416149999999999,-0.548104,-0.354635,-0.232521,0.418725
760,0.382768,0.731939,-0.563688,-0.290772,-0.4762939999999999,0.4444869999999999
761,0.371811,0.7326590000000001,-0.570051,-0.379898,-0.721504,0.380003
762,0.361473,0.746225,-0.5589970000000001,-0.239662,-0.7559140000000001,0.231055
763,0.358068,0.770672,-0.527107,-0.044164,-0.770824,0.134758
764,0.3635739999999999,0.8038310000000001,-0.470807,-0.110965,-0.6035739999999999,0.5928770000000001
765,0.359526,0.839468,-0.407459,-0.114363,-0.668615,-0.019742
766,0.350344,0.868684,-0.350191,0.195508,0.671462,-0.065474
767,0.344398,0.888065,-0.304492,1.569863,4.1613430000000005,-1.00903
768,0.335556,0.8939540000000001,-0.297042,0.191651,0.512677,0.221297
769,0.318986,0.902854,-0.28825,-0.726777,-1.143974,0.474529
770,0.299929,0.915814,-0.267045,-0.736071,-1.121136,-0.391006
771,0.264721,0.934185,-0.239177,-0.526546,-0.270046,0.372722
772,0.224603,0.952358,-0.20628,-0.441262,0.681446,0.310619
773,0.186764,0.966379,-0.176677,0.759479,0.786521,0.245936
774,0.163463,0.974185,-0.155648,0.7827810000000001,0.7787149999999999,0.224908
775,0.147702,0.979958,-0.133598,-0.087246,-0.14756,0.027199
776,0.12832,0.985725,-0.108911,-0.103525,-0.271766,0.108041
777,0.10588,0.990726,-0.0850409999999999,0.118272,-0.276905,0.037769
778,0.080871,0.994677,-0.063707,0.261918,-0.203966,0.022798
779,0.0535559999999999,0.997596,-0.043736,0.311434,-0.19709,-0.054485
780,0.028508,0.999334,-0.022335,0.303096,-0.218633,-0.050297
781,0.008361,0.999953,-0.0019199999999999,0.152375,-0.1903369999999999,0.041379
782,-0.009211,0.999788,0.017866,0.0097299999999999,-0.176835,-0.0030039999999999
783,-0.0254919999999999,0.999005,0.036316,-0.042592,-0.103146,-0.1191859999999999
784,-0.0407379999999999,0.997791,0.05226,0.0214199999999999,-0.032734,-0.140593
785,-0.056794,0.996161,0.066456,0.135209,0.024637,-0.169743
786,-0.072999,0.994352,0.076895,0.195634,0.077029,-0.17893
787,-0.088117,0.992661,0.082688,0.393735,0.271622,-0.154939
788,-0.0991,0.991627,0.0826529999999999,0.539774,0.294231,-0.195416
789,-0.106775,0.990961,0.081071,0.659555,0.2130949999999999,-0.23842
790,-0.115311,0.990054,0.080457,0.508957,0.1680569999999999,-0.173917
791,-0.1259559999999999,0.988778,0.080186,0.127131,0.280509,-0.199418
792,-0.136286,0.98743,0.079903,-0.082357,0.627102,-0.271157
793,-0.143032,0.986871,0.0748669999999999,0.119229,0.8230959999999999,-0.2571179999999999
794,-0.1429109999999999,0.988005,0.058308,0.040204,0.524385,-0.344395
795,-0.132959,0.990616,0.031305,-0.097327,0.295532,-0.677194
796,-0.113518,0.993524,-0.001091,-0.043541,0.181418,-0.677864
797,-0.084521,0.995455,-0.043654,0.407366,0.334623,-0.446641
798,-0.046513,0.993726,-0.101619,0.562886,0.336459,-0.2359969999999999
799,0.001902,0.986136,-0.165876,0.4913689999999999,0.271524,0.359846
800,0.053734,0.975249,-0.214439,0.066414,0.232835,0.4459149999999999
801,0.1045599999999999,0.965019,-0.2403949999999999,-0.331809,0.21093,0.361107
802,0.14587,0.954319,-0.260732,-0.623577,0.074658,0.200353
803,0.179833,0.939161,-0.292609,-0.089974,0.071337,-0.1839839999999999
804,0.218684,0.916894,-0.333868,-0.04333,0.076499,-0.203913
805,0.261502,0.890382,-0.37259,-0.27403,-0.007401,0.1405799999999999
806,0.292798,0.8644430000000001,-0.408649,-0.178663,-0.167315,0.3147
807,0.322555,0.835838,-0.444209,-0.2323,-0.137214,0.289302
808,0.344963,0.806527,-0.480108,-0.30088,-0.188195,0.2487849999999999
809,0.359454,0.778043,-0.515201,-0.240221,-0.150632,0.285556
810,0.370451,0.753509,-0.543121,-0.221357,-0.13565,0.278442
811,0.378486,0.736137,-0.561107,-0.281669,-0.2152329999999999,0.363307
812,0.375184,0.727937,-0.573878,-0.397019,-0.606615,0.474131
813,0.36294,0.730124,-0.578951,-0.396158,-0.672583,0.443102
814,0.353033,0.744286,-0.566919,-0.301077,-0.750633,0.251505
815,0.34994,0.770062,-0.533419,-0.0327709999999999,-0.641965,0.14049
816,0.353057,0.804089,-0.478311,0.024033,-0.568325,0.271096
817,0.353928,0.8379040000000001,-0.4154989999999999,0.1079089999999999,-0.531935,-0.231733
818,0.3604989999999999,0.8669399999999999,-0.344153,1.335348,2.719134,0.204733
819,0.36555,0.880682,-0.301261,1.893346,3.946558,-0.925256
820,0.352995,0.88646,-0.29928,-0.6240060000000001,-0.829591,0.730478
821,0.336886,0.8974620000000001,-0.284703,-0.785479,-1.543259,-0.2958929999999999
822,0.31781,0.912404,-0.257878,-0.576645,-0.721608,0.1142779999999999
823,0.286782,0.931645,-0.223108,-0.481484,0.118068,0.380838
824,0.254193,0.949598,-0.183392,-0.213024,1.090609,0.190152
825,0.223609,0.962785,-0.151747,0.305948,1.209411,0.2431019999999999
826,0.203722,0.970434,-0.129371,0.111311,-0.084082,0.078636
827,0.187446,0.976785,-0.103616,-0.17202,-0.0831539999999999,0.035958
828,0.166138,0.983124,-0.076468,-0.182877,-0.087295,0.052908
829,0.140206,0.988725,-0.052389,0.141868,-0.077837,0.090475
830,0.113755,0.993,-0.031473,0.31874,-0.038334,0.076822
831,0.088199,0.995996,-0.013848,0.318265,-0.075662,0.01693
832,0.065508,0.997836,0.003357,0.14224,-0.204882,0.005935
833,0.046572,0.998654,0.022356,0.063093,-0.196484,-0.00525
834,0.0295959999999999,0.998603,0.043525,0.035315,-0.2112949999999999,-0.059669
835,0.012578,0.997917,0.063099,0.146251,-0.1464609999999999,-0.062047
836,-0.002789,0.996788,0.079897,0.2439079999999999,-0.1328359999999999,-0.0784779999999999
837,-0.015366,0.995374,0.094721,0.209763,-0.146284,-0.114069
838,-0.024634,0.993873,0.10764,0.1176359999999999,-0.0684429999999999,-0.160344
839,-0.031736,0.992795,0.115447,0.035841,0.000949,-0.125746
840,-0.0385029999999999,0.992348,0.117217,0.018193,0.001762,-0.104415
841,-0.0447329999999999,0.992369,0.1148059999999999,0.082254,-0.012526,-0.032317
842,-0.0502079999999999,0.992606,0.1104079999999999,0.104621,0.083123,0.014348
843,-0.0555549999999999,0.992883,0.105239,0.113722,0.114997,0.03682
844,-0.0625759999999999,0.992844,0.101594,0.14595,0.167235,-0.023759
845,-0.072939,0.991999,0.1029279999999999,0.226442,0.265615,-0.116676
846,-0.088391,0.990274,0.10734,0.281338,0.291358,-0.126276
847,-0.107082,0.987698,0.1138579999999999,0.405101,0.310902,-0.133847
848,-0.127143,0.984553,0.120278,0.344215,0.362417,-0.153008
849,-0.144475,0.981677,0.124154,0.319554,0.486692,-0.061074
850,-0.15673,0.979949,0.122931,0.0839,0.647935,-0.204901
851,-0.16479,0.979822,0.113006,0.054957,0.382529,-0.347197
852,-0.1693349999999999,0.981095,0.093575,0.142678,0.26181,-0.283226
853,-0.164397,0.984416,0.0622659999999999,0.266463,0.056371,-0.18191
854,-0.141989,0.989671,0.019247,0.70513,-0.0263529999999999,-0.183416
855,-0.100022,0.994768,-0.020313,0.68509,-0.04648,-0.1499599999999999
856,-0.048017,0.997969,-0.041644,0.361158,-0.000303,-0.0953799999999999
857,0.003496,0.998656,-0.051525,-0.166811,0.302979,-0.268223
858,0.0516059999999999,0.996905,-0.0591519999999999,-0.4357149999999999,0.413206,-0.434332
859,0.089941,0.992981,-0.076688,-1.2177790000000002,0.3171989999999999,-0.11629
860,0.108493,0.988424,-0.105976,-0.5809810000000001,-0.1451619999999999,0.129566
861,0.123648,0.982703,-0.1378059999999999,-0.190299,-0.012213,-0.305371
862,0.148091,0.973091,-0.176485,-0.129688,0.383324,-0.517835
863,0.172129,0.96147,-0.2143179999999999,-0.4987279999999999,0.035265,0.359597
864,0.192752,0.948178,-0.252571,-0.5612520000000001,-0.056286,0.316994
865,0.208825,0.933292,-0.292137,-0.422295,-0.210102,0.194878
866,0.224054,0.918651,-0.325372,-0.174722,-0.172863,0.121347
867,0.239756,0.902982,-0.356551,-0.120066,-0.144208,0.182967
868,0.256297,0.8857200000000001,-0.3870409999999999,-0.100795,-0.018135,0.300616
869,0.268714,0.8706360000000001,-0.412037,-0.101905,-0.191727,0.4117479999999999
870,0.277263,0.857773,-0.432829,-0.125148,-0.3516849999999999,0.395261
871,0.280126,0.848241,-0.449451,-0.127676,-0.406194,0.413761
872,0.277578,0.8433459999999999,-0.4601189999999999,-0.180089,-0.393898,0.390279
873,0.271203,0.843678,-0.4632989999999999,-0.230339,-0.4550979999999999,0.3802
874,0.259685,0.85015,-0.458038,-0.262188,-0.472922,0.343292
875,0.2435679999999999,0.8623639999999999,-0.443838,-0.144554,-0.476652,0.158789
876,0.2250579999999999,0.8774959999999999,-0.423484,-0.06336,-0.543298,0.030357
877,0.202574,0.894181,-0.399239,0.170336,-0.225404,-0.529762
878,0.1747369999999999,0.910904,-0.373778,0.765372,0.255738,-0.4541479999999999
879,0.164749,0.925133,-0.342015,1.055283,0.487098,-0.414042
880,0.172432,0.932376,-0.317695,0.665626,0.167875,-0.443611
881,0.1958329999999999,0.932236,-0.304257,0.289809,0.027877,-0.39957
882,0.215391,0.932365,-0.290329,0.297579,0.178033,-0.41095
883,0.223512,0.933637,-0.279914,-0.1848769999999999,0.679751,-0.064584
884,0.225851,0.931316,-0.285709,-0.483602,0.121098,-0.237363
885,0.228553,0.926203,-0.299831,-0.679649,-0.035975,-0.50121
886,0.2361639999999999,0.924162,-0.300232,-0.514301,-0.191847,0.501999
887,0.2431219999999999,0.930462,-0.274081,-0.320179,-0.275387,0.85216
888,0.2455639999999999,0.94088,-0.2333,-0.437932,-0.2165909999999999,0.522775
889,0.243315,0.948189,-0.204256,-0.5485220000000001,0.365806,0.302767
890,0.235792,0.953845,-0.185923,-0.197417,0.502393,0.19633
891,0.227255,0.959255,-0.167837,0.023126,0.13924,0.282903
892,0.222565,0.963817,-0.146649,-0.1106119999999999,0.094761,0.346997
893,0.223858,0.96776,-0.115378,-0.379986,0.112944,0.369834
894,0.225025,0.971161,-0.078694,-0.381153,0.109543,0.33315
895,0.220503,0.974429,-0.042988,-0.352553,0.117459,0.2152599999999999
896,0.21044,0.977545,-0.010071,-0.206198,0.031427,0.161041
897,0.1978359999999999,0.979997,0.021136,-0.193594,0.028975,0.129834
898,0.184017,0.981652,0.049766,-0.042446,-0.063058,0.145912
899,0.171809,0.982482,0.072043,-0.025202,0.04213,0.362467
900,0.162227,0.982613,0.090189,-0.0156199999999999,0.042,0.3443199999999999
901,0.152868,0.982308,0.108079,0.130945,0.032737,0.336852
902,0.142499,0.98173,0.1260069999999999,0.100482,-0.043986,0.148438
903,0.131114,0.980533,0.146084,0.098286,0.004665,0.097553
904,0.116374,0.979728,0.162995,0.187215,0.059747,0.021942
905,0.100577,0.979878,0.172338,0.364877,-0.068852,-0.028066
906,0.085476,0.979833,0.180546,0.4223369999999999,-0.102072,-0.0447269999999999
907,0.071802,0.979367,0.188843,0.51145,-0.096997,-0.057983
908,0.060851,0.978827,0.195372,0.471147,-0.09275,-0.085905
909,0.0507899999999999,0.978085,0.201856,0.421195,-0.091275,-0.116422
910,0.040038,0.976979,0.209488,0.304246,-0.081166,-0.154449
911,0.028647,0.97548,0.218164,0.194131,0.179885,-0.188425
912,0.017278,0.973596,0.2275739999999999,0.187404,0.282172,-0.237767
913,0.004281,0.971851,0.235509,0.139045,0.287442,-0.354176
914,-0.009801,0.971863,0.2352949999999999,0.2021079999999999,0.219742,-0.486836
915,-0.021494,0.973711,0.226721,0.402567,0.230757,-0.4704649999999999
916,-0.027374,0.977518,0.209009,0.515091,0.108663,-0.434793
917,-0.0215789999999999,0.984322,0.17499,0.401523,0.241722,-0.432055
918,0.006215,0.992248,0.124027,0.281703,0.304764,-0.545597
919,0.055569,0.99703,0.053136,-0.153225,0.44195,-0.334279
920,0.1123869999999999,0.993145,-0.031833,-0.461157,1.080875,-0.1184809999999999
921,0.168477,0.979481,-0.1105299999999999,-0.708257,1.30566,-0.061788
922,0.221494,0.96088,-0.166235,-0.6302,0.758175,-0.042231
923,0.272712,0.938264,-0.212776,-0.103415,0.675002,0.352409
924,0.329612,0.911095,-0.2474829999999999,-0.069236,0.649254,0.402298
925,0.397677,0.8752989999999999,-0.275118,-0.048785,0.151572,0.293093
926,0.465337,0.8254940000000001,-0.319387,0.225046,0.470207,-0.1564279999999999
927,0.51698,0.7745989999999999,-0.364302,0.244693,0.5305770000000001,-0.113008
928,0.545381,0.726082,-0.418753,-0.22429,0.0376209999999999,0.4008239999999999
929,0.556562,0.67874,-0.479105,-0.505689,-0.172346,0.540262
930,0.552035,0.6389699999999999,-0.535691,-0.619586,-0.206536,0.535737
931,0.5333600000000001,0.610539,-0.585458,-0.597325,-0.497227,0.670556
932,0.5121100000000001,0.593141,-0.621225,-0.480234,-0.845659,0.8428129999999999
933,0.491563,0.59104,-0.639555,-0.67479,-0.985113,0.668013
934,0.482811,0.606449,-0.631748,-0.479851,-0.6732520000000001,0.220371
935,0.4920859999999999,0.636097,-0.594326,-0.330663,-0.512105,0.00114
936,0.5049710000000001,0.671784,-0.541942,-0.359128,-0.3674929999999999,0.007136
937,0.51064,0.708198,-0.4875359999999999,-0.524296,-0.396217,0.431353
938,0.502514,0.746166,-0.436697,0.370395,0.655766,-0.472635
939,0.498771,0.777559,-0.3829059999999999,1.21235,1.793074,0.994142
940,0.517929,0.7927350000000001,-0.321413,1.457352,3.592534,-1.092711
941,0.511408,0.797984,-0.318855,-0.229227,-0.0684159999999999,0.2891309999999999
942,0.5093949999999999,0.81275,-0.282736,-0.966945,-1.153646,0.163733
943,0.491664,0.832097,-0.256642,-0.983363,-0.861196,0.056034
944,0.4561449999999999,0.858381,-0.234728,-0.715987,-0.009535,0.269243
945,0.414879,0.886942,-0.202957,-0.535546,1.181219,0.208694
946,0.378296,0.907653,-0.181772,0.479447,1.258973,0.260217
947,0.355416,0.918747,-0.171947,-0.262154,0.016694,0.087368
948,0.3355599999999999,0.930183,-0.148792,-0.344777,-0.047722,0.071506
949,0.316925,0.940694,-0.120965,-0.320816,-0.158681,0.170999
950,0.297118,0.949789,-0.097984,-0.012618,-0.210912,0.213493
951,0.274848,0.957903,-0.082817,0.074196,-0.156893,0.175041
952,0.252907,0.965037,-0.068705,0.114906,-0.005518,0.030879
953,0.234161,0.970598,-0.0555559999999999,-0.160538,-0.047014,0.00688
954,0.21698,0.975205,-0.043279,-0.190934,-0.1042329999999999,0.000981
955,0.197513,0.979843,-0.029543,-0.233157,-0.191818,0.01288
956,0.176115,0.984277,-0.012608,0.049059,-0.065011,0.099812
957,0.153473,0.988114,0.00714,0.2363579999999999,0.113341,0.001359
958,0.1326109999999999,0.990848,0.0246979999999999,0.408984,0.237515,-0.1817109999999999
959,0.11335,0.992831,0.037591,0.383354,0.205198,-0.323785
960,0.093383,0.994605,0.044886,0.324967,0.1198819999999999,-0.332667
961,0.071645,0.996216,0.048931,0.240015,0.154464,-0.371792
962,0.053286,0.997246,0.051334,0.1207869999999999,0.4173659999999999,-0.401981
963,0.043976,0.997893,0.047418,0.1401359999999999,0.524736,-0.274591
964,0.045624,0.998373,0.033809,-0.090912,0.7371770000000001,-0.388973
965,0.056951,0.998305,0.010816,-0.279852,0.471101,-0.666928
966,0.078106,0.996688,-0.02207,-0.280804,0.3489239999999999,-0.645059
967,0.1128069999999999,0.991322,-0.0673179999999999,0.319536,0.301876,-0.432422
968,0.1604259999999999,0.97984,-0.118971,0.397436,0.355655,-0.091372
969,0.213558,0.961442,-0.173207,0.292988,0.312789,0.086507
970,0.264026,0.939785,-0.216966,0.063809,0.273594,0.321351
971,0.306958,0.919154,-0.246805,-0.583982,0.26119,0.322229
972,0.335861,0.898445,-0.282798,-0.652038,0.224571,0.670524
973,0.3691,0.8707530000000001,-0.324863,0.025477,0.398931,-0.351178
974,0.4152119999999999,0.831256,-0.369589,-0.8077439999999999,0.321301,-0.269953
975,0.4420729999999999,0.7939,-0.417467,-0.442989,-0.009003,0.480653
976,0.471405,0.759412,-0.448392,-0.296906,-0.0323009999999999,0.252409
977,0.499706,0.724852,-0.474205,-0.328334,-0.0821669999999999,0.2492599999999999
978,0.518062,0.6915020000000001,-0.503412,-0.229823,-0.1362809999999999,0.260096
979,0.528504,0.660708,-0.533044,-0.176286,-0.0976279999999999,0.354959
980,0.526986,0.637487,-0.5620350000000001,-0.439279,-0.388388,0.545495
981,0.512274,0.627674,-0.5861649999999999,-0.4855859999999999,-0.547505,0.561095
982,0.492204,0.63283,-0.597705,-0.5968939999999999,-0.707812,0.427493
983,0.481477,0.651768,-0.585975,-0.23105,-0.843831,0.197639
984,0.486851,0.681813,-0.54598,-0.018391,-0.814076,0.1590329999999999
985,0.499036,0.720033,-0.482184,-0.0141419999999999,-0.708879,0.307776
986,0.498209,0.75627,-0.424062,-0.4505399999999999,0.285509,-0.202433
987,0.484836,0.790539,-0.374119,-0.437168,0.251239,-0.252376
988,0.480599,0.814461,-0.325056,1.486839,3.455452,-0.7427699999999999
989,0.465647,0.823924,-0.322964,-0.597849,-0.6785680000000001,0.515041
990,0.449186,0.835868,-0.315499,-0.772931,-0.855002,0.061349
991,0.424768,0.8556739999999999,-0.295594,-0.8391350000000001,-0.4750439999999999,0.154114
992,0.39094,0.8814049999999999,-0.26509,-0.684275,0.056614,0.472259
993,0.359589,0.905065,-0.227007,-0.329926,0.788126,0.321428
994,0.335136,0.922359,-0.192135,0.5395439999999999,0.796391,0.298016
995,0.317845,0.933148,-0.16789,0.071437,0.0018039999999999,0.111692
996,0.30128,0.942545,-0.144277,-0.0593519999999999,-0.055414,0.065022
997,0.28228,0.951905,-0.119039,-0.135262,-0.2101449999999999,0.034048
998,0.260704,0.960552,-0.096686,-0.0687639999999999,-0.260082,0.062827
999,0.235735,0.968674,-0.077936,-0.015047,-0.197877,0.0239349999999999
1000,0.208695,0.976024,-0.06163,0.050338,-0.167079,-0.013962
1001,0.183491,0.98189,-0.046885,-0.062748,-0.101168,-0.02973
1002,0.161918,0.986293,-0.03135,-0.125267,-0.0249889999999999,-0.004599
1003,0.142118,0.989733,-0.0142949999999999,-0.148481,-0.056704,-0.063052
1004,0.121393,0.992591,-0.000379,-0.046457,-0.05889,-0.056857
1005,0.1004419999999999,0.99485,0.012545,0.04473,-0.025093,-0.087633
1006,0.081419,0.996348,0.0251979999999999,0.300493,0.124121,-0.080175
1007,0.0653059999999999,0.997129,0.037946,0.4353649999999999,0.197878,-0.134366
1008,0.050972,0.997567,0.047256,0.366402,0.15708,-0.2639309999999999
1009,0.035787,0.997966,0.052486,0.23379,0.148121,-0.327388
1010,0.020731,0.998384,0.052653,0.123617,0.210509,-0.340281
1011,0.009325,0.998712,0.049594,0.032637,0.348044,-0.369647
1012,0.004842,0.99908,0.042292,0.145808,0.7610060000000001,-0.358104
1013,0.008768,0.999721,0.021315,0.0286319999999999,0.570103,-0.4047219999999999
1014,0.02667,0.999577,-0.0103819999999999,-0.151746,0.4550729999999999,-0.51005
1015,0.057607,0.996985,-0.051745,-0.095358,0.300684,-0.5524720000000001
1016,0.099754,0.989472,-0.104741,0.301491,0.2772969999999999,-0.397426
1017,0.154448,0.973958,-0.165923,0.495652,0.346233,0.108275
1018,0.215509,0.951811,-0.218154,0.31478,0.163774,0.496016
1019,0.271015,0.926828,-0.259849,-0.322498,0.605857,0.233528
1020,0.304925,0.906719,-0.291313,-0.544655,0.502842,0.554771
1021,0.334951,0.8831979999999999,-0.328255,-0.129369,0.3382219999999999,0.147545
1022,0.386185,0.847407,-0.364342,-0.935318,0.519231,-0.74659
1023,0.413045,0.807869,-0.420388,-0.65598,0.050087,0.519051
1024,0.4417689999999999,0.770821,-0.458977,-0.413067,-0.0321889999999999,0.393853
1025,0.4727729999999999,0.733992,-0.487573,-0.217326,-0.096068,0.275674
1026,0.4947189999999999,0.699289,-0.515979,-0.171431,-0.137781,0.266406
1027,0.5078590000000001,0.6674180000000001,-0.544628,-0.105378,-0.1395559999999999,0.370784
1028,0.50998,0.641536,-0.57301,-0.501893,-0.38293,0.544506
1029,0.4966029999999999,0.630112,-0.5969369999999999,-0.5835020000000001,-0.5467069999999999,0.531278
1030,0.476534,0.635778,-0.6071989999999999,-0.6067520000000001,-0.687765,0.498327
1031,0.46525,0.6561520000000001,-0.594134,-0.2737219999999999,-0.870843,0.338931
1032,0.471476,0.688187,-0.551449,-0.279948,-0.902878,0.296246
1033,0.483334,0.729067,-0.484598,-0.370342,-0.699038,0.604929
1034,0.477525,0.76751,-0.427648,-0.585679,-0.52015,-0.277155
1035,0.4724239999999999,0.801114,-0.3674429999999999,-0.192517,0.072177,0.265132
1036,0.4756579999999999,0.821148,-0.315351,2.1089830000000003,4.184193,-1.012789
1037,0.462812,0.827844,-0.316953,-0.282575,-0.106973,0.6147130000000001
1038,0.447416,0.839084,-0.3094139999999999,-0.894682,-0.99216,-0.124745
1039,0.4209779999999999,0.8607030000000001,-0.286263,-0.724308,-0.606278,0.258523
1040,0.386929,0.8870620000000001,-0.251765,-0.5844239999999999,-0.1064069999999999,0.427195
1041,0.353398,0.910981,-0.212607,-0.336766,0.928161,0.30683
1042,0.325326,0.928418,-0.179388,0.526633,1.004306,0.285452
1043,0.307615,0.938825,-0.154777,-0.064161,-0.035032,0.063529
1044,0.290078,0.948625,-0.1262579999999999,-0.220102,-0.152955,0.036857
1045,0.2692199999999999,0.958258,-0.096107,-0.158655,-0.255988,0.079841
1046,0.246211,0.966586,-0.071177,-0.044444,-0.201205,0.074321
1047,0.218846,0.974389,-0.0514409999999999,0.025172,-0.171853,0.025776
1048,0.192186,0.980826,-0.03192,0.068236,-0.2352199999999999,0.00099
1049,0.169088,0.985495,-0.013478,-0.039205,-0.201071,-0.019481
1050,0.1492609999999999,0.988777,0.003742,-0.09381,-0.155738,-0.01366
1051,0.130126,0.991279,0.020143,-0.134322,-0.111274,-0.071885
1052,0.112443,0.993033,0.034827,-0.01735,-0.131644,-0.08045
1053,0.095856,0.994187,0.048735,0.038085,-0.0843049999999999,-0.095488
1054,0.079222,0.994962,0.0611919999999999,0.235323,0.1205619999999999,-0.11861
1055,0.063502,0.995519,0.069857,0.4067429999999999,0.245631,-0.1724119999999999
1056,0.051626,0.995938,0.0735649999999999,0.47848,0.289004,-0.1930869999999999
1057,0.042544,0.99639,0.073254,0.415799,0.265176,-0.264599
1058,0.032241,0.99706,0.069295,0.2127389999999999,0.172023,-0.27033
1059,0.021341,0.997649,0.0648929999999999,0.078955,0.2438519999999999,-0.331571
1060,0.013182,0.998127,0.0594919999999999,-0.027571,0.7316090000000001,-0.4289989999999999
1061,0.011257,0.998969,0.043655,0.232593,0.802484,-0.277328
1062,0.020704,0.999644,0.015979,-0.052702,0.4152729999999999,-0.5271640000000001
1063,0.041621,0.998936,-0.019181,-0.196391,0.272777,-0.595504
1064,0.072888,0.995304,-0.063496,0.108982,0.225994,-0.4457359999999999
1065,0.115677,0.986202,-0.118324,0.323013,0.324131,-0.191154
1066,0.168829,0.969618,-0.1769599999999999,0.393503,0.4579479999999999,0.156681
1067,0.222957,0.946567,-0.232982,-0.0523179999999999,0.470471,0.205836
1068,0.272037,0.924572,-0.2667239999999999,-0.39513,0.426303,0.162461
1069,0.30513,0.905231,-0.295693,-0.579712,0.289914,0.401131
1070,0.337525,0.879926,-0.334348,-0.052034,0.327945,-0.337451
1071,0.3864039999999999,0.843001,-0.374197,-0.100912,0.364869,-0.297602
1072,0.4174899999999999,0.805183,-0.421149,-0.570246,0.021218,0.381537
1073,0.448514,0.768753,-0.4558939999999999,-0.300091,-0.065079,0.249046
1074,0.479156,0.730878,-0.486016,-0.344894,-0.046827,0.287652
1075,0.4973909999999999,0.695835,-0.518075,-0.326569,-0.0469399999999999,0.340417
1076,0.507554,0.663662,-0.549481,-0.094163,-0.1134609999999999,0.42976
1077,0.511323,0.637201,-0.576639,-0.2483679999999999,-0.082895,0.450342
1078,0.5005109999999999,0.623765,-0.600329,-0.542763,-0.366334,0.545473
1079,0.483038,0.626825,-0.611354,-0.641378,-0.6714720000000001,0.453243
1080,0.474358,0.6446970000000001,-0.59945,-0.574654,-0.718809,0.350914
1081,0.4857729999999999,0.674517,-0.555913,-0.143869,-0.728396,0.6259359999999999
1082,0.499983,0.717482,-0.484997,-0.8134600000000001,-0.681319,0.620572
1083,0.485986,0.763887,-0.424593,-0.8498620000000001,-0.794755,0.110491
1084,0.462609,0.805706,-0.369883,0.252753,2.689701,-0.336232
1085,0.45635,0.836289,-0.303885,2.191752,3.873931,-0.432413
1086,0.450325,0.838672,-0.306297,-0.5960310000000001,-0.616748,0.28115
1087,0.441766,0.845433,-0.300111,-0.936028,-1.10436,-0.081465
1088,0.419813,0.864194,-0.2773199999999999,-0.729795,-0.657529,0.33396
1089,0.383261,0.8909020000000001,-0.24369,-0.554052,-0.0240039999999999,0.420371
1090,0.34449,0.915696,-0.2068989999999999,-0.2181929999999999,1.156372,0.3391619999999999
1091,0.3134929999999999,0.933473,-0.174149,0.712737,0.667265,0.341675
1092,0.293444,0.943536,-0.153646,0.179868,-0.033349,0.032125
1093,0.276008,0.952536,-0.1283369999999999,-0.13932,-0.060874,0.0059
1094,0.255112,0.961866,-0.0985299999999999,-0.166901,-0.2270179999999999,0.023197
1095,0.232434,0.969727,-0.074699,-0.10664,-0.243195,0.074806
1096,0.2065719999999999,0.976786,-0.056489,-0.060881,-0.2346909999999999,-0.005996
1097,0.179534,0.982977,-0.038708,-0.046462,-0.257894,0.003353
1098,0.153816,0.987878,-0.020297,-0.060814,-0.2213679999999999,0.029254
1099,0.131041,0.991363,-0.001478,-0.126402,-0.132125,0.011457
1100,0.11095,0.993656,0.017625,-0.106189,-0.163563,0.007384
1101,0.092998,0.99503,0.035205,-0.003933,-0.121388,-0.038424
1102,0.074913,0.995908,0.050291,0.164574,0.036945,-0.139616
1103,0.0572019999999999,0.996524,0.060335,0.29848,0.209485,-0.250261
1104,0.043825,0.997009,0.063436,0.4334699999999999,0.279144,-0.268942
1105,0.036079,0.997321,0.06341,0.533684,0.297616,-0.243052
1106,0.030496,0.997588,0.0621269999999999,0.371512,0.195741,-0.223367
1107,0.0219949999999999,0.997968,0.059569,0.261864,0.176272,-0.208418
1108,0.011946,0.998242,0.057823,-0.065688,0.650699,-0.270836
1109,0.00336,0.998465,0.055034,0.151471,0.904306,-0.283
1110,-0.000234,0.99911,0.041864,0.109609,0.77625,-0.260949
1111,0.008069,0.999838,0.0152449999999999,-0.2227289999999999,0.474939,-0.494982
1112,0.026554,0.999445,-0.019514,-0.045002,0.229956,-0.558046
1113,0.051438,0.996786,-0.061224,0.198714,0.201975,-0.513544
1114,0.0859149999999999,0.989981,-0.111953,0.5415270000000001,0.2697239999999999,-0.11612
1115,0.1325039999999999,0.976805,-0.168146,0.362705,0.262056,0.286662
1116,0.180593,0.958815,-0.219182,0.2140909999999999,0.066607,0.490407
1117,0.227546,0.939975,-0.254264,-0.503821,0.366986,0.04589
1118,0.2624329999999999,0.924396,-0.2767719999999999,-0.754544,0.117276,0.6143270000000001
1119,0.288035,0.906148,-0.3097,-0.245157,0.145564,0.01963
1120,0.319312,0.8780979999999999,-0.356323,-0.037589,0.246413,-0.120545
1121,0.3561809999999999,0.843659,-0.4016949999999999,-0.250133,0.0234979999999999,0.281867
1122,0.3845909999999999,0.8100149999999999,-0.442663,-0.312249,0.027616,0.301153
1123,0.418026,0.7724,-0.4781609999999999,-0.372891,0.063034,0.277111
1124,0.446209,0.733979,-0.512016,-0.3664969999999999,-0.069168,0.395531
1125,0.466577,0.699248,-0.541614,-0.171396,-0.0847769999999999,0.3811219999999999
1126,0.483616,0.6695939999999999,-0.5636909999999999,-0.152225,-0.023125,0.366044
1127,0.485596,0.650249,-0.584263,-0.503922,-0.657741,0.551624
1128,0.471854,0.647309,-0.5986100000000001,-0.5331640000000001,-0.806488,0.510292
1129,0.4606439999999999,0.662054,-0.591169,-0.472211,-0.851018,0.3942239999999999
1130,0.4646119999999999,0.690334,-0.554584,-0.2913179999999999,-0.957698,0.857684
1131,0.478278,0.727917,-0.4912979999999999,-0.510001,-0.984493,0.5686760000000001
1132,0.476393,0.7659159999999999,-0.431749,-0.514616,-1.000734,-0.204085
1133,0.4660609999999999,0.798826,-0.380326,0.4310489999999999,4.177797,-1.383667
1134,0.452855,0.8304459999999999,-0.324444,1.365733,3.571715,-0.019306
1135,0.443471,0.841375,-0.308875,-0.069279,-0.273961,0.161552
1136,0.437931,0.8490040000000001,-0.295618,-0.624256,-0.549413,-0.079718
1137,0.422276,0.8648290000000001,-0.271542,-0.463337,-0.233634,0.285321
1138,0.391229,0.8880399999999999,-0.2414619999999999,-0.372446,0.021582,0.257896
1139,0.354623,0.91147,-0.208434,-0.19996,0.714278,0.3208
1140,0.326617,0.928127,-0.178549,0.27873,0.474674,0.201483
1141,0.3062809999999999,0.938839,-0.157323,-0.010291,0.112766,0.059774
1142,0.287369,0.94813,-0.135817,-0.110001,-0.047159,0.036513
1143,0.266419,0.957394,-0.1113329999999999,-0.087372,-0.129528,0.066609
1144,0.244855,0.965578,-0.087645,-0.069227,-0.249101,0.064909
1145,0.220096,0.973038,-0.06878,-0.0694309999999999,-0.282883,0.044518
1146,0.195716,0.979292,-0.0515529999999999,-0.043082,-0.291029,0.007806
1147,0.173674,0.984161,-0.035222,-0.06996,-0.131759,0.027562
1148,0.154279,0.987826,-0.019324,-0.092923,-0.084017,0.008323
1149,0.135509,0.990748,-0.0054909999999999,-0.130962,-0.084986,-0.026812
1150,0.117621,0.993016,0.0076159999999999,-0.089347,-0.1042839999999999,-0.01079
1151,0.100127,0.994746,0.020702,0.096833,0.029408,-0.0364639999999999
1152,0.081887,0.996092,0.032698,0.206535,0.106905,-0.082152
1153,0.065065,0.996937,0.043082,0.479476,0.258602,-0.165716
1154,0.049912,0.997413,0.051462,0.365585,0.15989,-0.241114
1155,0.034565,0.997783,0.056619,0.191463,0.21584,-0.313073
1156,0.0194009999999999,0.998146,0.057445,0.041543,0.324287,-0.368679
1157,0.005935,0.998433,0.055408,0.024079,0.696315,-0.328876
1158,-0.001641,0.998698,0.050735,0.368569,0.817816,-0.224853
1159,-0.001889,0.999388,0.034544,-0.040287,0.392778,-0.363249
1160,0.010767,0.999888,0.009059,-0.352717,0.397375,-0.714427
1161,0.035568,0.999119,-0.021721,-0.311813,0.30798,-0.6816479999999999
1162,0.072746,0.995351,-0.062938,0.397286,0.196178,-0.3225139999999999
1163,0.123438,0.985314,-0.117889,0.58782,0.284492,0.150757
1164,0.1842059999999999,0.967741,-0.171824,0.487639,0.314531,0.361751
1165,0.2415929999999999,0.947372,-0.21,-0.299164,0.323808,0.170724
1166,0.2883989999999999,0.926167,-0.242945,-0.681542,0.385113,0.27035
1167,0.319057,0.907422,-0.273441,-0.642894,0.2409239999999999,0.384784
1168,0.352532,0.882059,-0.312532,-0.1947559999999999,0.320135,-0.109465
1169,0.400095,0.846826,-0.350419,-0.518396,-0.005822,0.387803
1170,0.4310609999999999,0.812435,-0.392581,-0.308228,-0.070584,0.287128
1171,0.463614,0.777887,-0.424192,-0.327445,0.025015,0.127699
1172,0.4919479999999999,0.7413270000000001,-0.456518,-0.472996,0.0307069999999999,0.272421
1173,0.5070640000000001,0.7066899999999999,-0.4934189999999999,-0.269088,-0.074534,0.369106
1174,0.521184,0.673289,-0.524439,-0.158742,-0.04417,0.326258
1175,0.526095,0.646778,-0.5521699999999999,-0.585879,-0.4149819999999999,0.527542
1176,0.511404,0.634253,-0.579809,-0.619772,-0.579825,0.544378
1177,0.49161,0.636908,-0.59385,-0.6167779999999999,-0.692786,0.513085
1178,0.4848149999999999,0.653709,-0.581041,-0.3224309999999999,-0.730781,0.363665
1179,0.493921,0.683088,-0.537979,-0.295358,-0.74629,0.576233
1180,0.505228,0.725275,-0.4676619999999999,-0.412943,-0.763574,0.689647
1181,0.4949659999999999,0.76784,-0.4067139999999999,0.1501299999999999,0.659284,1.011847
1182,0.479567,0.805986,-0.346966,0.168702,2.828047,-0.6950270000000001
1183,0.470225,0.83095,-0.297309,1.822408,3.197431,-0.267312
1184,0.4550899999999999,0.8383950000000001,-0.299948,-0.35046,-0.502336,0.187461
1185,0.442467,0.8466540000000001,-0.295605,-0.72651,-0.8400920000000001,0.019482
1186,0.417149,0.865926,-0.275938,-0.5989270000000001,-0.420796,0.4109779999999999
1187,0.378919,0.891238,-0.2491929999999999,-0.464277,0.370557,0.511446
1188,0.343387,0.914596,-0.213495,-0.265125,0.8836219999999999,0.420145
1189,0.318194,0.931005,-0.17878,0.608579,0.140406,0.1922839999999999
1190,0.302994,0.940597,-0.153141,0.100189,0.07718,-0.024944
1191,0.287002,0.948985,-0.13052,-0.093902,-0.095592,0.0032
1192,0.266391,0.958021,-0.10588,-0.112231,-0.254438,0.060042
1193,0.244434,0.965879,-0.085482,-0.137088,-0.256376,0.046771
1194,0.2195219999999999,0.973094,-0.069819,-0.092875,-0.25909,0.00297
1195,0.194196,0.979415,-0.0548779999999999,-0.084439,-0.268157,0.026496
1196,0.170017,0.984667,-0.038754,-0.100559,-0.130526,0.024899
1197,0.148951,0.988582,-0.022247,-0.1237279999999999,-0.078411,0.0121
1198,0.129902,0.991494,-0.006405,-0.0936309999999999,-0.052819,0.004956
1199,0.1126089999999999,0.993584,0.0093,-0.0135789999999999,-0.071449,-0.032448
1200,0.09596,0.995081,0.024096,0.093814,0.032797,-0.077472
1201,0.07801,0.996279,0.036291,0.340157,0.135771,-0.109121
1202,0.061259,0.996995,0.047143,0.541829,0.214538,-0.103967
1203,0.047456,0.997317,0.0555059999999999,0.437087,0.210035,-0.204523
1204,0.034455,0.997497,0.061536,0.19432,0.2055219999999999,-0.3160989999999999
1205,0.020888,0.997789,0.062884,-0.045775,0.3118579999999999,-0.397357
1206,0.0093049999999999,0.998191,0.059175,-0.147092,0.51658,-0.452302
1207,0.0042049999999999,0.998712,0.050282,0.156668,0.8518889999999999,-0.381504
1208,0.0075769999999999,0.999536,0.029057,-0.101906,0.473975,-0.594533
1209,0.021754,0.999746,-0.002855,-0.173305,0.4042,-0.693419
1210,0.046912,0.998027,-0.041415,-0.2196409999999999,0.2962079999999999,-0.68675
1211,0.08334,0.992617,-0.087986,0.408131,0.216627,-0.158047
1212,0.13189,0.980619,-0.144804,0.415397,0.190752,0.088438
1213,0.187187,0.960319,-0.206705,0.321693,0.4445119999999999,0.383569
1214,0.245046,0.938401,-0.243592,-0.366888,0.254913,0.249711
1215,0.288018,0.91921,-0.268478,-0.568444,0.166407,0.59349
1216,0.315481,0.90082,-0.298291,-0.251623,0.151594,0.115888
1217,0.346595,0.872992,-0.343134,-0.647299,0.38952,-0.528921
1218,0.387876,0.8352379999999999,-0.389761,-0.650419,0.1264009999999999,0.116979
1219,0.411983,0.801697,-0.433055,-0.333706,-0.132706,0.5923109999999999
1220,0.441481,0.768273,-0.463505,-0.478041,-0.080697,0.196217
1221,0.46636,0.734021,-0.493668,-0.471639,-0.143155,0.234467
1222,0.480079,0.701753,-0.52636,-0.242256,-0.204454,0.363869
1223,0.48863,0.671458,-0.557113,-0.396985,-0.179072,0.395476
1224,0.490417,0.647633,-0.5831390000000001,-0.5373979999999999,-0.265401,0.4715819999999999
1225,0.481587,0.63555,-0.603441,-0.4872479999999999,-0.4715789999999999,0.5302600000000001
1226,0.4681079999999999,0.6357649999999999,-0.6137319999999999,-0.540007,-0.642067,0.462884
1227,0.459381,0.648644,-0.606811,-0.442413,-0.728524,0.338562
1228,0.461092,0.674523,-0.576542,-0.210375,-0.753213,0.271534
1229,0.471145,0.709438,-0.524125,-0.185516,-0.5633050000000001,0.321381
1230,0.476879,0.745871,-0.465026,-0.056835,-0.427435,-0.140764
1231,0.482152,0.778932,-0.400972,1.015544,2.567168,-0.022642
1232,0.488284,0.80213,-0.343729,1.648953,3.489832,-1.093207
1233,0.485932,0.81011,-0.3279849999999999,-0.076813,0.374994,0.259381
1234,0.466813,0.822318,-0.325363,-0.7390909999999999,-1.039282,-0.190628
1235,0.452478,0.839036,-0.302101,-0.740991,-0.605851,0.2250889999999999
1236,0.428946,0.8613940000000001,-0.272005,-0.571997,0.063502,0.376528
1237,0.401761,0.8857280000000001,-0.2324949999999999,-0.413235,1.0039360000000002,0.121457
1238,0.376081,0.906292,-0.1928119999999999,0.398714,0.931599,0.2424639999999999
1239,0.356077,0.920208,-0.162496,0.115587,0.097325,0.1507619999999999
1240,0.339572,0.930454,-0.137562,-0.178195,-0.004734,0.063358
1241,0.3194909999999999,0.941031,-0.111188,-0.218448,-0.0391139999999999,0.109128
1242,0.295567,0.951511,-0.085108,-0.09325,-0.072147,0.098856
1243,0.26913,0.961005,-0.063355,0.079351,-0.083823,0.108109
1244,0.243263,0.968915,-0.044737,0.083382,-0.134107,0.059065
1245,0.219003,0.97531,-0.02797,-0.006113,-0.2023299999999999,0.061371
1246,0.199446,0.979869,-0.007242,-0.077071,-0.204707,-0.016104
1247,0.182498,0.983067,0.015736,-0.13309,-0.139195,-0.013935
1248,0.166125,0.985398,0.036968,-0.084612,-0.131577,-0.006207
1249,0.150525,0.98702,0.055736,0.015735,-0.095525,-0.1002919999999999
1250,0.136653,0.988114,0.0702049999999999,0.004903,-0.098801,-0.166579
1251,0.125492,0.988904,0.079318,-0.0900919999999999,-0.051038,-0.115389
1252,0.1155349999999999,0.989773,0.083495,-0.094081,-0.024884,-0.110839
1253,0.104668,0.991067,0.082474,-0.073189,-0.024454,0.021454
1254,0.094554,0.99241,0.078446,0.000966,-0.044366,0.010071
1255,0.085747,0.993563,0.073838,0.311424,0.084776,-0.006867
1256,0.077392,0.99431,0.073008,0.3388219999999999,0.136,-0.09405
1257,0.067673,0.994804,0.075874,0.294677,0.161858,-0.123954
1258,0.05426,0.995099,0.082497,0.114319,0.2504909999999999,-0.203972
1259,0.037262,0.99518,0.090547,0.104629,0.392698,-0.163072
1260,0.0171419999999999,0.995043,0.097803,0.0414519999999999,0.496397,-0.048243
1261,-0.000404,0.994759,0.1021,0.145607,0.555046,-0.101917
1262,-0.010995,0.994909,0.100025,-0.299125,0.507303,-0.353031
1263,-0.019191,0.995829,0.089027,-0.333043,0.561177,-0.490562
1264,-0.026229,0.997228,0.069419,-0.035523,0.2172489999999999,-0.301062
1265,-0.028399,0.998718,0.041554,0.183886,-0.05719,-0.251484
1266,-0.014319,0.999857,0.007331,0.3306949999999999,-0.055933,-0.242636
1267,0.019602,0.999561,-0.0216069999999999,0.524618,-0.145496,-0.182266
1268,0.0685409999999999,0.996869,-0.039079,0.286088,-0.056989,-0.089797
1269,0.1226109999999999,0.991175,-0.050119,8.499999999999999e-05,0.189397,-0.068411
1270,0.174716,0.982919,-0.0576049999999999,-0.300296,0.298987,-0.185162
1271,0.221544,0.972685,-0.069097,-1.0638450000000002,0.157976,-0.21699
1272,0.257163,0.961688,-0.094862,-1.147742,0.098158,0.042097
1273,0.277828,0.952307,-0.126089,-0.6899069999999999,-0.003271,0.169668
1274,0.301071,0.941779,-0.149614,-0.3876489999999999,0.274011,-0.427855
1275,0.3290929999999999,0.927592,-0.176768,-0.501502,0.18604,-0.187413
1276,0.354498,0.912824,-0.2026329999999999,-0.533072,0.0074329999999999,0.1289789999999999
1277,0.380063,0.8979879999999999,-0.221692,-0.513227,-0.029855,-0.032169
1278,0.400649,0.8838469999999999,-0.2413969999999999,-0.317931,-0.038205,0.0181759999999999
1279,0.41921,0.869524,-0.261094,-0.20339,-0.053087,0.001283
1280,0.43581,0.854982,-0.281168,-0.176914,-0.064928,0.05961
1281,0.447661,0.841988,-0.301059,-0.208648,-0.074562,0.1857329999999999
1282,0.453275,0.832693,-0.318031,-0.208173,-0.235342,0.19529
1283,0.452981,0.826672,-0.3337699999999999,-0.29313,-0.315594,0.220763
1284,0.447877,0.8240649999999999,-0.3468489999999999,-0.364869,-0.345382,0.2535719999999999
1285,0.438487,0.825154,-0.356136,-0.416789,-0.350499,0.2788199999999999
1286,0.424842,0.8302200000000001,-0.360869,-0.436409,-0.398549,0.260497
1287,0.4078219999999999,0.839606,-0.358783,-0.316193,-0.374915,0.193942
1288,0.389142,0.8512,-0.35215,-0.208127,-0.3508949999999999,-0.020424
1289,0.36753,0.863139,-0.346258,-0.0396339999999999,-0.36169,-0.235605
1290,0.343533,0.874944,-0.341232,0.081256,-0.281423,-0.409226
1291,0.321377,0.8867809999999999,-0.3321409999999999,0.539493,0.199675,-0.535764
1292,0.311142,0.8982629999999999,-0.310315,0.6583859999999999,0.262321,-0.4546689999999999
1293,0.308856,0.909013,-0.27979,0.536633,0.063216,-0.423731
1294,0.315988,0.915457,-0.249138,0.108481,-0.172537,-0.378365
1295,0.329277,0.917361,-0.2236159999999999,0.076012,0.6102420000000001,-0.102938
1296,0.340463,0.920133,-0.193434,0.086478,1.0138120000000002,-0.086671
1297,0.34178,0.922065,-0.181547,0.132982,0.459435,-0.8504809999999999
1298,0.354385,0.914119,-0.1969119999999999,-0.496185,-0.340587,0.343854
1299,0.373093,0.910682,-0.177303,-0.945191,-0.58599,-0.105031
1300,0.37833,0.915433,-0.137199,-0.8824190000000001,-0.4519319999999999,0.581016
1301,0.36606,0.926181,-0.090352,-0.68001,0.065336,0.342
1302,0.343308,0.937316,-0.059594,-0.355164,0.794633,0.095544
1303,0.321156,0.946098,-0.041601,0.1887319999999999,0.561501,0.018927
1304,0.305991,0.951648,-0.026595,-0.17768,0.00079,0.2194809999999999
1305,0.298277,0.954447,-0.005855,-0.389723,-0.009989,0.200344
1306,0.292548,0.955889,0.025757,-0.522437,-0.003054,0.191971
1307,0.284617,0.956746,0.060011,-0.285518,0.117183,0.182436
1308,0.2711929999999999,0.95793,0.093775,-0.272094,0.115999,0.148672
1309,0.252433,0.959235,0.126941,-0.010917,0.117379,0.008618
1310,0.231801,0.960166,0.155939,0.057841,-0.058021,-0.016016
1311,0.213109,0.960472,0.1790119999999999,0.076534,-0.0583259999999999,-0.039089
1312,0.199544,0.95988,0.196924,-0.044088,-0.011149,0.169928
1313,0.185783,0.959111,0.213438,0.004235,-0.022603,0.1328599999999999
1314,0.170088,0.958165,0.230121,0.069261,-0.02126,0.076108
1315,0.152129,0.956486,0.248907,0.079179,-0.009526,0.0270329999999999
1316,0.131686,0.954409,0.267818,0.129178,0.0545789999999999,-0.088146
1317,0.112127,0.95454,0.276123,0.154963,0.0172009999999999,-0.013672
1318,0.092731,0.95613,0.277812,0.27644,-0.041259,-0.014933
1319,0.072971,0.956967,0.280808,0.31979,-0.045697,-0.138245
1320,0.055893,0.957329,0.283482,0.314957,-0.041054,-0.175221
1321,0.0406329999999999,0.957393,0.285852,0.310807,-0.052394,-0.25422
1322,0.025268,0.957256,0.288073,0.359574,-0.079784,-0.275393
1323,0.008882,0.956859,0.290351,0.456374,-0.012081,-0.257941
1324,-0.009093,0.955627,0.294375,0.513091,0.0775759999999999,-0.260943
1325,-0.0274389999999999,0.953412,0.300358,0.459354,0.146884,-0.363957
1326,-0.0446,0.950961,0.306017,0.351195,0.2115909999999999,-0.4503649999999999
1327,-0.059346,0.950186,0.305921,0.39121,0.2168679999999999,-0.493314
1328,-0.071411,0.951532,0.29908,0.4535979999999999,0.22135,-0.536705
1329,-0.078953,0.955442,0.284359,0.6137279999999999,0.1026329999999999,-0.594875
1330,-0.075483,0.963717,0.2559619999999999,0.567869,0.428388,-0.5400510000000001
1331,-0.052387,0.975627,0.213008,0.269932,0.342122,-0.71899
1332,-0.008104,0.98785,0.155091,-0.094023,0.514026,-0.6592720000000001
1333,0.047733,0.995249,0.0846799999999999,-0.518757,0.904165,-0.3437429999999999
1334,0.105989,0.99427,0.012803,-0.973985,1.100762,-0.21306
1335,0.163857,0.985224,-0.049576,-1.056557,0.7506470000000001,0.180283
1336,0.207062,0.973552,-0.0964179999999999,0.068481,0.619908,0.338651
1337,0.252048,0.959795,-0.1234519999999999,0.7322350000000001,0.548384,0.03402
1338,0.318894,0.937564,-0.13877,0.671127,0.474866,-0.41256
1339,0.390797,0.903878,-0.173952,-0.148869,0.37017,-0.282484
1340,0.445567,0.867359,-0.2216679999999999,-0.195567,0.136501,0.123691
1341,0.482872,0.831048,-0.275996,-0.298546,-0.109628,0.277781
1342,0.510079,0.79589,-0.326128,-0.408395,-0.27233,0.2357659999999999
1343,0.526065,0.763658,-0.374253,-0.368319,-0.266404,0.143998
1344,0.530618,0.7369399999999999,-0.418745,-0.463876,-0.517961,0.287748
1345,0.523385,0.718593,-0.457904,-0.448632,-0.808971,0.56699
1346,0.508426,0.710212,-0.486917,-0.638767,-1.123145,0.538201
1347,0.492874,0.71392,-0.497374,-0.187744,-0.770072,0.205015
1348,0.489446,0.726821,-0.48183,0.059825,-0.664717,0.022067
1349,0.49438,0.746817,-0.444789,-0.004253,-0.439871,-0.046498
1350,0.495312,0.770415,-0.401386,-0.1072359999999999,-0.399153,-0.181698
1351,0.487658,0.788768,-0.374188,0.072187,-0.190166,-0.186176
1352,0.486777,0.809397,-0.32849,0.37095,1.660772,0.330214
1353,0.465627,0.836325,-0.289366,0.09672,1.537851,-0.537249
1354,0.4488189999999999,0.8523059999999999,-0.268543,-0.01669,0.088535,-0.120969
1355,0.442407,0.86745,-0.227563,-0.4775939999999999,-0.498447,0.352136
1356,0.426479,0.882969,-0.1961119999999999,-0.565807,-0.273563,0.0589509999999999
1357,0.393761,0.903199,-0.170763,-0.477425,0.543929,0.0855279999999999
1358,0.356116,0.923541,-0.142226,0.191186,0.686017,0.242705
1359,0.3210719999999999,0.939646,-0.118127,0.194842,0.366674,0.155114
1360,0.291886,0.951074,-0.101176,0.049194,0.139762,0.080546
1361,0.263968,0.960901,-0.083451,-0.235801,-0.048136,0.085252
1362,0.2330429999999999,0.970425,-0.062771,-0.110179,-0.1200069999999999,0.093319
1363,0.204045,0.978093,-0.040919,0.029323,-0.174305,0.093226
1364,0.177026,0.983973,-0.0207849999999999,0.122763,-0.104609,0.060686
1365,0.1516819999999999,0.988414,-0.0017469999999999,0.117345,-0.112163,0.045189
1366,0.128484,0.99156,0.016525,0.166438,-0.1582619999999999,0.002258
1367,0.106969,0.993691,0.033297,-0.026372,-0.143807,-0.069841
1368,0.084023,0.995241,0.049069,-0.022652,-0.155901,-0.080838
1369,0.059364,0.996175,0.063898,0.097909,-0.233114,-0.031443
1370,0.034814,0.996298,0.078426,0.309393,-0.112188,-0.067104
1371,0.01089,0.995778,0.090994,0.5286,0.024806,-0.128851
1372,-0.010582,0.994656,0.102563,0.6965560000000001,0.165683,-0.353448
1373,-0.029741,0.993391,0.110732,0.582979,0.149691,-0.4587239999999999
1374,-0.04935,0.992215,0.114215,0.379337,0.2581199999999999,-0.550082
1375,-0.0663059999999999,0.991315,0.113442,0.164985,0.479174,-0.51748
1376,-0.078265,0.991104,0.107511,0.145892,0.692627,-0.343534
1377,-0.082243,0.992255,0.09294,0.177321,0.78547,-0.292158
1378,-0.074694,0.994953,0.066789,-0.295225,0.560802,-0.53235
1379,-0.053219,0.998068,0.031629,-0.332127,0.340601,-0.658414
1380,-0.018945,0.999717,-0.0134849999999999,-0.083518,0.25895,-0.5802039999999999
1381,0.02811,0.997159,-0.069701,0.5129819999999999,0.283038,-0.147798
1382,0.084489,0.988612,-0.124439,0.370772,0.269903,0.269931
1383,0.136932,0.976558,-0.166017,0.2324369999999999,0.23824,0.33542
1384,0.183968,0.962854,-0.197603,-0.353203,0.320181,0.2247489999999999
1385,0.219597,0.947696,-0.23158,-0.382805,0.0938539999999999,0.377195
1386,0.251128,0.928885,-0.27219,0.078187,0.284219,-0.302593
1387,0.298034,0.898753,-0.321559,-0.527541,0.269215,-0.1198019999999999
1388,0.335969,0.8669620000000001,-0.368082,-0.2932599999999999,-0.077625,0.4197479999999999
1389,0.371731,0.8347959999999999,-0.406097,-0.197796,-0.094104,0.253357
1390,0.405117,0.8002600000000001,-0.442096,-0.232327,-0.159818,0.2290829999999999
1391,0.426572,0.767151,-0.479063,-0.0995,-0.187195,0.285169
1392,0.438683,0.73903,-0.511252,-0.039193,-0.181001,0.350394
1393,0.4449229999999999,0.716825,-0.5368350000000001,-0.40287,-0.357267,0.497986
1394,0.437272,0.707229,-0.555525,-0.4431319999999999,-0.654403,0.482192
1395,0.421022,0.714479,-0.558791,-0.450243,-0.775804,0.4185779999999999
1396,0.412608,0.737887,-0.5341020000000001,-0.190394,-0.940127,0.34384
1397,0.417697,0.770844,-0.4809529999999999,-0.1045859999999999,-0.907791,0.497325
1398,0.413709,0.810227,-0.415163,-0.2675909999999999,-0.932923,0.5404680000000001
1399,0.394095,0.8436020000000001,-0.364701,0.015603,-0.356084,-0.468413
1400,0.3841489999999999,0.8678440000000001,-0.315051,0.752508,3.25061,-0.5843020000000001
1401,0.3946969999999999,0.8775809999999999,-0.272113,1.2358870000000002,2.2082650000000004,-0.196469
1402,0.377298,0.883351,-0.278059,-0.594598,-0.956502,0.40341
1403,0.364673,0.893167,-0.263146,-0.68706,-0.859827,0.0935899999999999
1404,0.3351119999999999,0.911595,-0.238064,-0.558974,-0.4259989999999999,0.3829619999999999
1405,0.292231,0.933565,-0.207454,-0.456568,-0.00815,0.3587909999999999
1406,0.250274,0.952238,-0.1748819999999999,0.211777,1.213091,0.28003
1407,0.2214489999999999,0.963328,-0.151447,0.668642,0.33936,0.086323
1408,0.2053579999999999,0.969498,-0.133711,0.187601,-0.024002,0.073821
1409,0.187951,0.976017,-0.109733,-0.076547,-0.250431,0.071769
1410,0.168339,0.981873,-0.086971,-0.047993,-0.23584,0.11259
1411,0.1464599999999999,0.986824,-0.068577,0.0191129999999999,-0.191643,0.065648
1412,0.120964,0.991146,-0.0545169999999999,0.04058,-0.127376,0.016294
1413,0.096872,0.994439,-0.041012,0.013693,-0.16224,-0.001163
1414,0.0746899999999999,0.996814,-0.027516,0.029283,-0.178897,-0.023677
1415,0.053898,0.998454,-0.01256,0.05856,-0.164164,0.002794
1416,0.031999,0.999465,0.0043479999999999,0.1557599999999999,-0.127059,-0.019561
1417,0.010182,0.999708,0.0212949999999999,0.249934,-0.081495,-0.026163
1418,-0.010429,0.999257,0.036719,0.524924,0.18722,-0.211157
1419,-0.0273069999999999,0.998367,0.049887,0.544671,0.201004,-0.242193
1420,-0.042997,0.997326,0.058844,0.522062,0.176456,-0.265494
1421,-0.061103,0.996032,0.064474,0.2621679999999999,0.242844,-0.414556
1422,-0.079843,0.994549,0.066844,0.215448,0.286152,-0.460597
1423,-0.092274,0.993657,0.064044,0.177281,0.726436,-0.4230529999999999
1424,-0.09541,0.99405,0.052279,0.317929,0.66687,-0.4629689999999999
1425,-0.086517,0.995827,0.028547,0.092514,0.404625,-0.536878
1426,-0.062178,0.998019,-0.0079519999999999,0.0298149999999999,0.376477,-0.647932
1427,-0.023537,0.998108,-0.056571,0.41671,0.228561,-0.402902
1428,0.027222,0.992813,-0.116434,0.532882,0.266266,0.041681
1429,0.085173,0.980915,-0.174727,0.434252,0.3366969999999999,0.305632
1430,0.140475,0.965718,-0.218253,-0.0565059999999999,0.390987,0.165045
1431,0.183697,0.950909,-0.249011,-0.465252,0.406055,0.346972
1432,0.2084929999999999,0.936339,-0.282454,-0.118893,0.190202,0.376783
1433,0.2463739999999999,0.916737,-0.314444,-0.249944,0.525097,-0.798822
1434,0.29485,0.88805,-0.352722,-0.8296549999999999,0.200146,-0.454941
1435,0.322636,0.858398,-0.398801,-0.190159,-0.120407,0.290722
1436,0.356648,0.8299139999999999,-0.428985,-0.156148,-0.1233869999999999,0.198288
1437,0.3862239999999999,0.800381,-0.458483,-0.249933,-0.141216,0.195162
1438,0.401387,0.771795,-0.49316,-0.043325,-0.262411,0.344463
1439,0.41229,0.746516,-0.522224,-0.150083,-0.252376,0.383842
1440,0.416593,0.727332,-0.545367,-0.365216,-0.236534,0.4285
1441,0.406979,0.720007,-0.562091,-0.4106869999999999,-0.602102,0.468708
1442,0.390677,0.724787,-0.567489,-0.427572,-0.71406,0.349991
1443,0.379751,0.742102,-0.5523239999999999,-0.205907,-0.8366450000000001,0.2174239999999999
1444,0.38238,0.770609,-0.509838,0.032217,-0.82081,0.372646
1445,0.389488,0.807339,-0.44327,-0.347129,-0.720791,-0.340452
1446,0.381116,0.8414659999999999,-0.382973,-0.204648,-0.279408,-0.199638
1447,0.369195,0.8698,-0.327297,0.16973,0.709774,0.664837
1448,0.366811,0.8873469999999999,-0.279363,1.786539,2.566815,-0.688517
1449,0.350982,0.894921,-0.275514,0.222809,0.3251719999999999,0.283067
1450,0.335765,0.904917,-0.26147,-0.68925,-0.903345,-0.298436
1451,0.30981,0.920789,-0.236948,-0.581218,-0.434216,0.344584
1452,0.2725309999999999,0.940323,-0.20371,-0.448968,0.076645,0.411641
1453,0.235948,0.957466,-0.166027,-0.0016649999999999,0.995385,0.341046
1454,0.207179,0.969071,-0.133997,0.356527,0.002304,0.098597
1455,0.187274,0.976224,-0.109046,0.116224,-0.081586,0.003059
1456,0.16616,0.982661,-0.082121,0.01481,-0.073389,-0.036821
1457,0.141612,0.988364,-0.055281,0.0641679999999999,-0.183951,0.048003
1458,0.1177579999999999,0.992509,-0.0321269999999999,0.119929,-0.200776,0.01255
1459,0.092389,0.995625,-0.012947,0.102283,-0.222493,-0.036965
1460,0.066215,0.997781,0.004553,0.1104359999999999,-0.27833,-0.046652
1461,0.043485,0.998801,0.021859,0.06708,-0.243155,-0.0338529999999999
1462,0.024475,0.998914,0.039291,-0.0035859999999999,-0.152082,-0.012894
1463,0.006712,0.998435,0.0552559999999999,-0.030867,-0.135688,-0.07639
1464,-0.010425,0.997558,0.068853,0.057788,-0.133529,-0.075247
1465,-0.027103,0.996327,0.081051,0.177783,-0.039158,-0.124066
1466,-0.042723,0.994955,0.090615,0.315336,0.094523,-0.11744
1467,-0.056445,0.993707,0.096595,0.431216,0.177649,-0.134437
1468,-0.067108,0.992815,0.0989169999999999,0.576522,0.242811,-0.1945589999999999
1469,-0.075287,0.992223,0.098976,0.535004,0.195643,-0.246284
1470,-0.084229,0.991601,0.097999,0.367768,0.163245,-0.313392
1471,-0.0946679999999999,0.990831,0.096249,0.06238,0.366042,-0.440609
1472,-0.10267,0.990259,0.093902,0.056848,0.702994,-0.37062
1473,-0.1061599999999999,0.99077,0.084125,0.203435,0.837569,-0.332049
1474,-0.100741,0.992952,0.062209,0.023425,0.553709,-0.570357
1475,-0.085221,0.995894,0.03009,0.00911,0.297059,-0.676605
1476,-0.059766,0.998142,-0.010683,0.097058,0.220852,-0.591368
1477,-0.021428,0.997497,-0.067205,0.567067,0.333253,-0.1778819999999999
1478,0.0311529999999999,0.990744,-0.1320319999999999,0.555242,0.4222649999999999,0.17082
1479,0.089449,0.977676,-0.190071,0.426191,0.281738,0.306282
1480,0.1469,0.961228,-0.233329,-0.272754,0.539612,0.114646
1481,0.192053,0.945369,-0.263388,-0.446966,0.295506,0.502996
1482,0.229019,0.926368,-0.298957,0.079056,0.167672,0.1624519999999999
1483,0.280684,0.897443,-0.340288,-0.550795,0.446353,-0.401885
1484,0.320978,0.864981,-0.385701,-0.31315,-0.101874,0.362737
1485,0.3564739999999999,0.834493,-0.420159,-0.143065,-0.04778,0.246437
1486,0.392515,0.80255,-0.4492569999999999,-0.299742,-0.087034,0.32798
1487,0.41707,0.773005,-0.47802,-0.092958,-0.28686,0.334908
1488,0.431601,0.7451800000000001,-0.5083449999999999,-0.140158,-0.280641,0.335265
1489,0.437646,0.723333,-0.534083,-0.285348,-0.19103,0.403574
1490,0.432793,0.71541,-0.548513,-0.463661,-0.729921,0.465689
1491,0.419108,0.719997,-0.55312,-0.449977,-0.7345079999999999,0.4702949999999999
1492,0.401244,0.737572,-0.5431199999999999,-0.420882,-1.017922,0.5695939999999999
1493,0.393226,0.766073,-0.508422,-0.366141,-0.8746389999999999,0.7395930000000001
1494,0.390602,0.803682,-0.4489,-0.470481,-0.8547540000000001,0.678331
1495,0.3730429999999999,0.843875,-0.385613,-0.194271,-0.572971,-0.407111
1496,0.362558,0.871978,-0.328922,0.231711,2.561464,0.30817
1497,0.369031,0.8862639999999999,-0.279883,2.44997,3.346524,-0.7528779999999999
1498,0.354756,0.8916709999999999,-0.281163,-0.343892,-0.712029,0.560337
1499,0.3417719999999999,0.9005219999999999,-0.268763,-0.701864,-1.084436,-0.261083
1500,0.314919,0.916533,-0.246523,-0.552391,-0.540877,0.302233
1501,0.273995,0.93655,-0.218586,-0.375283,0.041843,0.42635
1502,0.231925,0.954551,-0.187141,0.0312589999999999,1.1072620000000002,0.321205
1503,0.201774,0.966234,-0.160178,0.7737970000000001,0.466154,0.24372
1504,0.182826,0.972962,-0.141059,0.11089,-0.0152129999999999,0.003302
1505,0.163549,0.979449,-0.11793,-0.06252,-0.1125369999999999,0.0080209999999999
1506,0.141853,0.985408,-0.093938,-0.081687,-0.2176929999999999,0.060033
1507,0.118393,0.99026,-0.073101,-0.055954,-0.220332,-0.001712
1508,0.093174,0.994102,-0.055267,-0.012546,-0.2093269999999999,-0.0065769999999999
1509,0.067924,0.997005,-0.036624,0.081215,-0.22398,-0.009168
1510,0.044219,0.998849,-0.017891,0.113282,-0.185464,-0.0576559999999999
1511,0.022924,0.999723,0.0016489999999999,0.09167,-0.158521,-0.0471959999999999
1512,0.003095,0.999777,0.020227,0.118472,-0.1509,-0.036524
1513,-0.015773,0.999197,0.036475,0.1973069999999999,-0.1021779999999999,-0.024146
1514,-0.033829,0.998103,0.051168,0.29535,-0.0278889999999999,-0.097997
1515,-0.051091,0.996614,0.064209,0.485189,0.114867,-0.119919
1516,-0.065921,0.994966,0.075289,0.618075,0.262862,-0.185091
1517,-0.076527,0.993623,0.0826399999999999,0.523319,0.273559,-0.262999
1518,-0.084747,0.992666,0.086051,0.466034,0.255961,-0.283576
1519,-0.093724,0.991948,0.085008,0.122029,0.207103,-0.275148
1520,-0.102944,0.991372,0.080971,-0.005409,0.536887,-0.243416
1521,-0.110785,0.991011,0.074806,0.018835,0.606829,-0.175972
1522,-0.110866,0.992035,0.059562,-0.1241039999999999,0.824051,-0.36573
1523,-0.103156,0.994088,0.03348,-0.083444,0.484351,-0.6778890000000001
1524,-0.085434,0.99633,-0.0009199999999999,0.0553899999999999,0.303475,-0.71339
1525,-0.056497,0.997381,-0.044869,0.482781,0.256968,-0.4361029999999999
1526,-0.014271,0.995059,-0.098126,0.557133,0.315091,-0.166674
1527,0.03975,0.987015,-0.155556,0.53186,0.392074,0.029137
1528,0.100207,0.973181,-0.2070179999999999,0.328214,0.28361,0.2373219999999999
1529,0.162143,0.956121,-0.24397,-0.368075,0.442789,0.125348
1530,0.207844,0.940758,-0.267872,-0.449634,0.046379,0.51186
1531,0.245831,0.922478,-0.297629,-0.065273,0.0051649999999999,0.176871
1532,0.292095,0.895078,-0.336894,-0.60548,0.067919,-0.047948
1533,0.328787,0.8641409999999999,-0.380976,-0.342566,-0.065572,0.349207
1534,0.362208,0.8352729999999999,-0.413653,-0.095195,-0.081595,0.3595
1535,0.396939,0.8061,-0.438892,-0.272,-0.271325,0.22263
1536,0.419509,0.777767,-0.468056,-0.29457,-0.242992,0.251793
1537,0.430326,0.749946,-0.502382,-0.101102,-0.390052,0.332017
1538,0.428378,0.727015,-0.53659,-0.290942,-0.374247,0.4762109999999999
1539,0.417224,0.716703,-0.558793,-0.529086,-0.6011479999999999,0.452057
1540,0.399359,0.721673,-0.5654100000000001,-0.510412,-0.811913,0.3902239999999999
1541,0.390163,0.7393270000000001,-0.548776,-0.28445,-0.875451,0.313593
1542,0.396575,0.76791,-0.50302,-0.087737,-0.779278,0.448226
1543,0.403708,0.8051020000000001,-0.4345279999999999,-0.376029,-0.7453489999999999,0.590855
1544,0.390076,0.8417959999999999,-0.3731,-0.184937,-0.555571,-0.404259
1545,0.374791,0.8712719999999999,-0.316857,0.1197309999999999,2.2301990000000003,-0.009315
1546,0.368257,0.8885219999999999,-0.273673,1.987822,3.236021,-0.4768
1547,0.355493,0.8943549999999999,-0.271541,-0.2043859999999999,-0.46395,0.2235369999999999
1548,0.34504,0.90086,-0.263398,-0.61242,-0.7138180000000001,-0.112426
1549,0.316646,0.91611,-0.245881,-0.403422,-0.338046,0.252335
1550,0.272468,0.936069,-0.22252,-0.279914,0.303234,0.4884189999999999
1551,0.232959,0.953092,-0.193195,-0.066684,0.709918,0.447971
1552,0.207756,0.964085,-0.165397,0.3436659999999999,0.845242,0.352409
1553,0.193458,0.970559,-0.143414,0.109414,0.042732,-0.0178569999999999
1554,0.178119,0.976515,-0.121117,0.020291,-0.077909,0.019997
1555,0.159268,0.982417,-0.097295,0.064456,-0.2048289999999999,0.0042159999999999
1556,0.1386109999999999,0.987313,-0.077304,-0.042618,-0.165444,0.006092
1557,0.114693,0.99151,-0.061073,-0.021004,-0.200143,-0.0007099999999999
1558,0.09014,0.994931,-0.0442959999999999,-0.036017,-0.2226989999999999,-0.027908
1559,0.067731,0.997312,-0.027518,-0.034116,-0.14053,-0.011498
1560,0.046152,0.998853,-0.011708,0.008688,-0.125944,-0.0286519999999999
1561,0.024094,0.99969,0.003564,0.130386,-0.168956,0.012595
1562,0.003701,0.999792,0.019381,0.2143929999999999,-0.13999,-0.007677
1563,-0.015456,0.999253,0.035042,0.291548,-0.077454,-0.044106
1564,-0.035156,0.998118,0.049968,0.5352779999999999,0.116719,-0.120417
1565,-0.054053,0.996491,0.0637,0.600669,0.226578,-0.21966
1566,-0.070361,0.994742,0.0742299999999999,0.535097,0.325158,-0.351024
1567,-0.084976,0.993072,0.0809899999999999,0.394501,0.2943429999999999,-0.417309
1568,-0.098317,0.991724,0.0823899999999999,0.1768539999999999,0.373617,-0.4715649999999999
1569,-0.108367,0.991047,0.077807,0.270904,0.609524,-0.32944
1570,-0.112812,0.991558,0.063691,0.279148,0.7456699999999999,-0.246049
1571,-0.105567,0.993724,0.036601,-0.148507,0.485509,-0.56277
1572,-0.087149,0.996182,0.000276,-0.112024,0.242405,-0.655091
1573,-0.056969,0.997492,-0.041688,0.295632,0.1940059999999999,-0.433349
1574,-0.014149,0.995775,-0.090595,0.506306,0.252349,-0.182583
1575,0.041568,0.988387,-0.14608,0.4941069999999999,0.3911139999999999,0.098335
1576,0.09951,0.976026,-0.193518,0.443138,0.358661,0.289252
1577,0.155489,0.962656,-0.2215739999999999,-0.4190689999999999,0.241613,0.127992
1578,0.201829,0.947477,-0.248056,-0.465409,0.256792,0.154473
1579,0.238207,0.931876,-0.273575,-0.202837,0.200722,0.091447
1580,0.2822679999999999,0.910394,-0.3024699999999999,-0.373058,0.17565,-0.1223799999999999
1581,0.331847,0.881179,-0.3367239999999999,-0.547179,0.012681,0.116891
1582,0.364135,0.85314,-0.373551,-0.482009,-0.078818,0.4649359999999999
1583,0.397762,0.825363,-0.400679,-0.163723,-0.13794,0.119582
1584,0.425931,0.7954680000000001,-0.431043,-0.21948,-0.120938,0.1461609999999999
1585,0.442223,0.764127,-0.4696109999999999,-0.221734,-0.1834839999999999,0.388663
1586,0.451054,0.737302,-0.5029140000000001,-0.231663,-0.180951,0.428985
1587,0.454482,0.718145,-0.526975,-0.311064,-0.320836,0.385205
1588,0.445634,0.7086020000000001,-0.5470659999999999,-0.433183,-0.4392689999999999,0.442665
1589,0.429588,0.711017,-0.556683,-0.420235,-0.808231,0.348325
1590,0.420358,0.725932,-0.544343,-0.285043,-0.839366,0.301957
1591,0.4231229999999999,0.751754,-0.505786,-0.153149,-0.8513940000000001,0.258105
1592,0.4292479999999999,0.7867770000000001,-0.443524,-0.199908,-0.7220340000000001,0.4676939999999999
1593,0.422821,0.8231200000000001,-0.37905,-0.033188,-0.671082,-0.152918
1594,0.410037,0.850181,-0.3302179999999999,0.152936,-0.22718,-0.583341
1595,0.4046099999999999,0.867418,-0.289583,2.327873,4.624022,-1.111769
1596,0.384824,0.874245,-0.295953,-0.087171,-0.148552,0.7802520000000001
1597,0.36712,0.884533,-0.287758,-0.946618,-1.091519,-0.219383
1598,0.343151,0.900358,-0.267551,-0.663265,-0.4318369999999999,0.421375
1599,0.305104,0.922226,-0.237465,-0.487263,0.326415,0.343361
1600,0.266297,0.942242,-0.203086,0.220458,1.104236,0.324821
1601,0.2384119999999999,0.956182,-0.169865,0.736441,0.435389,0.216282
1602,0.220232,0.964169,-0.147831,0.302091,0.031162,0.078647
1603,0.201153,0.971581,-0.124676,-0.0246699999999999,-0.234078,0.045636
1604,0.178272,0.978822,-0.100518,-0.024662,-0.235169,0.086358
1605,0.153636,0.984947,-0.07907,0.059453,-0.198738,0.046493
1606,0.127728,0.989974,-0.0601,0.221912,-0.133438,0.004375
1607,0.100949,0.993962,-0.042702,0.192523,-0.192876,0.007958
1608,0.077388,0.996648,-0.026042,0.144643,-0.218588,0.000865
1609,0.0577549999999999,0.998279,-0.008828,0.007995,-0.194355,0.008782
1610,0.039368,0.999161,0.010084,-0.051926,-0.140183,-0.058134
1611,0.020148,0.999427,0.02671,-0.049689,-0.100578,-0.050513
1612,0.001971,0.99918,0.040114,0.070234,-0.014912,-0.166106
1613,-0.0152719999999999,0.998596,0.050452,0.1793799999999999,0.041031,-0.1439119999999999
1614,-0.031917,0.997736,0.0589679999999999,0.29208,0.098105,-0.09887
1615,-0.047146,0.996692,0.065992,0.5085109999999999,0.190641,-0.106138
1616,-0.06061,0.995653,0.070521,0.6348590000000001,0.2052139999999999,-0.190791
1617,-0.073846,0.994481,0.074334,0.581384,0.087321,-0.232415
1618,-0.086885,0.993135,0.078134,0.456712,0.067595,-0.241053
1619,-0.0986269999999999,0.991727,0.081993,-0.024603,0.412067,-0.365348
1620,-0.106221,0.990763,0.084131,-0.007091,0.707952,-0.306192
1621,-0.107851,0.991211,0.076426,0.268053,0.6897270000000001,-0.154475
1622,-0.098939,0.99348,0.056412,-0.188445,0.472844,-0.527939
1623,-0.083183,0.99615,0.027197,-0.276543,0.416371,-0.664953
1624,-0.0611539999999999,0.998082,-0.008245,0.305554,0.281398,-0.578792
1625,-0.028494,0.998034,-0.0556179999999999,0.5657409999999999,0.2968429999999999,-0.297577
1626,0.017639,0.993258,-0.114479,0.479706,0.297804,0.181404
1627,0.070596,0.983705,-0.165289,0.352438,0.161712,0.352804
1628,0.1240609999999999,0.972209,-0.198491,-0.000159,0.237142,0.270314
1629,0.171871,0.960634,-0.218227,-0.416332,0.259627,-0.209553
1630,0.209819,0.946574,-0.244857,-0.4407609999999999,0.152608,0.025283
1631,0.242636,0.925726,-0.290072,-0.145284,0.14329,-0.023756
1632,0.280738,0.899013,-0.336074,-0.083884,0.159764,-0.028291
1633,0.316852,0.870617,-0.376317,-0.13509,0.011249,0.180638
1634,0.34469,0.8400270000000001,-0.418963,-0.173257,0.062073,0.273684
1635,0.37106,0.806508,-0.460268,-0.2509119999999999,0.044216,0.184007
1636,0.389923,0.770274,-0.5046039999999999,-0.236176,-0.051097,0.260387
1637,0.401653,0.73306,-0.548896,-0.31744,-0.07536,0.380363
1638,0.405909,0.700646,-0.5867899999999999,-0.344172,-0.13659,0.371519
1639,0.400645,0.67232,-0.622463,-0.335215,-0.230456,0.456051
1640,0.396599,0.65045,-0.647777,-0.078285,-0.29936,0.454082
1641,0.397628,0.6373939999999999,-0.6600090000000001,0.01619,-0.339238,0.583242
1642,0.406436,0.630845,-0.660935,-0.327671,-0.359849,0.399201
1643,0.410425,0.629344,-0.6599010000000001,-0.416605,-0.5171,0.276951
1644,0.409395,0.634626,-0.655466,-0.070345,-0.640333,0.406382
1645,0.40548,0.6452939999999999,-0.647435,-0.125664,-0.6035010000000001,0.0282639999999999
1646,0.391457,0.6605270000000001,-0.640668,0.197257,-0.510564,-0.014499
1647,0.377894,0.6778890000000001,-0.6305970000000001,0.252873,-0.489885,-0.021411
1648,0.369122,0.696294,-0.61556,0.222354,-0.411473,-0.192409
1649,0.36712,0.714471,-0.595603,0.007743,-0.165017,-0.6140220000000001
1650,0.375187,0.736931,-0.562278,-0.064015,0.150765,-0.922143
1651,0.396309,0.747145,-0.533574,1.234764,2.666948,0.015813
1652,0.410889,0.753834,-0.512729,0.520325,-0.306264,0.293781
1653,0.410351,0.763985,-0.497922,-0.4497649999999999,-1.272438,0.120938
1654,0.410184,0.779945,-0.472674,-0.0314,-0.946892,0.215426
1655,0.403836,0.796534,-0.449929,-0.5669529999999999,-0.071726,-0.127692
1656,0.398373,0.814206,-0.422318,-0.354641,0.597216,0.424942
1657,0.397937,0.8342959999999999,-0.3815489999999999,-0.172458,1.029367,0.067935
1658,0.393992,0.850715,-0.347904,-0.012232,0.306832,0.272938
1659,0.388101,0.866563,-0.313734,-0.161889,-0.049042,0.140913
1660,0.37869,0.8823979999999999,-0.2791909999999999,-0.282011,-0.055433,0.121431
1661,0.3709,0.895701,-0.245218,-0.270086,0.069844,0.168374
1662,0.364628,0.906478,-0.21289,-0.149861,0.124726,0.137206
1663,0.355507,0.916054,-0.185576,-0.071998,0.1358869999999999,0.10272
1664,0.344528,0.924685,-0.161976,-0.017547,0.138212,0.116474
1665,0.33346,0.932957,-0.135542,-0.022502,0.080623,0.08737
1666,0.3220179999999999,0.940662,-0.1069369999999999,-0.180218,-0.014819,0.057132
1667,0.309029,0.947734,-0.079225,-0.093666,-0.027186,0.042482
1668,0.29364,0.954394,-0.0536809999999999,-0.019333,-0.040255,0.029191
1669,0.278685,0.959913,-0.029568,0.047258,-0.050459,0.021816
1670,0.267586,0.963486,-0.007998,0.110497,-0.005326,0.098925
1671,0.258864,0.965838,0.010919,0.060167,0.006498,0.0787419999999999
1672,0.251594,0.967373,0.0293529999999999,-0.0896059999999999,0.019306,0.019277
1673,0.244171,0.968576,0.047044,-0.206771,-0.001367,0.028136
1674,0.2375989999999999,0.969182,0.064834,-0.209569,-0.000615,0.01854
1675,0.229355,0.969882,0.081821,-0.151489,0.035611,0.016583
1676,0.220778,0.970433,0.097394,-0.13127,0.070674,0.048465
1677,0.211132,0.97143,0.108233,-0.097515,0.043203,0.05615
1678,0.20205,0.972411,0.116454,-0.112633,0.008653,0.089982
1679,0.192264,0.973376,0.124667,-0.110232,-0.018054,0.15225
1680,0.181603,0.97432,0.133001,-0.039971,-0.036453,0.172602
1681,0.170764,0.975082,0.141499,0.106656,-0.003082,0.164226
1682,0.160483,0.975587,0.149807,0.233011,-0.014268,0.1316109999999999
1683,0.150923,0.975828,0.1579549999999999,0.280748,-0.048261,0.1193579999999999
1684,0.141268,0.975999,0.165641,0.294203,-0.093232,0.068872
1685,0.131384,0.976156,0.172697,0.26304,-0.060064,0.007143
1686,0.120654,0.976547,0.178232,0.260083,-0.032806,-0.029855
1687,0.107871,0.977122,0.183203,0.10885,-0.089747,-0.0494449999999999
1688,0.093165,0.977551,0.188896,0.130712,-0.070995,-0.008995
1689,0.0767429999999999,0.977695,0.195422,0.143274,-0.032581,-0.021792
1690,0.0585679999999999,0.977589,0.202128,0.1362259999999999,-0.012485,-0.041926
1691,0.039395,0.977204,0.208532,0.058948,0.0073849999999999,-0.081945
1692,0.020671,0.976674,0.2136469999999999,0.121846,0.003596,-0.083276
1693,0.0051189999999999,0.975855,0.218279,0.213326,0.00382,-0.082491
1694,-0.007504,0.974674,0.223428,0.3145409999999999,0.04414,-0.112389
1695,-0.01787,0.973375,0.2284449999999999,0.297518,0.05995,-0.1244869999999999
1696,-0.028018,0.972276,0.232077,0.2857389999999999,0.079253,-0.1285
1697,-0.03912,0.971076,0.2354699999999999,0.299511,0.098214,-0.0897029999999999
1698,-0.051933,0.969882,0.237901,0.324333,0.127118,-0.1289529999999999
1699,-0.064374,0.969272,0.237344,0.319501,0.1444359999999999,-0.160669
1700,-0.075791,0.970052,0.2306949999999999,0.3094949999999999,0.099559,-0.124967
1701,-0.084177,0.972629,0.216504,0.320642,0.10632,-0.12988
1702,-0.084753,0.977708,0.192014,0.351706,0.1260359999999999,-0.323422
1703,-0.073615,0.985394,0.153447,0.278235,0.043689,-0.424993
1704,-0.050143,0.993744,0.099634,0.192065,-0.024902,-0.320459
1705,-0.015016,0.999008,0.041549,-0.089674,0.107666,-0.207992
1706,0.032302,0.999415,-0.00989,-0.44847,0.751257,-0.174482
1707,0.079515,0.99535,-0.054117,-0.608735,0.604855,0.076456
1708,0.123618,0.988318,-0.088992,-0.304298,0.385385,0.146579
1709,0.170346,0.978828,-0.113366,-0.016507,0.486443,0.016259
1710,0.223998,0.965718,-0.131102,-0.0125569999999999,0.675639,-0.1356369999999999
1711,0.274045,0.949606,-0.15206,-0.3381619999999999,0.5019319999999999,-0.071069
1712,0.317777,0.931254,-0.1782099999999999,-0.200193,0.174977,-0.003477
1713,0.356303,0.911686,-0.2045809999999999,-0.1325329999999999,0.0468709999999999,-0.078836
1714,0.385289,0.891819,-0.237042,-0.2003069999999999,-0.140446,0.098522
1715,0.405954,0.8729379999999999,-0.270482,-0.192468,-0.118467,0.1133319999999999
1716,0.418166,0.8555520000000001,-0.305201,-0.319808,-0.130134,0.263529
1717,0.423146,0.840615,-0.338076,-0.33553,-0.150399,0.274508
1718,0.42353,0.826997,-0.369703,-0.389198,-0.212434,0.2887699999999999
1719,0.418401,0.8163090000000001,-0.3981989999999999,-0.4517569999999999,-0.309886,0.2957059999999999
1720,0.408225,0.810068,-0.420864,-0.425437,-0.388162,0.320584
1721,0.3931219999999999,0.808499,-0.437914,-0.257258,-0.377042,0.378664
1722,0.374144,0.812228,-0.447534,-0.19934,-0.359606,0.422006
1723,0.354414,0.820709,-0.4481199999999999,-0.099531,-0.477768,0.211426
1724,0.338059,0.830735,-0.4422439999999999,0.1229089999999999,-0.548005,-0.126878
1725,0.328263,0.8424870000000001,-0.427134,0.259368,-0.4429359999999999,-0.272741
1726,0.328522,0.855453,-0.400321,0.544952,0.225205,-0.466942
1727,0.330503,0.869634,-0.366725,0.592852,0.307093,-0.510518
1728,0.336861,0.878519,-0.3386889999999999,0.316246,0.110128,-0.448664
1729,0.356827,0.8806579999999999,-0.311606,-0.0554809999999999,0.4785189999999999,-0.125878
1730,0.370096,0.882453,-0.2903199999999999,0.091238,0.920525,0.159156
1731,0.379758,0.8781909999999999,-0.290767,-0.048413,0.859037,-0.01183
1732,0.391944,0.87505,-0.283985,-0.708396,-0.492543,0.087376
1733,0.396689,0.8824190000000001,-0.252891,-0.956351,-0.327854,0.590202
1734,0.383131,0.899435,-0.210253,-0.953718,-0.047597,0.362262
1735,0.352715,0.917832,-0.182085,-0.928399,0.287445,0.1076829999999999
1736,0.324934,0.930526,-0.168867,0.365221,0.601563,0.362043
1737,0.30824,0.938436,-0.155897,0.424014,0.2726699999999999,0.306608
1738,0.297167,0.944262,-0.1415539999999999,0.1507089999999999,0.128629,0.2226389999999999
1739,0.284986,0.950669,-0.122429,-0.285184,-0.074921,0.310157
1740,0.27125,0.957284,-0.10003,-0.206614,-0.117639,0.375512
1741,0.257981,0.963377,-0.07297,-0.0636299999999999,-0.007308,0.340427
1742,0.244951,0.968547,-0.043475,0.182661,0.152058,0.155933
1743,0.232421,0.972465,-0.016318,0.28029,0.0902179999999999,0.008215
1744,0.222178,0.974965,0.007381,0.103017,0.02676,0.0648379999999999
1745,0.21038,0.977225,0.027284,-0.043952,0.021127,0.076262
1746,0.196825,0.979466,0.04334,-0.058657,-0.1177869999999999,0.127879
1747,0.184751,0.980976,0.0593659999999999,0.018298,-0.138752,0.001074
1748,0.172846,0.982224,0.073019,0.025747,0.01654,-0.0564789999999999
1749,0.160123,0.98355,0.083434,0.11185,0.05922,-0.085158
1750,0.146378,0.985064,0.090512,0.457107,0.089673,-0.152783
1751,0.132016,0.986585,0.095871,0.498645,0.074084,-0.165039
1752,0.116476,0.988177,0.099548,0.350519,0.142423,-0.155746
1753,0.098618,0.989755,0.103098,0.219253,0.265463,-0.211664
1754,0.080683,0.990948,0.107151,0.130941,0.435932,-0.29224
1755,0.065821,0.992092,0.106724,-0.037348,0.49213,-0.281742
1756,0.057258,0.99375,0.095671,0.058297,0.551813,-0.1051619999999999
1757,0.058094,0.995531,0.07426,-0.048664,0.421004,-0.141429
