,gravity.x,gravity.y,gravity.z,userAcceleration.x,userAcceleration.y,userAcceleration.z
0,-0.4655729999999999,0.373189,-0.802477,0.000256,-0.0517929999999999,0.230593
1,-0.470268,0.352047,-0.809264,-0.004952,-0.048657,0.217452
2,-0.470841,0.340378,-0.8139109999999999,0.005021,-0.11531,0.169501
3,-0.467974,0.337899,-0.816592,0.026812,-0.153664,0.162021
4,-0.462918,0.344614,-0.8166680000000001,0.082547,-0.2183929999999999,0.082095
5,-0.457236,0.360373,-0.813059,0.029074,-0.161918,0.028254
6,-0.450284,0.384336,-0.805934,-0.0154139999999999,-0.13162,-0.00205
7,-0.440119,0.41575,-0.7958930000000001,-0.133276,0.02056,-0.287405
8,-0.431658,0.4473399999999999,-0.7832979999999999,-0.130338,0.060915,-0.290951
9,-0.421983,0.475255,-0.77205,-0.7009569999999999,1.217189,-0.4716939999999999
10,-0.4212109999999999,0.496051,-0.7592840000000001,-0.0796429999999999,0.8519260000000001,-0.568383
11,-0.414354,0.517313,-0.748797,-0.016493,-0.437159,0.5325949999999999
12,-0.395543,0.560063,-0.727924,-0.194072,-0.448613,0.377612
13,-0.38981,0.600582,-0.698103,-0.1039799999999999,0.417835,0.318586
14,-0.38049,0.639418,-0.6681090000000001,-0.194629,0.582171,0.1736329999999999
15,-0.374126,0.670931,-0.6402180000000001,-0.274296,0.439284,0.143575
16,-0.367976,0.697554,-0.614825,-0.093556,0.078218,0.105074
17,-0.360271,0.724676,-0.587408,0.015208,-0.136266,0.0826929999999999
18,-0.351777,0.753364,-0.555601,0.070512,-0.058158,0.139769
19,-0.342427,0.78315,-0.519054,0.057469,0.0505139999999999,0.177592
20,-0.333455,0.811772,-0.4794069999999999,0.0456279999999999,-0.022053,0.156531
21,-0.325423,0.8368680000000001,-0.440167,0.090681,-0.0773929999999999,0.131604
22,-0.317858,0.8584860000000001,-0.402447,0.140535,-0.099713,0.103817
23,-0.310909,0.877344,-0.365512,0.139491,-0.092905,0.054782
24,-0.308137,0.892049,-0.330601,0.096635,-0.154652,0.018955
25,-0.308639,0.903165,-0.29838,0.023132,-0.271787,0.033228
26,-0.310136,0.912303,-0.267423,-0.1178579999999999,-0.104426,0.003065
27,-0.3124,0.920507,-0.2346659999999999,-0.092873,0.004893,0.041414
28,-0.312444,0.927822,-0.203767,0.1257069999999999,0.1150549999999999,0.1127329999999999
29,-0.3099139999999999,0.933861,-0.178471,0.1177599999999999,0.081916,0.0848889999999999
30,-0.307353,0.938407,-0.157866,0.1207829999999999,0.034676,0.0562429999999999
31,-0.305774,0.941934,-0.138771,-0.017803,0.00109,-0.0140449999999999
32,-0.30579,0.944609,-0.119167,-0.017223,0.02646,-0.036504
33,-0.306628,0.946625,-0.099375,0.051364,0.025848,-0.084097
34,-0.3058889999999999,0.948566,-0.081547,0.034877,0.0310329999999999,-0.080684
35,-0.304127,0.950463,-0.064204,0.067158,0.0951299999999999,0.0085849999999999
36,-0.303347,0.951703,-0.047289,0.079027,0.139849,0.035646
37,-0.30411,0.952113,-0.0315149999999999,-0.1641369999999999,0.167379,-0.009134
38,-0.304244,0.952443,-0.016815,-0.270128,0.145946,-0.138596
39,-0.304996,0.952337,-0.005116,-0.1844299999999999,0.145166,-0.155056
40,-0.309404,0.950926,0.0017399999999999,-0.089827,0.267442,-0.076188
41,-0.316224,0.948677,0.002848,-0.120864,0.354256,-0.078608
42,-0.322651,0.946513,-0.001738,-0.0641289999999999,0.481938,0.1572859999999999
43,-0.327248,0.94474,-0.01918,-0.243827,0.355308,0.306046
44,-0.33128,0.942357,-0.047025,-0.304829,-0.022603,0.118513
45,-0.345033,0.935248,-0.079105,-0.372847,0.061548,-0.00346
46,-0.366291,0.923198,-0.116324,-0.2832449999999999,0.218328,-0.083657
47,-0.3844599999999999,0.90921,-0.1597559999999999,-0.035126,0.322342,-0.062397
48,-0.39725,0.890854,-0.22038,0.149233,0.337387,-0.044924
49,-0.405006,0.8676520000000001,-0.2883489999999999,0.166145,0.322472,0.10564
50,-0.405382,0.845725,-0.347002,0.053759,0.176843,0.1026319999999999
51,-0.40697,0.825583,-0.390877,-0.003461,0.070764,0.202233
52,-0.408995,0.801392,-0.436453,-0.149523,-0.197403,0.317892
53,-0.413558,0.769306,-0.486965,-0.156907,-0.388126,0.296612
54,-0.420839,0.731853,-0.535987,-0.083219,-0.462765,0.235236
55,-0.427204,0.690974,-0.583137,0.03516,-0.378474,0.209129
56,-0.432863,0.6490100000000001,-0.62563,0.147676,-0.0526509999999999,0.183308
57,-0.441882,0.60696,-0.660559,0.116534,0.0255479999999999,0.265036
58,-0.451547,0.563706,-0.69162,0.055459,0.048858,0.230057
59,-0.461551,0.518618,-0.719725,0.046161,0.100019,0.3052809999999999
60,-0.469528,0.473933,-0.7449359999999999,0.009017,0.059239,0.2162489999999999
61,-0.475943,0.433747,-0.765075,0.039572,-0.083375,0.139282
62,-0.481705,0.399577,-0.779934,0.063111,-0.155864,0.201275
63,-0.485154,0.371926,-0.791388,0.041932,-0.153054,0.226202
64,-0.484731,0.3543699999999999,-0.79966,0.063542,-0.2102969999999999,0.192101
65,-0.480418,0.349377,-0.804446,0.13473,-0.238048,0.147128
66,-0.472563,0.358601,-0.8050390000000001,0.088042,-0.226003,0.142945
67,-0.4652489999999999,0.379738,-0.799588,0.001778,-0.201546,0.054059
68,-0.458758,0.407066,-0.789833,-0.014325,-0.04583,-0.217049
69,-0.454978,0.436014,-0.776457,-0.0184569999999999,0.006719,-0.343737
70,-0.451635,0.463866,-0.762137,-0.764369,1.449693,-0.6756220000000001
71,-0.4379979999999999,0.4897899999999999,-0.753831,-0.542974,1.158113,-0.4571979999999999
72,-0.4385189999999999,0.508359,-0.741128,-0.028049,0.492251,0.275445
73,-0.417333,0.5443479999999999,-0.727679,-0.191065,-0.654822,0.354312
74,-0.411792,0.583712,-0.6997899999999999,-0.198376,-0.2401449999999999,0.235618
75,-0.405469,0.616546,-0.6748810000000001,-0.2867,0.502671,0.099579
76,-0.404174,0.645601,-0.647951,-0.313797,0.214659,0.1464099999999999
77,-0.406431,0.671343,-0.619766,-0.066744,-0.007647,0.132858
78,-0.4067139999999999,0.6981649999999999,-0.589192,-0.005091,-0.045699,0.117069
79,-0.406064,0.725711,-0.555385,0.0910769999999999,0.112622,0.126552
80,-0.40324,0.75469,-0.51753,0.070659,0.174432,0.124998
81,-0.396541,0.7847970000000001,-0.476284,0.103572,0.194421,0.164196
82,-0.386763,0.8145899999999999,-0.432267,0.179503,-0.091232,0.200074
83,-0.3750239999999999,0.841535,-0.38881,0.198816,-0.316754,0.187058
84,-0.366953,0.862208,-0.349199,0.132426,-0.3094739999999999,0.127839
85,-0.364991,0.8779450000000001,-0.309824,0.044282,-0.1527099999999999,0.075175
86,-0.364832,0.891069,-0.2699809999999999,-0.02204,-0.067965,0.030982
87,-0.361788,0.902796,-0.2325179999999999,-0.007795,-0.042078,0.008
88,-0.356077,0.91349,-0.19683,0.00511,-0.045692,0.009727
89,-0.350927,0.922667,-0.1597859999999999,0.036016,0.003221,0.090237
90,-0.347684,0.929213,-0.125197,0.006726,-0.006163,0.142913
91,-0.3461329999999999,0.933065,-0.097859,0.0009339999999999,-0.052908,0.1163829999999999
92,-0.345027,0.935954,-0.070293,-0.038838,-0.006495,0.036068
93,-0.345932,0.937287,-0.0426389999999999,0.049424,0.170989,0.0026449999999999
94,-0.3447739999999999,0.938443,-0.02121,0.122011,0.103549,-0.019577
95,-0.341544,0.939825,-0.008424,0.082191,0.014078,-0.0836929999999999
96,-0.338966,0.94079,0.003073,0.03437,0.048361,-0.113394
97,-0.3376159999999999,0.941136,0.016498,-0.007065,0.062724,-0.039936
98,-0.336079,0.941467,0.026157,-0.168544,0.095597,-0.123004
99,-0.335125,0.941617,0.032257,-0.218525,0.136096,-0.138809
100,-0.336809,0.940747,0.039343,-0.2777239999999999,0.216587,-0.050268
101,-0.342898,0.938318,0.044414,-0.174452,0.487631,0.090062
102,-0.348916,0.936269,0.040638,-0.17385,0.484737,0.081951
103,-0.353925,0.934871,0.027311,-0.3163019999999999,0.418797,0.035753
104,-0.358992,0.9333,0.008212,-0.263887,0.115131,0.0532809999999999
105,-0.368092,0.929639,-0.01648,-0.212109,0.065402,0.109864
106,-0.380748,0.923226,-0.051746,-0.198598,0.170097,0.094486
107,-0.3962489999999999,0.912502,-0.101584,-0.218588,0.35738,-0.03927
108,-0.414437,0.895083,-0.1645049999999999,-0.174354,0.336042,0.018326
109,-0.430361,0.871567,-0.234851,-0.084151,0.316528,0.072009
110,-0.438151,0.8473379999999999,-0.300059,0.094035,0.307309,0.087169
111,-0.444122,0.8223879999999999,-0.355567,0.108078,0.1685019999999999,0.137854
112,-0.4478439999999999,0.792395,-0.414174,0.063063,-0.031409,0.22141
113,-0.449039,0.754376,-0.478828,-0.052609,-0.276333,0.139504
114,-0.456713,0.710625,-0.535183,-0.039122,-0.287423,0.186398
115,-0.468973,0.6640590000000001,-0.5823109999999999,0.067148,-0.139157,0.2470909999999999
116,-0.475675,0.616975,-0.626955,0.089124,-0.068391,0.319063
117,-0.478617,0.570711,-0.667242,0.1393829999999999,-0.046068,0.371191
118,-0.4808779999999999,0.524558,-0.702561,0.214673,-0.121894,0.308152
119,-0.488195,0.475846,-0.731597,0.2477619999999999,-0.14676,0.28163
120,-0.497674,0.428368,-0.754201,0.203149,-0.144341,0.375142
121,-0.50731,0.385263,-0.770848,0.153169,-0.166101,0.278279
122,-0.514312,0.351584,-0.782221,0.074844,-0.1609259999999999,0.269144
123,-0.516019,0.328185,-0.791212,0.000592,-0.129821,0.203001
124,-0.513854,0.317082,-0.797127,0.048888,-0.239369,0.1144329999999999
125,-0.508965,0.321248,-0.7985939999999999,0.069741,-0.255452,0.105173
126,-0.502438,0.339434,-0.795197,-0.037281,-0.214022,0.094743
127,-0.495405,0.366919,-0.7873640000000001,-0.098284,-0.0225889999999999,-0.360478
128,-0.488504,0.399005,-0.775988,-0.049323,-0.005343,-0.369856
129,-0.4838909999999999,0.430595,-0.761863,0.05074,-0.083076,-0.2179489999999999
130,-0.471074,0.467513,-0.7480100000000001,-0.708721,1.536058,-0.870215
131,-0.472734,0.487162,-0.734297,0.100664,0.412481,0.473632
132,-0.44977,0.5194810000000001,-0.726529,0.033449,-0.8301350000000001,0.593152
133,-0.4324229999999999,0.563546,-0.703863,-0.198741,-0.294152,0.3023889999999999
134,-0.4220529999999999,0.600835,-0.678871,-0.359197,0.4896649999999999,0.129997
135,-0.415062,0.634081,-0.652428,-0.420906,0.396528,0.178123
136,-0.4130479999999999,0.664718,-0.622526,-0.1844869999999999,0.018479,0.183118
137,-0.409346,0.696328,-0.589542,-0.06035,-0.12307,0.156879
138,-0.404759,0.727692,-0.553743,0.006032,-0.070892,0.065171
139,-0.398559,0.7594270000000001,-0.514215,0.099426,0.065708,0.033685
140,-0.388995,0.793708,-0.46766,0.052752,0.133996,0.09826
141,-0.375473,0.82765,-0.417146,0.065139,-0.018706,0.133668
142,-0.360566,0.857051,-0.368036,0.206666,-0.160503,0.101694
143,-0.346858,0.8815149999999999,-0.320337,0.179011,-0.141631,0.100336
144,-0.336594,0.901149,-0.273182,0.082352,-0.147869,0.088398
145,-0.327652,0.916325,-0.2301889999999999,-0.0660549999999999,-0.223881,0.047327
146,-0.321387,0.927378,-0.191502,-0.130044,-0.03245,0.032719
147,-0.320195,0.934543,-0.155231,-0.107189,0.0122189999999999,0.03667
148,-0.317403,0.940606,-0.120444,0.035039,-0.09475,0.1231299999999999
149,-0.31318,0.945299,-0.091213,-0.04856,-0.060548,0.094677
150,-0.312085,0.947728,-0.066372,-0.063571,0.01176,0.067547
151,-0.312693,0.94895,-0.041328,0.020243,0.054407,0.023796
152,-0.310881,0.950212,-0.020981,0.122069,-0.076738,-0.0610799999999999
153,-0.306748,0.951773,-0.004939,0.094956,-0.08721,-0.070531
154,-0.301706,0.953365,0.0076939999999999,0.009211,0.012059,-0.0582
155,-0.299333,0.953923,0.020533,0.022736,0.0014609999999999,-0.013575
156,-0.296595,0.954387,0.0341529999999999,0.020487,-0.0401269999999999,-0.022633
157,-0.293605,0.954763,0.047057,-0.014806,-0.187749,-0.071685
158,-0.292404,0.954288,0.061848,-0.080323,-0.024936,-0.030659
159,-0.2923719999999999,0.953193,0.077014,-0.063967,0.048211,-0.059527
160,-0.292496,0.951796,0.092302,-0.018768,0.175279,-0.087465
161,-0.293765,0.949778,0.107764,-0.053251,0.2377369999999999,-0.071371
162,-0.298336,0.947031,0.118818,-0.237461,0.375357,-0.033109
163,-0.304913,0.944713,0.120565,-0.137577,0.5546770000000001,0.067225
164,-0.3100239999999999,0.944043,0.112508,-0.281209,0.493854,-0.04392
165,-0.312582,0.944667,0.099435,-0.381831,0.392263,-0.1177
166,-0.317207,0.944208,0.088545,-0.237038,0.272055,-0.037886
167,-0.3246179999999999,0.943222,0.070325,-0.076093,0.289856,0.036761
168,-0.333515,0.941787,0.042376,-0.080044,0.297303,0.067365
169,-0.343787,0.939042,-0.000516,-0.145776,0.214125,-0.03316
170,-0.355348,0.932837,-0.0594539999999999,-0.173141,0.072305,-0.0774929999999999
171,-0.365083,0.922189,-0.12757,-0.133635,0.042045,-0.0488829999999999
172,-0.371551,0.907452,-0.196147,-0.171646,-0.018688,0.063288
173,-0.3785679999999999,0.8904190000000001,-0.252651,-0.084811,-0.074395,0.167019
174,-0.383764,0.8733200000000001,-0.300052,-0.023264,-0.066817,0.246417
175,-0.381701,0.857701,-0.344452,0.091937,-0.245274,0.290604
176,-0.381904,0.8414790000000001,-0.382173,0.025596,-0.395129,0.432039
177,-0.389717,0.820566,-0.418074,-0.021934,-0.390696,0.391371
178,-0.398005,0.793769,-0.4599109999999999,-0.137151,-0.29412,0.109615
179,-0.40774,0.7653909999999999,-0.4979159999999999,-0.058904,-0.192011,0.21395
180,-0.420852,0.740557,-0.523884,-0.021363,-0.132159,0.260105
181,-0.433105,0.7170880000000001,-0.546078,0.015884,-0.1140299999999999,0.3256489999999999
182,-0.442385,0.694912,-0.566912,0.03435,-0.195919,0.267946
183,-0.449054,0.676525,-0.583661,0.04111,-0.2436489999999999,0.226147
184,-0.453982,0.664137,-0.5939840000000001,0.0641809999999999,-0.2485949999999999,0.255926
185,-0.457225,0.6577189999999999,-0.598621,0.063625,-0.250096,0.228778
186,-0.459692,0.658744,-0.595597,0.087011,-0.262702,0.227509
187,-0.460368,0.668355,-0.584259,0.120326,-0.24323,0.272659
188,-0.457787,0.68379,-0.568206,0.092446,-0.2458929999999999,0.2149489999999999
189,-0.451076,0.704781,-0.5475479999999999,0.022655,-0.3083579999999999,0.128389
190,-0.442034,0.7315189999999999,-0.519116,-0.0474529999999999,-0.419705,0.085064
191,-0.431554,0.762965,-0.481289,-0.06901,-0.395351,-0.021412
192,-0.419543,0.797397,-0.433745,-0.020857,-0.146244,-0.197907
193,-0.407166,0.829799,-0.381632,-0.039093,0.419927,-0.439382
194,-0.4010559999999999,0.850849,-0.339415,-0.213461,1.272473,-0.490083
195,-0.400776,0.8495540000000001,-0.34297,-0.6797449999999999,0.985544,-0.446107
196,-0.3930329999999999,0.8329629999999999,-0.389475,-0.434893,-0.554261,-0.867986
197,-0.394917,0.8201790000000001,-0.413931,0.126943,-0.829975,0.077948
198,-0.398898,0.818796,-0.412851,0.084338,-0.242609,0.407114
199,-0.397318,0.8401190000000001,-0.36923,-0.378744,0.6428520000000001,0.531217
200,-0.39224,0.8622770000000001,-0.32034,-0.458025,0.0283329999999999,0.412854
201,-0.380328,0.875659,-0.297597,-0.293516,-0.229113,0.24616
202,-0.3688639999999999,0.8836350000000001,-0.288305,-0.10245,-0.35443,0.10224
203,-0.359769,0.8909870000000001,-0.276946,0.007932,-0.136761,0.387557
204,-0.351729,0.903046,-0.246546,0.021834,-0.0833899999999999,0.363108
205,-0.34613,0.916829,-0.199019,0.0582419999999999,0.096126,0.344557
206,-0.3381389999999999,0.928327,-0.154465,-0.043864,0.218294,0.203766
207,-0.3266139999999999,0.936985,-0.1239779999999999,-0.094788,0.154354,0.145417
208,-0.309847,0.945021,-0.104499,-0.126127,-0.048292,0.052222
209,-0.293,0.952335,-0.084837,-0.176482,-0.177951,0.043318
210,-0.280828,0.95798,-0.058294,-0.150507,-0.200396,0.022925
211,-0.27282,0.961423,-0.03498,-0.0524059999999999,-0.131833,-0.0137259999999999
212,-0.268041,0.963206,-0.019383,-0.047755,-0.0005139999999999,-0.055416
213,-0.263853,0.964554,-0.002254,-0.030917,0.01712,-0.006504
214,-0.257678,0.966003,0.0206879999999999,0.016605,0.011323,-0.0306529999999999
215,-0.248661,0.967619,0.043226,0.039249,0.0159169999999999,-0.076734
216,-0.238145,0.969288,0.061276,0.040788,-0.010288,-0.148999
217,-0.229184,0.970222,0.078292,-0.051532,-0.095161,-0.121352
218,-0.222651,0.970089,0.096638,-0.110937,-0.1432,-0.132404
219,-0.218857,0.969017,0.114428,-0.116058,-0.1128609999999999,-0.167925
220,-0.217126,0.967147,0.132172,-0.066183,-0.0537559999999999,-0.162446
221,-0.215184,0.964658,0.152039,-0.058467,-0.054777,-0.147232
222,-0.213902,0.961097,0.174714,-0.070873,-0.027991,-0.1632849999999999
223,-0.214852,0.956524,0.197195,-0.068656,0.047062,-0.24143
224,-0.214742,0.952327,0.216663,-0.056376,0.127644,-0.257679
225,-0.213165,0.949434,0.230477,-0.058686,0.210417,-0.3139889999999999
226,-0.210112,0.947358,0.241555,-0.017915,0.21675,-0.077477
227,-0.211455,0.944765,0.250377,-0.380968,0.232878,-0.112819
228,-0.217744,0.94258,0.253205,-0.547652,0.1536269999999999,-0.245682
229,-0.221557,0.943013,0.2482349999999999,-0.376526,0.150996,-0.3120159999999999
230,-0.226386,0.944266,0.238945,-0.139214,0.293222,-0.082939
231,-0.233815,0.946916,0.220601,-0.026424,0.294555,-0.030233
232,-0.24158,0.951907,0.188403,0.050525,0.164883,0.01753
233,-0.2511489999999999,0.957686,0.140523,-0.109676,0.162706,0.09788
234,-0.267497,0.960031,0.08229,-0.264577,0.183295,0.14467
235,-0.287972,0.957438,0.019263,-0.437034,0.220632,0.01896
236,-0.3047,0.951577,-0.040566,-0.36745,0.063971,0.017418
237,-0.31022,0.945681,-0.097158,0.023873,-0.008211,0.042059
238,-0.316026,0.937291,-0.146973,0.143754,0.080287,0.182587
239,-0.328905,0.924676,-0.191793,-0.004759,0.252371,0.292028
240,-0.346527,0.907301,-0.238146,-0.182495,0.078859,0.273989
241,-0.362128,0.8868790000000001,-0.286878,-0.2194449999999999,-0.119896,0.354292
242,-0.3739639999999999,0.8635510000000001,-0.338263,-0.089064,-0.181499,0.302832
243,-0.384596,0.836665,-0.38996,-0.023378,-0.1358589999999999,0.280128
244,-0.396553,0.808291,-0.435206,0.035881,-0.1635309999999999,0.13473
245,-0.4112439999999999,0.782674,-0.467218,0.073902,-0.2913719999999999,0.10676
246,-0.426796,0.763705,-0.484349,0.076622,-0.306048,0.136936
247,-0.4400439999999999,0.75266,-0.489753,0.093532,-0.328725,0.17504
248,-0.449495,0.748957,-0.486839,0.035509,-0.295481,0.163169
249,-0.454383,0.751699,-0.477994,0.043525,-0.327612,0.135266
250,-0.4550979999999999,0.759846,-0.464234,0.085912,-0.363865,0.111527
251,-0.451989,0.773243,-0.444742,0.137475,-0.3690219999999999,0.025918
252,-0.445284,0.791752,-0.4181439999999999,0.118471,-0.363865,-0.046532
253,-0.435204,0.81493,-0.382727,0.0834429999999999,-0.317463,-0.182993
254,-0.422879,0.8400059999999999,-0.339934,-0.02605,0.086263,-0.411867
255,-0.414055,0.859676,-0.299178,-0.0942,0.408467,-0.5624100000000001
256,-0.415813,0.863296,-0.286027,-0.566472,1.242844,-0.639785
257,-0.421872,0.849757,-0.316117,-0.52283,-0.6954899999999999,-0.75946
258,-0.423409,0.8364469999999999,-0.347958,0.300957,-1.03327,-0.431431
259,-0.426772,0.834584,-0.3483219999999999,0.400481,-0.22501,0.17132
260,-0.4237579999999999,0.849706,-0.313722,0.1771299999999999,0.415431,0.412126
261,-0.417753,0.867799,-0.269069,-0.8396319999999999,1.138991,0.49499
262,-0.4100069999999999,0.877368,-0.249218,-0.369732,0.052777,0.216457
263,-0.407157,0.8797370000000001,-0.2455139999999999,0.120002,-0.673377,0.092194
264,-0.402924,0.8806780000000001,-0.2490969999999999,0.299164,-0.730776,0.4078489999999999
265,-0.392491,0.892136,-0.223685,0.00655,-0.315155,0.286993
266,-0.397596,0.903963,-0.157347,0.039701,0.128553,0.322828
267,-0.402259,0.911638,-0.084223,0.112845,0.537719,0.2317139999999999
268,-0.39374,0.918301,-0.04099,0.158633,0.174839,0.082585
269,-0.381808,0.923984,-0.021543,0.089099,-0.0130949999999999,0.045103
270,-0.367334,0.930008,-0.011748,0.011423,-0.099396,-0.023042
271,-0.355196,0.934766,0.005966,-0.036818,-0.114652,-0.023788
272,-0.349585,0.936197,0.036238,-0.003626,-0.03927,0.061159
273,-0.346592,0.936161,0.058836,0.0127599999999999,-0.009526,0.04529
274,-0.3431389999999999,0.936525,0.071858,0.063537,0.058806,0.023433
275,-0.338171,0.937066,0.086792,0.073325,0.072791,0.0152129999999999
276,-0.333779,0.936578,0.106762,0.055611,0.04238,0.006168
277,-0.330406,0.935449,0.1255079999999999,-0.007073,-0.11155,-0.046529
278,-0.3270349999999999,0.934265,0.14206,-0.011466,-0.162277,-0.075043
279,-0.326156,0.931771,0.159402,-0.0204169999999999,-0.169366,-0.086419
280,-0.327607,0.92803,0.177251,-0.046264,-0.049765,-0.155751
281,-0.330049,0.924128,0.192452,-0.033492,0.0606429999999999,-0.302026
282,-0.3311389999999999,0.919958,0.209781,-0.032402,0.064814,-0.319355
283,-0.333067,0.916239,0.222611,0.053282,0.029363,-0.394944
284,-0.333546,0.913833,0.231603,0.188435,0.1088109999999999,-0.331822
285,-0.333966,0.914151,0.229737,0.415524,0.330997,-0.106126
286,-0.3389,0.914403,0.221353,-0.116819,0.383448,-0.090387
287,-0.341307,0.916076,0.210471,-0.47484,0.188355,-0.195792
288,-0.337019,0.921585,0.19257,-0.1436329999999999,0.284638,-0.1241039999999999
289,-0.335576,0.92824,0.160451,0.137013,0.269026,-0.074697
290,-0.33989,0.932825,0.119574,-0.092468,0.174246,0.054696
291,-0.350957,0.933922,0.067862,-0.344661,0.085045,0.12327
292,-0.366104,0.930537,0.0074569999999999,-0.292572,0.054998,0.059346
293,-0.373629,0.92609,-0.0524,0.058474,0.375744,0.041536
294,-0.369744,0.923582,-0.1013559999999999,0.116219,0.440691,0.138954
295,-0.365315,0.921216,-0.133774,0.044545,0.369525,0.211975
296,-0.366543,0.917751,-0.152868,0.01878,0.097859,0.614202
297,-0.372455,0.910954,-0.177281,0.0077239999999999,0.028285,0.6156050000000001
298,-0.375228,0.900013,-0.221744,0.086028,0.006023,0.437381
299,-0.377344,0.8835709999999999,-0.277316,0.0253849999999999,-0.030437,0.337054
300,-0.378611,0.86195,-0.337176,-0.0062,-0.038768,0.335024
301,-0.383727,0.837118,-0.389844,-0.143082,-0.095328,0.321606
302,-0.387504,0.8125720000000001,-0.435384,-0.106774,-0.25703,0.2111719999999999
303,-0.3859039999999999,0.791565,-0.47381,0.051736,-0.433487,-0.060995
304,-0.380811,0.779906,-0.496712,0.043394,-0.450713,0.033608
305,-0.378529,0.7784979999999999,-0.500649,-0.035396,-0.340388,0.157555
306,-0.373244,0.783287,-0.497135,0.001723,-0.294548,0.2447389999999999
307,-0.36698,0.79194,-0.488005,0.107642,-0.383447,0.2371199999999999
308,-0.363203,0.802986,-0.472535,0.06587,-0.376763,0.152528
309,-0.361149,0.818078,-0.447563,0.0694309999999999,-0.331094,-0.104698
310,-0.364328,0.836992,-0.4082909999999999,0.096292,-0.203096,-0.2169989999999999
311,-0.376238,0.854558,-0.358003,-0.018445,-0.043736,-0.285841
312,-0.393428,0.862182,-0.319136,-0.453756,0.8754129999999999,-0.510683
313,-0.40315,0.8573879999999999,-0.319916,-0.481997,0.5329010000000001,-0.721222
314,-0.408748,0.84399,-0.3472699999999999,0.029369,-0.172558,-0.401174
315,-0.4114939999999999,0.836966,-0.360767,0.587504,-0.459951,-0.378476
316,-0.4126189999999999,0.8442350000000001,-0.342059,0.7213189999999999,-0.076824,0.205646
317,-0.401701,0.862082,-0.3089369999999999,0.159041,0.510843,0.33033
318,-0.386153,0.8770629999999999,-0.285722,-0.57013,0.818891,0.189973
319,-0.378981,0.884357,-0.272537,-0.280427,-0.212421,0.373733
320,-0.381451,0.884417,-0.268873,-0.073399,-0.488756,0.333464
321,-0.387761,0.8809799999999999,-0.271121,0.16271,-0.603636,0.425296
322,-0.394651,0.8845379999999999,-0.248665,0.120207,-0.116029,0.3230659999999999
323,-0.407838,0.8908860000000001,-0.199952,0.155611,0.3840469999999999,0.4192359999999999
324,-0.417776,0.895899,-0.151054,0.16007,0.524602,0.506203
325,-0.4138409999999999,0.902436,-0.119726,0.172828,0.3844599999999999,0.273916
326,-0.401557,0.910815,-0.095692,0.1970589999999999,0.2058849999999999,0.305638
327,-0.388129,0.918635,-0.0738419999999999,0.05326,0.052083,0.247411
328,-0.378755,0.924193,-0.048993,-0.086653,-0.108641,0.106885
329,-0.376397,0.926188,-0.022083,-0.064994,-0.210414,-0.018903
330,-0.377613,0.925954,-0.002363,-0.0736049999999999,-0.210332,-0.060702
331,-0.3791219999999999,0.925332,0.003797,0.021105,-0.089044,-0.169905
332,-0.380386,0.924802,0.006002,0.121017,-0.0043,-0.099767
333,-0.379614,0.924975,0.017394,0.120245,-0.0044729999999999,-0.111159
334,-0.377847,0.925127,0.036875,0.196893,-0.0621049999999999,0.136648
335,-0.3770679999999999,0.924394,0.057461,0.102196,-0.096498,0.170825
336,-0.376633,0.923187,0.076548,0.066452,-0.117874,0.09638
337,-0.376326,0.921485,0.096073,0.012541,-0.100211,-0.04044
338,-0.376476,0.918985,0.117124,-0.066044,-0.002451,-0.181303
339,-0.377506,0.915539,0.138789,-0.083446,0.007877,-0.239375
340,-0.379175,0.912009,0.156368,0.069009,0.061273,-0.2821619999999999
341,-0.380303,0.909932,0.165463,0.490853,0.31515,-0.067639
342,-0.382232,0.909391,0.163984,0.485199,0.402407,0.024584
343,-0.385578,0.909142,0.1574,-0.065457,0.380958,-0.136038
344,-0.3840369999999999,0.910679,0.152197,-0.263317,0.07397,-0.4011139999999999
345,-0.382827,0.913013,0.140841,-0.011963,0.043927,-0.457949
346,-0.386819,0.914093,0.121616,0.224344,0.211182,-0.182819
347,-0.393084,0.914967,0.091137,0.136355,0.2680619999999999,0.226261
348,-0.398338,0.915919,0.049045,-0.006905,0.280156,0.255551
349,-0.404069,0.914721,-0.000375,-0.384169,0.212827,0.145639
350,-0.4113819999999999,0.909733,-0.056022,-0.33053,0.06831,0.081092
351,-0.4166859999999999,0.90259,-0.108128,-0.258805,0.07504,0.029331
352,-0.414091,0.898056,-0.14837,-0.067446,0.379227,0.222436
353,-0.409566,0.894619,-0.178613,-0.042537,0.333897,0.286905
354,-0.407029,0.890595,-0.202873,-0.081497,0.141418,0.4871899999999999
355,-0.403991,0.88428,-0.234158,-0.029389,0.169339,0.456188
356,-0.404834,0.874749,-0.266297,-0.036893,0.082465,0.61229
357,-0.406904,0.859827,-0.30841,-0.030855,-0.0986269999999999,0.488968
358,-0.40934,0.8396309999999999,-0.357005,-0.105904,-0.1942299999999999,0.39329
359,-0.4163449999999999,0.816938,-0.399076,-0.184546,-0.277998,0.323942
360,-0.423308,0.796149,-0.432377,-0.118394,-0.27233,0.245198
361,-0.429383,0.780327,-0.454657,-0.021591,-0.2398,0.242087
362,-0.43283,0.7707109999999999,-0.467607,0.023635,-0.255178,0.234452
363,-0.43417,0.767281,-0.471984,0.033612,-0.2509699999999999,0.167663
364,-0.434406,0.7690229999999999,-0.468922,0.099644,-0.259761,0.139989
365,-0.434735,0.77409,-0.4602,0.005154,-0.2196469999999999,0.147822
366,-0.4327859999999999,0.7830199999999999,-0.446731,-0.0283649999999999,-0.268723,0.1094509999999999
367,-0.428697,0.796085,-0.4271529999999999,-0.000914,-0.302402,0.004088
368,-0.4242189999999999,0.813409,-0.397991,0.085748,-0.262857,-0.101948
369,-0.421583,0.8321370000000001,-0.360288,0.078123,0.04213,-0.209338
370,-0.423045,0.846992,-0.321914,-0.140141,0.806359,-0.231934
371,-0.426887,0.848842,-0.311811,-0.638588,0.5923350000000001,-0.444872
372,-0.423826,0.8341569999999999,-0.35291,-0.450167,-0.218495,-0.752482
373,-0.421407,0.819566,-0.388227,0.420095,-0.974198,-0.600618
374,-0.427967,0.8200290000000001,-0.379986,0.171772,0.348413,0.483593
375,-0.428556,0.8364090000000001,-0.341688,-0.0753799999999999,0.8944559999999999,0.520796
376,-0.425166,0.8523440000000001,-0.304525,-0.396154,0.498959,0.3171739999999999
377,-0.417314,0.8606719999999999,-0.29169,-0.028625,-0.2676699999999999,-0.065152
378,-0.409482,0.862611,-0.297014,0.084744,-0.4503189999999999,-0.051191
379,-0.405978,0.861931,-0.303722,0.172366,-0.397102,0.388638
380,-0.398758,0.8700559999999999,-0.289803,-0.041397,-0.110473,0.5049680000000001
381,-0.397096,0.8834,-0.2488139999999999,-0.01187,0.0220409999999999,0.462696
382,-0.396357,0.8948309999999999,-0.2053469999999999,0.127146,0.233007,0.328394
383,-0.391741,0.901941,-0.181739,0.121966,0.223471,0.0913
384,-0.386168,0.906805,-0.169022,0.092161,0.087687,0.078583
385,-0.373578,0.914355,-0.156149,0.052945,-0.073519,0.1009429999999999
386,-0.357012,0.924341,-0.134626,0.031572,-0.072077,0.085798
387,-0.348119,0.932375,-0.097355,0.011022,-0.028673,0.191426
388,-0.344488,0.936877,-0.0598039999999999,0.0123959999999999,0.0593389999999999,0.257451
389,-0.341805,0.939112,-0.034997,0.025323,0.059286,0.216882
390,-0.338734,0.940665,-0.019885,0.021519,0.038461,0.139971
391,-0.334403,0.942365,-0.010497,0.030341,0.007648,0.015075
392,-0.330209,0.9439,-0.000782,0.0522399999999999,0.036324,-0.001125
393,-0.327313,0.94483,0.012152,0.047345,0.042428,0.042398
394,-0.325078,0.945299,0.026837,0.060674,-0.010957,0.122348
395,-0.323159,0.945441,0.041171,0.072168,-0.039344,0.1073269999999999
396,-0.321115,0.94547,0.054367,0.075128,-0.0678,0.068711
397,-0.318182,0.945591,0.067849,0.0074519999999999,-0.092289,0.000449
398,-0.317517,0.944717,0.08172,0.00073,-0.107895,-0.044198
399,-0.315727,0.943782,0.097858,0.020469,-0.0778,-0.09145
400,-0.314129,0.942308,0.115596,0.069622,0.089583,-0.081554
401,-0.314508,0.939818,0.133455,0.08822,0.060747,-0.075258
402,-0.3148829999999999,0.937672,0.146979,0.134143,0.1126369999999999,-0.126044
403,-0.314015,0.936985,0.153088,0.1600079999999999,0.137997,-0.10127
404,-0.313037,0.937227,0.153609,-0.130643,0.16432,-0.108565
405,-0.315266,0.936403,0.154076,-0.321452,0.150664,-0.225426
406,-0.3165929999999999,0.936348,0.15167,-0.175168,0.083412,-0.402586
407,-0.31876,0.936699,0.144808,-0.015316,0.140251,-0.384477
408,-0.325578,0.935705,0.135783,0.075547,0.205393,-0.1114609999999999
409,-0.335032,0.934665,0.118905,0.146952,0.267316,0.079795
410,-0.343254,0.93502,0.088864,0.1205069999999999,0.1912309999999999,0.112797
411,-0.348995,0.935858,0.04854,-0.021946,0.062952,0.153089
412,-0.356854,0.934151,0.001279,-0.271549,0.084038,0.157642
413,-0.368407,0.928204,-0.051961,-0.300005,0.128407,0.08402
414,-0.377323,0.920158,-0.104513,-0.21954,0.194146,0.056143
415,-0.376492,0.913472,-0.154303,0.06184,0.2144579999999999,0.056449
416,-0.369785,0.9089,-0.192734,0.1782109999999999,0.2177469999999999,0.191819
417,-0.369638,0.903533,-0.216758,0.052637,0.190126,0.429542
418,-0.378317,0.894518,-0.2381199999999999,-0.12034,0.119611,0.4918729999999999
419,-0.386028,0.882078,-0.270017,-0.074452,-0.046339,0.389005
420,-0.391382,0.865705,-0.312032,-0.067923,-0.048505,0.417272
421,-0.397004,0.846108,-0.355638,-0.02568,-0.0599909999999999,0.3512889999999999
422,-0.402003,0.8243860000000001,-0.398462,-0.11234,-0.147994,0.249308
423,-0.4093469999999999,0.8039890000000001,-0.431309,-0.098313,-0.126301,0.259327
424,-0.418466,0.7874,-0.452635,-0.0542049999999999,-0.08223,0.265532
425,-0.4255,0.774859,-0.467477,-0.062125,-0.0306269999999999,0.1859829999999999
426,-0.427856,0.766467,-0.479019,-0.067368,-0.059512,0.1457369999999999
427,-0.426521,0.762219,-0.4869229999999999,-0.019906,-0.194119,0.096512
428,-0.4242479999999999,0.761306,-0.490325,0.097512,-0.2726429999999999,0.151031
429,-0.424175,0.7633300000000001,-0.487232,0.068813,-0.2425929999999999,0.164677
430,-0.424152,0.769668,-0.477177,0.071903,-0.209594,0.189884
431,-0.422906,0.780691,-0.46007,0.040032,-0.201925,0.182101
432,-0.420441,0.795638,-0.436097,0.036301,-0.213317,0.130921
433,-0.416477,0.813392,-0.406116,0.039463,-0.194099,-0.010083
434,-0.412884,0.8314219999999999,-0.371825,-0.022465,0.189131,-0.266527
435,-0.412684,0.8449979999999999,-0.340088,-0.082769,0.464542,-0.3640739999999999
436,-0.412443,0.8461690000000001,-0.337459,-0.425677,0.002693,-0.684865
437,-0.406225,0.832413,-0.376907,-0.2170349999999999,-0.503312,-0.8707590000000001
438,-0.40489,0.820469,-0.403589,0.113264,-0.796818,-0.643927
439,-0.414005,0.818891,-0.3975,0.398258,-0.286146,0.400948
440,-0.415258,0.83244,-0.366869,-0.076365,0.6771119999999999,0.393725
441,-0.4087199999999999,0.8488969999999999,-0.335127,-0.437501,0.984965,0.21443
442,-0.405504,0.8597739999999999,-0.310391,-0.393385,0.420987,0.194348
443,-0.401356,0.8661200000000001,-0.29789,-0.029354,-0.5189819999999999,0.177589
444,-0.393623,0.8666860000000001,-0.3064409999999999,0.214057,-0.693559,0.302504
445,-0.382804,0.8715219999999999,-0.306431,0.097586,-0.212525,0.497547
446,-0.379822,0.8840399999999999,-0.27239,-0.025436,0.091271,0.416952
447,-0.383718,0.8962870000000001,-0.222302,0.006612,0.199493,0.359066
448,-0.382085,0.904757,-0.18818,0.056996,0.305615,0.021462
449,-0.374335,0.911581,-0.169939,0.0987919999999999,0.124857,0.07889
450,-0.357904,0.92077,-0.155161,0.1095059999999999,0.044135,0.077585
451,-0.338701,0.931625,-0.13169,-0.071653,-0.069138,0.2255309999999999
452,-0.327336,0.939441,-0.101436,-0.088939,-0.0947139999999999,0.263286
453,-0.32201,0.943674,-0.076,-0.044583,-0.04516,0.188671
454,-0.320362,0.945309,-0.061197,0.064549,0.054233,0.131052
455,-0.317797,0.946615,-0.0539539999999999,0.0884419999999999,0.070582,0.077285
456,-0.3132,0.948545,-0.046421,0.081296,0.033435,0.053623
457,-0.309123,0.950478,-0.031937,0.0661269999999999,-0.033867,0.108628
458,-0.305558,0.952072,-0.013372,0.066514,-0.0610809999999999,0.122548
459,-0.301939,0.953308,0.004705,0.080488,-0.051605,0.135294
460,-0.298799,0.954043,0.022475,0.059175,-0.063495,0.092439
461,-0.296073,0.954309,0.040241,0.041846,-0.109323,0.054562
462,-0.292906,0.954362,0.058168,0.0352,-0.111039,-0.050417
463,-0.291398,0.953501,0.076847,0.055375,-0.010935,-0.054112
464,-0.289953,0.95201,0.097913,0.062246,0.086946,-0.051572
465,-0.287731,0.950304,0.118813,0.059459,0.022002,-0.125878
466,-0.285396,0.949178,0.132633,0.08247,0.105875,-0.218509
467,-0.28398,0.94894,0.137294,0.141997,0.233677,-0.2187909999999999
468,-0.284669,0.948581,0.138347,-0.077422,0.211423,-0.054561
469,-0.288219,0.947212,0.1403599999999999,-0.4314159999999999,0.101433,-0.046107
470,-0.290967,0.946839,0.137168,-0.428668,0.101806,-0.0429149999999999
471,-0.294269,0.947041,0.128461,-0.135755,0.180691,-0.2229429999999999
472,-0.300724,0.946675,0.1155609999999999,0.066441,0.405864,0.0537659999999999
473,-0.307514,0.947018,0.092606,0.144093,0.304096,0.129699
474,-0.311706,0.948389,0.058151,0.14273,0.085898,0.1118319999999999
475,-0.317868,0.948029,0.013603,-0.2073849999999999,-0.1193849999999999,0.1206599999999999
476,-0.330241,0.943138,-0.037646,-0.267904,-0.128303,0.138308
477,-0.347692,0.932861,-0.0941549999999999,-0.2852119999999999,-0.068558,0.177468
478,-0.358755,0.92104,-0.151547,-0.1227359999999999,0.149593,0.040112
479,-0.362211,0.909762,-0.202787,0.2696199999999999,0.2677739999999999,0.14514
480,-0.364471,0.899617,-0.240496,0.258209,0.3493,0.250979
481,-0.372247,0.89031,-0.262237,-0.048743,0.30456,0.486739
482,-0.380209,0.878425,-0.289481,-0.077936,0.009316,0.405784
483,-0.3850389999999999,0.860958,-0.332395,-0.125031,-0.091838,0.411588
484,-0.388759,0.8378899999999999,-0.38314,-0.1480759999999999,-0.14975,0.293067
485,-0.392097,0.811818,-0.4326689999999999,-0.087212,-0.060903,0.087881
486,-0.3976179999999999,0.7872140000000001,-0.471366,-0.046138,-0.017469,0.111259
487,-0.403228,0.767305,-0.498639,0.019943,-0.052202,0.161466
488,-0.40801,0.7520399999999999,-0.517644,0.023138,-0.140223,0.218526
489,-0.412255,0.740451,-0.53082,-0.066643,-0.18053,0.24014
490,-0.415012,0.7339100000000001,-0.5377109999999999,-0.068371,-0.187569,0.222709
491,-0.417059,0.733305,-0.536953,0.101461,-0.264311,0.268902
492,-0.419088,0.7371409999999999,-0.530076,0.142019,-0.286213,0.266801
493,-0.420415,0.745322,-0.5174350000000001,0.093373,-0.2380429999999999,0.235758
494,-0.419892,0.75869,-0.498068,0.04979,-0.276192,0.156607
495,-0.416781,0.7774270000000001,-0.471054,0.005588,-0.28881,0.069245
496,-0.410172,0.801945,-0.43432,0.003953,-0.239704,-0.114462
497,-0.404261,0.826675,-0.391371,-0.02445,0.4190979999999999,-0.398363
498,-0.401821,0.842608,-0.358528,-0.044575,0.77725,-0.5042800000000001
499,-0.395331,0.839623,-0.3724739999999999,-0.303369,1.050438,-0.683068
500,-0.395424,0.823728,-0.406327,-0.027961,-0.43945,-0.461211
501,-0.402996,0.8142050000000001,-0.417917,0.279308,-0.610424,-0.231863
502,-0.402036,0.8219139999999999,-0.4035019999999999,0.290586,0.258759,0.524748
503,-0.387457,0.8425969999999999,-0.374027,-0.067117,0.650872,0.51337
504,-0.371875,0.859376,-0.350958,-0.6446350000000001,0.5027,0.487051
505,-0.363774,0.8648600000000001,-0.345942,-0.269298,-0.353278,0.232798
506,-0.362274,0.864533,-0.348325,-0.055421,-0.432526,0.218244
507,-0.362879,0.868194,-0.338448,0.0967659999999999,-0.3118889999999999,0.305489
508,-0.368598,0.877912,-0.305605,0.021568,-0.0623149999999999,0.251833
509,-0.378685,0.887776,-0.261609,-0.039543,0.280986,0.30119
510,-0.378107,0.896655,-0.230287,-0.014898,0.4802369999999999,0.12784
511,-0.366578,0.907041,-0.207083,0.209382,0.082415,0.298239
512,-0.34654,0.918498,-0.190419,0.1290099999999999,-0.076365,0.290425
513,-0.328231,0.928992,-0.170949,0.071486,-0.162513,0.294453
514,-0.318863,0.9364,-0.146515,-0.0570679999999999,-0.00595,0.23349
515,-0.317326,0.940104,-0.124474,-0.063625,0.022848,0.120553
516,-0.315874,0.942322,-0.110623,-0.050337,0.00351,0.0959899999999999
517,-0.312471,0.944194,-0.1041349999999999,0.02376,0.123113,0.096582
518,-0.309163,0.94612,-0.096222,0.029516,0.135881,0.159637
519,-0.306817,0.948152,-0.082798,0.01545,0.100722,0.211033
520,-0.3049139999999999,0.949874,-0.068924,-0.008516,-0.03427,0.152558
521,-0.3024159999999999,0.951452,-0.057157,-0.002668,-0.017553,0.003278
522,-0.298792,0.953126,-0.047525,0.025522,-0.003357,-0.03469
523,-0.295978,0.954459,-0.037277,-0.011761,-0.000205,-0.050995
524,-0.295828,0.954871,-0.026282,0.04061,-0.0256269999999999,-0.0656679999999999
525,-0.294615,0.955504,-0.014106,0.039397,-0.0262589999999999,-0.077843
526,-0.293502,0.955948,-0.002153,0.075759,0.053421,0.035479
527,-0.295022,0.955434,0.009566,-0.066474,0.0497079999999999,-0.048003
528,-0.29674,0.954698,0.021912,-0.099973,0.071242,-0.095261
529,-0.2976789999999999,0.954083,0.033122,-0.101033,0.180576,-0.124477
530,-0.299797,0.953014,0.043242,-0.069984,0.25327,-0.098754
531,-0.3045219999999999,0.951237,0.048971,-0.09268,0.326656,-0.054021
532,-0.310555,0.949259,0.049455,-0.133125,0.341329,-0.016816
533,-0.317448,0.947208,0.044811,-0.154385,0.372906,0.134633
534,-0.322207,0.946236,0.0283779999999999,-0.120039,0.254585,0.196292
535,-0.323069,0.946349,0.005885,-0.344426,0.072129,0.169683
536,-0.3287719999999999,0.944288,-0.0146139999999999,-0.3134099999999999,0.09186,0.033062
537,-0.340737,0.93909,-0.044648,-0.180473,0.12663,0.041611
538,-0.351638,0.931991,-0.08792,0.114043,0.246125,0.06253
539,-0.358844,0.922477,-0.142317,0.106372,0.229928,0.108625
540,-0.3649949999999999,0.909253,-0.20006,0.053197,0.2576469999999999,0.175539
541,-0.372356,0.892442,-0.254726,0.030743,0.303359,0.293514
542,-0.3760239999999999,0.8746440000000001,-0.305928,0.025118,0.266759,0.308644
543,-0.3808539999999999,0.854916,-0.352217,0.045756,0.230365,0.350722
544,-0.38305,0.8272459999999999,-0.4110069999999999,-0.184531,-0.026938,0.2167929999999999
545,-0.387799,0.790592,-0.473886,-0.177066,-0.153613,0.300241
546,-0.3957489999999999,0.747308,-0.5337649999999999,-0.1886779999999999,-0.253869,0.25195
547,-0.403942,0.700936,-0.587803,-0.034932,-0.111398,0.185017
548,-0.410555,0.6513140000000001,-0.6381439999999999,0.0320149999999999,-0.024178,0.214896
549,-0.418993,0.599201,-0.6822010000000001,0.131746,0.106076,0.267009
550,-0.4318329999999999,0.546218,-0.717747,0.023065,-0.005966,0.152317
551,-0.445441,0.494264,-0.746512,-0.032784,-0.005571,0.1552339999999999
552,-0.458613,0.445539,-0.768872,-0.015477,0.000567,0.253537
553,-0.469413,0.4002199999999999,-0.787065,0.0099709999999999,-0.039014,0.304079
554,-0.478705,0.359796,-0.800864,0.01908,-0.1240329999999999,0.28794
555,-0.485358,0.328393,-0.810298,-0.00683,-0.083077,0.278026
556,-0.490457,0.306336,-0.8158479999999999,0.04551,-0.099182,0.256781
557,-0.49532,0.291757,-0.81825,0.072682,-0.103631,0.229886
558,-0.497435,0.283122,-0.819998,0.0558909999999999,-0.05691,0.214896
559,-0.497601,0.281576,-0.8204299999999999,0.051586,-0.156729,0.173015
560,-0.49667,0.2877409999999999,-0.8188529999999999,0.061078,-0.159338,0.134099
561,-0.494571,0.300298,-0.815608,0.063663,-0.13738,0.113475
562,-0.490612,0.318873,-0.8109350000000001,-0.025532,-0.077967,0.047462
563,-0.485756,0.343025,-0.803972,-0.105294,-0.019813,-0.1759619999999999
564,-0.48391,0.367957,-0.793999,-0.156547,0.0504839999999999,-0.125084
565,-0.487027,0.393219,-0.7798579999999999,-0.11272,0.0534669999999999,0.005688
566,-0.481184,0.410305,-0.774666,-0.960054,1.472294,-0.959694
567,-0.4997649999999999,0.4166939999999999,-0.759339,0.166024,0.305214,-0.006515
568,-0.489642,0.444787,-0.7499399999999999,0.0176419999999999,-0.372415,0.251221
569,-0.482871,0.485579,-0.728727,-0.2117239999999999,0.024003,0.040677
570,-0.471703,0.525939,-0.707727,-0.161094,0.8139810000000001,0.21113
571,-0.458659,0.563715,-0.686914,-0.219686,0.458715,0.3089389999999999
572,-0.451208,0.595069,-0.665054,-0.052561,-0.1512369999999999,0.18547
573,-0.4441449999999999,0.628748,-0.638281,0.0566179999999999,-0.175043,0.174506
574,-0.438216,0.663094,-0.6068479999999999,0.080093,0.03469,0.131094
575,-0.4325229999999999,0.696052,-0.573086,0.009854,0.115716,0.179073
576,-0.4285779999999999,0.727018,-0.536429,-0.042675,0.072863,0.131644
577,-0.423147,0.757545,-0.4970529999999999,-0.077372,-0.045814,0.121656
578,-0.410289,0.788175,-0.458729,0.07864,-0.22157,0.101414
579,-0.396177,0.816998,-0.4189819999999999,0.135968,-0.255414,0.064734
580,-0.386162,0.841842,-0.377052,0.194725,-0.171417,0.0753549999999999
581,-0.3774909999999999,0.8640180000000001,-0.333106,0.139759,-0.021931,0.107246
582,-0.367799,0.883758,-0.289275,0.10074,-0.015228,0.054442
583,-0.357243,0.900176,-0.249088,-0.0352279999999999,-0.0904679999999999,0.031986
584,-0.345732,0.914365,-0.2106869999999999,-0.092592,-0.149289,0.048089
585,-0.338165,0.924951,-0.173471,-0.052933,-0.172998,0.0514159999999999
586,-0.334976,0.931603,-0.141026,0.019242,-0.159631,0.0177039999999999
587,-0.333444,0.936362,-0.109647,0.046396,0.074502,0.0697909999999999
588,-0.334331,0.939069,-0.079703,-0.004323,0.155047,0.0564029999999999
589,-0.335108,0.940643,-0.0536009999999999,-0.019278,0.016449,-0.09856
590,-0.333152,0.942188,-0.035656,-0.005227,0.0228389999999999,-0.17023
591,-0.330837,0.94336,-0.024485,0.099895,0.316909,-0.1230069999999999
592,-0.329908,0.943784,-0.020305,0.041502,0.181063,-0.101063
593,-0.329237,0.944063,-0.0180689999999999,-0.0152449999999999,0.09622,-0.060071
594,-0.326811,0.944983,-0.013462,-0.034487,0.1415799999999999,0.021519
595,-0.324384,0.945902,-0.004901,-0.200366,0.2084869999999999,0.1186859999999999
596,-0.324736,0.945789,0.0028899999999999,-0.223604,0.184506,0.108576
597,-0.329067,0.944261,0.008054,-0.182225,0.289763,0.067294
598,-0.335975,0.941825,0.008019,-0.002175,0.473473,0.132514
599,-0.342242,0.939599,-0.001875,-0.095548,0.501121,0.232465
600,-0.344514,0.938527,-0.0213669999999999,-0.285201,0.363384,0.183065
601,-0.350637,0.935834,-0.035325,-0.258265,-0.124738,-0.033309
602,-0.3665719999999999,0.928769,-0.054705,-0.145681,0.092883,0.025194
603,-0.38139,0.91976,-0.092543,-0.059299,0.258951,0.021055
604,-0.397532,0.904841,-0.152359,0.094569,0.354513,-0.036591
605,-0.413614,0.8824690000000001,-0.223955,0.1242619999999999,0.243844,0.038591
606,-0.422571,0.8587459999999999,-0.289783,0.112451,0.307514,0.175617
607,-0.426433,0.8373219999999999,-0.342102,0.05421,0.239934,0.194152
608,-0.4296859999999999,0.816021,-0.386609,-0.020967,0.1754339999999999,0.2917909999999999
609,-0.42895,0.789094,-0.439683,-0.129643,-0.016617,0.335084
610,-0.425075,0.755915,-0.497888,-0.121983,-0.167658,0.242288
611,-0.426159,0.715133,-0.5540430000000001,0.0451769999999999,-0.294189,0.236141
612,-0.43028,0.6699,-0.60505,0.089673,-0.215951,0.233651
613,-0.435718,0.623768,-0.648887,0.086948,-0.11266,0.218513
614,-0.4443689999999999,0.578641,-0.6838890000000001,0.08385,-0.029523,0.281926
615,-0.45403,0.533551,-0.7135640000000001,0.070546,-0.014417,0.235567
616,-0.463761,0.489291,-0.738589,0.008653,-0.037646,0.2803219999999999
617,-0.473331,0.446219,-0.759501,0.079196,-0.036643,0.24943
618,-0.4802619999999999,0.407595,-0.776666,0.099128,-0.0620289999999999,0.262369
619,-0.485643,0.376142,-0.78909,0.0937669999999999,-0.126585,0.2741969999999999
620,-0.489328,0.3528179999999999,-0.797542,0.064203,-0.164204,0.213313
621,-0.489004,0.34004,-0.803271,0.08341,-0.163969,0.2430139999999999
622,-0.485796,0.339624,-0.8053899999999999,-0.016493,-0.085702,0.220094
623,-0.481102,0.3507639999999999,-0.803431,-0.016884,-0.080119,0.092722
624,-0.4771979999999999,0.369823,-0.797188,0.002116,-0.091411,0.041221
625,-0.472887,0.395834,-0.787203,0.0584279999999999,-0.061148,-0.084196
626,-0.469553,0.4265359999999999,-0.773034,0.007227,0.143151,-0.383353
627,-0.4701609999999999,0.453602,-0.757092,0.000327,0.207852,-0.459399
628,-0.462335,0.4677199999999999,-0.753312,-0.73107,1.293343,-0.593337
629,-0.473934,0.480842,-0.73768,0.250515,-0.139869,0.295358
630,-0.461025,0.512533,-0.724403,0.330425,-0.529058,0.735161
631,-0.453962,0.554813,-0.697205,-0.163195,-0.0256069999999999,0.119995
632,-0.445426,0.5875229999999999,-0.675578,-0.450677,0.6877310000000001,0.261714
633,-0.438645,0.619576,-0.650929,-0.48001,0.326347,0.272267
634,-0.433879,0.649888,-0.624008,-0.005253,-0.091035,0.219711
635,-0.429568,0.681664,-0.5922810000000001,0.000598,0.029594,0.233562
636,-0.428649,0.711195,-0.557182,-0.000703,0.04262,0.204948
637,-0.4273979999999999,0.738058,-0.522103,-0.008668,0.0608159999999999,0.062829
638,-0.420264,0.7661899999999999,-0.486127,0.072607,-0.034256,0.043623
639,-0.407194,0.796276,-0.447354,0.149107,-0.120693,0.045986
640,-0.393206,0.823033,-0.409868,0.261034,-0.2050219999999999,0.125597
641,-0.379125,0.84659,-0.3735449999999999,0.252019,-0.180727,0.107966
642,-0.368171,0.867135,-0.335428,0.1575079999999999,-0.100228,0.101511
643,-0.360052,0.8834350000000001,-0.299817,-0.0599,-0.086896,0.097485
644,-0.354415,0.895775,-0.268256,-0.068421,-0.205956,0.0895909999999999
645,-0.352993,0.904365,-0.2398,-0.056309,-0.205573,0.073723
646,-0.355901,0.90971,-0.213884,-0.0096239999999999,0.132725,0.059633
647,-0.358131,0.913571,-0.192648,0.056282,0.129306,0.014669
648,-0.3556269999999999,0.918341,-0.173673,0.127675,0.1209809999999999,-0.0168639999999999
649,-0.352908,0.922448,-0.156613,0.1182119999999999,0.0459959999999999,0.012555
650,-0.351152,0.925769,-0.140093,0.043413,0.023145,-0.003599
651,-0.350204,0.928582,-0.122772,-0.0258949999999999,0.107398,0.0035549999999999
652,-0.349995,0.930765,-0.105648,-0.00439,0.071677,0.023846
653,-0.348336,0.933007,-0.0902299999999999,0.047372,-0.055519,0.033681
654,-0.348061,0.934215,-0.077946,0.035775,-0.052059,0.014058
655,-0.348448,0.934949,-0.06659,0.0192099999999999,0.112124,0.055222
656,-0.347466,0.936061,-0.05511,0.061013,0.1385849999999999,0.0144599999999999
657,-0.3446889999999999,0.93777,-0.041917,0.064309,0.043248,-0.003921
658,-0.3432159999999999,0.938803,-0.0288329999999999,-0.069473,0.057795,-0.014777
659,-0.343563,0.938978,-0.016263,-0.089771,0.113573,0.002332
660,-0.34447,0.938777,-0.004099,-0.072019,0.2346239999999999,0.039423
661,-0.346761,0.937933,0.004245,-0.060801,0.453715,0.147107
662,-0.349773,0.936822,0.001483,-0.240376,0.499976,0.144696
663,-0.3544739999999999,0.934998,-0.01034,-0.379062,0.385025,0.082331
664,-0.362004,0.931938,-0.02058,-0.353557,0.050178,0.030956
665,-0.369902,0.928423,-0.034378,-0.092653,0.156583,0.125931
666,-0.377558,0.924039,-0.059848,-0.06774,0.174639,0.1151609999999999
667,-0.385156,0.917992,-0.094475,-0.097525,0.168281,0.021049
668,-0.393942,0.908862,-0.136978,-0.0938659999999999,0.089597,-0.034042
669,-0.403011,0.8949969999999999,-0.191171,-0.0611149999999999,0.084511,-0.006659
670,-0.409517,0.876901,-0.2516469999999999,-0.0048509999999999,0.083472,0.0549
671,-0.412249,0.8574719999999999,-0.3078639999999999,-0.001951,0.158184,0.116671
672,-0.413647,0.8379610000000001,-0.355957,-0.047077,0.182578,0.156219
673,-0.414027,0.815686,-0.404012,-0.093541,0.047458,0.2590989999999999
674,-0.414201,0.789693,-0.45256,-0.137099,-0.208898,0.32283
675,-0.415555,0.758563,-0.5018819999999999,-0.1158619999999999,-0.150546,0.273489
676,-0.418529,0.720771,-0.552552,-0.038777,-0.08657,0.192017
677,-0.422901,0.6812699999999999,-0.5975090000000001,-0.035518,-0.025478,0.173849
678,-0.429405,0.640189,-0.636995,-0.034203,0.023004,0.1762099999999999
679,-0.435034,0.597597,-0.67351,-0.002954,-0.0422079999999999,0.175311
680,-0.4418109999999999,0.554793,-0.704983,-0.0094209999999999,-0.0388779999999999,0.188351
681,-0.450726,0.51236,-0.7309770000000001,-0.0298339999999999,0.000839,0.173848
682,-0.460988,0.4710229999999999,-0.7520789999999999,-0.005824,-0.087448,0.189579
683,-0.471313,0.431892,-0.768979,0.035232,-0.088554,0.2172059999999999
684,-0.481205,0.396086,-0.7820189999999999,0.0527529999999999,-0.0458509999999999,0.215109
685,-0.489838,0.365678,-0.791412,0.009278,-0.097719,0.233246
686,-0.496116,0.343042,-0.797614,-0.009759,-0.080423,0.193274
687,-0.502087,0.326937,-0.800635,0.015576,-0.08594,0.164054
688,-0.5060439999999999,0.316921,-0.8021689999999999,0.063173,-0.134487,0.141311
689,-0.508081,0.313838,-0.802094,0.115533,-0.214748,0.148087
690,-0.507732,0.318648,-0.800417,0.048626,-0.193831,0.12552
691,-0.5076970000000001,0.331368,-0.795258,-0.041741,-0.088143,0.014145
692,-0.5070399999999999,0.349888,-0.787708,-0.161478,-0.021016,-0.1774859999999999
693,-0.50794,0.364698,-0.7803760000000001,-0.254953,-0.046705,-0.036823
694,-0.513411,0.377423,-0.770686,-0.50548,0.2546719999999999,-0.151571
695,-0.521312,0.38286,-0.762658,-0.5241140000000001,0.778913,-0.512534
696,-0.5272720000000001,0.399228,-0.750063,0.464452,-0.014997,0.299517
697,-0.504312,0.4407859999999999,-0.742544,-0.186698,-0.240225,0.195089
698,-0.496013,0.476447,-0.7259220000000001,-0.420231,0.607858,0.1736
699,-0.485667,0.5078520000000001,-0.711482,-0.157979,0.539953,0.2170369999999999
700,-0.477254,0.539905,-0.693343,-0.0002399999999999,0.0467949999999999,0.191329
701,-0.466632,0.5734670000000001,-0.6733359999999999,0.026035,0.0357699999999999,0.135342
702,-0.456151,0.608537,-0.649308,0.017843,0.1764359999999999,0.124787
703,-0.446097,0.642787,-0.622747,0.044699,0.2085929999999999,0.121938
704,-0.436326,0.676675,-0.593061,0.039658,0.094154,0.116407
705,-0.426835,0.709669,-0.560509,0.021135,0.003496,0.09504
706,-0.416066,0.742333,-0.525185,0.049824,-0.116479,0.110177
707,-0.404848,0.77342,-0.4877579999999999,0.111146,-0.119352,0.128338
708,-0.395023,0.801502,-0.44893,0.0972789999999999,-0.110508,0.108796
709,-0.384123,0.8280280000000001,-0.408418,0.0623909999999999,-0.0256139999999999,0.122392
710,-0.370193,0.8524799999999999,-0.369081,0.095947,-0.142091,0.127016
711,-0.355362,0.8731040000000001,-0.333754,0.064499,-0.157986,0.072432
712,-0.342434,0.89025,-0.300296,0.022976,-0.177268,0.0345339999999999
713,-0.331967,0.904626,-0.267271,-0.030414,-0.132027,0.023939
714,-0.324973,0.916154,-0.234601,-0.011636,-0.125199,0.0659309999999999
715,-0.319077,0.925373,-0.204591,0.03421,-0.015415,0.127717
716,-0.315871,0.931715,-0.179203,0.013183,0.009706,0.081562
717,-0.314696,0.935801,-0.158818,0.002303,0.009328,0.045156
718,-0.314301,0.938674,-0.141723,0.0019079999999999,0.014725,-0.0288089999999999
719,-0.312627,0.941484,-0.125905,0.068334,0.071898,-0.096583
720,-0.309088,0.944532,-0.11092,0.098944,0.0899679999999999,-0.10223
721,-0.304551,0.947711,-0.095247,0.107438,0.01843,-0.048979
722,-0.300844,0.950346,-0.079463,-0.059386,0.08336,0.0433459999999999
723,-0.2991769999999999,0.951981,-0.064844,-0.0916309999999999,0.025116,0.031122
724,-0.2973719999999999,0.953321,-0.052226,-0.118338,-0.043348,-0.056905
725,-0.29501,0.954616,-0.040688,-0.092777,0.058903,-0.069496
726,-0.293288,0.955575,-0.028937,-0.029481,0.149391,-0.040414
727,-0.29309,0.955931,-0.016522,-0.074388,0.27994,0.127255
728,-0.296554,0.954986,-0.00594,-0.132279,0.313798,0.141118
729,-0.3033659999999999,0.952862,0.000938,-0.209528,0.46674,0.1150289999999999
730,-0.3092519999999999,0.950966,0.00176,-0.259901,0.539924,0.17422
731,-0.313438,0.949574,-0.0065099999999999,-0.400277,0.451381,0.112956
732,-0.316375,0.948477,-0.016611,-0.458237,0.219996,0.024744
733,-0.324851,0.945316,-0.028735,-0.073587,-0.0239139999999999,0.040804
734,-0.337871,0.939523,-0.055832,0.032131,0.139151,0.014831
735,-0.351458,0.930898,-0.099419,0.0197479999999999,0.228617,-0.0133289999999999
736,-0.368728,0.915671,-0.159897,-0.08217,0.12507,-0.084564
737,-0.384125,0.8937620000000001,-0.231559,-0.0567779999999999,0.1080079999999999,-0.063424
738,-0.394479,0.870007,-0.295731,0.0316399999999999,0.15488,0.02887
739,-0.400844,0.848776,-0.344802,0.125056,0.210978,0.2085409999999999
740,-0.403468,0.828834,-0.387601,0.079356,0.122598,0.276074
741,-0.403958,0.803492,-0.43727,-0.058857,-0.026561,0.307906
742,-0.405954,0.770068,-0.492123,-0.172522,-0.217105,0.356076
743,-0.409087,0.730511,-0.546801,-0.092683,-0.3017849999999999,0.218386
744,-0.417048,0.687288,-0.594724,0.052637,-0.299334,0.191221
745,-0.4258649999999999,0.642271,-0.637275,0.0718309999999999,-0.1447119999999999,0.194968
746,-0.4374909999999999,0.5973310000000001,-0.672153,0.0530919999999999,0.040547,0.252551
747,-0.447742,0.552303,-0.703194,0.042804,0.012104,0.215371
748,-0.4590189999999999,0.506954,-0.729584,0.0048259999999999,-0.0285139999999999,0.279404
749,-0.469096,0.462624,-0.752278,-0.008351,0.000511,0.246663
750,-0.478996,0.421072,-0.770231,-0.004432,0.007594,0.19792
751,-0.488031,0.382939,-0.784334,0.013131,-0.002171,0.168916
752,-0.495832,0.350016,-0.794754,0.02104,-0.0468089999999999,0.1842349999999999
753,-0.502116,0.32328,-0.8021,0.02505,-0.052269,0.221457
754,-0.5071319999999999,0.303899,-0.8065100000000001,0.03295,-0.0989429999999999,0.210563
755,-0.508905,0.293919,-0.809088,0.025476,-0.158207,0.163839
756,-0.508679,0.291586,-0.8100729999999999,0.023144,-0.1287589999999999,0.147338
757,-0.507729,0.294723,-0.809534,0.067559,-0.157684,0.132318
758,-0.506225,0.304004,-0.80704,0.0757289999999999,-0.1311369999999999,0.053042
759,-0.504344,0.319582,-0.802185,0.0622659999999999,-0.121583,0.0361019999999999
760,-0.4993979999999999,0.341932,-0.79604,-0.027885,-0.092572,0.010136
761,-0.493497,0.367751,-0.788172,-0.199847,0.038163,-0.1254019999999999
762,-0.491454,0.387785,-0.779801,-0.296113,0.136202,-0.249282
763,-0.4909159999999999,0.389992,-0.77904,-0.925634,1.145622,-0.728483
764,-0.509316,0.399283,-0.7623409999999999,0.413125,0.0234009999999999,-0.02486
765,-0.492171,0.432621,-0.7553810000000001,0.168791,-0.2477,0.345805
766,-0.4802109999999999,0.475332,-0.737191,-0.414122,0.126245,0.0422899999999999
767,-0.470147,0.5085430000000001,-0.721346,-0.289023,0.526476,0.299989
768,-0.4595479999999999,0.543687,-0.702291,-0.238877,0.100737,0.2509969999999999
769,-0.4507779999999999,0.578616,-0.679702,0.002109,-0.193224,0.2098989999999999
770,-0.4403069999999999,0.616634,-0.652598,-0.014893,0.118351,0.196315
771,-0.432314,0.653229,-0.6216010000000001,-0.030119,0.133957,0.1729619999999999
772,-0.424662,0.6881010000000001,-0.5883619999999999,0.012415,0.091043,0.101301
773,-0.4174859999999999,0.722398,-0.5512130000000001,0.044271,-0.029085,0.091511
774,-0.4078989999999999,0.756347,-0.511416,0.045915,-0.090072,0.079699
775,-0.39445,0.790296,-0.468859,0.082942,-0.170667,0.073733
776,-0.38051,0.820943,-0.425735,0.158006,-0.11585,0.135681
777,-0.366533,0.8482360000000001,-0.382276,0.139116,-0.090774,0.124296
778,-0.351546,0.872519,-0.339278,0.072646,-0.115088,0.144728
779,-0.338332,0.8926120000000001,-0.297921,0.008483,-0.157886,0.105386
780,-0.330138,0.90699,-0.261456,-0.112199,-0.237786,0.082608
781,-0.323517,0.918119,-0.228858,-0.04718,-0.137113,0.034415
782,-0.320758,0.92596,-0.19923,-0.023313,-0.106624,0.00465
783,-0.320519,0.9313,-0.172995,0.008202,0.048589,0.075995
784,-0.317637,0.936249,-0.150078,0.057521,0.120056,0.029198
785,-0.312266,0.941186,-0.128985,0.055644,0.063071,0.0111569999999999
786,-0.307262,0.94532,-0.109264,0.002575,-0.067253,-0.014531
787,-0.304583,0.948344,-0.088608,-0.045225,0.032049,0.022736
788,-0.3023679999999999,0.950742,-0.068126,-0.039139,0.046969,-0.014302
789,-0.299187,0.952951,-0.048467,0.001869,-0.011621,-0.0593669999999999
790,-0.2942349999999999,0.955265,-0.0295029999999999,0.0591429999999999,0.026882,-0.056145
791,-0.2914719999999999,0.956479,-0.012957,0.051146,0.128253,-0.012037
792,-0.290012,0.95701,0.001065,-0.0540429999999999,0.09838,-0.068952
793,-0.288451,0.957375,0.014291,-0.0643779999999999,0.06179,-0.102578
794,-0.285233,0.958083,0.026347,-0.0269319999999999,0.229844,-0.026225
795,-0.282328,0.95865,0.035426,-0.024633,0.264341,0.017125
796,-0.283954,0.957934,0.041321,-0.215832,0.324659,0.050476
797,-0.289487,0.956063,0.045997,-0.346484,0.372185,0.06379
798,-0.294772,0.954402,0.0469199999999999,-0.183667,0.450612,0.162461
799,-0.298251,0.953748,0.0372339999999999,-0.184232,0.424716,0.118833
800,-0.300583,0.953484,0.022212,-0.335129,0.163215,0.045064
801,-0.305777,0.952079,0.004696,-0.243052,-0.0118319999999999,0.066257
802,-0.316293,0.948381,-0.022556,-0.05683,-0.021974,0.1029089999999999
803,-0.328963,0.94232,-0.061584,-0.040223,0.121278,0.121841
804,-0.342538,0.932842,-0.111588,-0.098014,0.219059,0.059433
805,-0.35859,0.917046,-0.1744119999999999,-0.065498,0.183265,0.026188
806,-0.37398,0.8941319999999999,-0.24627,-0.063185,0.116473,0.118798
807,-0.386659,0.868117,-0.311209,-0.046904,0.147066,0.144766
808,-0.397487,0.8418389999999999,-0.365096,0.012066,0.130206,0.1917869999999999
809,-0.4041599999999999,0.812709,-0.419696,-0.07637,-0.009883,0.267352
810,-0.4100359999999999,0.779953,-0.47279,-0.113126,-0.0948789999999999,0.34074
811,-0.418901,0.7405470000000001,-0.525453,-0.159728,-0.173256,0.320115
812,-0.426606,0.695225,-0.578498,-0.050842,-0.1910589999999999,0.135276
813,-0.432565,0.648116,-0.626757,0.0069209999999999,-0.159682,0.172594
814,-0.444535,0.600616,-0.66456,0.093324,-0.00235,0.1985569999999999
815,-0.457902,0.550661,-0.697919,0.07335,-0.06325,0.2341889999999999
816,-0.4717979999999999,0.501369,-0.725279,0.063091,-0.0131479999999999,0.265425
817,-0.4866229999999999,0.452433,-0.747326,-0.026072,-0.011164,0.313671
818,-0.500206,0.405148,-0.765274,0.0408399999999999,-0.071163,0.2322989999999999
819,-0.512084,0.361746,-0.779041,0.072143,-0.045477,0.240436
820,-0.522612,0.323607,-0.7887649999999999,0.036849,-0.0568679999999999,0.219169
821,-0.532416,0.290615,-0.795029,0.038962,-0.063335,0.216461
822,-0.541733,0.263307,-0.798241,0.077836,-0.085436,0.22094
823,-0.54842,0.243407,-0.79999,0.110371,-0.151213,0.17528
824,-0.551104,0.232527,-0.80138,0.115603,-0.239546,0.100758
825,-0.549595,0.2309,-0.802886,0.110248,-0.231541,0.1213829999999999
826,-0.5452819999999999,0.237363,-0.803941,0.10975,-0.223188,0.0757159999999999
827,-0.542836,0.248743,-0.802154,0.069112,-0.103525,0.027862
828,-0.5412279999999999,0.263086,-0.798657,0.034636,-0.074182,0.007352
829,-0.536667,0.283281,-0.794818,-0.05246,-0.08957,-0.0234039999999999
830,-0.527161,0.3098329999999999,-0.7912640000000001,-0.340484,-0.067768,-0.1740519999999999
831,-0.5212829999999999,0.33394,-0.78533,-0.440982,0.020964,-0.20347
832,-0.521964,0.350933,-0.777428,-0.809716,0.5866279999999999,-0.773857
833,-0.532043,0.362648,-0.7651220000000001,-0.449601,0.607124,-0.7415470000000001
834,-0.5391,0.386753,-0.748189,0.42266,0.149975,0.114644
835,-0.521161,0.428816,-0.737904,-0.544574,0.016344,0.191166
836,-0.516311,0.4683279999999999,-0.716997,-0.478517,0.2928719999999999,0.174425
837,-0.501278,0.507709,-0.700675,-0.2254519999999999,0.248425,0.1544559999999999
838,-0.4853189999999999,0.550583,-0.679203,-0.004305,-0.007568,0.220081
839,-0.46602,0.5976130000000001,-0.652438,0.0032359999999999,0.008878,0.194019
840,-0.445907,0.6457229999999999,-0.619838,-0.0312199999999999,0.073104,0.259716
841,-0.429513,0.6907270000000001,-0.581725,0.001474,0.017967,0.161681
842,-0.4153529999999999,0.732532,-0.5393220000000001,0.028924,-0.060672,0.116928
843,-0.399037,0.771281,-0.4958649999999999,0.043523,-0.125819,0.0592799999999999
844,-0.379454,0.808198,-0.450352,0.069518,-0.195725,0.034519
845,-0.358037,0.8441200000000001,-0.399069,0.071492,-0.28281,0.070197
846,-0.336333,0.875293,-0.347455,0.084334,-0.282642,0.094907
847,-0.313877,0.9003,-0.301537,0.072361,-0.23288,0.069664
848,-0.295118,0.921376,-0.252889,0.017424,-0.139225,0.1215869999999999
849,-0.283933,0.938827,-0.194847,-0.143512,-0.1599269999999999,0.2278059999999999
850,-0.275736,0.95041,-0.143768,-0.2168639999999999,-0.231782,0.203155
851,-0.2687,0.957866,-0.101349,-0.254188,-0.173487,0.197189
852,-0.26235,0.962697,-0.066051,-0.158701,-0.073736,0.1724349999999999
853,-0.25589,0.966016,-0.036176,-0.033477,0.0451839999999999,0.18353
854,-0.247964,0.968692,-0.011192,-0.0577,0.12872,0.17202
855,-0.2387679999999999,0.971027,0.008391,-0.080583,0.123089,0.1300059999999999
856,-0.2276639999999999,0.973389,0.02563,-0.11572,-0.040772,0.089757
857,-0.216303,0.975444,0.0411889999999999,-0.07488,-0.0071519999999999,0.099894
858,-0.2053489999999999,0.977051,0.056378,-0.063007,0.016724,0.10216
859,-0.196103,0.978066,0.070025,-0.082675,-0.0183949999999999,0.099851
860,-0.189006,0.978464,0.082814,-0.078878,-0.088693,0.098399
861,-0.1832339999999999,0.978501,0.0945169999999999,-0.084649,-0.0887309999999999,0.086697
862,-0.1789369999999999,0.978168,0.105548,-0.080859,-0.114185,0.063489
863,-0.175019,0.977409,0.118372,-0.146422,-0.0875929999999999,0.0433259999999999
864,-0.173089,0.975931,0.132556,-0.148352,-0.086115,0.029141
865,-0.172256,0.974172,0.145903,-0.1318359999999999,-0.010992,-0.128051
866,-0.172138,0.972173,0.1588089999999999,-0.004681,-0.055501,-0.103817
867,-0.172939,0.969922,0.171216,0.015758,-0.0148289999999999,-0.077817
868,-0.1754349999999999,0.967833,0.180256,-0.043315,0.077409,-0.0856059999999999
869,-0.177045,0.966665,0.184889,-0.074344,0.129602,-0.090575
870,-0.176361,0.965609,0.190965,-0.197052,0.075849,-0.056642
871,-0.176547,0.964136,0.1981,-0.328839,-0.019968,-0.112117
872,-0.177725,0.962809,0.20343,-0.217081,-0.021036,-0.198502
873,-0.179387,0.961875,0.206368,-0.127421,0.027261,-0.181359
874,-0.181669,0.960915,0.208828,-0.027315,0.088234,-0.194989
875,-0.184632,0.960204,0.209497,-0.031127,0.108063,-0.185861
876,-0.188945,0.960165,0.2057969999999999,-0.029988,0.1578,-0.129305
877,-0.194323,0.961408,0.194687,-0.146818,0.3007829999999999,0.033966
878,-0.2005809999999999,0.964158,0.173602,-0.185223,0.238128,0.069623
879,-0.206578,0.968229,0.140817,-0.2442889999999999,0.08272,0.17742
880,-0.216059,0.971804,0.094279,-0.413549,-0.119875,0.134511
881,-0.235475,0.971155,0.037187,-0.430922,-0.0739539999999999,0.1143329999999999
882,-0.263712,0.964172,-0.028343,-0.7327779999999999,0.173477,-0.016411
883,-0.281476,0.955095,-0.092428,-0.475238,0.192595,0.05451
884,-0.2899469999999999,0.945798,-0.146202,-0.276703,0.075549,0.220604
885,-0.29605,0.935345,-0.193553,-0.137986,0.154163,0.330104
886,-0.306417,0.923498,-0.230738,-0.019496,0.178583,0.56338
887,-0.319515,0.907071,-0.274069,0.003521,0.056461,0.35784
888,-0.332539,0.8828600000000001,-0.3316,-0.082622,-0.146532,0.174983
889,-0.345546,0.853153,-0.390785,-0.133641,-0.289966,0.007545
890,-0.358217,0.823989,-0.438986,-0.106123,-0.317351,0.07131
891,-0.375994,0.799519,-0.468385,-0.031065,-0.2662239999999999,0.23758
892,-0.396236,0.779453,-0.4852189999999999,0.022121,-0.199954,0.2681929999999999
893,-0.415096,0.763757,-0.494324,0.030407,-0.179086,0.1822359999999999
894,-0.430667,0.754059,-0.4958899999999999,0.062762,-0.196747,0.103068
895,-0.443347,0.751346,-0.488784,0.0844299999999999,-0.215198,0.099044
896,-0.450525,0.754781,-0.47678,0.0415139999999999,-0.2458699999999999,0.042637
897,-0.451056,0.762749,-0.46341,0.018424,-0.2706989999999999,-0.019607
898,-0.44663,0.77452,-0.447914,0.017904,-0.301009,-0.059959
899,-0.439057,0.789756,-0.4283689999999999,0.048188,-0.27378,-0.064536
900,-0.430016,0.8077850000000001,-0.403181,0.053826,-0.254212,-0.092501
901,-0.419759,0.827583,-0.372684,0.072301,-0.146141,-0.149151
902,-0.407102,0.847794,-0.3398489999999999,0.089185,0.019745,-0.2884469999999999
903,-0.391689,0.8665219999999999,-0.309359,0.185421,0.29896,-0.390669
904,-0.377677,0.8795799999999999,-0.289279,-0.184961,0.350157,-0.464215
905,-0.370321,0.8808379999999999,-0.294907,-0.730738,-0.124627,-0.5233
906,-0.3706,0.873209,-0.316458,-0.710104,-0.406915,-0.482218
907,-0.371751,0.8688950000000001,-0.326812,-0.400176,-0.628524,-0.360414
908,-0.373697,0.87074,-0.319603,-0.133445,-0.219479,0.055962
909,-0.373575,0.8795860000000001,-0.294539,-0.090918,0.110481,0.1042609999999999
910,-0.3698349999999999,0.894379,-0.2515739999999999,-0.341011,0.535324,0.23839
911,-0.366147,0.907148,-0.207365,-0.767932,0.226825,0.269498
912,-0.361456,0.91282,-0.189973,-0.549646,-0.076501,0.199158
913,-0.359201,0.911924,-0.198365,-0.092062,-0.324705,0.061189
914,-0.356908,0.912042,-0.201932,0.182515,-0.179238,0.346326
915,-0.3488219999999999,0.921156,-0.172549,0.047598,-0.044081,0.363361
916,-0.336899,0.933858,-0.119943,-0.079895,0.037318,0.370172
917,-0.3205679999999999,0.944169,-0.0758799999999999,-0.0708049999999999,0.152496,0.076566
918,-0.301836,0.952249,-0.045744,-0.125914,0.06832,0.034178
919,-0.2833429999999999,0.958668,-0.025445,-0.218931,-0.13274,0.02723
920,-0.266583,0.963783,-0.005458,-0.245334,-0.159339,0.0267899999999999
921,-0.253257,0.967235,0.017023,-0.27668,-0.131161,0.030951
922,-0.245644,0.96874,0.034287,-0.116874,-0.019475,-0.004151
923,-0.242993,0.968987,0.044623,-0.075428,0.026649,0.045586
924,-0.2429989999999999,0.968274,0.0580409999999999,-0.061902,0.117938,0.2180969999999999
925,-0.2429579999999999,0.966949,0.077155,-0.047172,0.150834,0.380136
926,-0.240804,0.965599,0.097991,0.026144,0.070976,0.279176
927,-0.2373179999999999,0.964456,0.116085,0.046217,0.0627809999999999,0.176395
928,-0.234172,0.963414,0.1302579999999999,0.036693,0.051174,0.013144
929,-0.232929,0.962263,0.140586,-0.063168,0.0207389999999999,-0.051078
930,-0.233168,0.960705,0.150492,-0.063982,-0.03558,-0.025019
931,-0.235231,0.958696,0.159803,0.081102,-0.0497149999999999,-0.056425
932,-0.237681,0.957175,0.165204,0.108927,0.023034,-0.090161
933,-0.2413159999999999,0.956205,0.16555,0.12393,0.07065,-0.118751
934,-0.246334,0.954803,0.166247,0.060635,-0.019272,-0.171771
935,-0.250179,0.953131,0.170058,0.099422,-0.089484,-0.1804339999999999
936,-0.2545929999999999,0.951539,0.1724089999999999,0.108642,-0.07689,-0.1935579999999999
937,-0.261087,0.949782,0.1723849999999999,0.041483,0.043245,-0.198523
938,-0.268738,0.947456,0.17342,-0.015594,0.016838,-0.156986
939,-0.276964,0.944565,0.17623,-0.027067,-0.042404,-0.140448
940,-0.2853489999999999,0.941435,0.179566,-0.022848,-0.126066,-0.202164
941,-0.293016,0.938809,0.1809619999999999,0.052003,0.011325,-0.322625
942,-0.299548,0.936705,0.181169,0.115543,0.023408,-0.347138
943,-0.30433,0.934946,0.182288,0.2001119999999999,0.059592,-0.313025
944,-0.308211,0.933104,0.185178,0.116515,0.095308,-0.303357
945,-0.311393,0.931231,0.189237,0.070808,0.099454,-0.331342
946,-0.314001,0.929151,0.1950609999999999,-0.001749,0.008287,-0.233421
947,-0.31694,0.926267,0.203825,-0.054337,0.057207,-0.2133159999999999
948,-0.320504,0.922471,0.215152,-0.050772,0.0610039999999999,-0.2246429999999999
949,-0.322252,0.919245,0.2260719999999999,-0.201277,0.226538,-0.232496
950,-0.327305,0.913239,0.24255,-0.283016,0.259612,-0.240261
951,-0.3346739999999999,0.905895,0.259448,-0.234296,0.344945,-0.1842069999999999
952,-0.342378,0.8992469999999999,0.272208,-0.133956,0.5330189999999999,0.070535
953,-0.349968,0.895525,0.274813,-0.2112349999999999,0.306929,-0.303805
954,-0.355044,0.894431,0.27185,-0.237348,0.227304,-0.466262
955,-0.362159,0.89381,0.264404,-0.060784,0.306446,-0.501266
956,-0.373923,0.8938209999999999,0.247451,0.3320369999999999,0.2837909999999999,-0.1200099999999999
957,-0.386745,0.894075,0.225886,0.292431,0.25685,0.038518
958,-0.403031,0.893958,0.195889,-0.072738,0.227365,0.211292
959,-0.417257,0.894383,0.16107,-0.20022,0.089778,0.095797
960,-0.42986,0.894072,0.125797,-0.152217,0.059739,0.079999
961,-0.438102,0.894374,0.090186,-0.047021,0.113302,0.00161
962,-0.44504,0.8939360000000001,0.052812,0.033953,0.229187,0.045958
963,-0.451126,0.8923459999999999,0.013257,0.036438,0.231205,0.058917
964,-0.456363,0.8891819999999999,-0.032567,0.034457,0.1582569999999999,0.079122
965,-0.460989,0.8825719999999999,-0.092356,0.024267,0.178188,0.091532
966,-0.465366,0.8711760000000001,-0.156404,-0.036312,0.057977,0.119478
967,-0.469974,0.856339,-0.213975,-0.145443,-0.30983,0.220292
968,-0.4721899999999999,0.838254,-0.272665,-0.08703,-0.283154,0.282568
969,-0.4752119999999999,0.812516,-0.337597,-0.046776,-0.168992,0.1125
970,-0.477935,0.77781,-0.408134,-0.045549,-0.188714,-0.021752
971,-0.479887,0.738875,-0.473029,-0.044679,-0.100051,0.070822
972,-0.484367,0.6993020000000001,-0.525692,0.008536,-0.022666,0.25082
973,-0.491084,0.658327,-0.570465,0.042216,-0.031541,0.211929
974,-0.496934,0.613337,-0.613892,0.062745,-0.115168,0.051132
975,-0.504297,0.566952,-0.6513369999999999,0.052851,-0.109203,0.046814
976,-0.51412,0.5220319999999999,-0.680554,0.110449,-0.11624,0.080975
977,-0.525489,0.48203,-0.701071,0.142096,-0.129567,0.127462
978,-0.533863,0.447482,-0.7174550000000001,0.170078,-0.123217,0.12813
979,-0.5405399999999999,0.4191319999999999,-0.729477,0.147245,-0.168354,0.132919
980,-0.545863,0.398723,-0.736916,0.131389,-0.184078,0.117379
981,-0.5483140000000001,0.386075,-0.741815,0.101857,-0.139493,0.1021059999999999
982,-0.550321,0.377975,-0.744496,0.11218,-0.148056,0.106358
983,-0.552219,0.374299,-0.744947,0.135502,-0.1912849999999999,0.069868
984,-0.5515180000000001,0.3769949999999999,-0.744107,0.114445,-0.197399,-0.004626
985,-0.549074,0.385466,-0.74157,0.127291,-0.233183,-0.025215
986,-0.5459689999999999,0.397781,-0.737347,0.066187,-0.222305,-0.073597
987,-0.542452,0.413413,-0.7313189999999999,0.031542,-0.2239139999999999,-0.1135299999999999
988,-0.537587,0.433393,-0.7233,-0.0204729999999999,-0.140622,-0.231183
989,-0.531346,0.457842,-0.7127720000000001,-0.055858,-0.007174,-0.433255
990,-0.529558,0.4804779999999999,-0.699071,-0.094969,0.054648,-0.206981
991,-0.530855,0.5026010000000001,-0.682331,-0.536863,0.7175229999999999,-0.585613
992,-0.534452,0.515261,-0.669968,-0.060397,0.157118,-0.229782
993,-0.5400659999999999,0.529879,-0.653871,0.042797,-0.362215,0.1494609999999999
994,-0.532227,0.560924,-0.634104,-0.022018,0.064243,0.073877
995,-0.522505,0.600862,-0.604931,-0.0904399999999999,0.67343,0.070935
996,-0.5114,0.6369630000000001,-0.576833,-0.122557,0.578537,0.124043
997,-0.503998,0.666453,-0.549376,0.029495,-0.082774,0.091093
998,-0.496292,0.695757,-0.5192319999999999,0.096908,-0.283968,-0.011911
999,-0.489674,0.7245010000000001,-0.48508,0.09029,-0.312712,-0.046063
1000,-0.485291,0.752087,-0.445916,0.208405,0.040836,0.034692
1001,-0.482566,0.777261,-0.403705,0.0816409999999999,0.008811,0.030216
1002,-0.478581,0.8004220000000001,-0.360923,0.039631,-0.074043,-0.039193
1003,-0.468531,0.824258,-0.317894,0.0373029999999999,-0.174752,-0.044411
1004,-0.45487,0.846916,-0.275327,0.18775,-0.146965,0.034299
1005,-0.4428439999999999,0.8658299999999999,-0.232816,0.2396889999999999,-0.14354,0.025327
1006,-0.433962,0.8808030000000001,-0.1893119999999999,0.195146,-0.129155,0.0402029999999999
1007,-0.4283229999999999,0.8912909999999999,-0.148705,0.138268,-0.130488,0.037895
1008,-0.42672,0.8976850000000001,-0.109742,-0.031913,-0.097515,-0.038986
1009,-0.4273369999999999,0.9007069999999999,-0.077985,-0.041261,0.039799,-0.148837
1010,-0.4269189999999999,0.902806,-0.0515,-0.000815,0.052516,-0.157225
1011,-0.423381,0.905486,-0.028522,0.150875,-0.042296,-0.163342
1012,-0.419383,0.907758,-0.007898,0.17187,-0.0146919999999999,-0.136465
1013,-0.417405,0.908618,0.012482,0.115174,0.0566529999999999,-0.1285099999999999
1014,-0.4173659999999999,0.908208,0.030541,0.047355,0.169841,-0.12484
1015,-0.416881,0.907728,0.04699,0.169597,0.002367,-0.17315
1016,-0.414838,0.907728,0.0625,0.109205,0.0289019999999999,-0.166534
1017,-0.414076,0.906982,0.076753,0.070387,0.087097,-0.179246
1018,-0.414497,0.905601,0.089698,0.166008,0.088983,-0.194083
1019,-0.413081,0.904786,0.103405,0.163615,0.141784,-0.217495
1020,-0.412385,0.903702,0.1150109999999999,-0.015655,0.261352,-0.315038
1021,-0.415068,0.901089,0.125393,0.005705,0.177479,-0.240398
1022,-0.418166,0.898115,0.135988,-0.061311,0.286257,-0.181551
1023,-0.42303,0.8945219999999999,0.144366,-0.133092,0.474695,-0.129367
1024,-0.4308369999999999,0.890584,0.145614,-0.195124,0.771021,0.133133
1025,-0.435974,0.8892969999999999,0.137993,-0.37651,0.4493569999999999,-0.101174
1026,-0.439354,0.8887799999999999,0.1304,-0.307244,0.232101,-0.1980569999999999
1027,-0.448696,0.885984,0.116919,-0.03249,0.156405,-0.214956
1028,-0.462797,0.8821979999999999,0.086668,-0.072557,0.250706,-0.204618
1029,-0.479525,0.8767280000000001,0.037025,-0.14311,0.322262,-0.1993329999999999
1030,-0.497141,0.867361,-0.02247,-0.145696,0.1572059999999999,-0.151893
1031,-0.510768,0.856506,-0.074064,0.096324,0.087449,0.072065
1032,-0.517551,0.8471040000000001,-0.1205329999999999,0.202793,0.122592,0.179005
1033,-0.516926,0.838232,-0.173578,0.2751659999999999,0.278345,0.080301
1034,-0.5156,0.8265899999999999,-0.225569,0.080358,-0.127661,0.060271
1035,-0.5156470000000001,0.809667,-0.2802219999999999,0.0804059999999999,-0.110739,0.114923
1036,-0.521042,0.786466,-0.33161,-0.184463,-0.497037,0.251975
1037,-0.526705,0.758876,-0.382976,-0.01718,-0.373897,0.240276
1038,-0.5268619999999999,0.728667,-0.437543,0.14765,-0.2044359999999999,0.163206
1039,-0.524725,0.696145,-0.489929,0.265997,-0.094201,0.146042
1040,-0.526831,0.661589,-0.533605,0.193503,-0.09355,0.206258
1041,-0.5331899999999999,0.624257,-0.570962,0.144899,-0.04923,0.184671
1042,-0.542033,0.584546,-0.603733,0.142695,-0.019208,0.132039
1043,-0.549423,0.547067,-0.631538,0.05516,-0.222513,0.05236
1044,-0.554198,0.513203,-0.6553439999999999,0.037063,-0.231648,0.045893
1045,-0.559038,0.4832229999999999,-0.673767,0.090028,-0.1884839999999999,0.174164
1046,-0.566036,0.4579479999999999,-0.685476,0.1602589999999999,-0.193071,0.1839039999999999
1047,-0.5730770000000001,0.4406859999999999,-0.690919,0.16704,-0.169064,0.174165
1048,-0.57963,0.4324479999999999,-0.690658,0.1408329999999999,-0.069396,0.103209
1049,-0.581133,0.432775,-0.689188,0.005877,-0.2131559999999999,-0.0592409999999999
1050,-0.576144,0.440266,-0.688632,0.004886,-0.27364,-0.074658
1051,-0.5689489999999999,0.451043,-0.687639,0.193537,-0.215478,-0.126448
1052,-0.563048,0.464702,-0.683387,0.212111,-0.195415,-0.177956
1053,-0.557938,0.485072,-0.67335,0.097534,-0.112376,-0.137487
1054,-0.5520470000000001,0.5108229999999999,-0.6590090000000001,-0.369492,0.3206739999999999,-0.54227
1055,-0.546705,0.526513,-0.651065,-0.8921680000000001,1.012946,-0.949444
1056,-0.557433,0.527349,-0.6412180000000001,0.245726,-0.000677,-0.431063
1057,-0.5524600000000001,0.5456439999999999,-0.6301180000000001,-0.1215059999999999,-0.11942,0.163093
1058,-0.531343,0.583386,-0.614266,-0.367537,0.2069119999999999,-0.022056
1059,-0.521277,0.6158060000000001,-0.590796,-0.329126,0.404366,0.017844
1060,-0.505779,0.647123,-0.570443,-0.20673,-0.194105,0.028481
1061,-0.495151,0.677614,-0.543738,0.015826,-0.209001,0.124106
1062,-0.483048,0.709482,-0.513112,0.0067,-0.156442,0.083501
1063,-0.473859,0.739747,-0.47772,0.048505,0.053909,0.0470709999999999
1064,-0.467983,0.7673979999999999,-0.438263,0.068676,0.082211,0.051391
1065,-0.463399,0.792736,-0.395995,0.064107,0.030659,0.036819
1066,-0.456974,0.816809,-0.352104,0.1376079999999999,-0.092749,-0.006661
1067,-0.4462649999999999,0.8405520000000001,-0.30708,0.218726,-0.138709,-0.0084409999999999
1068,-0.434407,0.861346,-0.263347,0.2350809999999999,-0.1293359999999999,-0.032704
1069,-0.42202,0.879433,-0.220162,0.248803,-0.094674,0.068459
1070,-0.408014,0.896043,-0.174942,0.1775,-0.1103369999999999,0.0823059999999999
1071,-0.393677,0.909958,-0.130252,0.094224,-0.146561,0.0257139999999999
1072,-0.384602,0.918474,-0.09196,-0.012981,-0.201967,0.003352
1073,-0.381671,0.922293,-0.060607,-0.002439,-0.184591,-0.043656
1074,-0.384132,0.922641,-0.033858,0.008765,-0.046557,-0.093736
1075,-0.385035,0.922826,-0.010431,0.061625,0.021662,-0.111776
1076,-0.383818,0.923312,0.012089,0.088087,0.083631,-0.128651
1077,-0.381779,0.923634,0.033346,0.09969,0.111797,-0.146292
1078,-0.379642,0.923543,0.053908,0.114993,0.026652,-0.138777
1079,-0.37776,0.923052,0.072381,0.06056,0.002257,-0.156381
1080,-0.376807,0.922048,0.088365,0.057273,0.062372,-0.199769
1081,-0.375425,0.920954,0.104236,0.125196,0.113516,-0.208285
1082,-0.3720449999999999,0.920494,0.119327,0.141103,0.193963,-0.1821019999999999
1083,-0.369265,0.919675,0.133436,0.056887,0.066149,-0.183668
1084,-0.368183,0.918119,0.1465,0.011096,0.002932,-0.167924
1085,-0.366315,0.916957,0.158006,0.101605,0.327763,-0.1373609999999999
1086,-0.36648,0.915134,0.167883,0.106241,0.360531,-0.164785
1087,-0.369118,0.912495,0.176258,-0.170677,0.386715,-0.189472
1088,-0.372791,0.909672,0.18299,-0.344571,0.336559,-0.190802
1089,-0.378975,0.906353,0.186715,-0.32444,0.384067,-0.11509
1090,-0.386982,0.903507,0.184067,-0.210384,0.4461479999999999,0.068085
1091,-0.396397,0.901795,0.172035,-0.224026,0.073059,-0.101448
1092,-0.409009,0.8991709999999999,0.15545,-0.180988,-0.000566,-0.153818
1093,-0.425612,0.894963,0.133631,-0.075501,0.0797529999999999,-0.225321
1094,-0.443463,0.890523,0.10135,-0.097827,0.367548,-0.261491
1095,-0.462104,0.885375,0.050357,-0.089379,0.372773,-0.22948
1096,-0.4810569999999999,0.87646,-0.0192,0.0709159999999999,0.231465,-0.123439
1097,-0.4947029999999999,0.8643049999999999,-0.090638,0.142927,0.228102,0.068467
1098,-0.4998729999999999,0.852614,-0.152148,0.223658,0.345186,0.15787
1099,-0.501825,0.8407620000000001,-0.2031359999999999,0.133051,0.076138,0.232265
1100,-0.503087,0.825041,-0.257268,0.01746,-0.118269,0.244862
1101,-0.508421,0.801558,-0.314627,-0.141267,-0.326216,0.224203
1102,-0.518962,0.7694479999999999,-0.3723,-0.010411,-0.355569,0.085557
1103,-0.526442,0.732328,-0.431897,0.112288,-0.2540719999999999,0.086789
1104,-0.532077,0.6936180000000001,-0.485563,0.257419,-0.066299,0.158445
1105,-0.5391640000000001,0.654357,-0.530192,0.262614,-0.03752,0.275126
1106,-0.552188,0.612024,-0.566127,0.158771,-0.066996,0.213008
1107,-0.568337,0.567344,-0.595903,0.114739,-0.0536419999999999,0.158372
1108,-0.582562,0.524388,-0.620987,0.090512,-0.213231,0.035141
1109,-0.593326,0.487764,-0.640343,0.1644779999999999,-0.184724,0.04618
1110,-0.603318,0.458476,-0.65253,0.177918,-0.171336,0.04964
1111,-0.6099,0.437854,-0.6605260000000001,0.094061,-0.179477,0.045612
1112,-0.610957,0.427491,-0.666312,0.066371,-0.298615,0.0572419999999999
1113,-0.607204,0.4268119999999999,-0.670167,0.084621,-0.32914,0.0517279999999999
1114,-0.604588,0.434285,-0.667726,0.157185,-0.182499,-0.069548
1115,-0.603881,0.448189,-0.6591229999999999,0.19934,-0.105416,-0.203289
1116,-0.59707,0.471045,-0.649317,0.12774,-0.0977389999999999,-0.273748
1117,-0.587667,0.497328,-0.638201,-0.007686,-0.051054,-0.372877
1118,-0.581331,0.5234449999999999,-0.622934,0.235109,0.060631,0.073236
1119,-0.56328,0.569433,-0.5987060000000001,0.217058,0.014643,0.0490079999999999
1120,-0.547347,0.59844,-0.5850350000000001,-0.607895,1.287149,-0.688006
1121,-0.54524,0.616711,-0.567773,0.501508,-0.345623,0.6118100000000001
1122,-0.514717,0.658836,-0.548622,0.333458,-0.916786,0.627236
1123,-0.497726,0.698213,-0.51454,-0.021806,0.132476,0.138808
1124,-0.487971,0.727961,-0.4816,-0.350713,0.508458,0.01314
1125,-0.486746,0.751962,-0.444537,-0.284357,-0.023126,0.019396
1126,-0.482514,0.774724,-0.408609,0.0624399999999999,-0.287114,0.014841
1127,-0.476275,0.798599,-0.36794,0.169924,-0.1416319999999999,-0.03776
1128,-0.470021,0.8214600000000001,-0.322894,0.156071,-0.062609,-0.119046
1129,-0.4625689999999999,0.843161,-0.274015,0.16159,-0.016424,-0.050677
1130,-0.449126,0.864555,-0.225394,0.249419,-0.0940169999999999,0.091055
1131,-0.432162,0.883703,-0.179652,0.289065,-0.123724,0.025065
1132,-0.418527,0.897767,-0.137182,0.198404,-0.198106,-0.030345
1133,-0.411533,0.906325,-0.095824,-0.059902,-0.184401,-0.028886
1134,-0.40857,0.910973,-0.05625,-0.093154,-0.160699,-0.0280699999999999
1135,-0.408513,0.912489,-0.021082,-0.063471,-0.083968,0.024073
1136,-0.409518,0.912276,0.003426,-0.038648,0.1253369999999999,-0.099145
1137,-0.408086,0.912578,0.025091,0.041036,0.149021,-0.08872
1138,-0.404477,0.913373,0.045939,0.151258,-0.0038729999999999,-0.064051
1139,-0.40202,0.913487,0.062314,0.11047,0.059139,-0.063336
1140,-0.401316,0.912866,0.074714,0.080545,0.153998,-0.0822519999999999
1141,-0.399214,0.912593,0.088108,0.117797,0.146306,-0.2222329999999999
1142,-0.392368,0.913655,0.106025,0.130131,0.144771,-0.270073
1143,-0.383865,0.915106,0.1232359999999999,0.096222,0.283029,-0.269018
1144,-0.378899,0.915147,0.137478,-0.06652,0.260573,-0.277996
1145,-0.376264,0.914425,0.149029,-0.152926,0.315982,-0.293027
1146,-0.376444,0.913317,0.155246,-0.205755,0.285139,-0.270999
1147,-0.381316,0.911753,0.152525,-0.242601,0.349539,-0.1467119999999999
1148,-0.390521,0.909226,0.144082,-0.202389,0.414641,-0.049691
1149,-0.400232,0.907544,0.127032,-0.155249,0.36658,0.073361
1150,-0.407672,0.907679,0.0994159999999999,-0.234067,-0.070933,-0.120656
1151,-0.419343,0.905139,0.069549,-0.211761,-0.078311,-0.143478
1152,-0.438641,0.8980299999999999,0.0331529999999999,-0.159428,0.302882,-0.1484339999999999
1153,-0.457007,0.8892180000000001,-0.020026,0.088461,0.399448,-0.176293
1154,-0.472439,0.87651,-0.092192,0.280255,0.396851,-0.137758
1155,-0.483652,0.8598309999999999,-0.1635319999999999,0.31849,0.409441,0.021594
1156,-0.491513,0.842727,-0.219543,0.244763,0.190903,0.047988
1157,-0.499064,0.823124,-0.270882,0.075129,-0.009372,0.180489
1158,-0.507709,0.7980119999999999,-0.32463,-0.146192,-0.314537,0.149322
1159,-0.519137,0.766994,-0.377088,-0.0277529999999999,-0.39027,0.234678
1160,-0.5317729999999999,0.7334890000000001,-0.42331,0.09052,-0.396376,0.2127389999999999
1161,-0.540146,0.698004,-0.470121,0.179215,-0.349676,0.173506
1162,-0.5496449999999999,0.65884,-0.5136189999999999,0.23748,-0.200618,0.1151809999999999
1163,-0.562109,0.618726,-0.548814,0.190115,-0.080762,0.116303
1164,-0.577801,0.5780930000000001,-0.5761430000000001,0.193554,-0.075819,0.108339
1165,-0.591797,0.539089,-0.599287,0.170487,-0.117138,0.1364119999999999
1166,-0.6019909999999999,0.501659,-0.6212340000000001,0.054262,-0.139934,0.114871
1167,-0.610708,0.466617,-0.639759,0.021765,-0.08382,0.07642
1168,-0.620002,0.436075,-0.652246,0.064246,-0.105447,0.044412
1169,-0.62561,0.412217,-0.662328,0.1477349999999999,-0.127808,0.042256
1170,-0.627793,0.396341,-0.669909,0.1602029999999999,-0.145792,0.002688
1171,-0.627067,0.388498,-0.675163,0.165855,-0.181101,-0.011575
1172,-0.623444,0.387305,-0.679192,0.1531829999999999,-0.211279,-0.0283889999999999
1173,-0.618203,0.392115,-0.6812189999999999,0.147943,-0.2160889999999999,-0.026361
1174,-0.613717,0.40101,-0.6800970000000001,0.189416,-0.204568,-0.0584289999999999
1175,-0.6089359999999999,0.415058,-0.6759539999999999,0.032016,-0.086735,-0.132091
1176,-0.601984,0.43583,-0.6690699999999999,-0.055501,-0.048501,-0.198758
1177,-0.5945229999999999,0.460989,-0.658802,-0.1534319999999999,0.005411,-0.379529
1178,-0.5908100000000001,0.4837579999999999,-0.6456850000000001,-0.341059,0.6119140000000001,-0.666037
1179,-0.584195,0.50279,-0.637108,-0.779926,1.211016,-1.097694
1180,-0.594433,0.513382,-0.61893,0.437695,0.3624719999999999,-0.137722
1181,-0.575163,0.544063,-0.610877,-0.207827,-0.6967270000000001,0.112403
1182,-0.5594359999999999,0.585019,-0.587172,-0.1590089999999999,-0.037717,-0.0027329999999999
1183,-0.541518,0.6199100000000001,-0.567851,-0.03206,0.7289359999999999,0.030192
1184,-0.527729,0.654251,-0.541702,-0.094387,-0.155198,0.0142979999999999
1185,-0.515464,0.68621,-0.5132220000000001,0.032233,-0.313819,-0.016075
1186,-0.506396,0.718593,-0.4766229999999999,0.128848,0.078831,0.117584
1187,-0.503908,0.74761,-0.432594,0.0540169999999999,0.09817,0.078147
1188,-0.5042840000000001,0.772737,-0.385428,0.0111349999999999,0.06784,0.039618
1189,-0.499131,0.798094,-0.337479,0.0608679999999999,-0.059889,-0.024337
1190,-0.486785,0.8246110000000001,-0.288153,0.073211,-0.121669,-0.035516
1191,-0.4699,0.84906,-0.241383,0.265173,-0.215331,0.078786
1192,-0.452235,0.8703879999999999,-0.194629,0.322413,-0.292995,-0.001385
1193,-0.437606,0.8864200000000001,-0.150772,0.2300559999999999,-0.191657,-0.100602
1194,-0.427988,0.896963,-0.110693,0.095362,-0.12879,-0.092935
1195,-0.422647,0.903476,-0.0712,0.009942,-0.114016,-0.0043619999999999
1196,-0.4192229999999999,0.907429,-0.028127,-0.0254789999999999,-0.046406,0.022481
1197,-0.415965,0.909353,0.003914,0.02389,0.004236,-0.145729
1198,-0.412079,0.91064,0.029843,0.103531,-0.018092,-0.157696
1199,-0.407686,0.911427,0.055277,0.109926,0.0166879999999999,-0.1209819999999999
1200,-0.403311,0.91181,0.076851,0.079779,0.115656,-0.091958
1201,-0.39905,0.912055,0.094218,0.099336,0.111047,-0.103129
1202,-0.393963,0.912479,0.110167,0.072598,0.131711,-0.11685
1203,-0.390107,0.912114,0.125799,0.0840149999999999,0.166011,-0.127004
1204,-0.387517,0.911331,0.138798,0.0917559999999999,0.074921,-0.17725
1205,-0.385181,0.910706,0.149026,-0.027417,0.134445,-0.235238
1206,-0.383477,0.909997,0.1575109999999999,-0.045844,0.225608,-0.196665
1207,-0.3835199999999999,0.908931,0.163445,-0.047006,0.227132,-0.165444
1208,-0.385429,0.906842,0.170408,0.018379,0.19855,-0.134687
1209,-0.388154,0.90432,0.177477,-0.058745,0.224388,-0.119264
1210,-0.393471,0.901688,0.179151,-0.17054,0.4309229999999999,-0.11067
1211,-0.400034,0.8994840000000001,0.175665,-0.148596,0.5934510000000001,0.069025
1212,-0.405129,0.8998079999999999,0.161777,-0.261008,0.31174,-0.020557
1213,-0.4111039999999999,0.9002399999999999,0.14324,-0.257903,-0.009722,-0.171164
1214,-0.4247689999999999,0.8968,0.12361,-0.119421,0.10793,-0.086348
1215,-0.442189,0.892025,0.093374,-0.064708,0.359013,-0.042349
1216,-0.45935,0.88725,0.041779,-0.000717,0.389453,-0.2311409999999999
1217,-0.479547,0.8770950000000001,-0.0265089999999999,0.06434,0.2578539999999999,-0.073588
1218,-0.4951779999999999,0.863008,-0.099909,0.130126,0.3024429999999999,0.047922
1219,-0.5044069999999999,0.8472200000000001,-0.166616,0.132002,0.392862,0.044256
1220,-0.511315,0.830211,-0.221987,0.06318,0.091909,0.035814
1221,-0.5143909999999999,0.809769,-0.282222,0.066256,0.11235,0.09605
1222,-0.519888,0.782103,-0.343523,-0.073832,-0.353865,0.103548
1223,-0.5319699999999999,0.746305,-0.400019,0.132617,-0.33299,0.098871
1224,-0.543257,0.706684,-0.453266,0.169691,-0.196109,0.086949
1225,-0.553565,0.665985,-0.500013,0.155432,-0.048141,0.2337159999999999
1226,-0.56263,0.624258,-0.541971,0.253548,-0.114019,0.243402
1227,-0.574741,0.5780390000000001,-0.579248,0.2417949999999999,-0.0744529999999999,0.17727
1228,-0.591527,0.530219,-0.607412,0.133962,-0.165564,0.148046
1229,-0.6066739999999999,0.483767,-0.630796,0.188293,-0.330812,0.059202
1230,-0.61908,0.441372,-0.649552,0.198869,-0.2340199999999999,0.054795
1231,-0.629903,0.404256,-0.663165,0.163854,-0.199819,0.120089
1232,-0.640033,0.373424,-0.671492,0.195025,-0.20309,0.141035
1233,-0.646816,0.350384,-0.677383,0.202755,-0.173688,0.161102
1234,-0.65052,0.336812,-0.680713,0.292763,-0.301686,0.071887
1235,-0.650608,0.334094,-0.681967,0.300388,-0.280383,0.023245
1236,-0.645997,0.341004,-0.68293,0.25406,-0.250428,-0.077431
1237,-0.63747,0.355653,-0.683471,0.122424,-0.251633,-0.167634
1238,-0.62876,0.375782,-0.680763,0.144598,-0.2137489999999999,-0.2178429999999999
1239,-0.619818,0.400885,-0.674615,0.0860809999999999,-0.176337,-0.298102
1240,-0.6143029999999999,0.427381,-0.663299,-0.073166,0.023761,-0.542573
1241,-0.61136,0.450891,-0.650327,-0.2144,0.179419,-0.432818
1242,-0.602548,0.467525,-0.646796,-0.541877,0.440968,-0.511758
1243,-0.611105,0.484439,-0.625985,0.458288,-0.315265,0.465157
1244,-0.5913470000000001,0.522328,-0.6143850000000001,-0.123741,-0.044286,0.269155
1245,-0.5776680000000001,0.560991,-0.5929369999999999,-0.361663,0.315641,0.245418
1246,-0.56016,0.596769,-0.57452,-0.418127,-0.003263,0.139034
1247,-0.542309,0.634179,-0.551092,-0.098834,-0.174965,0.2034359999999999
1248,-0.526633,0.6718970000000001,-0.5207649999999999,0.071509,-0.003424,0.100477
1249,-0.513174,0.708641,-0.484213,0.116308,0.156669,0.075735
1250,-0.497343,0.743426,-0.4471569999999999,0.093473,0.139524,-0.024782
1251,-0.478104,0.778071,-0.407433,0.045151,0.00916,-0.073387
1252,-0.457816,0.8116,-0.3628889999999999,0.10868,-0.1443019999999999,-0.0836129999999999
1253,-0.434005,0.843007,-0.317736,0.166778,-0.185109,-0.104948
1254,-0.41142,0.8704379999999999,-0.270271,0.163678,-0.193802,-0.008614
1255,-0.394417,0.891957,-0.2209539999999999,0.0620649999999999,-0.161031,0.0461339999999999
1256,-0.378179,0.909209,-0.174042,0.0003259999999999,-0.172057,0.074524
1257,-0.364515,0.922617,-0.126004,-0.030504,-0.185663,0.128857
1258,-0.35699,0.93057,-0.081034,-0.085332,-0.194669,0.08018
1259,-0.354032,0.934278,-0.041884,-0.020312,-0.10719,0.058364
1260,-0.351591,0.936127,-0.004043,0.012831,0.00029,0.05159
1261,-0.348487,0.936883,0.027793,0.1609259999999999,0.0725929999999999,0.079003
1262,-0.342806,0.93786,0.0535389999999999,0.099871,0.0154169999999999,0.041676
1263,-0.336373,0.938684,0.075422,0.061944,0.023825,0.004534
1264,-0.330027,0.939155,0.095037,-0.016516,-0.031105,-0.085638
1265,-0.324998,0.939041,0.111989,-0.021102,-0.089263,-0.069752
1266,-0.321587,0.93822,0.12762,0.000695,-0.040652,-0.042598
1267,-0.318904,0.936863,0.143351,0.050517,0.00729,-0.035899
1268,-0.316655,0.935407,0.157172,0.120976,-0.0437899999999999,-0.1078549999999999
1269,-0.315138,0.9338,0.169309,0.08499,0.018364,-0.13072
1270,-0.314916,0.931966,0.179518,0.042439,0.019312,-0.19792
1271,-0.313984,0.929688,0.192492,0.030536,-0.1269839999999999,-0.127169
1272,-0.3134389999999999,0.925669,0.211783,0.027993,-0.121988,-0.108694
1273,-0.314276,0.920111,0.233631,-0.002679,0.060922,-0.2078739999999999
1274,-0.316589,0.914543,0.2516739999999999,-0.01004,0.156197,-0.268276
1275,-0.3194909999999999,0.91021,0.26344,-0.015028,0.209114,-0.31561
1276,-0.320702,0.907707,0.2705059999999999,0.13662,0.2033,-0.230757
1277,-0.320532,0.906847,0.273578,0.087805,0.198653,-0.184879
1278,-0.3224889999999999,0.906369,0.272862,-0.161169,0.180728,-0.270497
1279,-0.324067,0.906861,0.269333,-0.196944,0.08052,-0.340759
1280,-0.328071,0.907643,0.261746,-0.153359,0.098964,-0.242856
1281,-0.335051,0.908735,0.248794,-0.047685,0.18175,-0.1116019999999999
1282,-0.343711,0.911779,0.224677,0.050056,0.270152,-0.036323
1283,-0.351719,0.917242,0.186872,0.1352269999999999,0.235011,0.061877
1284,-0.358508,0.922919,0.140194,0.092593,0.201242,0.144352
1285,-0.369463,0.925453,0.083647,-0.258695,0.259163,0.133288
1286,-0.386397,0.9221,0.019852,-0.385896,0.316273,0.024094
1287,-0.405452,0.912848,-0.0478,-0.4035849999999999,0.203821,0.02334
1288,-0.417516,0.901919,-0.110417,0.024587,0.028867,0.06731
1289,-0.430151,0.8873059999999999,-0.166224,0.032735,0.2131429999999999,0.21844
1290,-0.44635,0.871215,-0.204277,0.027954,0.317841,0.356804
1291,-0.462417,0.8539030000000001,-0.238733,-0.024949,0.040582,0.451075
1292,-0.475771,0.831382,-0.287091,-0.007338,-0.0885389999999999,0.319577
1293,-0.489509,0.80453,-0.336289,0.06652,-0.112849,0.235413
1294,-0.501283,0.776332,-0.382104,0.141389,-0.094645,0.154092
1295,-0.513356,0.750458,-0.4162439999999999,0.133076,-0.099136,0.136795
1296,-0.526026,0.729506,-0.437148,0.1297559999999999,-0.134001,0.199843
1297,-0.537519,0.7151770000000001,-0.4467399999999999,0.095716,-0.1691109999999999,0.209878
1298,-0.545081,0.708005,-0.448996,0.147559,-0.201154,0.151954
1299,-0.548238,0.70807,-0.445032,0.182988,-0.2178659999999999,0.088099
1300,-0.546492,0.715142,-0.435775,0.209029,-0.217828,0.036437
1301,-0.5409579999999999,0.727925,-0.4212729999999999,0.217136,-0.235157,0.03045
1302,-0.532192,0.744637,-0.402825,0.208431,-0.263863,0.014046
1303,-0.52127,0.764707,-0.378788,0.207564,-0.308454,0.010975
1304,-0.507433,0.7891739999999999,-0.345968,0.197161,-0.138036,-0.017679
1305,-0.49072,0.816148,-0.305078,0.188398,0.301238,-0.163397
1306,-0.476309,0.83975,-0.260623,0.233328,0.775301,-0.396298
1307,-0.466562,0.851533,-0.239138,-0.0536559999999999,1.233764,-0.353346
1308,-0.455236,0.8438100000000001,-0.284113,-0.614207,0.1713569999999999,-1.129339
1309,-0.452692,0.823451,-0.342018,-0.175223,-1.148143,-0.685387
1310,-0.465983,0.814492,-0.345601,0.254634,-0.167764,0.522893
1311,-0.469074,0.828089,-0.306946,0.190601,0.542806,0.608337
1312,-0.469632,0.848218,-0.24484,-0.420535,0.962191,0.580747
1313,-0.4619029999999999,0.8632610000000001,-0.203471,-0.209056,-0.074641,0.043605
1314,-0.448976,0.871316,-0.197996,-0.156096,-0.309366,-0.086214
1315,-0.443322,0.872445,-0.205621,0.090111,-0.592889,0.101358
1316,-0.439533,0.87549,-0.200754,0.083606,-0.0266889999999999,0.456949
1317,-0.437181,0.885241,-0.158724,0.061647,0.12692,0.529788
1318,-0.4342789999999999,0.8933450000000001,-0.1153589999999999,0.0874009999999999,0.291668,0.206759
1319,-0.4246399999999999,0.900673,-0.0918679999999999,0.088245,0.286003,-0.014516
1320,-0.4105979999999999,0.908158,-0.081416,0.021666,-0.070924,-0.042485
1321,-0.391203,0.917048,-0.077168,-0.033434,-0.135721,0.001957
1322,-0.372243,0.926031,-0.062225,-0.024471,-0.173834,0.061126
1323,-0.3584239999999999,0.932653,-0.0407449999999999,-0.02329,-0.118902,0.101887
1324,-0.351033,0.935902,-0.0288529999999999,0.011082,-0.100437,0.043349
1325,-0.346178,0.937852,-0.023705,0.02791,-0.044465,0.039528
1326,-0.3387159999999999,0.940753,-0.014958,0.073716,0.070325,0.053547
1327,-0.328556,0.944468,3.4e-05,0.16077,-0.015177,0.108593
1328,-0.317202,0.948185,0.017194,0.226153,0.064007,0.135165
1329,-0.306563,0.951252,0.033255,0.194884,0.04562,0.125543
1330,-0.298417,0.953329,0.045577,0.021486,-0.037512,0.017702
1331,-0.290927,0.954968,0.0580049999999999,-0.001477,-0.084789,0.010812
1332,-0.28565,0.955702,0.070733,-0.002924,-0.113997,-0.0009539999999999
1333,-0.284394,0.954856,0.0856529999999999,-0.026916,-0.126914,0.1031589999999999
1334,-0.286247,0.952608,0.1027859999999999,0.030342,-0.024721,0.0375029999999999
1335,-0.28845,0.949994,0.119471,0.066282,0.077304,-0.023982
1336,-0.289523,0.947259,0.137266,0.073306,0.153602,-0.155867
1337,-0.290002,0.944203,0.156026,0.087228,-0.015614,-0.24735
1338,-0.289082,0.942094,0.169866,0.166096,0.028411,-0.261328
1339,-0.287499,0.941591,0.175252,0.291542,0.33238,-0.106832
1340,-0.287213,0.941789,0.1746579999999999,-0.133472,0.135772,-0.227896
1341,-0.286733,0.942199,0.173229,-0.133952,0.1353619999999999,-0.226467
1342,-0.287497,0.942322,0.171281,-0.216257,0.010009,-0.259706
1343,-0.29073,0.942531,0.164547,-0.117092,0.132161,-0.164989
1344,-0.296325,0.943322,0.149326,-0.021454,0.334403,-0.0206949999999999
1345,-0.302023,0.945451,0.121938,-0.001444,0.410735,0.14155
1346,-0.305031,0.94893,0.080335,-0.102958,0.269942,0.273898
1347,-0.311239,0.949973,0.025478,-0.421641,0.015374,0.292408
1348,-0.333751,0.941735,-0.041431,-0.5503439999999999,-0.069466,0.19266
1349,-0.365765,0.923433,-0.116021,-0.8785129999999999,-0.025224,0.145119
1350,-0.376701,0.906231,-0.191878,-0.276329,0.322682,0.133422
1351,-0.383264,0.887652,-0.255262,0.02305,0.4086889999999999,0.29347
1352,-0.392624,0.8685350000000001,-0.302444,-0.0361019999999999,0.4067489999999999,0.6527850000000001
1353,-0.4056659999999999,0.843239,-0.352652,-0.045445,0.246941,0.585699
1354,-0.4219159999999999,0.806899,-0.4133779999999999,-0.096135,0.064896,0.461642
1355,-0.437266,0.760382,-0.480209,-0.172139,-0.198172,0.073425
1356,-0.452608,0.706105,-0.544562,-0.113402,-0.155186,0.019431
1357,-0.472733,0.651982,-0.592816,-0.029495,-0.03275,0.100918
1358,-0.4955199999999999,0.601137,-0.626963,0.022192,0.226942,0.289332
1359,-0.516616,0.551134,-0.655247,0.028624,0.224531,0.247807
1360,-0.5346479999999999,0.500967,-0.6805680000000001,0.0615039999999999,0.121195,0.148128
1361,-0.551557,0.453003,-0.7004020000000001,0.083036,-0.089844,0.064645
1362,-0.568142,0.410193,-0.7134050000000001,0.058896,-0.050039,0.065761
1363,-0.5805520000000001,0.3750489999999999,-0.722695,0.162996,-0.130787,0.121194
1364,-0.59208,0.345,-0.728291,0.1829,-0.1587049999999999,0.207005
1365,-0.602016,0.3195389999999999,-0.731754,0.13119,-0.142415,0.2400699999999999
1366,-0.609471,0.299156,-0.734196,0.185627,-0.108482,0.166614
1367,-0.614622,0.284967,-0.735545,0.1973849999999999,-0.086282,0.090388
1368,-0.6165039999999999,0.276051,-0.737367,0.162647,-0.077397,-0.020735
1369,-0.6138100000000001,0.271974,-0.741121,0.166453,-0.157655,-0.07968
1370,-0.609399,0.272792,-0.7444529999999999,0.137139,-0.174175,-0.067742
1371,-0.606733,0.276035,-0.745434,0.106001,-0.191944,-0.029362
1372,-0.6063609999999999,0.282386,-0.743355,-0.048486,-0.185951,-0.083809
1373,-0.608138,0.291783,-0.7382569999999999,-0.323274,-0.0076799999999999,-0.418543
1374,-0.6140680000000001,0.293086,-0.732812,-0.568473,0.151784,-0.457984
1375,-0.626768,0.278934,-0.727564,-0.044863,-0.103443,-0.006887
1376,-0.641127,0.274815,-0.716536,0.288054,-0.102895,-0.117112
1377,-0.638735,0.300686,-0.7082350000000001,0.101534,0.027698,-0.0645309999999999
1378,-0.637832,0.327055,-0.697277,-0.288727,0.280244,0.2259179999999999
1379,-0.634261,0.356331,-0.686099,-0.248277,0.430091,0.232837
1380,-0.624011,0.391544,-0.676235,-0.255033,0.3929559999999999,0.2430989999999999
1381,-0.613064,0.4290609999999999,-0.663361,-0.024647,0.2541199999999999,0.187165
1382,-0.5970979999999999,0.46995,-0.650084,0.1113799999999999,0.273702,0.207839
1383,-0.578705,0.512796,-0.6341359999999999,0.152604,0.255209,0.250347
1384,-0.5600390000000001,0.556038,-0.614139,0.155132,0.156395,0.147067
1385,-0.54291,0.597738,-0.589869,0.113619,0.1560609999999999,0.162913
1386,-0.5261279999999999,0.638035,-0.562217,0.074483,0.122875,0.148322
1387,-0.507514,0.6775979999999999,-0.532237,0.100714,-0.039064,0.212443
1388,-0.48927,0.717417,-0.495896,0.063458,-0.147394,0.164246
1389,-0.470739,0.7555970000000001,-0.455479,0.070944,-0.1635869999999999,0.130467
1390,-0.451993,0.790783,-0.412731,0.076932,-0.046551,0.168407
1391,-0.43361,0.8221430000000001,-0.368841,0.042786,-0.047088,0.1976369999999999
1392,-0.4153989999999999,0.850088,-0.323687,0.020761,-0.063177,0.169757
1393,-0.396264,0.87487,-0.278485,0.032205,-0.128197,0.162183
1394,-0.376247,0.894812,-0.240263,-0.042957,-0.1038119999999999,0.125181
1395,-0.3577369999999999,0.910779,-0.206111,-0.0614679999999999,-0.119779,0.091029
1396,-0.344287,0.92221,-0.175983,-0.013562,-0.071746,0.089619
1397,-0.338775,0.928413,-0.152499,-0.075486,-0.0079569999999999,0.131152
1398,-0.333505,0.933532,-0.131408,-0.037192,0.044786,0.121307
1399,-0.327907,0.938207,-0.110536,0.032177,0.045603,0.070009
1400,-0.323293,0.941981,-0.090149,0.017659,0.022008,0.006409
1401,-0.318028,0.945345,-0.071799,0.0143629999999999,0.036192,-0.079309
1402,-0.312375,0.948277,-0.056261,0.066373,0.100689,-0.146803
1403,-0.307728,0.950384,-0.045236,0.1182589999999999,0.159525,-0.112326
1404,-0.3043639999999999,0.951768,-0.038359,0.085553,0.153868,-0.09015
1405,-0.301726,0.952808,-0.033014,0.0300889999999999,0.0635039999999999,-0.062018
1406,-0.299798,0.953639,-0.025764,-0.146643,0.183491,-0.003274
1407,-0.298883,0.95412,-0.017182,-0.195349,0.188977,0.038392
1408,-0.301176,0.953512,-0.008811,-0.204257,0.202371,0.105415
1409,-0.307537,0.951514,-0.003399,-0.275136,0.466256,0.071148
1410,-0.315226,0.948995,-0.003329,-0.1639,0.541896,0.147189
1411,-0.320606,0.947081,-0.014827,-0.316631,0.533296,0.261393
1412,-0.322315,0.946201,-0.028051,-0.333752,-0.005161,0.092382
1413,-0.334213,0.941591,-0.040979,-0.294251,0.018095,0.145898
1414,-0.349796,0.934341,-0.067987,-0.0958519999999999,0.200257,0.157175
1415,-0.363935,0.924556,-0.112791,-0.033007,0.376317,-0.071932
1416,-0.380395,0.908803,-0.171326,-0.048255,0.353236,-0.069366
1417,-0.399427,0.884677,-0.240378,-0.029085,0.170178,-0.007592
1418,-0.410139,0.8561559999999999,-0.314266,0.0450879999999999,0.041259,0.132549
1419,-0.41253,0.8283229999999999,-0.379053,0.071466,0.0723419999999999,0.19285
1420,-0.420822,0.802819,-0.422343,0.050156,0.051414,0.409861
1421,-0.4295279999999999,0.7729739999999999,-0.466905,0.0038689999999999,-0.0036409999999999,0.444017
1422,-0.4370989999999999,0.733953,-0.519849,-0.033391,-0.292379,0.199476
1423,-0.447092,0.68809,-0.5715140000000001,0.055857,-0.261469,0.103527
1424,-0.456132,0.637617,-0.620787,0.080048,-0.188185,0.117644
1425,-0.465892,0.5879220000000001,-0.661274,0.081935,0.010879,0.273578
1426,-0.47798,0.540089,-0.6926979999999999,0.074415,0.071742,0.339213
1427,-0.4878119999999999,0.491937,-0.7211310000000001,0.094288,-0.049005,0.2767949999999999
1428,-0.496839,0.4444109999999999,-0.7454149999999999,0.098233,-0.119414,0.220451
1429,-0.50516,0.4015039999999999,-0.763938,0.093692,-0.149749,0.185325
1430,-0.5129130000000001,0.3657559999999999,-0.776619,0.089451,-0.105701,0.167625
1431,-0.521335,0.336889,-0.784035,0.094943,-0.074361,0.155189
1432,-0.527036,0.317609,-0.788259,0.104672,-0.1214259999999999,0.13883
1433,-0.52686,0.3092,-0.791712,0.0416,-0.181347,0.154078
1434,-0.521289,0.312107,-0.794255,-0.01222,-0.194553,0.129949
1435,-0.5189189999999999,0.325282,-0.790511,0.0525039999999999,-0.1521559999999999,-0.010056
1436,-0.520888,0.345961,-0.7803720000000001,0.126708,-0.1043839999999999,-0.20881
1437,-0.5255810000000001,0.370746,-0.765706,0.128944,-0.0871,-0.260326
1438,-0.529506,0.399895,-0.748131,0.074885,-0.008339,0.342568
1439,-0.521762,0.44371,-0.728614,-0.553022,0.863876,-0.564553
1440,-0.512768,0.4641619999999999,-0.722229,-1.462101,1.458995,-0.771683
1441,-0.523161,0.477016,-0.706222,0.324308,-0.29652,0.427795
1442,-0.504336,0.512641,-0.694864,0.115115,0.000955,0.291085
1443,-0.4895609999999999,0.557826,-0.670187,0.10034,-0.04423,0.266409
1444,-0.48299,0.591591,-0.645547,-0.46629,0.418342,0.304238
1445,-0.483209,0.6192270000000001,-0.618915,-0.102103,-0.110804,0.170352
1446,-0.479339,0.64881,-0.590988,-0.105973,-0.1403869999999999,0.142426
1447,-0.471964,0.680358,-0.560669,0.15774,-0.045195,0.083222
1448,-0.463792,0.7129439999999999,-0.525922,0.148988,0.11248,0.030682
1449,-0.452305,0.7460140000000001,-0.488741,0.078862,0.056812,0.029925
1450,-0.436192,0.779525,-0.449511,0.089573,-0.0518799999999999,0.093142
1451,-0.418226,0.81038,-0.410308,0.229078,-0.129151,0.173477
1452,-0.4015579999999999,0.836733,-0.372303,0.228646,-0.176485,0.149342
1453,-0.386696,0.8572719999999999,-0.339898,0.106697,-0.194949,0.103769
1454,-0.373657,0.875185,-0.307262,-0.023346,-0.142702,0.048
1455,-0.365727,0.8898739999999999,-0.2726639999999999,-0.047786,-0.1232119999999999,0.0405779999999999
1456,-0.361671,0.900474,-0.2414889999999999,-0.076088,0.030892,0.104068
1457,-0.3582329999999999,0.908109,-0.216758,-0.037397,-0.062894,0.100379
1458,-0.354577,0.913978,-0.197221,-0.017417,-0.100577,0.065065
1459,-0.350942,0.919249,-0.178317,0.026204,-0.038832,-0.007016
1460,-0.347695,0.924113,-0.1584269999999999,0.094826,0.1668599999999999,0.007884
1461,-0.343449,0.928763,-0.139341,0.0681659999999999,0.066659,-0.011858
1462,-0.338856,0.932836,-0.1223369999999999,-0.0378839999999999,-0.0277459999999999,-0.088966
1463,-0.334134,0.936631,-0.105121,-0.0636019999999999,-0.016541,-0.111523
1464,-0.32993,0.939794,-0.088913,0.006673,0.0318699999999999,-0.06189
1465,-0.324427,0.942935,-0.074791,0.05897,0.166105,-0.047401
1466,-0.320844,0.945372,-0.05747,0.032025,0.176027,-0.087198
1467,-0.319807,0.946717,-0.037701,-0.107516,0.258513,-0.097629
1468,-0.319482,0.947333,-0.021507,-0.101066,0.249063,-0.0528029999999999
1469,-0.321144,0.946953,-0.010792,-0.089333,0.2680889999999999,-0.011531
1470,-0.32511,0.945645,-0.005514,-0.26066,0.591205,0.126516
1471,-0.331939,0.943259,-0.007005,-0.24727,0.665291,0.294039
1472,-0.335865,0.941708,-0.018732,-0.348995,0.319873,0.210596
1473,-0.33965,0.939913,-0.034244,-0.245189,-0.122103,-0.085491
1474,-0.3532619999999999,0.933857,-0.055577,-0.108698,-0.007176,-0.050487
1475,-0.371541,0.92352,-0.095087,-0.095042,0.2457,-0.062734
1476,-0.388853,0.907806,-0.157023,-0.06621,0.293213,-0.049795
1477,-0.405751,0.8845729999999999,-0.229946,0.062627,0.115183,-0.025135
1478,-0.4186829999999999,0.857728,-0.298307,0.170209,0.1595599999999999,0.176618
1479,-0.428346,0.8327129999999999,-0.350842,0.2052929999999999,0.2028859999999999,0.247693
1480,-0.4358619999999999,0.8094560000000001,-0.393431,0.096949,0.020378,0.243467
1481,-0.440389,0.7807029999999999,-0.443333,-0.006068,-0.089602,0.208378
1482,-0.4451739999999999,0.745005,-0.496762,-0.093813,-0.216334,0.229535
1483,-0.455259,0.704496,-0.544437,-0.126345,-0.399671,0.252612
1484,-0.464483,0.662668,-0.587464,0.026434,-0.189905,0.269563
1485,-0.47108,0.619475,-0.627951,0.077282,-0.035536,0.303092
1486,-0.477033,0.576379,-0.663488,0.173871,0.114173,0.30982
1487,-0.483887,0.532675,-0.694336,0.082794,-0.014929,0.230041
1488,-0.490746,0.487847,-0.7219180000000001,0.051995,-0.010033,0.226953
1489,-0.498329,0.444592,-0.74431,-0.025444,-0.081845,0.190004
1490,-0.5051329999999999,0.40436,-0.7624479999999999,0.019461,-0.081774,0.205777
1491,-0.509744,0.370111,-0.776641,0.024072,-0.047525,0.2199699999999999
1492,-0.513604,0.3436059999999999,-0.7862180000000001,0.01162,-0.08909,0.252206
1493,-0.51559,0.3256969999999999,-0.792516,0.064495,-0.154051,0.198965
1494,-0.514346,0.318085,-0.796407,0.06325,-0.146439,0.2028559999999999
1495,-0.510789,0.320022,-0.7979189999999999,0.1190809999999999,-0.115402,0.065848
1496,-0.504774,0.33178,-0.796944,0.037748,-0.09716,0.059914
1497,-0.499579,0.351009,-0.791964,0.032553,-0.11639,0.054934
1498,-0.496876,0.374106,-0.783041,-0.072872,-0.058066,-0.145014
1499,-0.499809,0.399876,-0.768299,0.076042,0.023433,0.026951
1500,-0.497399,0.4337439999999999,-0.751301,-0.209052,0.483263,-0.481228
1501,-0.49548,0.443471,-0.746877,-0.846042,1.327754,-0.65951
1502,-0.504321,0.457935,-0.732085,0.343539,-0.6496770000000001,0.70854
1503,-0.484539,0.494525,-0.721567,0.038616,-0.747683,0.495493
1504,-0.4832729999999999,0.5300560000000001,-0.696763,-0.208912,0.249333,0.2428139999999999
1505,-0.47601,0.557895,-0.679822,-0.480426,0.383832,0.334897
1506,-0.472547,0.5877,-0.656733,-0.33443,0.028801,0.307627
1507,-0.4662659999999999,0.617991,-0.6329859999999999,0.038211,0.013311,0.231696
1508,-0.460102,0.649357,-0.605499,0.033481,0.115047,0.173675
1509,-0.4553609999999999,0.680138,-0.574496,0.027185,0.162071,0.137621
1510,-0.448896,0.709974,-0.5426,0.035108,0.1086599999999999,0.09892
1511,-0.435484,0.7414029999999999,-0.510548,0.082807,0.023291,0.069157
1512,-0.4208199999999999,0.772169,-0.476076,0.194654,-0.0582409999999999,0.109423
1513,-0.407356,0.800854,-0.43895,0.171623,-0.067303,0.14412
1514,-0.394408,0.827117,-0.400377,0.130705,-0.073303,0.1089339999999999
1515,-0.383754,0.8498540000000001,-0.361195,0.014675,-0.0465089999999999,0.143895
1516,-0.373586,0.869282,-0.323668,-0.068263,-0.083134,0.1856529999999999
1517,-0.362174,0.8861959999999999,-0.288902,-0.117349,-0.169689,0.165138
1518,-0.351641,0.8991379999999999,-0.260532,-0.079496,-0.124648,0.127323
1519,-0.345469,0.907628,-0.2384099999999999,-0.036077,-0.049947,0.087424
1520,-0.34207,0.914301,-0.216836,0.055022,0.022421,0.051797
1521,-0.337748,0.920353,-0.1971099999999999,0.108439,0.038845,0.04025
1522,-0.330956,0.926531,-0.178839,0.113641,0.0578129999999999,0.070715
1523,-0.324187,0.932108,-0.161408,0.039809,0.021566,0.035691
1524,-0.3189639999999999,0.936399,-0.146267,-0.023382,0.0027949999999999,0.017407
1525,-0.315422,0.939452,-0.1338339999999999,-0.055076,-0.028274,-0.004716
1526,-0.312929,0.941776,-0.1229099999999999,-0.023023,-0.051105,0.000886
1527,-0.310769,0.94375,-0.1128319999999999,0.017328,-0.030741,0.027001
1528,-0.308791,0.945307,-0.104956,0.011351,0.04305,0.001913
1529,-0.3074949999999999,0.946576,-0.097018,-0.020935,0.0016809999999999,-0.02519
1530,-0.305575,0.948003,-0.088806,-0.028943,-0.045217,-0.070496
1531,-0.303554,0.949461,-0.079696,0.0296589999999999,-0.003797,-0.050126
1532,-0.300905,0.950983,-0.071135,-0.012053,0.031577,-0.036623
1533,-0.299749,0.951946,-0.062611,-0.058574,0.043598,-0.058727
1534,-0.30033,0.952251,-0.054684,-0.1189359999999999,0.099384,-0.11919
1535,-0.298932,0.953235,-0.044213,-0.008289,0.223752,-0.081015
1536,-0.29865,0.953731,-0.034287,0.043797,0.231144,-0.014831
1537,-0.298493,0.954023,-0.0267019999999999,-0.098434,0.256762,0.03778
1538,-0.299623,0.953828,-0.020211,-0.176375,0.415236,0.0357899999999999
1539,-0.302056,0.953147,-0.015586,-0.196113,0.494775,0.011786
1540,-0.304352,0.952407,-0.016121,-0.28096,0.677948,0.211678
1541,-0.305944,0.951724,-0.024279,-0.409129,0.28381,0.062578
1542,-0.31078,0.949873,-0.033566,-0.263866,0.086931,0.008892
1543,-0.32597,0.944095,-0.048975,-0.0514559999999999,0.1164819999999999,0.041132
1544,-0.344614,0.935203,-0.081284,-0.006018,0.37072,0.001099
1545,-0.363069,0.922345,-0.1320349999999999,-0.028548,0.390033,0.013337
1546,-0.382739,0.901603,-0.201489,-0.003827,0.244317,-0.034686
1547,-0.399184,0.873792,-0.277701,0.110716,0.210955,0.00228
1548,-0.413359,0.8426600000000001,-0.345019,0.151015,0.2199159999999999,0.118532
1549,-0.424484,0.8118850000000001,-0.4007969999999999,0.173813,0.1932579999999999,0.268702
1550,-0.429713,0.779621,-0.455545,-0.04688,-0.154544,0.3049719999999999
1551,-0.4358689999999999,0.7429020000000001,-0.5080359999999999,-0.118346,-0.239804,0.353586
1552,-0.448013,0.700153,-0.555929,0.0065,-0.343296,0.272512
1553,-0.461306,0.653402,-0.600208,0.0744809999999999,-0.261236,0.248951
1554,-0.469699,0.604747,-0.643159,0.123065,-0.166041,0.230363
1555,-0.479921,0.557975,-0.6770010000000001,0.164827,0.006494,0.276626
1556,-0.4906689999999999,0.511774,-0.7052109999999999,0.134712,0.02239,0.2806349999999999
1557,-0.501488,0.466277,-0.728757,0.109749,-0.050414,0.266736
1558,-0.512055,0.4227359999999999,-0.747721,0.037079,-0.053626,0.257258
1559,-0.520089,0.383504,-0.7631680000000001,0.03782,-0.040608,0.245758
1560,-0.524949,0.350481,-0.775619,0.068803,-0.131792,0.240249
1561,-0.526766,0.326635,-0.7847430000000001,0.087999,-0.05425,0.195082
1562,-0.527849,0.311896,-0.789994,0.041292,-0.030966,0.199021
1563,-0.5278619999999999,0.304896,-0.792713,0.01187,-0.110973,0.148884
1564,-0.524247,0.306605,-0.794451,0.0294959999999999,-0.175959,0.095507
1565,-0.516949,0.319073,-0.794323,0.0789,-0.167553,-0.047229
1566,-0.5102770000000001,0.342622,-0.78881,0.036355,-0.043961,-0.002907
1567,-0.50492,0.371667,-0.779046,-0.154748,0.011756,-0.148841
1568,-0.506268,0.401107,-0.763413,-0.127979,0.040055,-0.074188
1569,-0.508026,0.4358899999999999,-0.742901,-0.501617,0.8422780000000001,-0.922184
1570,-0.5054960000000001,0.447061,-0.7379720000000001,-0.491681,1.214835,-0.433857
1571,-0.511011,0.465282,-0.722754,0.500513,-0.43896,0.6945100000000001
1572,-0.48451,0.510279,-0.710533,-0.0463279999999999,-0.626139,0.389808
1573,-0.4810779999999999,0.550871,-0.681979,-0.2379619999999999,0.7422810000000001,0.362979
1574,-0.472384,0.581272,-0.662546,-0.506666,0.553708,0.295313
1575,-0.466293,0.614553,-0.636305,-0.137192,-0.190588,0.181242
1576,-0.455551,0.649375,-0.608912,0.095978,-0.1181859999999999,0.207927
1577,-0.4468109999999999,0.685353,-0.575012,0.081745,0.050075,0.2201989999999999
1578,-0.438389,0.719262,-0.5389470000000001,0.065159,0.079383,0.084037
1579,-0.427575,0.7515149999999999,-0.5023850000000001,0.0785,-0.000752,0.044575
1580,-0.4126109999999999,0.784196,-0.463435,0.12364,-0.121202,0.125438
1581,-0.395346,0.815395,-0.422865,0.155219,-0.136425,0.098219
1582,-0.379788,0.843613,-0.379553,0.191754,-0.149216,0.122168
1583,-0.364847,0.8658440000000001,-0.342318,0.136209,-0.062606,0.085727
1584,-0.353867,0.8839229999999999,-0.305677,0.041321,-0.0557059999999999,0.0581029999999999
1585,-0.3466869999999999,0.8989309999999999,-0.267786,-0.068551,-0.070211,0.148096
1586,-0.338391,0.911308,-0.2344889999999999,-0.040423,-0.085198,0.11927
1587,-0.332146,0.920288,-0.206703,-0.028908,-0.071792,0.102593
1588,-0.327364,0.926756,-0.184204,0.022005,0.037676,0.033402
1589,-0.3226429999999999,0.932301,-0.163374,0.065563,0.0349839999999999,0.044828
1590,-0.31797,0.936926,-0.145049,0.060203,-0.00585,0.019363
1591,-0.31436,0.940546,-0.12855,0.029936,-0.009973,-0.009908
1592,-0.312089,0.943249,-0.113381,0.032319,0.074314,0.0301449999999999
1593,-0.310031,0.945411,-0.100258,0.030612,0.062814,0.015648
1594,-0.307291,0.947521,-0.088029,0.001398,0.039601,-0.054229
1595,-0.3049389999999999,0.949312,-0.076094,-0.011284,0.107817,-0.08803
1596,-0.30165,0.951257,-0.063943,0.057097,0.1619789999999999,-0.062338
1597,-0.299281,0.952619,-0.05402,0.011699,0.208468,-0.031658
1598,-0.29862,0.953337,-0.044104,-0.199595,0.192079,-0.084909
1599,-0.299103,0.9536,-0.03398,-0.165573,0.263075,-0.081881
1600,-0.303683,0.952366,-0.02731,-0.191297,0.452389,0.008954
1601,-0.311248,0.949892,-0.028275,-0.064911,0.543242,0.283066
1602,-0.317082,0.947489,-0.041143,-0.166728,0.595159,0.389608
1603,-0.317945,0.946203,-0.059841,-0.401659,-0.138067,0.050045
1604,-0.32797,0.941539,-0.076884,-0.316592,-0.198802,0.04748
1605,-0.34781,0.931401,-0.1072,-0.165694,0.102809,0.090445
1606,-0.3662019999999999,0.917077,-0.157603,0.064795,0.432685,-0.099813
1607,-0.386781,0.8952959999999999,-0.220955,0.103272,0.200285,-0.012017
1608,-0.403875,0.8668799999999999,-0.2922,0.112264,0.173388,0.078821
1609,-0.4165979999999999,0.83795,-0.352513,0.1449,0.195589,0.177357
1610,-0.425393,0.811036,-0.40155,0.145394,0.203338,0.211838
1611,-0.4297069999999999,0.782431,-0.450706,0.106388,0.162698,0.225028
1612,-0.436751,0.7504069999999999,-0.496106,-0.144838,-0.148219,0.296475
1613,-0.448966,0.714205,-0.536959,-0.107858,-0.195513,0.332507
1614,-0.458956,0.674118,-0.578715,-0.009275,-0.126129,0.219569
1615,-0.463681,0.63161,-0.621334,0.053922,-0.092364,0.155361
1616,-0.467138,0.590292,-0.658276,0.1205349999999999,-0.052663,0.222134
1617,-0.4743779999999999,0.5503560000000001,-0.6870689999999999,0.167493,-0.031237,0.2807119999999999
1618,-0.485874,0.507528,-0.71157,0.110203,-0.017049,0.261482
1619,-0.499725,0.4646729999999999,-0.7309899999999999,0.031219,-0.043362,0.210802
1620,-0.5106510000000001,0.423625,-0.7481770000000001,0.028107,-0.075847,0.243248
1621,-0.51653,0.386326,-0.7641600000000001,0.0799309999999999,-0.080494,0.2349239999999999
1622,-0.52189,0.354626,-0.775799,0.095712,-0.031414,0.228924
1623,-0.5284270000000001,0.329377,-0.7824760000000001,0.063675,-0.043733,0.222158
1624,-0.531736,0.312919,-0.786976,0.032972,-0.082069,0.193394
1625,-0.5312939999999999,0.3054739999999999,-0.790194,0.074568,-0.1030809999999999,0.152239
1626,-0.527656,0.306118,-0.792379,0.143776,-0.129635,0.142522
1627,-0.521638,0.316337,-0.79235,0.090669,-0.1305619999999999,0.107016
1628,-0.5159239999999999,0.335094,-0.78837,0.015588,-0.060909,0.008661
1629,-0.509942,0.360414,-0.7810600000000001,-0.053398,-0.066423,-0.040397
1630,-0.506287,0.388189,-0.770049,-0.095657,-0.000875,-0.167375
1631,-0.507067,0.4178739999999999,-0.7538279999999999,-0.476377,0.977481,-0.791567
1632,-0.495896,0.437148,-0.750321,-1.010605,1.667055,-1.225143
1633,-0.508126,0.441868,-0.7392920000000001,0.361794,0.4664729999999999,-0.087765
1634,-0.4865239999999999,0.473335,-0.734329,-0.1604789999999999,-0.591545,0.371353
1635,-0.472906,0.517252,-0.713303,-0.341333,-0.0696809999999999,0.142838
1636,-0.467714,0.5459,-0.695145,-0.323667,0.7175279999999999,0.242585
1637,-0.459189,0.576842,-0.675565,-0.165827,-0.135817,0.292097
1638,-0.4524649999999999,0.607508,-0.6528390000000001,-0.0645179999999999,-0.273188,0.183357
1639,-0.445575,0.639019,-0.6269819999999999,-0.046109,-0.068615,0.205794
1640,-0.441556,0.669343,-0.597492,-0.0393709999999999,0.125305,0.1124759999999999
1641,-0.436802,0.698863,-0.566375,0.006092,0.1124619999999999,0.060989
1642,-0.427221,0.729876,-0.533618,0.160635,0.083845,0.09682
1643,-0.412788,0.762313,-0.4984659999999999,0.1851269999999999,0.060837,0.095665
1644,-0.395198,0.793601,-0.462601,0.159816,0.005289,0.127396
1645,-0.378167,0.82237,-0.4250649999999999,0.025948,-0.158948,0.15828
1646,-0.362953,0.847125,-0.388104,-0.02961,-0.193072,0.108456
1647,-0.3483699999999999,0.867663,-0.354653,-0.054249,-0.1915,0.088723
1648,-0.337,0.8848370000000001,-0.3216719999999999,0.001352,-0.136271,0.128572
1649,-0.328559,0.8990809999999999,-0.289274,-0.00599,0.063093,0.116148
1650,-0.322243,0.91097,-0.257429,-0.003227,0.052058,0.112867
1651,-0.316098,0.920207,-0.230818,0.05917,-0.051951,0.091475
1652,-0.310512,0.927596,-0.2076619999999999,0.047282,-0.074904,0.043736
1653,-0.307118,0.93347,-0.185165,0.022374,-0.00392,0.025024
1654,-0.303404,0.938755,-0.163274,0.0501389999999999,0.043499,0.032033
1655,-0.298244,0.943901,-0.141684,0.001246,0.022865,0.03269
1656,-0.293903,0.947972,-0.12224,-0.038113,0.010799,0.0308089999999999
1657,-0.292139,0.950514,-0.1055849999999999,-0.05155,0.002046,0.026591
1658,-0.292114,0.95185,-0.092855,-0.068207,0.04638,0.000325
1659,-0.291113,0.953076,-0.082889,-0.075754,0.076648,-0.0173
1660,-0.288611,0.954731,-0.071857,0.120367,0.078625,-0.047162
1661,-0.287707,0.955941,-0.058069,-0.005521,0.181495,-0.016699
1662,-0.288251,0.956491,-0.044778,-0.123858,0.229803,-0.068244
1663,-0.28913,0.956704,-0.033004,-0.107049,0.244284,-0.025773
1664,-0.29148,0.956216,-0.025681,-0.249459,0.453269,0.040681
1665,-0.294225,0.955393,-0.024988,-0.171717,0.519415,0.275094
1666,-0.293478,0.955367,-0.033357,-0.378077,0.33487,0.231645
1667,-0.293676,0.954944,-0.04248,-0.35911,-0.0454899999999999,0.0077659999999999
1668,-0.3059679999999999,0.950376,-0.056026,-0.141862,0.118426,0.082088
1669,-0.3210989999999999,0.943315,-0.0838039999999999,0.043008,0.29138,0.085604
1670,-0.337534,0.932816,-0.126086,0.029414,0.30017,-0.034513
1671,-0.357373,0.916744,-0.178438,-0.00928,0.164799,-0.073821
1672,-0.377173,0.894651,-0.239409,0.030005,0.0744799999999999,-0.006212
1673,-0.391175,0.8705,-0.298647,0.095368,0.116515,0.143694
1674,-0.401186,0.847958,-0.346407,0.200243,0.136097,0.218691
1675,-0.408036,0.8252950000000001,-0.390353,0.121018,0.0733559999999999,0.203646
1676,-0.414822,0.79815,-0.436878,-0.159962,-0.214425,0.221256
1677,-0.422708,0.7678729999999999,-0.4813229999999999,-0.17687,-0.235479,0.289032
1678,-0.431764,0.735785,-0.521714,-0.076521,-0.181952,0.295594
1679,-0.438218,0.700955,-0.562684,0.082505,-0.089825,0.107224
1680,-0.44191,0.6646989999999999,-0.602394,0.07486,-0.064296,0.136375
1681,-0.447259,0.627394,-0.637436,0.086495,-0.027312,0.18361
1682,-0.458021,0.589989,-0.664921,0.0704019999999999,0.012642,0.218388
1683,-0.471354,0.5494979999999999,-0.689832,0.054545,0.039476,0.232526
1684,-0.484886,0.508554,-0.711512,0.035393,0.074072,0.1934
1685,-0.497292,0.468279,-0.730348,-0.048424,-0.060961,0.133668
1686,-0.5082939999999999,0.430734,-0.7457189999999999,-0.034842,-0.078027,0.186439
1687,-0.517192,0.39641,-0.758528,0.018642,-0.011583,0.23271
1688,-0.524985,0.366804,-0.7680100000000001,0.054632,0.056597,0.174351
1689,-0.531953,0.342682,-0.774331,0.0524149999999999,-0.02652,0.132211
1690,-0.5372170000000001,0.323673,-0.778863,0.042039,-0.079929,0.127419
1691,-0.540092,0.309267,-0.7827189999999999,0.036216,-0.076876,0.134037
1692,-0.541502,0.298655,-0.785859,0.050672,-0.09376,0.133775
1693,-0.542068,0.293018,-0.787589,0.088165,-0.0847509999999999,0.13018
1694,-0.54192,0.293064,-0.787674,0.10062,-0.114246,0.109527
1695,-0.540161,0.2994969999999999,-0.786461,0.103393,-0.112577,0.072518
1696,-0.537573,0.312167,-0.783301,0.046454,-0.04816,0.055945
1697,-0.532654,0.330948,-0.77894,-0.064331,-0.024994,0.053048
1698,-0.525569,0.354626,-0.773311,-0.1125839999999999,-0.0323149999999999,-0.004139
1699,-0.519775,0.377789,-0.7662260000000001,-0.323762,0.215503,-0.335596
1700,-0.518231,0.384959,-0.763699,-0.752826,0.7890520000000001,-0.24564
1701,-0.529442,0.383315,-0.7568050000000001,-0.336784,0.3638929999999999,-0.101685
1702,-0.5296850000000001,0.401323,-0.747238,-0.056878,0.131483,-0.061676
1703,-0.520284,0.428555,-0.738672,-0.076044,-0.0285,0.2463929999999999
1704,-0.512721,0.4658479999999999,-0.721175,-0.238286,0.283771,0.14862
1705,-0.499439,0.499066,-0.708156,-0.252713,0.420001,0.146816
1706,-0.4906189999999999,0.529604,-0.691956,-0.004376,0.017363,0.158692
1707,-0.479588,0.5625829999999999,-0.6734140000000001,0.057347,-0.076316,0.209409
1708,-0.4665859999999999,0.597984,-0.651692,0.029711,0.048989,0.161153
1709,-0.456244,0.632267,-0.626153,0.0192479999999999,0.204525,0.14303
1710,-0.445937,0.665691,-0.598317,0.011397,0.194417,0.137838
1711,-0.4347899999999999,0.6985239999999999,-0.568338,0.002066,-0.02079,0.098505
1712,-0.422354,0.730667,-0.536403,0.0595309999999999,-0.129379,0.096538
1713,-0.409183,0.761641,-0.502452,0.11304,-0.138365,0.098094
1714,-0.396704,0.790509,-0.466589,0.151221,-0.106122,0.131704
1715,-0.385128,0.816262,-0.430552,0.151089,-0.025338,0.124094
1716,-0.374059,0.839648,-0.393768,0.078206,-0.049151,0.129104
1717,-0.362675,0.8594459999999999,-0.360276,0.015919,-0.099101,0.06569
1718,-0.353432,0.876497,-0.326829,-0.012352,-0.20421,0.070069
1719,-0.344929,0.891035,-0.295057,-0.008952,-0.126264,0.014478
1720,-0.338378,0.902383,-0.266801,0.021972,0.0173259999999999,0.083268
1721,-0.332194,0.911687,-0.241763,0.022562,0.027811,0.05794
1722,-0.325872,0.919499,-0.219783,0.013982,-0.030125,0.080912
1723,-0.319555,0.926439,-0.198925,0.011495,-0.046846,0.072872
1724,-0.314686,0.931902,-0.180294,0.010517,0.0699289999999999,0.021312
1725,-0.311,0.936096,-0.16425,-0.001637,0.050843,-0.0037799999999999
1726,-0.307316,0.939519,-0.151114,-0.015575,-0.027012,-0.010172
1727,-0.303483,0.942767,-0.138066,0.023225,-0.042315,0.009526
1728,-0.300502,0.945456,-0.125637,0.046535,0.01095,0.002682
1729,-0.297301,0.947909,-0.114254,0.0661,0.091398,-0.023625
