id,Attitude Roll,Attitude Pitch,Attitude Azimuth,Gravity X,Gravity Y,Gravity Z,Rotation Rate X,Rotation Rate Y,Rotation Rate Z,User Acceleration X,User Acceleration Y,User Acceleration Z
1,-2.549545,2.7503448,-2.997439,3.4204614,-9.170868,0.604979,-0.0020919773,0.0024858864,-0.00029170574,0.01967432,0.05269755,0.0032782736
2,-2.549545,2.7503448,-2.997439,3.4204614,-9.170868,0.604979,-0.0020919773,0.0024858864,-0.00029170574,0.01967432,0.05269755,0.0032782736
3,-2.549545,2.7503448,-2.997439,3.4204614,-9.170868,0.604979,-0.0020919773,0.0024858864,-0.00029170574,0.01967432,0.05269755,0.0032782736
4,-2.5498931,2.7592156,-3.022944,3.38686,-9.181493,0.6322711,0.00022676395,-0.0035047273,-0.0030299071,0.013320404,0.05698374,0.0036197759
5,-2.5498931,2.7592156,-3.022944,3.38686,-9.181493,0.6322711,0.00022676395,-0.0035047273,-0.0030299071,0.013320404,0.05698374,0.0036197759
6,-2.5498931,2.7592156,-3.022944,3.38686,-9.181493,0.6322711,0.00022676395,-0.0035047273,-0.0030299071,0.013320404,0.05698374,0.0036197759
7,-2.5499475,2.7680418,-3.0548983,3.3546498,-9.1909,0.66638964,0.0029479314,-0.0038592457,-0.004697101,0.02614477,0.05651293,0.004169026
8,-2.5499475,2.7680418,-3.0548983,3.3546498,-9.1909,0.66638964,0.0029479314,-0.0038592457,-0.004697101,0.02614477,0.05651293,0.004169026
9,-2.5499475,2.7680418,-3.0548983,3.3546498,-9.1909,0.66638964,0.0029479314,-0.0038592457,-0.004697101,0.02614477,0.05651293,0.004169026
10,-2.5499475,2.7680418,-3.0548983,3.3546498,-9.1909,0.66638964,0.0029479314,-0.0038592457,-0.004697101,0.02614477,0.05651293,0.004169026
11,-2.5499475,2.7680418,-3.0548983,3.3546498,-9.1909,0.66638964,0.0029479314,-0.0038592457,-0.004697101,0.02614477,0.05651293,0.004169026
12,-2.5495594,2.773815,-3.0804627,3.336171,-9.195759,0.69165254,0.0018907642,0.0037176511,0.0039720954,0.09894256,0.03502872,-0.039138485
13,-2.5495594,2.773815,-3.0804627,3.336171,-9.195759,0.69165254,0.0018907642,0.0037176511,0.0039720954,0.09894256,0.03502872,-0.039138485
14,-2.5495594,2.773815,-3.0804627,3.336171,-9.195759,0.69165254,0.0018907642,0.0037176511,0.0039720954,0.09894256,0.03502872,-0.039138485
15,-2.5495594,2.773815,-3.0804627,3.336171,-9.195759,0.69165254,0.0018907642,0.0037176511,0.0039720954,0.09894256,0.03502872,-0.039138485
16,-2.5480986,2.7786136,-3.109624,3.326308,-9.197099,0.72072107,0.004275512,-0.0012668972,-0.00019482536,-0.1675969,-0.024169665,-0.06448596
17,-2.5480986,2.7786136,-3.109624,3.326308,-9.197099,0.72072107,0.004275512,-0.0012668972,-0.00019482536,-0.1675969,-0.024169665,-0.06448596
18,-2.5480986,2.7786136,-3.109624,3.326308,-9.197099,0.72072107,0.004275512,-0.0012668972,-0.00019482536,-0.1675969,-0.024169665,-0.06448596
19,-2.5480986,2.7786136,-3.109624,3.326308,-9.197099,0.72072107,0.004275512,-0.0012668972,-0.00019482536,-0.1675969,-0.024169665,-0.06448596
20,-2.5460439,2.7822967,-3.1399007,3.3234854,-9.195804,0.74968237,0.0028670202,0.00320344,-0.000112849666,-0.16544406,-0.11775554,-0.09374926
21,-2.5460439,2.7822967,-3.1399007,3.3234854,-9.195804,0.74968237,0.0028670202,0.00320344,-0.000112849666,-0.16544406,-0.11775554,-0.09374926
22,-2.5460439,2.7822967,-3.1399007,3.3234854,-9.195804,0.74968237,0.0028670202,0.00320344,-0.000112849666,-0.16544406,-0.11775554,-0.09374926
23,-2.5460439,2.7822967,-3.1399007,3.3234854,-9.195804,0.74968237,0.0028670202,0.00320344,-0.000112849666,-0.16544406,-0.11775554,-0.09374926
24,-2.5460439,2.7822967,-3.1399007,3.3234854,-9.195804,0.74968237,0.0028670202,0.00320344,-0.000112849666,-0.16544406,-0.11775554,-0.09374926
25,-2.5455918,2.7883592,3.0942547,3.304033,-9.199119,0.7937117,-0.0003172566,-0.0036165123,0.003969966,-0.057113204,-0.41047385,-0.022389418
26,-2.5455918,2.7883592,3.0942547,3.304033,-9.199119,0.7937117,-0.0003172566,-0.0036165123,0.003969966,-0.057113204,-0.41047385,-0.022389418
27,-2.5455918,2.7883592,3.0942547,3.304033,-9.199119,0.7937117,-0.0003172566,-0.0036165123,0.003969966,-0.057113204,-0.41047385,-0.022389418
28,-2.5455918,2.7883592,3.0942547,3.304033,-9.199119,0.7937117,-0.0003172566,-0.0036165123,0.003969966,-0.057113204,-0.41047385,-0.022389418
29,-2.546076,2.794666,3.0333767,3.278926,-9.203441,0.84599453,0.013705911,0.0057052956,-0.04981461,0.37963018,0.96068627,-0.40901554
30,-2.546076,2.794666,3.0333767,3.278926,-9.203441,0.84599453,0.013705911,0.0057052956,-0.04981461,0.37963018,0.96068627,-0.40901554
31,-2.546076,2.794666,3.0333767,3.278926,-9.203441,0.84599453,0.013705911,0.0057052956,-0.04981461,0.37963018,0.96068627,-0.40901554
32,-2.546076,2.794666,3.0333767,3.278926,-9.203441,0.84599453,0.013705911,0.0057052956,-0.04981461,0.37963018,0.96068627,-0.40901554
33,-2.546076,2.794666,3.0333767,3.278926,-9.203441,0.84599453,0.013705911,0.0057052956,-0.04981461,0.37963018,0.96068627,-0.40901554
34,-2.5445495,2.799973,2.9463785,3.267403,-9.200693,0.9174571,0.03459907,-0.009302645,-0.05357804,0.13976775,-0.31740457,-0.24260564
35,-2.5445495,2.799973,2.9463785,3.267403,-9.200693,0.9174571,0.03459907,-0.009302645,-0.05357804,0.13976775,-0.31740457,-0.24260564
36,-2.5445495,2.799973,2.9463785,3.267403,-9.200693,0.9174571,0.03459907,-0.009302645,-0.05357804,0.13976775,-0.31740457,-0.24260564
37,-2.5445495,2.799973,2.9463785,3.267403,-9.200693,0.9174571,0.03459907,-0.009302645,-0.05357804,0.13976775,-0.31740457,-0.24260564
38,-2.5445495,2.799973,2.9463785,3.267403,-9.200693,0.9174571,0.03459907,-0.009302645,-0.05357804,0.13976775,-0.31740457,-0.24260564
39,-2.5449252,2.8047326,2.8629265,3.2491953,-9.200683,0.9800829,0.07526008,-0.04734789,-0.047595944,-0.30383155,-0.07969188,-0.38948962
40,-2.5449252,2.8047326,2.8629265,3.2491953,-9.200683,0.9800829,0.07526008,-0.04734789,-0.047595944,-0.30383155,-0.07969188,-0.38948962
41,-2.5449252,2.8047326,2.8629265,3.2491953,-9.200683,0.9800829,0.07526008,-0.04734789,-0.047595944,-0.30383155,-0.07969188,-0.38948962
42,-2.5449252,2.8047326,2.8629265,3.2491953,-9.200683,0.9800829,0.07526008,-0.04734789,-0.047595944,-0.30383155,-0.07969188,-0.38948962
43,-2.5449252,2.8047326,2.8629265,3.2491953,-9.200683,0.9800829,0.07526008,-0.04734789,-0.047595944,-0.30383155,-0.07969188,-0.38948962
44,-2.5447302,2.8081498,2.777597,3.2386389,-9.197513,1.0427669,0.10893612,-0.08071093,-0.0393494,0.2491019,-0.627521,0.45108727
45,-2.5447302,2.8081498,2.777597,3.2386389,-9.197513,1.0427669,0.10893612,-0.08071093,-0.0393494,0.2491019,-0.627521,0.45108727
46,-2.5447302,2.8081498,2.777597,3.2386389,-9.197513,1.0427669,0.10893612,-0.08071093,-0.0393494,0.2491019,-0.627521,0.45108727
47,-2.5447302,2.8081498,2.777597,3.2386389,-9.197513,1.0427669,0.10893612,-0.08071093,-0.0393494,0.2491019,-0.627521,0.45108727
48,-2.5447302,2.8081498,2.777597,3.2386389,-9.197513,1.0427669,0.10893612,-0.08071093,-0.0393494,0.2491019,-0.627521,0.45108727
49,-2.5436037,2.809773,2.7059708,3.2380497,-9.191128,1.0993656,0.10648111,-0.07502373,-0.038073987,-0.050172113,-0.03137083,-0.05029385
50,-2.5436037,2.809773,2.7059708,3.2380497,-9.191128,1.0993656,0.10648111,-0.07502373,-0.038073987,-0.050172113,-0.03137083,-0.05029385
51,-2.5436037,2.809773,2.7059708,3.2380497,-9.191128,1.0993656,0.10648111,-0.07502373,-0.038073987,-0.050172113,-0.03137083,-0.05029385
52,-2.5436037,2.809773,2.7059708,3.2380497,-9.191128,1.0993656,0.10648111,-0.07502373,-0.038073987,-0.050172113,-0.03137083,-0.05029385
53,-2.5436037,2.809773,2.7059708,3.2380497,-9.191128,1.0993656,0.10648111,-0.07502373,-0.038073987,-0.050172113,-0.03137083,-0.05029385
54,-2.5436037,2.809773,2.7059708,3.2663379,-9.179866,1.1097237,0.07108997,-0.030129796,-0.047612976,-0.07706349,-0.27135125,-0.037523244
55,-2.5436037,2.809773,2.7059708,3.2663379,-9.179866,1.1097237,0.07108997,-0.030129796,-0.047612976,-0.07706349,-0.27135125,-0.037523244
56,-2.5436037,2.809773,2.7059708,3.2663379,-9.179866,1.1097237,0.07108997,-0.030129796,-0.047612976,-0.07706349,-0.27135125,-0.037523244
57,-2.5436037,2.809773,2.7059708,3.2663379,-9.179866,1.1097237,0.07108997,-0.030129796,-0.047612976,-0.07706349,-0.27135125,-0.037523244
58,-2.5333788,2.800534,2.7573807,3.3081312,-9.163598,1.1203225,0.034278616,0.016647454,-0.06107296,-0.27732304,-0.060780063,0.02164275
59,-2.5333788,2.800534,2.7573807,3.3081312,-9.163598,1.1203225,0.034278616,0.016647454,-0.06107296,-0.27732304,-0.060780063,0.02164275
60,-2.5333788,2.800534,2.7573807,3.3081312,-9.163598,1.1203225,0.034278616,0.016647454,-0.06107296,-0.27732304,-0.060780063,0.02164275
61,-2.5333788,2.800534,2.7573807,3.3081312,-9.163598,1.1203225,0.034278616,0.016647454,-0.06107296,-0.27732304,-0.060780063,0.02164275
62,-2.5333788,2.800534,2.7573807,3.3081312,-9.163598,1.1203225,0.034278616,0.016647454,-0.06107296,-0.27732304,-0.060780063,0.02164275
63,-2.527791,2.7931917,2.8240051,3.3520494,-9.148901,1.1098508,0.030251162,0.019276,-0.06712852,-0.007800176,0.0012442485,-0.3938336
64,-2.527791,2.7931917,2.8240051,3.3520494,-9.148901,1.1098508,0.030251162,0.019276,-0.06712852,-0.007800176,0.0012442485,-0.3938336
65,-2.527791,2.7931917,2.8240051,3.3520494,-9.148901,1.1098508,0.030251162,0.019276,-0.06712852,-0.007800176,0.0012442485,-0.3938336
66,-2.527791,2.7931917,2.8240051,3.4031296,-9.125543,1.146112,0.08927579,-0.0682964,-0.051656403,-0.13633649,-0.39272335,-0.3042292
67,-2.513701,2.7814271,2.8393652,3.4494228,-9.105951,1.163415,0.20636797,-0.24522232,-0.005911832,-0.2580391,0.27457333,-0.7212673
68,-2.513701,2.7814271,2.8393652,3.4494228,-9.105951,1.163415,0.20636797,-0.24522232,-0.005911832,-0.2580391,0.27457333,-0.7212673
69,-2.513701,2.7814271,2.8393652,3.4494228,-9.105951,1.163415,0.20636797,-0.24522232,-0.005911832,-0.2580391,0.27457333,-0.7212673
70,-2.513701,2.7814271,2.8393652,3.4494228,-9.105951,1.163415,0.20636797,-0.24522232,-0.005911832,-0.2580391,0.27457333,-0.7212673
71,-2.513701,2.7814271,2.8393652,3.4494228,-9.105951,1.163415,0.20636797,-0.24522232,-0.005911832,-0.2580391,0.27457333,-0.7212673
72,-2.5050979,2.7762976,2.8142438,3.505167,-9.077995,1.2141584,0.31814983,-0.4199136,0.05360998,-0.22062929,0.18272886,0.38899577
73,-2.5050979,2.7762976,2.8142438,3.505167,-9.077995,1.2141584,0.31814983,-0.4199136,0.05360998,-0.22062929,0.18272886,0.38899577
74,-2.5050979,2.7762976,2.8142438,3.505167,-9.077995,1.2141584,0.31814983,-0.4199136,0.05360998,-0.22062929,0.18272886,0.38899577
75,-2.5050979,2.7762976,2.8142438,3.505167,-9.077995,1.2141584,0.31814983,-0.4199136,0.05360998,-0.22062929,0.18272886,0.38899577
76,-2.4969928,2.775261,2.7186844,3.5502667,-9.048276,1.3018048,0.33641657,-0.457731,0.08513549,-0.37027603,-0.444397,-0.48116347
77,-2.4969928,2.775261,2.7186844,3.5502667,-9.048276,1.3018048,0.33641657,-0.457731,0.08513549,-0.37027603,-0.444397,-0.48116347
78,-2.4969928,2.775261,2.7186844,3.5502667,-9.048276,1.3018048,0.33641657,-0.457731,0.08513549,-0.37027603,-0.444397,-0.48116347
79,-2.4969928,2.775261,2.7186844,3.5502667,-9.048276,1.3018048,0.33641657,-0.457731,0.08513549,-0.37027603,-0.444397,-0.48116347
80,-2.4969928,2.775261,2.7186844,3.5502667,-9.048276,1.3018048,0.33641657,-0.457731,0.08513549,-0.37027603,-0.444397,-0.48116347
81,-2.4886029,2.7728066,2.6311393,3.6028492,-9.015584,1.38171,0.2530313,-0.34772387,0.06698053,-0.37174955,0.89588016,-0.40712273
82,-2.4886029,2.7728066,2.6311393,3.6028492,-9.015584,1.38171,0.2530313,-0.34772387,0.06698053,-0.37174955,0.89588016,-0.40712273
83,-2.4886029,2.7728066,2.6311393,3.6028492,-9.015584,1.38171,0.2530313,-0.34772387,0.06698053,-0.37174955,0.89588016,-0.40712273
84,-2.4886029,2.7728066,2.6311393,3.6028492,-9.015584,1.38171,0.2530313,-0.34772387,0.06698053,-0.37174955,0.89588016,-0.40712273
85,-2.4886029,2.7728066,2.6311393,3.6028492,-9.015584,1.38171,0.2530313,-0.34772387,0.06698053,-0.37174955,0.89588016,-0.40712273
86,-2.4808662,2.769926,2.5538518,3.6545134,-8.983653,1.4522005,0.14328714,-0.20046572,0.024582064,0.25342193,-0.32700762,-0.050447438
87,-2.4808662,2.769926,2.5538518,3.6545134,-8.983653,1.4522005,0.14328714,-0.20046572,0.024582064,0.25342193,-0.32700762,-0.050447438
88,-2.4808662,2.769926,2.5538518,3.6545134,-8.983653,1.4522005,0.14328714,-0.20046572,0.024582064,0.25342193,-0.32700762,-0.050447438
89,-2.4808662,2.769926,2.5538518,3.6545134,-8.983653,1.4522005,0.14328714,-0.20046572,0.024582064,0.25342193,-0.32700762,-0.050447438
90,-2.4808662,2.769926,2.5538518,3.6545134,-8.983653,1.4522005,0.14328714,-0.20046572,0.024582064,0.25342193,-0.32700762,-0.050447438
91,-2.4808662,2.769926,2.5538518,3.7128453,-8.954481,1.484067,0.06239522,-0.09016263,-0.0071606305,-0.053513084,-0.021403134,0.13437939
92,-2.4808662,2.769926,2.5538518,3.7128453,-8.954481,1.484067,0.06239522,-0.09016263,-0.0071606305,-0.053513084,-0.021403134,0.13437939
93,-2.4808662,2.769926,2.5538518,3.7128453,-8.954481,1.484067,0.06239522,-0.09016263,-0.0071606305,-0.053513084,-0.021403134,0.13437939
94,-2.4808662,2.769926,2.5538518,3.7128453,-8.954481,1.484067,0.06239522,-0.09016263,-0.0071606305,-0.053513084,-0.021403134,0.13437939
95,-2.4808662,2.769926,2.5538518,3.7128453,-8.954481,1.484067,0.06239522,-0.09016263,-0.0071606305,-0.053513084,-0.021403134,0.13437939
96,-2.4651692,2.7599537,2.5080678,3.7665348,-8.922957,1.537681,0.03327362,-0.046559002,-0.009671004,0.091072395,-0.14949243,-0.09689074
97,-2.4651692,2.7599537,2.5080678,3.7665348,-8.922957,1.537681,0.03327362,-0.046559002,-0.009671004,0.091072395,-0.14949243,-0.09689074
98,-2.4651692,2.7599537,2.5080678,3.7665348,-8.922957,1.537681,0.03327362,-0.046559002,-0.009671004,0.091072395,-0.14949243,-0.09689074
99,-2.4651692,2.7599537,2.5080678,3.7665348,-8.922957,1.537681,0.03327362,-0.046559002,-0.009671004,0.091072395,-0.14949243,-0.09689074
100,-2.4651692,2.7599537,2.5080678,3.8115494,-8.898137,1.5702374,0.029900903,-0.035128184,0.004775883,-0.061511725,-0.29486093,-0.06867821
101,-2.4651692,2.7599537,2.5080678,3.8115494,-8.898137,1.5702374,0.029900903,-0.035128184,0.004775883,-0.061511725,-0.29486093,-0.06867821
102,-2.4651692,2.7599537,2.5080678,3.8115494,-8.898137,1.5702374,0.029900903,-0.035128184,0.004775883,-0.061511725,-0.29486093,-0.06867821
103,-2.4536736,2.754622,2.4016032,3.8521466,-8.869375,1.6326475,0.027124375,-0.027006203,0.013519603,-0.009050087,0.6213326,-0.6846619
104,-2.4536736,2.754622,2.4016032,3.8521466,-8.869375,1.6326475,0.027124375,-0.027006203,0.013519603,-0.009050087,0.6213326,-0.6846619
105,-2.4536736,2.754622,2.4016032,3.8521466,-8.869375,1.6326475,0.027124375,-0.027006203,0.013519603,-0.009050087,0.6213326,-0.6846619
106,-2.4536736,2.754622,2.4016032,3.8521466,-8.869375,1.6326475,0.027124375,-0.027006203,0.013519603,-0.009050087,0.6213326,-0.6846619
107,-2.4536736,2.754622,2.4016032,3.8521466,-8.869375,1.6326475,0.027124375,-0.027006203,0.013519603,-0.009050087,0.6213326,-0.6846619
108,-2.4536736,2.754622,2.4016032,3.8521466,-8.869375,1.6326475,0.027124375,-0.027006203,0.013519603,-0.009050087,0.6213326,-0.6846619
109,-2.450836,2.755326,2.2722383,3.8798814,-8.844405,1.7010021,0.03245812,-0.03565943,0.013942257,0.3344808,-0.41531712,-0.044121847
110,-2.450836,2.755326,2.2722383,3.8798814,-8.844405,1.7010021,0.03245812,-0.03565943,0.013942257,0.3344808,-0.41531712,-0.044121847
111,-2.450836,2.755326,2.2722383,3.8798814,-8.844405,1.7010021,0.03245812,-0.03565943,0.013942257,0.3344808,-0.41531712,-0.044121847
112,-2.450836,2.755326,2.2722383,3.8798814,-8.844405,1.7010021,0.03245812,-0.03565943,0.013942257,0.3344808,-0.41531712,-0.044121847
113,-2.450836,2.755326,2.2722383,3.8798814,-8.844405,1.7010021,0.03245812,-0.03565943,0.013942257,0.3344808,-0.41531712,-0.044121847
114,-2.450836,2.755326,2.2722383,3.8798814,-8.844405,1.7010021,0.03245812,-0.03565943,0.013942257,0.3344808,-0.41531712,-0.044121847
115,-2.4508622,2.75756,2.0783613,3.9000487,-8.818398,1.7876972,0.048895843,-0.058720153,0.018379591,-0.17207837,0.43030706,-0.33693895
116,-2.4508622,2.75756,2.0783613,3.9000487,-8.818398,1.7876972,0.048895843,-0.058720153,0.018379591,-0.17207837,0.43030706,-0.33693895
117,-2.4508622,2.75756,2.0783613,3.9000487,-8.818398,1.7876972,0.048895843,-0.058720153,0.018379591,-0.17207837,0.43030706,-0.33693895
118,-2.4508622,2.75756,2.0783613,3.9000487,-8.818398,1.7876972,0.048895843,-0.058720153,0.018379591,-0.17207837,0.43030706,-0.33693895
119,-2.4508622,2.75756,2.0783613,3.9000487,-8.818398,1.7876972,0.048895843,-0.058720153,0.018379591,-0.17207837,0.43030706,-0.33693895
120,-2.4508622,2.75756,2.0783613,3.9000487,-8.818398,1.7876972,0.048895843,-0.058720153,0.018379591,-0.17207837,0.43030706,-0.33693895
121,-2.4525895,2.7588115,1.9014579,3.9180045,-8.793373,1.8698229,0.07257937,-0.08633532,0.03369627,0.06307056,-0.41206753,0.40848503
122,-2.4525895,2.7588115,1.9014579,3.9180045,-8.793373,1.8698229,0.07257937,-0.08633532,0.03369627,0.06307056,-0.41206753,0.40848503
123,-2.4525895,2.7588115,1.9014579,3.9180045,-8.793373,1.8698229,0.07257937,-0.08633532,0.03369627,0.06307056,-0.41206753,0.40848503
124,-2.4525895,2.7588115,1.9014579,3.9180045,-8.793373,1.8698229,0.07257937,-0.08633532,0.03369627,0.06307056,-0.41206753,0.40848503
125,-2.4525895,2.7588115,1.9014579,3.9180045,-8.793373,1.8698229,0.07257937,-0.08633532,0.03369627,0.06307056,-0.41206753,0.40848503
126,-2.4525895,2.7588115,1.9014579,3.9180045,-8.793373,1.8698229,0.07257937,-0.08633532,0.03369627,0.06307056,-0.41206753,0.40848503
127,-2.4542334,2.758092,1.7518216,3.9459772,-8.764387,1.9455531,0.07999764,-0.092754975,0.042227067,0.07421994,-0.63755023,0.1018592
128,-2.4542334,2.758092,1.7518216,3.9459772,-8.764387,1.9455531,0.07999764,-0.092754975,0.042227067,0.07421994,-0.63755023,0.1018592
129,-2.4542334,2.758092,1.7518216,3.9459772,-8.764387,1.9455531,0.07999764,-0.092754975,0.042227067,0.07421994,-0.63755023,0.1018592
130,-2.4542334,2.758092,1.7518216,3.9459772,-8.764387,1.9455531,0.07999764,-0.092754975,0.042227067,0.07421994,-0.63755023,0.1018592
131,-2.4542334,2.758092,1.7518216,3.9459772,-8.764387,1.9455531,0.07999764,-0.092754975,0.042227067,0.07421994,-0.63755023,0.1018592
132,-2.4542334,2.758092,1.7518216,3.9459772,-8.764387,1.9455531,0.07999764,-0.092754975,0.042227067,0.07421994,-0.63755023,0.1018592
133,-2.457533,2.7580423,1.6586221,3.9544601,-8.747416,2.0038388,0.046303496,-0.052231297,0.022978747,-0.08111184,0.9954573,0.026285598
134,-2.457533,2.7580423,1.6586221,3.9544601,-8.747416,2.0038388,0.046303496,-0.052231297,0.022978747,-0.08111184,0.9954573,0.026285598
135,-2.457533,2.7580423,1.6586221,3.9544601,-8.747416,2.0038388,0.046303496,-0.052231297,0.022978747,-0.08111184,0.9954573,0.026285598
136,-2.457533,2.7580423,1.6586221,3.9544601,-8.747416,2.0038388,0.046303496,-0.052231297,0.022978747,-0.08111184,0.9954573,0.026285598
137,-2.457533,2.7580423,1.6586221,3.9544601,-8.747416,2.0038388,0.046303496,-0.052231297,0.022978747,-0.08111184,0.9954573,0.026285598
138,-2.457533,2.7580423,1.6586221,3.9544601,-8.747416,2.0038388,0.046303496,-0.052231297,0.022978747,-0.08111184,0.9954573,0.026285598
139,-2.4582622,2.757287,1.62229,3.9647257,-8.734826,2.0381725,-0.01680502,0.021268968,-0.017379913,0.43635935,-0.40170643,0.06053665
140,-2.4582622,2.757287,1.62229,3.9647257,-8.734826,2.0381725,-0.01680502,0.021268968,-0.017379913,0.43635935,-0.40170643,0.06053665
141,-2.4582622,2.757287,1.62229,3.9647257,-8.734826,2.0381725,-0.01680502,0.021268968,-0.017379913,0.43635935,-0.40170643,0.06053665
142,-2.4582622,2.757287,1.62229,3.9647257,-8.734826,2.0381725,-0.01680502,0.021268968,-0.017379913,0.43635935,-0.40170643,0.06053665
143,-2.4582622,2.757287,1.62229,3.9647257,-8.734826,2.0381725,-0.01680502,0.021268968,-0.017379913,0.43635935,-0.40170643,0.06053665
144,-2.4582622,2.757287,1.62229,3.9647257,-8.734826,2.0381725,-0.01680502,0.021268968,-0.017379913,0.43635935,-0.40170643,0.06053665
145,-2.4594796,2.7561343,1.5763888,3.9801333,-8.719027,2.0754542,-0.06935251,0.08664193,-0.046556875,0.16849093,-0.35323685,-0.099669315
146,-2.4594796,2.7561343,1.5763888,3.9801333,-8.719027,2.0754542,-0.06935251,0.08664193,-0.046556875,0.16849093,-0.35323685,-0.099669315
147,-2.4594796,2.7561343,1.5763888,3.9801333,-8.719027,2.0754542,-0.06935251,0.08664193,-0.046556875,0.16849093,-0.35323685,-0.099669315
148,-2.4594796,2.7561343,1.5763888,3.9801333,-8.719027,2.0754542,-0.06935251,0.08664193,-0.046556875,0.16849093,-0.35323685,-0.099669315
149,-2.4594796,2.7561343,1.5763888,3.9801333,-8.719027,2.0754542,-0.06935251,0.08664193,-0.046556875,0.16849093,-0.35323685,-0.099669315
150,-2.4594796,2.7561343,1.5763888,3.9801333,-8.719027,2.0754542,-0.06935251,0.08664193,-0.046556875,0.16849093,-0.35323685,-0.099669315
151,-2.4594796,2.7561343,1.5763888,3.9953463,-8.710257,2.0830307,-0.08092705,0.107188016,-0.04328743,-0.020810928,0.38666195,0.21984154
152,-2.4594796,2.7561343,1.5763888,3.9953463,-8.710257,2.0830307,-0.08092705,0.107188016,-0.04328743,-0.020810928,0.38666195,0.21984154
153,-2.4594796,2.7561343,1.5763888,3.9953463,-8.710257,2.0830307,-0.08092705,0.107188016,-0.04328743,-0.020810928,0.38666195,0.21984154
154,-2.4594796,2.7561343,1.5763888,3.9953463,-8.710257,2.0830307,-0.08092705,0.107188016,-0.04328743,-0.020810928,0.38666195,0.21984154
155,-2.4594796,2.7561343,1.5763888,3.9953463,-8.710257,2.0830307,-0.08092705,0.107188016,-0.04328743,-0.020810928,0.38666195,0.21984154
156,-2.4594796,2.7561343,1.5763888,3.9953463,-8.710257,2.0830307,-0.08092705,0.107188016,-0.04328743,-0.020810928,0.38666195,0.21984154
157,-2.4620209,2.7547765,1.5204148,3.9930685,-8.701794,2.1223967,-0.05518455,0.078054704,-0.018537154,0.014101085,-0.18454516,-0.028500618
158,-2.4620209,2.7547765,1.5204148,3.9930685,-8.701794,2.1223967,-0.05518455,0.078054704,-0.018537154,0.014101085,-0.18454516,-0.028500618
159,-2.4620209,2.7547765,1.5204148,3.9930685,-8.701794,2.1223967,-0.05518455,0.078054704,-0.018537154,0.014101085,-0.18454516,-0.028500618
160,-2.4620209,2.7547765,1.5204148,3.9930685,-8.701794,2.1223967,-0.05518455,0.078054704,-0.018537154,0.014101085,-0.18454516,-0.028500618
161,-2.4620209,2.7547765,1.5204148,3.9930685,-8.701794,2.1223967,-0.05518455,0.078054704,-0.018537154,0.014101085,-0.18454516,-0.028500618
162,-2.4620209,2.7547765,1.5204148,3.9930685,-8.701794,2.1223967,-0.05518455,0.078054704,-0.018537154,0.014101085,-0.18454516,-0.028500618
163,-2.4620209,2.7547765,1.5204148,3.977355,-8.704532,2.1405983,-0.024082758,0.033964556,0.0010986873,0.11549141,-0.2087419,0.09489521
164,-2.4620209,2.7547765,1.5204148,3.977355,-8.704532,2.1405983,-0.024082758,0.033964556,0.0010986873,0.11549141,-0.2087419,0.09489521
165,-2.4620209,2.7547765,1.5204148,3.977355,-8.704532,2.1405983,-0.024082758,0.033964556,0.0010986873,0.11549141,-0.2087419,0.09489521
166,-2.4620209,2.7547765,1.5204148,3.977355,-8.704532,2.1405983,-0.024082758,0.033964556,0.0010986873,0.11549141,-0.2087419,0.09489521
167,-2.4620209,2.7547765,1.5204148,3.977355,-8.704532,2.1405983,-0.024082758,0.033964556,0.0010986873,0.11549141,-0.2087419,0.09489521
168,-2.4620209,2.7547765,1.5204148,3.977355,-8.704532,2.1405983,-0.024082758,0.033964556,0.0010986873,0.11549141,-0.2087419,0.09489521
169,-2.4750085,2.7580962,1.4436471,3.9479795,-8.707012,2.1844409,-0.0020557803,-0.0045789285,0.0057457513,0.003647488,0.8262955,-0.33749777
170,-2.4750085,2.7580962,1.4436471,3.9479795,-8.707012,2.1844409,-0.0020557803,-0.0045789285,0.0057457513,0.003647488,0.8262955,-0.33749777
171,-2.4750085,2.7580962,1.4436471,3.9479795,-8.707012,2.1844409,-0.0020557803,-0.0045789285,0.0057457513,0.003647488,0.8262955,-0.33749777
172,-2.4750085,2.7580962,1.4436471,3.9479795,-8.707012,2.1844409,-0.0020557803,-0.0045789285,0.0057457513,0.003647488,0.8262955,-0.33749777
173,-2.4750085,2.7580962,1.4436471,3.9479795,-8.707012,2.1844409,-0.0020557803,-0.0045789285,0.0057457513,0.003647488,0.8262955,-0.33749777
174,-2.4750085,2.7580962,1.4436471,3.9479795,-8.707012,2.1844409,-0.0020557803,-0.0045789285,0.0057457513,0.003647488,0.8262955,-0.33749777
175,-2.4840517,2.7576182,1.37747,3.939967,-8.698758,2.231292,0.019188702,-0.038110185,0.0077685285,0.48020634,-0.67088556,0.07875829
176,-2.4840517,2.7576182,1.37747,3.939967,-8.698758,2.231292,0.019188702,-0.038110185,0.0077685285,0.48020634,-0.67088556,0.07875829
177,-2.4840517,2.7576182,1.37747,3.939967,-8.698758,2.231292,0.019188702,-0.038110185,0.0077685285,0.48020634,-0.67088556,0.07875829
178,-2.4840517,2.7576182,1.37747,3.939967,-8.698758,2.231292,0.019188702,-0.038110185,0.0077685285,0.48020634,-0.67088556,0.07875829
179,-2.4840517,2.7576182,1.37747,3.939967,-8.698758,2.231292,0.019188702,-0.038110185,0.0077685285,0.48020634,-0.67088556,0.07875829
180,-2.4840517,2.7576182,1.37747,3.939967,-8.698758,2.231292,0.019188702,-0.038110185,0.0077685285,0.48020634,-0.67088556,0.07875829
181,-2.4954042,2.7546701,1.3005829,3.945,-8.68135,2.2894373,0.059136417,-0.08058211,0.026267357,-0.12991141,0.039630756,-0.413191
182,-2.4954042,2.7546701,1.3005829,3.945,-8.68135,2.2894373,0.059136417,-0.08058211,0.026267357,-0.12991141,0.039630756,-0.413191
183,-2.4954042,2.7546701,1.3005829,3.945,-8.68135,2.2894373,0.059136417,-0.08058211,0.026267357,-0.12991141,0.039630756,-0.413191
184,-2.4954042,2.7546701,1.3005829,3.945,-8.68135,2.2894373,0.059136417,-0.08058211,0.026267357,-0.12991141,0.039630756,-0.413191
185,-2.4954042,2.7546701,1.3005829,3.945,-8.68135,2.2894373,0.059136417,-0.08058211,0.026267357,-0.12991141,0.039630756,-0.413191
186,-2.4954042,2.7546701,1.3005829,3.945,-8.68135,2.2894373,0.059136417,-0.08058211,0.026267357,-0.12991141,0.039630756,-0.413191
187,-2.4954042,2.7546701,1.3005829,3.9447567,-8.677998,2.3025281,0.11237804,-0.12824939,0.055549715,-0.23048769,0.8780645,0.16802305
188,-2.4954042,2.7546701,1.3005829,3.9447567,-8.677998,2.3025281,0.11237804,-0.12824939,0.055549715,-0.23048769,0.8780645,0.16802305
189,-2.4954042,2.7546701,1.3005829,3.9447567,-8.677998,2.3025281,0.11237804,-0.12824939,0.055549715,-0.23048769,0.8780645,0.16802305
190,-2.4954042,2.7546701,1.3005829,3.9447567,-8.677998,2.3025281,0.11237804,-0.12824939,0.055549715,-0.23048769,0.8780645,0.16802305
191,-2.4954042,2.7546701,1.3005829,3.9447567,-8.677998,2.3025281,0.11237804,-0.12824939,0.055549715,-0.23048769,0.8780645,0.16802305
192,-2.4954042,2.7546701,1.3005829,3.9447567,-8.677998,2.3025281,0.11237804,-0.12824939,0.055549715,-0.23048769,0.8780645,0.16802305
193,-2.4954042,2.7546701,1.3005829,3.9447567,-8.677998,2.3025281,0.11237804,-0.12824939,0.055549715,-0.23048769,0.8780645,0.16802305
194,-2.5008278,2.7510202,1.2613498,3.9640567,-8.662916,2.3260531,0.12986441,-0.1375531,0.061181553,-0.2768436,-0.3704585,-0.05264705
195,-2.5008278,2.7510202,1.2613498,3.9640567,-8.662916,2.3260531,0.12986441,-0.1375531,0.061181553,-0.2768436,-0.3704585,-0.05264705
196,-2.5008278,2.7510202,1.2613498,3.9640567,-8.662916,2.3260531,0.12986441,-0.1375531,0.061181553,-0.2768436,-0.3704585,-0.05264705
197,-2.5008278,2.7510202,1.2613498,3.9640567,-8.662916,2.3260531,0.12986441,-0.1375531,0.061181553,-0.2768436,-0.3704585,-0.05264705
198,-2.5008278,2.7510202,1.2613498,3.9640567,-8.662916,2.3260531,0.12986441,-0.1375531,0.061181553,-0.2768436,-0.3704585,-0.05264705
199,-2.5070705,2.7481112,1.2300196,3.9736443,-8.648514,2.3629959,0.088805236,-0.09471494,0.025839379,-0.024487507,-0.29382083,-0.6160699
200,-2.5070705,2.7481112,1.2300196,3.9736443,-8.648514,2.3629959,0.088805236,-0.09471494,0.025839379,-0.024487507,-0.29382083,-0.6160699
201,-2.5070705,2.7481112,1.2300196,3.9736443,-8.648514,2.3629959,0.088805236,-0.09471494,0.025839379,-0.024487507,-0.29382083,-0.6160699
202,-2.5070705,2.7481112,1.2300196,3.9736443,-8.648514,2.3629959,0.088805236,-0.09471494,0.025839379,-0.024487507,-0.29382083,-0.6160699
203,-2.5070705,2.7481112,1.2300196,3.9736443,-8.648514,2.3629959,0.088805236,-0.09471494,0.025839379,-0.024487507,-0.29382083,-0.6160699
204,-2.5070705,2.7481112,1.2300196,3.9736443,-8.648514,2.3629959,0.088805236,-0.09471494,0.025839379,-0.024487507,-0.29382083,-0.6160699
205,-2.5098786,2.744938,1.2116317,3.992343,-8.632578,2.3895981,0.015308163,-0.020199025,-0.027927099,0.18730766,0.13734406,-0.20285413
206,-2.5098786,2.744938,1.2116317,3.992343,-8.632578,2.3895981,0.015308163,-0.020199025,-0.027927099,0.18730766,0.13734406,-0.20285413
207,-2.5098786,2.744938,1.2116317,3.992343,-8.632578,2.3895981,0.015308163,-0.020199025,-0.027927099,0.18730766,0.13734406,-0.20285413
208,-2.5098786,2.744938,1.2116317,3.992343,-8.632578,2.3895981,0.015308163,-0.020199025,-0.027927099,0.18730766,0.13734406,-0.20285413
209,-2.5098786,2.744938,1.2116317,3.992343,-8.632578,2.3895981,0.015308163,-0.020199025,-0.027927099,0.18730766,0.13734406,-0.20285413
210,-2.5098786,2.744938,1.2116317,3.992343,-8.632578,2.3895981,0.015308163,-0.020199025,-0.027927099,0.18730766,0.13734406,-0.20285413
211,-2.5185378,2.7445006,1.1920775,3.9758832,-8.627315,2.4356105,-0.044366952,0.056721862,-0.057021018,0.29399115,-0.22966936,0.07127526
212,-2.5185378,2.7445006,1.1920775,3.9758832,-8.627315,2.4356105,-0.044366952,0.056721862,-0.057021018,0.29399115,-0.22966936,0.07127526
213,-2.5185378,2.7445006,1.1920775,3.9758832,-8.627315,2.4356105,-0.044366952,0.056721862,-0.057021018,0.29399115,-0.22966936,0.07127526
214,-2.5185378,2.7445006,1.1920775,3.9758832,-8.627315,2.4356105,-0.044366952,0.056721862,-0.057021018,0.29399115,-0.22966936,0.07127526
215,-2.5185378,2.7445006,1.1920775,3.9758832,-8.627315,2.4356105,-0.044366952,0.056721862,-0.057021018,0.29399115,-0.22966936,0.07127526
216,-2.5185378,2.7445006,1.1920775,3.9758832,-8.627315,2.4356105,-0.044366952,0.056721862,-0.057021018,0.29399115,-0.22966936,0.07127526
217,-2.5140467,2.7518346,1.2318612,3.9299848,-8.654102,2.4149766,-0.06893837,0.11485967,-0.04490565,0.5470367,0.20299779,0.47137797
218,-2.5140467,2.7518346,1.2318612,3.9299848,-8.654102,2.4149766,-0.06893837,0.11485967,-0.04490565,0.5470367,0.20299779,0.47137797
219,-2.5140467,2.7518346,1.2318612,3.9299848,-8.654102,2.4149766,-0.06893837,0.11485967,-0.04490565,0.5470367,0.20299779,0.47137797
220,-2.5140467,2.7518346,1.2318612,3.9299848,-8.654102,2.4149766,-0.06893837,0.11485967,-0.04490565,0.5470367,0.20299779,0.47137797
221,-2.5140467,2.7518346,1.2318612,3.9299848,-8.654102,2.4149766,-0.06893837,0.11485967,-0.04490565,0.5470367,0.20299779,0.47137797
222,-2.5140467,2.7518346,1.2318612,3.9299848,-8.654102,2.4149766,-0.06893837,0.11485967,-0.04490565,0.5470367,0.20299779,0.47137797
223,-2.5162942,2.7572536,1.2504379,3.882461,-8.673603,2.4218798,-0.08556773,0.1668248,-0.01401678,-0.19632445,-0.13969369,0.2465729
224,-2.5162942,2.7572536,1.2504379,3.882461,-8.673603,2.4218798,-0.08556773,0.1668248,-0.01401678,-0.19632445,-0.13969369,0.2465729
225,-2.5162942,2.7572536,1.2504379,3.882461,-8.673603,2.4218798,-0.08556773,0.1668248,-0.01401678,-0.19632445,-0.13969369,0.2465729
226,-2.5162942,2.7572536,1.2504379,3.882461,-8.673603,2.4218798,-0.08556773,0.1668248,-0.01401678,-0.19632445,-0.13969369,0.2465729
227,-2.5162942,2.7572536,1.2504379,3.882461,-8.673603,2.4218798,-0.08556773,0.1668248,-0.01401678,-0.19632445,-0.13969369,0.2465729
228,-2.5162942,2.7572536,1.2504379,3.882461,-8.673603,2.4218798,-0.08556773,0.1668248,-0.01401678,-0.19632445,-0.13969369,0.2465729
229,-2.508876,2.7652254,1.3174057,3.8313777,-8.712355,2.3634284,-0.12925439,0.22741443,-0.0012828665,-0.3382037,-0.05041408,0.26160344
230,-2.508876,2.7652254,1.3174057,3.8313777,-8.712355,2.3634284,-0.12925439,0.22741443,-0.0012828665,-0.3382037,-0.05041408,0.26160344
231,-2.508876,2.7652254,1.3174057,3.8313777,-8.712355,2.3634284,-0.12925439,0.22741443,-0.0012828665,-0.3382037,-0.05041408,0.26160344
232,-2.508876,2.7652254,1.3174057,3.8313777,-8.712355,2.3634284,-0.12925439,0.22741443,-0.0012828665,-0.3382037,-0.05041408,0.26160344
233,-2.508876,2.7652254,1.3174057,3.8313777,-8.712355,2.3634284,-0.12925439,0.22741443,-0.0012828665,-0.3382037,-0.05041408,0.26160344
234,-2.508876,2.7652254,1.3174057,3.8313777,-8.712355,2.3634284,-0.12925439,0.22741443,-0.0012828665,-0.3382037,-0.05041408,0.26160344
235,-2.5097232,2.7734697,1.3693599,3.7579622,-8.755152,2.3228052,-0.18361492,0.26836714,-0.015425271,0.15414147,0.4421235,0.028536929
236,-2.5097232,2.7734697,1.3693599,3.7579622,-8.755152,2.3228052,-0.18361492,0.26836714,-0.015425271,0.15414147,0.4421235,0.028536929
237,-2.5097232,2.7734697,1.3693599,3.7579622,-8.755152,2.3228052,-0.18361492,0.26836714,-0.015425271,0.15414147,0.4421235,0.028536929
238,-2.5097232,2.7734697,1.3693599,3.7579622,-8.755152,2.3228052,-0.18361492,0.26836714,-0.015425271,0.15414147,0.4421235,0.028536929
239,-2.5097232,2.7734697,1.3693599,3.7579622,-8.755152,2.3228052,-0.18361492,0.26836714,-0.015425271,0.15414147,0.4421235,0.028536929
240,-2.5097232,2.7734697,1.3693599,3.7579622,-8.755152,2.3228052,-0.18361492,0.26836714,-0.015425271,0.15414147,0.4421235,0.028536929
241,-2.5114284,2.7829907,1.4443072,3.6675467,-8.811819,2.2519622,-0.20067225,0.251939,-0.028081467,0.20349851,-0.09472119,0.12674807
242,-2.5114284,2.7829907,1.4443072,3.6675467,-8.811819,2.2519622,-0.20067225,0.251939,-0.028081467,0.20349851,-0.09472119,0.12674807
243,-2.5114284,2.7829907,1.4443072,3.6675467,-8.811819,2.2519622,-0.20067225,0.251939,-0.028081467,0.20349851,-0.09472119,0.12674807
244,-2.5114284,2.7829907,1.4443072,3.6675467,-8.811819,2.2519622,-0.20067225,0.251939,-0.028081467,0.20349851,-0.09472119,0.12674807
245,-2.5114284,2.7829907,1.4443072,3.6675467,-8.811819,2.2519622,-0.20067225,0.251939,-0.028081467,0.20349851,-0.09472119,0.12674807
246,-2.5114284,2.7829907,1.4443072,3.6675467,-8.811819,2.2519622,-0.20067225,0.251939,-0.028081467,0.20349851,-0.09472119,0.12674807
247,-2.5126076,2.787376,1.48602,3.6234417,-8.842906,2.2009277,-0.16420051,0.18368413,-0.012508214,-0.25787225,-0.06323395,-0.6321025
248,-2.5126076,2.787376,1.48602,3.6234417,-8.842906,2.2009277,-0.16420051,0.18368413,-0.012508214,-0.25787225,-0.06323395,-0.6321025
249,-2.5126076,2.787376,1.48602,3.6234417,-8.842906,2.2009277,-0.16420051,0.18368413,-0.012508214,-0.25787225,-0.06323395,-0.6321025
250,-2.5126076,2.787376,1.48602,3.6234417,-8.842906,2.2009277,-0.16420051,0.18368413,-0.012508214,-0.25787225,-0.06323395,-0.6321025
251,-2.5126076,2.787376,1.48602,3.6234417,-8.842906,2.2009277,-0.16420051,0.18368413,-0.012508214,-0.25787225,-0.06323395,-0.6321025
252,-2.5126076,2.787376,1.48602,3.6234417,-8.842906,2.2009277,-0.16420051,0.18368413,-0.012508214,-0.25787225,-0.06323395,-0.6321025
253,-2.5126076,2.787376,1.48602,3.6234417,-8.842906,2.2009277,-0.16420051,0.18368413,-0.012508214,-0.25787225,-0.06323395,-0.6321025
254,-2.5207522,2.7896557,1.4461687,3.5937724,-8.847387,2.231349,-0.07059386,0.07694537,0.03246557,0.040757887,0.11837577,0.57566434
255,-2.5207522,2.7896557,1.4461687,3.5937724,-8.847387,2.231349,-0.07059386,0.07694537,0.03246557,0.040757887,0.11837577,0.57566434
256,-2.5207522,2.7896557,1.4461687,3.5937724,-8.847387,2.231349,-0.07059386,0.07694537,0.03246557,0.040757887,0.11837577,0.57566434
257,-2.5207522,2.7896557,1.4461687,3.5937724,-8.847387,2.231349,-0.07059386,0.07694537,0.03246557,0.040757887,0.11837577,0.57566434
258,-2.5207522,2.7896557,1.4461687,3.5937724,-8.847387,2.231349,-0.07059386,0.07694537,0.03246557,0.040757887,0.11837577,0.57566434
259,-2.5346272,2.7924361,1.3832979,3.551492,-8.8463545,2.3020236,0.083101004,-0.06662176,0.083145715,0.21900265,-0.31008315,-0.17175582
260,-2.5346272,2.7924361,1.3832979,3.551492,-8.8463545,2.3020236,0.083101004,-0.06662176,0.083145715,0.21900265,-0.31008315,-0.17175582
261,-2.5346272,2.7924361,1.3832979,3.551492,-8.8463545,2.3020236,0.083101004,-0.06662176,0.083145715,0.21900265,-0.31008315,-0.17175582
262,-2.5346272,2.7924361,1.3832979,3.551492,-8.8463545,2.3020236,0.083101004,-0.06662176,0.083145715,0.21900265,-0.31008315,-0.17175582
263,-2.5346272,2.7924361,1.3832979,3.551492,-8.8463545,2.3020236,0.083101004,-0.06662176,0.083145715,0.21900265,-0.31008315,-0.17175582
264,-2.5346272,2.7924361,1.3832979,3.551492,-8.8463545,2.3020236,0.083101004,-0.06662176,0.083145715,0.21900265,-0.31008315,-0.17175582
265,-2.557201,2.795682,1.3053973,3.4894462,-8.837445,2.4277005,0.23993117,-0.19887944,0.11584763,-0.033819757,-0.3936187,-0.2341143
266,-2.557201,2.795682,1.3053973,3.4894462,-8.837445,2.4277005,0.23993117,-0.19887944,0.11584763,-0.033819757,-0.3936187,-0.2341143
267,-2.557201,2.795682,1.3053973,3.4894462,-8.837445,2.4277005,0.23993117,-0.19887944,0.11584763,-0.033819757,-0.3936187,-0.2341143
268,-2.557201,2.795682,1.3053973,3.4894462,-8.837445,2.4277005,0.23993117,-0.19887944,0.11584763,-0.033819757,-0.3936187,-0.2341143
269,-2.557201,2.795682,1.3053973,3.4894462,-8.837445,2.4277005,0.23993117,-0.19887944,0.11584763,-0.033819757,-0.3936187,-0.2341143
270,-2.557201,2.795682,1.3053973,3.4894462,-8.837445,2.4277005,0.23993117,-0.19887944,0.11584763,-0.033819757,-0.3936187,-0.2341143
271,-2.576792,2.7959576,1.2478063,3.4535713,-8.818766,2.544127,0.31050372,-0.24736114,0.12468823,-0.049191464,-0.03392689,-0.2896059
272,-2.576792,2.7959576,1.2478063,3.4535713,-8.818766,2.544127,0.31050372,-0.24736114,0.12468823,-0.049191464,-0.03392689,-0.2896059
273,-2.576792,2.7959576,1.2478063,3.4535713,-8.818766,2.544127,0.31050372,-0.24736114,0.12468823,-0.049191464,-0.03392689,-0.2896059
274,-2.576792,2.7959576,1.2478063,3.4535713,-8.818766,2.544127,0.31050372,-0.24736114,0.12468823,-0.049191464,-0.03392689,-0.2896059
275,-2.576792,2.7959576,1.2478063,3.4535713,-8.818766,2.544127,0.31050372,-0.24736114,0.12468823,-0.049191464,-0.03392689,-0.2896059
276,-2.576792,2.7959576,1.2478063,3.4535713,-8.818766,2.544127,0.31050372,-0.24736114,0.12468823,-0.049191464,-0.03392689,-0.2896059
277,-2.5985992,2.7916934,1.1897789,3.4465811,-8.777058,2.6934586,0.27516156,-0.20689921,0.11362471,-0.01622413,-0.32840118,0.18688433
278,-2.5985992,2.7916934,1.1897789,3.4465811,-8.777058,2.6934586,0.27516156,-0.20689921,0.11362471,-0.01622413,-0.32840118,0.18688433
279,-2.5985992,2.7916934,1.1897789,3.4465811,-8.777058,2.6934586,0.27516156,-0.20689921,0.11362471,-0.01622413,-0.32840118,0.18688433
280,-2.5985992,2.7916934,1.1897789,3.4465811,-8.777058,2.6934586,0.27516156,-0.20689921,0.11362471,-0.01622413,-0.32840118,0.18688433
281,-2.5985992,2.7916934,1.1897789,3.4465811,-8.777058,2.6934586,0.27516156,-0.20689921,0.11362471,-0.01622413,-0.32840118,0.18688433
282,-2.5985992,2.7916934,1.1897789,3.4465811,-8.777058,2.6934586,0.27516156,-0.20689921,0.11362471,-0.01622413,-0.32840118,0.18688433
283,-2.613679,2.7918377,1.1649117,3.415597,-8.768762,2.7591488,0.19587615,-0.13991123,0.091116525,-0.25465357,0.4114493,0.31902593
284,-2.613679,2.7918377,1.1649117,3.415597,-8.768762,2.7591488,0.19587615,-0.13991123,0.091116525,-0.25465357,0.4114493,0.31902593
285,-2.613679,2.7918377,1.1649117,3.415597,-8.768762,2.7591488,0.19587615,-0.13991123,0.091116525,-0.25465357,0.4114493,0.31902593
286,-2.613679,2.7918377,1.1649117,3.415597,-8.768762,2.7591488,0.19587615,-0.13991123,0.091116525,-0.25465357,0.4114493,0.31902593
287,-2.613679,2.7918377,1.1649117,3.415597,-8.768762,2.7591488,0.19587615,-0.13991123,0.091116525,-0.25465357,0.4114493,0.31902593
288,-2.613679,2.7918377,1.1649117,3.415597,-8.768762,2.7591488,0.19587615,-0.13991123,0.091116525,-0.25465357,0.4114493,0.31902593
289,-2.6233492,2.7900937,1.1459428,3.408629,-8.758158,2.8011224,0.1332318,-0.097362645,0.065051444,0.1854032,-0.24886446,-0.19653699
290,-2.6233492,2.7900937,1.1459428,3.408629,-8.758158,2.8011224,0.1332318,-0.097362645,0.065051444,0.1854032,-0.24886446,-0.19653699
291,-2.6233492,2.7900937,1.1459428,3.408629,-8.758158,2.8011224,0.1332318,-0.097362645,0.065051444,0.1854032,-0.24886446,-0.19653699
292,-2.6233492,2.7900937,1.1459428,3.408629,-8.758158,2.8011224,0.1332318,-0.097362645,0.065051444,0.1854032,-0.24886446,-0.19653699
293,-2.6233492,2.7900937,1.1459428,3.408629,-8.758158,2.8011224,0.1332318,-0.097362645,0.065051444,0.1854032,-0.24886446,-0.19653699
294,-2.6233492,2.7900937,1.1459428,3.408629,-8.758158,2.8011224,0.1332318,-0.097362645,0.065051444,0.1854032,-0.24886446,-0.19653699
295,-2.629128,2.786364,1.1294962,3.4233203,-8.743214,2.8297505,0.0884933,-0.075732775,0.039069407,-0.18357788,0.62443084,-0.14529544
296,-2.629128,2.786364,1.1294962,3.4233203,-8.743214,2.8297505,0.0884933,-0.075732775,0.039069407,-0.18357788,0.62443084,-0.14529544
297,-2.629128,2.786364,1.1294962,3.4233203,-8.743214,2.8297505,0.0884933,-0.075732775,0.039069407,-0.18357788,0.62443084,-0.14529544
298,-2.629128,2.786364,1.1294962,3.4233203,-8.743214,2.8297505,0.0884933,-0.075732775,0.039069407,-0.18357788,0.62443084,-0.14529544
299,-2.629128,2.786364,1.1294962,3.4233203,-8.743214,2.8297505,0.0884933,-0.075732775,0.039069407,-0.18357788,0.62443084,-0.14529544
300,-2.629128,2.786364,1.1294962,3.4233203,-8.743214,2.8297505,0.0884933,-0.075732775,0.039069407,-0.18357788,0.62443084,-0.14529544
301,-2.6377625,2.7842166,1.1145484,3.4202385,-8.732674,2.865791,0.058076058,-0.06488004,0.018348716,0.20415874,-0.2770179,-0.042534385
302,-2.6377625,2.7842166,1.1145484,3.4202385,-8.732674,2.865791,0.058076058,-0.06488004,0.018348716,0.20415874,-0.2770179,-0.042534385
303,-2.6377625,2.7842166,1.1145484,3.4202385,-8.732674,2.865791,0.058076058,-0.06488004,0.018348716,0.20415874,-0.2770179,-0.042534385
304,-2.6377625,2.7842166,1.1145484,3.4202385,-8.732674,2.865791,0.058076058,-0.06488004,0.018348716,0.20415874,-0.2770179,-0.042534385
305,-2.6377625,2.7842166,1.1145484,3.4202385,-8.732674,2.865791,0.058076058,-0.06488004,0.018348716,0.20415874,-0.2770179,-0.042534385
306,-2.6377625,2.7842166,1.1145484,3.4202385,-8.732674,2.865791,0.058076058,-0.06488004,0.018348716,0.20415874,-0.2770179,-0.042534385
307,-2.6472871,2.7824566,1.1009456,3.4122562,-8.7229185,2.9047518,0.050138254,-0.06520794,0.007379942,-0.50978976,0.26480705,-0.5598688
308,-2.6472871,2.7824566,1.1009456,3.4122562,-8.7229185,2.9047518,0.050138254,-0.06520794,0.007379942,-0.50978976,0.26480705,-0.5598688
309,-2.6472871,2.7824566,1.1009456,3.4122562,-8.7229185,2.9047518,0.050138254,-0.06520794,0.007379942,-0.50978976,0.26480705,-0.5598688
310,-2.6472871,2.7824566,1.1009456,3.4122562,-8.7229185,2.9047518,0.050138254,-0.06520794,0.007379942,-0.50978976,0.26480705,-0.5598688
311,-2.6472871,2.7824566,1.1009456,3.4122562,-8.7229185,2.9047518,0.050138254,-0.06520794,0.007379942,-0.50978976,0.26480705,-0.5598688
312,-2.6472871,2.7824566,1.1009456,3.4122562,-8.7229185,2.9047518,0.050138254,-0.06520794,0.007379942,-0.50978976,0.26480705,-0.5598688
313,-2.6561995,2.7785463,1.087257,3.4207754,-8.703196,2.9534836,0.04965279,-0.065420866,0.0036409986,-0.2917105,0.33954653,0.8962621
314,-2.6561995,2.7785463,1.087257,3.4207754,-8.703196,2.9534836,0.04965279,-0.065420866,0.0036409986,-0.2917105,0.33954653,0.8962621
315,-2.6561995,2.7785463,1.087257,3.4207754,-8.703196,2.9534836,0.04965279,-0.065420866,0.0036409986,-0.2917105,0.33954653,0.8962621
316,-2.6561995,2.7785463,1.087257,3.4207754,-8.703196,2.9534836,0.04965279,-0.065420866,0.0036409986,-0.2917105,0.33954653,0.8962621
317,-2.6561995,2.7785463,1.087257,3.4207754,-8.703196,2.9534836,0.04965279,-0.065420866,0.0036409986,-0.2917105,0.33954653,0.8962621
318,-2.6561995,2.7785463,1.087257,3.4207754,-8.703196,2.9534836,0.04965279,-0.065420866,0.0036409986,-0.2917105,0.33954653,0.8962621
319,-2.6692708,2.771737,1.072313,3.4418926,-8.662144,3.0481198,0.047197774,-0.06127524,0.0017949485,-0.2837005,-0.62419915,-0.37685493
320,-2.6692708,2.771737,1.072313,3.4418926,-8.662144,3.0481198,0.047197774,-0.06127524,0.0017949485,-0.2837005,-0.62419915,-0.37685493
321,-2.6692708,2.771737,1.072313,3.4418926,-8.662144,3.0481198,0.047197774,-0.06127524,0.0017949485,-0.2837005,-0.62419915,-0.37685493
322,-2.6692708,2.771737,1.072313,3.4418926,-8.662144,3.0481198,0.047197774,-0.06127524,0.0017949485,-0.2837005,-0.62419915,-0.37685493
323,-2.6692708,2.771737,1.072313,3.4418926,-8.662144,3.0481198,0.047197774,-0.06127524,0.0017949485,-0.2837005,-0.62419915,-0.37685493
324,-2.6692708,2.771737,1.072313,3.4418926,-8.662144,3.0481198,0.047197774,-0.06127524,0.0017949485,-0.2837005,-0.62419915,-0.37685493
325,-2.6840577,2.7682211,1.0621454,3.4363203,-8.6322975,3.1377609,0.05036502,-0.056105446,0.0022761566,0.080840856,0.5713061,-0.26765382
326,-2.6840577,2.7682211,1.0621454,3.4363203,-8.6322975,3.1377609,0.05036502,-0.056105446,0.0022761566,0.080840856,0.5713061,-0.26765382
327,-2.6840577,2.7682211,1.0621454,3.4363203,-8.6322975,3.1377609,0.05036502,-0.056105446,0.0022761566,0.080840856,0.5713061,-0.26765382
328,-2.6840577,2.7682211,1.0621454,3.4363203,-8.6322975,3.1377609,0.05036502,-0.056105446,0.0022761566,0.080840856,0.5713061,-0.26765382
329,-2.6840577,2.7682211,1.0621454,3.4363203,-8.6322975,3.1377609,0.05036502,-0.056105446,0.0022761566,0.080840856,0.5713061,-0.26765382
330,-2.6840577,2.7682211,1.0621454,3.4363203,-8.6322975,3.1377609,0.05036502,-0.056105446,0.0022761566,0.080840856,0.5713061,-0.26765382
331,-2.701245,2.7646816,1.0539632,3.4270556,-8.595533,3.2469184,0.07436899,-0.057716217,0.007214926,0.4689234,-0.53296536,0.2135273
332,-2.701245,2.7646816,1.0539632,3.4270556,-8.595533,3.2469184,0.07436899,-0.057716217,0.007214926,0.4689234,-0.53296536,0.2135273
333,-2.701245,2.7646816,1.0539632,3.4270556,-8.595533,3.2469184,0.07436899,-0.057716217,0.007214926,0.4689234,-0.53296536,0.2135273
334,-2.701245,2.7646816,1.0539632,3.4270556,-8.595533,3.2469184,0.07436899,-0.057716217,0.007214926,0.4689234,-0.53296536,0.2135273
335,-2.701245,2.7646816,1.0539632,3.4270556,-8.595533,3.2469184,0.07436899,-0.057716217,0.007214926,0.4689234,-0.53296536,0.2135273
336,-2.701245,2.7646816,1.0539632,3.4270556,-8.595533,3.2469184,0.07436899,-0.057716217,0.007214926,0.4689234,-0.53296536,0.2135273
337,-2.70819,2.7603104,1.0497652,3.4436088,-8.567163,3.303885,0.09711353,-0.056548327,0.014450081,-0.36943367,1.1358601,0.66107756
338,-2.70819,2.7603104,1.0497652,3.4436088,-8.567163,3.303885,0.09711353,-0.056548327,0.014450081,-0.36943367,1.1358601,0.66107756
339,-2.70819,2.7603104,1.0497652,3.4436088,-8.567163,3.303885,0.09711353,-0.056548327,0.014450081,-0.36943367,1.1358601,0.66107756
340,-2.70819,2.7603104,1.0497652,3.4436088,-8.567163,3.303885,0.09711353,-0.056548327,0.014450081,-0.36943367,1.1358601,0.66107756
341,-2.70819,2.7603104,1.0497652,3.4436088,-8.567163,3.303885,0.09711353,-0.056548327,0.014450081,-0.36943367,1.1358601,0.66107756
342,-2.70819,2.7603104,1.0497652,3.4436088,-8.567163,3.303885,0.09711353,-0.056548327,0.014450081,-0.36943367,1.1358601,0.66107756
343,-2.7143648,2.7537684,1.0460645,3.4769516,-8.527943,3.3697753,0.073645055,-0.03859352,0.013432304,0.1303773,0.08650788,-0.1829887
344,-2.7143648,2.7537684,1.0460645,3.4769516,-8.527943,3.3697753,0.073645055,-0.03859352,0.013432304,0.1303773,0.08650788,-0.1829887
345,-2.7143648,2.7537684,1.0460645,3.4769516,-8.527943,3.3697753,0.073645055,-0.03859352,0.013432304,0.1303773,0.08650788,-0.1829887
346,-2.7143648,2.7537684,1.0460645,3.4769516,-8.527943,3.3697753,0.073645055,-0.03859352,0.013432304,0.1303773,0.08650788,-0.1829887
347,-2.7143648,2.7537684,1.0460645,3.4769516,-8.527943,3.3697753,0.073645055,-0.03859352,0.013432304,0.1303773,0.08650788,-0.1829887
348,-2.7143648,2.7537684,1.0460645,3.4769516,-8.527943,3.3697753,0.073645055,-0.03859352,0.013432304,0.1303773,0.08650788,-0.1829887
349,-2.7150726,2.749637,1.0445337,3.5039594,-8.507976,3.3921971,-0.0012519925,-0.010737753,-0.004341518,0.07455669,0.3550536,-0.32762545
350,-2.7150726,2.749637,1.0445337,3.5039594,-8.507976,3.3921971,-0.0012519925,-0.010737753,-0.004341518,0.07455669,0.3550536,-0.32762545
351,-2.7150726,2.749637,1.0445337,3.5039594,-8.507976,3.3921971,-0.0012519925,-0.010737753,-0.004341518,0.07455669,0.3550536,-0.32762545
352,-2.7150726,2.749637,1.0445337,3.5039594,-8.507976,3.3921971,-0.0012519925,-0.010737753,-0.004341518,0.07455669,0.3550536,-0.32762545
353,-2.7150726,2.749637,1.0445337,3.5039594,-8.507976,3.3921971,-0.0012519925,-0.010737753,-0.004341518,0.07455669,0.3550536,-0.32762545
354,-2.7150726,2.749637,1.0445337,3.5039594,-8.507976,3.3921971,-0.0012519925,-0.010737753,-0.004341518,0.07455669,0.3550536,-0.32762545
355,-2.7150726,2.749637,1.0445337,3.5160232,-8.505884,3.3849554,-0.08687615,0.013381203,-0.029343043,0.30764064,-0.8445178,0.37208015
356,-2.7150726,2.749637,1.0445337,3.5160232,-8.505884,3.3849554,-0.08687615,0.013381203,-0.029343043,0.30764064,-0.8445178,0.37208015
357,-2.7150726,2.749637,1.0445337,3.5160232,-8.505884,3.3849554,-0.08687615,0.013381203,-0.029343043,0.30764064,-0.8445178,0.37208015
358,-2.7150726,2.749637,1.0445337,3.5160232,-8.505884,3.3849554,-0.08687615,0.013381203,-0.029343043,0.30764064,-0.8445178,0.37208015
359,-2.7150726,2.749637,1.0445337,3.5160232,-8.505884,3.3849554,-0.08687615,0.013381203,-0.029343043,0.30764064,-0.8445178,0.37208015
360,-2.7150726,2.749637,1.0445337,3.5160232,-8.505884,3.3849554,-0.08687615,0.013381203,-0.029343043,0.30764064,-0.8445178,0.37208015
361,-2.701818,2.7491019,1.043454,3.5303729,-8.534739,3.2962255,-0.14427191,0.026303554,-0.0468028,-0.48847517,0.22736819,-0.51996326
362,-2.701818,2.7491019,1.043454,3.5303729,-8.534739,3.2962255,-0.14427191,0.026303554,-0.0468028,-0.48847517,0.22736819,-0.51996326
363,-2.701818,2.7491019,1.043454,3.5303729,-8.534739,3.2962255,-0.14427191,0.026303554,-0.0468028,-0.48847517,0.22736819,-0.51996326
364,-2.701818,2.7491019,1.043454,3.5303729,-8.534739,3.2962255,-0.14427191,0.026303554,-0.0468028,-0.48847517,0.22736819,-0.51996326
365,-2.701818,2.7491019,1.043454,3.5303729,-8.534739,3.2962255,-0.14427191,0.026303554,-0.0468028,-0.48847517,0.22736819,-0.51996326
366,-2.701818,2.7491019,1.043454,3.5303729,-8.534739,3.2962255,-0.14427191,0.026303554,-0.0468028,-0.48847517,0.22736819,-0.51996326
367,-2.701818,2.7491019,1.043454,3.524987,-8.55371,3.252521,-0.16946507,0.03432972,-0.048079282,-0.24057403,0.28840113,0.086212516
368,-2.701818,2.7491019,1.043454,3.524987,-8.55371,3.252521,-0.16946507,0.03432972,-0.048079282,-0.24057403,0.28840113,0.086212516
369,-2.701818,2.7491019,1.043454,3.524987,-8.55371,3.252521,-0.16946507,0.03432972,-0.048079282,-0.24057403,0.28840113,0.086212516
370,-2.701818,2.7491019,1.043454,3.524987,-8.55371,3.252521,-0.16946507,0.03432972,-0.048079282,-0.24057403,0.28840113,0.086212516
371,-2.701818,2.7491019,1.043454,3.524987,-8.55371,3.252521,-0.16946507,0.03432972,-0.048079282,-0.24057403,0.28840113,0.086212516
372,-2.701818,2.7491019,1.043454,3.524987,-8.55371,3.252521,-0.16946507,0.03432972,-0.048079282,-0.24057403,0.28840113,0.086212516
373,-2.7016068,2.753137,1.0364623,3.4960895,-8.577505,3.220896,-0.16627653,0.040965494,-0.03277644,-0.1961727,-0.20360304,-0.5662031
374,-2.7016068,2.753137,1.0364623,3.4960895,-8.577505,3.220896,-0.16627653,0.040965494,-0.03277644,-0.1961727,-0.20360304,-0.5662031
375,-2.7016068,2.753137,1.0364623,3.4960895,-8.577505,3.220896,-0.16627653,0.040965494,-0.03277644,-0.1961727,-0.20360304,-0.5662031
376,-2.7016068,2.753137,1.0364623,3.4960895,-8.577505,3.220896,-0.16627653,0.040965494,-0.03277644,-0.1961727,-0.20360304,-0.5662031
377,-2.7016068,2.753137,1.0364623,3.4960895,-8.577505,3.220896,-0.16627653,0.040965494,-0.03277644,-0.1961727,-0.20360304,-0.5662031
378,-2.7016068,2.753137,1.0364623,3.4960895,-8.577505,3.220896,-0.16627653,0.040965494,-0.03277644,-0.1961727,-0.20360304,-0.5662031
379,-2.7016068,2.753137,1.0364623,3.4672365,-8.606166,3.1753066,-0.13755949,0.041544646,-0.008855505,-0.048774704,0.08048651,-0.40049845
380,-2.7016068,2.753137,1.0364623,3.4672365,-8.606166,3.1753066,-0.13755949,0.041544646,-0.008855505,-0.048774704,0.08048651,-0.40049845
381,-2.7016068,2.753137,1.0364623,3.4672365,-8.606166,3.1753066,-0.13755949,0.041544646,-0.008855505,-0.048774704,0.08048651,-0.40049845
382,-2.7016068,2.753137,1.0364623,3.4672365,-8.606166,3.1753066,-0.13755949,0.041544646,-0.008855505,-0.048774704,0.08048651,-0.40049845
383,-2.7016068,2.753137,1.0364623,3.4672365,-8.606166,3.1753066,-0.13755949,0.041544646,-0.008855505,-0.048774704,0.08048651,-0.40049845
384,-2.7016068,2.753137,1.0364623,3.4672365,-8.606166,3.1753066,-0.13755949,0.041544646,-0.008855505,-0.048774704,0.08048651,-0.40049845
385,-2.709119,2.7576592,1.0234479,3.4399493,-8.623205,3.1587136,-0.08774381,0.029623037,0.012254835,-0.05302062,-0.0686609,-0.07173663
386,-2.709119,2.7576592,1.0234479,3.4399493,-8.623205,3.1587136,-0.08774381,0.029623037,0.012254835,-0.05302062,-0.0686609,-0.07173663
387,-2.709119,2.7576592,1.0234479,3.4399493,-8.623205,3.1587136,-0.08774381,0.029623037,0.012254835,-0.05302062,-0.0686609,-0.07173663
388,-2.709119,2.7576592,1.0234479,3.4399493,-8.623205,3.1587136,-0.08774381,0.029623037,0.012254835,-0.05302062,-0.0686609,-0.07173663
389,-2.709119,2.7576592,1.0234479,3.4399493,-8.623205,3.1587136,-0.08774381,0.029623037,0.012254835,-0.05302062,-0.0686609,-0.07173663
390,-2.709119,2.7576592,1.0234479,3.4399493,-8.623205,3.1587136,-0.08774381,0.029623037,0.012254835,-0.05302062,-0.0686609,-0.07173663
391,-2.709119,2.7576592,1.0234479,3.426196,-8.64493,3.1139603,-0.042863708,0.011089076,0.020260774,-0.45809296,0.8379931,-1.1852939
392,-2.709119,2.7576592,1.0234479,3.426196,-8.64493,3.1139603,-0.042863708,0.011089076,0.020260774,-0.45809296,0.8379931,-1.1852939
393,-2.709119,2.7576592,1.0234479,3.426196,-8.64493,3.1139603,-0.042863708,0.011089076,0.020260774,-0.45809296,0.8379931,-1.1852939
394,-2.709119,2.7576592,1.0234479,3.426196,-8.64493,3.1139603,-0.042863708,0.011089076,0.020260774,-0.45809296,0.8379931,-1.1852939
395,-2.709119,2.7576592,1.0234479,3.426196,-8.64493,3.1139603,-0.042863708,0.011089076,0.020260774,-0.45809296,0.8379931,-1.1852939
396,-2.709119,2.7576592,1.0234479,3.426196,-8.64493,3.1139603,-0.042863708,0.011089076,0.020260774,-0.45809296,0.8379931,-1.1852939
397,-2.721388,2.7506506,1.0054445,3.451216,-8.614333,3.1706052,-0.018892737,-0.008834212,0.011936514,-0.106540896,-0.47289124,0.29702553
398,-2.721388,2.7506506,1.0054445,3.451216,-8.614333,3.1706052,-0.018892737,-0.008834212,0.011936514,-0.106540896,-0.47289124,0.29702553
399,-2.721388,2.7506506,1.0054445,3.451216,-8.614333,3.1706052,-0.018892737,-0.008834212,0.011936514,-0.106540896,-0.47289124,0.29702553
400,-2.721388,2.7506506,1.0054445,3.451216,-8.614333,3.1706052,-0.018892737,-0.008834212,0.011936514,-0.106540896,-0.47289124,0.29702553
401,-2.721388,2.7506506,1.0054445,3.451216,-8.614333,3.1706052,-0.018892737,-0.008834212,0.011936514,-0.106540896,-0.47289124,0.29702553
402,-2.721388,2.7506506,1.0054445,3.451216,-8.614333,3.1706052,-0.018892737,-0.008834212,0.011936514,-0.106540896,-0.47289124,0.29702553
403,-2.7259448,2.7449934,0.9951878,3.472127,-8.607489,3.1663637,-0.006328098,-0.031010237,-0.0051410473,0.57114065,1.4787986,0.115014695
404,-2.7259448,2.7449934,0.9951878,3.472127,-8.607489,3.1663637,-0.006328098,-0.031010237,-0.0051410473,0.57114065,1.4787986,0.115014695
405,-2.7259448,2.7449934,0.9951878,3.472127,-8.607489,3.1663637,-0.006328098,-0.031010237,-0.0051410473,0.57114065,1.4787986,0.115014695
406,-2.7259448,2.7449934,0.9951878,3.472127,-8.607489,3.1663637,-0.006328098,-0.031010237,-0.0051410473,0.57114065,1.4787986,0.115014695
407,-2.7259448,2.7449934,0.9951878,3.472127,-8.607489,3.1663637,-0.006328098,-0.031010237,-0.0051410473,0.57114065,1.4787986,0.115014695
408,-2.7259448,2.7449934,0.9951878,3.472127,-8.607489,3.1663637,-0.006328098,-0.031010237,-0.0051410473,0.57114065,1.4787986,0.115014695
409,-2.7324443,2.7367423,0.9851424,3.5056753,-8.587263,3.1842635,0.004842954,-0.050523646,-0.016560156,0.444234,-0.51015717,0.4097078
410,-2.7324443,2.7367423,0.9851424,3.5056753,-8.587263,3.1842635,0.004842954,-0.050523646,-0.016560156,0.444234,-0.51015717,0.4097078
411,-2.7324443,2.7367423,0.9851424,3.5056753,-8.587263,3.1842635,0.004842954,-0.050523646,-0.016560156,0.444234,-0.51015717,0.4097078
412,-2.7324443,2.7367423,0.9851424,3.5056753,-8.587263,3.1842635,0.004842954,-0.050523646,-0.016560156,0.444234,-0.51015717,0.4097078
413,-2.7324443,2.7367423,0.9851424,3.5056753,-8.587263,3.1842635,0.004842954,-0.050523646,-0.016560156,0.444234,-0.51015717,0.4097078
414,-2.7324443,2.7367423,0.9851424,3.5056753,-8.587263,3.1842635,0.004842954,-0.050523646,-0.016560156,0.444234,-0.51015717,0.4097078
415,-2.7366843,2.7285395,0.97390395,3.54027,-8.576586,3.1747525,0.0070594917,-0.053598266,-0.009569865,-0.60803044,0.28997415,-0.028611979
416,-2.7366843,2.7285395,0.97390395,3.54027,-8.576586,3.1747525,0.0070594917,-0.053598266,-0.009569865,-0.60803044,0.28997415,-0.028611979
417,-2.7366843,2.7285395,0.97390395,3.54027,-8.576586,3.1747525,0.0070594917,-0.053598266,-0.009569865,-0.60803044,0.28997415,-0.028611979
418,-2.7366843,2.7285395,0.97390395,3.54027,-8.576586,3.1747525,0.0070594917,-0.053598266,-0.009569865,-0.60803044,0.28997415,-0.028611979
419,-2.7366843,2.7285395,0.97390395,3.54027,-8.576586,3.1747525,0.0070594917,-0.053598266,-0.009569865,-0.60803044,0.28997415,-0.028611979
420,-2.7366843,2.7285395,0.97390395,3.54027,-8.576586,3.1747525,0.0070594917,-0.053598266,-0.009569865,-0.60803044,0.28997415,-0.028611979
421,-2.737098,2.7190573,0.9614185,3.5877478,-8.571122,3.135971,-0.024621455,-0.028421082,0.0135707045,-0.14094657,0.043057177,0.25883892
422,-2.737098,2.7190573,0.9614185,3.5877478,-8.571122,3.135971,-0.024621455,-0.028421082,0.0135707045,-0.14094657,0.043057177,0.25883892
423,-2.737098,2.7190573,0.9614185,3.5877478,-8.571122,3.135971,-0.024621455,-0.028421082,0.0135707045,-0.14094657,0.043057177,0.25883892
424,-2.737098,2.7190573,0.9614185,3.5877478,-8.571122,3.135971,-0.024621455,-0.028421082,0.0135707045,-0.14094657,0.043057177,0.25883892
425,-2.737098,2.7190573,0.9614185,3.5877478,-8.571122,3.135971,-0.024621455,-0.028421082,0.0135707045,-0.14094657,0.043057177,0.25883892
426,-2.737098,2.7190573,0.9614185,3.5877478,-8.571122,3.135971,-0.024621455,-0.028421082,0.0135707045,-0.14094657,0.043057177,0.25883892
427,-2.7385752,2.713019,0.94779617,3.6079972,-8.58307,3.079552,-0.08620543,0.0070350054,0.027698206,0.005111247,0.03598191,0.1964665
428,-2.7385752,2.713019,0.94779617,3.6079972,-8.58307,3.079552,-0.08620543,0.0070350054,0.027698206,0.005111247,0.03598191,0.1964665
429,-2.7385752,2.713019,0.94779617,3.6079972,-8.58307,3.079552,-0.08620543,0.0070350054,0.027698206,0.005111247,0.03598191,0.1964665
430,-2.7385752,2.713019,0.94779617,3.6079972,-8.58307,3.079552,-0.08620543,0.0070350054,0.027698206,0.005111247,0.03598191,0.1964665
431,-2.7385752,2.713019,0.94779617,3.6079972,-8.58307,3.079552,-0.08620543,0.0070350054,0.027698206,0.005111247,0.03598191,0.1964665
432,-2.7385752,2.713019,0.94779617,3.6079972,-8.58307,3.079552,-0.08620543,0.0070350054,0.027698206,0.005111247,0.03598191,0.1964665
433,-2.737067,2.7167716,0.9292225,3.5663557,-8.648041,2.943278,-0.14709209,0.027408628,0.013124629,-0.07625559,0.2807378,0.071773276
434,-2.737067,2.7167716,0.9292225,3.5663557,-8.648041,2.943278,-0.14709209,0.027408628,0.013124629,-0.07625559,0.2807378,0.071773276
435,-2.737067,2.7167716,0.9292225,3.5663557,-8.648041,2.943278,-0.14709209,0.027408628,0.013124629,-0.07625559,0.2807378,0.071773276
436,-2.737067,2.7167716,0.9292225,3.5663557,-8.648041,2.943278,-0.14709209,0.027408628,0.013124629,-0.07625559,0.2807378,0.071773276
437,-2.737067,2.7167716,0.9292225,3.5663557,-8.648041,2.943278,-0.14709209,0.027408628,0.013124629,-0.07625559,0.2807378,0.071773276
438,-2.737067,2.7167716,0.9292225,3.5663557,-8.648041,2.943278,-0.14709209,0.027408628,0.013124629,-0.07625559,0.2807378,0.071773276
439,-2.7310953,2.7186208,0.90973055,3.5461679,-8.70704,2.7897193,-0.1721511,0.027668396,-0.013772982,0.107169904,-0.09917187,0.21280463
440,-2.7310953,2.7186208,0.90973055,3.5461679,-8.70704,2.7897193,-0.1721511,0.027668396,-0.013772982,0.107169904,-0.09917187,0.21280463
441,-2.7310953,2.7186208,0.90973055,3.5461679,-8.70704,2.7897193,-0.1721511,0.027668396,-0.013772982,0.107169904,-0.09917187,0.21280463
442,-2.7310953,2.7186208,0.90973055,3.5461679,-8.70704,2.7897193,-0.1721511,0.027668396,-0.013772982,0.107169904,-0.09917187,0.21280463
443,-2.7310953,2.7186208,0.90973055,3.5461679,-8.70704,2.7897193,-0.1721511,0.027668396,-0.013772982,0.107169904,-0.09917187,0.21280463
444,-2.7310953,2.7186208,0.90973055,3.5461679,-8.70704,2.7897193,-0.1721511,0.027668396,-0.013772982,0.107169904,-0.09917187,0.21280463
445,-2.7169733,2.719756,0.8879078,3.5474012,-8.768229,2.589303,-0.15056594,0.024486247,-0.010800565,0.12242716,-0.0053458256,0.22703093
446,-2.7169733,2.719756,0.8879078,3.5474012,-8.768229,2.589303,-0.15056594,0.024486247,-0.010800565,0.12242716,-0.0053458256,0.22703093
447,-2.7169733,2.719756,0.8879078,3.5474012,-8.768229,2.589303,-0.15056594,0.024486247,-0.010800565,0.12242716,-0.0053458256,0.22703093
448,-2.7169733,2.719756,0.8879078,3.5474012,-8.768229,2.589303,-0.15056594,0.024486247,-0.010800565,0.12242716,-0.0053458256,0.22703093
449,-2.7169733,2.719756,0.8879078,3.5474012,-8.768229,2.589303,-0.15056594,0.024486247,-0.010800565,0.12242716,-0.0053458256,0.22703093
450,-2.7169733,2.719756,0.8879078,3.5474012,-8.768229,2.589303,-0.15056594,0.024486247,-0.010800565,0.12242716,-0.0053458256,0.22703093
451,-2.7028124,2.719985,0.86716205,3.5575776,-8.816548,2.404682,-0.10362367,0.027732274,0.026571838,-0.31730255,0.07466045,0.104731046
452,-2.7028124,2.719985,0.86716205,3.5575776,-8.816548,2.404682,-0.10362367,0.027732274,0.026571838,-0.31730255,0.07466045,0.104731046
453,-2.7028124,2.719985,0.86716205,3.5575776,-8.816548,2.404682,-0.10362367,0.027732274,0.026571838,-0.31730255,0.07466045,0.104731046
454,-2.7028124,2.719985,0.86716205,3.5575776,-8.816548,2.404682,-0.10362367,0.027732274,0.026571838,-0.31730255,0.07466045,0.104731046
455,-2.7028124,2.719985,0.86716205,3.5575776,-8.816548,2.404682,-0.10362367,0.027732274,0.026571838,-0.31730255,0.07466045,0.104731046
456,-2.7028124,2.719985,0.86716205,3.5575776,-8.816548,2.404682,-0.10362367,0.027732274,0.026571838,-0.31730255,0.07466045,0.104731046
457,-2.692783,2.7246435,0.8468094,3.5340106,-8.870409,2.2353978,-0.054930106,0.024700237,0.05191617,0.038570873,-0.43554,0.06990266
458,-2.692783,2.7246435,0.8468094,3.5340106,-8.870409,2.2353978,-0.054930106,0.024700237,0.05191617,0.038570873,-0.43554,0.06990266
459,-2.692783,2.7246435,0.8468094,3.5340106,-8.870409,2.2353978,-0.054930106,0.024700237,0.05191617,0.038570873,-0.43554,0.06990266
460,-2.692783,2.7246435,0.8468094,3.5340106,-8.870409,2.2353978,-0.054930106,0.024700237,0.05191617,0.038570873,-0.43554,0.06990266
461,-2.692783,2.7246435,0.8468094,3.5340106,-8.870409,2.2353978,-0.054930106,0.024700237,0.05191617,0.038570873,-0.43554,0.06990266
462,-2.692783,2.7246435,0.8468094,3.5340106,-8.870409,2.2353978,-0.054930106,0.024700237,0.05191617,0.038570873,-0.43554,0.06990266
463,-2.6848783,2.723558,0.83401984,3.5477962,-8.889297,2.1363363,-0.012815889,0.0048919264,0.03508347,-0.053253666,1.6833909,0.013433805
464,-2.6848783,2.723558,0.83401984,3.5477962,-8.889297,2.1363363,-0.012815889,0.0048919264,0.03508347,-0.053253666,1.6833909,0.013433805
465,-2.6848783,2.723558,0.83401984,3.5477962,-8.889297,2.1363363,-0.012815889,0.0048919264,0.03508347,-0.053253666,1.6833909,0.013433805
466,-2.6848783,2.723558,0.83401984,3.5477962,-8.889297,2.1363363,-0.012815889,0.0048919264,0.03508347,-0.053253666,1.6833909,0.013433805
467,-2.6848783,2.723558,0.83401984,3.5477962,-8.889297,2.1363363,-0.012815889,0.0048919264,0.03508347,-0.053253666,1.6833909,0.013433805
468,-2.6848783,2.723558,0.83401984,3.5477962,-8.889297,2.1363363,-0.012815889,0.0048919264,0.03508347,-0.053253666,1.6833909,0.013433805
469,-2.6848783,2.723558,0.83401984,3.57206,-8.893527,2.0774865,0.02867659,-0.02533475,-0.003987,0.4588109,-0.7468728,0.29346973
470,-2.6848783,2.723558,0.83401984,3.57206,-8.893527,2.0774865,0.02867659,-0.02533475,-0.003987,0.4588109,-0.7468728,0.29346973
471,-2.6848783,2.723558,0.83401984,3.57206,-8.893527,2.0774865,0.02867659,-0.02533475,-0.003987,0.4588109,-0.7468728,0.29346973
472,-2.6848783,2.723558,0.83401984,3.57206,-8.893527,2.0774865,0.02867659,-0.02533475,-0.003987,0.4588109,-0.7468728,0.29346973
473,-2.6848783,2.723558,0.83401984,3.57206,-8.893527,2.0774865,0.02867659,-0.02533475,-0.003987,0.4588109,-0.7468728,0.29346973
474,-2.6848783,2.723558,0.83401984,3.57206,-8.893527,2.0774865,0.02867659,-0.02533475,-0.003987,0.4588109,-0.7468728,0.29346973
475,-2.672406,2.717165,0.8223554,3.6057577,-8.889164,2.0375612,0.06819101,-0.049064055,-0.031044304,0.1342332,0.8467766,-0.27339575
476,-2.672406,2.717165,0.8223554,3.6057577,-8.889164,2.0375612,0.06819101,-0.049064055,-0.031044304,0.1342332,0.8467766,-0.27339575
477,-2.672406,2.717165,0.8223554,3.6057577,-8.889164,2.0375612,0.06819101,-0.049064055,-0.031044304,0.1342332,0.8467766,-0.27339575
478,-2.672406,2.717165,0.8223554,3.6057577,-8.889164,2.0375612,0.06819101,-0.049064055,-0.031044304,0.1342332,0.8467766,-0.27339575
479,-2.672406,2.717165,0.8223554,3.6057577,-8.889164,2.0375612,0.06819101,-0.049064055,-0.031044304,0.1342332,0.8467766,-0.27339575
480,-2.672406,2.717165,0.8223554,3.6057577,-8.889164,2.0375612,0.06819101,-0.049064055,-0.031044304,0.1342332,0.8467766,-0.27339575
481,-2.672406,2.717165,0.8223554,3.6692643,-8.867946,2.0165365,0.10101748,-0.06596276,-0.04710196,0.15193349,-0.24394813,-0.47810626
482,-2.672406,2.717165,0.8223554,3.6692643,-8.867946,2.0165365,0.10101748,-0.06596276,-0.04710196,0.15193349,-0.24394813,-0.47810626
483,-2.672406,2.717165,0.8223554,3.6692643,-8.867946,2.0165365,0.10101748,-0.06596276,-0.04710196,0.15193349,-0.24394813,-0.47810626
484,-2.672406,2.717165,0.8223554,3.6692643,-8.867946,2.0165365,0.10101748,-0.06596276,-0.04710196,0.15193349,-0.24394813,-0.47810626
485,-2.672406,2.717165,0.8223554,3.6692643,-8.867946,2.0165365,0.10101748,-0.06596276,-0.04710196,0.15193349,-0.24394813,-0.47810626
486,-2.672406,2.717165,0.8223554,3.6692643,-8.867946,2.0165365,0.10101748,-0.06596276,-0.04710196,0.15193349,-0.24394813,-0.47810626
487,-2.6591327,2.7040982,0.8254433,3.7193537,-8.845513,2.023286,0.13134104,-0.086221404,-0.06424233,-0.19196218,1.07283,-0.7605245
488,-2.6591327,2.7040982,0.8254433,3.7193537,-8.845513,2.023286,0.13134104,-0.086221404,-0.06424233,-0.19196218,1.07283,-0.7605245
489,-2.6591327,2.7040982,0.8254433,3.7193537,-8.845513,2.023286,0.13134104,-0.086221404,-0.06424233,-0.19196218,1.07283,-0.7605245
490,-2.6591327,2.7040982,0.8254433,3.7193537,-8.845513,2.023286,0.13134104,-0.086221404,-0.06424233,-0.19196218,1.07283,-0.7605245
491,-2.6591327,2.7040982,0.8254433,3.7193537,-8.845513,2.023286,0.13134104,-0.086221404,-0.06424233,-0.19196218,1.07283,-0.7605245
492,-2.6591327,2.7040982,0.8254433,3.7193537,-8.845513,2.023286,0.13134104,-0.086221404,-0.06424233,-0.19196218,1.07283,-0.7605245
493,-2.6569772,2.6980553,0.8315254,3.766347,-8.8176155,2.0578299,0.16589327,-0.106671676,-0.07174471,0.7504955,-0.81332797,0.03374173
494,-2.6569772,2.6980553,0.8315254,3.766347,-8.8176155,2.0578299,0.16589327,-0.106671676,-0.07174471,0.7504955,-0.81332797,0.03374173
495,-2.6569772,2.6980553,0.8315254,3.766347,-8.8176155,2.0578299,0.16589327,-0.106671676,-0.07174471,0.7504955,-0.81332797,0.03374173
496,-2.6569772,2.6980553,0.8315254,3.766347,-8.8176155,2.0578299,0.16589327,-0.106671676,-0.07174471,0.7504955,-0.81332797,0.03374173
497,-2.6569772,2.6980553,0.8315254,3.766347,-8.8176155,2.0578299,0.16589327,-0.106671676,-0.07174471,0.7504955,-0.81332797,0.03374173
498,-2.6569772,2.6980553,0.8315254,3.766347,-8.8176155,2.0578299,0.16589327,-0.106671676,-0.07174471,0.7504955,-0.81332797,0.03374173
499,-2.6626995,2.6929796,0.84074265,3.7904074,-8.786747,2.1438918,0.20128867,-0.10936943,-0.05121139,-0.11491884,1.0241517,-0.25572315
500,-2.6626995,2.6929796,0.84074265,3.7904074,-8.786747,2.1438918,0.20128867,-0.10936943,-0.05121139,-0.11491884,1.0241517,-0.25572315
501,-2.6626995,2.6929796,0.84074265,3.7904074,-8.786747,2.1438918,0.20128867,-0.10936943,-0.05121139,-0.11491884,1.0241517,-0.25572315
502,-2.6626995,2.6929796,0.84074265,3.7904074,-8.786747,2.1438918,0.20128867,-0.10936943,-0.05121139,-0.11491884,1.0241517,-0.25572315
503,-2.6626995,2.6929796,0.84074265,3.7904074,-8.786747,2.1438918,0.20128867,-0.10936943,-0.05121139,-0.11491884,1.0241517,-0.25572315
504,-2.6626995,2.6929796,0.84074265,3.7904074,-8.786747,2.1438918,0.20128867,-0.10936943,-0.05121139,-0.11491884,1.0241517,-0.25572315
505,-2.6667538,2.6821191,0.8520494,3.8559628,-8.732383,2.2466502,0.22437707,-0.08941313,-0.011014553,0.19000138,-0.35752705,-0.39949235
506,-2.6667538,2.6821191,0.8520494,3.8559628,-8.732383,2.2466502,0.22437707,-0.08941313,-0.011014553,0.19000138,-0.35752705,-0.39949235
507,-2.6667538,2.6821191,0.8520494,3.8559628,-8.732383,2.2466502,0.22437707,-0.08941313,-0.011014553,0.19000138,-0.35752705,-0.39949235
508,-2.6667538,2.6821191,0.8520494,3.8559628,-8.732383,2.2466502,0.22437707,-0.08941313,-0.011014553,0.19000138,-0.35752705,-0.39949235
509,-2.6667538,2.6821191,0.8520494,3.8559628,-8.732383,2.2466502,0.22437707,-0.08941313,-0.011014553,0.19000138,-0.35752705,-0.39949235
510,-2.6667538,2.6821191,0.8520494,3.8559628,-8.732383,2.2466502,0.22437707,-0.08941313,-0.011014553,0.19000138,-0.35752705,-0.39949235
511,-2.6717145,2.67419,0.86141086,3.9007657,-8.68857,2.3373418,0.22555454,-0.06491091,0.018158149,-0.19250607,1.1229963,-0.5893981
512,-2.6717145,2.67419,0.86141086,3.9007657,-8.68857,2.3373418,0.22555454,-0.06491091,0.018158149,-0.19250607,1.1229963,-0.5893981
513,-2.6717145,2.67419,0.86141086,3.9007657,-8.68857,2.3373418,0.22555454,-0.06491091,0.018158149,-0.19250607,1.1229963,-0.5893981
514,-2.6717145,2.67419,0.86141086,3.9007657,-8.68857,2.3373418,0.22555454,-0.06491091,0.018158149,-0.19250607,1.1229963,-0.5893981
515,-2.6717145,2.67419,0.86141086,3.9007657,-8.68857,2.3373418,0.22555454,-0.06491091,0.018158149,-0.19250607,1.1229963,-0.5893981
516,-2.6717145,2.67419,0.86141086,3.9007657,-8.68857,2.3373418,0.22555454,-0.06491091,0.018158149,-0.19250607,1.1229963,-0.5893981
517,-2.6854248,2.6694276,0.87099826,3.9054687,-8.65088,2.4657602,0.20025173,-0.047368113,0.021616034,0.59334904,-0.7328766,0.26227257
518,-2.6854248,2.6694276,0.87099826,3.9054687,-8.65088,2.4657602,0.20025173,-0.047368113,0.021616034,0.59334904,-0.7328766,0.26227257
519,-2.6854248,2.6694276,0.87099826,3.9054687,-8.65088,2.4657602,0.20025173,-0.047368113,0.021616034,0.59334904,-0.7328766,0.26227257
520,-2.6854248,2.6694276,0.87099826,3.9054687,-8.65088,2.4657602,0.20025173,-0.047368113,0.021616034,0.59334904,-0.7328766,0.26227257
521,-2.6854248,2.6694276,0.87099826,3.9054687,-8.65088,2.4657602,0.20025173,-0.047368113,0.021616034,0.59334904,-0.7328766,0.26227257
522,-2.6854248,2.6694276,0.87099826,3.9054687,-8.65088,2.4657602,0.20025173,-0.047368113,0.021616034,0.59334904,-0.7328766,0.26227257
523,-2.696647,2.665457,0.87854844,3.9104226,-8.618179,2.5702074,0.14527585,-0.029185478,0.0075832848,-0.19835529,1.0642762,-1.1001456
524,-2.696647,2.665457,0.87854844,3.9104226,-8.618179,2.5702074,0.14527585,-0.029185478,0.0075832848,-0.19835529,1.0642762,-1.1001456
525,-2.696647,2.665457,0.87854844,3.9104226,-8.618179,2.5702074,0.14527585,-0.029185478,0.0075832848,-0.19835529,1.0642762,-1.1001456
526,-2.696647,2.665457,0.87854844,3.9104226,-8.618179,2.5702074,0.14527585,-0.029185478,0.0075832848,-0.19835529,1.0642762,-1.1001456
527,-2.696647,2.665457,0.87854844,3.9104226,-8.618179,2.5702074,0.14527585,-0.029185478,0.0075832848,-0.19835529,1.0642762,-1.1001456
528,-2.696647,2.665457,0.87854844,3.9104226,-8.618179,2.5702074,0.14527585,-0.029185478,0.0075832848,-0.19835529,1.0642762,-1.1001456
529,-2.7069373,2.6548858,0.8869989,3.95915,-8.560034,2.687256,0.07446375,-0.010784595,-0.012960678,0.42261192,-0.51763195,-0.47709504
530,-2.7069373,2.6548858,0.8869989,3.95915,-8.560034,2.687256,0.07446375,-0.010784595,-0.012960678,0.42261192,-0.51763195,-0.47709504
531,-2.7069373,2.6548858,0.8869989,3.95915,-8.560034,2.687256,0.07446375,-0.010784595,-0.012960678,0.42261192,-0.51763195,-0.47709504
532,-2.7069373,2.6548858,0.8869989,3.95915,-8.560034,2.687256,0.07446375,-0.010784595,-0.012960678,0.42261192,-0.51763195,-0.47709504
533,-2.7069373,2.6548858,0.8869989,3.95915,-8.560034,2.687256,0.07446375,-0.010784595,-0.012960678,0.42261192,-0.51763195,-0.47709504
534,-2.7069373,2.6548858,0.8869989,3.95915,-8.560034,2.687256,0.07446375,-0.010784595,-0.012960678,0.42261192,-0.51763195,-0.47709504
535,-2.7104013,2.6451764,0.8930198,4.0172515,-8.51131,2.7549407,0.024372334,-0.018167732,-0.0401287,-0.23432443,1.2323431,-0.100693084
536,-2.7104013,2.6451764,0.8930198,4.0172515,-8.51131,2.7549407,0.024372334,-0.018167732,-0.0401287,-0.23432443,1.2323431,-0.100693084
537,-2.7104013,2.6451764,0.8930198,4.0172515,-8.51131,2.7549407,0.024372334,-0.018167732,-0.0401287,-0.23432443,1.2323431,-0.100693084
538,-2.7104013,2.6451764,0.8930198,4.0172515,-8.51131,2.7549407,0.024372334,-0.018167732,-0.0401287,-0.23432443,1.2323431,-0.100693084
539,-2.7104013,2.6451764,0.8930198,4.0172515,-8.51131,2.7549407,0.024372334,-0.018167732,-0.0401287,-0.23432443,1.2323431,-0.100693084
540,-2.7104013,2.6451764,0.8930198,4.0172515,-8.51131,2.7549407,0.024372334,-0.018167732,-0.0401287,-0.23432443,1.2323431,-0.100693084
541,-2.7208822,2.6347494,0.89922863,4.063125,-8.455786,2.8567622,0.021257257,-0.0656125,-0.07012542,0.6152774,-0.4694204,0.3558226
542,-2.7208822,2.6347494,0.89922863,4.063125,-8.455786,2.8567622,0.021257257,-0.0656125,-0.07012542,0.6152774,-0.4694204,0.3558226
543,-2.7208822,2.6347494,0.89922863,4.063125,-8.455786,2.8567622,0.021257257,-0.0656125,-0.07012542,0.6152774,-0.4694204,0.3558226
544,-2.7208822,2.6347494,0.89922863,4.063125,-8.455786,2.8567622,0.021257257,-0.0656125,-0.07012542,0.6152774,-0.4694204,0.3558226
545,-2.7208822,2.6347494,0.89922863,4.063125,-8.455786,2.8567622,0.021257257,-0.0656125,-0.07012542,0.6152774,-0.4694204,0.3558226
546,-2.7208822,2.6347494,0.89922863,4.063125,-8.455786,2.8567622,0.021257257,-0.0656125,-0.07012542,0.6152774,-0.4694204,0.3558226
547,-2.72023,2.6241467,0.9035099,4.135416,-8.408429,2.892585,0.050201066,-0.123800345,-0.087434,-0.5463869,1.2330681,1.0950623
548,-2.72023,2.6241467,0.9035099,4.135416,-8.408429,2.892585,0.050201066,-0.123800345,-0.087434,-0.5463869,1.2330681,1.0950623
549,-2.72023,2.6241467,0.9035099,4.135416,-8.408429,2.892585,0.050201066,-0.123800345,-0.087434,-0.5463869,1.2330681,1.0950623
550,-2.72023,2.6241467,0.9035099,4.135416,-8.408429,2.892585,0.050201066,-0.123800345,-0.087434,-0.5463869,1.2330681,1.0950623
551,-2.72023,2.6241467,0.9035099,4.135416,-8.408429,2.892585,0.050201066,-0.123800345,-0.087434,-0.5463869,1.2330681,1.0950623
552,-2.72023,2.6241467,0.9035099,4.135416,-8.408429,2.892585,0.050201066,-0.123800345,-0.087434,-0.5463869,1.2330681,1.0950623
553,-2.7225273,2.6102989,0.9083919,4.2216682,-8.346474,2.9469101,0.06299673,-0.14022316,-0.08257402,0.4161804,-0.4211808,0.7916237
554,-2.7225273,2.6102989,0.9083919,4.2216682,-8.346474,2.9469101,0.06299673,-0.14022316,-0.08257402,0.4161804,-0.4211808,0.7916237
555,-2.7225273,2.6102989,0.9083919,4.2216682,-8.346474,2.9469101,0.06299673,-0.14022316,-0.08257402,0.4161804,-0.4211808,0.7916237
556,-2.7225273,2.6102989,0.9083919,4.2216682,-8.346474,2.9469101,0.06299673,-0.14022316,-0.08257402,0.4161804,-0.4211808,0.7916237
557,-2.7225273,2.6102989,0.9083919,4.2216682,-8.346474,2.9469101,0.06299673,-0.14022316,-0.08257402,0.4161804,-0.4211808,0.7916237
558,-2.7225273,2.6102989,0.9083919,4.2216682,-8.346474,2.9469101,0.06299673,-0.14022316,-0.08257402,0.4161804,-0.4211808,0.7916237
559,-2.7307596,2.5928116,0.913606,4.3166375,-8.267975,3.029458,0.042270716,-0.10431461,-0.063137256,0.24037787,0.9144916,-0.5042026
560,-2.7307596,2.5928116,0.913606,4.3166375,-8.267975,3.029458,0.042270716,-0.10431461,-0.063137256,0.24037787,0.9144916,-0.5042026
561,-2.7307596,2.5928116,0.913606,4.3166375,-8.267975,3.029458,0.042270716,-0.10431461,-0.063137256,0.24037787,0.9144916,-0.5042026
562,-2.7307596,2.5928116,0.913606,4.3166375,-8.267975,3.029458,0.042270716,-0.10431461,-0.063137256,0.24037787,0.9144916,-0.5042026
563,-2.7307596,2.5928116,0.913606,4.3166375,-8.267975,3.029458,0.042270716,-0.10431461,-0.063137256,0.24037787,0.9144916,-0.5042026
564,-2.7307596,2.5928116,0.913606,4.3166375,-8.267975,3.029458,0.042270716,-0.10431461,-0.063137256,0.24037787,0.9144916,-0.5042026
565,-2.7303557,2.5862324,0.917134,4.364865,-8.23366,3.0537174,0.011574543,-0.047087055,-0.03981251,0.09495487,-0.1949107,0.12500891
566,-2.7303557,2.5862324,0.917134,4.364865,-8.23366,3.0537174,0.011574543,-0.047087055,-0.03981251,0.09495487,-0.1949107,0.12500891
567,-2.7303557,2.5862324,0.917134,4.364865,-8.23366,3.0537174,0.011574543,-0.047087055,-0.03981251,0.09495487,-0.1949107,0.12500891
568,-2.7303557,2.5862324,0.917134,4.364865,-8.23366,3.0537174,0.011574543,-0.047087055,-0.03981251,0.09495487,-0.1949107,0.12500891
569,-2.7303557,2.5862324,0.917134,4.364865,-8.23366,3.0537174,0.011574543,-0.047087055,-0.03981251,0.09495487,-0.1949107,0.12500891
570,-2.7303557,2.5862324,0.917134,4.364865,-8.23366,3.0537174,0.011574543,-0.047087055,-0.03981251,0.09495487,-0.1949107,0.12500891
571,-2.7424157,2.5762825,0.92205465,4.405354,-8.177311,3.145605,-0.0074129454,0.004067911,-0.016532475,-0.5442522,0.2979712,-1.2591902
572,-2.7424157,2.5762825,0.92205465,4.405354,-8.177311,3.145605,-0.0074129454,0.004067911,-0.016532475,-0.5442522,0.2979712,-1.2591902
573,-2.7424157,2.5762825,0.92205465,4.405354,-8.177311,3.145605,-0.0074129454,0.004067911,-0.016532475,-0.5442522,0.2979712,-1.2591902
574,-2.7424157,2.5762825,0.92205465,4.405354,-8.177311,3.145605,-0.0074129454,0.004067911,-0.016532475,-0.5442522,0.2979712,-1.2591902
575,-2.7424157,2.5762825,0.92205465,4.405354,-8.177311,3.145605,-0.0074129454,0.004067911,-0.016532475,-0.5442522,0.2979712,-1.2591902
576,-2.7424157,2.5762825,0.92205465,4.405354,-8.177311,3.145605,-0.0074129454,0.004067911,-0.016532475,-0.5442522,0.2979712,-1.2591902
577,-2.7424157,2.5762825,0.92205465,4.393364,-8.167514,3.1875496,-0.015004747,0.043597233,0.0053624883,-0.363896,-0.56255156,-1.2666293
578,-2.7424157,2.5762825,0.92205465,4.393364,-8.167514,3.1875496,-0.015004747,0.043597233,0.0053624883,-0.363896,-0.56255156,-1.2666293
579,-2.7424157,2.5762825,0.92205465,4.393364,-8.167514,3.1875496,-0.015004747,0.043597233,0.0053624883,-0.363896,-0.56255156,-1.2666293
580,-2.7424157,2.5762825,0.92205465,4.393364,-8.167514,3.1875496,-0.015004747,0.043597233,0.0053624883,-0.363896,-0.56255156,-1.2666293
581,-2.7424157,2.5762825,0.92205465,4.393364,-8.167514,3.1875496,-0.015004747,0.043597233,0.0053624883,-0.363896,-0.56255156,-1.2666293
582,-2.7424157,2.5762825,0.92205465,4.393364,-8.167514,3.1875496,-0.015004747,0.043597233,0.0053624883,-0.363896,-0.56255156,-1.2666293
583,-2.7630372,2.5783894,0.93292814,4.3642397,-8.130011,3.3206522,-0.012028071,0.06629066,0.02185238,0.16615582,0.3745457,-0.3334542
584,-2.7630372,2.5783894,0.93292814,4.3642397,-8.130011,3.3206522,-0.012028071,0.06629066,0.02185238,0.16615582,0.3745457,-0.3334542
585,-2.7630372,2.5783894,0.93292814,4.3642397,-8.130011,3.3206522,-0.012028071,0.06629066,0.02185238,0.16615582,0.3745457,-0.3334542
586,-2.7630372,2.5783894,0.93292814,4.3642397,-8.130011,3.3206522,-0.012028071,0.06629066,0.02185238,0.16615582,0.3745457,-0.3334542
587,-2.7630372,2.5783894,0.93292814,4.3642397,-8.130011,3.3206522,-0.012028071,0.06629066,0.02185238,0.16615582,0.3745457,-0.3334542
588,-2.7630372,2.5783894,0.93292814,4.3642397,-8.130011,3.3206522,-0.012028071,0.06629066,0.02185238,0.16615582,0.3745457,-0.3334542
589,-2.775718,2.5817916,0.9397611,4.3273187,-8.104068,3.4305649,-0.0038315656,0.07422953,0.030018011,0.23902611,-0.26223934,0.32547745
590,-2.775718,2.5817916,0.9397611,4.3273187,-8.104068,3.4305649,-0.0038315656,0.07422953,0.030018011,0.23902611,-0.26223934,0.32547745
591,-2.775718,2.5817916,0.9397611,4.3273187,-8.104068,3.4305649,-0.0038315656,0.07422953,0.030018011,0.23902611,-0.26223934,0.32547745
592,-2.775718,2.5817916,0.9397611,4.3273187,-8.104068,3.4305649,-0.0038315656,0.07422953,0.030018011,0.23902611,-0.26223934,0.32547745
593,-2.775718,2.5817916,0.9397611,4.3273187,-8.104068,3.4305649,-0.0038315656,0.07422953,0.030018011,0.23902611,-0.26223934,0.32547745
594,-2.775718,2.5817916,0.9397611,4.3273187,-8.104068,3.4305649,-0.0038315656,0.07422953,0.030018011,0.23902611,-0.26223934,0.32547745
595,-2.7860281,2.5851212,0.94822896,4.3007884,-8.069849,3.5427628,-0.022045076,0.0939729,0.029099245,-0.14831224,1.5033408,0.2568638
596,-2.7860281,2.5851212,0.94822896,4.3007884,-8.069849,3.5427628,-0.022045076,0.0939729,0.029099245,-0.14831224,1.5033408,0.2568638
597,-2.7860281,2.5851212,0.94822896,4.3007884,-8.069849,3.5427628,-0.022045076,0.0939729,0.029099245,-0.14831224,1.5033408,0.2568638
598,-2.7860281,2.5851212,0.94822896,4.3007884,-8.069849,3.5427628,-0.022045076,0.0939729,0.029099245,-0.14831224,1.5033408,0.2568638
599,-2.7860281,2.5851212,0.94822896,4.3007884,-8.069849,3.5427628,-0.022045076,0.0939729,0.029099245,-0.14831224,1.5033408,0.2568638
600,-2.7860281,2.5851212,0.94822896,4.3007884,-8.069849,3.5427628,-0.022045076,0.0939729,0.029099245,-0.14831224,1.5033408,0.2568638
601,-2.7998521,2.586582,0.95820993,4.2817254,-8.015831,3.685604,-0.075482585,0.12893607,0.014990907,-0.49486405,-0.32011637,0.39052445
602,-2.7998521,2.586582,0.95820993,4.2817254,-8.015831,3.685604,-0.075482585,0.12893607,0.014990907,-0.49486405,-0.32011637,0.39052445
603,-2.7998521,2.586582,0.95820993,4.2817254,-8.015831,3.685604,-0.075482585,0.12893607,0.014990907,-0.49486405,-0.32011637,0.39052445
604,-2.7998521,2.586582,0.95820993,4.2817254,-8.015831,3.685604,-0.075482585,0.12893607,0.014990907,-0.49486405,-0.32011637,0.39052445
605,-2.7998521,2.586582,0.95820993,4.2817254,-8.015831,3.685604,-0.075482585,0.12893607,0.014990907,-0.49486405,-0.32011637,0.39052445
606,-2.7998521,2.586582,0.95820993,4.2817254,-8.015831,3.685604,-0.075482585,0.12893607,0.014990907,-0.49486405,-0.32011637,0.39052445
607,-2.7957997,2.604071,0.97128725,4.2093067,-8.01944,3.7604156,-0.13943002,0.16468386,-0.009953127,-0.100528255,0.43950948,0.16092701
608,-2.7957997,2.604071,0.97128725,4.2093067,-8.01944,3.7604156,-0.13943002,0.16468386,-0.009953127,-0.100528255,0.43950948,0.16092701
609,-2.7957997,2.604071,0.97128725,4.2093067,-8.01944,3.7604156,-0.13943002,0.16468386,-0.009953127,-0.100528255,0.43950948,0.16092701
610,-2.7957997,2.604071,0.97128725,4.2093067,-8.01944,3.7604156,-0.13943002,0.16468386,-0.009953127,-0.100528255,0.43950948,0.16092701
611,-2.7957997,2.604071,0.97128725,4.2093067,-8.01944,3.7604156,-0.13943002,0.16468386,-0.009953127,-0.100528255,0.43950948,0.16092701
612,-2.7957997,2.604071,0.97128725,4.2093067,-8.01944,3.7604156,-0.13943002,0.16468386,-0.009953127,-0.100528255,0.43950948,0.16092701
613,-2.793547,2.6130586,0.9854196,4.186147,-7.986553,3.8550673,-0.18487543,0.1956004,-0.028067628,0.01865138,0.015761971,0.2804012
614,-2.793547,2.6130586,0.9854196,4.186147,-7.986553,3.8550673,-0.18487543,0.1956004,-0.028067628,0.01865138,0.015761971,0.2804012
615,-2.793547,2.6130586,0.9854196,4.186147,-7.986553,3.8550673,-0.18487543,0.1956004,-0.028067628,0.01865138,0.015761971,0.2804012
616,-2.793547,2.6130586,0.9854196,4.186147,-7.986553,3.8550673,-0.18487543,0.1956004,-0.028067628,0.01865138,0.015761971,0.2804012
617,-2.793547,2.6130586,0.9854196,4.186147,-7.986553,3.8550673,-0.18487543,0.1956004,-0.028067628,0.01865138,0.015761971,0.2804012
618,-2.793547,2.6130586,0.9854196,4.186147,-7.986553,3.8550673,-0.18487543,0.1956004,-0.028067628,0.01865138,0.015761971,0.2804012
619,-2.7921023,2.6200707,1.0005249,4.17414,-7.939394,3.9639592,-0.20674378,0.22951387,-0.017174441,0.07844168,-0.46217573,0.18704486
620,-2.7921023,2.6200707,1.0005249,4.17414,-7.939394,3.9639592,-0.20674378,0.22951387,-0.017174441,0.07844168,-0.46217573,0.18704486
621,-2.7921023,2.6200707,1.0005249,4.17414,-7.939394,3.9639592,-0.20674378,0.22951387,-0.017174441,0.07844168,-0.46217573,0.18704486
622,-2.7921023,2.6200707,1.0005249,4.17414,-7.939394,3.9639592,-0.20674378,0.22951387,-0.017174441,0.07844168,-0.46217573,0.18704486
623,-2.7921023,2.6200707,1.0005249,4.17414,-7.939394,3.9639592,-0.20674378,0.22951387,-0.017174441,0.07844168,-0.46217573,0.18704486
624,-2.7921023,2.6200707,1.0005249,4.17414,-7.939394,3.9639592,-0.20674378,0.22951387,-0.017174441,0.07844168,-0.46217573,0.18704486
625,-2.7854776,2.6305428,1.0171341,4.150933,-7.9061375,4.0537806,-0.21181457,0.25789982,0.019807246,0.6481458,0.5774807,0.26063204
626,-2.7854776,2.6305428,1.0171341,4.150933,-7.9061375,4.0537806,-0.21181457,0.25789982,0.019807246,0.6481458,0.5774807,0.26063204
627,-2.7854776,2.6305428,1.0171341,4.150933,-7.9061375,4.0537806,-0.21181457,0.25789982,0.019807246,0.6481458,0.5774807,0.26063204
628,-2.7854776,2.6305428,1.0171341,4.150933,-7.9061375,4.0537806,-0.21181457,0.25789982,0.019807246,0.6481458,0.5774807,0.26063204
629,-2.7854776,2.6305428,1.0171341,4.150933,-7.9061375,4.0537806,-0.21181457,0.25789982,0.019807246,0.6481458,0.5774807,0.26063204
630,-2.7854776,2.6305428,1.0171341,4.150933,-7.9061375,4.0537806,-0.21181457,0.25789982,0.019807246,0.6481458,0.5774807,0.26063204
631,-2.776843,2.6443048,1.0342635,4.106912,-7.891122,4.127211,-0.19355102,0.24889633,0.05020213,-0.06264269,-0.0037969556,0.5878321
632,-2.776843,2.6443048,1.0342635,4.106912,-7.891122,4.127211,-0.19355102,0.24889633,0.05020213,-0.06264269,-0.0037969556,0.5878321
633,-2.776843,2.6443048,1.0342635,4.106912,-7.891122,4.127211,-0.19355102,0.24889633,0.05020213,-0.06264269,-0.0037969556,0.5878321
634,-2.776843,2.6443048,1.0342635,4.106912,-7.891122,4.127211,-0.19355102,0.24889633,0.05020213,-0.06264269,-0.0037969556,0.5878321
635,-2.776843,2.6443048,1.0342635,4.106912,-7.891122,4.127211,-0.19355102,0.24889633,0.05020213,-0.06264269,-0.0037969556,0.5878321
636,-2.776843,2.6443048,1.0342635,4.106912,-7.891122,4.127211,-0.19355102,0.24889633,0.05020213,-0.06264269,-0.0037969556,0.5878321
637,-2.7713778,2.6557188,1.0494912,4.0654254,-7.8735867,4.2011104,-0.15018906,0.19526505,0.052451674,0.13520753,-0.37492868,0.36839202
638,-2.7713778,2.6557188,1.0494912,4.0654254,-7.8735867,4.2011104,-0.15018906,0.19526505,0.052451674,0.13520753,-0.37492868,0.36839202
639,-2.7713778,2.6557188,1.0494912,4.0654254,-7.8735867,4.2011104,-0.15018906,0.19526505,0.052451674,0.13520753,-0.37492868,0.36839202
640,-2.7713778,2.6557188,1.0494912,4.0654254,-7.8735867,4.2011104,-0.15018906,0.19526505,0.052451674,0.13520753,-0.37492868,0.36839202
641,-2.7713778,2.6557188,1.0494912,4.0654254,-7.8735867,4.2011104,-0.15018906,0.19526505,0.052451674,0.13520753,-0.37492868,0.36839202
642,-2.7713778,2.6557188,1.0494912,4.0654254,-7.8735867,4.2011104,-0.15018906,0.19526505,0.052451674,0.13520753,-0.37492868,0.36839202
643,-2.771425,2.660324,1.0609176,4.0523534,-7.8323917,4.28981,-0.08334267,0.11495974,0.040145736,-0.20341186,-0.21648532,0.16461603
644,-2.771425,2.660324,1.0609176,4.0523534,-7.8323917,4.28981,-0.08334267,0.11495974,0.040145736,-0.20341186,-0.21648532,0.16461603
645,-2.771425,2.660324,1.0609176,4.0523534,-7.8323917,4.28981,-0.08334267,0.11495974,0.040145736,-0.20341186,-0.21648532,0.16461603
646,-2.771425,2.660324,1.0609176,4.0523534,-7.8323917,4.28981,-0.08334267,0.11495974,0.040145736,-0.20341186,-0.21648532,0.16461603
647,-2.771425,2.660324,1.0609176,4.0523534,-7.8323917,4.28981,-0.08334267,0.11495974,0.040145736,-0.20341186,-0.21648532,0.16461603
648,-2.771425,2.660324,1.0609176,4.0523534,-7.8323917,4.28981,-0.08334267,0.11495974,0.040145736,-0.20341186,-0.21648532,0.16461603
649,-2.771425,2.660324,1.0609176,4.027859,-7.8163047,4.3419023,0.0037059404,0.02910989,0.036716595,0.30075377,-0.114293925,0.14307986
650,-2.771425,2.660324,1.0609176,4.027859,-7.8163047,4.3419023,0.0037059404,0.02910989,0.036716595,0.30075377,-0.114293925,0.14307986
651,-2.771425,2.660324,1.0609176,4.027859,-7.8163047,4.3419023,0.0037059404,0.02910989,0.036716595,0.30075377,-0.114293925,0.14307986
652,-2.771425,2.660324,1.0609176,4.027859,-7.8163047,4.3419023,0.0037059404,0.02910989,0.036716595,0.30075377,-0.114293925,0.14307986
653,-2.771425,2.660324,1.0609176,4.027859,-7.8163047,4.3419023,0.0037059404,0.02910989,0.036716595,0.30075377,-0.114293925,0.14307986
654,-2.771425,2.660324,1.0609176,4.027859,-7.8163047,4.3419023,0.0037059404,0.02910989,0.036716595,0.30075377,-0.114293925,0.14307986
655,-2.7603562,2.6777768,1.0803467,3.979358,-7.842233,4.3398705,0.07693579,-0.036324818,0.042031176,-0.42074195,-0.29509866,0.1721596
656,-2.7603562,2.6777768,1.0803467,3.979358,-7.842233,4.3398705,0.07693579,-0.036324818,0.042031176,-0.42074195,-0.29509866,0.1721596
657,-2.7603562,2.6777768,1.0803467,3.979358,-7.842233,4.3398705,0.07693579,-0.036324818,0.042031176,-0.42074195,-0.29509866,0.1721596
658,-2.7603562,2.6777768,1.0803467,3.979358,-7.842233,4.3398705,0.07693579,-0.036324818,0.042031176,-0.42074195,-0.29509866,0.1721596
659,-2.7603562,2.6777768,1.0803467,3.979358,-7.842233,4.3398705,0.07693579,-0.036324818,0.042031176,-0.42074195,-0.29509866,0.1721596
660,-2.7603562,2.6777768,1.0803467,3.979358,-7.842233,4.3398705,0.07693579,-0.036324818,0.042031176,-0.42074195,-0.29509866,0.1721596
661,-2.755261,2.6894846,1.0873258,3.914031,-7.884341,4.3229527,0.08613836,-0.05882768,0.040482156,-0.3039082,0.60557264,1.1456871
662,-2.755261,2.6894846,1.0873258,3.914031,-7.884341,4.3229527,0.08613836,-0.05882768,0.040482156,-0.3039082,0.60557264,1.1456871
663,-2.755261,2.6894846,1.0873258,3.914031,-7.884341,4.3229527,0.08613836,-0.05882768,0.040482156,-0.3039082,0.60557264,1.1456871
664,-2.755261,2.6894846,1.0873258,3.914031,-7.884341,4.3229527,0.08613836,-0.05882768,0.040482156,-0.3039082,0.60557264,1.1456871
665,-2.755261,2.6894846,1.0873258,3.914031,-7.884341,4.3229527,0.08613836,-0.05882768,0.040482156,-0.3039082,0.60557264,1.1456871
666,-2.755261,2.6894846,1.0873258,3.914031,-7.884341,4.3229527,0.08613836,-0.05882768,0.040482156,-0.3039082,0.60557264,1.1456871
667,-2.7489722,2.6977403,1.0919896,3.871248,-7.92518,4.2866483,0.024445793,-0.041254006,0.026843315,-0.20137239,0.022506276,0.37955207
668,-2.7489722,2.6977403,1.0919896,3.871248,-7.92518,4.2866483,0.024445793,-0.041254006,0.026843315,-0.20137239,0.022506276,0.37955207
669,-2.7489722,2.6977403,1.0919896,3.871248,-7.92518,4.2866483,0.024445793,-0.041254006,0.026843315,-0.20137239,0.022506276,0.37955207
670,-2.7489722,2.6977403,1.0919896,3.871248,-7.92518,4.2866483,0.024445793,-0.041254006,0.026843315,-0.20137239,0.022506276,0.37955207
671,-2.7489722,2.6977403,1.0919896,3.871248,-7.92518,4.2866483,0.024445793,-0.041254006,0.026843315,-0.20137239,0.022506276,0.37955207
672,-2.7489722,2.6977403,1.0919896,3.871248,-7.92518,4.2866483,0.024445793,-0.041254006,0.026843315,-0.20137239,0.022506276,0.37955207
673,-2.7397883,2.7052557,1.0957477,3.8367264,-7.97649,4.2220287,-0.050158482,-0.015133566,0.010248027,-0.0028121483,-0.42739612,0.08253703
674,-2.7397883,2.7052557,1.0957477,3.8367264,-7.97649,4.2220287,-0.050158482,-0.015133566,0.010248027,-0.0028121483,-0.42739612,0.08253703
675,-2.7397883,2.7052557,1.0957477,3.8367264,-7.97649,4.2220287,-0.050158482,-0.015133566,0.010248027,-0.0028121483,-0.42739612,0.08253703
676,-2.7397883,2.7052557,1.0957477,3.8367264,-7.97649,4.2220287,-0.050158482,-0.015133566,0.010248027,-0.0028121483,-0.42739612,0.08253703
677,-2.7397883,2.7052557,1.0957477,3.8367264,-7.97649,4.2220287,-0.050158482,-0.015133566,0.010248027,-0.0028121483,-0.42739612,0.08253703
678,-2.7397883,2.7052557,1.0957477,3.8367264,-7.97649,4.2220287,-0.050158482,-0.015133566,0.010248027,-0.0028121483,-0.42739612,0.08253703
679,-2.7202203,2.7119393,1.0998319,3.8254504,-8.051265,4.0882077,-0.07390695,-0.010630226,5.5360215e-05,-0.3353911,0.98344123,0.22509228
680,-2.7202203,2.7119393,1.0998319,3.8254504,-8.051265,4.0882077,-0.07390695,-0.010630226,5.5360215e-05,-0.3353911,0.98344123,0.22509228
681,-2.7202203,2.7119393,1.0998319,3.8254504,-8.051265,4.0882077,-0.07390695,-0.010630226,5.5360215e-05,-0.3353911,0.98344123,0.22509228
682,-2.7202203,2.7119393,1.0998319,3.8254504,-8.051265,4.0882077,-0.07390695,-0.010630226,5.5360215e-05,-0.3353911,0.98344123,0.22509228
683,-2.7202203,2.7119393,1.0998319,3.8254504,-8.051265,4.0882077,-0.07390695,-0.010630226,5.5360215e-05,-0.3353911,0.98344123,0.22509228
684,-2.7202203,2.7119393,1.0998319,3.8254504,-8.051265,4.0882077,-0.07390695,-0.010630226,5.5360215e-05,-0.3353911,0.98344123,0.22509228
685,-2.7031407,2.7191699,1.1027255,3.8036478,-8.131248,3.947842,-0.046589877,-0.026041657,-0.004310644,0.44385716,-0.5178532,0.26642883
686,-2.7031407,2.7191699,1.1027255,3.8036478,-8.131248,3.947842,-0.046589877,-0.026041657,-0.004310644,0.44385716,-0.5178532,0.26642883
687,-2.7031407,2.7191699,1.1027255,3.8036478,-8.131248,3.947842,-0.046589877,-0.026041657,-0.004310644,0.44385716,-0.5178532,0.26642883
688,-2.7031407,2.7191699,1.1027255,3.8036478,-8.131248,3.947842,-0.046589877,-0.026041657,-0.004310644,0.44385716,-0.5178532,0.26642883
689,-2.7031407,2.7191699,1.1027255,3.8036478,-8.131248,3.947842,-0.046589877,-0.026041657,-0.004310644,0.44385716,-0.5178532,0.26642883
690,-2.7031407,2.7191699,1.1027255,3.8036478,-8.131248,3.947842,-0.046589877,-0.026041657,-0.004310644,0.44385716,-0.5178532,0.26642883
691,-2.6898696,2.7236767,1.1035609,3.793165,-8.193417,3.8275592,-0.0047684307,-0.044346724,-0.008099625,-0.35283747,0.27241185,-0.6405456
692,-2.6898696,2.7236767,1.1035609,3.793165,-8.193417,3.8275592,-0.0047684307,-0.044346724,-0.008099625,-0.35283747,0.27241185,-0.6405456
693,-2.6898696,2.7236767,1.1035609,3.793165,-8.193417,3.8275592,-0.0047684307,-0.044346724,-0.008099625,-0.35283747,0.27241185,-0.6405456
694,-2.6898696,2.7236767,1.1035609,3.793165,-8.193417,3.8275592,-0.0047684307,-0.044346724,-0.008099625,-0.35283747,0.27241185,-0.6405456
695,-2.6898696,2.7236767,1.1035609,3.793165,-8.193417,3.8275592,-0.0047684307,-0.044346724,-0.008099625,-0.35283747,0.27241185,-0.6405456
696,-2.6898696,2.7236767,1.1035609,3.793165,-8.193417,3.8275592,-0.0047684307,-0.044346724,-0.008099625,-0.35283747,0.27241185,-0.6405456
697,-2.6764271,2.7243867,1.1031711,3.810511,-8.235435,3.7186027,0.02952722,-0.058861747,-0.015410367,-0.039652433,-0.08428969,0.5730261
698,-2.6764271,2.7243867,1.1031711,3.810511,-8.235435,3.7186027,0.02952722,-0.058861747,-0.015410367,-0.039652433,-0.08428969,0.5730261
699,-2.6764271,2.7243867,1.1031711,3.810511,-8.235435,3.7186027,0.02952722,-0.058861747,-0.015410367,-0.039652433,-0.08428969,0.5730261
700,-2.6764271,2.7243867,1.1031711,3.810511,-8.235435,3.7186027,0.02952722,-0.058861747,-0.015410367,-0.039652433,-0.08428969,0.5730261
701,-2.6764271,2.7243867,1.1031711,3.810511,-8.235435,3.7186027,0.02952722,-0.058861747,-0.015410367,-0.039652433,-0.08428969,0.5730261
702,-2.6764271,2.7243867,1.1031711,3.810511,-8.235435,3.7186027,0.02952722,-0.058861747,-0.015410367,-0.039652433,-0.08428969,0.5730261
703,-2.6709108,2.7269228,1.101928,3.7996733,-8.271862,3.6481738,0.052006662,-0.06829534,-0.023365203,-0.074925184,-0.2398065,0.83870256
704,-2.6709108,2.7269228,1.101928,3.7996733,-8.271862,3.6481738,0.052006662,-0.06829534,-0.023365203,-0.074925184,-0.2398065,0.83870256
705,-2.6709108,2.7269228,1.101928,3.7996733,-8.271862,3.6481738,0.052006662,-0.06829534,-0.023365203,-0.074925184,-0.2398065,0.83870256
706,-2.6709108,2.7269228,1.101928,3.7996733,-8.271862,3.6481738,0.052006662,-0.06829534,-0.023365203,-0.074925184,-0.2398065,0.83870256
707,-2.6709108,2.7269228,1.101928,3.7996733,-8.271862,3.6481738,0.052006662,-0.06829534,-0.023365203,-0.074925184,-0.2398065,0.83870256
708,-2.6709108,2.7269228,1.101928,3.7996733,-8.271862,3.6481738,0.052006662,-0.06829534,-0.023365203,-0.074925184,-0.2398065,0.83870256
709,-2.6680982,2.7325063,1.1003358,3.7607265,-8.322861,3.571737,0.06323627,-0.0699636,-0.025990555,-0.083288334,0.9113374,-0.117983
710,-2.6680982,2.7325063,1.1003358,3.7607265,-8.322861,3.571737,0.06323627,-0.0699636,-0.025990555,-0.083288334,0.9113374,-0.117983
711,-2.6680982,2.7325063,1.1003358,3.7607265,-8.322861,3.571737,0.06323627,-0.0699636,-0.025990555,-0.083288334,0.9113374,-0.117983
712,-2.6680982,2.7325063,1.1003358,3.7607265,-8.322861,3.571737,0.06323627,-0.0699636,-0.025990555,-0.083288334,0.9113374,-0.117983
713,-2.6680982,2.7325063,1.1003358,3.7607265,-8.322861,3.571737,0.06323627,-0.0699636,-0.025990555,-0.083288334,0.9113374,-0.117983
714,-2.6680982,2.7325063,1.1003358,3.7607265,-8.322861,3.571737,0.06323627,-0.0699636,-0.025990555,-0.083288334,0.9113374,-0.117983
715,-2.6680982,2.7325063,1.1003358,3.7348397,-8.336342,3.5674593,0.067851394,-0.06415077,-0.020973004,0.59401584,-0.5792732,0.07096924
716,-2.6680982,2.7325063,1.1003358,3.7348397,-8.336342,3.5674593,0.067851394,-0.06415077,-0.020973004,0.59401584,-0.5792732,0.07096924
717,-2.6680982,2.7325063,1.1003358,3.7348397,-8.336342,3.5674593,0.067851394,-0.06415077,-0.020973004,0.59401584,-0.5792732,0.07096924
718,-2.6680982,2.7325063,1.1003358,3.7348397,-8.336342,3.5674593,0.067851394,-0.06415077,-0.020973004,0.59401584,-0.5792732,0.07096924
719,-2.6680982,2.7325063,1.1003358,3.7348397,-8.336342,3.5674593,0.067851394,-0.06415077,-0.020973004,0.59401584,-0.5792732,0.07096924
720,-2.6680982,2.7325063,1.1003358,3.7348397,-8.336342,3.5674593,0.067851394,-0.06415077,-0.020973004,0.59401584,-0.5792732,0.07096924
721,-2.6680982,2.7325063,1.1003358,3.7000496,-8.34678,3.5792863,0.06917365,-0.054980144,-0.011936514,-0.24274138,0.31828097,-0.22264612
722,-2.6680982,2.7325063,1.1003358,3.7000496,-8.34678,3.5792863,0.06917365,-0.054980144,-0.011936514,-0.24274138,0.31828097,-0.22264612
723,-2.6680982,2.7325063,1.1003358,3.7000496,-8.34678,3.5792863,0.06917365,-0.054980144,-0.011936514,-0.24274138,0.31828097,-0.22264612
724,-2.6680982,2.7325063,1.1003358,3.7000496,-8.34678,3.5792863,0.06917365,-0.054980144,-0.011936514,-0.24274138,0.31828097,-0.22264612
725,-2.6680982,2.7325063,1.1003358,3.7000496,-8.34678,3.5792863,0.06917365,-0.054980144,-0.011936514,-0.24274138,0.31828097,-0.22264612
726,-2.6680982,2.7325063,1.1003358,3.7000496,-8.34678,3.5792863,0.06917365,-0.054980144,-0.011936514,-0.24274138,0.31828097,-0.22264612
727,-2.6896334,2.7388933,1.0927527,3.668956,-8.3381,3.6311474,0.059449416,-0.045476288,-0.0073064836,0.006932172,-0.07571868,0.35910326
728,-2.6896334,2.7388933,1.0927527,3.668956,-8.3381,3.6311474,0.059449416,-0.045476288,-0.0073064836,0.006932172,-0.07571868,0.35910326
729,-2.6896334,2.7388933,1.0927527,3.668956,-8.3381,3.6311474,0.059449416,-0.045476288,-0.0073064836,0.006932172,-0.07571868,0.35910326
730,-2.6896334,2.7388933,1.0927527,3.668956,-8.3381,3.6311474,0.059449416,-0.045476288,-0.0073064836,0.006932172,-0.07571868,0.35910326
731,-2.6896334,2.7388933,1.0927527,3.668956,-8.3381,3.6311474,0.059449416,-0.045476288,-0.0073064836,0.006932172,-0.07571868,0.35910326
732,-2.6896334,2.7388933,1.0927527,3.668956,-8.3381,3.6311474,0.059449416,-0.045476288,-0.0073064836,0.006932172,-0.07571868,0.35910326
733,-2.6896334,2.7388933,1.0927527,3.620972,-8.349637,3.6527414,0.028932098,-0.033556808,-0.009741268,0.044506744,-0.39953813,0.3383631
734,-2.6896334,2.7388933,1.0927527,3.620972,-8.349637,3.6527414,0.028932098,-0.033556808,-0.009741268,0.044506744,-0.39953813,0.3383631
735,-2.6896334,2.7388933,1.0927527,3.620972,-8.349637,3.6527414,0.028932098,-0.033556808,-0.009741268,0.044506744,-0.39953813,0.3383631
736,-2.6896334,2.7388933,1.0927527,3.620972,-8.349637,3.6527414,0.028932098,-0.033556808,-0.009741268,0.044506744,-0.39953813,0.3383631
737,-2.6896334,2.7388933,1.0927527,3.620972,-8.349637,3.6527414,0.028932098,-0.033556808,-0.009741268,0.044506744,-0.39953813,0.3383631
738,-2.6896334,2.7388933,1.0927527,3.620972,-8.349637,3.6527414,0.028932098,-0.033556808,-0.009741268,0.044506744,-0.39953813,0.3383631
739,-2.7050273,2.7478852,1.088319,3.5720341,-8.373731,3.6457634,-0.0078121778,-0.023495087,-0.01818583,0.1678922,0.60986644,-0.18170163
740,-2.7050273,2.7478852,1.088319,3.5720341,-8.373731,3.6457634,-0.0078121778,-0.023495087,-0.01818583,0.1678922,0.60986644,-0.18170163
741,-2.7050273,2.7478852,1.088319,3.5720341,-8.373731,3.6457634,-0.0078121778,-0.023495087,-0.01818583,0.1678922,0.60986644,-0.18170163
742,-2.7050273,2.7478852,1.088319,3.5720341,-8.373731,3.6457634,-0.0078121778,-0.023495087,-0.01818583,0.1678922,0.60986644,-0.18170163
743,-2.7050273,2.7478852,1.088319,3.5720341,-8.373731,3.6457634,-0.0078121778,-0.023495087,-0.01818583,0.1678922,0.60986644,-0.18170163
744,-2.7050273,2.7478852,1.088319,3.5720341,-8.373731,3.6457634,-0.0078121778,-0.023495087,-0.01818583,0.1678922,0.60986644,-0.18170163
745,-2.7050273,2.7478852,1.088319,3.556145,-8.364265,3.682836,-0.013000068,-0.025565771,-0.027521478,0.4630459,-0.48108003,0.33752596
746,-2.7050273,2.7478852,1.088319,3.556145,-8.364265,3.682836,-0.013000068,-0.025565771,-0.027521478,0.4630459,-0.48108003,0.33752596
747,-2.7050273,2.7478852,1.088319,3.556145,-8.364265,3.682836,-0.013000068,-0.025565771,-0.027521478,0.4630459,-0.48108003,0.33752596
748,-2.7050273,2.7478852,1.088319,3.556145,-8.364265,3.682836,-0.013000068,-0.025565771,-0.027521478,0.4630459,-0.48108003,0.33752596
749,-2.7050273,2.7478852,1.088319,3.556145,-8.364265,3.682836,-0.013000068,-0.025565771,-0.027521478,0.4630459,-0.48108003,0.33752596
750,-2.7050273,2.7478852,1.088319,3.556145,-8.364265,3.682836,-0.013000068,-0.025565771,-0.027521478,0.4630459,-0.48108003,0.33752596
751,-2.7050273,2.7478852,1.088319,3.5295072,-8.393775,3.6410868,0.020097887,-0.037438408,-0.03073237,-0.15762195,0.67030185,-0.13434318
752,-2.7050273,2.7478852,1.088319,3.5295072,-8.393775,3.6410868,0.020097887,-0.037438408,-0.03073237,-0.15762195,0.67030185,-0.13434318
753,-2.7050273,2.7478852,1.088319,3.5295072,-8.393775,3.6410868,0.020097887,-0.037438408,-0.03073237,-0.15762195,0.67030185,-0.13434318
754,-2.7050273,2.7478852,1.088319,3.5295072,-8.393775,3.6410868,0.020097887,-0.037438408,-0.03073237,-0.15762195,0.67030185,-0.13434318
755,-2.7050273,2.7478852,1.088319,3.5295072,-8.393775,3.6410868,0.020097887,-0.037438408,-0.03073237,-0.15762195,0.67030185,-0.13434318
756,-2.7050273,2.7478852,1.088319,3.5295072,-8.393775,3.6410868,0.020097887,-0.037438408,-0.03073237,-0.15762195,0.67030185,-0.13434318
757,-2.7050273,2.7478852,1.088319,3.5458255,-8.392682,3.6277273,0.06377923,-0.04816019,-0.026975328,-0.1315528,-0.00904163,0.1264123
758,-2.7050273,2.7478852,1.088319,3.5458255,-8.392682,3.6277273,0.06377923,-0.04816019,-0.026975328,-0.1315528,-0.00904163,0.1264123
759,-2.7050273,2.7478852,1.088319,3.5458255,-8.392682,3.6277273,0.06377923,-0.04816019,-0.026975328,-0.1315528,-0.00904163,0.1264123
760,-2.7050273,2.7478852,1.088319,3.5458255,-8.392682,3.6277273,0.06377923,-0.04816019,-0.026975328,-0.1315528,-0.00904163,0.1264123
761,-2.7050273,2.7478852,1.088319,3.5458255,-8.392682,3.6277273,0.06377923,-0.04816019,-0.026975328,-0.1315528,-0.00904163,0.1264123
762,-2.7050273,2.7478852,1.088319,3.5458255,-8.392682,3.6277273,0.06377923,-0.04816019,-0.026975328,-0.1315528,-0.00904163,0.1264123
763,-2.7045496,2.7463725,1.0769324,3.5741339,-8.405779,3.569151,0.0921162,-0.049374923,-0.018375332,0.05144696,-0.44089338,-0.38963807
764,-2.7045496,2.7463725,1.0769324,3.5741339,-8.405779,3.569151,0.0921162,-0.049374923,-0.018375332,0.05144696,-0.44089338,-0.38963807
765,-2.7045496,2.7463725,1.0769324,3.5741339,-8.405779,3.569151,0.0921162,-0.049374923,-0.018375332,0.05144696,-0.44089338,-0.38963807
766,-2.7045496,2.7463725,1.0769324,3.5741339,-8.405779,3.569151,0.0921162,-0.049374923,-0.018375332,0.05144696,-0.44089338,-0.38963807
767,-2.7045496,2.7463725,1.0769324,3.5741339,-8.405779,3.569151,0.0921162,-0.049374923,-0.018375332,0.05144696,-0.44089338,-0.38963807
768,-2.7045496,2.7463725,1.0769324,3.5741339,-8.405779,3.569151,0.0921162,-0.049374923,-0.018375332,0.05144696,-0.44089338,-0.38963807
769,-2.7045496,2.7463725,1.0769324,3.5846486,-8.418942,3.527336,0.10787895,-0.048414636,-0.013729333,-0.11490434,1.0928838,-0.493964
770,-2.7045496,2.7463725,1.0769324,3.5846486,-8.418942,3.527336,0.10787895,-0.048414636,-0.013729333,-0.11490434,1.0928838,-0.493964
771,-2.7045496,2.7463725,1.0769324,3.5846486,-8.418942,3.527336,0.10787895,-0.048414636,-0.013729333,-0.11490434,1.0928838,-0.493964
772,-2.7045496,2.7463725,1.0769324,3.5846486,-8.418942,3.527336,0.10787895,-0.048414636,-0.013729333,-0.11490434,1.0928838,-0.493964
773,-2.7045496,2.7463725,1.0769324,3.5846486,-8.418942,3.527336,0.10787895,-0.048414636,-0.013729333,-0.11490434,1.0928838,-0.493964
774,-2.7045496,2.7463725,1.0769324,3.5846486,-8.418942,3.527336,0.10787895,-0.048414636,-0.013729333,-0.11490434,1.0928838,-0.493964
775,-2.6999216,2.7408938,1.0688646,3.6152103,-8.41067,3.515861,0.12741792,-0.054240234,-0.016537799,0.5730352,-0.8065014,0.56114537
776,-2.6999216,2.7408938,1.0688646,3.6152103,-8.41067,3.515861,0.12741792,-0.054240234,-0.016537799,0.5730352,-0.8065014,0.56114537
777,-2.6999216,2.7408938,1.0688646,3.6152103,-8.41067,3.515861,0.12741792,-0.054240234,-0.016537799,0.5730352,-0.8065014,0.56114537
778,-2.6999216,2.7408938,1.0688646,3.6152103,-8.41067,3.515861,0.12741792,-0.054240234,-0.016537799,0.5730352,-0.8065014,0.56114537
779,-2.6999216,2.7408938,1.0688646,3.6152103,-8.41067,3.515861,0.12741792,-0.054240234,-0.016537799,0.5730352,-0.8065014,0.56114537
780,-2.6999216,2.7408938,1.0688646,3.6152103,-8.41067,3.515861,0.12741792,-0.054240234,-0.016537799,0.5730352,-0.8065014,0.56114537
781,-2.6999216,2.7408938,1.0688646,3.6272912,-8.432881,3.449589,0.13787994,-0.057928074,-0.019118438,-0.352174,0.38857853,-0.5062823
782,-2.6999216,2.7408938,1.0688646,3.6272912,-8.432881,3.449589,0.13787994,-0.057928074,-0.019118438,-0.352174,0.38857853,-0.5062823
783,-2.6999216,2.7408938,1.0688646,3.6272912,-8.432881,3.449589,0.13787994,-0.057928074,-0.019118438,-0.352174,0.38857853,-0.5062823
784,-2.6999216,2.7408938,1.0688646,3.6272912,-8.432881,3.449589,0.13787994,-0.057928074,-0.019118438,-0.352174,0.38857853,-0.5062823
785,-2.6999216,2.7408938,1.0688646,3.6272912,-8.432881,3.449589,0.13787994,-0.057928074,-0.019118438,-0.352174,0.38857853,-0.5062823
786,-2.6999216,2.7408938,1.0688646,3.6272912,-8.432881,3.449589,0.13787994,-0.057928074,-0.019118438,-0.352174,0.38857853,-0.5062823
787,-2.6918411,2.729533,1.0585779,3.7029417,-8.39566,3.4599833,0.11297316,-0.04975925,-0.01916315,-0.17752741,0.13318406,0.16886292
788,-2.6918411,2.729533,1.0585779,3.7029417,-8.39566,3.4599833,0.11297316,-0.04975925,-0.01916315,-0.17752741,0.13318406,0.16886292
789,-2.6918411,2.729533,1.0585779,3.7029417,-8.39566,3.4599833,0.11297316,-0.04975925,-0.01916315,-0.17752741,0.13318406,0.16886292
790,-2.6918411,2.729533,1.0585779,3.7029417,-8.39566,3.4599833,0.11297316,-0.04975925,-0.01916315,-0.17752741,0.13318406,0.16886292
791,-2.6918411,2.729533,1.0585779,3.7029417,-8.39566,3.4599833,0.11297316,-0.04975925,-0.01916315,-0.17752741,0.13318406,0.16886292
792,-2.6918411,2.729533,1.0585779,3.7029417,-8.39566,3.4599833,0.11297316,-0.04975925,-0.01916315,-0.17752741,0.13318406,0.16886292
793,-2.687851,2.72057,1.0535249,3.770252,-8.369382,3.450945,0.040408697,-0.03208763,-0.023626035,0.046544798,-0.39130047,-0.010220088
794,-2.687851,2.72057,1.0535249,3.770252,-8.369382,3.450945,0.040408697,-0.03208763,-0.023626035,0.046544798,-0.39130047,-0.010220088
795,-2.687851,2.72057,1.0535249,3.770252,-8.369382,3.450945,0.040408697,-0.03208763,-0.023626035,0.046544798,-0.39130047,-0.010220088
796,-2.687851,2.72057,1.0535249,3.770252,-8.369382,3.450945,0.040408697,-0.03208763,-0.023626035,0.046544798,-0.39130047,-0.010220088
797,-2.687851,2.72057,1.0535249,3.770252,-8.369382,3.450945,0.040408697,-0.03208763,-0.023626035,0.046544798,-0.39130047,-0.010220088
798,-2.687851,2.72057,1.0535249,3.770252,-8.369382,3.450945,0.040408697,-0.03208763,-0.023626035,0.046544798,-0.39130047,-0.010220088
799,-2.687851,2.72057,1.0535249,3.8062286,-8.374589,3.3984218,-0.049611267,-0.019558124,-0.039283395,-0.313921,1.2448155,-0.13516209
800,-2.687851,2.72057,1.0535249,3.8062286,-8.374589,3.3984218,-0.049611267,-0.019558124,-0.039283395,-0.313921,1.2448155,-0.13516209
801,-2.687851,2.72057,1.0535249,3.8062286,-8.374589,3.3984218,-0.049611267,-0.019558124,-0.039283395,-0.313921,1.2448155,-0.13516209
802,-2.687851,2.72057,1.0535249,3.8062286,-8.374589,3.3984218,-0.049611267,-0.019558124,-0.039283395,-0.313921,1.2448155,-0.13516209
803,-2.687851,2.72057,1.0535249,3.8062286,-8.374589,3.3984218,-0.049611267,-0.019558124,-0.039283395,-0.313921,1.2448155,-0.13516209
804,-2.687851,2.72057,1.0535249,3.8062286,-8.374589,3.3984218,-0.049611267,-0.019558124,-0.039283395,-0.313921,1.2448155,-0.13516209
805,-2.6804123,2.704759,1.0406754,3.8846703,-8.33955,3.3958254,-0.1011133,-0.01999249,-0.057559717,0.6136821,-0.13932127,0.25848135
806,-2.6804123,2.704759,1.0406754,3.8846703,-8.33955,3.3958254,-0.1011133,-0.01999249,-0.057559717,0.6136821,-0.13932127,0.25848135
807,-2.6804123,2.704759,1.0406754,3.8846703,-8.33955,3.3958254,-0.1011133,-0.01999249,-0.057559717,0.6136821,-0.13932127,0.25848135
808,-2.6804123,2.704759,1.0406754,3.8846703,-8.33955,3.3958254,-0.1011133,-0.01999249,-0.057559717,0.6136821,-0.13932127,0.25848135
809,-2.6804123,2.704759,1.0406754,3.8846703,-8.33955,3.3958254,-0.1011133,-0.01999249,-0.057559717,0.6136821,-0.13932127,0.25848135
810,-2.6804123,2.704759,1.0406754,3.8846703,-8.33955,3.3958254,-0.1011133,-0.01999249,-0.057559717,0.6136821,-0.13932127,0.25848135
811,-2.6726282,2.6960971,1.0335544,3.9540617,-8.330552,3.3373148,-0.09773526,-0.021075208,-0.058335826,-0.38378325,0.07002069,-0.25609797
812,-2.6726282,2.6960971,1.0335544,3.9540617,-8.330552,3.3373148,-0.09773526,-0.021075208,-0.058335826,-0.38378325,0.07002069,-0.25609797
813,-2.6726282,2.6960971,1.0335544,3.9540617,-8.330552,3.3373148,-0.09773526,-0.021075208,-0.058335826,-0.38378325,0.07002069,-0.25609797
814,-2.6726282,2.6960971,1.0335544,3.9540617,-8.330552,3.3373148,-0.09773526,-0.021075208,-0.058335826,-0.38378325,0.07002069,-0.25609797
815,-2.6726282,2.6960971,1.0335544,3.9540617,-8.330552,3.3373148,-0.09773526,-0.021075208,-0.058335826,-0.38378325,0.07002069,-0.25609797
816,-2.6726282,2.6960971,1.0335544,3.9540617,-8.330552,3.3373148,-0.09773526,-0.021075208,-0.058335826,-0.38378325,0.07002069,-0.25609797
817,-2.6616716,2.6863337,1.0274369,4.0389633,-8.316906,3.2689817,-0.081827715,-0.008430721,-0.038373146,-0.10276093,0.25299016,0.6272566
818,-2.6616716,2.6863337,1.0274369,4.0389633,-8.316906,3.2689817,-0.081827715,-0.008430721,-0.038373146,-0.10276093,0.25299016,0.6272566
819,-2.6616716,2.6863337,1.0274369,4.0389633,-8.316906,3.2689817,-0.081827715,-0.008430721,-0.038373146,-0.10276093,0.25299016,0.6272566
820,-2.6616716,2.6863337,1.0274369,4.0389633,-8.316906,3.2689817,-0.081827715,-0.008430721,-0.038373146,-0.10276093,0.25299016,0.6272566
821,-2.6616716,2.6863337,1.0274369,4.0389633,-8.316906,3.2689817,-0.081827715,-0.008430721,-0.038373146,-0.10276093,0.25299016,0.6272566
822,-2.6616716,2.6863337,1.0274369,4.0389633,-8.316906,3.2689817,-0.081827715,-0.008430721,-0.038373146,-0.10276093,0.25299016,0.6272566
823,-2.6506178,2.6830542,1.0188783,4.076016,-8.343119,3.15418,-0.10175101,0.017742949,-0.01530497,0.059165064,0.11852732,0.28558892
824,-2.6506178,2.6830542,1.0188783,4.076016,-8.343119,3.15418,-0.10175101,0.017742949,-0.01530497,0.059165064,0.11852732,0.28558892
825,-2.6506178,2.6830542,1.0188783,4.076016,-8.343119,3.15418,-0.10175101,0.017742949,-0.01530497,0.059165064,0.11852732,0.28558892
826,-2.6506178,2.6830542,1.0188783,4.076016,-8.343119,3.15418,-0.10175101,0.017742949,-0.01530497,0.059165064,0.11852732,0.28558892
827,-2.6506178,2.6830542,1.0188783,4.076016,-8.343119,3.15418,-0.10175101,0.017742949,-0.01530497,0.059165064,0.11852732,0.28558892
828,-2.6506178,2.6830542,1.0188783,4.076016,-8.343119,3.15418,-0.10175101,0.017742949,-0.01530497,0.059165064,0.11852732,0.28558892
829,-2.6380506,2.6811316,1.0106398,4.107993,-8.374134,3.0279806,-0.15166463,0.044166803,-0.0042371857,-0.13916644,0.12219931,0.32544085
830,-2.6380506,2.6811316,1.0106398,4.107993,-8.374134,3.0279806,-0.15166463,0.044166803,-0.0042371857,-0.13916644,0.12219931,0.32544085
831,-2.6380506,2.6811316,1.0106398,4.107993,-8.374134,3.0279806,-0.15166463,0.044166803,-0.0042371857,-0.13916644,0.12219931,0.32544085
832,-2.6380506,2.6811316,1.0106398,4.107993,-8.374134,3.0279806,-0.15166463,0.044166803,-0.0042371857,-0.13916644,0.12219931,0.32544085
833,-2.6380506,2.6811316,1.0106398,4.107993,-8.374134,3.0279806,-0.15166463,0.044166803,-0.0042371857,-0.13916644,0.12219931,0.32544085
834,-2.6380506,2.6811316,1.0106398,4.107993,-8.374134,3.0279806,-0.15166463,0.044166803,-0.0042371857,-0.13916644,0.12219931,0.32544085
835,-2.626981,2.67651,1.0077525,4.162212,-8.372056,2.9588952,-0.19010803,0.059354667,-0.0044501093,0.12066791,0.1873303,0.1866077
836,-2.626981,2.67651,1.0077525,4.162212,-8.372056,2.9588952,-0.19010803,0.059354667,-0.0044501093,0.12066791,0.1873303,0.1866077
837,-2.626981,2.67651,1.0077525,4.162212,-8.372056,2.9588952,-0.19010803,0.059354667,-0.0044501093,0.12066791,0.1873303,0.1866077
838,-2.626981,2.67651,1.0077525,4.162212,-8.372056,2.9588952,-0.19010803,0.059354667,-0.0044501093,0.12066791,0.1873303,0.1866077
839,-2.626981,2.67651,1.0077525,4.162212,-8.372056,2.9588952,-0.19010803,0.059354667,-0.0044501093,0.12066791,0.1873303,0.1866077
840,-2.626981,2.67651,1.0077525,4.162212,-8.372056,2.9588952,-0.19010803,0.059354667,-0.0044501093,0.12066791,0.1873303,0.1866077
841,-2.614363,2.674141,1.0041533,4.2040606,-8.383446,2.8660243,-0.19118011,0.06276038,-0.0040391665,0.1366486,0.0016621735,0.032170832
842,-2.614363,2.674141,1.0041533,4.2040606,-8.383446,2.8660243,-0.19118011,0.06276038,-0.0040391665,0.1366486,0.0016621735,0.032170832
843,-2.614363,2.674141,1.0041533,4.2040606,-8.383446,2.8660243,-0.19118011,0.06276038,-0.0040391665,0.1366486,0.0016621735,0.032170832
844,-2.614363,2.674141,1.0041533,4.2040606,-8.383446,2.8660243,-0.19118011,0.06276038,-0.0040391665,0.1366486,0.0016621735,0.032170832
845,-2.614363,2.674141,1.0041533,4.2040606,-8.383446,2.8660243,-0.19118011,0.06276038,-0.0040391665,0.1366486,0.0016621735,0.032170832
846,-2.614363,2.674141,1.0041533,4.2040606,-8.383446,2.8660243,-0.19118011,0.06276038,-0.0040391665,0.1366486,0.0016621735,0.032170832
847,-2.614363,2.674141,1.0041533,4.2571015,-8.380103,2.7966673,-0.15857188,0.057852488,0.0017853669,0.115209125,0.042516373,0.036327455
848,-2.614363,2.674141,1.0041533,4.2571015,-8.380103,2.7966673,-0.15857188,0.057852488,0.0017853669,0.115209125,0.042516373,0.036327455
849,-2.614363,2.674141,1.0041533,4.2571015,-8.380103,2.7966673,-0.15857188,0.057852488,0.0017853669,0.115209125,0.042516373,0.036327455
850,-2.614363,2.674141,1.0041533,4.2571015,-8.380103,2.7966673,-0.15857188,0.057852488,0.0017853669,0.115209125,0.042516373,0.036327455
851,-2.614363,2.674141,1.0041533,4.2571015,-8.380103,2.7966673,-0.15857188,0.057852488,0.0017853669,0.115209125,0.042516373,0.036327455
852,-2.614363,2.674141,1.0041533,4.2571015,-8.380103,2.7966673,-0.15857188,0.057852488,0.0017853669,0.115209125,0.042516373,0.036327455
853,-2.5889993,2.667846,1.0028176,4.307455,-8.37886,2.7222996,-0.109968804,0.049179032,0.009966968,-0.2896739,-0.008608928,-0.46083185
854,-2.5889993,2.667846,1.0028176,4.307455,-8.37886,2.7222996,-0.109968804,0.049179032,0.009966968,-0.2896739,-0.008608928,-0.46083185
855,-2.5889993,2.667846,1.0028176,4.307455,-8.37886,2.7222996,-0.109968804,0.049179032,0.009966968,-0.2896739,-0.008608928,-0.46083185
856,-2.5889993,2.667846,1.0028176,4.307455,-8.37886,2.7222996,-0.109968804,0.049179032,0.009966968,-0.2896739,-0.008608928,-0.46083185
857,-2.5889993,2.667846,1.0028176,4.307455,-8.37886,2.7222996,-0.109968804,0.049179032,0.009966968,-0.2896739,-0.008608928,-0.46083185
858,-2.5889993,2.667846,1.0028176,4.307455,-8.37886,2.7222996,-0.109968804,0.049179032,0.009966968,-0.2896739,-0.008608928,-0.46083185
859,-2.5889993,2.667846,1.0028176,4.3476543,-8.37393,2.6731222,-0.06986672,0.042832837,0.015331585,-0.21479952,0.32625186,0.27608865
860,-2.5889993,2.667846,1.0028176,4.3476543,-8.37393,2.6731222,-0.06986672,0.042832837,0.015331585,-0.21479952,0.32625186,0.27608865
861,-2.5889993,2.667846,1.0028176,4.3476543,-8.37393,2.6731222,-0.06986672,0.042832837,0.015331585,-0.21479952,0.32625186,0.27608865
862,-2.5889993,2.667846,1.0028176,4.3476543,-8.37393,2.6731222,-0.06986672,0.042832837,0.015331585,-0.21479952,0.32625186,0.27608865
863,-2.5889993,2.667846,1.0028176,4.3476543,-8.37393,2.6731222,-0.06986672,0.042832837,0.015331585,-0.21479952,0.32625186,0.27608865
864,-2.5889993,2.667846,1.0028176,4.3476543,-8.37393,2.6731222,-0.06986672,0.042832837,0.015331585,-0.21479952,0.32625186,0.27608865
865,-2.5679777,2.665765,1.0042784,4.375448,-8.381527,2.6030436,-0.061186876,0.0427466,0.01106459,0.09456937,0.09264698,0.2630877
866,-2.5679777,2.665765,1.0042784,4.375448,-8.381527,2.6030436,-0.061186876,0.0427466,0.01106459,0.09456937,0.09264698,0.2630877
867,-2.5679777,2.665765,1.0042784,4.375448,-8.381527,2.6030436,-0.061186876,0.0427466,0.01106459,0.09456937,0.09264698,0.2630877
868,-2.5679777,2.665765,1.0042784,4.375448,-8.381527,2.6030436,-0.061186876,0.0427466,0.01106459,0.09456937,0.09264698,0.2630877
869,-2.5679777,2.665765,1.0042784,4.375448,-8.381527,2.6030436,-0.061186876,0.0427466,0.01106459,0.09456937,0.09264698,0.2630877
870,-2.5679777,2.665765,1.0042784,4.375448,-8.381527,2.6030436,-0.061186876,0.0427466,0.01106459,0.09456937,0.09264698,0.2630877
