,gravity.x,gravity.y,gravity.z,userAcceleration.x,userAcceleration.y,userAcceleration.z
0,-0.071821,0.935076,-0.347087,0.004606,0.19177,0.545573
1,-0.064165,0.927555,-0.368132,-0.303358,0.7090569999999999,0.2580699999999999
2,-0.0583049999999999,0.917639,-0.39311,-0.460296,0.4787079999999999,0.096647
3,-0.056634,0.907043,-0.4172079999999999,-0.047629,0.365876,0.284762
4,-0.055262,0.899235,-0.433958,-0.137883,0.977993,-0.138186
5,-0.046803,0.895,-0.443601,-0.151668,1.275044,-0.16373
6,-0.042779,0.890674,-0.4526229999999999,-0.015128,0.7366149999999999,-0.098052
7,-0.047638,0.884418,-0.464254,-0.014572,0.222698,0.1403859999999999
8,-0.060729,0.879785,-0.471474,0.007476,0.154059,0.178002
9,-0.077293,0.8781610000000001,-0.472077,-0.00251,-0.086611,0.252747
10,-0.092411,0.8781770000000001,-0.469322,-0.0518,-0.158694,0.313743
11,-0.106119,0.87941,-0.4640829999999999,-0.142279,-0.209366,0.337939
12,-0.115682,0.880606,-0.459509,-0.206294,-0.261129,0.376196
13,-0.121196,0.8838010000000001,-0.4518899999999999,-0.135305,-0.2550929999999999,0.381425
14,-0.124595,0.889109,-0.440407,-0.0280079999999999,-0.281641,0.336174
15,-0.125237,0.895645,-0.426768,0.02073,-0.32428,0.314982
16,-0.1226599999999999,0.903812,-0.40997,-0.024877,-0.239948,0.2595179999999999
17,-0.1170109999999999,0.912749,-0.3914,-0.06289,-0.197249,0.211285
18,-0.1098529999999999,0.922335,-0.370442,-0.082224,-0.1747,0.165379
19,-0.100172,0.931816,-0.348827,-0.0369279999999999,-0.2072679999999999,0.258953
20,-0.086738,0.938853,-0.333208,-0.1519859999999999,-0.1371869999999999,0.2786119999999999
21,-0.07682,0.943296,-0.322934,-0.1216049999999999,-0.088362,0.280698
22,-0.07164,0.946633,-0.314245,-0.094971,-0.114724,0.0532889999999999
23,-0.067478,0.94841,-0.309777,-0.146801,-0.102844,-0.0736309999999999
24,-0.065619,0.946376,-0.316327,-0.079995,-0.1312819999999999,-0.096073
25,-0.062894,0.941847,-0.330099,0.03462,-0.332029,0.024663
26,-0.0590399999999999,0.939203,-0.338244,0.008777,-0.339898,0.153247
27,-0.057752,0.941409,-0.33228,-0.020693,-0.348987,0.1451619999999999
28,-0.058363,0.947464,-0.314487,-0.353441,0.079971,0.322452
29,-0.0614539999999999,0.951325,-0.3019949999999999,-0.301186,0.8927149999999999,0.450585
30,-0.066749,0.947836,-0.311686,-0.2958909999999999,0.8962040000000001,0.460276
31,-0.059162,0.947446,-0.314391,0.277607,0.204806,0.162794
32,-0.0532129999999999,0.949145,-0.310303,0.330007,0.083905,0.045609
33,-0.0447,0.947917,-0.3153579999999999,0.015281,1.412312,-0.369548
34,-0.044847,0.938608,-0.3420539999999999,0.1768819999999999,1.509375,0.210173
35,-0.049164,0.934489,-0.352576,-0.13359,-0.020778,0.148779
36,-0.0536769999999999,0.932149,-0.358069,-0.155994,-0.191442,0.18894
37,-0.051744,0.933294,-0.355362,-0.16818,-0.3040219999999999,0.093948
38,-0.0447199999999999,0.937854,-0.3441329999999999,0.155225,0.271009,0.274675
39,-0.0346519999999999,0.943529,-0.329468,0.177749,0.351988,0.264054
40,-0.02696,0.948706,-0.315005,0.162428,0.15867,0.195818
41,-0.022946,0.95271,-0.30301,0.162442,-0.1097079999999999,0.253007
42,-0.020605,0.956302,-0.29165,0.137701,-0.165026,0.225778
43,-0.0204479999999999,0.959213,-0.28194,0.089982,-0.2247,0.133701
44,-0.023069,0.96074,-0.276484,-0.015627,-0.119096,0.04426
45,-0.0265019999999999,0.960984,-0.275326,-0.012225,-0.082612,0.035931
46,-0.027357,0.960408,-0.2772429999999999,0.000227,-0.304586,0.0322939999999999
47,-0.027371,0.958765,-0.282873,0.016491,-0.3457739999999999,0.000204
48,-0.029612,0.95628,-0.290943,0.050638,-0.362667,-0.016827
49,-0.033612,0.953348,-0.299991,0.158093,-0.344965,0.087497
50,-0.038198,0.951325,-0.3058079999999999,0.17156,-0.283585,0.143866
51,-0.045536,0.949608,-0.310108,0.175846,-0.056343,0.11832
52,-0.055194,0.947943,-0.313615,0.136508,-0.172003,0.0340279999999999
53,-0.0628669999999999,0.946886,-0.315361,0.09485,-0.200899,0.0342779999999999
54,-0.067837,0.946018,-0.316931,-0.073673,-0.143512,0.215338
55,-0.071713,0.944322,-0.321107,-0.0326269999999999,-0.023287,0.444108
56,-0.072711,0.940442,-0.332082,-0.021588,0.086413,0.6409050000000001
57,-0.069638,0.935223,-0.347139,-0.234454,0.429477,0.333787
58,-0.069839,0.928107,-0.3657019999999999,-0.3274849999999999,0.695734,0.203471
59,-0.071491,0.917276,-0.39178,-0.408459,0.674842,0.148555
60,-0.074978,0.903905,-0.4211069999999999,-0.076359,0.513071,0.2464239999999999
61,-0.081146,0.8920040000000001,-0.4446819999999999,0.058822,0.6184029999999999,0.206203
62,-0.0827799999999999,0.8835149999999999,-0.461029,-0.08287,0.8347469999999999,-0.200013
63,-0.080112,0.875682,-0.4761939999999999,0.004871,0.486531,0.048155
64,-0.079396,0.8686659999999999,-0.488993,0.020619,0.2709519999999999,0.085642
65,-0.084962,0.862985,-0.498033,0.018922,0.167105,0.100175
66,-0.093476,0.8581799999999999,-0.5047649999999999,-0.125579,0.081639,0.1267589999999999
67,-0.102827,0.8557549999999999,-0.507059,-0.216311,-0.095119,0.204905
68,-0.111964,0.856067,-0.504591,-0.1604819999999999,-0.152881,0.267912
69,-0.119097,0.859925,-0.49633,-0.117354,-0.185608,0.255684
70,-0.12293,0.8676010000000001,-0.481825,-0.043787,-0.247438,0.200514
71,-0.1243619999999999,0.8772459999999999,-0.46365,0.1113609999999999,-0.349765,0.249051
72,-0.1246579999999999,0.887892,-0.442839,0.15011,-0.379637,0.264876
73,-0.125176,0.898906,-0.419877,0.159859,-0.469387,0.367325
74,-0.12393,0.909761,-0.396201,0.091642,-0.504121,0.338049
75,-0.118847,0.920736,-0.371643,0.040157,-0.526022,0.384705
76,-0.108606,0.931497,-0.347153,-0.162894,-0.30343,0.321289
77,-0.102355,0.942476,-0.318214,-0.101609,0.033033,0.318
78,-0.098104,0.951147,-0.2927329999999999,-0.067409,0.105707,0.241815
79,-0.090224,0.958204,-0.271483,-0.078049,0.028796,0.0794059999999999
80,-0.079891,0.962537,-0.25911,-0.126377,-0.141339,-0.122527
81,-0.069039,0.96361,-0.258239,-0.101585,-0.189013,-0.146791
82,-0.057152,0.962977,-0.263452,-0.060676,-0.16862,-0.0041719999999999
83,-0.048674,0.962708,-0.266127,-0.173403,0.303253,0.490797
84,-0.052946,0.961407,-0.269986,-0.335329,0.6405069999999999,0.557782
85,-0.071358,0.958239,-0.276919,0.040414,0.886091,0.691241
86,-0.0735519999999999,0.958783,-0.27445,0.457097,0.19852,0.047414
87,-0.067152,0.958196,-0.278118,0.461164,0.186717,-0.002598
88,-0.056737,0.955769,-0.288591,0.087499,0.704372,0.197099
89,-0.059948,0.948353,-0.311498,-0.164554,1.003918,0.196401
90,-0.0677789999999999,0.943895,-0.323212,-0.226487,0.299483,0.15062
91,-0.073788,0.941868,-0.327777,-0.089634,-0.106846,0.164416
92,-0.071399,0.94261,-0.3261679999999999,0.020938,-0.03517,0.204677
93,-0.064327,0.9466,-0.315924,0.156276,0.038431,0.266821
94,-0.0529669999999999,0.952381,-0.30027,0.219913,0.081051,0.309181
95,-0.044519,0.957804,-0.28395,0.1716089999999999,0.0626429999999999,0.27713
96,-0.042046,0.962326,-0.268623,0.088875,-0.016968,0.218498
97,-0.04266,0.966315,-0.253799,0.053296,-0.185095,0.170592
98,-0.044396,0.969806,-0.2397969999999999,0.0382459999999999,-0.170505,0.1479849999999999
99,-0.047042,0.972229,-0.22925,0.009917,-0.15915,0.126909
100,-0.0506029999999999,0.973556,-0.222768,-0.108225,-0.157593,0.072408
101,-0.054837,0.973816,-0.220619,-0.060077,-0.253784,0.0298389999999999
102,-0.0608559999999999,0.972665,-0.22409,0.0506779999999999,-0.2961519999999999,0.039718
103,-0.06944,0.970214,-0.232079,0.212918,-0.30078,0.046334
104,-0.077633,0.967427,-0.240945,0.260418,-0.271321,0.05871
105,-0.0850549999999999,0.964155,-0.251334,0.2373989999999999,-0.239942,0.187415
106,-0.092957,0.961164,-0.259846,0.155319,-0.29257,0.116017
107,-0.102408,0.958011,-0.267817,0.164786,-0.288608,0.002619
108,-0.1112079999999999,0.955219,-0.274203,0.190904,-0.24744,0.03905
109,-0.120265,0.95348,-0.276423,0.26446,-0.154057,0.08523
110,-0.1292299999999999,0.95195,-0.277649,0.258716,-0.0764,0.24231
111,-0.13432,0.949231,-0.284457,0.224698,-0.023389,0.623812
112,-0.134354,0.94553,-0.296514,-0.242171,0.301815,0.607488
113,-0.130142,0.940942,-0.312553,-0.6347510000000001,0.639426,0.199211
114,-0.125243,0.934055,-0.334447,-0.561235,0.654828,-0.128887
115,-0.118852,0.923331,-0.365146,-0.044494,0.620553,0.114505
116,-0.108428,0.912305,-0.394895,-0.199158,0.917453,0.047849
117,-0.1010549999999999,0.902723,-0.418182,-0.2781869999999999,1.188524,-0.072998
118,-0.097442,0.893244,-0.438884,0.0066069999999999,0.389258,-0.014348
119,-0.0976799999999999,0.8842270000000001,-0.4567279999999999,0.070427,0.058538,0.205232
120,-0.1044119999999999,0.875807,-0.471232,0.058681,0.104769,0.268885
121,-0.1131809999999999,0.8689610000000001,-0.4817619999999999,-0.0690549999999999,0.096599,0.221691
122,-0.120441,0.8637319999999999,-0.489347,-0.0566529999999999,-0.076378,0.2927369999999999
123,-0.127436,0.861284,-0.491883,-0.080877,-0.14081,0.311188
124,-0.135222,0.8617610000000001,-0.48896,-0.113114,-0.230428,0.287468
125,-0.142523,0.864685,-0.48167,-0.0981539999999999,-0.219833,0.214321
126,-0.1481289999999999,0.870033,-0.4702119999999999,-0.054584,-0.2304449999999999,0.182859
127,-0.151361,0.877769,-0.454543,0.078424,-0.331825,0.209808
128,-0.152321,0.8873979999999999,-0.435112,0.158165,-0.433754,0.243004
129,-0.150525,0.898272,-0.412855,0.16821,-0.439241,0.22154
130,-0.147482,0.909502,-0.388657,0.148291,-0.4349229999999999,0.165665
131,-0.143979,0.920869,-0.3623099999999999,0.055768,-0.318116,0.201681
132,-0.13754,0.931654,-0.336307,-0.012881,-0.241957,0.193744
133,-0.128569,0.941136,-0.312619,-0.195924,0.0432079999999999,0.288937
134,-0.120068,0.947354,-0.296821,-0.223988,0.089893,0.401039
135,-0.114274,0.951595,-0.285319,-0.415419,0.140477,0.072108
136,-0.118243,0.956309,-0.267376,-0.1225869999999999,0.080968,-0.467868
137,-0.122233,0.958313,-0.258252,0.1151529999999999,-0.136093,-0.5125460000000001
138,-0.120148,0.956938,-0.264258,0.164109,-0.173918,-0.421228
139,-0.119781,0.953654,-0.276034,0.202606,-0.023463,0.5351130000000001
140,-0.12065,0.952182,-0.2807,0.010527,0.31532,0.632491
141,-0.1335329999999999,0.950652,-0.280049,-0.151547,0.691529,0.608754
142,-0.162761,0.944066,-0.28679,0.267436,0.587703,0.56102
143,-0.174763,0.941381,-0.288546,0.380207,-0.020406,0.380984
144,-0.164963,0.947415,-0.274209,0.237778,0.169239,0.077279
145,-0.158193,0.946547,-0.281109,0.488683,2.167345,0.098843
146,-0.155792,0.942693,-0.295056,0.361114,1.402828,0.625455
147,-0.154938,0.943142,-0.294069,-0.1401359999999999,0.193287,0.379411
148,-0.153222,0.945495,-0.287333,-0.340278,-0.210373,0.183222
149,-0.150404,0.948655,-0.278262,0.001112,-0.100465,0.2657199999999999
150,-0.141603,0.954817,-0.261285,0.085359,0.019014,0.3286679999999999
151,-0.133128,0.961917,-0.238728,0.107814,0.0811279999999999,0.254231
152,-0.128969,0.966799,-0.220599,0.19774,-0.186129,0.259936
153,-0.1267869999999999,0.970733,-0.2039619999999999,0.25313,-0.360381,0.313367
154,-0.126672,0.974907,-0.18305,0.303994,-0.296914,0.1990569999999999
155,-0.129443,0.977983,-0.163679,0.293826,-0.198671,0.023787
156,-0.134644,0.979351,-0.150796,0.2267159999999999,-0.185818,-0.033545
157,-0.142463,0.979654,-0.14135,0.136741,-0.173349,-0.083321
158,-0.152313,0.979223,-0.13387,0.169875,-0.137991,-0.059383
159,-0.1625049999999999,0.978191,-0.129353,0.171508,-0.1120559999999999,-0.0308029999999999
160,-0.172652,0.976858,-0.126245,0.11978,-0.029012,0.060113
161,-0.183767,0.974712,-0.127134,0.203023,0.010486,0.126844
162,-0.193876,0.972358,-0.130114,0.356595,0.15989,0.100512
163,-0.199443,0.97043,-0.135965,0.502879,0.46147,0.361825
164,-0.198034,0.969857,-0.141975,0.011007,0.866065,0.5837939999999999
165,-0.188618,0.970662,-0.149117,-0.170299,0.496852,0.439126
166,-0.1844849999999999,0.968144,-0.169292,-0.297738,0.059764,0.379909
167,-0.187859,0.961163,-0.202169,-0.019096,-0.070111,0.276449
168,-0.196929,0.952611,-0.231839,0.017333,0.036372,0.231244
169,-0.2076719999999999,0.943147,-0.259506,0.127823,0.231215,0.130752
170,-0.213648,0.932912,-0.289873,0.253794,0.320918,0.130617
171,-0.2138469999999999,0.922755,-0.320609,0.267757,0.254628,0.199988
172,-0.215373,0.913491,-0.345175,0.371959,0.1110299999999999,0.289756
173,-0.222317,0.905239,-0.362098,0.423489,-0.094845,0.312187
174,-0.234677,0.898176,-0.37176,0.397412,-0.1337559999999999,0.279826
175,-0.250715,0.8929860000000001,-0.373786,0.428587,-0.2300219999999999,0.357017
176,-0.268581,0.888625,-0.371764,0.31544,-0.186797,0.260192
177,-0.287056,0.8845860000000001,-0.367567,0.329444,-0.062015,0.2492349999999999
178,-0.302529,0.8825790000000001,-0.359902,0.11979,0.159474,0.111382
179,-0.311454,0.8830479999999999,-0.351028,0.048179,0.078698,0.079834
180,-0.314067,0.884973,-0.343777,0.03503,-0.061548,0.126767
181,-0.312173,0.88818,-0.337167,0.113809,-0.219387,0.292566
182,-0.311467,0.892367,-0.326601,0.157749,-0.107607,0.318956
183,-0.313058,0.8969440000000001,-0.312225,-0.033775,0.131392,0.250229
184,-0.3160179999999999,0.8992889999999999,-0.3023389999999999,0.0707179999999999,0.369326,-0.086561
185,-0.322796,0.8996129999999999,-0.294104,0.105175,0.287002,-0.14634
186,-0.328758,0.8971959999999999,-0.294881,0.146904,0.15798,-0.176188
187,-0.33618,0.893957,-0.296346,0.540267,-0.182608,-0.0150409999999999
188,-0.338386,0.893755,-0.29444,0.512016,0.100752,0.0513669999999999
189,-0.338454,0.8938889999999999,-0.293954,0.406462,0.488084,0.10003
190,-0.339454,0.892186,-0.2979469999999999,0.377571,1.263606,0.399281
191,-0.3441349999999999,0.894383,-0.2857389999999999,0.2082099999999999,0.155879,0.227634
192,-0.353505,0.8991549999999999,-0.257974,0.201924,-0.049683,0.264002
193,-0.364259,0.904161,-0.2231719999999999,0.273134,-0.4884199999999999,0.208706
194,-0.374408,0.908295,-0.18659,0.606494,-0.474945,0.384359
195,-0.375278,0.914187,-0.153049,0.788578,-0.306399,0.428775
196,-0.3679,0.921967,-0.120919,0.417064,0.549758,0.2842949999999999
197,-0.359244,0.929033,-0.088534,0.103735,0.609038,0.128603
198,-0.351869,0.934099,-0.060349,-0.055586,0.44766,0.023881
199,-0.343551,0.938142,-0.043107,0.017532,0.011977,-0.0261829999999999
200,-0.333999,0.94213,-0.028816,0.104476,-0.105644,-0.019051
201,-0.324819,0.945677,-0.013516,0.2948199999999999,-0.121001,-0.070834
202,-0.318134,0.948043,0.000648,0.4374729999999999,-0.077606,-0.047554
203,-0.313619,0.9494,0.01668,0.47138,-0.111403,-0.010729
204,-0.310746,0.949783,0.03668,0.509736,-0.125442,-0.000318
205,-0.307598,0.949788,0.057285,0.513134,-0.025106,0.048535
206,-0.303134,0.949796,0.077404,0.424381,0.081942,0.0189389999999999
207,-0.2988159999999999,0.9493,0.09764,0.29108,0.145122,-0.122146
208,-0.295605,0.94852,0.113678,0.150815,0.127912,-0.211365
209,-0.29496,0.947734,0.1216329999999999,-0.063759,0.1223799999999999,-0.164556
210,-0.29764,0.946695,0.1231829999999999,-0.078474,0.106055,-0.125533
211,-0.3029199999999999,0.945283,0.121136,0.088702,0.1161789999999999,-0.097256
212,-0.308899,0.944381,0.112784,0.4120029999999999,0.206727,-0.005667
213,-0.3135949999999999,0.944347,0.0993039999999999,0.350552,0.326237,0.100495
214,-0.315717,0.945152,0.083703,0.2424739999999999,0.2641679999999999,0.162726
215,-0.315467,0.946443,0.068715,0.076835,0.0213919999999999,0.043483
216,-0.31686,0.947212,0.048833,0.051296,-0.0105659999999999,-0.022558
217,-0.320981,0.946893,0.018953,0.168759,0.105276,0.042799
218,-0.325496,0.945507,-0.008065,0.358104,0.507389,-0.0544809999999999
219,-0.328709,0.943963,-0.029657,0.37798,0.512748,-0.1099
220,-0.329235,0.942677,-0.054416,0.526821,0.2054099999999999,-0.079953
221,-0.324026,0.942301,-0.084094,0.060324,-0.102549,-0.1869019999999999
222,-0.320213,0.940651,-0.11241,0.189186,-0.140373,-0.04944
223,-0.3226199999999999,0.936897,-0.134671,0.321567,-0.121697,0.038999
224,-0.324299,0.934314,-0.1479369999999999,0.3446079999999999,-0.274707,0.0217009999999999
225,-0.326636,0.932782,-0.152391,0.3609989999999999,-0.335584,-0.000563
226,-0.331263,0.930915,-0.153817,0.3442179999999999,-0.292167,-0.010383
227,-0.335181,0.929717,-0.152569,0.270606,-0.007277,-0.068867
228,-0.336036,0.930511,-0.1456859999999999,0.2180099999999999,0.022385,-0.142095
229,-0.331767,0.933066,-0.138977,0.087184,0.028238,-0.282044
230,-0.324034,0.935828,-0.13865,0.142653,-0.0074069999999999,-0.18003
231,-0.315925,0.938078,-0.142115,0.171318,-0.063399,-0.119589
232,-0.308477,0.940207,-0.144393,0.3926449999999999,-0.155844,-0.218125
233,-0.301852,0.943198,-0.138773,0.4800439999999999,-0.113456,-0.260732
234,-0.293758,0.946959,-0.130274,0.504207,-0.033506,-0.37084
235,-0.283735,0.950777,-0.124553,0.383588,-0.21982,-0.157201
236,-0.27052,0.955017,-0.121477,0.008725,-0.073044,0.059251
237,-0.258696,0.959379,-0.1125309999999999,-0.034227,0.244036,0.235165
238,-0.254752,0.9614,-0.103952,0.1227029999999999,0.970698,0.260171
239,-0.259341,0.961681,-0.0889269999999999,0.22536,-0.020015,0.100646
240,-0.2645639999999999,0.962093,-0.066169,0.277961,-0.2328599999999999,-0.01516
241,-0.26937,0.961963,-0.045425,0.2763739999999999,-0.2699,0.07643
242,-0.26868,0.962897,-0.02523,0.198978,0.113092,-0.0037619999999999
243,-0.264072,0.964498,-0.002333,0.185397,0.33108,-0.0531779999999999
244,-0.25488,0.966759,0.020175,0.0260129999999999,0.171501,-0.16434
245,-0.241544,0.969605,0.038951,0.031858,-0.0742039999999999,-0.166209
246,-0.226486,0.972436,0.055376,0.055054,-0.143151,-0.190202
247,-0.211931,0.974675,0.071323,0.188967,-0.2167099999999999,-0.19492
248,-0.199491,0.976124,0.085907,0.223798,-0.146091,-0.163376
249,-0.18972,0.976711,0.1001809999999999,0.231712,-0.1102559999999999,-0.156898
250,-0.182541,0.976616,0.113552,0.2205349999999999,-0.060173,-0.187145
251,-0.178405,0.976288,0.122588,0.169036,-0.065048,-0.236922
252,-0.177482,0.976046,0.125814,0.180839,-0.050936,-0.272497
253,-0.178951,0.976215,0.122369,0.187771,-0.12154,-0.255395
254,-0.180564,0.976965,0.1137069999999999,0.156425,-0.240668,-0.239959
255,-0.181277,0.97803,0.1029109999999999,0.145083,-0.3911,-0.236303
256,-0.18152,0.979088,0.091818,0.148256,-0.460305,-0.308935
257,-0.181908,0.980021,0.080384,0.15902,-0.433818,-0.244416
258,-0.18332,0.980693,0.06804,0.137864,-0.403346,-0.099428
259,-0.184589,0.980979,0.060009,0.022952,-0.3975599999999999,-0.144756
260,-0.187373,0.980771,0.05454,0.018504,-0.335828,-0.229925
261,-0.192368,0.980071,0.0494939999999999,0.161164,-0.258895,-0.154352
262,-0.196546,0.979495,0.044202,0.166502,-0.154071,-0.021756
263,-0.200829,0.979083,0.03256,0.243538,-0.05205,0.32918
264,-0.203339,0.979015,0.013347,0.061997,0.13004,0.323582
265,-0.1993,0.979935,-0.001008,-0.111918,0.69075,-0.1366109999999999
266,-0.192002,0.981339,-0.0101739999999999,-0.17868,0.8702690000000001,-0.415836
267,-0.1893109999999999,0.981239,-0.03642,-0.074574,0.8360219999999999,-0.313021
268,-0.189107,0.979873,-0.063898,0.023061,0.8714149999999999,-0.280234
269,-0.18262,0.979619,-0.083615,-0.183622,0.896632,-0.337192
270,-0.172492,0.98062,-0.092877,-0.180566,0.472307,-0.3382449999999999
271,-0.171393,0.980196,-0.099175,0.009772,0.074827,-0.309151
272,-0.178325,0.978476,-0.1038309999999999,0.206523,-0.1153619999999999,-0.130163
273,-0.187026,0.976874,-0.103597,0.15277,-0.181647,-0.17779
274,-0.1942549999999999,0.976357,-0.094802,0.03593,-0.374642,-0.259247
275,-0.198469,0.976931,-0.078806,0.004957,-0.5006430000000001,-0.2092639999999999
276,-0.197925,0.978382,-0.059909,0.095035,-0.495594,-0.209836
277,-0.193225,0.98038,-0.038896,0.261432,-0.519336,-0.198729
278,-0.18431,0.982742,-0.015567,0.2525159999999999,-0.521698,-0.222058
279,-0.171652,0.985137,0.005901,0.089987,-0.598144,0.055562
280,-0.159977,0.98678,0.0258009999999999,0.057469,-0.4701479999999999,-0.017897
281,-0.154213,0.986558,0.053995,0.0866779999999999,-0.283937,0.031805
282,-0.152801,0.985121,0.078633,-0.062119,-0.127088,-0.134847
283,-0.15229,0.983558,0.097036,-0.1101299999999999,-0.323096,-0.3547869999999999
284,-0.151245,0.982503,0.1086599999999999,-0.115142,-0.464192,-0.3613909999999999
285,-0.149015,0.982507,0.111667,-0.103289,-0.522027,-0.310519
286,-0.145017,0.983321,0.109752,0.0052619999999999,-0.50688,-0.08987
287,-0.136818,0.984147,0.11283,-0.1547319999999999,-0.325761,0.145715
288,-0.130455,0.98364,0.124216,-0.366707,0.089038,0.200339
289,-0.134096,0.983317,0.1228819999999999,0.25078,1.244923,0.267285
290,-0.139793,0.983381,0.115818,0.472434,0.72278,-0.109196
291,-0.137461,0.983464,0.117888,0.402155,0.727626,-0.62129
292,-0.132651,0.986827,0.092583,0.354987,2.238057,-0.182793
293,-0.137675,0.988866,0.056445,0.163539,0.234477,-0.1962
294,-0.139544,0.989338,0.041649,0.02611,0.002682,-0.154503
295,-0.136693,0.99004,0.033657,-0.275111,-0.211292,-0.202282
296,-0.132013,0.990657,0.034184,0.047677,0.035161,-0.115422
297,-0.125942,0.991046,0.044304,0.116344,0.100583,-0.003624
298,-0.1194349999999999,0.990991,0.060568,0.188863,0.025443,0.0711919999999999
299,-0.1157589999999999,0.990004,0.080553,0.263082,-0.095457,0.028456
300,-0.117039,0.988114,0.099639,0.2110639999999999,-0.148789,0.009034
301,-0.121976,0.985535,0.117638,0.072293,-0.1193849999999999,-0.182274
302,-0.128748,0.983102,0.130114,-0.030767,-0.141488,-0.329196
303,-0.1383059999999999,0.981429,0.132906,-0.006668,-0.296813,-0.305285
304,-0.149001,0.980375,0.129067,0.107314,-0.459974,-0.247079
305,-0.158996,0.9796,0.122879,0.192169,-0.514664,-0.211608
306,-0.168265,0.979377,0.111814,0.2355409999999999,-0.500953,-0.242826
307,-0.17674,0.979499,0.096639,0.235853,-0.532279,-0.189352
308,-0.184392,0.979298,0.083481,0.215993,-0.555821,-0.24054
309,-0.191605,0.978651,0.0743279999999999,0.207825,-0.495542,-0.270907
310,-0.199193,0.97748,0.0696389999999999,0.2181139999999999,-0.305529,-0.467176
311,-0.208751,0.975836,0.0645,0.364177,-0.103476,-0.428239
312,-0.219506,0.973894,0.057821,0.340676,0.011412,-0.221746
313,-0.231021,0.971647,0.050262,0.325977,0.047686,0.105988
314,-0.239008,0.970383,0.035023,0.0888,0.217728,0.207988
315,-0.236228,0.971555,0.016456,-0.031991,0.816317,-0.152534
316,-0.226658,0.973963,-0.004004,-0.371288,0.935812,-0.618387
317,-0.222573,0.97395,-0.043334,0.060021,0.445347,-0.175248
318,-0.221469,0.972089,-0.077388,0.167728,0.61748,-0.228582
319,-0.216384,0.971046,-0.101209,-0.079911,1.11715,-0.6004510000000001
320,-0.204664,0.971143,-0.122432,0.019117,0.288348,-0.391698
321,-0.194775,0.970212,-0.144039,0.134899,0.111453,-0.338383
322,-0.19227,0.968248,-0.159761,0.269602,-0.023881,-0.246123
323,-0.194993,0.966656,-0.165983,0.183244,-0.153042,-0.181964
324,-0.200093,0.966068,-0.163315,0.138035,-0.216419,-0.177948
325,-0.2065,0.966195,-0.154337,0.079807,-0.315866,-0.130957
326,-0.2125659999999999,0.966691,-0.142544,0.062557,-0.359514,0.008785
327,-0.216358,0.96801,-0.127045,0.062473,-0.360848,-0.01413
328,-0.216631,0.970509,-0.105728,0.088122,-0.410572,-0.040222
329,-0.212525,0.973913,-0.07951,0.2198949999999999,-0.507223,0.020031
330,-0.20353,0.97772,-0.051326,0.2343989999999999,-0.5841189999999999,0.010249
331,-0.190859,0.981355,-0.022584,0.170046,-0.5508890000000001,0.040269
332,-0.1743019999999999,0.984671,0.0060409999999999,0.077653,-0.526312,0.075121
333,-0.156174,0.987128,0.034361,-0.220001,-0.473792,0.134096
334,-0.142669,0.987746,0.063217,-0.212876,-0.251235,0.246506
335,-0.137098,0.98695,0.084424,-0.180224,-0.143627,0.196353
336,-0.133955,0.986068,0.098587,-0.316255,0.03859,-0.514145
337,-0.128332,0.985074,0.114695,-0.1097359999999999,0.006275,-0.7555029999999999
338,-0.11878,0.98638,0.11375,0.023504,-0.265815,-0.7466079999999999
339,-0.108495,0.989578,0.094644,0.055807,-0.353119,-0.530008
340,-0.1023429999999999,0.992217,0.070892,0.065005,-0.030501,0.40509
341,-0.100382,0.992885,0.064015,-0.117574,0.337636,0.355189
342,-0.107888,0.991893,0.067109,-0.13523,0.808507,0.07376
343,-0.119099,0.990786,0.064455,0.431675,0.592985,0.1051309999999999
344,-0.1164549999999999,0.990624,0.071397,-0.097214,0.750038,-0.533356
345,-0.1062579999999999,0.992762,0.055929,-0.146916,1.606329,-0.8293360000000001
346,-0.108819,0.993772,0.023871,0.1522,0.678423,-0.043937
347,-0.110796,0.993826,0.005375,0.004549,-0.080039,-0.233142
348,-0.110519,0.99385,-0.006642,-0.1338359999999999,-0.231185,-0.214168
349,-0.105401,0.994398,-0.0076489999999999,-0.035742,-0.147169,-0.176112
350,-0.0957669999999999,0.995395,0.003476,0.085269,-0.0303079999999999,0.005558
351,-0.084209,0.996258,0.019348,0.106136,0.172443,0.107499
352,-0.077822,0.996308,0.036192,0.225848,0.196853,-0.12837
353,-0.075151,0.995817,0.051914,0.28705,-0.023878,-0.200047
354,-0.07425,0.995049,0.066026,0.221604,-0.140114,-0.182909
355,-0.074646,0.99409,0.078779,0.091889,-0.249446,-0.178953
356,-0.07896,0.992954,0.088327,-0.024388,-0.281437,-0.223214
357,-0.086518,0.99151,0.097041,-0.112838,-0.182275,-0.283672
358,-0.096027,0.99024,0.10098,-0.016384,-0.157843,-0.371289
359,-0.1063559999999999,0.989574,0.097084,0.198854,-0.338573,-0.334648
360,-0.1152619999999999,0.989238,0.090094,0.279447,-0.349956,-0.271658
361,-0.123677,0.988883,0.082517,0.41486,-0.19924,-0.269239
362,-0.13021,0.988778,0.0732,0.230781,-0.2021109999999999,-0.067966
363,-0.134381,0.98884,0.064269,0.161419,-0.271265,-0.146819
364,-0.13688,0.988753,0.06021,0.135888,-0.311232,-0.341674
365,-0.138923,0.988736,0.055633,0.17765,-0.207166,-0.276062
366,-0.140272,0.988827,0.050392,0.133573,-0.154873,-0.227073
367,-0.142298,0.988786,0.045245,0.042903,-0.125764,-0.1476319999999999
368,-0.146726,0.988398,0.039165,0.005659,-0.110072,-0.224757
369,-0.153417,0.987699,0.0301269999999999,0.114019,-0.099744,-0.204504
370,-0.159185,0.987056,0.019349,0.34139,-0.07162,0.066589
371,-0.160066,0.9871,0.0027719999999999,-0.112028,0.404242,-0.0749
372,-0.155082,0.987711,-0.0193039999999999,-0.3075179999999999,0.6164310000000001,-0.260359
373,-0.149134,0.987489,-0.051198,-0.2592219999999999,0.394637,-0.378336
374,-0.142102,0.9863,-0.083758,-0.154865,0.279767,-0.2761659999999999
375,-0.140564,0.983841,-0.110885,0.329026,0.177689,-0.160996
376,-0.139864,0.981135,-0.133452,-0.166044,1.035802,-0.440217
377,-0.13367,0.97962,-0.149916,-0.359707,0.674265,-0.448976
378,-0.131166,0.978028,-0.162031,-0.268813,0.331939,-0.4151319999999999
379,-0.136953,0.975255,-0.173549,0.113881,-0.126271,-0.180043
380,-0.149099,0.972302,-0.179988,0.073949,-0.203778,-0.043889
381,-0.163903,0.97001,-0.179481,0.047753,-0.262399,-0.0034869999999999
382,-0.178913,0.969105,-0.169776,-0.06216,-0.4018739999999999,-0.062798
383,-0.190964,0.969493,-0.153665,-0.10318,-0.383312,-0.1377779999999999
384,-0.197566,0.971027,-0.13443,-0.100468,-0.4002409999999999,-0.170623
385,-0.198323,0.973404,-0.114668,-0.002223,-0.433488,-0.1566789999999999
386,-0.193094,0.976551,-0.09518,0.137033,-0.467335,-0.1015669999999999
387,-0.183803,0.980037,-0.075769,0.174968,-0.489284,-0.092185
388,-0.172238,0.983401,-0.057035,0.184109,-0.404391,-0.114123
389,-0.161088,0.986314,-0.035104,0.062546,-0.153855,-0.02233
390,-0.153462,0.988085,-0.011576,-0.019603,0.0086349999999999,-0.195944
391,-0.14833,0.98889,0.009519,-0.102997,0.01584,-0.2270329999999999
392,-0.144734,0.989287,0.018945,-0.083248,-0.136595,-0.321817
393,-0.1448809999999999,0.989244,0.020041,0.028212,-0.24959,-0.379004
394,-0.145399,0.989267,0.014349,0.004927,-0.343271,-0.414343
395,-0.144699,0.989461,0.004999,0.012268,-0.32781,-0.330835
396,-0.144266,0.989537,-0.0009449999999999,0.078593,-0.3488199999999999,-0.2072909999999999
397,-0.143536,0.989569,0.012095,-0.0624429999999999,-0.30094,-0.063472
398,-0.1449089999999999,0.98862,0.040336,-0.299137,0.168682,0.090524
399,-0.157214,0.986144,0.052903,0.055484,0.6723939999999999,0.317504
400,-0.167504,0.984162,0.057996,0.198952,0.50238,0.030551
401,-0.166234,0.984308,0.059159,0.461918,0.127752,-0.057022
402,-0.156877,0.985961,0.057147,0.23018,0.599671,-0.124499
403,-0.152252,0.987467,0.0415139999999999,-0.0126959999999999,2.230993,-0.630641
404,-0.15818,0.987225,0.019035,0.0058969999999999,-0.006741,-0.112678
405,-0.162529,0.986655,0.009554,0.009972,-0.276771,-0.154222
406,-0.159926,0.98709,0.008472,-0.078493,-0.4728229999999999,-0.310886
407,-0.151348,0.988328,0.01723,0.238796,-0.136536,-0.133914
408,-0.139238,0.989664,0.034251,0.243471,0.0860809999999999,-0.08285
409,-0.129468,0.990173,0.052827,0.22949,0.479783,-0.177873
410,-0.1267569999999999,0.98956,0.0685549999999999,0.282061,0.010959,-0.166303
411,-0.1279,0.988566,0.079842,0.2239239999999999,-0.093287,-0.1243369999999999
412,-0.129917,0.987632,0.087753,0.112491,-0.232596,-0.167449
413,-0.1328359999999999,0.98696,0.090889,-0.086418,-0.312033,-0.332466
414,-0.137561,0.98636,0.090375,-0.084882,-0.3689739999999999,-0.321255
415,-0.143903,0.985645,0.088267,0.018491,-0.470035,-0.294383
416,-0.151127,0.984927,0.084111,0.194843,-0.442584,-0.287709
417,-0.158363,0.984387,0.076803,0.243049,-0.442105,-0.267919
418,-0.164828,0.984066,0.066651,0.3630239999999999,-0.4891319999999999,-0.11319
419,-0.168996,0.983788,0.0599769999999999,0.338811,-0.4408649999999999,-0.146495
420,-0.171754,0.98356,0.055728,0.270356,-0.2286619999999999,-0.2993949999999999
421,-0.175124,0.983298,0.0495139999999999,0.206038,-0.2045809999999999,-0.273055
422,-0.180393,0.982723,0.041343,0.314731,-0.188336,0.045754
423,-0.185539,0.982218,0.0286029999999999,0.1806859999999999,0.066259,0.31385
424,-0.185161,0.982646,0.010875,-0.45995,0.817861,-0.175823
425,-0.177774,0.984041,-0.0073799999999999,-0.388449,1.04405,-0.279501
426,-0.1665869999999999,0.985643,-0.0274459999999999,-0.335335,0.676024,-0.269581
427,-0.159338,0.985515,-0.058023,-0.392802,0.766316,-0.174948
428,-0.148929,0.984675,-0.090728,-0.640042,0.977865,-0.446137
429,-0.137801,0.984318,-0.110119,-0.320115,0.690136,-0.442096
430,-0.130929,0.983222,-0.127,0.318368,-0.027106,-0.111953
431,-0.130794,0.981488,-0.139901,0.1821549999999999,0.125156,-0.0773539999999999
432,-0.137038,0.979679,-0.146444,0.045607,0.14497,-0.217936
433,-0.147141,0.977973,-0.148037,-0.108917,0.08941,-0.240177
434,-0.157344,0.976333,-0.148372,-0.177007,-0.013121,-0.16245
435,-0.166102,0.97541,-0.14485,-0.188421,-0.084984,-0.152834
436,-0.173238,0.974913,-0.139748,-0.075098,-0.2632739999999999,-0.033013
437,-0.178819,0.9747,-0.134088,-0.048842,-0.383575,0.03512
438,-0.184464,0.975061,-0.123391,0.005769,-0.424859,0.020898
439,-0.1889819999999999,0.976015,-0.1080599999999999,0.09389,-0.350862,-0.172092
440,-0.190448,0.977354,-0.09222,0.129291,-0.297377,-0.229344
441,-0.188168,0.979152,-0.076488,0.136868,-0.308711,-0.220967
442,-0.182383,0.981461,-0.058874,0.079065,-0.345246,-0.164789
443,-0.17367,0.984077,-0.037764,0.001215,-0.317146,-0.247392
444,-0.163461,0.986484,-0.0111709999999999,-0.007285,-0.328617,-0.221556
445,-0.152974,0.988131,0.013843,-0.038081,-0.361025,-0.13158
446,-0.144969,0.988817,0.034938,0.07368,-0.1969769999999999,0.047994
447,-0.140978,0.988784,0.04926,0.041171,-0.138656,0.054622
448,-0.139719,0.988282,0.061412,0.009165,-0.210328,-0.186137
449,-0.139782,0.987115,0.077841,0.027523,-0.217676,-0.4604399999999999
450,-0.139433,0.986133,0.089976,0.027632,-0.238177,-0.660013
451,-0.138374,0.986709,0.085165,-0.0028309999999999,-0.209274,-0.651205
452,-0.1368069999999999,0.988181,0.069123,-0.031406,-0.17449,-0.393631
453,-0.13624,0.988885,0.0594899999999999,-0.187658,-0.014001,0.033756
454,-0.141556,0.988099,0.060137,-0.296631,1.014831,-0.016161
455,-0.159996,0.985665,0.053479,0.511681,0.126045,0.5759770000000001
456,-0.169684,0.984236,0.049817,0.458899,0.12018,0.23067
457,-0.164064,0.985049,0.0525049999999999,0.506731,0.27432,-0.432525
458,-0.15236,0.98731,0.044724,0.161622,1.893611,-0.352036
459,-0.154189,0.987963,0.012203,0.228896,0.988462,0.056705
460,-0.158913,0.987273,0.005757,-0.044746,0.07979,-0.316609
461,-0.163166,0.98659,0.003388,-0.041348,-0.257494,-0.242036
462,-0.159663,0.987157,0.0048049999999999,0.02534,-0.296635,-0.213943
463,-0.150127,0.988518,0.016965,0.203381,-0.00634,-0.077085
464,-0.139575,0.989581,0.03524,0.201877,0.299116,-0.155067
465,-0.133471,0.989855,0.048631,0.18384,0.143613,-0.1509859999999999
466,-0.1305589999999999,0.989752,0.0577779999999999,0.155034,-0.11112,-0.104042
467,-0.1285599999999999,0.989569,0.064949,0.17603,-0.220038,-0.145622
468,-0.127134,0.989394,0.070215,0.146192,-0.2306659999999999,-0.162363
469,-0.127968,0.989073,0.073165,0.095817,-0.246549,-0.217452
470,-0.131108,0.988588,0.074154,0.095723,-0.290284,-0.286541
471,-0.135273,0.988165,0.072287,0.10178,-0.361959,-0.302038
472,-0.14067,0.987792,0.066879,0.159301,-0.44226,-0.270828
473,-0.146453,0.987453,0.05902,0.187148,-0.441737,-0.295455
474,-0.152021,0.986917,0.05367,0.24098,-0.343163,-0.3309829999999999
475,-0.158044,0.986154,0.050176,0.324548,-0.174585,-0.21523
476,-0.163174,0.985439,0.04775,0.260418,-0.123195,-0.157568
477,-0.167919,0.984721,0.046079,0.146068,-0.176005,-0.191846
478,-0.173642,0.983779,0.044968,0.15167,-0.253982,-0.132629
479,-0.180093,0.982776,0.041391,0.195931,-0.223163,-0.0034729999999999
480,-0.186338,0.981954,0.03226,0.211744,-0.167134,0.185925
481,-0.188989,0.981883,0.013559,-0.269919,0.484914,0.083624
482,-0.187426,0.982268,-0.004013,-0.445951,0.972322,-0.197983
483,-0.18407,0.982536,-0.0271459999999999,-0.418271,0.6053850000000001,-0.284896
484,-0.184669,0.981079,-0.058112,0.009895,0.477768,-0.036904
485,-0.182588,0.979586,-0.084074,-0.09355,0.546125,-0.322542
486,-0.178322,0.979108,-0.09769,0.116265,0.544604,-0.377729
487,-0.176172,0.978188,-0.1100309999999999,0.225671,0.217017,-0.237686
488,-0.1766619999999999,0.97662,-0.122471,0.103893,0.113025,-0.245144
489,-0.178743,0.974667,-0.13443,-0.067763,0.158421,-0.248596
490,-0.181992,0.972596,-0.144678,-0.166198,0.003539,-0.208807
491,-0.185703,0.970917,-0.151095,-0.18858,-0.152527,-0.112454
492,-0.188503,0.969946,-0.15384,-0.129292,-0.246283,-0.016784
493,-0.1892589999999999,0.970494,-0.149389,0.009327,-0.32166,0.010626
494,-0.188682,0.972288,-0.138021,0.116905,-0.369978,-0.068445
495,-0.1872069999999999,0.974669,-0.122343,0.185971,-0.384413,-0.152621
496,-0.184396,0.977227,-0.104972,0.218255,-0.4201899999999999,-0.1794059999999999
497,-0.180269,0.979678,-0.087912,0.196397,-0.4096399999999999,-0.200509
498,-0.173498,0.982372,-0.069551,0.16567,-0.439129,-0.200743
499,-0.163972,0.985268,-0.048526,0.11934,-0.4377359999999999,-0.235044
500,-0.153476,0.987821,-0.025465,0.028079,-0.1275,-0.156297
501,-0.142332,0.989813,-0.002051,-0.0694289999999999,-0.079398,-0.131234
502,-0.133993,0.990774,0.020175,-0.181422,0.061244,-0.070437
503,-0.130397,0.990601,0.041232,-0.19579,0.024506,-0.257663
504,-0.128933,0.989675,0.062556,-0.19939,0.005885,-0.410197
505,-0.129605,0.988797,0.074001,-0.0530879999999999,-0.048474,-0.618801
506,-0.132884,0.989071,0.063825,0.140071,-0.264904,-0.4628569999999999
507,-0.137868,0.989456,0.044311,0.163274,-0.236129,-0.242004
508,-0.14153,0.989221,0.037489,-0.036662,-0.059396,-0.088285
509,-0.145958,0.988169,0.047047,0.018074,0.6846220000000001,-0.244114
510,-0.155575,0.986781,0.045324,0.172452,0.529699,0.036631
511,-0.157804,0.986386,0.046215,0.2797679999999999,0.058963,0.155796
512,-0.151321,0.987165,0.051009,0.455795,0.175616,-0.0364209999999999
513,-0.13985,0.988842,0.0512559999999999,0.303317,0.345066,-0.006425
514,-0.135574,0.989461,0.050805,-0.134171,1.302791,-0.1904529999999999
515,-0.141849,0.988865,0.0449269999999999,-0.126263,0.407711,-0.133748
516,-0.14647,0.988596,0.0348959999999999,-0.070296,0.0338339999999999,-0.09848
517,-0.14293,0.989221,0.0317449999999999,0.1168369999999999,-0.6039359999999999,-0.175925
518,-0.129999,0.990757,0.038662,0.079294,-0.614323,-0.186215
519,-0.111924,0.992055,0.057395,0.07303,-0.103642,-0.165305
520,-0.099951,0.991802,0.079577,0.24465,0.427494,-0.099261
521,-0.09354,0.990586,0.09992,0.2916289999999999,0.251648,-0.1152849999999999
522,-0.091004,0.988728,0.118864,0.2276,-0.063694,-0.168821
523,-0.091574,0.986809,0.133476,0.124075,-0.209664,-0.195198
524,-0.094705,0.985165,0.143086,0.012872,-0.261517,-0.237889
525,-0.099196,0.983755,0.149597,-0.008454,-0.10877,-0.340576
526,-0.104701,0.983,0.150803,0.118601,-0.15341,-0.4123229999999999
527,-0.110066,0.983045,0.146628,0.264057,-0.306638,-0.314277
528,-0.1146269999999999,0.983375,0.140807,0.326388,-0.352043,-0.252837
529,-0.1191329999999999,0.983553,0.135736,0.359398,-0.365282,-0.25355
530,-0.122925,0.983339,0.133885,0.288361,-0.293398,-0.249134
531,-0.125854,0.982794,0.135159,0.2355489999999999,-0.221869,-0.283628
532,-0.128012,0.981873,0.139752,0.179648,-0.132233,-0.441083
533,-0.130917,0.980719,0.145061,0.184918,-0.088721,-0.363018
534,-0.135515,0.979513,0.1489329999999999,0.101992,-0.068365,-0.227516
535,-0.142326,0.978116,0.151738,0.112572,0.0425139999999999,-0.256764
536,-0.149903,0.976992,0.1516839999999999,0.238556,0.075895,-0.113079
537,-0.154911,0.9777,0.141764,0.26305,0.156944,0.130789
538,-0.1534869999999999,0.980151,0.125445,-0.15291,0.575421,0.134152
539,-0.1487089999999999,0.983381,0.1041079999999999,-0.2569,0.455446,-0.029019
540,-0.150816,0.985477,0.0779789999999999,-0.038652,0.312451,-0.208305
541,-0.160201,0.985558,0.054802,-0.057984,0.994514,-0.442024
542,-0.165341,0.985778,0.029924,-0.334873,1.374207,-0.592409
543,-0.161889,0.986796,0.004122,-0.301902,1.3443040000000002,-0.489245
544,-0.157215,0.987204,-0.026525,0.014805,0.149316,-0.213053
545,-0.154671,0.986456,-0.054541,0.175774,-0.006033,-0.187738
546,-0.1545359999999999,0.985181,-0.0743559999999999,0.2503,-0.014036,-0.17807
547,-0.154183,0.984304,-0.085822,0.262841,-0.0352839999999999,-0.1521539999999999
548,-0.15372,0.983814,-0.092051,0.20589,-0.164951,-0.131201
549,-0.153993,0.98355,-0.0943809999999999,0.132341,-0.348418,-0.076822
550,-0.154899,0.983618,-0.092167,0.086799,-0.505239,-0.057582
551,-0.155614,0.984132,-0.085214,0.1056569999999999,-0.620622,0.001276
552,-0.154514,0.98522,-0.073879,0.123951,-0.652151,0.009319
553,-0.15008,0.986913,-0.058917,0.109064,-0.64359,0.019733
554,-0.141956,0.988903,-0.043713,0.0874669999999999,-0.410168,0.064618
555,-0.130939,0.99088,-0.031659,-0.0341,-0.196599,0.154965
556,-0.121993,0.992144,-0.027542,-0.360414,0.443952,-0.027161
557,-0.117965,0.992776,-0.0217039999999999,-0.393586,0.540564,-0.6013430000000001
558,-0.118294,0.992821,-0.017425,-0.189674,0.348701,-0.954835
559,-0.1185799999999999,0.99259,-0.026393,0.348926,-0.1822869999999999,-0.894124
560,-0.1128869999999999,0.992529,-0.046193,0.400012,-0.198676,-0.3115489999999999
561,-0.104467,0.992998,-0.05508,0.257314,0.009947,-0.275776
562,-0.10123,0.993485,-0.052264,0.110171,1.126022,-0.449429
563,-0.099356,0.99308,-0.062558,0.2255309999999999,1.052651,-0.2625
564,-0.094101,0.993196,-0.0685409999999999,0.186737,0.250425,0.104475
565,-0.089293,0.994258,-0.058908,0.093855,-0.568736,0.251794
566,-0.092769,0.994868,-0.040296,0.234981,-0.594218,0.406156
567,-0.1014299999999999,0.994493,-0.026235,0.333134,-0.5174880000000001,0.526632
568,-0.106267,0.994272,-0.01108,0.038595,0.077078,0.534625
569,-0.105966,0.994292,0.012136,-0.244925,0.476976,0.304911
570,-0.099703,0.994305,0.037517,-0.443403,0.2461429999999999,-0.124599
571,-0.087394,0.994633,0.055314,-0.339043,0.0402029999999999,-0.175049
572,-0.0701,0.995348,0.0660289999999999,-0.152922,-0.05504,-0.059086
573,-0.051056,0.995658,0.077778,0.0061649999999999,-0.08451,-0.043583
574,-0.0349649999999999,0.995319,0.090039,0.065925,-0.10471,-0.087293
575,-0.023975,0.994718,0.099756,0.097706,-0.091901,-0.02865
576,-0.015951,0.993673,0.111127,0.059576,-0.124929,-0.060972
577,-0.010549,0.992163,0.1244619999999999,0.045965,-0.097998,-0.094585
578,-0.006473,0.990442,0.137744,-0.013607,-0.043496,-0.144077
579,-0.003521,0.988875,0.148675,-0.030217,-0.034331,-0.1655049999999999
580,-0.002127,0.987648,0.156643,-0.036065,-0.087501,-0.179318
581,-0.002687,0.986719,0.162383,-0.0594919999999999,-0.1182349999999999,-0.181472
582,-0.004592,0.986111,0.165991,-0.136888,-0.0958519999999999,-0.221442
583,-0.006859,0.985521,0.1693839999999999,-0.252266,-0.003694,-0.30473
584,-0.010397,0.984874,0.172928,-0.233881,0.0929909999999999,-0.355591
585,-0.015901,0.984932,0.172179,-0.1570109999999999,0.083061,-0.1997519999999999
586,-0.02373,0.986394,0.162649,-0.089124,0.045924,-0.05985
587,-0.032701,0.987718,0.152752,0.126039,0.2336099999999999,-0.18916
588,-0.035046,0.987865,0.15128,0.167676,0.303502,-0.159795
589,-0.03538,0.98883,0.144753,0.218288,0.435318,0.092048
590,-0.029552,0.990669,0.133011,0.022594,0.065453,0.264862
591,-0.02171,0.992989,0.116158,-0.16164,0.029274,0.252006
592,-0.019965,0.996008,0.086947,-0.2321869999999999,0.088999,0.078702
593,-0.021063,0.998422,0.051975,-0.1214539999999999,0.226081,-0.038837
594,-0.023796,0.999424,0.024006,-0.01809,0.33868,-0.002445
595,-0.026805,0.999626,-0.004559,0.119518,0.4811479999999999,-0.088443
596,-0.027686,0.998822,-0.039733,0.209204,0.091143,0.0830679999999999
597,-0.027011,0.996893,-0.073937,0.181384,-0.048681,0.144952
598,-0.026449,0.994361,-0.102655,0.121695,-0.133109,0.1474859999999999
599,-0.027562,0.991553,-0.126708,-0.039776,-0.1007909999999999,0.077315
600,-0.032118,0.988526,-0.147569,-0.067216,-0.114548,0.065019
601,-0.038191,0.98504,-0.16802,-0.048662,-0.166512,0.076726
602,-0.042845,0.981209,-0.188111,-0.024339,-0.177513,0.139787
603,-0.0454629999999999,0.977322,-0.206804,-0.050255,-0.153805,0.173463
604,-0.046338,0.973869,-0.222317,-0.096057,-0.126182,0.182446
605,-0.045315,0.971235,-0.233756,-0.09824,-0.163618,0.209907
606,-0.043433,0.969409,-0.241561,-0.094705,-0.173938,0.229293
607,-0.040487,0.968252,-0.246661,-0.108164,-0.124243,0.230837
608,-0.036821,0.967457,-0.250326,-0.090803,-0.097508,0.206305
609,-0.034446,0.966651,-0.253756,-0.080041,-0.027091,0.206759
610,-0.033539,0.96578,-0.2571699999999999,-0.2438659999999999,0.212137,-0.07361
611,-0.035023,0.964461,-0.261882,-0.2083239999999999,0.163576,-0.1078079999999999
612,-0.037597,0.962782,-0.267637,-0.148178,0.1274279999999999,-0.129366
613,-0.0391209999999999,0.960558,-0.275301,-0.0464959999999999,-0.099062,-0.113844
614,-0.041361,0.957443,-0.2856329999999999,0.009439,-0.154434,-0.061032
615,-0.044326,0.954771,-0.294009,0.037505,-0.1219,-0.035245
616,-0.045298,0.953486,-0.298002,0.0734809999999999,0.010213,-0.188647
617,-0.044612,0.952154,-0.302334,0.100017,0.059275,-0.213107
618,-0.043664,0.949366,-0.311114,0.067453,0.083303,-0.134641
619,-0.04334,0.945198,-0.3235989999999999,0.037023,0.345787,0.135443
620,-0.041247,0.941591,-0.334215,-0.113767,0.497695,0.309801
621,-0.037855,0.940359,-0.338063,-0.309695,0.398707,0.360585
622,-0.042469,0.941974,-0.3329789999999999,-0.337628,0.238613,0.2483989999999999
623,-0.057856,0.942755,-0.32842,-0.158468,-0.076712,0.162115
624,-0.07861,0.940812,-0.329678,0.009717,-0.219544,0.4794279999999999
625,-0.099489,0.939478,-0.327839,0.277071,-0.263605,0.632221
626,-0.1136339999999999,0.94141,-0.317536,0.4626479999999999,-0.171177,0.568909
627,-0.116742,0.94585,-0.302875,0.353391,0.355206,0.527667
628,-0.11623,0.951443,-0.285028,0.141361,0.375248,0.38769
629,-0.11754,0.956093,-0.268447,-0.1678599999999999,0.130012,0.179778
630,-0.1165809999999999,0.959029,-0.258198,-0.233731,0.030748,0.125264
631,-0.109721,0.961304,-0.252685,-0.248128,-0.028412,0.18547
632,-0.101921,0.963951,-0.245776,-0.065239,-0.1035529999999999,0.127703
633,-0.095437,0.966853,-0.236814,-0.002463,-0.0920059999999999,0.108503
634,-0.090173,0.969068,-0.2297199999999999,0.137704,-0.070264,0.157439
635,-0.086016,0.970927,-0.223374,0.11867,-0.104472,0.1892859999999999
636,-0.084518,0.97235,-0.217682,0.1260369999999999,-0.070007,0.20021
637,-0.082977,0.973559,-0.2128179999999999,0.016738,-0.021868,0.108143
638,-0.080484,0.974096,-0.2113159999999999,-0.112952,0.020426,0.058072
639,-0.077607,0.973486,-0.215164,-0.129241,0.015909,0.065735
640,-0.075623,0.971262,-0.2256679999999999,-0.110366,-0.052957,0.087805
641,-0.075207,0.967984,-0.239468,0.004406,-0.256665,0.13136
642,-0.076753,0.965168,-0.250111,0.038591,-0.313907,0.134007
643,-0.079891,0.962397,-0.2596219999999999,0.10957,-0.385523,0.110482
644,-0.082323,0.959123,-0.270742,0.0423,-0.379167,0.202932
645,-0.085097,0.956039,-0.280612,0.0292339999999999,-0.36032,0.201571
646,-0.0896059999999999,0.953555,-0.287574,0.042288,-0.292864,0.1530369999999999
647,-0.094095,0.951201,-0.293867,0.03895,-0.244139,0.226575
648,-0.096135,0.949626,-0.298267,0.036611,-0.2306619999999999,0.219074
649,-0.099022,0.948414,-0.301164,-0.0438459999999999,-0.085697,0.266297
650,-0.104967,0.944974,-0.30984,0.018465,-0.091763,0.368861
651,-0.108122,0.939486,-0.3250679999999999,0.216948,-0.2390929999999999,0.573084
652,-0.11077,0.933614,-0.340719,0.036612,0.081523,0.387655
653,-0.1134869999999999,0.929047,-0.352118,-0.145592,0.556945,-0.188776
654,-0.109246,0.922402,-0.370452,-0.080466,0.806983,-0.274064
655,-0.0933659999999999,0.916096,-0.38993,-0.185336,0.890438,0.155433
656,-0.086482,0.911911,-0.401165,0.184657,0.463196,0.151058
657,-0.086934,0.909759,-0.405925,0.208776,0.541565,0.067897
658,-0.073976,0.910423,-0.407005,-0.531309,0.780938,-0.1153339999999999
659,-0.061759,0.912176,-0.4051119999999999,-0.436654,0.495417,-0.063638
660,-0.060946,0.913451,-0.402352,-0.287366,0.326341,-0.053458
661,-0.069165,0.913347,-0.401259,0.018093,-0.262102,0.285597
662,-0.079575,0.915498,-0.394368,0.076127,-0.352723,0.239537
663,-0.089916,0.921425,-0.378002,0.127102,-0.430488,0.190212
664,-0.097261,0.929537,-0.355663,0.240038,-0.633959,0.149623
665,-0.100717,0.93802,-0.331615,0.291909,-0.704667,0.27148
666,-0.097717,0.946404,-0.307839,0.239456,-0.7208180000000001,0.376488
667,-0.088043,0.953692,-0.287597,-0.266236,-0.4444149999999999,0.4953609999999999
668,-0.084082,0.960968,-0.263559,-0.4143159999999999,-0.284363,0.5528810000000001
669,-0.089776,0.966101,-0.242038,-0.246528,-0.207571,0.143496
670,-0.097423,0.971231,-0.217282,-0.049076,-0.116281,-0.3027829999999999
671,-0.097188,0.974751,-0.201016,0.049443,-0.2585949999999999,-0.330051
672,-0.088901,0.97528,-0.202283,0.061558,-0.330291,-0.274448
673,-0.079596,0.972796,-0.217545,0.047385,-0.360033,-0.071014
674,-0.070034,0.971023,-0.228481,-0.298176,-0.155059,0.670635
675,-0.0618639999999999,0.970779,-0.2318469999999999,-0.497691,0.149704,0.779241
676,-0.0698039999999999,0.969031,-0.236851,-0.38033,1.019418,0.42548
677,-0.085419,0.967898,-0.236369,0.494752,0.413969,-0.08878
678,-0.073435,0.97012,-0.231231,0.072322,0.804294,-0.376374
679,-0.059659,0.961889,-0.266839,-0.173983,2.923396,-0.128425
680,-0.064887,0.951311,-0.3013139999999999,0.071143,0.019346,-0.159303
681,-0.076274,0.947328,-0.311039,0.001597,-0.181886,-0.038464
682,-0.081127,0.943436,-0.321465,-0.173451,-0.358979,0.11483
683,-0.07728,0.943495,-0.32224,0.076593,-0.1242349999999999,0.193929
684,-0.0659169999999999,0.946809,-0.31496,0.151229,0.01129,0.229359
685,-0.05026,0.951212,-0.304405,0.100339,0.734029,0.1582869999999999
686,-0.046082,0.95458,-0.294359,0.341721,0.160914,0.1718309999999999
687,-0.0447899999999999,0.956313,-0.288882,0.283422,0.043138,0.2500489999999999
688,-0.042712,0.95678,-0.287648,0.059329,-0.166771,0.32053
689,-0.04266,0.957181,-0.2863179999999999,-0.2615699999999999,-0.328702,0.165819
690,-0.045637,0.957945,-0.283287,-0.321001,-0.338927,0.133995
691,-0.048815,0.958735,-0.280067,-0.234144,-0.341883,0.057197
692,-0.049446,0.95838,-0.281167,0.03112,-0.511542,0.098733
693,-0.048642,0.956852,-0.286462,0.088818,-0.5401189999999999,0.171396
694,-0.048919,0.954755,-0.293331,0.163878,-0.445981,0.282391
695,-0.053739,0.952907,-0.298452,0.154692,-0.342525,0.21459
696,-0.064937,0.95127,-0.301431,0.176845,-0.141013,0.060495
697,-0.07658,0.949189,-0.305235,0.209057,-0.1436619999999999,0.0066349999999999
698,-0.083085,0.947718,-0.308091,0.161896,-0.098398,0.053544
699,-0.087657,0.945571,-0.313375,0.212748,0.006089,0.400029
700,-0.088932,0.941641,-0.324648,-0.094921,0.354197,0.5181600000000001
701,-0.085134,0.93578,-0.342141,-0.2586469999999999,0.54977,0.399682
702,-0.07717,0.927658,-0.365359,-0.383722,0.605102,0.138476
703,-0.0715,0.916582,-0.393392,-0.0717039999999999,0.42085,0.109777
704,-0.068186,0.903644,-0.422814,-0.052847,0.5994229999999999,0.102868
705,-0.060099,0.892611,-0.446797,-0.244482,0.8369120000000001,-0.083843
706,-0.049328,0.884207,-0.464476,-0.117664,0.805765,0.01628
707,-0.045242,0.8766889999999999,-0.478919,0.0264279999999999,0.266957,0.0094819999999999
708,-0.052016,0.8700959999999999,-0.490124,0.0835559999999999,0.188711,0.053311
709,-0.0646289999999999,0.864087,-0.49917,-0.008735,0.1006799999999999,0.142968
710,-0.0817519999999999,0.8603639999999999,-0.503076,-0.0591779999999999,-0.0009429999999999,0.220086
711,-0.09857,0.859252,-0.5019600000000001,-0.06682,-0.062927,0.25045
712,-0.112408,0.860499,-0.4968909999999999,-0.203708,-0.183802,0.296985
713,-0.121772,0.864041,-0.488465,-0.233651,-0.141827,0.261308
714,-0.1274,0.8696780000000001,-0.47689,-0.191524,-0.1358059999999999,0.256782
715,-0.130213,0.8761680000000001,-0.464077,-0.006917,-0.252373,0.279919
716,-0.129714,0.883451,-0.450202,0.008407,-0.311902,0.216896
717,-0.126572,0.891373,-0.4352319999999999,0.005265,-0.319825,0.201925
718,-0.121373,0.899732,-0.4192189999999999,-0.026927,-0.289548,0.1761309999999999
719,-0.1171349999999999,0.909271,-0.399373,0.024041,-0.303802,0.226857
720,-0.1114069999999999,0.920479,-0.374565,0.034625,-0.295296,0.235328
721,-0.100493,0.932392,-0.3471849999999999,-0.148042,-0.051029,0.239657
722,-0.089015,0.941504,-0.325021,-0.177144,0.0198449999999999,0.369699
723,-0.0809039999999999,0.946426,-0.312609,-0.202772,-0.054107,0.254763
724,-0.077878,0.949579,-0.303686,-0.07973,-0.07667,-0.07612
725,-0.075895,0.951037,-0.299598,0.07202,-0.109195,-0.2261889999999999
726,-0.072074,0.948224,-0.309303,0.086341,-0.201642,-0.127663
727,-0.067564,0.942081,-0.328497,0.10127,-0.254413,0.086889
728,-0.063202,0.939192,-0.337514,-0.075134,-0.256208,0.239308
729,-0.063475,0.942499,-0.328113,-0.2503829999999999,-0.188684,0.228519
730,-0.069239,0.947514,-0.312112,-0.523321,0.261898,0.219385
731,-0.081368,0.945549,-0.31513,0.183693,0.834831,0.454122
732,-0.077936,0.942187,-0.325885,0.312052,0.3250099999999999,0.656482
733,-0.070659,0.943347,-0.324183,0.3353219999999999,-0.178028,0.342707
734,-0.058594,0.945866,-0.31921,-0.142944,1.025966,-0.012012
735,-0.047962,0.946263,-0.319808,-0.608471,2.424983,-0.316056
736,-0.057342,0.942221,-0.330036,-0.183746,0.711298,0.070026
737,-0.064051,0.935285,-0.34804,0.0125519999999999,-0.129712,0.318225
738,-0.065102,0.933112,-0.353633,-0.04705,-0.377265,0.260981
739,-0.056108,0.937122,-0.344451,-0.1257,-0.819599,0.183609
740,-0.039976,0.945678,-0.322626,0.022947,-0.25386,0.345087
741,-0.024832,0.955294,-0.294598,0.076254,0.1396609999999999,0.361264
742,-0.0129539999999999,0.964032,-0.265453,0.039473,0.184146,0.2133139999999999
743,-0.006893,0.971131,-0.238426,0.047436,0.154021,0.107002
744,-0.005852,0.975603,-0.2194429999999999,0.008156,0.0309279999999999,0.047369
745,-0.00856,0.977681,-0.2098969999999999,0.0077819999999999,-0.1236309999999999,0.022031
746,-0.01325,0.978446,-0.206054,-0.011653,-0.192084,-0.009492
747,-0.018378,0.978166,-0.206984,-0.013666,-0.14847,-0.023698
748,-0.023263,0.976566,-0.213932,0.0517809999999999,-0.218052,-0.0610919999999999
749,-0.028078,0.974264,-0.22363,0.2918719999999999,-0.296408,0.021818
750,-0.0318899999999999,0.971557,-0.2346239999999999,0.184295,-0.308227,0.193044
751,-0.037094,0.967898,-0.2485699999999999,0.151794,-0.349826,0.188893
752,-0.045124,0.964216,-0.261228,0.158451,-0.346678,0.074537
753,-0.0557779999999999,0.959198,-0.27716,0.209663,-0.459153,0.085616
754,-0.063207,0.955099,-0.289451,0.076024,-0.193822,-0.005852
755,-0.067751,0.953887,-0.292405,-0.007368,-0.026244,-0.080413
756,-0.073492,0.952368,-0.295946,-0.059046,0.057413,-0.107817
757,-0.07594,0.950263,-0.302032,-0.094943,0.029595,0.093749
758,-0.076527,0.947121,-0.311603,0.191349,-0.010735,0.423206
759,-0.071518,0.942089,-0.327634,0.302567,0.0267829999999999,0.5978979999999999
760,-0.060385,0.936651,-0.345007,-0.275339,0.545542,0.061712
761,-0.049706,0.925993,-0.374242,-0.532706,0.745958,0.196889
762,-0.035127,0.911715,-0.409308,-0.518996,0.7291380000000001,0.276145
763,-0.033686,0.899372,-0.435875,0.434,0.29446,0.123894
764,-0.043571,0.8881020000000001,-0.457568,0.070839,0.713964,0.163592
765,-0.037052,0.8807370000000001,-0.472146,-0.544964,0.985092,-0.141365
766,-0.02975,0.8767149999999999,-0.480081,-0.5128520000000001,0.7454770000000001,0.0074709999999999
767,-0.031789,0.8700030000000001,-0.492013,-0.253642,0.294014,0.048913
768,-0.04464,0.8647819999999999,-0.500153,-0.005608,0.103297,0.154557
769,-0.063724,0.8617100000000001,-0.5033770000000001,0.071537,-0.049088,0.319524
770,-0.08249,0.861332,-0.5012939999999999,-0.028335,-0.1613349999999999,0.321286
771,-0.099223,0.8635360000000001,-0.4944229999999999,-0.145269,-0.222133,0.296043
772,-0.107565,0.867482,-0.4856939999999999,-0.226801,-0.147587,0.2448949999999999
773,-0.1081049999999999,0.873627,-0.474429,-0.222904,-0.190888,0.192538
774,-0.106615,0.881323,-0.460322,-0.112685,-0.263281,0.207026
775,-0.104708,0.890335,-0.4430939999999999,0.01517,-0.349228,0.256784
776,-0.10328,0.90088,-0.421593,0.1119309999999999,-0.363511,0.1458819999999999
777,-0.102315,0.913052,-0.39479,0.108739,-0.341794,0.112014
778,-0.099698,0.924994,-0.366659,0.0559049999999999,-0.262503,0.17655
779,-0.090094,0.934215,-0.3451329999999999,-0.191202,-0.171703,0.282969
780,-0.079206,0.942009,-0.326092,-0.184756,-0.137932,0.370679
781,-0.071062,0.948176,-0.309683,-0.1131269999999999,0.027654,0.376639
782,-0.063513,0.953756,-0.293782,-0.310511,0.001887,-0.08485
783,-0.0586929999999999,0.958203,-0.279989,-0.244576,-0.02821,-0.18635
784,-0.0554669999999999,0.958544,-0.279479,-0.001402,-0.202791,-0.2530989999999999
785,-0.0520889999999999,0.953643,-0.296384,0.0447339999999999,-0.2264389999999999,-0.191897
786,-0.048661,0.949247,-0.310731,-0.047164,-0.115675,0.218842
787,-0.046885,0.950243,-0.3079469999999999,-0.34554,0.22537,0.161066
788,-0.0526409999999999,0.952602,-0.299617,-0.473543,0.6265,0.12086
789,-0.065683,0.948321,-0.310427,0.324533,0.243055,0.827593
790,-0.060574,0.946671,-0.316443,0.310254,-0.033997,0.381415
791,-0.050334,0.948415,-0.312996,0.330241,0.0579779999999999,0.1358869999999999
792,-0.036588,0.950295,-0.30918,-0.151294,0.838752,-0.200616
793,-0.027337,0.94717,-0.31955,-0.2098,1.802036,0.065323
794,-0.03001,0.942219,-0.3336369999999999,-0.1336099999999999,0.49998,0.154529
795,-0.032052,0.937642,-0.34611,-0.074271,0.0291089999999999,0.286875
796,-0.024652,0.936032,-0.351037,-0.067633,-0.491666,0.361032
797,-0.01129,0.939467,-0.34244,-0.092515,-0.550292,0.327059
798,0.00137,0.946452,-0.322827,-0.157163,-0.0284069999999999,0.173505
799,0.009824,0.952284,-0.305042,-0.07092,0.1771569999999999,0.189929
800,0.017436,0.957366,-0.288336,-0.043544,0.13939,0.208731
801,0.02257,0.962049,-0.271924,0.1216859999999999,0.0103629999999999,0.1867339999999999
802,0.023719,0.965347,-0.259871,0.167687,-0.081634,0.13571
803,0.021563,0.966849,-0.254419,0.080732,-0.170462,0.112588
804,0.016751,0.967297,-0.2530719999999999,0.017307,-0.167706,0.0687909999999999
805,0.011994,0.966528,-0.256262,-0.06189,-0.196249,-0.001932
806,0.00894,0.964651,-0.263359,-0.000425,-0.311453,0.026497
807,0.006044,0.962512,-0.271154,0.130431,-0.333179,0.051748
808,0.00261,0.96036,-0.278735,0.213927,-0.2454849999999999,0.0927149999999999
809,-0.00116,0.958155,-0.286232,0.076218,-0.191813,0.111854
810,-0.007081,0.95568,-0.294305,0.054337,-0.22512,0.070611
811,-0.0136949999999999,0.953038,-0.3025239999999999,0.006905,-0.296026,0.091663
812,-0.017255,0.951154,-0.308219,-0.023913,-0.23103,0.098869
813,-0.020581,0.949696,-0.312481,-0.0259589999999999,-0.1312299999999999,0.131024
814,-0.026825,0.947332,-0.319114,0.054107,-0.0790299999999999,0.239143
815,-0.032022,0.942523,-0.3325889999999999,0.1456849999999999,-0.038928,0.53814
816,-0.032558,0.936268,-0.349763,0.0275839999999999,0.305325,0.319291
817,-0.031434,0.927369,-0.372813,-0.467528,0.8428030000000001,-0.090062
818,-0.02352,0.915007,-0.4027429999999999,-0.608896,0.982515,-0.045408
819,-0.0137349999999999,0.901504,-0.432544,-0.3402989999999999,0.4382479999999999,0.186725
820,-0.013238,0.88931,-0.457104,0.157739,0.145861,0.2091179999999999
821,-0.013633,0.879956,-0.474851,-0.04287,0.845218,-0.11249
822,-0.00597,0.8741049999999999,-0.485693,-0.357464,0.984202,-0.13534
823,-0.0008359999999999,0.866251,-0.499601,-0.4892609999999999,0.536795,-0.0893419999999999
824,-0.0038979999999999,0.857878,-0.513832,-0.059289,-0.064833,0.20443
825,-0.01408,0.8536940000000001,-0.520578,0.0178949999999999,-0.169444,0.34588
826,-0.028843,0.8534459999999999,-0.5203770000000001,0.023548,-0.313025,0.369528
827,-0.047023,0.8565010000000001,-0.513992,-0.031316,-0.336771,0.2674559999999999
828,-0.061647,0.8614870000000001,-0.504016,-0.07942,-0.262839,0.2171809999999999
829,-0.0687,0.868577,-0.490762,-0.16595,-0.186524,0.065957
830,-0.070668,0.8771629999999999,-0.474956,-0.132258,-0.195629,0.040554
831,-0.067911,0.8862979999999999,-0.4581,-0.055898,-0.253562,0.123261
832,-0.064034,0.8956930000000001,-0.440028,-0.056754,-0.342257,0.287441
833,-0.061713,0.906887,-0.4168199999999999,-0.138741,-0.306484,0.328884
834,-0.05679,0.919931,-0.387933,-0.257373,-0.2286159999999999,0.346262
835,-0.053006,0.931807,-0.3590489999999999,-0.139544,0.048647,0.2584329999999999
836,-0.054777,0.940978,-0.333991,-0.046449,0.066301,0.084174
837,-0.058778,0.946295,-0.317899,-0.10504,-0.002768,-0.061496
838,-0.060933,0.947628,-0.313492,-0.150615,-0.110134,-0.03543
839,-0.0619399999999999,0.946197,-0.31759,-0.136684,-0.258057,-0.066245
840,-0.061844,0.943351,-0.325965,-0.100479,-0.298454,-0.07876
841,-0.0606909999999999,0.94083,-0.333383,-0.259927,-0.07909,0.086572
842,-0.0620059999999999,0.940922,-0.332882,-0.299979,0.4937399999999999,0.368664
843,-0.075664,0.939842,-0.333109,0.179454,0.788292,0.5806680000000001
844,-0.086158,0.937931,-0.335934,0.347587,0.045818,0.702542
845,-0.080492,0.939957,-0.33165,0.078814,0.214096,0.221085
846,-0.071083,0.939586,-0.334836,0.063423,0.441701,0.093762
847,-0.060196,0.937708,-0.342154,-0.1902,1.347768,-0.313623
848,-0.0579919999999999,0.931027,-0.360299,0.0184259999999999,1.122607,0.026407
849,-0.059641,0.924991,-0.375268,0.016199,0.5946779999999999,0.176324
850,-0.061894,0.921813,-0.3826489999999999,-0.037502,-0.239608,0.39507
851,-0.057767,0.923798,-0.378484,-0.097613,-0.573579,0.292638
852,-0.049128,0.930446,-0.363109,-0.138525,-0.448665,0.2386579999999999
853,-0.043213,0.938912,-0.341419,0.013535,0.214576,0.1212039999999999
854,-0.039261,0.945534,-0.323132,0.269959,0.174568,0.263516
855,-0.0347769999999999,0.950604,-0.308435,0.2301659999999999,0.088458,0.298883
856,-0.03473,0.953895,-0.298108,0.159867,-0.072715,0.30534
857,-0.03903,0.955644,-0.291909,0.035703,-0.2141429999999999,0.179086
858,-0.045639,0.956097,-0.289455,-0.0784,-0.274075,0.003139
859,-0.051772,0.955741,-0.289598,-0.09369,-0.271965,-0.016753
860,-0.054603,0.953799,-0.2954239999999999,-0.042489,-0.29349,0.060759
861,-0.0548429999999999,0.951807,-0.301736,0.082447,-0.2998139999999999,0.0886779999999999
862,-0.0542659999999999,0.950139,-0.30705,0.252036,-0.250661,-0.009265
863,-0.053965,0.94876,-0.311337,0.30575,-0.22499,0.095334
864,-0.054403,0.946968,-0.3166739999999999,0.275121,-0.210029,0.153221
865,-0.058587,0.944817,-0.3223,0.082833,-0.2181179999999999,0.206882
866,-0.066892,0.941554,-0.330138,-0.025775,-0.214869,0.14923
867,-0.079378,0.936821,-0.3406679999999999,0.092837,-0.201241,0.244141
868,-0.088736,0.930103,-0.356404,0.2153989999999999,0.003948,0.5318350000000001
869,-0.088924,0.923752,-0.372513,-0.420902,0.814972,-0.03862
870,-0.089784,0.914867,-0.393635,-0.514983,0.8988389999999999,-0.087291
871,-0.079439,0.903121,-0.421963,-0.402982,0.739106,0.08778
872,-0.068188,0.890287,-0.4502569999999999,-0.216435,0.238222,0.128418
873,-0.067841,0.8789549999999999,-0.472047,0.0522929999999999,0.101575,0.095292
874,-0.064069,0.871242,-0.486646,0.0067569999999999,0.607273,-0.084399
875,-0.050844,0.8677969999999999,-0.494302,-0.341764,0.767533,-0.163931
876,-0.044591,0.8641280000000001,-0.5012850000000001,-0.320094,0.609719,-0.178509
877,-0.048081,0.860316,-0.5074810000000001,-0.071609,0.101156,0.053044
878,-0.0579909999999999,0.8587110000000001,-0.509161,-0.006584,-0.005866,0.190573
879,-0.073027,0.860707,-0.5038279999999999,0.042601,-0.1849869999999999,0.338514
880,-0.090622,0.866185,-0.491429,0.021744,-0.335622,0.262273
881,-0.103862,0.873333,-0.475913,-0.026784,-0.291455,0.228812
882,-0.1091109999999999,0.8811399999999999,-0.460085,-0.053227,-0.300406,0.239946
883,-0.10858,0.888759,-0.445318,-0.042039,-0.400555,0.290167
884,-0.105999,0.8962690000000001,-0.430647,0.002896,-0.423857,0.278319
885,-0.106022,0.904743,-0.412542,0.03426,-0.423587,0.271231
886,-0.108852,0.91473,-0.389117,0.04977,-0.299098,0.217105
887,-0.1095589999999999,0.926005,-0.36125,-0.14543,-0.087199,0.352294
888,-0.108449,0.934286,-0.339615,-0.352977,0.026743,0.2335969999999999
889,-0.113804,0.938744,-0.325267,-0.1997789999999999,-0.096551,0.230815
890,-0.118102,0.94075,-0.3178539999999999,-0.179399,-0.101715,0.022475
891,-0.119708,0.941423,-0.315251,-0.128904,-0.216951,-0.050304
892,-0.117443,0.940571,-0.318629,-0.068378,-0.289646,-0.063421
893,-0.1139579999999999,0.936589,-0.331367,-0.137874,-0.122243,0.133491
894,-0.116502,0.934839,-0.335401,-0.0968919999999999,0.588598,0.597654
895,-0.132864,0.934265,-0.330887,0.139593,0.8500979999999999,0.375168
896,-0.151167,0.930292,-0.334208,0.42967,-0.199701,0.351893
897,-0.14489,0.930209,-0.337207,0.317512,-0.185488,0.178607
898,-0.127631,0.933377,-0.335421,0.048744,0.6008789999999999,-0.261473
899,-0.115794,0.929021,-0.35143,0.250743,2.186488,-0.012065
900,-0.11288,0.918784,-0.378266,-0.03127,0.954034,0.3612059999999999
901,-0.122511,0.909051,-0.398258,-0.1002059999999999,-0.1557849999999999,0.381535
902,-0.125949,0.904128,-0.4082639999999999,-0.137708,-0.777694,0.138092
903,-0.122777,0.907136,-0.402517,-0.144649,-0.766862,0.1122799999999999
904,-0.1164109999999999,0.916521,-0.382661,-0.014815,-0.053407,0.125581
905,-0.107295,0.925161,-0.364081,0.216594,0.2333469999999999,0.366797
906,-0.097764,0.933982,-0.343671,0.233201,-0.0286319999999999,0.310864
907,-0.0960169999999999,0.941985,-0.321612,0.38418,0.090668,0.134173
908,-0.098634,0.947344,-0.304633,0.290223,0.086851,0.0371149999999999
909,-0.104799,0.949112,-0.296975,0.224077,-0.0342709999999999,0.00364
910,-0.112974,0.949419,-0.292966,0.125364,-0.2712429999999999,0.031934
911,-0.1198549999999999,0.949986,-0.288359,0.080198,-0.417531,-0.008699
912,-0.126463,0.951379,-0.280848,0.114698,-0.441842,-0.056448
913,-0.133444,0.953441,-0.27043,0.298743,-0.366954,0.113096
914,-0.142438,0.955271,-0.25915,0.2559329999999999,-0.192713,0.047221
915,-0.150085,0.956949,-0.248419,0.2707969999999999,-0.0897309999999999,0.00762
916,-0.1552,0.959493,-0.2351079999999999,0.416277,0.017939,-0.01892
917,-0.160456,0.962107,-0.22044,0.370523,0.021414,0.008587
918,-0.166823,0.963384,-0.209884,0.245665,0.038615,0.330505
919,-0.171701,0.962862,-0.208338,0.064569,0.197981,0.4533779999999999
920,-0.171841,0.961944,-0.2124239999999999,-0.155796,0.466157,0.529609
921,-0.165422,0.960738,-0.222725,-0.320219,0.545762,0.443046
922,-0.161429,0.955851,-0.245517,-0.342981,0.728155,0.107761
923,-0.156777,0.946692,-0.281398,-0.3398199999999999,0.62893,0.122126
924,-0.148504,0.93469,-0.322942,-0.224848,0.625613,0.180257
925,-0.135959,0.922551,-0.361118,0.166461,0.563137,0.220401
926,-0.127323,0.914661,-0.383634,0.196155,0.522641,0.0545019999999999
927,-0.131514,0.908127,-0.397494,0.253279,0.491104,-0.017408
928,-0.140169,0.901239,-0.410016,0.224322,0.270911,0.1039089999999999
929,-0.15828,0.894682,-0.4177119999999999,0.2401739999999999,0.145556,0.231143
930,-0.185297,0.889141,-0.418431,0.226648,0.105717,0.267919
931,-0.2131449999999999,0.885178,-0.413546,0.090114,-0.12764,0.273852
932,-0.235892,0.882258,-0.407391,0.05744,-0.271998,0.290798
933,-0.253666,0.881849,-0.397476,0.04961,-0.37013,0.321686
934,-0.267716,0.8845069999999999,-0.382057,0.1005559999999999,-0.586518,0.328667
935,-0.277708,0.8896290000000001,-0.362533,0.171522,-0.553737,0.264403
936,-0.28145,0.897533,-0.339429,0.177217,-0.5378069999999999,0.196149
937,-0.280381,0.906785,-0.3148309999999999,0.150483,-0.287614,0.215329
938,-0.278731,0.913872,-0.295189,-0.06862,0.277961,0.1962819999999999
939,-0.27996,0.915595,-0.288614,-0.2405929999999999,0.551491,0.202615
940,-0.281341,0.916207,-0.28531,-0.138947,0.4458229999999999,-0.400817
941,-0.283167,0.915705,-0.285117,0.071512,0.3195699999999999,-0.4294979999999999
942,-0.282895,0.914277,-0.289928,0.335248,-0.008683,-0.374028
943,-0.284,0.910357,-0.3009739999999999,0.390796,0.492979,0.029886
944,-0.289444,0.902521,-0.318856,0.245408,1.226553,0.17669
945,-0.300481,0.895208,-0.329096,0.454442,0.451136,0.062983
946,-0.314002,0.89154,-0.326421,0.416541,-0.1192619999999999,0.199223
947,-0.328412,0.891648,-0.311609,0.512021,-0.3694159999999999,0.423685
948,-0.341663,0.895175,-0.2862139999999999,0.7708010000000001,-0.3563719999999999,0.553487
949,-0.348003,0.90076,-0.259835,0.752239,-0.018345,0.599007
950,-0.345672,0.909588,-0.230544,0.201095,0.6353340000000001,0.695723
951,-0.340773,0.920093,-0.193109,-0.04793,0.648556,0.439584
952,-0.336415,0.928332,-0.158156,-0.194148,0.32649,0.130568
953,-0.329886,0.934325,-0.134907,-0.1582579999999999,0.044099,0.068989
954,-0.320957,0.939359,-0.120739,0.065982,-0.089826,0.156643
955,-0.313238,0.943772,-0.105655,0.227911,-0.144746,0.098071
956,-0.309782,0.946439,-0.090968,0.396513,-0.044126,0.108501
957,-0.308628,0.948041,-0.077161,0.455143,-0.003995,0.10008
958,-0.309145,0.948933,-0.062783,0.465136,-0.082539,0.06997
959,-0.310536,0.949261,-0.049567,0.4389689999999999,-0.099011,0.042747
960,-0.311786,0.949414,-0.037269,0.4104649999999999,-0.08717,0.005622
961,-0.313509,0.949291,-0.023354,0.3632829999999999,-0.03352,-0.0503
962,-0.316474,0.948558,-0.00826,0.311332,-0.0198169999999999,-0.141627
963,-0.3208809999999999,0.947101,0.004506,0.294636,-0.040607,-0.1496019999999999
964,-0.325934,0.945308,0.012032,0.180411,0.0033,-0.080209
965,-0.330807,0.943505,0.018695,-0.0117989999999999,0.03472,-0.05852
966,-0.337047,0.941109,0.026411,-0.019581,0.049018,-0.0072
967,-0.344567,0.938302,0.029133,0.180276,0.034293,0.09454
968,-0.350783,0.936035,0.02785,0.3536829999999999,0.100785,0.092831
969,-0.354435,0.934691,0.026716,0.5618479999999999,0.317506,0.091143
970,-0.352625,0.935486,0.02253,0.361658,0.564133,0.111488
971,-0.3438489999999999,0.938891,0.015411,0.290153,0.351286,0.211883
972,-0.332056,0.943243,0.0040149999999999,0.229853,0.170175,0.234328
973,-0.324982,0.945582,-0.015749,0.14653,-0.089121,0.28647
974,-0.325398,0.944835,-0.037273,0.247364,-0.067256,0.130413
975,-0.3292239999999999,0.942443,-0.058299,0.273377,0.034043,0.079646
976,-0.329758,0.94026,-0.084607,0.2464,0.23514,-0.022448
977,-0.325119,0.9384,-0.117005,0.315185,0.330475,0.038696
978,-0.317735,0.936431,-0.14876,0.296525,0.294587,0.0792409999999999
979,-0.31373,0.933789,-0.172047,0.272607,0.152698,0.111607
980,-0.314359,0.930456,-0.188199,0.333768,0.127101,0.119764
981,-0.318918,0.926829,-0.19816,0.3977449999999999,0.105993,0.124139
982,-0.325457,0.923554,-0.202765,0.428301,0.0116569999999999,0.099829
983,-0.332192,0.920611,-0.20521,0.378792,-0.034183,0.1031589999999999
984,-0.3374,0.918628,-0.205602,0.347731,-0.035312,0.083837
985,-0.340865,0.917702,-0.204014,0.237502,-0.070717,0.07549
986,-0.344221,0.917484,-0.1993049999999999,0.230437,-0.1171609999999999,0.1138859999999999
987,-0.3473219999999999,0.918293,-0.1899829999999999,0.2287,-0.174091,0.1953079999999999
988,-0.349325,0.920471,-0.175192,0.191351,-0.141236,0.177725
989,-0.350121,0.923551,-0.156381,0.191155,-0.061583,0.1131369999999999
990,-0.350433,0.926623,-0.136208,0.204681,-0.0401329999999999,0.110177
991,-0.35086,0.929121,-0.116697,0.206344,-0.011946,0.036635
992,-0.351456,0.930946,-0.099017,0.187409,0.0748679999999999,-0.148725
993,-0.351319,0.932411,-0.084678,0.20459,0.105324,-0.211525
994,-0.34781,0.934483,-0.075872,0.234879,0.096813,-0.157267
995,-0.340602,0.937505,-0.071142,0.211527,0.084727,-0.157405
996,-0.331471,0.941033,-0.06761,0.247822,0.068565,-0.217211
997,-0.3204869999999999,0.945019,-0.0649059999999999,0.316215,-0.006878,-0.205113
998,-0.308176,0.949128,-0.064576,0.278375,0.084182,-0.211792
999,-0.295473,0.952985,-0.06709,0.139116,0.3430809999999999,-0.188663
1000,-0.283308,0.956379,-0.071146,0.020673,0.702923,-0.099035
1001,-0.27578,0.958574,-0.071188,0.094063,0.4936819999999999,0.005407
1002,-0.272701,0.96011,-0.061708,0.12495,-0.1235769999999999,-0.045348
1003,-0.274516,0.96044,-0.046693,0.2054239999999999,-0.365698,-0.0829
1004,-0.276303,0.960584,-0.030319,0.369854,-0.35716,0.278396
1005,-0.27645,0.960973,-0.009455,0.4375529999999999,-0.305196,0.3317969999999999
1006,-0.274957,0.961342,0.0142569999999999,0.446741,0.035805,0.232462
1007,-0.270267,0.962122,0.035487,0.349551,0.383215,0.094732
1008,-0.261384,0.963816,0.052148,0.268373,0.3134969999999999,0.005485
1009,-0.249117,0.966261,0.065278,0.192278,0.116578,-0.1128849999999999
1010,-0.233866,0.969532,0.072766,0.099283,0.0482589999999999,-0.136365
1011,-0.2169739999999999,0.973054,0.07791,-0.03887,0.009704,-0.105849
1012,-0.20143,0.975729,0.085782,-0.007462,-0.067786,-0.113996
1013,-0.188621,0.977391,0.095436,0.052726,-0.11147,-0.146584
1014,-0.178464,0.978308,0.105095,0.15228,-0.1191,-0.133141
1015,-0.169953,0.978752,0.1146339999999999,0.194734,-0.120826,-0.115916
1016,-0.162731,0.979166,0.1213809999999999,0.171093,-0.142892,-0.143582
1017,-0.15633,0.979708,0.125352,0.142033,-0.137743,-0.174378
1018,-0.152053,0.980095,0.127567,0.117675,-0.075081,-0.2635989999999999
1019,-0.151391,0.980451,0.125603,0.131463,-0.097395,-0.282112
1020,-0.153014,0.98116,0.117862,0.125182,-0.146199,-0.2372159999999999
1021,-0.156073,0.981836,0.107793,0.041968,-0.256677,-0.147786
1022,-0.160081,0.982054,0.099621,0.065522,-0.408858,-0.187756
1023,-0.163464,0.98218,0.092644,0.068051,-0.411562,-0.241021
1024,-0.166816,0.982329,0.084746,0.016974,-0.290618,-0.30635
1025,-0.170078,0.982618,0.074279,0.050479,-0.234906,-0.275954
1026,-0.1728319999999999,0.982949,0.062619,0.095791,-0.195397,-0.192762
1027,-0.176215,0.98288,0.053639,0.177558,-0.199951,-0.143544
1028,-0.180637,0.982479,0.045685,0.189868,-0.186214,-0.136978
1029,-0.184992,0.982067,0.036116,0.247523,-0.170619,-0.08171
1030,-0.187655,0.982002,0.020981,0.212634,0.230782,0.11911
1031,-0.185552,0.982625,-0.0004219999999999,0.124044,0.455684,0.078135
1032,-0.174864,0.984296,-0.023791,-0.226534,0.77431,-0.3937199999999999
1033,-0.166796,0.984616,-0.051896,-0.2099739999999999,0.561862,-0.210983
1034,-0.165588,0.982622,-0.083768,-0.024796,0.161909,-0.180392
1035,-0.1678059999999999,0.979578,-0.110689,0.268789,0.213171,-0.305983
1036,-0.162996,0.977832,-0.131382,-0.262129,0.773984,-0.463924
1037,-0.155739,0.977821,-0.139984,-0.340095,0.655281,-0.365738
1038,-0.154284,0.977184,-0.145918,-0.310819,0.376774,-0.390092
1039,-0.160145,0.975984,-0.147625,0.150502,-0.065568,-0.1248349999999999
1040,-0.169928,0.975501,-0.1396599999999999,0.263297,-0.328437,0.0269899999999999
1041,-0.1807369999999999,0.975596,-0.124623,0.1238369999999999,-0.516642,-0.05685
1042,-0.190687,0.975747,-0.107418,-0.0120109999999999,-0.443917,-0.154469
1043,-0.19433,0.976881,-0.089007,-0.07427,-0.395887,-0.162183
1044,-0.191039,0.979003,-0.070987,-0.118516,-0.403808,-0.118817
1045,-0.183676,0.981579,-0.052422,-0.068856,-0.3860889999999999,-0.11872
1046,-0.175612,0.983931,-0.031967,0.1086109999999999,-0.341658,-0.0203099999999999
1047,-0.167493,0.985825,-0.008734,0.10626,-0.306428,-0.000863
1048,-0.158618,0.98724,0.013349,-0.068661,-0.094296,-0.153944
1049,-0.152408,0.98775,0.033204,-0.116131,0.010816,-0.081208
1050,-0.148931,0.987898,0.0431029999999999,-0.220042,0.0090049999999999,-0.2415429999999999
1051,-0.14745,0.987833,0.049235,-0.171901,-0.086542,-0.432872
1052,-0.147643,0.987724,0.050816,0.07466,-0.20182,-0.4899489999999999
1053,-0.147565,0.98799,0.045598,0.110578,-0.24739,-0.4320729999999999
1054,-0.146431,0.988502,0.037445,0.165443,-0.339866,-0.377349
1055,-0.144257,0.988899,0.035345,0.101258,-0.313758,-0.334844
1056,-0.142402,0.988828,0.043829,0.07595,-0.345776,-0.294714
1057,-0.140702,0.988169,0.0608549999999999,0.04178,-0.340769,-0.075503
1058,-0.141023,0.986981,0.077204,-0.1453839999999999,0.326679,0.183798
1059,-0.146735,0.985629,0.08356,-0.176721,0.700955,0.086545
1060,-0.152939,0.984973,0.080095,0.230378,0.74226,0.2615639999999999
1061,-0.148165,0.985817,0.078678,0.4980489999999999,0.0662,-0.165119
1062,-0.133365,0.988208,0.075075,0.4427069999999999,-0.048038,-0.100847
1063,-0.121473,0.990278,0.06762,-0.0904259999999999,1.112185,-0.662255
1064,-0.128423,0.990927,0.039372,-0.082423,1.959803,-0.274555
1065,-0.13759,0.990258,0.020884,-0.07408,0.2112489999999999,-0.075388
1066,-0.142068,0.98979,0.010576,0.204019,-0.498838,-0.181322
1067,-0.136597,0.990582,0.008179,0.143341,-0.557767,-0.057464
1068,-0.123216,0.992092,0.023424,0.123872,-0.479519,-0.032671
1069,-0.1107099999999999,0.992878,0.043741,0.115745,0.1020929999999999,-0.077875
1070,-0.104743,0.992721,0.059251,0.15116,0.125946,-0.067583
1071,-0.1027569999999999,0.991969,0.073582,0.131108,-0.051845,-0.046894
1072,-0.104122,0.990916,0.084973,0.110195,-0.093165,-0.155027
1073,-0.107509,0.990258,0.088362,0.024944,-0.1274799999999999,-0.222242
1074,-0.1152319999999999,0.989719,0.0845799999999999,0.011884,-0.350513,-0.225571
1075,-0.123999,0.989223,0.077712,0.08924,-0.459437,-0.255843
1076,-0.131158,0.988987,0.068393,0.202584,-0.4637189999999999,-0.329577
1077,-0.135399,0.98908,0.058008,0.288643,-0.378362,-0.337244
1078,-0.137617,0.989307,0.048069,0.344907,-0.358005,-0.247394
1079,-0.137617,0.98968,0.039638,0.2907389999999999,-0.2957869999999999,-0.191096
1080,-0.137924,0.989919,0.031851,0.205032,-0.184347,-0.270895
1081,-0.140994,0.989675,0.025341,0.237078,-0.2204179999999999,-0.241528
1082,-0.146154,0.989125,0.015731,0.23763,-0.222631,0.004472
1083,-0.150998,0.988523,-0.000287,-0.058276,0.269534,0.2137119999999999
1084,-0.151314,0.988255,-0.020828,-0.475884,0.966914,-0.238175
1085,-0.146197,0.988224,-0.044936,-0.605909,0.973614,-0.410112
1086,-0.140246,0.987015,-0.078183,-0.289609,0.469116,-0.2646969999999999
1087,-0.136988,0.983953,-0.114244,0.208323,0.163432,-0.161711
1088,-0.138575,0.980642,-0.138274,0.4162229999999999,0.495936,-0.3744369999999999
1089,-0.131376,0.979515,-0.15255,-0.097811,0.935219,-0.562233
1090,-0.120538,0.979375,-0.162101,-0.087408,0.260768,-0.5091939999999999
1091,-0.118854,0.977994,-0.171413,0.042072,0.043231,-0.381382
1092,-0.127429,0.976199,-0.175438,0.103076,-0.093936,-0.216194
1093,-0.1416089999999999,0.975013,-0.1711089999999999,0.005135,-0.313849,0.05467
1094,-0.157389,0.974692,-0.158701,-0.026082,-0.451834,0.071085
1095,-0.170989,0.974998,-0.141852,-0.0168919999999999,-0.491401,0.057547
1096,-0.177972,0.976299,-0.123073,-0.079658,-0.478099,-0.066258
1097,-0.178071,0.978466,-0.1042839999999999,-0.081054,-0.412243,-0.091608
1098,-0.173183,0.981094,-0.086269,-0.081929,-0.402709,-0.104847
1099,-0.1655309999999999,0.983749,-0.069396,0.001697,-0.421402,-0.0896769999999999
1100,-0.156579,0.986313,-0.051459,0.06556,-0.354981,-0.114923
1101,-0.146755,0.988701,-0.030208,0.045955,-0.310112,-0.135243
1102,-0.136315,0.990627,-0.0073939999999999,-0.080772,-0.299297,-0.167838
1103,-0.126929,0.991786,0.015056,-0.0487149999999999,-0.110469,-0.069087
1104,-0.120179,0.992189,0.033081,-0.032576,0.042967,-0.110275
1105,-0.116292,0.992334,0.041555,-0.203838,-0.0302519999999999,-0.41953
1106,-0.114769,0.99251,0.041575,-0.109871,-0.212954,-0.401011
1107,-0.115517,0.992831,0.030323,-0.033348,-0.29027,-0.379902
1108,-0.117184,0.993002,0.013812,-0.035694,-0.362616,-0.447939
1109,-0.119373,0.992805,0.008123,-0.085354,-0.256492,-0.316823
1110,-0.1229349999999999,0.992241,0.017907,-0.291753,0.144584,-0.045846
1111,-0.132298,0.99087,0.025516,0.170262,0.802908,0.2917599999999999
1112,-0.142875,0.989459,0.0231129999999999,0.48931,0.4148229999999999,0.462605
1113,-0.143734,0.989345,0.022675,0.313702,0.209371,-0.193207
1114,-0.138319,0.990145,0.021361,0.285033,0.095151,-0.175887
1115,-0.128742,0.991483,0.019062,-0.1877859999999999,0.983614,-0.680561
1116,-0.127633,0.991808,-0.002035,-0.143546,1.488096,-0.312143
1117,-0.131226,0.991184,-0.017655,-0.008179,0.358929,0.0243229999999999
1118,-0.134735,0.990523,-0.026217,0.225845,-0.405303,-0.0250069999999999
1119,-0.133856,0.990699,-0.023979,0.178641,-0.537467,-0.079872
1120,-0.126715,0.991899,-0.007579,-0.100122,-0.313875,-0.155766
1121,-0.12134,0.992497,0.014236,0.026141,0.488185,-0.169952
1122,-0.1209609999999999,0.992226,0.0288509999999999,0.082539,0.3648909999999999,-0.090665
1123,-0.122795,0.991609,0.040105,0.165642,0.039656,0.00233
1124,-0.1258099999999999,0.990727,0.05106,0.274034,-0.120503,-0.119556
1125,-0.128379,0.989833,0.0610299999999999,0.2045819999999999,-0.178569,-0.183436
1126,-0.132114,0.988964,0.066872,0.049961,-0.2573809999999999,-0.2449579999999999
1127,-0.137032,0.988142,0.069083,-0.000129,-0.274657,-0.12995
1128,-0.1435,0.98732,0.067696,0.032416,-0.290604,-0.093269
1129,-0.150451,0.986503,0.064433,0.178969,-0.407722,-0.148387
1130,-0.156589,0.985704,0.061991,0.266117,-0.398027,-0.230998
1131,-0.162186,0.984912,0.0601679999999999,0.265442,-0.265765,-0.150439
1132,-0.167022,0.984328,0.056376,0.11557,-0.258253,-0.202784
1133,-0.171773,0.983646,0.053943,0.085057,-0.270389,-0.250507
1134,-0.179135,0.982431,0.052107,0.154004,-0.239893,-0.346495
1135,-0.1890619999999999,0.980684,0.0499019999999999,0.243582,-0.1746839999999999,-0.287755
1136,-0.200829,0.978491,0.046882,0.270241,-0.157859,-0.235969
1137,-0.2133679999999999,0.975964,0.044084,0.2500199999999999,-0.143353,-0.2454849999999999
1138,-0.225725,0.973402,0.038897,0.349688,-0.040693,0.047911
1139,-0.234267,0.971837,0.0250759999999999,0.223373,0.252834,0.09086
1140,-0.2336219999999999,0.97227,0.009469,-0.286244,0.647634,-0.23301
1141,-0.232944,0.972338,-0.016551,-0.6446649999999999,0.521238,-0.209157
1142,-0.229659,0.971739,-0.054407,-0.623185,0.437243,-0.1171329999999999
1143,-0.226978,0.970263,-0.083971,-0.287869,0.3109719999999999,-0.067122
1144,-0.2253369999999999,0.968643,-0.10457,0.405146,0.727982,-0.438185
1145,-0.2134849999999999,0.968766,-0.126086,0.1557,1.059387,-0.494016
1146,-0.199916,0.969509,-0.141658,0.123744,0.871906,-0.472264
1147,-0.195717,0.96767,-0.159031,-0.001411,0.146038,-0.3745679999999999
1148,-0.198873,0.964659,-0.172815,0.034658,-0.0912,-0.1845
1149,-0.203699,0.962775,-0.1776299999999999,0.054895,-0.164313,-0.0996679999999999
1150,-0.208586,0.962778,-0.171846,0.171263,-0.3502139999999999,-0.04988
1151,-0.212981,0.963622,-0.161405,0.204421,-0.432571,-0.0277889999999999
1152,-0.2149179999999999,0.96521,-0.148863,0.195615,-0.438141,-0.021928
1153,-0.213678,0.967558,-0.134735,0.173059,-0.4809859999999999,-0.020859
1154,-0.211138,0.970091,-0.119684,0.204638,-0.407851,-0.003958
1155,-0.2050199999999999,0.973236,-0.103723,0.178592,-0.368286,-0.0413269999999999
1156,-0.1950309999999999,0.97713,-0.084611,0.06965,-0.3562349999999999,-0.0612929999999999
1157,-0.181873,0.981309,-0.062723,-0.048687,-0.243775,-0.124517
1158,-0.167047,0.985168,-0.038963,-0.148887,-0.07257,-0.099327
1159,-0.151033,0.988417,-0.014046,-0.196196,-0.00157,-0.087532
1160,-0.136006,0.99067,0.00714,-0.157802,-0.261972,-0.066192
1161,-0.129951,0.991224,0.023733,-0.038094,-0.296858,-0.074972
1162,-0.131654,0.99051,0.039158,-0.01335,-0.356782,-0.2338449999999999
1163,-0.135884,0.989209,0.054548,-0.033107,-0.304563,-0.343488
1164,-0.139541,0.988262,0.0619759999999999,0.025268,-0.2382929999999999,-0.364482
1165,-0.138195,0.988571,0.060038,0.041225,-0.217361,-0.405466
1166,-0.133154,0.989632,0.053597,-0.025537,-0.211312,-0.342095
1167,-0.127848,0.990496,0.050466,-0.094015,-0.270785,-0.209738
1168,-0.124938,0.990705,0.053569,-0.293641,0.007495,-0.045635
1169,-0.130959,0.99007,0.050855,-0.163367,1.073834,-0.052701
1170,-0.146375,0.988772,0.029646,0.275784,0.88371,0.162248
1171,-0.149501,0.988648,0.014138,0.393916,0.093322,-0.155648
1172,-0.138588,0.99027,0.011601,0.240517,0.089732,-0.3779949999999999
1173,-0.124226,0.992242,-0.0001409999999999,-0.201595,1.678504,-0.59515
1174,-0.12295,0.991861,-0.032722,0.013987,0.674917,-0.185784
1175,-0.1252619999999999,0.990959,-0.047809,-0.010206,0.266273,-0.253155
1176,-0.128307,0.990106,-0.056603,0.051998,-0.169382,-0.07212
1177,-0.123997,0.990702,-0.055785,0.073918,-0.32548,-0.0986799999999999
1178,-0.1128869999999999,0.992642,-0.043532,0.045626,-0.221051,-0.112215
1179,-0.099947,0.994666,-0.025059,0.1601119999999999,0.368875,-0.17651
1180,-0.091746,0.995742,-0.007531,0.222849,0.1335299999999999,-0.153754
1181,-0.087607,0.996104,0.0088209999999999,0.239142,0.011464,-0.120728
1182,-0.08532,0.995983,0.026737,0.225671,-0.187618,-0.105625
1183,-0.0837789999999999,0.995503,0.043935,0.122445,-0.232594,-0.170354
1184,-0.084437,0.994796,0.056808,0.07194,-0.249099,-0.201721
1185,-0.087695,0.993972,0.065602,0.0319389999999999,-0.254653,-0.230015
1186,-0.091803,0.993219,0.071151,0.038153,-0.350931,-0.231719
1187,-0.095482,0.992726,0.073166,0.0541,-0.413502,-0.226883
1188,-0.099151,0.992514,0.071131,0.212509,-0.4355979999999999,-0.242228
1189,-0.102256,0.992659,0.064394,0.176155,-0.383604,-0.169512
1190,-0.103618,0.992977,0.05687,0.139171,-0.311046,-0.219407
1191,-0.1043299999999999,0.993111,0.0531,0.138525,-0.234566,-0.275924
1192,-0.105602,0.993211,0.048512,0.17976,-0.133562,-0.419255
1193,-0.107888,0.993194,0.043605,0.231316,-0.1298359999999999,-0.3190409999999999
1194,-0.111398,0.992959,0.039971,0.206109,-0.0921559999999999,-0.275658
1195,-0.116342,0.99261,0.034132,0.184701,-0.11613,-0.081526
1196,-0.1223619999999999,0.992236,0.021698,0.238894,-0.074649,0.231598
1197,-0.123304,0.992347,0.004255,-0.053484,0.300514,0.029269
1198,-0.1152589999999999,0.993264,-0.010816,-0.308401,0.691962,-0.367419
1199,-0.109897,0.993365,-0.033532,-0.183072,0.675519,-0.360144
1200,-0.108675,0.992047,-0.063314,-0.133574,0.420962,-0.227107
1201,-0.111285,0.989521,-0.0918799999999999,-0.075239,0.468991,-0.133569
1202,-0.108379,0.987157,-0.117274,-0.430531,0.77,-0.364828
1203,-0.099739,0.985585,-0.136573,-0.302681,0.498119,-0.262109
1204,-0.0934919999999999,0.984277,-0.149791,-0.0230389999999999,0.156272,-0.34847
1205,-0.094194,0.982529,-0.160444,0.159288,0.001174,-0.2035549999999999
1206,-0.099423,0.980943,-0.166869,0.06596,-0.01999,-0.115541
1207,-0.1069609999999999,0.980059,-0.1674,-0.0251039999999999,-0.154192,-0.044606
1208,-0.114791,0.980211,-0.161209,-0.0791019999999999,-0.323839,-0.006272
1209,-0.122465,0.981044,-0.150113,-0.140184,-0.358775,-0.0181759999999999
1210,-0.127772,0.982363,-0.136439,-0.169195,-0.311953,-0.070226
1211,-0.1294529999999999,0.984404,-0.1190339999999999,-0.141009,-0.344862,-0.079788
1212,-0.128228,0.986882,-0.097974,-0.020377,-0.435872,-0.070575
1213,-0.1245049999999999,0.989367,-0.075021,0.034814,-0.548968,-0.090186
1214,-0.119491,0.99144,-0.05239,0.095733,-0.638474,-0.028298
1215,-0.113419,0.993032,-0.031613,0.082352,-0.63973,0.101238
1216,-0.107391,0.994165,-0.0088019999999999,-0.083664,-0.4098449999999999,0.0978059999999999
1217,-0.1030079999999999,0.994532,0.016398,-0.171589,-0.030101,0.10082
1218,-0.0976799999999999,0.994501,0.0374139999999999,-0.362953,0.214559,-0.124694
1219,-0.0899399999999999,0.994289,0.057222,-0.283168,0.077321,-0.6116199999999999
1220,-0.085105,0.994259,0.0646419999999999,-0.093697,-0.088147,-0.640356
1221,-0.083108,0.995058,0.054096,0.066705,-0.287218,-0.604557
1222,-0.087142,0.995832,0.0264589999999999,0.128691,-0.085737,-0.025223
1223,-0.094489,0.995494,0.006154,0.016547,-0.002025,0.066936
1224,-0.100841,0.994802,0.0132539999999999,-0.27631,0.564555,-0.192667
1225,-0.116721,0.992922,0.021369,0.258506,0.511243,0.012231
1226,-0.1290369999999999,0.991603,0.0068969999999999,0.148904,-0.033672,0.356506
1227,-0.122527,0.992438,0.0053409999999999,0.08409,-0.050727,-0.209305
1228,-0.1082279999999999,0.994098,0.005564,0.166028,0.240704,-0.372217
1229,-0.091181,0.995822,0.0002549999999999,-0.091864,1.423764,-0.534511
1230,-0.083953,0.996291,-0.018221,-0.049928,1.7161419999999998,-0.258696
1231,-0.085713,0.995706,-0.034619,0.003392,0.042578,0.132321
1232,-0.088198,0.994992,-0.046782,0.055392,-0.432095,0.136428
1233,-0.084853,0.995322,-0.045928,-0.021684,-0.584174,0.001448
1234,-0.075412,0.996585,-0.033269,-0.204541,-0.392855,-0.292323
1235,-0.066481,0.997601,-0.0186099999999999,-0.1182119999999999,-0.023847,-0.296469
1236,-0.060882,0.998118,-0.00535,0.253967,0.184912,-0.103354
1237,-0.057951,0.998281,0.007091,0.405486,-0.065435,-0.1032059999999999
1238,-0.057735,0.998122,0.019811,0.4323079999999999,-0.136855,-0.105992
1239,-0.059112,0.997749,0.031222,0.263259,-0.242088,-0.168566
1240,-0.06236,0.99734,0.037368,0.108701,-0.132716,-0.245666
1241,-0.067695,0.996953,0.038406,0.028678,-0.163609,-0.284332
1242,-0.074171,0.996638,0.0344029999999999,0.046735,-0.252451,-0.278239
1243,-0.079859,0.996385,0.028463,0.088129,-0.352388,-0.252874
1244,-0.083086,0.996236,0.024141,0.144426,-0.373296,-0.2091849999999999
1245,-0.084462,0.99621,0.020069,0.163732,-0.355478,-0.217533
1246,-0.085259,0.996227,0.0152699999999999,0.2203449999999999,-0.255291,-0.270626
1247,-0.085308,0.996281,0.010907,0.185726,-0.17548,-0.255154
1248,-0.085598,0.996291,0.007069,0.12991,-0.210784,-0.258183
1249,-0.088272,0.996081,0.001917,0.082672,-0.220492,-0.223277
1250,-0.093359,0.995599,-0.006274,0.157568,-0.17344,-0.009336
1251,-0.09976,0.994837,-0.01787,0.182097,-0.066645,0.025897
1252,-0.1041859999999999,0.994003,-0.032801,0.11563,0.2789,-0.021475
1253,-0.1053279999999999,0.992888,-0.055258,-0.285617,0.758562,-0.293558
1254,-0.101654,0.991081,-0.086016,-0.424881,0.822807,-0.294279
1255,-0.09186,0.988727,-0.1181349999999999,-0.498411,0.426831,-0.100768
1256,-0.085556,0.985243,-0.148161,-0.2897949999999999,0.146699,-0.055757
1257,-0.085363,0.981438,-0.171669,0.235479,0.1001659999999999,0.009925
1258,-0.0839289999999999,0.979196,-0.184684,0.313192,0.259634,-0.088983
1259,-0.078148,0.977834,-0.194194,-0.2927929999999999,0.628123,-0.526799
1260,-0.077436,0.97588,-0.204057,-0.152117,0.347759,-0.367415
1261,-0.085352,0.973808,-0.210694,-0.036565,0.052148,-0.169784
1262,-0.099356,0.972382,-0.21114,0.052786,-0.0787809999999999,0.019352
1263,-0.114479,0.972004,-0.205134,0.0498269999999999,-0.142094,0.0443519999999999
1264,-0.128729,0.972505,-0.194013,-0.048929,-0.332566,-0.024325
1265,-0.138577,0.973952,-0.179419,-0.070453,-0.2806079999999999,-0.058511
1266,-0.142865,0.976252,-0.1627849999999999,-0.078189,-0.27186,-0.058727
1267,-0.144676,0.978675,-0.145738,-0.050133,-0.309227,-0.067062
1268,-0.14429,0.981297,-0.127325,0.00838,-0.403478,-0.098704
1269,-0.141875,0.984242,-0.105422,0.033553,-0.4553569999999999,-0.071473
1270,-0.137785,0.987035,-0.082164,-0.013994,-0.447011,-0.077046
1271,-0.132539,0.989552,-0.056512,-0.077727,-0.427724,-0.002051
1272,-0.127592,0.991332,-0.030886,-0.216982,-0.177688,-0.018003
1273,-0.12503,0.992094,-0.00943,-0.152023,0.0039689999999999,-0.061813
1274,-0.124295,0.992229,0.002287,-0.1431609999999999,-0.1004289999999999,-0.29318
1275,-0.125198,0.99211,0.004065,-0.112778,-0.183684,-0.428076
1276,-0.125166,0.992121,-0.0010869999999999,-0.006899,-0.261286,-0.4753989999999999
1277,-0.1235609999999999,0.992251,-0.011956,0.0489,-0.288272,-0.500846
1278,-0.121376,0.992185,-0.0284579999999999,0.045449,-0.214308,-0.32991
1279,-0.1195799999999999,0.992096,-0.037679,-0.017917,-0.2107699999999999,-0.1927289999999999
1280,-0.120467,0.992253,-0.0299259999999999,-0.134324,-0.173771,-0.261761
1281,-0.125617,0.991979,-0.013097,-0.301843,0.209208,-0.262614
1282,-0.137417,0.990497,-0.0019879999999999,0.201336,0.543255,0.24326
1283,-0.149302,0.988716,-0.01099,0.354686,0.259437,0.5518069999999999
1284,-0.150478,0.988538,-0.010994,0.336879,0.067538,0.300102
1285,-0.143542,0.989612,-0.005949,0.467456,0.1086849999999999,-0.0836659999999999
1286,-0.130973,0.991362,-0.0045509999999999,0.1373059999999999,0.770143,-0.304104
1287,-0.126478,0.99191,-0.009504,-0.05591,1.288623,-0.494799
1288,-0.131096,0.991059,-0.0242819999999999,-0.085564,0.515304,-0.146601
1289,-0.134423,0.990234,-0.036626,0.106804,-0.2049099999999999,-0.052348
1290,-0.130544,0.990597,-0.0406129999999999,0.157766,-0.409756,-0.0651149999999999
1291,-0.120564,0.992226,-0.030416,0.116643,-0.48507,-0.166865
1292,-0.112552,0.993574,-0.010759,0.184588,0.347826,-0.250288
1293,-0.108717,0.994053,0.003506,0.280958,0.269543,-0.101254
1294,-0.106163,0.994159,0.018692,0.276283,0.030041,-0.103684
1295,-0.105497,0.993733,0.036576,0.2318849999999999,-0.124317,-0.12314
1296,-0.1061309999999999,0.992884,0.053748,0.1486569999999999,-0.235758,-0.138221
1297,-0.108206,0.991781,0.068065,0.066824,-0.210196,-0.152202
1298,-0.111099,0.990665,0.078808,-0.0382389999999999,-0.129108,-0.233548
1299,-0.115294,0.989841,0.083026,0.0361779999999999,-0.16109,-0.2402369999999999
1300,-0.119903,0.989382,0.081961,0.185546,-0.220934,-0.219245
1301,-0.123872,0.989198,0.078198,0.240984,-0.267991,-0.293057
1302,-0.127376,0.989012,0.074845,0.3316909999999999,-0.285567,-0.39644
1303,-0.130802,0.98869,0.073171,0.41222,-0.280011,-0.307638
1304,-0.132664,0.988396,0.07379,0.373204,-0.239007,-0.251204
1305,-0.133346,0.988103,0.076439,0.337707,-0.1905869999999999,-0.354805
1306,-0.13392,0.987709,0.080417,0.301598,-0.12983,-0.478778
1307,-0.136054,0.987067,0.084611,0.358222,-0.122504,-0.303071
1308,-0.138348,0.986025,0.092655,0.252773,-0.058627,-0.198841
1309,-0.14132,0.984897,0.0998899999999999,0.16552,-0.053683,-0.128714
1310,-0.144561,0.984479,0.099361,0.2363579999999999,0.125903,0.125843
1311,-0.142896,0.985218,0.09432,-0.157016,0.454586,0.0420629999999999
1312,-0.135785,0.987345,0.0817519999999999,-0.437961,0.4632779999999999,-0.072398
1313,-0.131569,0.989648,0.057078,-0.347054,0.458579,-0.116922
1314,-0.131807,0.990972,0.023947,-0.259505,0.470408,-0.160056
1315,-0.133261,0.991,-0.011601,0.080694,0.5931069999999999,-0.142589
1316,-0.130679,0.990617,-0.0396959999999999,0.09949,0.6416310000000001,-0.166999
1317,-0.124877,0.990515,-0.057094,0.037826,0.7467739999999999,-0.39066
1318,-0.119694,0.989956,-0.07507,0.051747,0.339802,-0.24744
1319,-0.116614,0.988876,-0.092198,0.074362,0.205078,-0.149531
1320,-0.11875,0.987613,-0.102445,0.144674,-0.007343,-0.021777
1321,-0.1257609999999999,0.98649,-0.104874,0.044646,-0.117578,-0.028824
1322,-0.134063,0.985514,-0.103763,-0.008805,-0.146143,-0.070203
1323,-0.138995,0.984932,-0.1027859999999999,-0.046368,-0.212151,-0.0742309999999999
1324,-0.138613,0.985052,-0.102155,-0.06558,-0.461187,0.008192
1325,-0.134062,0.985926,-0.09977,-0.068911,-0.532801,-0.000358
1326,-0.127687,0.987311,-0.094283,-0.052016,-0.609061,-0.017091
1327,-0.120706,0.989004,-0.085312,0.079599,-0.5809989999999999,-0.054352
1328,-0.112093,0.990812,-0.075516,0.128146,-0.542463,-0.0835419999999999
1329,-0.100982,0.992722,-0.065438,0.224716,-0.3392489999999999,0.077874
1330,-0.090154,0.994262,-0.057363,-0.485224,0.395325,0.015752
1331,-0.081299,0.995317,-0.052052,-0.767319,0.575148,-0.241069
1332,-0.08002,0.99582,-0.04375,-0.537045,0.470763,-0.5401729999999999
1333,-0.079483,0.995661,-0.048132,0.225159,-0.2240849999999999,-0.768579
1334,-0.08048,0.995011,-0.05875,0.40975,-0.307602,-0.620571
1335,-0.07891,0.994874,-0.063037,0.281837,-0.0562299999999999,-0.424435
1336,-0.077753,0.99523,-0.058709,0.198022,0.446176,-0.4482489999999999
1337,-0.0773789999999999,0.9952,-0.05971,0.17293,0.664361,-0.406476
1338,-0.077862,0.994578,-0.06876,-0.087452,0.746984,0.045856
1339,-0.082721,0.993601,-0.0767549999999999,0.030612,0.446585,0.037037
1340,-0.090864,0.993128,-0.073599,0.156049,-0.25886,0.104514
1341,-0.100453,0.992785,-0.065302,0.354344,-0.546007,0.268702
1342,-0.107918,0.992525,-0.056776,0.4198689999999999,-0.539751,0.354414
1343,-0.1056049999999999,0.993175,-0.049267,0.290907,-0.220882,0.341229
1344,-0.092558,0.995027,-0.036475,0.121626,0.2755579999999999,0.337759
1345,-0.075537,0.99696,-0.018444,-0.268854,0.657215,0.104916
1346,-0.0564389999999999,0.998388,-0.003135,-0.27518,0.205683,0.01905
1347,-0.039064,0.999207,0.005809,-0.170393,-0.125992,0.003819
1348,-0.023296,0.999652,0.0112769999999999,-0.142368,-0.233203,0.0744929999999999
1349,-0.0092,0.999729,0.020756,-0.0361029999999999,-0.290882,0.0823179999999999
1350,-0.000605,0.999446,0.032888,-0.026037,-0.239833,0.006205
1351,0.0043549999999999,0.999094,0.042023,0.010705,-0.052622,0.0122379999999999
1352,0.0097,0.998609,0.051572,-0.015864,-0.100584,-0.00604
1353,0.015072,0.997882,0.063074,-0.017223,-0.066058,-0.0524539999999999
1354,0.01967,0.997189,0.072114,0.008986,-0.044018,-0.067399
1355,0.0236539999999999,0.996597,0.078788,0.023709,-0.024491,-0.077308
1356,0.027212,0.995903,0.086077,-0.03449,0.029472,-0.124315
1357,0.0283509999999999,0.995356,0.091844,-0.088135,0.086538,-0.176118
1358,0.0258569999999999,0.995366,0.0924659999999999,-0.163964,0.083461,-0.141905
1359,0.021019,0.995639,0.0907419999999999,-0.313026,0.084378,-0.083845
1360,0.0156439999999999,0.995711,0.091032,-0.295307,0.086671,-0.193891
1361,0.0108849999999999,0.995996,0.088573,-0.1749619999999999,0.092474,-0.158351
1362,0.00852,0.996582,0.0820029999999999,0.0918669999999999,0.1139829999999999,-0.066622
1363,0.009134,0.997182,0.074283,0.136878,0.246745,0.0303009999999999
1364,0.012269,0.998045,0.0610649999999999,0.100432,0.2082699999999999,0.051179
1365,0.014802,0.999113,0.039066,-0.061265,0.012941,0.144955
1366,0.013996,0.999861,0.007514,-0.28101,-0.053419,0.140344
1367,0.01394,0.999585,-0.024686,-0.280954,-0.053144,0.172544
1368,0.0138729999999999,0.998417,-0.0542799999999999,-0.183718,0.179272,0.014775
1369,0.016333,0.99654,-0.08135,0.17573,0.458325,-0.078959
1370,0.022243,0.993784,-0.108973,0.2127119999999999,0.44187,0.0485019999999999
1371,0.025329,0.99039,-0.13588,0.062561,0.190365,0.060166
1372,0.021106,0.985973,-0.165497,-0.048938,-0.012768,0.051117
1373,0.015697,0.981004,-0.193297,-0.072872,-0.138246,0.1307819999999999
1374,0.00971,0.976787,-0.213946,-0.066533,-0.202952,0.125323
1375,0.000285,0.973352,-0.229271,0.0147599999999999,-0.232019,0.104256
1376,-0.010823,0.970396,-0.2412349999999999,0.0365949999999999,-0.242551,0.1183869999999999
1377,-0.019898,0.967449,-0.252242,-0.031539,-0.192455,0.10855
1378,-0.025501,0.965052,-0.260776,-0.108639,-0.1983589999999999,0.079913
1379,-0.027969,0.963427,-0.266469,-0.13298,-0.192294,0.106695
1380,-0.027291,0.962535,-0.2697449999999999,-0.137519,-0.154246,0.119751
1381,-0.024713,0.962153,-0.271352,-0.091055,-0.096201,0.202932
1382,-0.021758,0.962839,-0.269161,-0.079499,-0.02389,0.302684
1383,-0.019265,0.964388,-0.26375,-0.251975,0.093549,0.30324
1384,-0.019799,0.965189,-0.260765,-0.298606,0.2125909999999999,0.060921
1385,-0.023318,0.964662,-0.262419,-0.235105,0.195555,-0.050569
1386,-0.024616,0.963297,-0.267271,-0.174924,0.169684,-0.139498
1387,-0.026489,0.960703,-0.276276,-0.094849,0.069753,-0.181564
1388,-0.02996,0.956219,-0.291082,0.08831,-0.195019,-0.046595
1389,-0.031563,0.951329,-0.306527,0.077828,-0.193959,0.01661
1390,-0.032769,0.947482,-0.3180949999999999,0.042779,-0.158847,0.001643
1391,-0.033727,0.94444,-0.326922,0.000112,0.009585,0.062014
1392,-0.035657,0.942186,-0.333161,-0.063205,0.2054119999999999,0.133347
1393,-0.037754,0.941467,-0.334956,-0.1427109999999999,0.273056,0.1490119999999999
1394,-0.040043,0.940927,-0.336208,-0.290066,0.598304,0.118938
1395,-0.045124,0.939977,-0.3382159999999999,-0.200497,0.18986,0.145345
1396,-0.055249,0.938054,-0.3420289999999999,-0.0636159999999999,-0.213247,0.3009679999999999
1397,-0.070685,0.936359,-0.343828,0.150595,-0.430133,0.4825
1398,-0.087868,0.938399,-0.3341679999999999,0.348122,-0.318801,0.568131
1399,-0.100648,0.941418,-0.321845,0.296953,0.045917,0.382163
1400,-0.107428,0.943382,-0.313801,0.185995,0.400734,0.316425
1401,-0.1082119999999999,0.945672,-0.306555,-0.099078,0.340537,0.2123469999999999
1402,-0.104365,0.947723,-0.301515,-0.137425,0.163743,0.079438
1403,-0.094377,0.948967,-0.3008909999999999,-0.199812,0.068489,0.072375
1404,-0.083436,0.950198,-0.30024,-0.087371,0.003507,0.15081
1405,-0.074976,0.952498,-0.29514,0.0474949999999999,-0.025176,0.186696
1406,-0.069868,0.955283,-0.287287,0.091551,-0.032157,0.177698
1407,-0.065638,0.958582,-0.2771139999999999,0.1146339999999999,-0.050593,0.134139
1408,-0.060377,0.96144,-0.26827,0.055601,-0.077574,0.173498
1409,-0.054005,0.963957,-0.260482,0.040242,-0.060667,0.191558
1410,-0.048636,0.965916,-0.254205,0.040808,-0.0090829999999999,0.184396
1411,-0.044938,0.966713,-0.251845,-0.014953,-0.0539929999999999,0.147811
1412,-0.04338,0.966588,-0.252596,-0.070756,-0.08753,0.122484
1413,-0.045235,0.965706,-0.255629,-0.07737,-0.24276,0.0380389999999999
1414,-0.048486,0.963945,-0.261608,-0.032172,-0.312868,0.120373
1415,-0.05172,0.96147,-0.269962,-0.013206,-0.323546,0.171238
1416,-0.057259,0.959323,-0.276407,-0.044944,-0.257327,0.100794
1417,-0.067704,0.957347,-0.280859,0.031891,-0.158123,-0.005075
1418,-0.076802,0.954644,-0.28764,0.040319,-0.097817,0.188595
1419,-0.080184,0.952516,-0.2937079999999999,0.047958,-0.154054,0.285559
1420,-0.083313,0.951976,-0.294587,0.038467,-0.190409,0.134629
1421,-0.08822,0.951378,-0.29509,0.03959,-0.189735,0.073486
1422,-0.091677,0.950261,-0.297622,0.051485,-0.186254,0.067703
1423,-0.09247,0.948926,-0.301612,0.0882889999999999,-0.1151089999999999,0.174232
1424,-0.0920899999999999,0.947035,-0.307612,0.236957,-0.055098,0.288325
1425,-0.090471,0.944279,-0.316438,0.270235,-0.011418,0.390733
1426,-0.085311,0.941144,-0.3270349999999999,-0.210542,0.448535,0.182443
1427,-0.079566,0.935777,-0.34347,-0.379373,0.565901,-0.006704
1428,-0.067775,0.927116,-0.368571,-0.478093,0.6532060000000001,0.137492
1429,-0.06059,0.917739,-0.392513,-0.142168,0.408875,0.116069
1430,-0.0610389999999999,0.90895,-0.412392,0.359898,0.296998,0.162377
1431,-0.0616809999999999,0.901699,-0.4279239999999999,0.408101,0.5465439999999999,0.0541899999999999
1432,-0.054539,0.897537,-0.437536,-0.257884,0.69426,-0.161051
1433,-0.045987,0.893543,-0.4465989999999999,-0.524555,0.623501,-0.18159
1434,-0.041638,0.888393,-0.457176,-0.384265,0.249242,0.052863
1435,-0.046659,0.885035,-0.463163,-0.055987,0.036733,0.28343
1436,-0.061746,0.885294,-0.460898,0.182687,-0.290888,0.338416
1437,-0.077231,0.8886209999999999,-0.452076,0.1804869999999999,-0.358058,0.2972909999999999
1438,-0.086667,0.893332,-0.440942,0.1135829999999999,-0.361991,0.272196
1439,-0.09012,0.899433,-0.427648,-0.046218,-0.321186,0.278142
1440,-0.089708,0.906792,-0.411902,-0.1086559999999999,-0.339898,0.268027
1441,-0.087882,0.914984,-0.393782,-0.076745,-0.380606,0.232618
1442,-0.086996,0.923246,-0.374206,-0.02598,-0.376799,0.235275
1443,-0.085676,0.931274,-0.354077,0.019849,-0.335326,0.264752
1444,-0.078027,0.940329,-0.331173,-0.156912,-0.229818,0.378139
1445,-0.067884,0.948996,-0.307861,-0.351748,0.003198,0.212844
1446,-0.065203,0.955439,-0.287863,-0.268796,0.03832,0.22376
1447,-0.065674,0.958703,-0.276687,-0.183303,-0.070672,0.080871
1448,-0.066348,0.960516,-0.270161,-0.057935,-0.170324,-0.091351
1449,-0.064252,0.960771,-0.269761,-0.014102,-0.246996,-0.20108
1450,-0.059257,0.958538,-0.2787,-0.041238,-0.2443659999999999,-0.082658
1451,-0.054632,0.956157,-0.287682,-0.077509,-0.220759,0.094231
1452,-0.053623,0.957858,-0.282158,-0.222942,-0.008181,0.25869
1453,-0.06434,0.959764,-0.273302,0.124872,1.049239,0.363985
1454,-0.079701,0.955353,-0.28448,0.415852,0.615524,0.583842
1455,-0.077455,0.954263,-0.288725,0.162858,0.086401,0.420531
1456,-0.0694309999999999,0.953576,-0.293008,0.041431,-0.045906,-0.0514289999999999
1457,-0.050997,0.953471,-0.297106,-0.0214819999999999,0.170033,-0.123792
1458,-0.033101,0.948227,-0.315834,-0.20106,2.034973,-0.523659
1459,-0.030905,0.940988,-0.336998,0.111883,0.371512,0.403435
1460,-0.035858,0.935407,-0.351724,0.1193839999999999,-0.167768,0.39718
1461,-0.034488,0.935431,-0.351796,-0.091107,-0.7252569999999999,0.223104
1462,-0.0265329999999999,0.941375,-0.336289,-0.205965,-0.434417,0.131333
1463,-0.019043,0.94868,-0.315633,-0.078995,0.551076,-0.003702
1464,-0.014209,0.952531,-0.304077,0.139606,0.438231,0.182282
1465,-0.0054979999999999,0.955296,-0.295565,0.155355,-0.040654,0.217104
1466,-0.000681,0.957621,-0.287997,0.150538,-0.0429779999999999,0.209537
1467,7.099999999999999e-05,0.959733,-0.280879,0.143209,-0.189637,0.194315
1468,-0.002811,0.960845,-0.277036,-0.020947,-0.258804,0.0738809999999999
1469,-0.007944,0.960705,-0.277423,-0.0315,-0.293712,0.058338
1470,-0.012607,0.960027,-0.27959,0.02431,-0.403737,0.064151
1471,-0.016101,0.959545,-0.281058,0.212908,-0.374203,0.11936
1472,-0.018737,0.958704,-0.283753,0.2360219999999999,-0.296427,0.102448
1473,-0.020151,0.957363,-0.288151,0.048105,-0.09663,0.065968
1474,-0.0233169999999999,0.955605,-0.293693,-0.059599,-0.112847,0.000404
1475,-0.028883,0.953947,-0.298547,-0.000246,-0.154082,0.022515
1476,-0.033557,0.952718,-0.301963,0.061923,-0.168035,0.178458
1477,-0.038819,0.950889,-0.307056,0.083832,-0.168464,0.291034
1478,-0.046133,0.947657,-0.315909,0.051138,-0.066234,0.455313
1479,-0.051873,0.942058,-0.331387,0.014657,0.18282,0.410047
1480,-0.054296,0.935263,-0.3497389999999999,-0.373652,0.676996,0.081092
1481,-0.054206,0.923172,-0.380523,-0.500406,0.877884,-0.034059
1482,-0.043529,0.908174,-0.416305,-0.634877,0.527343,0.141235
1483,-0.035251,0.894344,-0.445971,-0.277752,0.245975,0.2497889999999999
1484,-0.031073,0.88384,-0.46674,0.274954,0.464304,0.264714
1485,-0.023405,0.880135,-0.474131,0.018187,1.004005,-0.3221489999999999
1486,-0.020252,0.8748319999999999,-0.483988,-0.109662,0.785034,-0.186025
1487,-0.0273399999999999,0.8666309999999999,-0.4981859999999999,0.041698,0.219047,-0.1171099999999999
1488,-0.041899,0.861116,-0.506667,0.123472,0.064666,0.0272509999999999
1489,-0.059872,0.859907,-0.5069140000000001,-0.012501,-0.228437,0.346971
1490,-0.079378,0.86225,-0.500211,-0.147489,-0.384817,0.396176
1491,-0.0955299999999999,0.867195,-0.488706,-0.266637,-0.273292,0.21185
1492,-0.102357,0.876554,-0.470277,-0.233199,-0.204023,0.0899669999999999
1493,-0.10046,0.888725,-0.447281,0.042462,-0.2482369999999999,0.2509619999999999
1494,-0.095651,0.899998,-0.42525,0.088785,-0.281697,0.273471
1495,-0.093352,0.910436,-0.402957,0.051482,-0.349905,0.303668
1496,-0.092253,0.921282,-0.377772,-0.034593,-0.346971,0.358668
1497,-0.08859,0.932652,-0.349705,-0.145098,-0.304631,0.339786
1498,-0.081691,0.943961,-0.319757,-0.160847,-0.112327,0.312982
1499,-0.0770059999999999,0.953293,-0.292031,-0.242086,0.150925,0.2057119999999999
1500,-0.074215,0.957712,-0.277956,-0.377689,0.077948,0.094622
1501,-0.071983,0.958289,-0.27655,-0.21859,-0.126655,-0.026978
1502,-0.070811,0.956947,-0.281455,-0.003377,-0.349815,-0.1327289999999999
1503,-0.069328,0.953843,-0.292159,0.065376,-0.5005350000000001,-0.103807
1504,-0.0704809999999999,0.94873,-0.3080989999999999,0.152436,-0.510329,0.101144
1505,-0.07213,0.946181,-0.315467,-0.016646,-0.364653,0.381186
1506,-0.076296,0.949453,-0.304464,-0.299772,0.309687,0.448171
1507,-0.088134,0.950097,-0.299214,0.187683,0.973533,0.3820389999999999
1508,-0.083574,0.946185,-0.312618,0.2657489999999999,0.592435,0.561916
1509,-0.063563,0.945193,-0.320235,0.264917,0.319745,0.083923
1510,-0.0516169999999999,0.943871,-0.326227,0.1240049999999999,0.248863,-0.146918
1511,-0.0379139999999999,0.939973,-0.339109,-0.2491949999999999,1.239196,-0.361438
1512,-0.0401889999999999,0.932457,-0.359013,-0.100085,1.649605,0.014393
1513,-0.051307,0.927071,-0.3713329999999999,0.177665,0.042808,0.250056
1514,-0.053413,0.925208,-0.37566,0.16291,-0.120932,0.2237579999999999
1515,-0.047444,0.927808,-0.370005,-0.031993,-0.401426,0.259973
1516,-0.038267,0.934926,-0.352748,0.026091,0.0387529999999999,0.230098
1517,-0.0300019999999999,0.942614,-0.332505,0.076679,0.26904,0.143845
1518,-0.024356,0.948582,-0.315564,0.174533,0.156719,0.205884
1519,-0.019849,0.954017,-0.299062,0.1617859999999999,0.012185,0.254232
1520,-0.017925,0.95857,-0.284257,0.143871,-0.112714,0.250749
1521,-0.018614,0.962001,-0.272373,0.087904,-0.227794,0.2109869999999999
1522,-0.021163,0.964642,-0.262673,0.012175,-0.215603,0.149972
1523,-0.02469,0.966231,-0.256453,-0.013595,-0.168959,0.111616
1524,-0.026316,0.966388,-0.255697,-0.00913,-0.201709,0.122137
1525,-0.026141,0.965536,-0.258912,0.035433,-0.25788,0.162919
1526,-0.027482,0.964123,-0.263988,0.069947,-0.262448,0.03178
1527,-0.0320279999999999,0.962109,-0.27074,0.169113,-0.256008,-0.004147
1528,-0.037611,0.959689,-0.278499,0.2611219999999999,-0.260836,0.140026
1529,-0.042689,0.957376,-0.285637,0.157267,-0.23829,0.192268
1530,-0.048774,0.955285,-0.291601,0.052512,-0.214288,-0.006846
1531,-0.056069,0.953057,-0.297519,0.084786,-0.174173,-0.016996
1532,-0.061121,0.950693,-0.304016,0.130045,-0.156474,0.130096
1533,-0.0656409999999999,0.948456,-0.310003,0.086286,-0.172226,0.265142
1534,-0.0716649999999999,0.943933,-0.322234,0.138697,-0.136759,0.587691
1535,-0.070459,0.938347,-0.338411,-0.184378,0.269509,0.479097
1536,-0.06299,0.930764,-0.360129,-0.595641,0.633644,0.021186
1537,-0.0529419999999999,0.918618,-0.391561,-0.395682,0.699973,-0.0608309999999999
1538,-0.042805,0.905148,-0.4229159999999999,-0.16064,0.461368,0.005496
1539,-0.038633,0.892935,-0.448507,0.046903,0.375406,0.100348
1540,-0.037426,0.884332,-0.46534,0.140239,1.012641,-0.010826
1541,-0.03155,0.878908,-0.475931,-0.2208,1.012312,-0.172812
1542,-0.027135,0.872833,-0.4872479999999999,-0.286433,0.311462,-0.072139
1543,-0.03065,0.8674059999999999,-0.496642,-0.084523,0.0623429999999999,0.1660599999999999
1544,-0.042605,0.864117,-0.50147,-0.0108609999999999,0.00391,0.279882
1545,-0.0611149999999999,0.862533,-0.5022810000000001,-0.004802,-0.160843,0.3705219999999999
1546,-0.083105,0.8639209999999999,-0.496709,-0.1197299999999999,-0.17845,0.264867
1547,-0.101164,0.867409,-0.487188,-0.172655,-0.15815,0.2118429999999999
1548,-0.111221,0.8721190000000001,-0.476468,-0.244354,-0.208637,0.181592
1549,-0.115638,0.878266,-0.463963,-0.088983,-0.302872,0.190114
1550,-0.11587,0.885692,-0.449563,0.065165,-0.332622,0.222848
1551,-0.112815,0.8945559999999999,-0.4324659999999999,0.103309,-0.28898,0.200425
1552,-0.107599,0.90409,-0.413554,0.049006,-0.193869,0.215403
1553,-0.101293,0.914162,-0.392467,-0.1259569999999999,-0.204491,0.267665
1554,-0.093108,0.92399,-0.3708849999999999,-0.2528849999999999,-0.178079,0.142796
1555,-0.08868,0.932952,-0.348879,-0.188221,-0.016891,0.210634
1556,-0.087285,0.938983,-0.3326739999999999,-0.2264659999999999,0.007794,0.170473
1557,-0.088182,0.942018,-0.323739,-0.182493,-0.02469,0.025078
1558,-0.088825,0.94224,-0.322914,-0.196576,-0.1409099999999999,0.034294
1559,-0.086957,0.940653,-0.3280119999999999,-0.126422,-0.23913,0.005014
1560,-0.085362,0.937108,-0.338413,-0.083828,-0.252965,-0.013104
1561,-0.085779,0.934124,-0.346461,-0.0377259999999999,-0.224957,0.2328889999999999
1562,-0.090249,0.93605,-0.340068,-0.248146,-0.000443,0.256526
1563,-0.102128,0.937933,-0.331409,-0.141646,0.671014,0.0672789999999999
1564,-0.109492,0.932874,-0.343132,0.4644729999999999,0.302768,0.8407969999999999
1565,-0.09328,0.934749,-0.342819,0.1393609999999999,0.239903,0.225434
1566,-0.081745,0.935414,-0.343948,0.438618,0.327038,0.201065
1567,-0.064669,0.93411,-0.351053,0.266192,0.352786,0.203516
1568,-0.050737,0.932574,-0.357371,-0.32997,1.603513,-0.1299789999999999
1569,-0.05245,0.927692,-0.369621,-0.0788519999999999,1.068555,0.111701
1570,-0.051988,0.922044,-0.383556,-0.0643909999999999,0.431533,0.281185
1571,-0.044574,0.920203,-0.388874,-0.041333,-0.451437,0.275074
1572,-0.033158,0.923951,-0.3810489999999999,-0.09552,-0.472474,0.182257
1573,-0.024491,0.931292,-0.363426,-0.12355,-0.293383,0.09771
1574,-0.0153669999999999,0.9378,-0.34681,0.153612,0.470312,0.16665
1575,-0.005797,0.943249,-0.332007,0.226897,0.234348,0.208808
1576,-0.000242,0.948166,-0.317745,0.268522,0.127685,0.220028
1577,0.001775,0.952689,-0.30391,0.243465,-0.166343,0.225159
1578,-2.5e-05,0.956038,-0.293209,0.111903,-0.258192,0.116803
1579,-0.0042689999999999,0.958118,-0.286307,-0.022266,-0.2433969999999999,0.044302
1580,-0.0082469999999999,0.958688,-0.284304,-0.057686,-0.300546,0.087557
1581,-0.009719,0.958356,-0.285376,0.011672,-0.317655,0.209067
1582,-0.011078,0.957355,-0.288667,0.1975869999999999,-0.244495,0.0781559999999999
1583,-0.012749,0.955878,-0.293454,0.343544,-0.199225,0.062436
1584,-0.014471,0.953727,-0.300293,0.250372,-0.186591,0.025711
1585,-0.016036,0.951877,-0.306029,0.0321339999999999,-0.16759,0.093657
1586,-0.0151919999999999,0.950322,-0.310868,-0.016607,-0.170994,0.081299
1587,-0.018075,0.948607,-0.3159099999999999,0.016335,-0.157347,0.0641549999999999
1588,-0.0251979999999999,0.94678,-0.320864,0.052039,-0.138888,0.038408
1589,-0.0359279999999999,0.945189,-0.3245119999999999,0.101388,-0.118773,0.07056
1590,-0.046784,0.942327,-0.331378,0.279206,-0.12586,0.365817
1591,-0.052808,0.938411,-0.341435,0.120527,0.070577,0.502949
1592,-0.061114,0.931549,-0.358416,-0.386549,0.6271359999999999,0.137454
1593,-0.066872,0.920573,-0.38478,-0.320625,0.723622,-0.039628
1594,-0.06025,0.908855,-0.412717,-0.428977,0.48563,0.138837
1595,-0.052799,0.8977719999999999,-0.437266,-0.380825,0.404062,0.151163
1596,-0.050073,0.887608,-0.457852,-0.086569,0.704036,0.26344
1597,-0.044926,0.881811,-0.469441,-0.2335159999999999,0.907877,-0.048503
1598,-0.037505,0.877415,-0.4782479999999999,-0.229752,0.679851,-0.085732
1599,-0.037675,0.872812,-0.486585,-0.016341,0.093939,-0.03168
1600,-0.044765,0.869654,-0.491613,-0.002003,-0.131571,0.225134
1601,-0.058002,0.86806,-0.493046,-0.107602,-0.264239,0.444385
1602,-0.075924,0.869242,-0.488508,-0.128514,-0.344507,0.408643
1603,-0.093884,0.873231,-0.478162,-0.124942,-0.326264,0.270521
1604,-0.105333,0.879827,-0.46346,-0.0419449999999999,-0.345952,0.273579
1605,-0.108095,0.8884200000000001,-0.446104,0.044405,-0.3639449999999999,0.2646159999999999
1606,-0.107261,0.897001,-0.4287979999999999,0.118888,-0.386152,0.300762
1607,-0.104925,0.905337,-0.4115069999999999,0.088521,-0.307162,0.280861
1608,-0.100359,0.91333,-0.394637,0.0282459999999999,-0.222595,0.256057
1609,-0.092855,0.920945,-0.378445,-0.231089,-0.101853,0.285489
1610,-0.089472,0.928772,-0.359665,-0.309286,-0.190887,0.158157
1611,-0.090951,0.935623,-0.341055,-0.231483,-0.146072,0.0035
1612,-0.090215,0.937749,-0.335364,-0.18664,-0.121281,-0.036706
1613,-0.086599,0.936166,-0.340698,-0.1525369999999999,-0.180108,0.012512
1614,-0.081889,0.932482,-0.351784,-0.165746,-0.22774,0.067223
1615,-0.079472,0.931215,-0.355674,-0.206386,-0.154497,0.172828
1616,-0.084281,0.935919,-0.341955,-0.17608,1.020609,0.038321
1617,-0.10284,0.936625,-0.334871,0.247128,1.200597,0.184145
1618,-0.1033829999999999,0.933031,-0.344597,0.568013,0.742201,0.845666
1619,-0.0944059999999999,0.933657,-0.345476,0.1041869999999999,0.168562,0.224932
1620,-0.084982,0.933407,-0.348585,0.12435,0.082371,0.114775
1621,-0.066429,0.933053,-0.353528,-0.043663,0.3886179999999999,-0.1086
1622,-0.054991,0.928041,-0.368373,0.0834029999999999,1.404982,0.04185
1623,-0.0475709999999999,0.922625,-0.382729,-0.002966,0.4082159999999999,0.39283
1624,-0.045957,0.919521,-0.390323,-0.006915,-0.234981,0.457752
1625,-0.041321,0.922757,-0.383138,-0.142548,-0.566739,0.306585
1626,-0.0326,0.932398,-0.359935,-0.201439,-0.4260199999999999,0.145457
1627,-0.024852,0.941919,-0.33489,0.079844,0.333456,0.1130579999999999
1628,-0.013772,0.948714,-0.315806,0.194649,0.302629,0.192484
1629,-0.003768,0.954194,-0.299131,0.213332,0.082961,0.230329
1630,-0.001126,0.958737,-0.284258,0.186185,-0.170742,0.149004
1631,-0.003861,0.961968,-0.273096,0.15921,-0.2308739999999999,0.128229
1632,-0.00996,0.963714,-0.266714,0.079067,-0.173568,0.073095
1633,-0.017205,0.963853,-0.265838,-0.023842,-0.1630869999999999,0.026687
1634,-0.021937,0.962459,-0.270502,0.004832,-0.205775,0.07789
1635,-0.025378,0.960454,-0.2772429999999999,0.124224,-0.27448,0.031332
1636,-0.029204,0.958678,-0.282954,0.365721,-0.207,-0.106923
1637,-0.0304899999999999,0.956756,-0.289254,0.362322,-0.15097,0.110116
1638,-0.031408,0.954453,-0.296671,0.173925,-0.139847,0.249567
1639,-0.037163,0.952533,-0.302127,0.0632409999999999,-0.266467,-0.036054
1640,-0.044029,0.95003,-0.309005,0.099724,-0.285678,0.052215
1641,-0.047899,0.948984,-0.311635,0.088503,-0.241983,0.113316
1642,-0.053175,0.948664,-0.311752,-0.002184,-0.019831,0.070266
1643,-0.061532,0.947483,-0.3138,0.057214,-0.014118,0.131182
1644,-0.07024,0.944573,-0.3206699999999999,0.287724,-0.080117,0.444418
1645,-0.074556,0.940382,-0.331819,0.213655,0.078371,0.59392
1646,-0.0733549999999999,0.936197,-0.343709,-0.294779,0.497183,0.193944
1647,-0.072077,0.928229,-0.364936,-0.6155609999999999,0.6883020000000001,-0.077142
1648,-0.066714,0.916439,-0.394552,-0.468747,0.638767,0.007101
1649,-0.060645,0.903741,-0.423743,-0.181146,0.366568,0.083045
1650,-0.056686,0.891083,-0.45027,0.258789,0.474075,0.350844
1651,-0.055228,0.8835379999999999,-0.465076,0.096549,0.8553379999999999,-0.013394
1652,-0.047967,0.879669,-0.473146,-0.345801,0.7849430000000001,-0.164962
1653,-0.046031,0.8738040000000001,-0.48408,-0.279394,0.3618679999999999,-0.075658
1654,-0.053609,0.867556,-0.494429,-0.011927,0.066618,0.132902
1655,-0.071324,0.862931,-0.5002489999999999,0.147786,-0.170472,0.369084
1656,-0.091145,0.8620979999999999,-0.4984649999999999,0.047505,-0.316855,0.39916
1657,-0.107818,0.865203,-0.489679,-0.115845,-0.2027119999999999,0.2438449999999999
1658,-0.1185799999999999,0.871965,-0.474976,-0.205059,-0.176759,0.188843
1659,-0.124492,0.881184,-0.456072,-0.199986,-0.200993,0.158251
1660,-0.127567,0.890225,-0.437277,0.062336,-0.288403,0.264105
1661,-0.129673,0.897724,-0.421023,0.200962,-0.3618969999999999,0.374942
1662,-0.132726,0.905002,-0.404152,0.149693,-0.383213,0.353844
1663,-0.134371,0.915093,-0.380175,0.0851,-0.381798,0.331332
1664,-0.131502,0.926358,-0.352919,-0.314832,-0.053662,0.309492
1665,-0.129805,0.935604,-0.328296,-0.319322,0.012974,0.271579
1666,-0.132663,0.941327,-0.3103,-0.277539,0.002871,0.1845369999999999
1667,-0.13589,0.942589,-0.305029,-0.132939,-0.149864,0.009497
1668,-0.13637,0.941544,-0.308026,-0.110563,-0.278321,0.005078
1669,-0.13593,0.938971,-0.315974,-0.035457,-0.331625,-0.024511
1670,-0.132905,0.934937,-0.328955,0.047471,-0.253785,-0.007272
1671,-0.127345,0.934409,-0.332635,-0.076925,-0.0936039999999999,0.146752
1672,-0.127965,0.938989,-0.319228,-0.221018,0.059378,0.100585
1673,-0.139286,0.940863,-0.308804,-0.101422,0.811487,0.140835
1674,-0.145313,0.936425,-0.319337,0.435947,0.327293,0.5215770000000001
1675,-0.1329,0.936998,-0.323042,0.5315810000000001,0.051894,0.355238
1676,-0.121394,0.940241,-0.318109,0.5446270000000001,0.15566,0.29484
1677,-0.110689,0.942785,-0.314463,-0.134154,0.945261,-0.258245
1678,-0.1050789999999999,0.941084,-0.321407,-0.248009,1.526888,-0.047153
1679,-0.109223,0.936769,-0.332444,-0.184691,0.919127,0.0601809999999999
1680,-0.11184,0.933456,-0.340788,0.1021659999999999,-0.079696,0.191618
1681,-0.10636,0.933623,-0.342082,0.1794339999999999,-0.5443560000000001,0.308162
1682,-0.097958,0.938871,-0.330014,0.0617799999999999,-0.30612,0.223264
1683,-0.093757,0.946861,-0.307648,0.095664,0.032067,0.111481
1684,-0.091055,0.953413,-0.287569,0.215231,0.302798,0.165819
1685,-0.088589,0.958678,-0.270314,0.2348599999999999,0.154053,0.2028859999999999
1686,-0.090412,0.962876,-0.254319,0.307331,-0.036469,0.2191469999999999
1687,-0.095565,0.966385,-0.23864,0.193633,-0.25061,0.122872
1688,-0.103268,0.969,-0.224402,0.105344,-0.242635,0.0315149999999999
1689,-0.11119,0.970579,-0.213525,0.073822,-0.258848,0.027627
1690,-0.117764,0.97126,-0.206796,0.1018039999999999,-0.3744429999999999,0.026147
1691,-0.123849,0.971801,-0.2006109999999999,0.300592,-0.39984,-0.150783
1692,-0.131314,0.972502,-0.19229,0.38432,-0.400634,-0.072373
1693,-0.138878,0.972559,-0.186609,0.341255,-0.237436,0.077326
1694,-0.144853,0.973294,-0.178034,0.255479,-0.113263,0.047587
1695,-0.150509,0.974068,-0.168875,0.247052,-0.019325,-0.149698
1696,-0.158687,0.97362,-0.163893,0.318202,-0.10654,-0.10811
1697,-0.166123,0.972932,-0.160581,0.5585479999999999,-0.05951,0.194745
1698,-0.167516,0.972579,-0.161266,0.4754229999999999,-0.00563,0.4108989999999999
1699,-0.164245,0.972317,-0.166141,-0.442872,0.644794,0.640339
1700,-0.15714,0.971653,-0.176571,-0.693843,0.8300129999999999,0.330868
1701,-0.154203,0.968233,-0.196791,-0.515993,0.81114,0.1186349999999999
1702,-0.150917,0.961342,-0.230276,-0.034065,0.935738,0.2360139999999999
1703,-0.141899,0.952898,-0.268015,-0.135155,0.973738,0.317759
1704,-0.13093,0.94558,-0.297855,-0.092581,0.575797,0.219669
1705,-0.127566,0.938581,-0.320588,0.0529809999999999,0.334445,0.1733869999999999
1706,-0.133011,0.931341,-0.338962,0.267243,0.330148,0.139087
1707,-0.141156,0.925138,-0.35239,0.228146,0.276995,0.097813
1708,-0.152074,0.919662,-0.36205,0.18697,0.157563,0.149281
1709,-0.166824,0.915005,-0.367315,0.1517329999999999,-0.008343,0.183141
1710,-0.1852,0.911773,-0.3665449999999999,0.2033579999999999,-0.1716609999999999,0.2329239999999999
1711,-0.203473,0.910214,-0.360686,0.189618,-0.350704,0.249328
1712,-0.21888,0.910727,-0.350219,0.196113,-0.57575,0.262191
1713,-0.230729,0.914265,-0.332969,0.296769,-0.711857,0.271888
1714,-0.237981,0.918797,-0.314898,0.301,-0.5614060000000001,0.208178
1715,-0.2393489999999999,0.923379,-0.30011,0.191528,-0.311944,0.43921
1716,-0.238089,0.927198,-0.289136,-0.019007,-0.126936,0.525922
1717,-0.23903,0.929916,-0.279468,-0.218016,0.154999,0.384922
1718,-0.245429,0.932015,-0.266635,-0.069177,0.296927,-0.292981
1719,-0.252467,0.931477,-0.2619039999999999,0.024867,0.148327,-0.339704
1720,-0.258079,0.929356,-0.263959,0.358299,-0.141865,-0.091998
1721,-0.257762,0.928276,-0.268038,0.320277,0.079521,-0.020017
1722,-0.258048,0.924496,-0.280539,0.092689,1.593113,0.360205
1723,-0.2679829999999999,0.916809,-0.296023,0.4587479999999999,0.676712,0.033435
1724,-0.285054,0.912237,-0.294197,0.621739,0.179026,0.200432
1725,-0.301717,0.911758,-0.278653,0.732075,-0.43013,0.555417
1726,-0.319737,0.913136,-0.252849,0.649419,-0.434209,0.61256
1727,-0.330734,0.916354,-0.225593,0.442001,-0.11098,0.6073529999999999
1728,-0.3334519999999999,0.921971,-0.196876,0.090974,0.292674,0.541053
1729,-0.331412,0.928597,-0.166895,-0.130823,0.5877600000000001,0.248133
1730,-0.323455,0.935824,-0.139969,-0.1438,0.439116,0.111008
1731,-0.313305,0.941779,-0.1219529999999999,-6.500000000000001e-05,0.02012,0.108876
1732,-0.303439,0.946401,-0.110582,0.253101,-0.105581,0.128343
1733,-0.295004,0.950202,-0.100337,0.34696,-0.118766,0.154964
1734,-0.288513,0.953313,-0.089067,0.377304,-0.113653,0.182359
1735,-0.284119,0.955752,-0.0761179999999999,0.349732,-0.0976279999999999,0.161414
1736,-0.281876,0.957528,-0.060546,0.34346,-0.078286,0.1424089999999999
1737,-0.2808739999999999,0.958775,-0.04288,0.34281,-0.005741,0.052997
1738,-0.280221,0.959544,-0.026999,0.319208,0.0519909999999999,0.000174
1739,-0.2796639999999999,0.95998,-0.014328,0.304323,0.053341,-0.014527
1740,-0.279506,0.960126,-0.003597,0.303859,-0.064237,-0.007268
1741,-0.279705,0.960053,0.0064329999999999,0.265422,-0.115723,-0.0139099999999999
1742,-0.281055,0.959536,0.016653,0.151202,-0.054613,0.031961
1743,-0.284909,0.958158,0.027169,0.068509,0.008517,0.06507
1744,-0.290387,0.956122,0.038516,-0.023776,0.072504,0.0407379999999999
1745,-0.297711,0.953444,0.047854,0.026364,0.1309519999999999,0.052091
1746,-0.305519,0.950736,0.052307,0.121422,0.149117,0.054672
1747,-0.311085,0.948755,0.055378,0.336063,0.205877,-0.031819
1748,-0.313463,0.947724,0.059473,0.413179,0.268554,-0.196146
1749,-0.313403,0.947438,0.064171,0.439669,0.2720599999999999,-0.26133
1750,-0.312345,0.947652,0.0661279999999999,0.591168,0.214381,-0.2611199999999999
1751,-0.310931,0.948208,0.064813,0.698657,0.1701089999999999,-0.113717
1752,-0.308687,0.949227,0.060486,0.683,0.206337,0.112914
1753,-0.304985,0.950815,0.053973,0.495614,0.16265,0.2293219999999999
1754,-0.300882,0.952603,0.044673,0.198709,0.003162,0.2737469999999999
1755,-0.299528,0.953643,0.028752,-0.03644,0.001679,0.3120989999999999
1756,-0.300859,0.953651,0.0034969999999999,-0.076887,0.027794,0.2585119999999999
1757,-0.3017309999999999,0.952948,-0.028769,0.0379829999999999,0.141214,0.195746
1758,-0.300329,0.951868,-0.061074,0.213385,0.3158019999999999,0.103692
1759,-0.297302,0.950195,-0.093395,0.318694,0.384827,0.094051
1760,-0.294134,0.947904,-0.122249,0.382162,0.324054,0.12202
1761,-0.293603,0.944724,-0.14586,0.3862239999999999,0.159921,0.070985
1762,-0.295881,0.940957,-0.164425,0.421964,0.071082,0.073071
1763,-0.300732,0.936795,-0.178766,0.416699,0.02222,0.063058
1764,-0.307871,0.932592,-0.188331,0.378488,-0.019705,0.05326
1765,-0.3158849999999999,0.928601,-0.194674,0.397383,-0.100644,0.084124
