,gravity.x,gravity.y,gravity.z,userAcceleration.x,userAcceleration.y,userAcceleration.z
0,-0.228513,0.844385,0.4845529999999999,0.111081,0.524542,-0.017237
1,-0.231658,0.836155,0.497167,0.043685,-0.000416,-0.237813
2,-0.228886,0.831145,0.506759,0.300251,-0.015181,-0.15329
3,-0.231311,0.8292790000000001,0.5087109999999999,0.369602,-0.0418339999999999,-0.197249
4,-0.23781,0.83189,0.5014,0.487688,-0.278865,-0.2299
5,-0.243027,0.8392700000000001,0.4863729999999999,0.49321,-0.3957429999999999,-0.221938
6,-0.2412139999999999,0.851225,0.466076,0.435337,-0.4975729999999999,-0.209973
7,-0.228536,0.867944,0.440955,0.059805,-0.6047600000000001,-0.041175
8,-0.20633,0.887775,0.411437,-0.193496,-0.657687,-0.131621
9,-0.176639,0.907603,0.380857,-0.260754,-0.6081340000000001,-0.247129
10,-0.142062,0.923173,0.357165,-0.228711,-0.334291,-0.305926
11,-0.104863,0.935181,0.338287,0.085316,0.12178,0.15474
12,-0.071556,0.947484,0.311691,0.052009,0.109477,0.181336
13,-0.049729,0.958559,0.280516,0.362473,0.005888,0.232103
14,-0.0425209999999999,0.966749,0.252163,0.465082,0.024066,0.200092
15,-0.043162,0.972393,0.229318,0.223628,0.2375679999999999,0.3810179999999999
16,-0.060222,0.974492,0.216183,0.286388,0.357417,-0.567044
17,-0.07596,0.978932,0.18952,0.019808,-0.1066329999999999,0.03016
18,-0.081257,0.97666,0.198819,0.0251039999999999,-0.104361,0.020861
19,-0.0855539999999999,0.974913,0.20548,-0.582262,1.430193,0.684016
20,-0.0991409999999999,0.968131,0.229975,-0.343715,0.3174369999999999,-0.575739
21,-0.107307,0.960691,0.256035,-0.335549,0.3248769999999999,-0.601799
22,-0.1073119999999999,0.95642,0.271552,0.045682,-0.545272,-0.468467
23,-0.109618,0.956178,0.271484,-0.300569,0.6133109999999999,-0.03772
24,-0.1138049999999999,0.958859,0.260065,-0.274043,0.7004279999999999,-0.213022
25,-0.119152,0.961776,0.246548,-0.037693,0.080262,-0.16264
26,-0.118898,0.964484,0.23586,-0.008253,-0.09162,-0.138997
27,-0.1129059999999999,0.967235,0.227384,0.0280209999999999,-0.108715,-0.055845
28,-0.102966,0.969332,0.223134,0.0522309999999999,-0.139819,0.09312
29,-0.090211,0.970795,0.222294,0.006776,-0.159027,0.1149099999999999
30,-0.0753419999999999,0.971758,0.2236179999999999,-0.050009,-0.1454339999999999,0.146744
31,-0.0596929999999999,0.973197,0.222081,-0.132613,-0.148673,0.044902
32,-0.043508,0.974387,0.2206179999999999,-0.22819,-0.132667,-0.002005
33,-0.0265639999999999,0.974995,0.220621,-0.304735,-0.108739,-0.025263
34,-0.010059,0.974891,0.2224449999999999,-0.237027,-0.002448,-0.028734
35,0.0070459999999999,0.974325,0.225026,-0.23428,0.004114,0.001017
36,0.026708,0.973734,0.226106,-0.370397,-0.0581919999999999,-0.095552
37,0.046383,0.972352,0.228859,-0.463467,0.031249,-0.273552
38,0.060714,0.969753,0.236406,-0.338515,0.248127,-0.038149
39,0.0614409999999999,0.966691,0.248451,0.201727,0.628234,0.15258
40,0.049807,0.961086,0.271712,0.138822,0.566059,0.138353
41,0.0311459999999999,0.95211,0.304158,0.096921,0.5473100000000001,0.027828
42,0.008124,0.940817,0.338811,0.1419,0.6243380000000001,0.050029
43,-0.017459,0.930048,0.367018,0.039447,0.624228,-0.2545
44,-0.041616,0.920801,0.387799,-0.148951,0.284963,-0.346479
45,-0.06022,0.913752,0.40178,-0.130408,0.036215,0.004729
46,-0.075593,0.908074,0.411925,-0.085342,0.109077,-0.076385
47,-0.088526,0.904749,0.416639,0.054499,0.034872,-0.300061
48,-0.100537,0.904092,0.415337,0.15382,-0.134088,-0.33036
49,-0.105683,0.904584,0.41298,0.293442,-0.180783,-0.3295599999999999
50,-0.1012779999999999,0.906094,0.4107689999999999,0.3000239999999999,-0.217877,-0.324709
51,-0.091476,0.907499,0.409966,0.204498,-0.233411,-0.357888
52,-0.076063,0.908654,0.4105569999999999,0.186277,-0.2070699999999999,-0.258442
53,-0.0583039999999999,0.909911,0.410678,0.265976,-0.065596,0.035656
54,-0.045357,0.911869,0.407961,0.25303,-0.067554,0.038374
55,-0.037397,0.913941,0.404113,0.108915,0.005264,0.041749
56,-0.029397,0.91554,0.401144,-0.06095,0.043536,-0.008444
57,-0.02051,0.917245,0.397789,-0.069837,0.041831,-0.005088
58,-0.011732,0.919705,0.392427,-0.132662,-0.126782,-0.006716
59,-0.002414,0.921738,0.387796,-0.156506,-0.13263,0.051321
60,0.006503,0.922671,0.385524,-0.252963,-0.045519,0.111104
61,0.012519,0.924115,0.381901,-0.401313,0.188739,0.143231
62,0.012759,0.925188,0.379285,-0.5182979999999999,0.437589,0.202014
63,0.0043869999999999,0.925641,0.378367,-0.477837,0.352084,0.123541
64,-0.0091659999999999,0.925711,0.37811,-0.353276,-0.00228,0.14252
65,-0.023038,0.927284,0.37364,-0.208376,-0.395362,0.04677
66,-0.0322449999999999,0.931438,0.362458,0.012195,-0.400341,-0.142091
67,-0.035024,0.937636,0.345839,0.277211,-0.053298,-0.492934
68,-0.031818,0.945265,0.324737,0.410037,0.496126,-0.221771
69,-0.02271,0.950991,0.308373,0.326375,0.8326389999999999,0.137046
70,-0.019224,0.948559,0.316007,-0.063113,0.908359,0.227725
71,-0.022177,0.942393,0.333764,0.476462,-0.597605,-0.481331
72,-0.015475,0.939569,0.342002,0.583468,-0.834161,-0.442558
73,0.0037939999999999,0.940832,0.338843,-0.0560559999999999,-0.558142,-0.724662
74,0.017212,0.943472,0.330996,-0.5262600000000001,0.792459,-0.363451
75,0.015502,0.948084,0.317632,-0.380278,0.610128,-0.1955309999999999
76,0.012052,0.954264,0.29871,0.009158,0.050084,-0.23975
77,0.013969,0.959802,0.2803179999999999,0.19442,0.040167,-0.246246
78,0.025566,0.96489,0.261395,0.3462449999999999,0.048614,-0.224072
79,0.043681,0.96896,0.243313,0.347554,-0.128353,-0.105694
80,0.064385,0.972603,0.223365,0.243965,-0.128639,-0.0805429999999999
81,0.080658,0.975948,0.202518,-0.119614,-0.011089,-0.149845
82,0.092692,0.9787,0.183157,-0.150995,0.004774,-0.073477
83,0.104227,0.980729,0.165226,-0.137293,-0.0238199999999999,-0.059574
84,0.117647,0.981852,0.148725,-0.146914,-0.076197,-0.023771
85,0.131954,0.98235,0.132553,-0.184063,-0.029988,0.001831
86,0.14532,0.982358,0.117676,-0.183543,0.062915,0.046112
87,0.1564579999999999,0.982127,0.104597,-0.184534,-0.029414,0.111041
88,0.167388,0.981586,0.091999,-0.247054,-0.046649,0.092587
89,0.177341,0.980838,0.0806289999999999,-0.32352,-0.0057399999999999,-0.054384
90,0.185658,0.980133,0.06975,-0.341008,0.035294,-0.134554
91,0.185315,0.980853,0.05982,-0.310315,0.06442,-0.1064349999999999
92,0.189006,0.980956,0.044669,-0.285671,0.015992,-0.140174
93,0.190445,0.98123,0.0301899999999999,-0.187729,0.016924,-0.148827
94,0.191602,0.981348,0.0154449999999999,0.084537,0.009283,0.0578129999999999
95,0.194697,0.980854,0.003271,0.040929,0.065288,0.001596
96,0.1988359999999999,0.980026,-0.00271,-0.076384,0.2202309999999999,-0.0414029999999999
97,0.199309,0.97992,-0.005177,-0.3380869999999999,0.299728,0.09287
98,0.194075,0.980983,0.000575,-0.438093,0.238301,0.036351
99,0.18229,0.9831,0.01669,-0.407814,0.2659849999999999,0.050617
100,0.165599,0.985249,0.043067,-0.284587,0.343242,0.205087
101,0.148175,0.985173,0.08644,-0.05293,0.3227489999999999,0.272889
102,0.129721,0.980536,0.147358,0.055094,0.160348,0.009915
103,0.108004,0.973148,0.203248,0.1348859999999999,0.091015,-0.348054
104,0.085642,0.964178,0.251036,0.078725,0.158106,-0.463362
105,0.064071,0.953982,0.292925,-0.1183319999999999,0.26341,-0.364352
106,0.044781,0.943808,0.327434,-0.315761,0.471307,-0.278606
107,0.024905,0.933485,0.357739,-0.268923,0.546022,-0.263455
108,0.007667,0.923334,0.383912,-0.048973,0.32926,-0.438371
109,-0.00765,0.914016,0.405597,0.103948,-0.004883,-0.449008
110,-0.022645,0.906584,0.421408,0.2366489999999999,-0.191344,-0.392081
111,-0.0348329999999999,0.901094,0.4322149999999999,0.248532,-0.194841,-0.383112
112,-0.045481,0.898284,0.437046,0.2198739999999999,-0.1955869999999999,-0.308155
113,-0.055271,0.898308,0.435867,0.122975,-0.225899,-0.322861
114,-0.05962,0.899993,0.4318,0.100254,-0.200133,-0.3649969999999999
115,-0.05462,0.903355,0.425392,0.139138,-0.199315,-0.37545
116,-0.04192,0.909381,0.413836,0.168644,-0.210544,-0.187807
117,-0.025571,0.918613,0.394319,0.149411,-0.198628,-0.116273
118,-0.0083349999999999,0.930531,0.366106,0.150349,-0.1560109999999999,0.0196819999999999
119,0.009828,0.941724,0.336232,-0.044756,0.297534,-0.010564
120,0.027547,0.948536,0.315455,-0.056111,0.424877,0.048025
121,0.044848,0.949379,0.310902,0.048673,0.105781,0.5418350000000001
122,0.052371,0.947948,0.314077,-0.081439,-0.049632,0.4487859999999999
123,0.0506519999999999,0.949119,0.3108059999999999,-0.212257,-0.227592,-0.095016
124,0.0438519999999999,0.952381,0.3017289999999999,-0.303404,-0.276798,-0.188341
125,0.0376079999999999,0.955695,0.291936,-0.351069,-0.2434599999999999,-0.131642
126,0.028837,0.957924,0.285558,-0.382856,0.231758,-0.4610189999999999
127,0.0152539999999999,0.963076,0.268783,0.089772,0.478284,-0.810211
128,0.009801,0.970718,0.240006,0.093928,0.365585,-0.043702
129,0.011109,0.969769,0.243757,0.2568809999999999,-0.0308959999999999,0.451204
130,0.019612,0.968233,0.249265,0.620525,-0.403459,0.3202239999999999
131,0.036876,0.968699,0.24547,0.5240060000000001,-0.228327,-0.320558
132,0.0588179999999999,0.969395,0.23834,0.134679,0.041607,-0.137235
133,0.075468,0.969507,0.2331369999999999,-0.3602579999999999,0.159491,-0.167601
134,0.088149,0.967821,0.235679,-0.364348,0.206313,-0.055747
135,0.093813,0.967946,0.232961,-0.395907,0.1283369999999999,-0.1052299999999999
136,0.099236,0.969421,0.224427,-0.4481739999999999,-0.033966,-0.126923
137,0.105698,0.971184,0.213594,-0.397355,-0.05027,-0.120179
138,0.109597,0.973356,0.201391,-0.287255,-0.080183,-0.087896
139,0.111844,0.975491,0.189477,-0.007474,-0.114422,-0.0705799999999999
140,0.114999,0.976964,0.179746,0.006293,-0.165654,0.026309
141,0.118415,0.977528,0.174381,-0.0456149999999999,-0.173726,0.059368
142,0.119326,0.977585,0.173442,-0.159838,-0.169418,-0.035197
143,0.116339,0.977345,0.176787,-0.133154,-0.214452,-0.144561
144,0.110816,0.976562,0.184499,-0.089225,-0.277358,-0.085149
145,0.10444,0.97543,0.193962,-0.107294,-0.325436,0.093055
146,0.098393,0.97411,0.203522,-0.14275,-0.299565,-0.076843
147,0.092947,0.973104,0.2107639999999999,-0.164389,-0.288763,-0.10708
148,0.087177,0.972225,0.217187,-0.137302,-0.128491,0.13108
149,0.0816669999999999,0.971308,0.2233429999999999,-0.1625079999999999,0.0423329999999999,-0.085572
150,0.076706,0.969437,0.2330239999999999,-0.3447719999999999,0.079132,0.078469
151,0.06952,0.966845,0.2457,-0.562776,-0.004839,-0.082828
152,0.060087,0.962751,0.263613,-0.544615,0.008883,-0.131624
153,0.045509,0.954704,0.294042,-0.504401,0.081078,-0.130742
154,0.024847,0.941737,0.335417,-0.155691,0.467016,-0.002349
155,-0.001538,0.924652,0.380797,0.231564,0.3386389999999999,-0.15811
156,-0.026287,0.904807,0.4249979999999999,0.330182,0.31643,-0.133952
157,-0.048875,0.88885,0.4555729999999999,0.49756,0.2393239999999999,-0.122107
158,-0.074907,0.87964,0.469693,0.134874,0.447127,0.061145
159,-0.099686,0.8760379999999999,0.471815,0.048173,0.737899,0.010882
160,-0.1202049999999999,0.878034,0.4632449999999999,0.034451,0.460406,-0.221302
161,-0.130218,0.883042,0.450854,0.413589,-0.2897949999999999,-0.171405
162,-0.1256519999999999,0.8902209999999999,0.437845,0.4415699999999999,-0.482048,-0.101587
163,-0.112634,0.8990370000000001,0.423126,0.296212,-0.650105,-0.07904
164,-0.095493,0.908964,0.405779,0.140628,-0.659025,0.077177
165,-0.081138,0.921411,0.380013,0.134589,-0.679131,0.077324
166,-0.063538,0.935163,0.348461,0.121765,-0.555143,0.0212289999999999
167,-0.035118,0.947747,0.317071,0.066749,0.276466,-0.015939
168,0.002103,0.955714,0.294274,-0.002408,0.379506,-0.0096519999999999
169,0.037832,0.959495,0.279158,-0.136892,0.165382,0.156251
170,0.06104,0.963395,0.26103,-0.245107,-0.412034,0.1116349999999999
171,0.071465,0.968616,0.2380489999999999,-0.184166,-0.5109899999999999,-0.047573
172,0.072905,0.975899,0.205669,0.29886,-0.232765,0.082295
173,0.073682,0.982143,0.173089,0.311954,0.0265089999999999,0.239921
174,0.076306,0.98591,0.148834,0.2467219999999999,0.226873,0.005707
175,0.077174,0.987205,0.139519,-0.226633,0.512063,-0.117958
176,0.071483,0.988495,0.13327,-0.188991,0.288055,-0.313843
177,0.062806,0.990182,0.124859,-0.08983,0.301628,-0.201031
178,0.045373,0.990301,0.131298,-0.807962,1.404368,0.3059429999999999
179,0.015583,0.988699,0.149078,-0.890293,0.8887879999999999,0.207352
180,-0.002554,0.987116,0.159966,0.001104,-0.224054,-0.0937279999999999
181,0.000375,0.986644,0.162872,0.050742,-0.325755,-0.017609
182,0.00938,0.984568,0.174733,0.109364,-0.157801,0.131419
183,0.020392,0.984081,0.176526,0.250131,-0.043438,0.08565
184,0.025599,0.984724,0.172211,0.1197109999999999,0.032457,0.0533909999999999
185,0.028921,0.986173,0.163154,-0.24761,0.166812,0.070763
186,0.026036,0.987886,0.1529559999999999,-0.435308,0.136671,0.145262
187,0.016038,0.989326,0.144806,-0.423921,-0.129555,0.171311
188,0.0066459999999999,0.989956,0.141192,-0.29963,-0.10928,0.066022
189,-0.000379,0.989031,0.1476839999999999,-0.277147,-0.084002,0.038305
190,-0.004942,0.986258,0.165117,-0.231478,-0.148688,0.137113
191,-0.007378,0.981392,0.191854,-0.13224,-0.182442,-0.0579419999999999
192,-0.010811,0.972739,0.231634,0.016991,-0.114615,-0.039785
193,-0.0220199999999999,0.957753,0.286734,-0.107023,0.408153,0.22912
194,-0.043993,0.936549,0.347755,-0.171614,0.7751819999999999,0.094048
195,-0.071743,0.911515,0.404951,0.0578269999999999,0.575347,-0.2584059999999999
196,-0.099457,0.8847299999999999,0.45536,0.137436,0.31986,-0.5288619999999999
197,-0.124545,0.859944,0.494952,0.351992,0.2878989999999999,0.274091
198,-0.153585,0.8462219999999999,0.510207,0.1529599999999999,0.307129,0.049134
199,-0.176244,0.8425459999999999,0.508966,0.178548,0.1095109999999999,-0.037423
200,-0.195922,0.8459690000000001,0.495927,0.169158,-0.0730799999999999,-0.128083
201,-0.2049099999999999,0.85351,0.479087,0.160186,-0.416666,-0.317985
202,-0.201034,0.8639899999999999,0.461625,0.17305,-0.740898,-0.1668099999999999
203,-0.186175,0.877474,0.442007,0.213717,-0.783267,-0.098684
204,-0.159624,0.894108,0.418431,0.140855,-0.626804,0.00854
205,-0.121793,0.912988,0.389374,-0.028155,-0.550058,0.064682
206,-0.076888,0.931697,0.354996,0.0904529999999999,-0.3118849999999999,-0.147018
207,-0.028095,0.946144,0.3225119999999999,0.112064,-0.197624,-0.197665
208,0.018393,0.955061,0.295826,0.056359,0.1240859999999999,-0.286503
209,0.053438,0.962053,0.267567,0.127973,0.288283,0.238186
210,0.071703,0.969524,0.234256,0.198988,0.1255079999999999,0.403425
211,0.081463,0.975801,0.202902,0.166828,0.038756,0.454721
212,0.083232,0.981125,0.174526,-0.004451,0.031341,0.376606
213,0.074391,0.985274,0.153928,-0.041249,-0.001662,0.012225
214,0.065163,0.988302,0.137866,0.171745,-0.0008289999999999,-0.8276399999999999
215,0.063601,0.988937,0.133984,-0.528414,-0.005158,0.337253
216,0.0611559999999999,0.98811,0.141041,-0.692504,-0.0075349999999999,0.163876
217,0.048704,0.988263,0.144771,-0.163328,0.547473,0.006794
218,0.030605,0.987798,0.152684,-0.064983,1.171275,0.028468
219,0.001605,0.98514,0.17173,-0.544666,1.06259,-0.069145
220,-0.018581,0.983144,0.181868,0.2312429999999999,-0.554814,-0.4725479999999999
221,-0.02315,0.983341,0.180269,0.282885,-0.543797,-0.419573
222,-0.020834,0.983398,0.180241,0.069464,0.071274,0.029872
223,-0.014755,0.983085,0.182536,-0.100876,-0.0293949999999999,0.144017
224,-0.012389,0.983737,0.179172,-0.071366,-0.035067,0.1620599999999999
225,-0.009585,0.984199,0.176789,-0.047712,0.084496,0.19493
226,-0.008184,0.984555,0.174864,-0.033213,0.088138,0.083589
227,-0.0072099999999999,0.984428,0.17562,-0.048255,-0.230202,-0.025107
228,-0.004235,0.983034,0.183354,-0.1862859999999999,-0.254763,0.022517
229,-0.000227,0.98,0.198982,-0.479205,-0.0395089999999999,0.17434
230,-0.000797,0.975188,0.221361,-0.275753,-0.005096,0.021452
231,-0.00605,0.96738,0.253244,-0.205284,-0.007328,-0.065271
232,-0.018667,0.953821,0.299782,-0.1716859999999999,0.405325,0.051521
233,-0.039151,0.933318,0.3569,-0.071582,0.521806,0.010287
234,-0.062382,0.907775,0.414783,0.070195,0.4979409999999999,-0.116275
235,-0.082617,0.880494,0.4667949999999999,0.237982,0.108245,-0.347517
236,-0.097469,0.85459,0.510067,0.4346569999999999,0.205575,0.151677
237,-0.114969,0.8404809999999999,0.5294949999999999,0.487543,0.340595,0.324692
238,-0.124767,0.838987,0.529648,0.1075849999999999,0.084689,-0.02684
239,-0.132167,0.840564,0.525334,0.174297,-0.3020199999999999,-0.444814
240,-0.138989,0.8444709999999999,0.5172439999999999,0.181119,-0.305928,-0.436724
241,-0.138782,0.8516309999999999,0.505426,0.3027829999999999,-0.678185,-0.080164
242,-0.130209,0.863182,0.487806,0.2760829999999999,-0.628029,0.0087
243,-0.111592,0.878692,0.464155,0.178471,-0.353027,0.156924
244,-0.084736,0.898141,0.431458,-0.020992,-0.22773,0.204208
245,-0.051435,0.918715,0.391548,-0.138994,-0.172728,0.0110549999999999
246,-0.0149819999999999,0.935448,0.353136,-0.134279,-0.101082,-0.276232
247,0.019425,0.94789,0.317994,-0.016206,-0.017775,-0.359849
248,0.0477,0.957433,0.284675,0.098784,0.0571539999999999,-0.0797799999999999
249,0.070842,0.964681,0.253704,0.2307789999999999,0.020838,0.22974
250,0.084034,0.970568,0.225679,0.341519,-0.205171,0.247221
251,0.0937809999999999,0.975549,0.198755,0.268021,0.085227,0.477774
252,0.0995409999999999,0.979028,0.1777359999999999,0.26226,0.081748,0.498793
253,0.087559,0.981313,0.171323,0.016002,-0.096761,-1.095548
254,0.0743419999999999,0.98643,0.146368,0.066436,-0.218714,0.207666
255,0.065722,0.987142,0.145691,-0.426791,0.376017,0.444427
256,0.0475779999999999,0.987242,0.151937,-0.6858380000000001,1.910189,1.285151
257,0.013595,0.984304,0.175943,-0.384963,0.753886,-0.8172550000000001
258,-0.013209,0.981473,0.19113,0.156032,-0.76344,-0.450957
259,-0.023827,0.976746,0.213059,0.202049,-0.8459479999999999,-0.6258239999999999
260,-0.014431,0.976346,0.215719,-0.091572,0.8903690000000001,0.031061
261,-0.0018629999999999,0.977513,0.21085,-0.10414,0.889201,0.035931
262,5e-06,0.980192,0.198034,-0.0048119999999999,0.311556,-0.025335
263,-0.000935,0.98158,0.191031,-0.078044,-0.120572,0.08146
264,-0.000498,0.982774,0.184791,-0.08843,-0.216112,0.115899
265,0.002402,0.983543,0.180641,-0.093253,-0.4696109999999999,0.148689
266,0.00881,0.983724,0.179447,-0.036581,-0.145574,0.15617
267,0.016905,0.983524,0.179965,-0.030211,-0.063694,0.08917
268,0.021495,0.983221,0.1811289999999999,-0.051357,-0.1113339999999999,-0.024986
269,0.025101,0.982841,0.182718,-0.219376,-0.2253949999999999,-0.156092
270,0.029495,0.982318,0.184863,-0.322509,-0.184832,-0.069613
271,0.033211,0.98117,0.190249,-0.480659,-0.047225,-0.065874
272,0.033125,0.980095,0.1957279999999999,-0.458662,-0.080848,-0.110294
273,0.029923,0.977997,0.2064409999999999,-0.3070989999999999,-0.091385,-0.12795
274,0.022437,0.974043,0.225231,-0.124457,0.172976,0.042057
275,0.00715,0.966415,0.256871,-0.070474,0.371643,0.142925
276,-0.019561,0.952673,0.303354,0.06018,0.690943,0.357565
277,-0.0526509999999999,0.932928,0.35618,0.472497,0.552866,-0.013193
278,-0.082359,0.909669,0.407075,0.632667,0.4880819999999999,0.370925
279,-0.105321,0.885083,0.45335,0.488409,0.5790890000000001,0.348591
280,-0.123221,0.868195,0.480671,0.004706,-0.314865,-0.121296
281,-0.127358,0.856585,0.5000319999999999,0.145424,-0.182177,-0.0872059999999999
282,-0.123579,0.8491780000000001,0.5134350000000001,0.213453,-0.096569,-0.156791
283,-0.124344,0.844809,0.52041,0.215684,-0.206198,-0.189996
284,-0.127684,0.845057,0.519197,0.272581,-0.433863,-0.18059
285,-0.129604,0.851348,0.508332,0.34457,-0.565261,-0.174744
286,-0.121966,0.861885,0.492209,0.229113,-0.496666,-0.222007
287,-0.100108,0.877099,0.469751,0.066019,-0.524713,-0.197397
288,-0.065285,0.8954700000000001,0.440299,0.019554,-0.5872729999999999,-0.147147
289,-0.022583,0.915217,0.402318,-0.266617,-0.581675,-0.067037
290,0.022904,0.931727,0.3624239999999999,-0.419526,-0.075129,-0.142224
291,0.06511,0.943425,0.3251179999999999,-0.2280739999999999,0.338283,-0.025726
292,0.097644,0.953333,0.285684,0.183118,0.4345,0.243247
293,0.1201859999999999,0.961583,0.246795,0.39431,0.108028,0.258042
294,0.133193,0.967774,0.213698,0.304109,-0.252976,-0.079589
295,0.1380829999999999,0.973863,0.180327,0.149621,-0.12729,0.304827
296,0.139031,0.978563,0.151916,-0.088234,0.5892470000000001,0.203263
297,0.131718,0.980963,0.142672,0.005748,0.33021,-0.2286099999999999
298,0.120979,0.982961,0.138369,-0.313225,0.003795,-0.027346
299,0.108491,0.983763,0.142944,-0.3659989999999999,1.523927,0.853714
300,0.089362,0.981353,0.170154,-0.3468699999999999,1.526337,0.8265040000000001
301,0.064063,0.978724,0.194903,-0.348853,-0.260432,-0.7522300000000001
302,0.042904,0.975429,0.216077,0.265461,-0.813625,-0.42378
303,0.034295,0.973657,0.225404,0.072715,-0.287485,-0.4096079999999999
304,0.031653,0.975404,0.218119,-0.186148,0.524199,0.136846
305,0.0270389999999999,0.977755,0.207978,-0.21936,0.207746,-0.088669
306,0.0214229999999999,0.979954,0.198047,-0.201355,0.08871,-0.046985
307,0.017861,0.980855,0.193898,-0.068169,-0.1127359999999999,0.054301
308,0.019627,0.980754,0.194238,-0.008198,-0.328364,0.05297
309,0.0273939999999999,0.979862,0.197765,-0.024343,-0.2597239999999999,0.053624
310,0.039746,0.978325,0.203206,-0.075681,-0.074272,0.2193099999999999
311,0.0524769999999999,0.976956,0.2068719999999999,-0.132708,-0.003384,0.033882
312,0.0623549999999999,0.975912,0.209044,-0.118874,-0.138327,0.122102
313,0.068334,0.974903,0.211865,-0.279516,-0.1195869999999999,-0.017346
314,0.071534,0.973944,0.215192,-0.329529,-0.119452,0.005893
315,0.0735649999999999,0.972447,0.221191,-0.314517,-0.121968,0.024018
316,0.073393,0.969573,0.233521,-0.329389,0.145814,-0.085145
317,0.067976,0.963041,0.2606199999999999,-0.222822,0.462725,0.225494
318,0.053269,0.952175,0.300858,-0.108063,0.484851,0.267669
319,0.031451,0.936953,0.348023,0.246548,0.494199,-0.167817
320,0.006356,0.9171,0.398594,0.390464,0.571731,0.089458
321,-0.017291,0.8918729999999999,0.451945,0.507877,0.6897770000000001,0.374425
322,-0.043807,0.873994,0.4839479999999999,0.304412,0.183318,-0.053895
323,-0.066232,0.864885,0.497571,0.125161,-0.384508,-0.036404
324,-0.077385,0.8588819999999999,0.506283,0.138389,-0.426098,-0.076488
325,-0.08476,0.857043,0.508216,0.147581,-0.237612,-0.249519
326,-0.091277,0.856568,0.507888,0.154662,-0.262024,-0.027099
327,-0.097195,0.8607950000000001,0.499575,0.170682,-0.302613,-0.039842
328,-0.097735,0.8699540000000001,0.4833409999999999,0.304461,-0.251378,-0.218723
329,-0.08689,0.8805879999999999,0.465838,0.269782,-0.318744,-0.201129
330,-0.065954,0.8929969999999999,0.445192,0.200613,-0.423042,-0.184068
331,-0.038268,0.908656,0.415776,0.017241,-0.847941,-0.180363
332,-0.006157,0.926448,0.376359,-0.092918,-0.8458969999999999,-0.24672
333,0.033866,0.941741,0.3346159999999999,-0.123405,-0.300826,-0.216544
334,0.079945,0.949851,0.302297,-0.14098,0.291299,0.019435
335,0.123366,0.954067,0.273,-0.041213,0.465855,0.437968
336,0.152551,0.958959,0.2389909999999999,0.087027,-0.0145009999999999,0.539849
337,0.162974,0.963642,0.211721,0.174016,-0.176639,0.143518
338,0.156171,0.96988,0.18691,0.1865109999999999,-0.027223,-0.018453
339,0.137462,0.975185,0.173524,0.0149729999999999,0.126408,-0.631257
340,0.115071,0.980061,0.16196,0.057765,-0.04163,0.197369
341,0.102497,0.980936,0.165078,-0.376591,1.278891,1.097618
342,0.080619,0.975905,0.202734,-0.8856569999999999,2.105958,0.792887
343,0.044741,0.972777,0.2273639999999999,-0.232013,-0.488066,-0.7470939999999999
344,0.020207,0.966635,0.255344,0.206279,-1.18656,-0.2691989999999999
345,0.012981,0.964329,0.264374,0.082478,-0.173603,0.140045
346,0.019422,0.965737,0.258779,-0.14552,1.153998,-0.1527609999999999
347,0.02426,0.968964,0.245992,-0.2364949999999999,0.383926,-0.068288
348,0.022546,0.969776,0.242937,-0.107842,0.109341,0.017851
349,0.023503,0.969698,0.2431579999999999,0.011333,-0.255052,0.029776
350,0.030514,0.969653,0.242555,0.093769,-0.392307,0.040831
351,0.0465029999999999,0.969633,0.240085,0.017309,-0.211454,0.126828
352,0.068597,0.969199,0.236512,-0.165368,0.1029289999999999,0.22177
353,0.08962,0.969456,0.228287,-0.326238,0.083217,-0.04306
354,0.108115,0.969264,0.2209739999999999,-0.394156,-0.057048,0.081745
355,0.125328,0.969132,0.2122909999999999,-0.489968,-0.205918,-0.098659
356,0.143219,0.968379,0.204259,-0.46521,0.050786,-0.023396
357,0.160462,0.967313,0.19634,-0.457795,0.163333,0.037288
358,0.176843,0.965914,0.189018,-0.519037,0.126172,-0.212455
359,0.191399,0.96313,0.189048,-0.4820939999999999,0.18871,-0.096473
360,0.199826,0.95954,0.198354,-0.225094,0.479577,0.250117
361,0.196194,0.955748,0.219192,0.1653329999999999,0.508622,0.132828
362,0.181022,0.95078,0.251474,0.266015,0.457393,-0.001978
363,0.157913,0.944898,0.2867449999999999,0.4353189999999999,0.4516779999999999,-0.105623
364,0.130471,0.940291,0.314357,0.177817,0.586915,-0.203853
365,0.1037319999999999,0.938353,0.329734,-0.1902039999999999,0.3685469999999999,-0.257575
366,0.0856649999999999,0.937715,0.3366639999999999,-0.273775,0.267577,-0.176217
367,0.072869,0.937469,0.340341,-0.119256,0.0764929999999999,-0.100244
368,0.062209,0.939124,0.337883,-0.015502,-0.006843,-0.166786
369,0.054879,0.941985,0.331121,0.18003,-0.133193,-0.2092949999999999
370,0.052478,0.945085,0.322567,0.370602,-0.130082,-0.2246969999999999
371,0.055359,0.948266,0.312596,0.340836,-0.180276,-0.239476
372,0.060119,0.94969,0.307349,0.1730809999999999,-0.2149179999999999,-0.274863
373,0.071824,0.948891,0.307304,0.148498,-0.161156,-0.124306
374,0.087502,0.946714,0.309942,0.200447,-0.14752,0.078791
375,0.10236,0.944902,0.31092,0.186809,-0.1275349999999999,0.158166
376,0.113365,0.944288,0.308961,0.005867,-0.053419,0.072264
377,0.123097,0.943685,0.307077,-0.074879,0.005046,-0.0276279999999999
378,0.133876,0.942388,0.30655,-0.115642,0.012401,-0.049683
379,0.14579,0.940115,0.30809,-0.099144,-0.072378,0.04776
380,0.159213,0.936676,0.311897,-0.097552,0.038743,0.1668319999999999
381,0.174254,0.932312,0.31689,-0.112593,0.043106,0.161839
382,0.188197,0.928825,0.31915,-0.144343,-0.0086129999999999,0.243945
383,0.196731,0.926965,0.319412,-0.182907,-0.038445,0.251282
384,0.197676,0.926808,0.319282,-0.200606,-0.0514419999999999,0.155968
385,0.190043,0.930307,0.313694,-0.155863,-0.124079,-0.117283
386,0.1779859999999999,0.936396,0.30245,-0.086708,-0.149454,0.0661419999999999
387,0.165639,0.942172,0.291319,0.09106,-0.022632,0.006792
388,0.1524049999999999,0.947925,0.279649,0.311736,0.17677,-0.2453929999999999
389,0.141771,0.953589,0.265632,0.584974,0.7930229999999999,-0.046577
390,0.137638,0.95635,0.257766,0.0961419999999999,1.011348,0.329271
391,0.128111,0.952291,0.276985,-0.208723,-0.164053,-0.077079
392,0.11789,0.949259,0.291549,0.039855,-1.056208,-0.496688
393,0.125936,0.947624,0.2934969999999999,-0.0109769999999999,-0.882591,-0.457239
394,0.145056,0.94688,0.287002,-0.487784,0.295583,-0.513885
395,0.1530369999999999,0.950102,0.271805,-0.682288,1.207567,-0.386444
396,0.146166,0.956307,0.25319,-0.2004109999999999,0.58596,-0.069246
397,0.138037,0.962875,0.231971,0.14538,-0.110305,0.09327
398,0.141701,0.966375,0.214552,0.394813,-0.183095,-0.118269
399,0.155204,0.967623,0.199022,0.38659,-0.150927,-0.1066759999999999
400,0.171281,0.968384,0.181346,0.253188,-0.114472,-0.102778
401,0.184993,0.969164,0.162759,0.041356,-0.069078,-0.162683
402,0.196679,0.969869,0.143747,-0.038766,-0.017644,-0.1731349999999999
403,0.2067,0.97049,0.124161,-0.163869,0.039596,-0.219803
404,0.2157099999999999,0.970937,0.103645,-0.221753,-0.08405,-0.189292
405,0.224028,0.971067,0.08265,-0.18698,-0.071821,-0.150857
406,0.2321119999999999,0.970777,0.060897,-0.065669,0.031985,-0.040282
407,0.2403539999999999,0.969897,0.039014,0.030993,0.012754,0.19237
408,0.249502,0.968143,0.02097,0.023722,-0.000949,0.217464
409,0.258967,0.965853,0.0074329999999999,-0.099467,-0.030581,0.152739
410,0.268646,0.96322,-0.005245,-0.226807,-0.015177,-0.097859
411,0.2781869999999999,0.960319,-0.019818,-0.248051,0.017083,-0.105594
412,0.285848,0.957677,-0.03374,-0.218557,0.130077,-0.010526
413,0.290231,0.955722,-0.04851,-0.165735,0.115796,0.085482
414,0.290464,0.954607,-0.06594,-0.1221589999999999,0.107176,0.133277
415,0.287569,0.95433,-0.080934,-0.008639,0.065354,0.2263349999999999
416,0.284383,0.954451,-0.090234,-0.0015609999999999,0.040651,0.269509
417,0.279818,0.955701,-0.091266,-0.041689,0.007297,0.122928
418,0.2752969999999999,0.957747,-0.083203,-0.291029,0.3834849999999999,0.087918
419,0.274644,0.958481,-0.076658,-0.342484,0.344803,0.061811
420,0.269951,0.960456,-0.068127,-0.409096,0.31321,0.003934
421,0.259179,0.964404,-0.052363,-0.39779,0.343686,0.0027559999999999
422,0.2433139999999999,0.969556,-0.027401,-0.2479219999999999,0.338077,0.1919819999999999
423,0.2270059999999999,0.973821,0.011427,-0.1550609999999999,0.286112,0.257418
424,0.211274,0.975144,0.066685,0.137817,0.10028,0.226787
425,0.193833,0.97226,0.130878,0.22438,0.0236819999999999,-0.017078
426,0.172926,0.965929,0.192528,0.082369,0.135115,-0.371865
427,0.151955,0.956742,0.248079,-0.067086,0.266494,-0.455751
428,0.129579,0.946029,0.29703,-0.197435,0.4887859999999999,-0.497561
429,0.1093539999999999,0.935312,0.336482,-0.194712,0.5566,-0.352321
430,0.094424,0.923923,0.370727,-0.012103,0.378277,-0.297088
431,0.080934,0.912704,0.40051,0.129408,0.086747,-0.245756
432,0.063426,0.903705,0.4234159999999999,0.1564839999999999,-0.1247289999999999,-0.334732
433,0.044738,0.897446,0.438834,0.17772,-0.217225,-0.3045719999999999
434,0.0277459999999999,0.8934209999999999,0.4483479999999999,0.15159,-0.216862,-0.311202
435,0.0111709999999999,0.890977,0.453897,0.109083,-0.187425,-0.380365
436,-0.0008699999999999,0.8883469999999999,0.459159,0.106048,-0.168345,-0.4664529999999999
437,-0.0050659999999999,0.8852549999999999,0.4650649999999999,0.141877,-0.185716,-0.434929
438,-0.002266,0.883936,0.467589,0.202019,-0.229532,-0.296187
439,0.004752,0.8861469999999999,0.4633649999999999,0.243111,-0.248574,-0.215303
440,0.014228,0.891534,0.452715,0.277673,-0.225671,-0.148882
441,0.025875,0.899439,0.4362649999999999,0.30228,-0.23739,-0.069489
442,0.040042,0.909308,0.414176,0.265927,-0.133963,0.030862
443,0.055562,0.920592,0.386534,0.014293,0.041337,0.0925309999999999
444,0.071783,0.932048,0.355131,-0.089072,0.091511,0.1032579999999999
445,0.088916,0.940554,0.327776,-0.1467619999999999,0.287198,0.247008
446,0.105624,0.941958,0.31866,-0.0720389999999999,0.394712,0.439839
447,0.109689,0.940363,0.321983,-0.188196,0.238165,0.271615
448,0.099493,0.94269,0.318469,-0.270681,-0.120043,0.153944
449,0.081265,0.946888,0.311103,-0.2129489999999999,-0.204532,0.002694
450,0.062954,0.949509,0.307336,-0.122707,-0.093796,-0.155313
451,0.05091,0.95246,0.300357,-0.0473699999999999,0.156335,-0.360263
452,0.0490569999999999,0.956872,0.286315,0.306824,0.563926,-0.475692
453,0.049522,0.958414,0.28103,0.140542,0.548453,-0.1970299999999999
454,0.044497,0.955532,0.291489,0.643217,-0.6098439999999999,0.000656
455,0.042358,0.951598,0.3043889999999999,0.746583,-0.706283,-0.0462259999999999
456,0.0585539999999999,0.952935,0.2974449999999999,0.64042,-0.608391,-0.215047
457,0.084256,0.958351,0.272857,-0.007474,0.506508,-0.562377
458,0.097687,0.963198,0.250388,-0.235077,0.346754,-0.19657
459,0.106073,0.964778,0.240704,-0.18789,0.089268,-0.027355
460,0.116669,0.964623,0.236384,-0.24704,0.0379399999999999,-0.138316
461,0.129745,0.964142,0.231479,-0.200286,-0.005906,-0.121646
462,0.14339,0.964742,0.22068,0.007672,-0.0654039999999999,-0.101432
463,0.156552,0.965338,0.208811,-0.061719,-0.017599,-0.0875799999999999
464,0.1662809999999999,0.966754,0.1942279999999999,-0.037268,0.108838,-0.072417
465,0.1722119999999999,0.968625,0.1791559999999999,-0.048036,0.044269,-0.063921
466,0.175874,0.969806,0.168915,-0.033311,-0.098773,-0.013505
467,0.178359,0.970392,0.1628349999999999,-0.050781,-0.150583,0.004218
468,0.179442,0.970756,0.159444,-0.121123,-0.117469,-0.006917
469,0.177213,0.971632,0.156571,-0.180463,-0.081541,-0.048035
470,0.170713,0.973018,0.155182,-0.197218,-0.0238449999999999,0.061157
471,0.160705,0.9741,0.1590339999999999,-0.281891,-0.123971,-0.044425
472,0.147945,0.974405,0.169218,-0.201473,-0.394418,0.193499
473,0.135751,0.972909,0.187103,0.033591,-0.604104,0.2691199999999999
474,0.128142,0.971327,0.200227,0.043016,-0.347197,-0.143494
475,0.123345,0.969416,0.2121469999999999,-0.0888299999999999,-0.051615,-0.2429239999999999
476,0.117754,0.967836,0.222292,-0.255479,-0.074541,0.005338
477,0.1114849999999999,0.966373,0.231692,-0.119846,-0.249576,-0.121005
478,0.106334,0.964878,0.240188,0.009022,-0.248386,-0.190139
479,0.103904,0.962573,0.250286,-0.132774,0.072522,0.000721
480,0.1037859999999999,0.960355,0.258713,-0.211681,0.342578,-0.153214
481,0.102755,0.958507,0.265877,-0.39725,0.275486,-0.175499
482,0.094604,0.955566,0.279157,-0.26918,0.433792,0.010364
483,0.076331,0.948951,0.3060219999999999,-0.13642,0.534691,0.092462
484,0.047855,0.936312,0.347869,0.1065329999999999,0.5975010000000001,0.199982
485,0.013653,0.91659,0.399575,0.466038,0.507559,0.044745
486,-0.017353,0.892669,0.4503609999999999,0.58939,0.253663,-0.2631199999999999
487,-0.0380589999999999,0.868762,0.4937479999999999,0.507359,0.138257,-0.394184
488,-0.050029,0.847671,0.528142,0.044414,0.012833,0.167537
489,-0.065468,0.836527,0.543985,0.039681,0.22785,0.011068
490,-0.075003,0.836192,0.5432680000000001,0.086447,0.389486,-0.280817
491,-0.07818,0.838199,0.539715,0.245065,-0.13602,-0.29501
492,-0.07899,0.843024,0.532028,0.297831,-0.289008,-0.263504
493,-0.079595,0.8539190000000001,0.514266,0.416067,-0.559104,-0.114547
494,-0.077767,0.869641,0.487504,0.347115,-0.563397,-0.094575
495,-0.064448,0.8857209999999999,0.459704,0.168925,-0.547343,-0.0246
496,-0.041016,0.9005120000000001,0.432874,-0.182342,-0.507629,0.097522
497,-0.012366,0.915682,0.401694,-0.345285,-0.4746109999999999,-0.305213
498,0.023981,0.928423,0.37073,-0.298991,-0.305284,-0.4120819999999999
499,0.066158,0.935248,0.347735,0.144978,0.0915919999999999,0.16557
500,0.104604,0.938173,0.329961,0.140147,0.111082,0.285533
501,0.133565,0.940043,0.313793,0.134242,0.081152,0.28014
502,0.145061,0.945228,0.292384,0.34499,-0.209067,-0.000758
503,0.1491559999999999,0.952284,0.26626,0.445403,-0.178465,0.1660829999999999
504,0.147395,0.956293,0.2525159999999999,-0.018992,0.14475,-0.176482
505,0.134213,0.958408,0.25185,0.209064,0.1272849999999999,-0.565189
506,0.13174,0.960691,0.244346,-0.05627,0.006625,0.619103
507,0.130544,0.954697,0.267391,-0.413152,0.30931,-0.083325
508,0.117877,0.955994,0.268637,-0.426501,1.05696,-0.264029
509,0.088622,0.956649,0.277409,-0.820967,1.625932,0.004101
510,0.050759,0.950961,0.305094,-0.173043,-0.194583,0.318227
511,0.032008,0.945503,0.3240139999999999,0.40003,-0.646889,-1.194375
512,0.03092,0.9443,0.327609,0.256555,-0.2170659999999999,0.138639
513,0.039952,0.940666,0.336951,0.1232859999999999,0.228096,0.481195
514,0.047006,0.944091,0.326297,-0.01896,0.297532,-0.16315
515,0.0474259999999999,0.945734,0.321442,0.0010199999999999,0.167166,0.075408
516,0.047468,0.947722,0.315525,-0.045958,0.011323,-0.054173
517,0.0504089999999999,0.949173,0.31067,-0.097147,-0.198654,0.005782
518,0.057073,0.949972,0.307055,-0.085744,-0.387258,-0.0535
519,0.066935,0.950928,0.302063,-0.1834049999999999,-0.311737,0.1285089999999999
520,0.078111,0.952608,0.293979,-0.279726,-0.008272,0.001751
521,0.085388,0.954247,0.286546,-0.236542,0.206,0.071639
522,0.0857059999999999,0.95405,0.287108,-0.1680569999999999,0.085745,-0.027571
523,0.080823,0.95236,0.294051,-0.292981,0.102541,-0.059951
524,0.068371,0.946642,0.314931,-0.278119,0.273771,0.0076549999999999
525,0.045167,0.935922,0.34928,-0.21898,0.439856,0.1042109999999999
526,0.012574,0.920629,0.3902199999999999,0.221969,0.764247,-0.049369
527,-0.017562,0.8991389999999999,0.4372939999999999,0.506408,0.640885,-0.121941
528,-0.042995,0.873287,0.4852899999999999,0.5609390000000001,0.385105,-0.1103359999999999
529,-0.0574789999999999,0.851621,0.520982,0.462981,0.12343,0.186385
530,-0.075549,0.842276,0.533712,0.146197,0.00895,-0.136602
531,-0.085502,0.83742,0.539817,0.15615,0.013807,-0.142707
532,-0.094172,0.834576,0.54277,0.300578,-0.289044,-0.2496949999999999
533,-0.1033859999999999,0.8349209999999999,0.540558,0.315438,-0.613867,-0.250976
534,-0.1112539999999999,0.839781,0.5313899999999999,0.323305,-0.618726,-0.241809
535,-0.110618,0.8480280000000001,0.518263,0.176139,-0.641012,-0.2862989999999999
536,-0.09643,0.8597959999999999,0.5014350000000001,0.027292,-0.5674680000000001,-0.199342
537,-0.07264,0.876307,0.476229,0.003503,-0.583979,-0.1741359999999999
538,-0.040116,0.8954709999999999,0.443292,-0.265227,-0.315774,-0.2677239999999999
539,0.000407,0.912499,0.409061,-0.185725,0.09275,-0.206104
540,0.0408829999999999,0.925823,0.375722,-0.11675,0.209934,-0.1316109999999999
541,0.069755,0.938706,0.33757,0.153664,0.20076,0.017731
542,0.086104,0.951532,0.295227,0.310411,0.145071,0.1769099999999999
543,0.095108,0.962737,0.253138,0.1789849999999999,0.416551,0.331289
544,0.094019,0.972326,0.213846,-0.206263,0.475001,0.152075
545,0.076436,0.979216,0.1878369999999999,0.218775,-0.1081369999999999,-0.847001
546,0.065209,0.984261,0.164216,0.428322,-0.204827,-0.164872
547,0.07296,0.976576,0.202395,0.540428,-0.3190449999999999,1.643369
548,0.074273,0.969956,0.231642,-0.147042,0.317429,-0.660048
549,0.0621139999999999,0.971152,0.230205,-0.003322,0.3620239999999999,-1.140148
550,0.050661,0.971922,0.229756,-0.0028239999999999,0.4895489999999999,-0.407491
551,0.033075,0.970161,0.240169,-0.749765,0.811775,0.310948
552,0.0032939999999999,0.973499,0.22864,-0.042601,-0.020481,-0.509204
553,-0.011237,0.972887,0.230982,0.2367469999999999,-0.314851,-0.157801
554,-0.0086129999999999,0.96756,0.252469,0.244162,-0.415421,-0.08122
555,0.001715,0.963769,0.26671,0.221216,-0.301034,0.076292
556,0.01647,0.96131,0.274954,0.301127,-0.052726,0.229487
557,0.030518,0.960623,0.276152,0.176757,0.1070339999999999,0.053239
558,0.042224,0.962322,0.2685909999999999,-0.006458,0.141025,-0.007193
559,0.049592,0.963831,0.26184,-0.567765,0.2375239999999999,-0.037139
560,0.050377,0.964069,0.26081,-0.654121,0.103848,-0.114966
561,0.042599,0.961934,0.269922,-0.585904,0.005824,-0.146769
562,0.029831,0.955411,0.29375,-0.2142949999999999,-0.011106,-0.010745
563,0.0145639999999999,0.943751,0.330319,0.064736,0.3063099999999999,0.206165
564,-0.006573,0.925987,0.377483,0.243206,0.422859,0.124791
565,-0.029033,0.902641,0.429402,0.593928,0.475197,-0.115147
566,-0.051208,0.876482,0.478693,0.5089560000000001,0.272948,-0.247507
567,-0.063322,0.8519450000000001,0.519779,0.489714,0.254653,-0.143787
568,-0.07631,0.8346709999999999,0.545426,0.091004,0.08165,0.113341
569,-0.088874,0.828414,0.5530109999999999,0.0559,0.038804,-0.1204089999999999
570,-0.096682,0.82535,0.556272,0.081774,-0.025713,-0.1172
571,-0.100811,0.826204,0.554269,0.238659,-0.388262,-0.313226
572,-0.103713,0.831851,0.5452140000000001,0.320861,-0.615924,-0.261507
573,-0.103551,0.842987,0.527864,0.284749,-0.67192,-0.2189809999999999
574,-0.094012,0.8591840000000001,0.502945,0.1504849999999999,-0.578789,-0.069321
575,-0.073934,0.879183,0.470704,0.033345,-0.493654,0.030731
576,-0.043185,0.901707,0.4301729999999999,-0.140897,-0.276127,-0.0588049999999999
577,-0.002509,0.920671,0.390318,-0.228433,0.054335,-0.317793
578,0.0436649999999999,0.93325,0.356552,-0.12623,0.273339,-0.324401
579,0.0810419999999999,0.942194,0.325107,0.018948,0.170431,-0.09093
580,0.103851,0.95165,0.289083,0.236954,-0.003332,0.070505
581,0.119942,0.961035,0.249032,0.2998119999999999,-0.129584,0.247367
582,0.126631,0.969197,0.211219,0.327013,-0.04308,0.352303
583,0.123575,0.976312,0.177588,0.0212,0.094245,0.5100640000000001
584,0.108501,0.982014,0.154498,0.483571,-0.0133699999999999,-0.682605
585,0.099333,0.9859,0.134633,0.530977,0.000229,0.001643
586,0.101854,0.982898,0.153396,-0.229647,-0.050845,0.685227
587,0.104999,0.979477,0.172026,-0.0260339999999999,0.896698,0.0616769999999999
588,0.095959,0.979356,0.177892,-0.078045,1.340178,0.111827
589,0.0678179999999999,0.978039,0.1970599999999999,-0.53289,0.373234,0.063193
590,0.034598,0.975064,0.21919,0.291162,-0.708753,-0.334134
591,0.024475,0.974771,0.2218409999999999,0.427353,-0.65278,-0.8345879999999999
592,0.028756,0.976173,0.215058,0.2304909999999999,-0.153114,-0.403977
593,0.039327,0.975832,0.214932,0.011652,0.346953,0.09061
594,0.043482,0.977725,0.205314,0.076253,0.201642,-0.024162
595,0.044148,0.977873,0.204467,0.1312829999999999,-0.009916,0.116822
596,0.048141,0.976797,0.208663,0.170288,-0.301886,0.070802
597,0.0556679999999999,0.974982,0.215179,0.1165119999999999,-0.4822149999999999,0.092804
598,0.066708,0.973061,0.220667,-0.075772,-0.2293469999999999,0.212133
599,0.073282,0.971767,0.224254,-0.133173,-0.031445,0.166783
600,0.07276,0.97114,0.2271239999999999,-0.284445,0.024878,0.006396
601,0.0700279999999999,0.970098,0.2323739999999999,-0.291082,-0.125905,-0.1610089999999999
602,0.0696669999999999,0.967652,0.242463,-0.353053,-0.1233829999999999,-0.176331
603,0.0718299999999999,0.964464,0.254247,-0.433204,-0.09923,-0.106145
604,0.073836,0.961088,0.266175,-0.332075,0.053545,-0.1998
605,0.07102,0.955175,0.287385,-0.1648619999999999,0.3750719999999999,0.166351
606,0.057447,0.945799,0.3196179999999999,-0.060071,0.589464,0.169472
607,0.034291,0.931611,0.361826,0.5041770000000001,0.88005,0.099035
608,0.004651,0.912833,0.408298,0.58948,0.6603479999999999,0.009197
609,-0.02265,0.8908209999999999,0.4537819999999999,0.731024,0.4252039999999999,0.0009599999999999
610,-0.041623,0.870086,0.491131,0.4248479999999999,-0.070282,-0.0290029999999999
611,-0.056885,0.858319,0.509946,0.07695,-0.2943699999999999,-0.1272859999999999
612,-0.064185,0.8522549999999999,0.519166,0.020896,-0.102927,-0.205994
613,-0.063552,0.848527,0.525315,0.043487,-0.083802,-0.249162
614,-0.064047,0.847276,0.52727,0.124929,-0.327714,-0.264575
615,-0.063115,0.8514120000000001,0.520679,0.242207,-0.532442,-0.295261
616,-0.057145,0.860822,0.505679,0.35547,-0.603117,-0.300098
617,-0.040641,0.873094,0.4858479999999999,0.284889,-0.580903,-0.266717
618,-0.013012,0.8881319999999999,0.459395,0.129712,-0.534602,-0.076384
619,0.020896,0.904716,0.425494,-0.041511,-0.529014,0.046949
620,0.0621679999999999,0.920402,0.385988,-0.203968,-0.319404,0.0577679999999999
621,0.107142,0.932707,0.344341,-0.174876,0.026659,-0.1139329999999999
622,0.143735,0.94042,0.308128,0.055682,0.2610119999999999,-0.0986549999999999
623,0.163131,0.945567,0.281571,0.091553,0.071004,0.0656419999999999
624,0.1714089999999999,0.950784,0.258112,0.184167,-0.141366,0.064947
625,0.172363,0.957286,0.2321369999999999,0.30893,0.031331,0.3080699999999999
626,0.165654,0.96386,0.208629,-0.204365,0.419777,0.8197209999999999
627,0.137894,0.969812,0.201102,-0.109315,0.34078,-0.8703219999999999
628,0.114409,0.977934,0.174783,0.071534,-0.043897,-0.818002
629,0.100965,0.978401,0.180363,-0.229321,0.023705,0.327297
630,0.093835,0.974956,0.201615,-0.073434,0.353657,0.282195
631,0.078287,0.973113,0.216598,0.263876,1.631364,0.4731609999999999
632,0.0535429999999999,0.97213,0.228234,-0.224105,0.657463,-0.447472
633,0.020186,0.968175,0.2494449999999999,-0.069716,-0.175023,-0.282465
634,0.005358,0.965276,0.261161,0.225523,-0.520712,-0.345146
635,0.003324,0.965903,0.258866,-0.111066,0.1354759999999999,-0.054047
636,0.009564,0.966552,0.25628,-0.005352,0.085145,-0.194893
637,0.018629,0.969473,0.244475,0.092958,0.067545,-0.2135
638,0.027854,0.971176,0.2367159999999999,-0.11724,0.5313720000000001,0.281091
639,0.030188,0.971357,0.2356869999999999,-0.12586,0.33031,0.219482
640,0.031622,0.97014,0.2404619999999999,0.042108,-0.325365,0.1201339999999999
641,0.036596,0.968525,0.2461969999999999,-0.2084099999999999,-0.574864,0.096073
642,0.045611,0.966961,0.250798,-0.27634,-0.334942,0.085475
643,0.0536639999999999,0.964213,0.259627,-0.310546,0.114598,-0.035262
644,0.054525,0.959121,0.277683,-0.117086,-0.026549,-0.0288579999999999
645,0.049801,0.95267,0.299886,-0.121655,-0.083926,-0.163839
646,0.0396529999999999,0.942441,0.332003,-0.2397719999999999,0.085758,-0.1724109999999999
647,0.02468,0.926042,0.376603,-0.099997,0.4185319999999999,0.054275
648,0.00624,0.90552,0.4242479999999999,0.101899,0.440213,0.006691
649,-0.007986,0.8842209999999999,0.466992,0.504614,0.306636,-0.14642
650,-0.014721,0.8629479999999999,0.505071,0.592831,0.359159,-0.030737
651,-0.024583,0.8490280000000001,0.5277689999999999,0.504274,0.09128,0.104693
652,-0.03599,0.84299,0.536717,0.23939,0.183789,-0.034901
653,-0.044968,0.841875,0.5377890000000001,0.222519,0.111738,-0.1273119999999999
654,-0.050967,0.843357,0.534924,0.208865,-0.012532,-0.178357
655,-0.054825,0.848018,0.5271170000000001,0.1723029999999999,-0.39384,-0.129977
656,-0.056517,0.8566809999999999,0.512735,0.226316,-0.555655,-0.164377
657,-0.050917,0.8671719999999999,0.495393,0.2397139999999999,-0.544097,-0.180925
658,-0.03558,0.878793,0.475868,0.100384,-0.400918,-0.14756
659,-0.010169,0.89241,0.451104,-0.08651,-0.3972159999999999,-0.0865409999999999
660,0.023125,0.905975,0.422691,-0.19651,-0.406906,-0.041328
661,0.060299,0.916982,0.394337,-0.224148,-0.186773,-0.013035
662,0.092887,0.925751,0.366538,-0.054984,-0.083451,0.034234
663,0.11753,0.933884,0.3376989999999999,0.117623,0.012222,0.0978779999999999
664,0.134148,0.939793,0.314305,0.202766,0.077221,0.212017
665,0.146194,0.943165,0.298431,0.063569,-0.114414,0.143876
666,0.150667,0.947581,0.281753,0.096022,-0.068232,0.108674
667,0.14256,0.952808,0.268006,-0.0030039999999999,0.1328089999999999,0.011612
668,0.127746,0.959539,0.250919,0.3115239999999999,0.152995,-0.483432
669,0.123118,0.963349,0.238317,-0.005885,0.270339,0.178339
670,0.118807,0.963456,0.2400659999999999,-0.217058,0.129027,-0.0908809999999999
671,0.116771,0.964896,0.235233,0.1033369999999999,-0.101371,-0.2189969999999999
672,0.120722,0.966287,0.2274,0.266469,1.11225,0.2375659999999999
673,0.110674,0.966822,0.2302219999999999,-0.551455,1.609533,0.307589
674,0.082824,0.966787,0.241783,-0.2704,-0.080969,0.176232
675,0.065161,0.964819,0.254706,0.0396829999999999,-0.624884,0.09707
676,0.067223,0.965959,0.2498,0.162604,-0.518572,-0.872389
677,0.077765,0.964871,0.2509429999999999,-0.090872,-0.019086,0.0020629999999999
678,0.0884679999999999,0.964694,0.248063,0.032671,0.455136,0.434325
679,0.093225,0.967766,0.233955,0.0817929999999999,0.3194349999999999,-0.297905
680,0.098382,0.969431,0.2247719999999999,-0.224344,-0.157327,0.0465449999999999
681,0.106432,0.969506,0.220744,-0.278886,-0.243829,0.080205
682,0.118319,0.968701,0.218214,-0.250658,-0.3175929999999999,0.008424
683,0.134152,0.966322,0.2195949999999999,-0.187588,-0.052275,0.14747
684,0.151175,0.96321,0.2221969999999999,-0.188635,-0.011473,0.111604
685,0.1661369999999999,0.960201,0.224525,-0.19168,-0.029842,0.048623
686,0.179953,0.957202,0.226671,-0.345694,0.1195339999999999,0.065932
687,0.1932029999999999,0.954517,0.227086,-0.402019,0.14024,0.108272
688,0.204707,0.952236,0.226582,-0.4032699999999999,0.099506,0.100735
689,0.2153159999999999,0.949909,0.226518,-0.462463,-0.036289,-0.225846
690,0.223079,0.946567,0.232903,-0.393291,0.088894,-0.183129
691,0.224655,0.941501,0.251203,0.006652,0.6375850000000001,0.309436
692,0.211034,0.936284,0.280777,0.3129679999999999,0.491558,0.041458
693,0.185691,0.929555,0.318503,0.3689659999999999,0.259135,-0.139273
694,0.1595099999999999,0.921584,0.353889,0.34017,0.173234,-0.273094
695,0.1361089999999999,0.913725,0.382857,0.251678,0.188845,-0.4133439999999999
696,0.1218559999999999,0.905263,0.406998,-0.153701,0.599863,-0.321121
697,0.112035,0.897274,0.4270199999999999,-0.14826,0.8436629999999999,-0.20621
698,0.100485,0.893983,0.436687,0.037027,0.524825,-0.226025
699,0.0921029999999999,0.896639,0.433075,0.132079,0.161985,-0.307694
700,0.090989,0.90225,0.421504,0.218169,-0.035368,-0.306971
701,0.09811,0.908916,0.4052719999999999,0.299641,-0.129893,-0.286757
702,0.112075,0.915548,0.386278,0.2871559999999999,-0.2509659999999999,-0.2631239999999999
703,0.127893,0.921005,0.367957,0.113791,-0.3058619999999999,-0.365516
704,0.1496569999999999,0.923021,0.354451,0.165041,-0.281541,-0.291127
705,0.176509,0.921384,0.34626,0.267796,-0.2873199999999999,-0.209709
706,0.205313,0.91774,0.34,0.348002,-0.2329409999999999,0.000271
707,0.231513,0.913724,0.333931,0.173867,-0.146024,0.0009539999999999
708,0.254972,0.908132,0.332094,0.076373,-0.0139969999999999,-0.023943
709,0.273627,0.901214,0.336067,0.004723,0.000687,-0.008933
710,0.2872989999999999,0.8942129999999999,0.343281,-0.094566,-0.026614,0.067837
711,0.29669,0.888649,0.349681,-0.298246,-0.0291519999999999,0.067784
712,0.300511,0.885444,0.354515,-0.451008,0.057701,0.025505
713,0.300879,0.883466,0.359109,-0.382056,0.164432,0.00672
714,0.2963409999999999,0.8841319999999999,0.361238,-0.2239219999999999,0.171273,-0.052552
715,0.287154,0.888133,0.358835,-0.181274,0.165669,0.020041
716,0.2742159999999999,0.893963,0.354452,-0.21402,-0.010891,0.007792
717,0.259687,0.900783,0.348068,-0.013746,-0.198467,-0.148255
718,0.2473409999999999,0.907807,0.338685,0.348469,-0.192154,-0.312685
719,0.240561,0.915422,0.322692,0.626916,0.144392,-0.2450099999999999
720,0.236478,0.921284,0.308727,0.5602600000000001,0.375851,0.150883
721,0.235044,0.921382,0.309526,0.00133,0.895176,0.406248
722,0.220201,0.920585,0.3225409999999999,-0.007555,-0.296699,-0.409668
723,0.211531,0.920515,0.328488,-0.002807,-0.627668,-0.661283
724,0.219612,0.920073,0.324397,-0.173439,-0.507948,-0.598445
725,0.2356639999999999,0.919938,0.313328,-0.5587989999999999,0.566253,-0.212925
726,0.245323,0.919717,0.306488,-0.500679,0.639426,-0.224838
727,0.250589,0.921732,0.295992,-0.299707,0.401815,-0.3291949999999999
728,0.254613,0.924884,0.282415,0.121364,-0.112506,0.051005
729,0.258711,0.928013,0.268063,0.18529,-0.150532,0.08002
730,0.266588,0.930325,0.251837,0.172164,-0.1637539999999999,-0.119116
731,0.277996,0.931694,0.2337929999999999,-0.0072599999999999,-0.007897,-0.146543
732,0.289545,0.932438,0.216146,-0.039255,0.080883,-0.132711
733,0.2995219999999999,0.932546,0.201595,-0.047172,0.1175339999999999,-0.1143609999999999
734,0.309153,0.932103,0.188692,-0.076929,0.044307,-0.085115
735,0.319017,0.931116,0.176768,-0.098985,-0.001367,-0.04243
736,0.328733,0.929882,0.165076,-0.128874,-0.032467,-0.02349
737,0.338053,0.928598,0.153041,-0.122523,0.024817,-0.047206
738,0.346645,0.92742,0.140443,-0.111949,0.038278,-0.0164349999999999
739,0.355505,0.926037,0.126756,-0.175375,0.045872,0.029082
740,0.3648889999999999,0.924302,0.1118789999999999,-0.211523,0.004989,0.019744
741,0.374353,0.922285,0.096149,-0.2175389999999999,0.026399,0.02876
742,0.383893,0.919844,0.080674,-0.258694,0.051927,0.027038
743,0.392962,0.917174,0.066099,-0.3078639999999999,0.10985,-0.070112
744,0.3992239999999999,0.915379,0.051932,-0.2902909999999999,0.108592,-0.0338199999999999
745,0.4016929999999999,0.915031,0.03684,-0.176641,0.037758,-0.078984
746,0.401902,0.915441,0.020938,-0.140077,0.038218,-0.027667
747,0.401545,0.915813,0.006605,-0.1186319999999999,0.038868,0.032274
748,0.401646,0.915774,-0.00587,-0.168568,-0.041613,0.098994
749,0.398113,0.917225,-0.014133,-0.343776,0.034404,-0.029462
750,0.3971119999999999,0.917606,-0.01723,-0.372836,0.244305,-0.085889
751,0.39589,0.918107,-0.018616,-0.359315,0.551772,0.0076599999999999
752,0.390997,0.920313,-0.011839,-0.304816,0.674978,-0.050646
753,0.379899,0.925014,0.004533,-0.240525,0.65186,-0.046174
754,0.365055,0.930576,0.027542,-0.0012699999999999,0.416333,0.224869
755,0.34842,0.935057,0.06532,0.100448,0.194688,0.294651
756,0.329768,0.937011,0.115143,0.203985,0.009217,-0.004074
757,0.3114449999999999,0.936164,0.163072,0.165499,-0.0427009999999999,-0.40323
758,0.293646,0.933519,0.205688,0.044824,0.024076,-0.416671
759,0.278334,0.929225,0.243032,-0.016905,0.098652,-0.340306
760,0.264733,0.923908,0.276231,-0.131707,0.332516,-0.221407
761,0.249807,0.920071,0.301762,-0.096196,0.341328,-0.19846
762,0.232109,0.917362,0.323367,-0.031273,0.224896,-0.273394
763,0.213821,0.91542,0.340998,0.047685,-0.0122069999999999,-0.345957
764,0.196986,0.914505,0.353369,0.141393,-0.241608,-0.274939
765,0.1835099999999999,0.914229,0.361251,0.186546,-0.239562,-0.289321
766,0.174046,0.914716,0.364687,0.113673,-0.215054,-0.296404
767,0.1675859999999999,0.915759,0.365094,0.083558,-0.199801,-0.297513
768,0.164151,0.916915,0.36375,0.095965,-0.216827,-0.306636
769,0.165747,0.917966,0.360359,0.09762,-0.279356,-0.295738
770,0.171352,0.919703,0.3532409999999999,0.082981,-0.310145,-0.13446
771,0.179088,0.922995,0.34059,0.07459,-0.228385,-0.0792679999999999
772,0.188972,0.927883,0.321431,0.031472,-0.044719,0.0535529999999999
773,0.199919,0.932533,0.300681,-0.177153,0.334541,0.126489
774,0.209938,0.935391,0.284541,-0.17939,0.336932,0.19222
775,0.21618,0.93481,0.2817659999999999,-0.051675,0.035466,0.406146
776,0.216078,0.934132,0.284081,-0.205656,-0.263753,0.153175
777,0.214327,0.936752,0.276687,-0.239305,-0.347839,-0.0538019999999999
778,0.213829,0.940613,0.263667,-0.331306,-0.390289,-0.2745309999999999
779,0.211834,0.944448,0.251277,-0.084271,0.4824319999999999,-0.2842969999999999
780,0.2079739999999999,0.94685,0.245394,0.080783,0.833943,-0.357012
781,0.201019,0.948639,0.244276,-0.072617,0.021713,-0.0075819999999999
782,0.188186,0.947897,0.2570469999999999,0.088212,-0.547064,-0.238263
783,0.177799,0.949232,0.259503,0.258404,-0.909315,-0.225262
784,0.193259,0.94815,0.252304,0.160775,-0.305679,-0.3235929999999999
785,0.2133159999999999,0.94743,0.238471,-0.16699,0.780323,-0.3426889999999999
786,0.2227469999999999,0.946641,0.232913,-0.146194,0.734679,-0.321857
787,0.229066,0.945846,0.229996,0.026305,-0.061813,0.11914
788,0.237082,0.944788,0.226188,-0.015112,-0.080439,0.086418
789,0.245996,0.944998,0.2155409999999999,-0.158243,0.019922,-0.1610369999999999
790,0.2535139999999999,0.946197,0.2010849999999999,-0.206654,0.017426,-0.119923
791,0.256544,0.948216,0.187257,-0.1731849999999999,-0.029973,-0.0934919999999999
792,0.2571739999999999,0.950453,0.174625,-0.13225,-0.078673,-0.028064
793,0.257703,0.952272,0.1635859999999999,-0.118314,-0.082399,0.0514559999999999
794,0.257155,0.953707,0.155911,-0.168822,-0.1218279999999999,0.062809
795,0.254261,0.954868,0.153531,-0.183918,-0.170765,0.101229
796,0.249054,0.955604,0.157441,-0.2053219999999999,-0.1900089999999999,0.052688
797,0.2413699999999999,0.956134,0.165955,-0.252586,-0.213718,0.019027
798,0.2300989999999999,0.956377,0.179976,-0.232555,-0.337694,0.036867
799,0.218565,0.955759,0.196846,-0.16371,-0.330515,0.068321
800,0.208889,0.95479,0.211508,-0.173992,-0.263887,-0.060354
801,0.200684,0.953749,0.223789,-0.074982,-0.1995839999999999,-0.210957
802,0.194603,0.952263,0.235197,-0.066353,-0.1637809999999999,-0.067747
803,0.191429,0.950266,0.245648,-0.053002,-0.030451,0.0113099999999999
804,0.191124,0.948193,0.253762,-0.156823,0.137012,-0.041589
805,0.191252,0.947121,0.257639,-0.331999,0.216133,-0.152293
806,0.192877,0.946717,0.25791,-0.394415,0.205565,-0.20246
807,0.19542,0.945713,0.259676,-0.396958,0.2065699999999999,-0.204225
808,0.197027,0.942656,0.269393,-0.2378449999999999,0.5280779999999999,0.059495
809,0.1899809999999999,0.937491,0.291566,-0.0336389999999999,0.733178,0.35974
810,0.168488,0.929118,0.329157,-0.012147,0.741552,0.3221489999999999
811,0.137357,0.915468,0.378212,0.391406,0.528273,0.298378
812,0.103538,0.89885,0.4258399999999999,0.520455,-0.138658,-0.297178
813,0.076879,0.880484,0.467792,0.547114,-0.120291,-0.33913
814,0.068461,0.863038,0.50047,-0.06927,-0.450837,-0.243344
815,0.065677,0.8495379999999999,0.523414,-0.173755,-0.082098,0.19854
816,0.063119,0.84641,0.528771,0.2285219999999999,0.547755,0.025963
817,0.060411,0.8485209999999999,0.525694,0.2912119999999999,0.3749429999999999,-0.159391
818,0.06275,0.8510459999999999,0.521321,0.339533,-0.441225,-0.268941
819,0.068685,0.8556159999999999,0.513026,0.300914,-0.6630659999999999,-0.235789
820,0.075289,0.8639389999999999,0.497929,0.169569,-0.796968,-0.1549869999999999
821,0.082827,0.875782,0.475538,-0.074374,-0.673848,-0.0277839999999999
822,0.09193,0.88936,0.44786,-0.0990559999999999,-0.6753100000000001,0.027543
823,0.106648,0.903088,0.415992,-0.148198,-0.636608,0.038582
824,0.132802,0.914291,0.382658,-0.148442,-0.224548,-0.169142
825,0.169169,0.92042,0.3524219999999999,-0.145732,-0.0579159999999999,-0.192555
826,0.2026339999999999,0.922354,0.3289289999999999,-0.105955,0.17106,0.049657
827,0.2234949999999999,0.925312,0.3063329999999999,-0.02098,0.14468,0.131076
828,0.231956,0.931726,0.279419,0.077019,0.045035,0.16893
829,0.23438,0.940095,0.247546,0.402568,-0.083863,0.253843
830,0.234934,0.945892,0.2238,0.147268,0.129105,0.123475
831,0.220396,0.951416,0.215001,0.182283,0.0244449999999999,-0.354115
832,0.208317,0.95633,0.20501,-0.098164,-0.2730869999999999,0.2320469999999999
833,0.203326,0.955134,0.215335,-0.419055,0.013082,-0.052966
834,0.193379,0.956854,0.216861,-0.1884809999999999,1.106531,0.269788
835,0.166718,0.955126,0.244811,-0.747635,2.301527,0.352037
836,0.1280099999999999,0.953327,0.273445,-0.256886,-0.2329449999999999,-0.0622789999999999
837,0.105556,0.950208,0.293178,0.294224,-0.968061,-0.499126
838,0.101338,0.950103,0.295001,0.303737,-0.5878439999999999,-0.290332
839,0.1204079999999999,0.946215,0.3002829999999999,-0.047394,0.82736,0.5189
840,0.127636,0.948008,0.291516,-0.294247,1.128897,0.030475
841,0.120499,0.951002,0.284721,-0.1126559999999999,0.257143,-0.100837
842,0.120096,0.95086,0.285365,0.039633,-0.111123,0.113073
843,0.126358,0.948809,0.28946,-0.095718,-0.160616,0.288253
844,0.1352,0.945407,0.296511,-0.156791,-0.077044,0.2286969999999999
845,0.1428289999999999,0.941703,0.304608,-0.101631,-0.213096,0.087222
846,0.146788,0.937781,0.314662,-0.140257,-0.318335,0.150578
847,0.147489,0.934545,0.323827,-0.190626,-0.249517,-0.227651
848,0.146925,0.928992,0.339674,-0.262602,0.016183,-0.0208719999999999
849,0.140266,0.919164,0.368041,-0.347313,0.1010539999999999,-0.133528
850,0.127706,0.903601,0.408886,-0.243886,0.313974,-0.177196
851,0.106064,0.881763,0.459604,0.023971,0.428509,0.020361
852,0.08061,0.8557610000000001,0.5110439999999999,0.158815,0.467222,-0.107739
853,0.050741,0.831627,0.553003,0.434138,0.395973,0.0279139999999999
854,0.028456,0.815262,0.578384,0.126772,0.34494,0.161454
855,0.006271,0.80994,0.586471,-0.030563,0.0087549999999999,-0.162185
856,-0.004638,0.8078810000000001,0.589318,0.039672,-0.151036,-0.150659
857,-0.011477,0.809883,0.586471,0.295183,-0.0203169999999999,-0.040679
858,-0.026706,0.8147939999999999,0.579126,0.281848,-0.086141,-0.102838
859,-0.038334,0.824105,0.565129,0.331226,-0.246911,-0.168142
860,-0.041871,0.8366399999999999,0.546141,0.167222,-0.4549569999999999,-0.295363
861,-0.031404,0.851116,0.5240279999999999,0.088426,-0.42741,-0.209056
862,-0.01093,0.8688379999999999,0.4949659999999999,-0.073161,-0.541369,-0.067323
863,0.015901,0.88725,0.4610039999999999,-0.359376,-0.751188,-0.142691
864,0.049911,0.90354,0.425575,-0.401839,-0.675391,-0.182716
865,0.088937,0.914271,0.395207,-0.219842,-0.245677,-0.309407
866,0.128165,0.922521,0.364032,0.15156,0.278514,-0.135486
867,0.1587829999999999,0.932167,0.325337,0.212296,0.352944,0.043438
868,0.175528,0.942206,0.285359,0.238138,0.107538,0.350093
869,0.1761609999999999,0.952907,0.246835,0.091677,-0.0911059999999999,0.340873
870,0.170167,0.96321,0.2079929999999999,0.1224809999999999,-0.056075,0.139938
871,0.165842,0.971287,0.170558,0.108939,0.185268,0.158712
872,0.1607039999999999,0.975848,0.147944,0.1868,0.208967,-0.226008
873,0.162435,0.97773,0.132858,0.5877319999999999,0.039619,0.304123
874,0.1681619999999999,0.975582,0.141258,-0.238109,-0.315227,0.577492
875,0.17485,0.974435,0.1410529999999999,-0.3285369999999999,-0.204233,0.34407
876,0.168671,0.976026,0.137532,-0.30568,2.061465,0.0486399999999999
877,0.138317,0.978402,0.153591,-1.030835,0.925148,-0.722531
878,0.098207,0.979372,0.17657,-0.14557,-0.869448,-0.091731
879,0.078354,0.976841,0.1990819999999999,0.141769,-1.185749,0.123595
880,0.078345,0.979018,0.18809,0.263849,-0.036712,-0.447367
881,0.084739,0.977762,0.191817,0.176995,0.334418,0.030458
882,0.091553,0.977111,0.191999,0.054687,0.439072,-0.026762
883,0.089796,0.978295,0.18673,0.053622,0.026451,-0.080483
884,0.088292,0.977874,0.189627,-0.086019,-0.246551,0.109567
885,0.0905509999999999,0.976548,0.1953119999999999,-0.223989,-0.361725,0.3050239999999999
886,0.095522,0.975125,0.199995,-0.059908,-0.269254,0.1173869999999999
887,0.102448,0.97352,0.20434,-0.094453,-0.188394,0.103751
888,0.1100589999999999,0.972218,0.206571,-0.122541,-0.094319,0.001391
889,0.1180089999999999,0.971025,0.20779,-0.185407,0.019972,-0.126125
890,0.124575,0.970023,0.208636,-0.393236,0.167993,-0.058962
891,0.127563,0.969531,0.209115,-0.473053,0.263623,-0.035698
892,0.1272,0.969873,0.2077429999999999,-0.446109,0.079916,-0.1075839999999999
893,0.127218,0.969748,0.208317,-0.177221,0.078805,-0.094898
894,0.125943,0.968465,0.214956,-0.068783,0.192546,-0.012045
895,0.117977,0.964975,0.2343,0.135471,0.558615,0.382246
896,0.100086,0.958983,0.265189,0.3201719999999999,0.655824,0.4338609999999999
897,0.07151,0.950364,0.302797,0.3932719999999999,0.617629,0.292128
898,0.035748,0.937957,0.344891,0.4193909999999999,0.034242,-0.092282
899,0.00717,0.919388,0.3932739999999999,0.244203,-0.204087,-0.006952
900,-0.003859,0.8975270000000001,0.44093,0.255233,-0.182226,-0.054608
901,-0.006207,0.881141,0.472802,-0.144275,-0.0541909999999999,-0.081581
902,-0.004833,0.870915,0.491399,0.304668,0.016964,0.016078
903,-0.00442,0.866448,0.499238,0.304255,0.021431,0.008239
904,-0.007923,0.865524,0.500793,0.348362,-0.026444,-0.222702
905,-0.010442,0.867661,0.497037,0.1453289999999999,-0.4486239999999999,-0.210904
906,-0.005813,0.8739020000000001,0.4860569999999999,0.098296,-0.618271,-0.236652
907,0.0092819999999999,0.8831459999999999,0.468996,0.084682,-0.718595,-0.223055
908,0.034532,0.89397,0.446784,-0.050127,-0.703464,-0.233512
909,0.066102,0.906767,0.416409,-0.105698,-0.735746,-0.164791
910,0.10027,0.919986,0.378896,-0.177342,-0.7507199999999999,-0.102453
911,0.141003,0.929954,0.33955,-0.1935849999999999,-0.076439,-0.087551
912,0.182118,0.935367,0.30317,-0.175481,0.169827,-0.059808
913,0.211731,0.938817,0.271631,0.188721,0.224437,0.146033
914,0.2318619999999999,0.942417,0.241003,0.142177,-0.000766,0.251169
915,0.246696,0.945701,0.2116219999999999,0.053063,-0.151816,0.2732719999999999
916,0.251448,0.949942,0.185411,0.240831,-0.095953,0.272002
917,0.249135,0.954716,0.162607,0.317302,0.06364,0.631262
918,0.239556,0.958701,0.153292,0.1105109999999999,0.502679,-0.011065
919,0.2262719999999999,0.964894,0.133317,-0.462676,0.03802,0.3522639999999999
920,0.213364,0.967809,0.133473,-0.395401,0.371058,0.58662
921,0.1965559999999999,0.967283,0.16038,-0.378594,0.371584,0.559713
922,0.17222,0.964741,0.199015,-0.664759,0.654094,-0.443537
923,0.148777,0.962453,0.22703,-0.434101,-0.1069079999999999,-0.999582
924,0.143676,0.955513,0.257573,0.199326,-0.688546,-0.237965
925,0.149546,0.953008,0.263447,-0.04188,0.1589,-0.092731
926,0.153423,0.953761,0.258447,0.040592,0.3407489999999999,-0.303567
927,0.15339,0.957298,0.24504,0.078482,0.083947,-0.077957
928,0.151856,0.960522,0.233086,-0.064515,0.357456,0.259971
929,0.147444,0.962844,0.226239,-0.178252,0.297593,0.112338
930,0.144289,0.963803,0.224176,0.025328,-0.369764,0.202673
931,0.147324,0.962632,0.227215,0.159973,-0.6356970000000001,0.2182199999999999
932,0.156838,0.96144,0.22589,-0.003624,-0.3402239999999999,0.123918
933,0.1686369999999999,0.959386,0.226121,-0.223385,0.141063,0.115463
934,0.176798,0.957651,0.227236,-0.350015,0.250585,0.061292
935,0.179045,0.955956,0.232553,-0.4345989999999999,0.111732,-0.123499
936,0.177092,0.952138,0.249121,-0.4468819999999999,0.062648,-0.041662
937,0.169622,0.945107,0.279267,-0.351979,0.132667,-0.0076459999999999
938,0.156174,0.933315,0.323299,0.12143,0.331227,0.133092
939,0.139272,0.917005,0.373756,0.333263,0.360735,0.029305
940,0.120486,0.8972319999999999,0.4247899999999999,0.574995,0.233719,-0.145584
941,0.103213,0.875793,0.47151,0.336377,0.0280769999999999,0.053591
942,0.090781,0.8552299999999999,0.510223,0.33848,0.129313,0.325836
943,0.074338,0.8460139999999999,0.52794,0.154178,0.224237,0.135634
944,0.06136,0.8437600000000001,0.533189,0.210994,0.047307,-0.089494
945,0.052924,0.843363,0.53472,0.182259,-0.012247,-0.089622
946,0.043322,0.847407,0.529162,0.1590099999999999,-0.1539559999999999,-0.17708
947,0.036015,0.855683,0.516234,0.1754869999999999,-0.5298619999999999,-0.267134
948,0.0363459999999999,0.866185,0.4983869999999999,0.2084659999999999,-0.593633,-0.258259
949,0.04725,0.8780629999999999,0.476193,0.156668,-0.525295,-0.2564659999999999
950,0.0690549999999999,0.8899440000000001,0.450799,-0.044962,-0.536184,-0.080483
951,0.100711,0.902056,0.4196899999999999,-0.1242099999999999,-0.604342,-0.002729
952,0.139443,0.913827,0.381398,-0.269051,-0.6536029999999999,-0.010549
953,0.184407,0.922073,0.34024,-0.054448,-0.004013,-0.191131
954,0.2290989999999999,0.925662,0.301085,0.033794,0.255826,-0.151412
955,0.259768,0.928193,0.266395,0.0653509999999999,0.409606,0.245888
956,0.275458,0.931377,0.23801,-0.238242,0.314534,0.778836
957,0.266245,0.93895,0.217888,-0.273127,0.312835,0.692055
958,0.226923,0.952817,0.201579,0.309607,-0.085462,-1.483791
959,0.196161,0.96873,0.151895,0.4110319999999999,-0.159526,-0.706919
960,0.18454,0.971676,0.1475769999999999,0.1726079999999999,-0.053998,0.784567
961,0.180517,0.964449,0.192977,-0.369848,0.737165,0.688066
962,0.170174,0.962079,0.21315,-0.021554,0.687289,0.20279
963,0.162641,0.961638,0.22088,0.30704,0.871232,-0.277032
964,0.14694,0.956988,0.25014,0.068941,-0.142764,-0.0369139999999999
965,0.135481,0.955759,0.2610699999999999,-0.053465,-0.128748,0.172524
966,0.121695,0.957771,0.260486,-0.1292319999999999,0.169106,-0.131778
967,0.111474,0.958664,0.261772,0.031577,-0.308136,-0.270713
968,0.1072859999999999,0.957349,0.268253,0.063322,-0.550825,-0.2162659999999999
969,0.111691,0.955901,0.271601,0.062961,-0.750975,-0.0768679999999999
970,0.124511,0.956504,0.26379,0.064927,-0.483649,0.014454
971,0.140893,0.957976,0.2498389999999999,0.040687,-0.063567,0.111169
972,0.153715,0.958464,0.2402239999999999,-0.002241,0.173861,0.346156
973,0.155947,0.958487,0.2386869999999999,-0.389345,0.4990479999999999,0.146536
974,0.153911,0.958051,0.241738,-0.328914,-0.120069,0.055031
975,0.1555369999999999,0.956041,0.248559,-0.352436,-0.420381,-0.0773399999999999
976,0.1605619999999999,0.95189,0.2609849999999999,-0.408167,-0.165177,0.001848
977,0.162431,0.943658,0.288294,-0.310213,0.368842,0.2080739999999999
978,0.15369,0.93086,0.331463,-0.084354,0.7498199999999999,0.275242
979,0.1399,0.912826,0.383619,0.274544,0.642716,0.2056599999999999
980,0.122465,0.892491,0.434108,0.5593739999999999,0.4147909999999999,-0.15092
981,0.106646,0.870592,0.4802949999999999,0.5742619999999999,0.305037,0.0030269999999999
982,0.094454,0.8520030000000001,0.514933,0.258375,0.371355,0.212331
983,0.078295,0.8434959999999999,0.5313869999999999,-0.140093,-0.130407,-0.09143
984,0.071319,0.839717,0.538308,0.096985,-0.123317,-0.079842
985,0.066984,0.83935,0.539438,0.157229,-0.0327089999999999,-0.186502
986,0.062625,0.841274,0.536958,0.1235329999999999,-0.083004,-0.223374
987,0.059124,0.848885,0.5252479999999999,0.2354929999999999,-0.359902,-0.2412969999999999
988,0.060978,0.860965,0.504984,0.238186,-0.567477,-0.312418
989,0.073666,0.874492,0.479402,0.020679,-0.467891,-0.1197829999999999
990,0.095785,0.890257,0.445259,-0.075232,-0.5135029999999999,-0.038796
991,0.123238,0.906847,0.403025,-0.30819,-0.6144430000000001,0.0341389999999999
992,0.152835,0.921479,0.357081,-0.356097,-0.217134,-0.213359
993,0.184439,0.932384,0.3108579999999999,-0.2070219999999999,0.00182,-0.236044
994,0.212446,0.939382,0.269106,0.138247,0.223292,-0.210024
995,0.235956,0.944236,0.229636,0.48197,0.05021,0.480554
996,0.255286,0.946953,0.195191,0.416574,-0.08416,0.6457970000000001
997,0.260625,0.950678,0.168157,0.143138,-0.287485,0.38679
998,0.2548829999999999,0.956523,0.141734,0.177047,0.079899,0.6080979999999999
999,0.241614,0.962091,0.126467,-0.078345,0.197775,0.550154
1000,0.222029,0.96852,0.112535,-0.075942,0.194551,-1.096529
1001,0.203774,0.974342,0.095526,-0.400933,0.052101,0.7254430000000001
1002,0.1846539999999999,0.976063,0.114866,-0.476356,0.776637,0.504396
1003,0.157849,0.977929,0.136852,-0.326382,0.981894,0.259236
1004,0.135914,0.979601,0.147988,-0.3845409999999999,0.656401,-0.299019
1005,0.117406,0.980418,0.158076,-0.1142619999999999,-0.355982,-0.495295
1006,0.1074,0.979195,0.172141,-0.066644,0.024467,-0.18473
1007,0.103877,0.978443,0.1784589999999999,-0.1094619999999999,0.208736,0.150535
1008,0.101445,0.976826,0.188439,0.061077,0.129299,0.033805
1009,0.1033819999999999,0.975745,0.192931,0.229366,-0.45211,-0.218077
1010,0.112544,0.97441,0.194549,0.156988,-0.477858,-0.154662
1011,0.12961,0.972907,0.191421,-0.098802,-0.033927,-0.018936
1012,0.148064,0.972127,0.181756,-0.3494489999999999,0.08198,0.122092
1013,0.163527,0.971969,0.168892,-0.460631,0.159516,0.168388
1014,0.1748299999999999,0.97224,0.155479,-0.553385,0.167042,0.117577
1015,0.185225,0.971368,0.148752,-0.424376,0.014884,0.182943
1016,0.19852,0.968805,0.148316,-0.30405,-0.0835809999999999,0.118362
1017,0.216253,0.96534,0.146098,-0.301764,-0.00042,0.209706
1018,0.233211,0.961823,0.14318,-0.4856069999999999,0.159302,-0.071311
1019,0.243903,0.958732,0.146065,-0.582129,0.447777,-0.041878
1020,0.247296,0.955905,0.15837,-0.194165,0.680509,0.216248
1021,0.239126,0.954002,0.180801,0.339472,0.563164,0.13028
1022,0.2249239999999999,0.951249,0.211008,0.477926,0.306396,-0.085993
1023,0.21079,0.946416,0.244652,0.553721,0.133174,-0.134667
1024,0.197642,0.940935,0.274897,0.564214,0.147322,-0.244792
1025,0.1859829999999999,0.936083,0.298576,0.25463,0.366896,-0.238396
1026,0.177181,0.931183,0.318582,-0.007473,0.7830199999999999,0.064459
1027,0.163104,0.930394,0.328258,-0.328937,0.6818649999999999,-0.025615
1028,0.1445519999999999,0.935378,0.322741,-0.061621,-0.052322,-0.332675
1029,0.132368,0.940895,0.311745,0.004854,-0.201759,-0.346612
1030,0.13146,0.944039,0.302489,0.167598,-0.315026,-0.354857
1031,0.138168,0.944618,0.297651,0.090836,-0.275368,-0.19319
1032,0.150013,0.944116,0.293481,0.066509,-0.169443,-0.178704
1033,0.165516,0.942467,0.290432,0.119747,-0.115014,-0.129879
1034,0.1812359999999999,0.940242,0.288251,0.237114,-0.228771,-0.036847
1035,0.193066,0.938793,0.28528,0.225055,-0.243648,-0.013323
1036,0.2018569999999999,0.936989,0.285127,0.134325,-0.091194,0.087249
1037,0.20758,0.934457,0.289296,-0.029388,0.227714,0.278484
1038,0.210378,0.931846,0.295626,-0.1164299999999999,0.232308,0.344281
1039,0.213903,0.930048,0.298742,-0.351538,0.1318869999999999,0.3856449999999999
1040,0.2178969999999999,0.927729,0.303036,-0.066651,-0.149454,0.028613
1041,0.21754,0.92469,0.312436,0.031713,-0.2001869999999999,-0.078534
1042,0.213873,0.923242,0.319175,0.0090879999999999,-0.251322,-0.105338
1043,0.2064489999999999,0.924941,0.3191469999999999,-0.051725,-0.167891,-0.080271
1044,0.193891,0.92908,0.314972,-0.046842,-0.13277,-0.082703
1045,0.178208,0.932876,0.31301,0.072738,0.323334,0.0581299999999999
1046,0.166704,0.939272,0.299948,0.019987,0.541639,0.2953429999999999
1047,0.1606,0.942344,0.293574,0.001158,0.551705,0.237722
1048,0.159611,0.941525,0.296726,0.254208,-0.123791,-0.1371339999999999
1049,0.17155,0.93999,0.294925,0.329518,-0.24927,-0.201465
1050,0.193487,0.939062,0.2841079999999999,0.2205599999999999,-0.193395,-0.277821
1051,0.2146989999999999,0.938959,0.268795,-0.089638,0.2014369999999999,-0.403041
1052,0.2283219999999999,0.939846,0.254067,-0.342732,0.119251,-0.326653
1053,0.2374369999999999,0.941398,0.23955,-0.422221,0.046562,-0.307009
1054,0.243604,0.942898,0.2271389999999999,-0.240232,0.1029549999999999,-0.112713
1055,0.25136,0.943073,0.217768,-0.121996,0.076916,-0.065837
1056,0.2615659999999999,0.942272,0.2090429999999999,0.034485,0.008244,-0.0734529999999999
1057,0.274171,0.941527,0.195828,0.094726,0.026536,-0.07922
1058,0.284276,0.942273,0.176917,0.018229,-0.021131,-0.095236
1059,0.288805,0.944605,0.1559019999999999,-0.131242,-0.06605,-0.2007779999999999
1060,0.291243,0.947146,0.134475,-0.123564,-0.0771049999999999,-0.132354
1061,0.294004,0.948872,0.114874,-0.059522,0.027752,-0.095481
1062,0.298778,0.949254,0.098186,-0.001263,0.088084,-0.033351
1063,0.305221,0.948496,0.084781,0.036759,-0.011439,0.084286
1064,0.312693,0.947011,0.073385,0.030035,-0.037251,0.071802
1065,0.320536,0.945202,0.0619809999999999,0.006978,-0.057873,0.066361
1066,0.328251,0.943283,0.049609,-0.084598,-0.0445399999999999,0.00282
1067,0.33581,0.941222,0.036398,-0.156687,0.07544,0.061502
1068,0.343458,0.938921,0.021348,-0.189665,0.1001259999999999,0.093688
1069,0.350778,0.936443,0.004792,-0.256417,0.1083109999999999,0.0981139999999999
1070,0.355748,0.934509,-0.01139,-0.214131,0.0491029999999999,0.15203
1071,0.359551,0.932721,-0.027337,-0.202431,0.055789,0.15429
1072,0.355659,0.933958,-0.034966,-0.214378,0.062731,0.002251
1073,0.348196,0.936571,-0.039842,-0.192999,0.110747,0.145738
1074,0.344005,0.937839,-0.045957,-0.171428,0.225476,0.195508
1075,0.339605,0.939466,-0.045435,-0.198904,0.457339,0.179377
1076,0.333054,0.942291,-0.033983,-0.381226,0.57399,0.026155
1077,0.320779,0.947101,-0.0096379999999999,-0.329263,0.541058,-0.0398149999999999
1078,0.303286,0.952573,0.0247849999999999,-0.096286,0.370654,0.166118
1079,0.283961,0.956167,0.07143,0.2357679999999999,0.163706,0.276363
1080,0.266545,0.955015,0.129963,0.253185,0.164858,0.217831
1081,0.252894,0.949672,0.184819,0.074865,-0.02061,-0.676808
1082,0.242076,0.942517,0.230327,-0.237055,0.137454,-0.22021
1083,0.2268869999999999,0.934506,0.274244,-0.3271679999999999,0.211216,-0.119276
1084,0.209938,0.928045,0.307648,-0.2136159999999999,0.5089670000000001,-0.215744
1085,0.191419,0.923351,0.332823,0.016283,0.331776,-0.329482
1086,0.16956,0.91988,0.353638,0.083263,0.142391,-0.356294
1087,0.149489,0.916406,0.371271,0.152513,-0.111276,-0.330759
1088,0.133976,0.912911,0.38553,0.172863,-0.2361219999999999,-0.32741
1089,0.121443,0.909213,0.398211,0.159135,-0.23595,-0.321703
1090,0.111695,0.905754,0.408807,0.114165,-0.210029,-0.294046
1091,0.1053,0.902928,0.416681,0.083238,-0.199406,-0.298715
1092,0.1046619999999999,0.900603,0.4218409999999999,0.116423,-0.190001,-0.3406639999999999
1093,0.111148,0.8983469999999999,0.424979,0.163678,-0.226091,-0.326621
1094,0.122847,0.896862,0.424897,0.208055,-0.278957,-0.135422
1095,0.135768,0.897603,0.419364,0.201253,-0.253377,-0.069815
1096,0.147928,0.901079,0.407632,0.146307,-0.163667,0.00199
1097,0.16041,0.906013,0.391662,0.010779,0.064797,0.115159
1098,0.1746859999999999,0.910119,0.37571,-0.020816,0.120826,0.1582859999999999
1099,0.189558,0.911555,0.3648619999999999,-0.109877,0.1489,0.2970489999999999
1100,0.202981,0.908925,0.364203,-0.108071,0.140346,0.347283
1101,0.2067159999999999,0.905261,0.37116,-0.164479,0.109951,0.33137
1102,0.202997,0.905053,0.373712,-0.254374,-0.277826,0.167121
1103,0.1946119999999999,0.910079,0.365886,-0.2545949999999999,-0.3150469999999999,0.103352
1104,0.184558,0.915176,0.358304,-0.105456,0.08899,-0.212964
1105,0.177932,0.918294,0.353647,-0.071823,0.747508,-0.5953609999999999
1106,0.168524,0.923806,0.343762,-0.078925,0.900703,-0.479306
1107,0.152975,0.925366,0.346825,0.2353,0.154926,-0.0559309999999999
1108,0.1458269999999999,0.918415,0.367749,0.721635,-0.79285,-0.0599639999999999
1109,0.160682,0.916412,0.366554,0.48565,-0.7819510000000001,-0.145699
1110,0.1786029999999999,0.923448,0.3396119999999999,0.026047,0.25064,-0.556287
1111,0.185743,0.930264,0.316386,-0.052595,0.653736,-0.612987
1112,0.193101,0.932279,0.305874,-0.212831,0.302721,-0.253429
1113,0.2027769999999999,0.932296,0.299494,-0.184635,0.0244449999999999,-0.172984
1114,0.213387,0.934134,0.286097,-0.083047,0.072381,-0.240946
1115,0.225021,0.936565,0.268705,-0.052902,0.006748,-0.162428
1116,0.236882,0.938424,0.251473,-0.02245,-0.056939,-0.09002
1117,0.245548,0.940762,0.233805,0.065151,0.0336949999999999,-0.035807
1118,0.249491,0.943968,0.216032,0.081487,0.015322,-0.026579
1119,0.252272,0.946251,0.2023839999999999,0.078141,-0.045418,0.014077
1120,0.255898,0.947333,0.192528,0.005104,-0.1836,0.021202
1121,0.26074,0.947385,0.1856539999999999,-0.123365,-0.117765,0.0585929999999999
1122,0.263465,0.947651,0.180376,-0.285148,-0.029712,0.02931
1123,0.260579,0.949058,0.17714,-0.348393,0.004921,-0.123047
1124,0.252246,0.951128,0.178096,-0.245059,-0.103396,0.104238
1125,0.2410969999999999,0.952064,0.188248,-0.18821,-0.146507,0.178222
1126,0.229798,0.951313,0.205395,-0.160569,-0.292622,0.2529639999999999
1127,0.219908,0.950333,0.220227,-0.040358,-0.440552,-0.2206699999999999
1128,0.2137639999999999,0.948824,0.232444,-0.024479,-0.392214,-0.227957
1129,0.211201,0.946389,0.244403,-0.1102799999999999,-0.247155,-0.119555
1130,0.211835,0.943442,0.255017,-0.138715,0.162652,-0.103451
1131,0.2121989999999999,0.94088,0.264024,-0.147593,0.220055,-0.172258
1132,0.210752,0.938381,0.273893,-0.301267,0.259969,0.026552
1133,0.208603,0.937159,0.279659,-0.328445,0.1457109999999999,-0.115428
1134,0.205134,0.935886,0.286406,-0.355525,0.1114309999999999,-0.132704
1135,0.1989119999999999,0.932576,0.301211,-0.384871,0.055721,-0.106021
1136,0.188572,0.924359,0.331652,-0.090961,0.361484,-0.030886
1137,0.172969,0.909017,0.379159,0.050435,0.500026,0.172431
1138,0.152679,0.8885209999999999,0.432679,0.292191,0.578795,0.051391
1139,0.13201,0.866073,0.482164,0.433313,0.1730809999999999,-0.432543
1140,0.117328,0.842432,0.5258649999999999,0.347333,0.049246,-0.457582
1141,0.105567,0.8243469999999999,0.556146,0.020883,-0.045768,-0.324853
1142,0.093508,0.814321,0.572825,0.050687,0.5188699999999999,-0.123057
1143,0.073878,0.813183,0.577291,0.154684,0.7002149999999999,-0.1484579999999999
1144,0.055179,0.822674,0.56582,0.072919,0.286869,-0.2720579999999999
1145,0.041837,0.8395520000000001,0.541656,0.131747,0.031587,-0.262115
1146,0.037766,0.8606530000000001,0.507778,0.181014,-0.3803829999999999,-0.2853969999999999
1147,0.036838,0.8810129999999999,0.4716439999999999,0.272595,-0.758362,-0.148661
1148,0.043745,0.8973389999999999,0.439156,0.228792,-0.793076,-0.045754
1149,0.061535,0.911101,0.407552,0.021519,-0.757903,0.111506
1150,0.094425,0.921762,0.3760679999999999,0.125728,-0.191599,-0.3079989999999999
1151,0.143116,0.926868,0.34702,0.164624,-0.118824,-0.277593
1152,0.197979,0.925545,0.322738,0.266529,0.079444,-0.19458
1153,0.2498639999999999,0.919634,0.303037,0.467085,0.322126,0.133029
1154,0.278816,0.916616,0.286472,0.2615429999999999,-0.2065179999999999,0.483929
1155,0.2832159999999999,0.920734,0.26838,-0.018262,-0.302036,0.2426829999999999
1156,0.277043,0.929813,0.24225,-0.24326,-0.349506,0.101516
1157,0.270226,0.938039,0.216909,-0.30613,-0.3230639999999999,0.189646
1158,0.259355,0.942492,0.2107929999999999,-0.400331,-0.278796,0.0503
1159,0.2437679999999999,0.944804,0.218887,-0.467584,-0.082957,-0.771133
1160,0.23171,0.946209,0.225806,-0.074544,0.256824,0.2716
1161,0.218491,0.941277,0.257388,0.018036,0.546424,0.7457560000000001
1162,0.183344,0.94429,0.273294,-0.174067,1.4851530000000002,0.0725919999999999
1163,0.137061,0.944408,0.298824,-0.091513,0.943485,-0.326397
1164,0.099822,0.942261,0.319639,0.024675,0.250504,-0.175123
1165,0.081012,0.940507,0.329957,0.207028,-0.737596,-0.461793
1166,0.078557,0.939265,0.334065,0.198435,-0.1383309999999999,-0.22379
1167,0.09252,0.939105,0.330922,0.184473,-0.138172,-0.2206469999999999
1168,0.109457,0.93999,0.32315,-0.043539,0.805814,0.427384
1169,0.117015,0.941387,0.316365,-0.131221,0.384022,0.230998
1170,0.118022,0.942858,0.311575,-0.1322279999999999,0.382551,0.235788
1171,0.12038,0.941303,0.315351,-0.0966679999999999,-0.379551,0.263156
1172,0.123914,0.938981,0.320857,-0.2982,-0.449082,0.240269
1173,0.126696,0.93653,0.326878,-0.2805809999999999,-0.374854,-0.036976
1174,0.125302,0.93192,0.340313,-0.169674,-0.1183829999999999,-0.201245
1175,0.115041,0.922528,0.368371,-0.140173,0.130832,-0.166527
1176,0.096244,0.906638,0.410772,-0.080772,0.439706,-0.030187
1177,0.079127,0.8838239999999999,0.461066,-0.045466,0.725184,-0.181555
1178,0.064338,0.8561280000000001,0.512731,0.210198,0.535717,-0.177495
1179,0.056794,0.826111,0.560628,0.438399,0.432846,-0.011784
1180,0.0512809999999999,0.805218,0.590746,0.702823,0.1938349999999999,0.352857
1181,0.036126,0.799272,0.5998720000000001,0.46656,-0.1355299999999999,0.040676
1182,0.024072,0.800319,0.5990800000000001,0.484504,0.00916,0.026866
1183,0.012283,0.80304,0.595788,0.268097,0.187927,-0.2838219999999999
1184,0.003215,0.80589,0.592046,0.187214,-0.188687,-0.251623
1185,-0.002442,0.812743,0.582607,0.234726,-0.359176,-0.247967
1186,0.001333,0.8228620000000001,0.56823,0.204309,-0.369126,-0.261834
1187,0.01785,0.834498,0.550712,0.100268,-0.406352,-0.179313
1188,0.0423199999999999,0.849684,0.525582,0.018212,-0.456526,-0.094201
1189,0.069888,0.8682190000000001,0.4912229999999999,-0.253176,-0.645487,-0.080182
1190,0.099709,0.886674,0.451506,-0.356834,-0.580781,-0.092436
1191,0.1332009999999999,0.90255,0.409454,-0.059562,-0.125069,-0.228179
1192,0.164873,0.91451,0.36943,0.1675549999999999,0.193903,-0.27362
1193,0.190435,0.92252,0.335681,0.212855,0.293682,0.057279
1194,0.2068739999999999,0.929973,0.303885,0.147008,-0.0874279999999999,0.319468
1195,0.207589,0.938752,0.275032,0.129569,-0.145814,0.204278
1196,0.193821,0.947333,0.254921,0.088375,0.012491,0.052894
1197,0.174595,0.95602,0.235656,0.208278,-0.126659,-0.598006
1198,0.1696369999999999,0.958169,0.2304949999999999,0.013469,-0.110726,0.145252
1199,0.169236,0.953563,0.249135,-0.497926,0.2368969999999999,0.133983
1200,0.154437,0.955563,0.251079,-0.153811,0.781269,0.20165
1201,0.118169,0.953405,0.277571,-0.373631,2.20907,0.560289
1202,0.078034,0.950615,0.30039,-0.165437,-0.012657,-0.259863
1203,0.0547039999999999,0.950417,0.306116,0.203337,-0.789833,-0.4921819999999999
1204,0.05039,0.949629,0.309285,0.105646,-0.605192,-0.390553
1205,0.066317,0.947409,0.313065,0.145002,0.175119,0.034439
1206,0.077097,0.948261,0.307975,0.040045,0.740933,-0.014624
1207,0.075666,0.948329,0.308119,0.096026,0.19544,0.106569
1208,0.076426,0.948382,0.307768,0.06902,-0.27814,0.100252
1209,0.080327,0.948524,0.3063329999999999,-0.028188,-0.448204,0.1084619999999999
1210,0.08765,0.949433,0.301473,-0.188282,-0.408905,0.026836
1211,0.095607,0.950568,0.295417,-0.1660569999999999,0.056177,-0.062202
1212,0.103182,0.950087,0.294412,-0.151919,0.1479349999999999,0.020789
1213,0.109109,0.949858,0.29301,-0.180306,0.017442,-0.086635
1214,0.113688,0.950085,0.290525,-0.411707,0.03397,-0.127622
1215,0.118038,0.949005,0.292313,-0.51115,0.111297,-0.125443
1216,0.119438,0.945943,0.301523,-0.393303,0.233821,-0.130747
1217,0.1167589999999999,0.940427,0.319301,0.0212569999999999,0.197634,0.056477
1218,0.109571,0.930053,0.350691,0.098285,0.308365,0.13463
1219,0.094552,0.915255,0.391607,0.265861,0.5576909999999999,0.2853489999999999
1220,0.074837,0.898337,0.4328729999999999,0.465157,0.4277439999999999,-0.017483
1221,0.054845,0.880094,0.471609,0.463892,0.3387179999999999,-0.095633
1222,0.040641,0.8595510000000001,0.509419,0.302224,0.188057,-0.194874
1223,0.033275,0.8411290000000001,0.539798,0.158666,0.138882,-0.052234
1224,0.024631,0.8290770000000001,0.558581,0.153241,0.117197,-0.075701
1225,0.017579,0.8230559999999999,0.5676760000000001,0.287856,0.0274839999999999,-0.071934
1226,0.0091569999999999,0.8220200000000001,0.5693739999999999,0.2606489999999999,0.01462,-0.2695079999999999
1227,0.0017929999999999,0.824675,0.565592,0.206535,-0.0520309999999999,-0.349619
1228,-0.0006,0.829931,0.557856,0.132924,-0.5541739999999999,-0.352426
1229,0.0035859999999999,0.8381569999999999,0.545407,0.100479,-0.571891,-0.307553
1230,0.016464,0.8490139999999999,0.528103,0.049164,-0.549575,-0.260754
1231,0.03841,0.862614,0.5043920000000001,-0.0226169999999999,-0.530353,-0.091138
1232,0.06493,0.8794690000000001,0.471496,-0.054539,-0.61363,0.022035
1233,0.092613,0.898225,0.4296569999999999,-0.115868,-0.730592,0.07782
1234,0.126325,0.914336,0.384737,-0.0265019999999999,0.006197,-0.534227
1235,0.16441,0.92242,0.349429,-0.022106,0.3547099999999999,-0.628223
1236,0.193121,0.92737,0.320436,0.035822,0.693479,-0.212465
1237,0.208923,0.934514,0.288142,0.428162,-0.055699,0.5902609999999999
1238,0.221412,0.940401,0.258096,0.300957,-0.126176,0.597006
1239,0.2223429999999999,0.946125,0.2353739999999999,0.1109849999999999,-0.152409,0.403298
1240,0.217046,0.951769,0.216835,0.109218,-0.1803,0.089882
1241,0.210137,0.955608,0.206512,0.074546,-0.179439,0.032975
1242,0.207123,0.957215,0.202064,0.077133,0.243621,-0.442435
1243,0.208798,0.958466,0.194263,-0.007763,0.183731,-0.130237
1244,0.204813,0.959174,0.195009,-0.522058,-0.1469329999999999,0.196272
1245,0.18658,0.963039,0.194254,-0.609096,-0.504741,0.0183009999999999
1246,0.166006,0.966276,0.196831,-0.256582,-0.191023,-0.089577
1247,0.14973,0.968193,0.200433,-0.012462,1.528664,0.082709
1248,0.125341,0.967044,0.221597,-0.36376,1.76193,0.391135
1249,0.094376,0.965865,0.24122,0.032546,-0.452834,-0.411767
1250,0.08358,0.965179,0.247858,0.332802,-1.028946,-0.706873
1251,0.08236,0.963821,0.2534869999999999,0.358756,-1.106048,-0.307487
1252,0.095842,0.960292,0.261997,0.280761,0.307591,0.262707
1253,0.101462,0.96026,0.259992,-0.163168,0.740164,0.1617
1254,0.0937,0.962606,0.254166,-0.150768,0.520045,0.171158
1255,0.086148,0.964266,0.250521,-0.033796,-0.08481,0.002913
1256,0.088747,0.965456,0.244965,-0.236284,-0.405779,-0.0700539999999999
1257,0.099254,0.965844,0.23934,-0.303692,-0.1887599999999999,-0.1210089999999999
1258,0.107662,0.963502,0.245076,-0.39265,0.303695,0.03181
1259,0.109325,0.959943,0.257966,-0.175914,0.142901,0.139297
1260,0.105101,0.955161,0.276785,-0.15483,0.041009,-0.0963649999999999
1261,0.099458,0.946249,0.307751,-0.109346,-0.065618,-0.244915
1262,0.090314,0.928582,0.359954,0.081149,0.375739,0.1431589999999999
1263,0.073805,0.904017,0.421063,0.086352,0.5461630000000001,0.055469
1264,0.0546,0.876296,0.478655,0.171825,0.419526,-0.165789
1265,0.039852,0.846498,0.530884,0.24741,-0.054049,-0.353394
1266,0.033895,0.818579,0.573381,0.278605,-0.195974,-0.239259
1267,0.024569,0.7980689999999999,0.602053,0.426985,-0.063541,-0.240648
1268,0.006678,0.7868310000000001,0.61712,0.465902,0.345951,-0.058023
1269,-0.008448,0.785417,0.618896,0.26945,0.231459,-0.12828
1270,-0.0143539999999999,0.788042,0.615441,0.048671,-0.179888,-0.2333
1271,-0.013187,0.795794,0.6054109999999999,-0.025662,-0.498584,-0.366641
1272,-0.008886,0.807516,0.589766,0.005331,-0.553838,-0.337462
1273,0.003346,0.8226540000000001,0.568519,0.071071,-0.592979,-0.280128
1274,0.023989,0.8417690000000001,0.539292,0.221571,-0.443926,0.0979309999999999
1275,0.056709,0.8638809999999999,0.500479,0.153541,-0.328252,0.144403
1276,0.099335,0.8840379999999999,0.4567229999999999,0.070175,0.0557659999999999,-0.120313
1277,0.144999,0.898034,0.415327,0.0669,0.201026,-0.292783
1278,0.183825,0.90441,0.385017,0.035886,0.3103579999999999,-0.061912
1279,0.2112929999999999,0.90844,0.360665,0.097393,0.24604,0.5425180000000001
1280,0.21966,0.914728,0.339132,0.064565,0.179663,0.5778909999999999
1281,0.2075489999999999,0.926346,0.314318,0.129396,-0.1469109999999999,-0.084444
1282,0.1955839999999999,0.937078,0.289172,0.1862059999999999,-0.091253,0.028058
1283,0.192921,0.943815,0.268297,-0.131459,0.331621,0.292219
1284,0.188307,0.949175,0.252183,-0.0538159999999999,0.462935,-0.400147
1285,0.180111,0.954688,0.236894,0.0594679999999999,0.309182,-0.19008
1286,0.170977,0.95686,0.23489,-0.2988909999999999,-0.135831,0.11298
1287,0.160188,0.958479,0.235896,-0.369737,-0.6246010000000001,0.140188
1288,0.1533119999999999,0.959769,0.235217,-0.106574,-0.5635439999999999,-0.1768829999999999
1289,0.1552339999999999,0.960206,0.232153,0.18255,1.061538,0.04954
1290,0.142023,0.957369,0.251521,-0.262491,1.978987,0.815084
1291,0.114022,0.956826,0.267341,-0.141915,-0.210366,-0.242606
1292,0.0917289999999999,0.958084,0.271384,0.267021,-1.11853,-0.586295
1293,0.083983,0.958628,0.271969,0.218797,-0.329554,-0.473538
1294,0.088312,0.957382,0.274971,-0.053903,0.317978,0.114967
1295,0.090285,0.959031,0.2685079999999999,0.001206,0.087233,-0.062697
1296,0.08932,0.959899,0.265716,0.236196,0.00345,0.007859
1297,0.093682,0.958974,0.267546,0.22248,0.166239,0.058382
1298,0.096107,0.958988,0.266636,-0.2317719999999999,-0.25423,0.144833
1299,0.098883,0.958727,0.266559,-0.2496239999999999,-0.337465,0.166852
1300,0.1027599999999999,0.958694,0.265208,-0.193916,-0.278121,0.148596
1301,0.10854,0.958039,0.2652719999999999,-0.151005,0.093231,-0.068144
1302,0.1155,0.956699,0.26716,-0.20217,0.1824,-0.084512
1303,0.120276,0.954724,0.272071,-0.393942,0.243609,-0.048042
1304,0.124066,0.951717,0.280767,-0.399319,0.0902289999999999,-0.124304
1305,0.124299,0.944916,0.302773,-0.359681,0.14444,-0.081444
1306,0.118239,0.933396,0.33879,-0.066039,0.396072,0.06276
1307,0.103479,0.916871,0.385519,0.385031,0.48416,0.174249
1308,0.082082,0.8940739999999999,0.440317,0.543651,0.4479359999999999,0.11434
1309,0.060016,0.868842,0.4914229999999999,0.601254,0.26156,-0.21559
1310,0.046952,0.8421299999999999,0.537211,0.312774,-0.201246,-0.240305
1311,0.042939,0.8187800000000001,0.572485,0.1809839999999999,-0.322427,-0.137258
1312,0.038123,0.801659,0.596551,-0.011222,-0.217171,-0.217477
1313,0.036148,0.790985,0.610753,0.329925,0.186356,-0.064427
1314,0.026382,0.790248,0.612206,0.328232,0.177464,-0.147957
1315,0.023926,0.795462,0.605517,0.216796,-0.120871,-0.3049949999999999
1316,0.0317389999999999,0.80635,0.5905729999999999,0.2768239999999999,-0.467071,-0.2467619999999999
1317,0.04465,0.823507,0.565533,0.14967,-0.540197,-0.268352
1318,0.062691,0.844751,0.53146,-0.156289,-0.681192,-0.180997
1319,0.085288,0.8662979999999999,0.4921779999999999,-0.288275,-0.719264,-0.0811669999999999
1320,0.112689,0.885983,0.4498,-0.372668,-0.432996,-0.1280069999999999
1321,0.150019,0.90176,0.405352,-0.090082,0.333393,-0.242784
1322,0.191897,0.913293,0.359248,0.071302,0.677497,-0.265834
1323,0.222369,0.921644,0.317981,0.2580389999999999,0.2740039999999999,0.148968
1324,0.2424909999999999,0.927509,0.284453,0.2436699999999999,-0.123477,0.380891
1325,0.249611,0.933617,0.256986,0.12072,-0.109566,0.400042
1326,0.246821,0.941346,0.23008,0.171697,0.098999,0.318
1327,0.241565,0.948947,0.20282,0.071515,0.212507,0.425476
1328,0.2300739999999999,0.953235,0.195953,0.1086559999999999,0.108792,-0.6299739999999999
1329,0.218375,0.956517,0.193331,0.196222,-0.226064,-0.2200489999999999
1330,0.216167,0.954529,0.205269,-0.375484,-0.256088,0.220878
1331,0.211079,0.952944,0.2175619999999999,-0.468922,-0.202181,0.009427
1332,0.201681,0.951434,0.232565,0.139017,1.534848,0.2402139999999999
1333,0.185725,0.949658,0.252279,-0.744929,0.354069,-0.337255
1334,0.152669,0.951487,0.2671199999999999,-0.086858,-0.78895,-0.331908
1335,0.131661,0.950532,0.281319,0.083854,-0.942048,-0.300149
1336,0.129071,0.950208,0.283607,0.017474,0.055896,-0.280113
1337,0.136282,0.947383,0.28962,0.105997,0.106923,0.101173
1338,0.143601,0.946402,0.2892929999999999,0.155151,0.045023,-0.028718
1339,0.149234,0.947991,0.281123,-0.0357699999999999,0.091697,0.143682
1340,0.156978,0.948824,0.274007,-0.189174,0.055647,0.149348
1341,0.166552,0.949645,0.265373,-0.304293,-0.003936,0.110039
1342,0.177888,0.949895,0.2569889999999999,-0.513413,0.00265,0.140365
1343,0.191121,0.949275,0.249677,-0.461553,0.09255,0.083376
1344,0.204932,0.947517,0.245363,-0.387702,0.129449,0.084609
1345,0.2190869999999999,0.944438,0.245001,-0.160494,0.0301709999999999,0.047067
1346,0.235092,0.940473,0.245419,-0.3068849999999999,-0.009473,-0.14787
1347,0.249775,0.936284,0.246926,-0.439945,0.078166,-0.264626
1348,0.259588,0.930135,0.259713,-0.1766869999999999,0.735637,0.32807
1349,0.258579,0.924055,0.28151,0.186185,0.578051,0.044083
1350,0.2449719999999999,0.917706,0.312717,0.199792,0.5844,0.012875
1351,0.227044,0.909523,0.348147,0.407188,0.244637,-0.220584
1352,0.21078,0.900143,0.381185,0.455236,0.458042,-0.305806
1353,0.1935049999999999,0.8928590000000001,0.406626,0.283027,0.543909,-0.335292
1354,0.183296,0.887534,0.4226979999999999,-0.167487,0.724862,-0.157698
1355,0.172782,0.885182,0.431955,-0.133017,0.409587,-0.304987
1356,0.163752,0.8865129999999999,0.432743,0.073827,0.080467,-0.488102
1357,0.158855,0.8889670000000001,0.429522,0.101582,-0.087102,-0.5252560000000001
1358,0.160763,0.8918149999999999,0.422856,0.186115,-0.183716,-0.401464
1359,0.169481,0.895156,0.412261,0.202101,-0.194503,-0.369567
1360,0.18129,0.898071,0.400738,0.094147,-0.259216,-0.4063989999999999
1361,0.198215,0.899452,0.389468,0.211056,-0.265755,-0.358707
1362,0.21839,0.8987940000000001,0.380084,0.267069,-0.270178,-0.3008909999999999
1363,0.2402409999999999,0.8962709999999999,0.372791,0.254769,-0.275925,-0.141468
1364,0.2625369999999999,0.8925420000000001,0.366652,0.1794329999999999,-0.0803929999999999,0.016924
1365,0.2823,0.8891399999999999,0.360176,0.137469,0.015478,0.036842
1366,0.303035,0.884099,0.3557099999999999,0.079885,0.176021,0.085742
1367,0.32248,0.876951,0.356306,-0.037141,0.064685,0.100603
1368,0.3387489999999999,0.867509,0.364236,-0.06432,0.015045,0.149741
1369,0.352661,0.8571690000000001,0.375341,-0.112441,-0.025581,0.258463
1370,0.364384,0.849618,0.381265,-0.146244,0.006141,0.18006
1371,0.3719739999999999,0.8471110000000001,0.379509,-0.16537,0.024455,0.16053
1372,0.372138,0.850147,0.3724949999999999,-0.271171,0.102688,0.020938
1373,0.365025,0.857906,0.361584,-0.35999,0.1235849999999999,0.069325
1374,0.350359,0.8677940000000001,0.352379,-0.256105,0.037708,0.111977
1375,0.3332989999999999,0.8794860000000001,0.3397139999999999,-0.1615,-0.006942,0.04467
1376,0.323583,0.8925569999999999,0.314046,0.021159,0.1460779999999999,-0.455968
1377,0.3154409999999999,0.905415,0.284096,0.133824,0.278072,-0.566994
1378,0.3044469999999999,0.915301,0.263677,0.380718,0.36804,0.6371859999999999
1379,0.300459,0.915862,0.266291,0.3265699999999999,0.075304,0.493597
1380,0.297124,0.907722,0.296221,0.2146559999999999,-0.35247,0.181593
1381,0.298401,0.901817,0.312526,0.035278,-0.954597,-0.6042890000000001
1382,0.3144,0.901964,0.295977,-0.410667,0.168653,-0.990541
1383,0.326878,0.90372,0.276461,-0.699971,0.790967,-0.5248430000000001
1384,0.319857,0.910367,0.2625139999999999,-0.414538,0.6167020000000001,-0.2486739999999999
1385,0.3111219999999999,0.917206,0.248852,-0.2640639999999999,0.483322,0.266667
1386,0.309895,0.921601,0.233682,-0.008336,-0.02472,0.181174
1387,0.31716,0.922712,0.219097,0.346918,-0.0533419999999999,-0.30627
1388,0.329096,0.923142,0.198736,0.341986,-0.151123,-0.1118059999999999
1389,0.3397409999999999,0.923613,0.177497,0.274165,-0.200255,-0.010993
1390,0.346882,0.924827,0.156078,-0.093464,-0.086783,-0.114925
1391,0.351761,0.926759,0.131806,-0.192398,0.051634,-0.177445
1392,0.356541,0.927829,0.1095619999999999,-0.179401,0.1096309999999999,-0.139713
1393,0.3629409999999999,0.927232,0.092236,-0.121379,0.056335,-0.019269
1394,0.370829,0.925474,0.0773,-0.1524,-0.048506,0.053239
1395,0.378804,0.923403,0.06185,-0.192936,-0.0605039999999999,0.134088
1396,0.385271,0.92162,0.046617,-0.217486,0.047511,0.072646
1397,0.3901469999999999,0.920213,0.031365,-0.206905,0.1220079999999999,0.0795049999999999
1398,0.394598,0.918739,0.014244,-0.2385159999999999,0.093575,0.076622
1399,0.3982219999999999,0.91728,-0.002977,-0.256789,0.048525,0.095003
1400,0.396553,0.917889,-0.0147409999999999,-0.273368,0.047916,0.08159
1401,0.394465,0.918544,-0.0258189999999999,-0.223703,0.087758,-0.001662
1402,0.390522,0.919965,-0.033904,-0.148594,0.093967,0.012312
1403,0.383897,0.922522,-0.039593,-0.057236,0.100457,0.062695
1404,0.374086,0.926276,-0.045444,-0.019029,0.071268,0.14664
1405,0.364529,0.929711,-0.052411,-0.1185119999999999,0.020209,0.1602599999999999
1406,0.358875,0.931632,-0.057119,-0.333408,0.0592279999999999,0.055135
1407,0.359306,0.931498,-0.056579,-0.4102399999999999,0.40653,-0.023865
1408,0.35807,0.932247,-0.051895,-0.414451,0.569462,-0.012863
1409,0.353213,0.934639,-0.040992,-0.431353,0.517601,-0.040871
1410,0.343646,0.938806,-0.0232789999999999,-0.3672809999999999,0.456946,-0.083762
1411,0.3311199999999999,0.94358,0.0023989999999999,-0.0143629999999999,0.269615,0.171994
1412,0.317138,0.947353,0.043981,0.2449349999999999,0.147144,0.471445
1413,0.301765,0.947945,0.101615,0.306816,0.070975,0.254052
1414,0.286282,0.944517,0.160992,0.242191,-0.002592,-0.285336
1415,0.272196,0.937717,0.215834,-0.129496,0.286893,-0.395964
1416,0.25995,0.928794,0.264111,-0.2039349999999999,0.3970579999999999,-0.337582
1417,0.244121,0.920858,0.303994,-0.381633,0.5463210000000001,-0.327996
1418,0.229992,0.914056,0.334051,-0.143642,0.376456,-0.303961
1419,0.21493,0.908695,0.357861,-0.0418959999999999,0.203244,-0.359143
1420,0.201944,0.904028,0.376744,0.098074,-0.063956,-0.391407
1421,0.19305,0.8995709999999999,0.391776,0.1359759999999999,-0.246632,-0.3003909999999999
1422,0.186355,0.896389,0.402173,0.127228,-0.23016,-0.290738
1423,0.18137,0.894971,0.407574,0.0685539999999999,-0.150769,-0.353191
1424,0.177079,0.8931959999999999,0.413314,0.077041,-0.14373,-0.407668
1425,0.175604,0.890358,0.42001,0.077646,-0.136101,-0.4544939999999999
1426,0.178316,0.886726,0.426501,0.088835,-0.15139,-0.322604
1427,0.183856,0.883776,0.430256,0.099591,-0.190737,-0.248432
1428,0.190678,0.882532,0.429839,0.122997,-0.2195369999999999,-0.1174619999999999
1429,0.198259,0.8834290000000001,0.424534,0.142332,-0.1469329999999999,-0.0206949999999999
1430,0.207109,0.885891,0.415072,0.110518,-0.114453,-0.015322
1431,0.217008,0.8888530000000001,0.403523,0.020434,0.007631,0.012157
1432,0.227117,0.8918709999999999,0.391112,-0.024816,0.021032,0.0780039999999999
1433,0.237278,0.894123,0.379772,-0.064167,0.048122,0.116719
1434,0.247503,0.8951030000000001,0.3708349999999999,-0.1109059999999999,0.043084,0.2055809999999999
1435,0.257546,0.895183,0.363734,-0.0895919999999999,-0.006252,0.313847
1436,0.265909,0.89575,0.356242,-0.120081,-0.069655,0.380162
1437,0.2686469999999999,0.8981709999999999,0.348,-0.2006079999999999,-0.052101,0.311775
1438,0.266526,0.902976,0.337023,-0.287706,-0.035666,0.196867
1439,0.258887,0.909018,0.326573,-0.300376,-0.0062619999999999,0.0131949999999999
1440,0.247021,0.914167,0.32135,-0.008664,0.335528,-0.287964
1441,0.242001,0.918252,0.313425,0.327975,0.890357,-0.4114779999999999
1442,0.236971,0.918879,0.315423,0.2063739999999999,0.818715,-0.105279
1443,0.227661,0.914888,0.33337,0.00737,-0.6829850000000001,-0.199993
1444,0.226373,0.915417,0.332794,0.1600869999999999,-1.175946,-0.468017
1445,0.238376,0.91852,0.315409,-0.093234,-0.34363,-0.579386
1446,0.2509679999999999,0.921935,0.29502,-0.323279,0.943528,-0.399527
1447,0.254634,0.924355,0.284103,-0.176112,0.702705,-0.3191219999999999
1448,0.259449,0.925583,0.275623,0.0055049999999999,-0.0996399999999999,0.100552
1449,0.26338,0.927727,0.264455,0.041734,-0.2053,-0.003423
1450,0.270566,0.929563,0.2503829999999999,0.021167,-0.176084,-0.222032
1451,0.281807,0.930781,0.232843,-0.1030349999999999,-0.011363,-0.108316
1452,0.290623,0.932622,0.213865,-0.113758,0.0613809999999999,-0.0603309999999999
1453,0.294162,0.935432,0.196011,-0.067294,0.137032,-0.088589
1454,0.295155,0.938004,0.1817,-0.056935,-0.074098,0.006136
1455,0.295863,0.939614,0.171972,-0.077647,-0.114266,0.01005
1456,0.29729,0.940209,0.1661619999999999,-0.162097,-0.128502,0.046988
1457,0.298184,0.940718,0.1616119999999999,-0.350415,-0.028457,0.047342
1458,0.295171,0.942688,0.155555,-0.405965,-0.008667,0.067864
1459,0.286083,0.946084,0.151873,-0.388775,0.108329,0.052061
1460,0.270948,0.950099,0.154541,-0.2009099999999999,-0.174556,-0.037765
1461,0.253709,0.95284,0.166467,-0.149247,-0.30837,0.221854
1462,0.244203,0.951833,0.185371,0.083785,-0.596196,0.315025
1463,0.241652,0.950138,0.197045,0.0743429999999999,-0.319339,-0.383096
1464,0.242554,0.947822,0.2068469999999999,0.054626,-0.131614,-0.34915
1465,0.244153,0.944088,0.221519,-0.209608,0.370639,0.061318
1466,0.24478,0.941459,0.23178,-0.269743,0.301842,0.075639
1467,0.24264,0.939968,0.23994,-0.27891,0.11971,0.118413
1468,0.2394239999999999,0.937809,0.251344,-0.303663,0.138851,0.067504
1469,0.236279,0.933845,0.268494,-0.304348,0.209923,-0.042007
1470,0.231498,0.924885,0.301625,-0.39759,0.31538,-0.00121
1471,0.22119,0.9086,0.354261,-0.065078,0.12178,-0.116438
1472,0.211409,0.8835620000000001,0.417857,0.1101549999999999,0.058271,-0.380503
1473,0.209997,0.85305,0.477689,0.382181,-0.110969,-0.433759
1474,0.209115,0.824175,0.5262939999999999,0.297568,-0.326402,-0.219532
1475,0.201972,0.80604,0.5563140000000001,0.038263,-0.219065,-0.141824
1476,0.186928,0.8010390000000001,0.568658,0.025138,-0.082045,-0.2414639999999999
1477,0.172752,0.8036,0.5695279999999999,-0.01847,0.004978,-0.291177
1478,0.155387,0.811574,0.563188,0.152551,-0.151464,-0.437867
1479,0.138604,0.824451,0.5486770000000001,0.182685,-0.307071,-0.326372
1480,0.136318,0.8435450000000001,0.5194489999999999,0.08408,-0.208596,-0.072626
1481,0.152881,0.8629370000000001,0.481609,-0.032062,-0.201743,0.1083269999999999
1482,0.1820109999999999,0.8797020000000001,0.4392899999999999,-0.203816,-0.223345,0.322871
1483,0.209548,0.8939360000000001,0.396167,-0.1998589999999999,-0.165665,0.015637
1484,0.222908,0.906843,0.35767,-0.0013189999999999,-0.033049,-0.133625
1485,0.230102,0.915285,0.330586,0.296494,0.372008,0.05392
1486,0.24327,0.919568,0.308536,0.268006,0.2585469999999999,0.207654
1487,0.255443,0.925384,0.279991,-0.050517,-0.071395,0.092873
1488,0.258314,0.933623,0.248202,-0.115476,0.083925,0.23776
1489,0.247892,0.942064,0.225935,0.220462,0.093641,-0.643903
1490,0.234886,0.95027,0.204449,0.281731,0.00345,-0.469158
1491,0.227213,0.952615,0.202194,0.059561,-0.037423,-0.000442
1492,0.221836,0.950835,0.216071,-0.119328,0.043031,0.5728850000000001
1493,0.209915,0.951178,0.2262289999999999,0.184449,0.381708,-0.040805
1494,0.1962799999999999,0.953611,0.228219,0.196832,0.8327200000000001,-0.2670679999999999
1495,0.170435,0.955869,0.239271,-0.694239,0.5934020000000001,-0.061567
1496,0.1406,0.954506,0.262932,-0.232381,-0.5776600000000001,-0.027199
1497,0.133868,0.951518,0.276905,-0.000612,-0.788783,-0.3195989999999999
1498,0.143479,0.948844,0.281234,0.043075,0.2449579999999999,-0.125076
1499,0.157967,0.94479,0.287057,0.105415,0.8270139999999999,0.129493
1500,0.160388,0.945313,0.283977,0.002316,0.607269,0.066441
1501,0.1577039999999999,0.945813,0.283815,0.034785,-0.117368,0.160185
1502,0.16092,0.945359,0.283522,-0.155168,-0.024338,0.133195
1503,0.167695,0.944755,0.281601,-0.252274,0.038018,0.135025
1504,0.1729109999999999,0.944309,0.279938,-0.292662,0.089962,0.159301
1505,0.17295,0.94412,0.280549,-0.346244,0.170534,0.045074
1506,0.171257,0.9418,0.28925,-0.334266,0.204669,-0.072484
1507,0.166453,0.937068,0.3068869999999999,-0.311793,-0.035929,-0.2246119999999999
1508,0.15844,0.92772,0.337955,-0.1522599999999999,0.149367,-0.005954
1509,0.146377,0.912543,0.381864,-0.017806,0.226739,-0.034009
1510,0.132167,0.891257,0.4337899999999999,0.21166,0.2021119999999999,-0.056761
1511,0.121364,0.864716,0.487357,0.339192,-0.147843,-0.2332219999999999
1512,0.1196589999999999,0.835168,0.536802,0.298874,-0.1952289999999999,-0.122999
1513,0.1217579999999999,0.810761,0.572555,0.369269,-0.02295,0.195435
1514,0.1138359999999999,0.799902,0.589217,0.200922,0.334894,-0.07643
1515,0.101347,0.798118,0.5938979999999999,0.215837,0.2725599999999999,-0.147334
1516,0.092303,0.796849,0.597069,0.265256,-0.005742,-0.2329639999999999
1517,0.082351,0.800179,0.594063,0.284638,-0.4440689999999999,-0.2345809999999999
1518,0.070043,0.8106,0.581379,0.292597,-0.5263899999999999,-0.22205
1519,0.065498,0.8256959999999999,0.560283,-0.014244,-0.480435,-0.1749369999999999
1520,0.074977,0.8431200000000001,0.532454,-0.119853,-0.4769859999999999,-0.042463
1521,0.093819,0.862397,0.4974439999999999,-0.296471,-0.5403600000000001,0.027107
1522,0.117075,0.8830450000000001,0.454428,-0.350794,-0.431492,-0.0515659999999999
1523,0.146734,0.900367,0.409622,-0.3597309999999999,-0.253791,-0.1112359999999999
1524,0.181365,0.913939,0.36305,0.0123299999999999,0.349275,-0.259824
1525,0.2090119999999999,0.924252,0.3194619999999999,0.182421,0.569004,-0.062534
1526,0.2283909999999999,0.933727,0.275634,0.2286699999999999,0.551746,0.181214
1527,0.237523,0.942438,0.235323,0.091273,-0.159525,0.347334
1528,0.2347199999999999,0.951016,0.201148,0.149146,-0.4130819999999999,0.326654
1529,0.230392,0.957922,0.171144,-0.010345,-0.278371,0.188628
1530,0.225929,0.9618,0.1545359999999999,0.235893,-0.065575,-0.657343
1531,0.224813,0.962189,0.153739,0.137232,0.017685,0.2318199999999999
1532,0.2261099999999999,0.957397,0.179583,-0.476812,0.315781,0.48805
1533,0.208161,0.958908,0.192739,-0.29245,0.813675,0.427775
1534,0.17642,0.962106,0.2078739999999999,-0.192457,1.783362,-0.270176
1535,0.144388,0.962173,0.2309949999999999,-0.310449,0.16301,-0.521584
1536,0.117291,0.959126,0.257497,-0.0552789999999999,-0.586216,-0.2872969999999999
1537,0.107982,0.958279,0.2646219999999999,0.237889,-1.060986,-0.429005
1538,0.1132349999999999,0.959787,0.256848,0.241944,-0.531259,-0.296322
1539,0.1310589999999999,0.958714,0.252339,-0.044313,1.040157,0.334102
1540,0.13263,0.959083,0.250104,-0.041519,0.202157,0.2088949999999999
1541,0.1305859999999999,0.958752,0.2524389999999999,0.11769,-0.197216,0.179095
1542,0.134223,0.95629,0.259765,0.158044,-0.440726,0.191849
1543,0.145299,0.953803,0.262929,-0.133367,-0.272162,0.086375
1544,0.156669,0.951736,0.263889,-0.370429,0.253479,0.058819
1545,0.164703,0.949768,0.266078,-0.370636,0.320313,0.084203
1546,0.167571,0.947431,0.272542,-0.325759,0.221011,-0.137166
1547,0.165272,0.942251,0.291258,-0.394169,0.264872,-0.002012
1548,0.156038,0.932497,0.325705,-0.354052,0.33087,0.017678
1549,0.139353,0.917532,0.372421,-0.073008,0.415156,-0.024094
1550,0.118239,0.8958209999999999,0.428376,0.376863,0.139427,-0.298569
1551,0.099211,0.867776,0.486932,0.4239979999999999,-0.025293,-0.390084
1552,0.090028,0.838259,0.5377689999999999,0.2107679999999999,-0.291873,-0.353168
1553,0.0871919999999999,0.814635,0.573363,0.096814,-0.319671,0.1184089999999999
1554,0.071936,0.801279,0.593933,0.246439,0.1112269999999999,0.0597539999999999
1555,0.051294,0.799851,0.597985,0.31629,0.266982,0.0145479999999999
1556,0.03532,0.803721,0.5939399999999999,0.144978,0.131047,-0.262336
1557,0.031303,0.807298,0.589296,0.163079,-0.229738,-0.279588
1558,0.033662,0.814647,0.578962,0.226882,-0.468654,-0.140165
1559,0.041934,0.827829,0.559393,0.136014,-0.5966130000000001,-0.173086
1560,0.0605169999999999,0.843975,0.532939,0.052078,-0.588817,-0.119914
1561,0.0868289999999999,0.860075,0.502704,-0.141273,-0.551665,0.0528379999999999
1562,0.115793,0.8764059999999999,0.4674239999999999,-0.155131,-0.484942,0.040815
1563,0.151243,0.8917129999999999,0.426562,-0.104994,-0.365773,-0.095294
1564,0.196891,0.902428,0.383198,0.153833,0.571297,-0.451771
1565,0.2407389999999999,0.909637,0.338511,0.127059,0.559556,-0.082072
1566,0.268088,0.917332,0.294306,0.133295,0.414638,0.3033659999999999
1567,0.277304,0.926232,0.255307,0.013345,-0.168435,0.488651
1568,0.265959,0.937927,0.2225849999999999,-0.105315,-0.248001,0.261927
1569,0.242281,0.950059,0.19666,-0.295488,-0.305787,-0.271031
1570,0.219406,0.960647,0.17031,0.054535,0.002686,0.3023619999999999
1571,0.212627,0.962532,0.168254,-0.136241,0.244423,0.862783
1572,0.205319,0.959266,0.194013,-0.205944,0.6223069999999999,0.532763
1573,0.185205,0.963466,0.193445,0.280402,1.408574,0.086035
1574,0.160104,0.965986,0.20304,-0.324792,0.979616,-0.155341
1575,0.124294,0.963702,0.236257,-0.032344,-0.560534,0.044443
1576,0.109155,0.95994,0.258044,0.1093809999999999,-0.712839,-0.379763
1577,0.1094789999999999,0.957778,0.265821,-0.1206329999999999,-0.2213889999999999,-0.193693
1578,0.123466,0.955432,0.268127,-0.1347269999999999,0.4484829999999999,-0.045364
1579,0.136079,0.956824,0.256818,-0.203325,0.559136,0.058917
1580,0.141221,0.958919,0.246,-0.107682,0.549992,0.344851
1581,0.141308,0.961886,0.23408,-0.2026329999999999,0.27197,0.22315
1582,0.138026,0.963661,0.228677,-0.264384,-0.201042,0.033911
1583,0.137474,0.962114,0.2354239999999999,-0.26725,-0.259904,0.2055699999999999
1584,0.136828,0.957276,0.254729,-0.139559,-0.192109,0.095689
1585,0.132004,0.947967,0.289687,0.001083,-0.064758,0.075837
1586,0.121314,0.931912,0.341771,0.091226,0.039737,-0.134206
1587,0.110348,0.908676,0.402636,0.145283,0.159882,-0.323824
1588,0.106419,0.877972,0.4667159999999999,0.2086449999999999,0.18822,-0.4258989999999999
1589,0.103747,0.845617,0.523595,0.149457,-0.1802119999999999,-0.0856529999999999
1590,0.103628,0.82014,0.562685,0.104365,-0.163234,-0.055727
1591,0.097671,0.803056,0.58783,0.005997,0.004699,-0.107681
1592,0.082463,0.794593,0.6015010000000001,0.364512,0.113092,0.006913
1593,0.059048,0.7979310000000001,0.599835,0.363605,0.083005,-0.134182
1594,0.044195,0.806829,0.5891149999999999,0.270624,-0.129384,-0.2874489999999999
1595,0.04347,0.81889,0.572286,0.165773,-0.42738,-0.131994
1596,0.052417,0.835565,0.54687,0.141842,-0.485696,-0.039332
1597,0.068017,0.855398,0.513469,0.010733,-0.601248,0.0598039999999999
1598,0.0924059999999999,0.87475,0.4756649999999999,-0.219496,-0.54452,0.032972
1599,0.124924,0.8922399999999999,0.4339189999999999,-0.3074949999999999,-0.259351,-0.072515
1600,0.165375,0.906666,0.3880639999999999,-0.34697,0.413784,-0.325183
1601,0.20672,0.917798,0.338969,0.2140099999999999,0.776096,-0.019176
1602,0.235017,0.927945,0.289261,0.189925,0.406955,0.2737429999999999
1603,0.2462079999999999,0.937269,0.24677,0.059883,-0.238844,0.446818
1604,0.234504,0.948749,0.211828,-0.014716,-0.7612800000000001,0.127375
1605,0.218409,0.958222,0.184651,-0.200404,-0.766053,0.301799
1606,0.206502,0.963941,0.16782,0.223384,0.06557,-0.005207
1607,0.202372,0.96513,0.166008,0.032248,0.4287,0.6825939999999999
1608,0.200395,0.960465,0.193225,-0.25493,0.981261,0.925976
1609,0.169257,0.964791,0.20129,-0.068885,1.834037,-0.0639
1610,0.125016,0.964324,0.2333199999999999,-0.061387,1.060502,-0.196409
1611,0.098283,0.959527,0.263884,0.15573,-0.6510859999999999,-0.158461
1612,0.090852,0.957052,0.275288,0.008177,-0.96015,-0.549366
1613,0.096992,0.955093,0.279958,-0.008735,0.027161,-0.041815
1614,0.117424,0.954499,0.274096,-0.073494,0.8110649999999999,0.2097909999999999
1615,0.1219369999999999,0.95567,0.267977,-0.212605,0.960696,0.302289
1616,0.115772,0.95936,0.257315,-0.032413,0.036688,0.187188
1617,0.112713,0.960842,0.25311,0.067661,-0.251644,0.1691619999999999
1618,0.113758,0.960711,0.253141,-0.3069489999999999,-0.322954,0.121219
1619,0.1183569999999999,0.957547,0.262834,-0.467433,0.038013,0.14157
1620,0.115515,0.949604,0.291365,-0.402106,0.172741,0.145296
1621,0.102417,0.934876,0.339856,0.149094,0.039779,-0.109922
1622,0.085793,0.913821,0.39693,0.2435679999999999,0.066525,-0.2262
1623,0.073287,0.885559,0.45869,0.2796949999999999,0.117752,-0.362376
1624,0.065533,0.854725,0.514911,0.3053619999999999,-0.1227299999999999,-0.396685
1625,0.06473,0.8263510000000001,0.559408,0.1233339999999999,-0.242855,-0.045339
1626,0.05563,0.807868,0.586717,-0.170773,-0.072379,-0.122316
1627,0.046379,0.798137,0.6006729999999999,0.178994,0.085209,-0.108089
1628,0.033118,0.7969689999999999,0.603097,0.354471,0.123349,-0.192681
1629,0.022871,0.804607,0.593352,0.311327,-0.007885,-0.159652
1630,0.025679,0.8181,0.574487,0.298265,-0.2410429999999999,-0.018411
1631,0.036743,0.837477,0.5452199999999999,0.194412,-0.352537,0.0816409999999999
1632,0.051024,0.858908,0.5095649999999999,0.174348,-0.608222,0.091326
1633,0.070518,0.8791100000000001,0.471356,-0.018608,-0.7996270000000001,0.019687
1634,0.099724,0.896167,0.432346,-0.25692,0.183774,-0.323109
1635,0.142507,0.908382,0.393088,-0.191961,0.495167,-0.292288
1636,0.189513,0.914973,0.356221,0.1441049999999999,0.8515219999999999,-0.153249
1637,0.2272199999999999,0.921256,0.315662,0.361419,0.191216,0.31448
1638,0.252376,0.927687,0.2751159999999999,0.367711,-0.0656419999999999,0.3941949999999999
1639,0.2642739999999999,0.93361,0.241904,0.247475,-0.295503,0.454293
1640,0.261718,0.940766,0.21552,-0.094695,-0.4820109999999999,0.5003770000000001
1641,0.25204,0.947887,0.194866,-0.402538,-0.6011,0.2171219999999999
1642,0.237746,0.953996,0.182634,-0.460845,-0.567018,-0.995012
1643,0.230934,0.958003,0.169959,-0.02021,0.067388,0.114496
1644,0.23292,0.954814,0.184568,-0.205805,0.387044,0.508853
1645,0.219946,0.955903,0.194576,-0.242544,0.67897,0.101917
1646,0.193523,0.958654,0.208608,0.041096,1.655772,0.6291760000000001
1647,0.16837,0.95413,0.2475349999999999,-0.361821,0.8910239999999999,-0.0730659999999999
1648,0.147566,0.952034,0.268031,-0.020842,-0.570046,-0.400859
1649,0.1431359999999999,0.948149,0.283744,0.024375,-0.759322,-0.54589
1650,0.149392,0.944847,0.291431,-0.051476,-0.3578409999999999,-0.338794
1651,0.165367,0.943167,0.28823,-0.2721179999999999,0.5513100000000001,0.362008
1652,0.164757,0.945157,0.281993,-0.2217329999999999,0.405383,0.378911
1653,0.1612289999999999,0.948327,0.273254,0.195048,0.010596,0.028412
1654,0.165126,0.949364,0.267261,0.060994,-0.352699,0.153424
1655,0.170865,0.950318,0.260169,-0.436154,-0.151062,0.17582
1656,0.178122,0.949657,0.257703,-0.565833,0.29308,0.222277
1657,0.186523,0.947457,0.259849,-0.4561,0.494697,0.005639
1658,0.195079,0.943771,0.266885,-0.4756579999999999,0.234192,-0.080621
1659,0.206222,0.93931,0.274146,-0.526474,0.169043,-0.169868
1660,0.217279,0.933021,0.28679,-0.10296,0.185829,0.177062
1661,0.222111,0.924866,0.308672,0.1116289999999999,0.138184,0.182967
1662,0.217714,0.915808,0.337467,0.287352,0.164865,0.119152
1663,0.203614,0.905885,0.371352,0.387267,0.178283,-0.101393
1664,0.183026,0.897618,0.400963,0.1907839999999999,0.24615,-0.447334
1665,0.161482,0.889152,0.428158,0.067247,0.445565,-0.558392
1666,0.141997,0.8812559999999999,0.4507899999999999,-0.285231,0.8848719999999999,-0.156768
1667,0.123613,0.8801479999999999,0.458309,-0.252519,0.473002,-0.162242
1668,0.106761,0.885172,0.4528359999999999,-0.113703,0.338049,-0.1441349999999999
1669,0.095303,0.8931030000000001,0.439627,0.018284,0.137964,-0.160697
1670,0.087295,0.902455,0.421832,0.107118,0.0109819999999999,-0.3174619999999999
1671,0.08488,0.9104,0.404914,0.131459,-0.082519,-0.382637
1672,0.092418,0.913004,0.397329,0.05692,-0.228983,-0.4544729999999999
1673,0.112273,0.911572,0.395499,0.2108469999999999,-0.294552,-0.2333739999999999
1674,0.135263,0.9091,0.393991,0.187857,-0.29208,-0.231866
1675,0.156017,0.90776,0.389383,0.285435,-0.16014,0.036367
1676,0.174816,0.907753,0.381331,0.2347449999999999,-0.11515,0.00667
1677,0.19346,0.90699,0.374075,0.109289,-0.053199,-0.02445
1678,0.210706,0.904911,0.369768,0.093981,-0.021976,-0.020631
1679,0.225084,0.902829,0.3663679999999999,0.074111,0.083636,0.050792
1680,0.237477,0.900609,0.364001,0.01913,0.141734,0.151044
1681,0.248923,0.8973530000000001,0.364394,-0.104544,0.118119,0.235368
1682,0.256563,0.894898,0.365133,-0.301744,-0.032395,0.2559
1683,0.265391,0.893856,0.361356,-0.393732,-0.050045,0.238742
1684,0.2756969999999999,0.8945620000000001,0.351767,-0.429842,0.060349,0.1691369999999999
1685,0.281945,0.896156,0.342638,-0.450081,0.233375,0.151456
1686,0.28249,0.898417,0.33621,-0.439243,0.304479,0.063586
1687,0.277205,0.901899,0.331253,-0.314634,0.141925,0.093887
1688,0.2691199999999999,0.906718,0.3246989999999999,-0.194291,-0.160548,0.169167
1689,0.261013,0.913483,0.31211,0.034748,-0.2479559999999999,0.035699
1690,0.255161,0.920864,0.294777,0.357815,0.012898,-0.2093739999999999
1691,0.251219,0.927806,0.275783,0.363619,0.428502,-0.149913
1692,0.2494449999999999,0.932564,0.260948,0.253668,0.50515,0.0698169999999999
1693,0.24996,0.93205,0.262288,0.029718,0.406482,0.414592
1694,0.250232,0.927635,0.27725,-0.115848,-0.48713,-0.106306
1695,0.2473469999999999,0.923637,0.292754,-0.068392,-0.753898,-0.498641
1696,0.25078,0.925484,0.283865,-0.026186,-0.457055,-0.927389
1697,0.265435,0.927833,0.262032,-0.140877,0.0514149999999999,-0.692635
1698,0.266332,0.932147,0.245278,-1.005208,0.8878149999999999,-0.132668
1699,0.254159,0.937027,0.239529,-0.270974,0.34552,-0.198696
1700,0.242563,0.941679,0.233227,-0.030847,0.149843,-0.048718
1701,0.23913,0.946588,0.216284,0.243887,-0.187754,-0.08277
1702,0.249203,0.947049,0.202455,0.200627,0.1310599999999999,-0.111314
1703,0.2630929999999999,0.945528,0.191708,0.171294,0.201872,-0.181042
1704,0.274028,0.944521,0.181054,0.215398,-0.035647,-0.181084
1705,0.283117,0.94462,0.165925,0.214167,-0.130975,-0.033341
1706,0.292884,0.944812,0.146771,0.023553,0.001126,-0.0451779999999999
1707,0.301025,0.945069,0.127361,-0.13414,0.116454,-0.154674
1708,0.30684,0.945599,0.108095,-0.146257,0.067401,-0.147494
1709,0.312869,0.945475,0.0904669999999999,-0.080935,-0.034922,-0.029279
1710,0.319517,0.944643,0.074511,-0.0547929999999999,-0.088808,0.044462
1711,0.326813,0.94319,0.0598289999999999,-0.074693,-0.075407,0.08194
1712,0.334358,0.941416,0.043975,-0.089745,-0.050791,0.086564
1713,0.341862,0.93936,0.0269589999999999,-0.102986,-0.006651,0.103351
1714,0.349329,0.936943,0.010019,-0.185557,0.092705,0.2184809999999999
1715,0.355478,0.934666,-0.005248,-0.2035,0.148921,0.248153
1716,0.3583909999999999,0.933365,-0.019463,-0.21183,0.165924,0.264336
1717,0.357914,0.933206,-0.031908,-0.252842,0.196067,0.210909
1718,0.354122,0.934334,-0.040121,-0.204708,0.1196049999999999,0.117361
1719,0.347632,0.936633,-0.043173,-0.134574,0.10835,0.145117
1720,0.344555,0.937823,-0.041997,-0.206585,0.326521,0.1935319999999999
1721,0.339808,0.940002,-0.030312,-0.28541,0.3543699999999999,0.143089
1722,0.332286,0.943146,-0.007329,-0.308299,0.406051,0.078541
1723,0.320907,0.946608,0.030729,-0.183349,0.4480909999999999,0.056536
1724,0.308023,0.948047,0.079497,0.053946,0.2520719999999999,0.297807
1725,0.295051,0.945288,0.139166,0.023477,0.1719,0.082514
1726,0.280425,0.939187,0.198194,0.117631,0.133827,-0.423093
1727,0.262138,0.932395,0.248823,0.052224,0.252038,-0.260114
1728,0.239432,0.926563,0.290075,-0.063544,0.331067,-0.244055
1729,0.215584,0.922097,0.321324,-0.194344,0.417792,-0.201146
1730,0.191723,0.917525,0.348394,-0.046444,0.286607,-0.327612
1731,0.171281,0.912389,0.37175,0.016692,0.145732,-0.417038
1732,0.155865,0.90555,0.394555,0.087116,-0.109621,-0.452081
1733,0.144802,0.897958,0.415564,0.079746,-0.195367,-0.34049
1734,0.134972,0.8914350000000001,0.432568,0.060524,-0.221437,-0.270885
1735,0.126938,0.8869549999999999,0.444057,0.078567,-0.194602,-0.25584
1736,0.121544,0.8855459999999999,0.4483569999999999,0.10543,-0.163866,-0.336694
1737,0.121974,0.8858,0.447737,0.120595,-0.113614,-0.413267
1738,0.128513,0.88641,0.44469,0.141293,-0.2079889999999999,-0.366428
1739,0.139553,0.887282,0.439596,0.134677,-0.323287,-0.155675
1740,0.151094,0.8903409999999999,0.429479,0.090498,-0.317786,-0.098088
1741,0.161694,0.8966209999999999,0.412208,0.072635,-0.2248219999999999,0.000649
1742,0.171391,0.90472,0.389995,-0.0521429999999999,0.073308,0.0429579999999999
1743,0.182045,0.911966,0.367649,-0.110375,0.150534,0.0655169999999999
1744,0.195372,0.916909,0.34799,-0.1746049999999999,0.190543,0.159365
1745,0.213594,0.917269,0.336133,0.003676,0.144194,0.3004179999999999
1746,0.231104,0.914896,0.330976,0.042531,0.182516,0.33211
1747,0.2332929999999999,0.915365,0.328134,-0.081712,-0.164159,0.236548
1748,0.225239,0.918426,0.325194,-0.056156,-0.28035,0.168382
1749,0.215725,0.922561,0.319898,-0.045773,-0.227325,-0.036039
1750,0.207817,0.926514,0.313648,-0.127357,-0.01973,-0.264377
1751,0.198822,0.932439,0.301694,-0.183365,0.025981,-0.470334
1752,0.192639,0.941837,0.275365,-0.00549,0.303815,-0.198323
1753,0.187933,0.943647,0.272403,0.079828,0.439318,0.079907
1754,0.1844049999999999,0.937729,0.294363,0.264478,0.3720699999999999,-0.031867
1755,0.192364,0.936648,0.292707,0.351155,-0.442172,-0.389433
1756,0.203833,0.940369,0.272304,0.173074,-0.09166,-0.188854
1757,0.2113969999999999,0.943814,0.254002,-0.042894,0.306659,-0.412815
1758,0.216634,0.94585,0.241718,-0.122823,0.235577,-0.258671
1759,0.2218659999999999,0.946765,0.233244,-0.1091039999999999,0.010724,0.0179919999999999
1760,0.2271119999999999,0.948175,0.222207,-0.082749,0.0145479999999999,-0.0598529999999999
1761,0.233456,0.949571,0.2092969999999999,-0.12637,0.001555,-0.212578
1762,0.244067,0.94873,0.2008349999999999,-0.090609,0.000443,-0.000746
1763,0.2530719999999999,0.948677,0.189627,-0.060811,0.007088,-0.036871
1764,0.261493,0.948752,0.1774339999999999,-0.0560639999999999,0.020105,-0.027654
1765,0.2672469999999999,0.949373,0.1651099999999999,-0.042699,-0.042787,0.044362
1766,0.2698,0.950446,0.154442,-0.044092,-0.1240599999999999,0.032158
1767,0.270678,0.951361,0.147096,-0.050952,-0.138403,0.0726909999999999
1768,0.270581,0.952383,0.140513,-0.095013,-0.043585,0.157948
1769,0.269655,0.953083,0.137518,-0.198121,-0.056842,0.032693
1770,0.2679809999999999,0.95284,0.1423829999999999,-0.158393,-0.059026,0.113172
1771,0.2680659999999999,0.951822,0.148884,-0.188644,-0.05546,0.178539
