,Gravity X,Gravity Y,Gravity Z,User Acceleration X,User Acceleration Y,User Acceleration Z
0,0.2835687,-2.4975133,9.479052,-0.47385907,0.69146824,0.9947571
1,0.2835687,-2.4975133,9.479052,-0.47385907,0.69146824,0.9947571
2,0.17291676,-2.443529,9.49577,-0.5549389,0.6110631,1.0252601
3,0.17291676,-2.443529,9.49577,-0.5549389,0.6110631,1.0252601
4,0.17291676,-2.443529,9.49577,-0.5549389,0.6110631,1.0252601
5,0.17291676,-2.443529,9.49577,-0.5549389,0.6110631,1.0252601
6,0.085445814,-2.4825983,9.486822,-0.44426745,0.6505227,0.9755365
7,0.085445814,-2.4825983,9.486822,-0.44426745,0.6505227,0.9755365
8,0.085445814,-2.4825983,9.486822,-0.44426745,0.6505227,0.9755365
9,0.085445814,-2.4825983,9.486822,-0.44426745,0.6505227,0.9755365
10,0.084972404,-2.593664,9.457065,-0.5116755,0.6431059,0.95785975
11,0.084972404,-2.593664,9.457065,-0.5116755,0.6431059,0.95785975
12,0.084972404,-2.593664,9.457065,-0.5116755,0.6431059,0.95785975
13,0.084972404,-2.593664,9.457065,-0.5116755,0.6431059,0.95785975
14,0.17283367,-2.8150573,9.392336,-0.56324536,0.90510845,0.91465294
15,0.17283367,-2.8150573,9.392336,-0.56324536,0.90510845,0.91465294
16,0.17283367,-2.8150573,9.392336,-0.56324536,0.90510845,0.91465294
17,0.17283367,-2.8150573,9.392336,-0.56324536,0.90510845,0.91465294
18,0.17283367,-2.8150573,9.392336,-0.56324536,0.90510845,0.91465294
19,0.2936286,-3.1252503,9.290693,-0.24732487,0.6904454,0.3898195
20,0.2936286,-3.1252503,9.290693,-0.24732487,0.6904454,0.3898195
21,0.2936286,-3.1252503,9.290693,-0.24732487,0.6904454,0.3898195
22,0.2936286,-3.1252503,9.290693,-0.24732487,0.6904454,0.3898195
23,0.2936286,-3.1252503,9.290693,-0.24732487,0.6904454,0.3898195
24,0.3899907,-3.4136217,9.185068,-0.3321962,0.3916108,0.27850088
25,0.3899907,-3.4136217,9.185068,-0.3321962,0.3916108,0.27850088
26,0.3899907,-3.4136217,9.185068,-0.3321962,0.3916108,0.27850088
27,0.3899907,-3.4136217,9.185068,-0.3321962,0.3916108,0.27850088
28,0.3899907,-3.4136217,9.185068,-0.3321962,0.3916108,0.27850088
29,0.44465673,-3.6572325,9.088306,-0.036195796,0.18666378,0.48682433
30,0.44465673,-3.6572325,9.088306,-0.036195796,0.18666378,0.48682433
31,0.44465673,-3.6572325,9.088306,-0.036195796,0.18666378,0.48682433
32,0.44465673,-3.6572325,9.088306,-0.036195796,0.18666378,0.48682433
33,0.49304274,-3.8842614,8.991096,-0.9821098,1.9578288,1.6625441
34,0.49304274,-3.8842614,8.991096,-0.9821098,1.9578288,1.6625441
35,0.49304274,-3.8842614,8.991096,-0.9821098,1.9578288,1.6625441
36,0.49304274,-3.8842614,8.991096,-0.9821098,1.9578288,1.6625441
37,0.49304274,-3.8842614,8.991096,-0.9821098,1.9578288,1.6625441
38,0.54091305,-4.102489,8.89086,-0.284108,0.14664501,0.60141677
39,0.54091305,-4.102489,8.89086,-0.284108,0.14664501,0.60141677
40,0.54091305,-4.102489,8.89086,-0.284108,0.14664501,0.60141677
41,0.54091305,-4.102489,8.89086,-0.284108,0.14664501,0.60141677
42,0.6278308,-4.3593736,8.761968,-0.51540005,0.54414207,0.80256003
43,0.6278308,-4.3593736,8.761968,-0.51540005,0.54414207,0.80256003
44,0.6278308,-4.3593736,8.761968,-0.51540005,0.54414207,0.80256003
45,0.6278308,-4.3593736,8.761968,-0.51540005,0.54414207,0.80256003
46,0.6278308,-4.3593736,8.761968,-0.51540005,0.54414207,0.80256003
47,0.74496305,-4.638526,8.608106,-0.6098688,0.85931855,1.069982
48,0.74496305,-4.638526,8.608106,-0.6098688,0.85931855,1.069982
49,0.74496305,-4.638526,8.608106,-0.6098688,0.85931855,1.069982
50,0.74496305,-4.638526,8.608106,-0.6098688,0.85931855,1.069982
51,0.74496305,-4.638526,8.608106,-0.6098688,0.85931855,1.069982
52,0.87505674,-4.920968,8.437342,-0.5536535,0.4888474,0.6181533
53,0.87505674,-4.920968,8.437342,-0.5536535,0.4888474,0.6181533
54,0.87505674,-4.920968,8.437342,-0.5536535,0.4888474,0.6181533
55,0.87505674,-4.920968,8.437342,-0.5536535,0.4888474,0.6181533
56,0.87505674,-4.920968,8.437342,-0.5536535,0.4888474,0.6181533
57,1.0374198,-5.2228384,8.235054,-0.13099173,0.09833558,0.4125375
58,1.0374198,-5.2228384,8.235054,-0.13099173,0.09833558,0.4125375
59,1.0374198,-5.2228384,8.235054,-0.13099173,0.09833558,0.4125375
60,1.0374198,-5.2228384,8.235054,-0.13099173,0.09833558,0.4125375
61,1.0374198,-5.2228384,8.235054,-0.13099173,0.09833558,0.4125375
62,1.1845311,-5.515599,8.021561,-0.2721922,0.02651472,-0.12125711
63,1.1845311,-5.515599,8.021561,-0.2721922,0.02651472,-0.12125711
64,1.1845311,-5.515599,8.021561,-0.2721922,0.02651472,-0.12125711
65,1.1845311,-5.515599,8.021561,-0.2721922,0.02651472,-0.12125711
66,1.1845311,-5.515599,8.021561,-0.2721922,0.02651472,-0.12125711
67,1.3252813,-5.794804,7.799632,-0.3476576,0.23332448,0.4272138
68,1.3252813,-5.794804,7.799632,-0.3476576,0.23332448,0.4272138
69,1.3252813,-5.794804,7.799632,-0.3476576,0.23332448,0.4272138
70,1.3252813,-5.794804,7.799632,-0.3476576,0.23332448,0.4272138
71,1.3252813,-5.794804,7.799632,-0.3476576,0.23332448,0.4272138
72,1.3252813,-5.794804,7.799632,-0.3476576,0.23332448,0.4272138
73,1.4555573,-6.043743,7.5845184,-0.28556624,0.0795744,0.64446175
74,1.4555573,-6.043743,7.5845184,-0.28556624,0.0795744,0.64446175
75,1.4555573,-6.043743,7.5845184,-0.28556624,0.0795744,0.64446175
76,1.4555573,-6.043743,7.5845184,-0.28556624,0.0795744,0.64446175
77,1.4555573,-6.043743,7.5845184,-0.28556624,0.0795744,0.64446175
78,1.5462106,-6.260512,7.388207,-0.43935546,0.51435256,0.5263395
79,1.5462106,-6.260512,7.388207,-0.43935546,0.51435256,0.5263395
80,1.5462106,-6.260512,7.388207,-0.43935546,0.51435256,0.5263395
81,1.5462106,-6.260512,7.388207,-0.43935546,0.51435256,0.5263395
82,1.5462106,-6.260512,7.388207,-0.43935546,0.51435256,0.5263395
83,1.6230618,-6.477531,7.1817575,-0.11473541,0.25695926,0.03475258
84,1.6230618,-6.477531,7.1817575,-0.11473541,0.25695926,0.03475258
85,1.6230618,-6.477531,7.1817575,-0.11473541,0.25695926,0.03475258
86,1.6230618,-6.477531,7.1817575,-0.11473541,0.25695926,0.03475258
87,1.6230618,-6.477531,7.1817575,-0.11473541,0.25695926,0.03475258
88,1.6890607,-6.6842422,6.9741216,0.00084175606,-0.09261305,0.40017325
89,1.6890607,-6.6842422,6.9741216,0.00084175606,-0.09261305,0.40017325
90,1.6890607,-6.6842422,6.9741216,0.00084175606,-0.09261305,0.40017325
91,1.6890607,-6.6842422,6.9741216,0.00084175606,-0.09261305,0.40017325
92,1.6890607,-6.6842422,6.9741216,0.00084175606,-0.09261305,0.40017325
93,1.6890607,-6.6842422,6.9741216,0.00084175606,-0.09261305,0.40017325
94,1.7554588,-6.893544,6.7503934,0.0007765738,-0.24671568,-0.3133144
95,1.7554588,-6.893544,6.7503934,0.0007765738,-0.24671568,-0.3133144
96,1.7554588,-6.893544,6.7503934,0.0007765738,-0.24671568,-0.3133144
97,1.7554588,-6.893544,6.7503934,0.0007765738,-0.24671568,-0.3133144
98,1.7554588,-6.893544,6.7503934,0.0007765738,-0.24671568,-0.3133144
99,1.7554588,-6.893544,6.7503934,0.0007765738,-0.24671568,-0.3133144
100,1.8133832,-7.096501,6.520866,-0.105585046,0.019118592,0.47990328
101,1.8133832,-7.096501,6.520866,-0.105585046,0.019118592,0.47990328
102,1.8133832,-7.096501,6.520866,-0.105585046,0.019118592,0.47990328
103,1.8133832,-7.096501,6.520866,-0.105585046,0.019118592,0.47990328
104,1.8133832,-7.096501,6.520866,-0.105585046,0.019118592,0.47990328
105,1.8133832,-7.096501,6.520866,-0.105585046,0.019118592,0.47990328
106,1.8707515,-7.308129,6.2659345,-0.41457075,0.4241577,0.39046153
107,1.8707515,-7.308129,6.2659345,-0.41457075,0.4241577,0.39046153
108,1.8707515,-7.308129,6.2659345,-0.41457075,0.4241577,0.39046153
109,1.8707515,-7.308129,6.2659345,-0.41457075,0.4241577,0.39046153
110,1.8707515,-7.308129,6.2659345,-0.41457075,0.4241577,0.39046153
111,1.8707515,-7.308129,6.2659345,-0.41457075,0.4241577,0.39046153
112,1.9751741,-7.517776,5.979307,-0.25651577,0.330546,0.3553863
113,1.9751741,-7.517776,5.979307,-0.25651577,0.330546,0.3553863
114,1.9751741,-7.517776,5.979307,-0.25651577,0.330546,0.3553863
115,1.9751741,-7.517776,5.979307,-0.25651577,0.330546,0.3553863
116,1.9751741,-7.517776,5.979307,-0.25651577,0.330546,0.3553863
117,1.9751741,-7.517776,5.979307,-0.25651577,0.330546,0.3553863
118,2.140637,-7.697172,5.6869674,-0.07808325,-0.14022288,0.11862571
119,2.140637,-7.697172,5.6869674,-0.07808325,-0.14022288,0.11862571
120,2.140637,-7.697172,5.6869674,-0.07808325,-0.14022288,0.11862571
121,2.140637,-7.697172,5.6869674,-0.07808325,-0.14022288,0.11862571
122,2.140637,-7.697172,5.6869674,-0.07808325,-0.14022288,0.11862571
123,2.140637,-7.697172,5.6869674,-0.07808325,-0.14022288,0.11862571
124,2.307439,-7.864347,5.384994,0.17370294,-0.33640203,-0.32363674
125,2.307439,-7.864347,5.384994,0.17370294,-0.33640203,-0.32363674
126,2.307439,-7.864347,5.384994,0.17370294,-0.33640203,-0.32363674
127,2.307439,-7.864347,5.384994,0.17370294,-0.33640203,-0.32363674
128,2.307439,-7.864347,5.384994,0.17370294,-0.33640203,-0.32363674
129,2.307439,-7.864347,5.384994,0.17370294,-0.33640203,-0.32363674
130,2.4655836,-8.016377,5.0822225,-0.12598616,0.096189275,0.07748073
131,2.4655836,-8.016377,5.0822225,-0.12598616,0.096189275,0.07748073
132,2.4655836,-8.016377,5.0822225,-0.12598616,0.096189275,0.07748073
133,2.4655836,-8.016377,5.0822225,-0.12598616,0.096189275,0.07748073
134,2.4655836,-8.016377,5.0822225,-0.12598616,0.096189275,0.07748073
135,2.4655836,-8.016377,5.0822225,-0.12598616,0.096189275,0.07748073
136,2.660721,-8.127178,4.7999916,-0.0016380401,-0.08985026,0.38599792
137,2.660721,-8.127178,4.7999916,-0.0016380401,-0.08985026,0.38599792
138,2.660721,-8.127178,4.7999916,-0.0016380401,-0.08985026,0.38599792
139,2.660721,-8.127178,4.7999916,-0.0016380401,-0.08985026,0.38599792
140,2.660721,-8.127178,4.7999916,-0.0016380401,-0.08985026,0.38599792
141,2.660721,-8.127178,4.7999916,-0.0016380401,-0.08985026,0.38599792
142,2.8905602,-8.191641,4.551051,-0.17296652,0.27161664,0.09704008
143,2.8905602,-8.191641,4.551051,-0.17296652,0.27161664,0.09704008
144,2.8905602,-8.191641,4.551051,-0.17296652,0.27161664,0.09704008
145,2.8905602,-8.191641,4.551051,-0.17296652,0.27161664,0.09704008
146,2.8905602,-8.191641,4.551051,-0.17296652,0.27161664,0.09704008
147,2.8905602,-8.191641,4.551051,-0.17296652,0.27161664,0.09704008
148,3.066132,-8.244859,4.334918,0.14316845,0.076315425,-0.37600926
149,3.066132,-8.244859,4.334918,0.14316845,0.076315425,-0.37600926
150,3.066132,-8.244859,4.334918,0.14316845,0.076315425,-0.37600926
151,3.066132,-8.244859,4.334918,0.14316845,0.076315425,-0.37600926
152,3.066132,-8.244859,4.334918,0.14316845,0.076315425,-0.37600926
153,3.066132,-8.244859,4.334918,0.14316845,0.076315425,-0.37600926
154,3.1613343,-8.279996,4.197383,0.20510127,-0.24405244,0.17471886
155,3.1613343,-8.279996,4.197383,0.20510127,-0.24405244,0.17471886
156,3.1613343,-8.279996,4.197383,0.20510127,-0.24405244,0.17471886
157,3.1613343,-8.279996,4.197383,0.20510127,-0.24405244,0.17471886
158,3.1613343,-8.279996,4.197383,0.20510127,-0.24405244,0.17471886
159,3.1613343,-8.279996,4.197383,0.20510127,-0.24405244,0.17471886
160,3.2309551,-8.28828,4.127437,0.12677823,-0.3303168,-0.26585653
161,3.2309551,-8.28828,4.127437,0.12677823,-0.3303168,-0.26585653
162,3.2309551,-8.28828,4.127437,0.12677823,-0.3303168,-0.26585653
163,3.2309551,-8.28828,4.127437,0.12677823,-0.3303168,-0.26585653
164,3.2309551,-8.28828,4.127437,0.12677823,-0.3303168,-0.26585653
165,3.2309551,-8.28828,4.127437,0.12677823,-0.3303168,-0.26585653
166,3.2749352,-8.276638,4.1161213,0.25573054,-0.15536146,0.07515796
167,3.2749352,-8.276638,4.1161213,0.25573054,-0.15536146,0.07515796
168,3.2749352,-8.276638,4.1161213,0.25573054,-0.15536146,0.07515796
169,3.2749352,-8.276638,4.1161213,0.25573054,-0.15536146,0.07515796
170,3.2749352,-8.276638,4.1161213,0.25573054,-0.15536146,0.07515796
171,3.2749352,-8.276638,4.1161213,0.25573054,-0.15536146,0.07515796
172,3.266096,-8.264003,4.1484046,0.03469,-0.15065667,0.33812556
173,3.266096,-8.264003,4.1484046,0.03469,-0.15065667,0.33812556
174,3.266096,-8.264003,4.1484046,0.03469,-0.15065667,0.33812556
175,3.266096,-8.264003,4.1484046,0.03469,-0.15065667,0.33812556
176,3.266096,-8.264003,4.1484046,0.03469,-0.15065667,0.33812556
177,3.266096,-8.264003,4.1484046,0.03469,-0.15065667,0.33812556
178,3.2180512,-8.25318,4.207086,-0.1142012,0.15893473,0.35533398
179,3.2180512,-8.25318,4.207086,-0.1142012,0.15893473,0.35533398
180,3.2180512,-8.25318,4.207086,-0.1142012,0.15893473,0.35533398
181,3.2180512,-8.25318,4.207086,-0.1142012,0.15893473,0.35533398
182,3.2180512,-8.25318,4.207086,-0.1142012,0.15893473,0.35533398
183,3.2180512,-8.25318,4.207086,-0.1142012,0.15893473,0.35533398
184,3.1703835,-8.24745,4.254247,-0.11857219,0.28691655,0.67009395
185,3.1703835,-8.24745,4.254247,-0.11857219,0.28691655,0.67009395
186,3.1703835,-8.24745,4.254247,-0.11857219,0.28691655,0.67009395
187,3.1703835,-8.24745,4.254247,-0.11857219,0.28691655,0.67009395
188,3.1703835,-8.24745,4.254247,-0.11857219,0.28691655,0.67009395
189,3.1703835,-8.24745,4.254247,-0.11857219,0.28691655,0.67009395
190,3.1609018,-8.242521,4.270822,-0.3904421,-0.22021972,0.32912737
191,3.1609018,-8.242521,4.270822,-0.3904421,-0.22021972,0.32912737
192,3.1609018,-8.242521,4.270822,-0.3904421,-0.22021972,0.32912737
193,3.1609018,-8.242521,4.270822,-0.3904421,-0.22021972,0.32912737
194,3.1609018,-8.242521,4.270822,-0.3904421,-0.22021972,0.32912737
195,3.1609018,-8.242521,4.270822,-0.3904421,-0.22021972,0.32912737
196,3.1918292,-8.286768,4.1607804,0.09252677,-0.08268886,0.23785937
197,3.1918292,-8.286768,4.1607804,0.09252677,-0.08268886,0.23785937
198,3.1918292,-8.286768,4.1607804,0.09252677,-0.08268886,0.23785937
199,3.1918292,-8.286768,4.1607804,0.09252677,-0.08268886,0.23785937
200,3.1918292,-8.286768,4.1607804,0.09252677,-0.08268886,0.23785937
201,3.1918292,-8.286768,4.1607804,0.09252677,-0.08268886,0.23785937
202,3.2659292,-8.311076,4.0534067,-0.15325093,0.008551182,-0.7092889
203,3.2659292,-8.311076,4.0534067,-0.15325093,0.008551182,-0.7092889
204,3.2659292,-8.311076,4.0534067,-0.15325093,0.008551182,-0.7092889
205,3.2659292,-8.311076,4.0534067,-0.15325093,0.008551182,-0.7092889
206,3.2659292,-8.311076,4.0534067,-0.15325093,0.008551182,-0.7092889
207,3.2659292,-8.311076,4.0534067,-0.15325093,0.008551182,-0.7092889
208,3.3505082,-8.343895,3.914575,-0.044565827,-0.13634737,0.58763367
209,3.3505082,-8.343895,3.914575,-0.044565827,-0.13634737,0.58763367
210,3.3505082,-8.343895,3.914575,-0.044565827,-0.13634737,0.58763367
211,3.3505082,-8.343895,3.914575,-0.044565827,-0.13634737,0.58763367
212,3.3505082,-8.343895,3.914575,-0.044565827,-0.13634737,0.58763367
213,3.3505082,-8.343895,3.914575,-0.044565827,-0.13634737,0.58763367
214,3.4145215,-8.363328,3.8165667,-0.084411375,-0.04168174,0.38288546
215,3.4145215,-8.363328,3.8165667,-0.084411375,-0.04168174,0.38288546
216,3.4145215,-8.363328,3.8165667,-0.084411375,-0.04168174,0.38288546
217,3.4145215,-8.363328,3.8165667,-0.084411375,-0.04168174,0.38288546
218,3.4145215,-8.363328,3.8165667,-0.084411375,-0.04168174,0.38288546
219,3.4145215,-8.363328,3.8165667,-0.084411375,-0.04168174,0.38288546
220,3.4834208,-8.35809,3.7654333,-0.48105845,0.03792668,0.3547317
221,3.4834208,-8.35809,3.7654333,-0.48105845,0.03792668,0.3547317
222,3.4834208,-8.35809,3.7654333,-0.48105845,0.03792668,0.3547317
223,3.4834208,-8.35809,3.7654333,-0.48105845,0.03792668,0.3547317
224,3.4834208,-8.35809,3.7654333,-0.48105845,0.03792668,0.3547317
225,3.4834208,-8.35809,3.7654333,-0.48105845,0.03792668,0.3547317
226,3.5268807,-8.36715,3.7043607,-0.20865358,-0.040118918,0.3431369
227,3.5268807,-8.36715,3.7043607,-0.20865358,-0.040118918,0.3431369
228,3.5268807,-8.36715,3.7043607,-0.20865358,-0.040118918,0.3431369
229,3.5268807,-8.36715,3.7043607,-0.20865358,-0.040118918,0.3431369
230,3.5268807,-8.36715,3.7043607,-0.20865358,-0.040118918,0.3431369
231,3.5268807,-8.36715,3.7043607,-0.20865358,-0.040118918,0.3431369
232,3.5417023,-8.353803,3.7203104,0.36492708,-0.7113796,0.050918065
233,3.5417023,-8.353803,3.7203104,0.36492708,-0.7113796,0.050918065
234,3.5417023,-8.353803,3.7203104,0.36492708,-0.7113796,0.050918065
235,3.5417023,-8.353803,3.7203104,0.36492708,-0.7113796,0.050918065
236,3.5417023,-8.353803,3.7203104,0.36492708,-0.7113796,0.050918065
237,3.5417023,-8.353803,3.7203104,0.36492708,-0.7113796,0.050918065
238,3.5494175,-8.367534,3.6819031,0.035748374,0.22293551,0.62688255
239,3.5494175,-8.367534,3.6819031,0.035748374,0.22293551,0.62688255
240,3.5494175,-8.367534,3.6819031,0.035748374,0.22293551,0.62688255
241,3.5494175,-8.367534,3.6819031,0.035748374,0.22293551,0.62688255
242,3.5494175,-8.367534,3.6819031,0.035748374,0.22293551,0.62688255
243,3.5494175,-8.367534,3.6819031,0.035748374,0.22293551,0.62688255
244,3.543512,-8.377318,3.6653042,-0.029772792,-0.26715225,0.2771651
245,3.543512,-8.377318,3.6653042,-0.029772792,-0.26715225,0.2771651
246,3.543512,-8.377318,3.6653042,-0.029772792,-0.26715225,0.2771651
247,3.543512,-8.377318,3.6653042,-0.029772792,-0.26715225,0.2771651
248,3.543512,-8.377318,3.6653042,-0.029772792,-0.26715225,0.2771651
249,3.543512,-8.377318,3.6653042,-0.029772792,-0.26715225,0.2771651
250,3.547681,-8.389803,3.6325686,-0.36175355,0.28704897,-0.02929073
251,3.547681,-8.389803,3.6325686,-0.36175355,0.28704897,-0.02929073
252,3.547681,-8.389803,3.6325686,-0.36175355,0.28704897,-0.02929073
253,3.547681,-8.389803,3.6325686,-0.36175355,0.28704897,-0.02929073
254,3.547681,-8.389803,3.6325686,-0.36175355,0.28704897,-0.02929073
255,3.547681,-8.389803,3.6325686,-0.36175355,0.28704897,-0.02929073
256,3.5793753,-8.416666,3.5381045,-0.24088724,0.118351854,0.43894365
257,3.5793753,-8.416666,3.5381045,-0.24088724,0.118351854,0.43894365
258,3.5793753,-8.416666,3.5381045,-0.24088724,0.118351854,0.43894365
259,3.5793753,-8.416666,3.5381045,-0.24088724,0.118351854,0.43894365
260,3.5793753,-8.416666,3.5381045,-0.24088724,0.118351854,0.43894365
261,3.5793753,-8.416666,3.5381045,-0.24088724,0.118351854,0.43894365
262,3.623881,-8.430589,3.4587643,0.13168761,-0.37411022,0.2190144
263,3.623881,-8.430589,3.4587643,0.13168761,-0.37411022,0.2190144
264,3.623881,-8.430589,3.4587643,0.13168761,-0.37411022,0.2190144
265,3.623881,-8.430589,3.4587643,0.13168761,-0.37411022,0.2190144
266,3.623881,-8.430589,3.4587643,0.13168761,-0.37411022,0.2190144
267,3.623881,-8.430589,3.4587643,0.13168761,-0.37411022,0.2190144
268,3.6592188,-8.467242,3.3296115,0.09282391,-0.24752009,-0.6649466
269,3.6592188,-8.467242,3.3296115,0.09282391,-0.24752009,-0.6649466
270,3.6592188,-8.467242,3.3296115,0.09282391,-0.24752009,-0.6649466
271,3.6592188,-8.467242,3.3296115,0.09282391,-0.24752009,-0.6649466
272,3.6592188,-8.467242,3.3296115,0.09282391,-0.24752009,-0.6649466
273,3.6592188,-8.467242,3.3296115,0.09282391,-0.24752009,-0.6649466
274,3.7065187,-8.489931,3.2176344,-0.3538601,-0.0047995774,0.21737579
275,3.7065187,-8.489931,3.2176344,-0.3538601,-0.0047995774,0.21737579
276,3.7065187,-8.489931,3.2176344,-0.3538601,-0.0047995774,0.21737579
277,3.7065187,-8.489931,3.2176344,-0.3538601,-0.0047995774,0.21737579
278,3.7065187,-8.489931,3.2176344,-0.3538601,-0.0047995774,0.21737579
279,3.7065187,-8.489931,3.2176344,-0.3538601,-0.0047995774,0.21737579
280,3.7726777,-8.507572,3.091684,-0.08743932,0.116895,0.041018564
281,3.7726777,-8.507572,3.091684,-0.08743932,0.116895,0.041018564
282,3.7726777,-8.507572,3.091684,-0.08743932,0.116895,0.041018564
283,3.7726777,-8.507572,3.091684,-0.08743932,0.116895,0.041018564
284,3.7726777,-8.507572,3.091684,-0.08743932,0.116895,0.041018564
285,3.7726777,-8.507572,3.091684,-0.08743932,0.116895,0.041018564
286,3.8215246,-8.529957,2.9675193,-0.2967421,0.35183668,0.6980542
287,3.8215246,-8.529957,2.9675193,-0.2967421,0.35183668,0.6980542
288,3.8215246,-8.529957,2.9675193,-0.2967421,0.35183668,0.6980542
289,3.8215246,-8.529957,2.9675193,-0.2967421,0.35183668,0.6980542
290,3.8215246,-8.529957,2.9675193,-0.2967421,0.35183668,0.6980542
291,3.8215246,-8.529957,2.9675193,-0.2967421,0.35183668,0.6980542
292,3.828386,-8.569746,2.8413572,0.24332343,-0.47029865,-0.19829294
293,3.828386,-8.569746,2.8413572,0.24332343,-0.47029865,-0.19829294
294,3.828386,-8.569746,2.8413572,0.24332343,-0.47029865,-0.19829294
295,3.8519042,-8.574843,2.7937958,0.3677493,0.04170162,-0.698089
296,3.8519042,-8.574843,2.7937958,0.3677493,0.04170162,-0.698089
297,3.8519042,-8.574843,2.7937958,0.3677493,0.04170162,-0.698089
298,3.8519042,-8.574843,2.7937958,0.3677493,0.04170162,-0.698089
299,3.8519042,-8.574843,2.7937958,0.3677493,0.04170162,-0.698089
300,3.8519042,-8.574843,2.7937958,0.3677493,0.04170162,-0.698089
301,3.8557103,-8.588672,2.7456508,-0.2049087,-0.13982211,-0.008898384
302,3.8557103,-8.588672,2.7456508,-0.2049087,-0.13982211,-0.008898384
303,3.8557103,-8.588672,2.7456508,-0.2049087,-0.13982211,-0.008898384
304,3.8557103,-8.588672,2.7456508,-0.2049087,-0.13982211,-0.008898384
305,3.8557103,-8.588672,2.7456508,-0.2049087,-0.13982211,-0.008898384
306,3.8557103,-8.588672,2.7456508,-0.2049087,-0.13982211,-0.008898384
307,3.856468,-8.601264,2.7048657,-0.11745901,0.06341409,0.03917234
308,3.856468,-8.601264,2.7048657,-0.11745901,0.06341409,0.03917234
309,3.856468,-8.601264,2.7048657,-0.11745901,0.06341409,0.03917234
310,3.856468,-8.601264,2.7048657,-0.11745901,0.06341409,0.03917234
311,3.856468,-8.601264,2.7048657,-0.11745901,0.06341409,0.03917234
312,3.856468,-8.601264,2.7048657,-0.11745901,0.06341409,0.03917234
313,3.8580313,-8.61782,2.6493695,-0.2979019,0.6303794,0.15310319
314,3.8580313,-8.61782,2.6493695,-0.2979019,0.6303794,0.15310319
315,3.8580313,-8.61782,2.6493695,-0.2979019,0.6303794,0.15310319
316,3.8580313,-8.61782,2.6493695,-0.2979019,0.6303794,0.15310319
317,3.8580313,-8.61782,2.6493695,-0.2979019,0.6303794,0.15310319
318,3.8580313,-8.61782,2.6493695,-0.2979019,0.6303794,0.15310319
319,3.8679976,-8.639644,2.5623307,-0.38132972,0.14833854,-0.11544599
320,3.8679976,-8.639644,2.5623307,-0.38132972,0.14833854,-0.11544599
321,3.8679976,-8.639644,2.5623307,-0.38132972,0.14833854,-0.11544599
322,3.8679976,-8.639644,2.5623307,-0.38132972,0.14833854,-0.11544599
323,3.8679976,-8.639644,2.5623307,-0.38132972,0.14833854,-0.11544599
324,3.8679976,-8.639644,2.5623307,-0.38132972,0.14833854,-0.11544599
325,3.8740656,-8.6618595,2.4767282,0.23138398,-0.48505765,-0.05974096
326,3.8740656,-8.6618595,2.4767282,0.23138398,-0.48505765,-0.05974096
327,3.8740656,-8.6618595,2.4767282,0.23138398,-0.48505765,-0.05974096
328,3.8740656,-8.6618595,2.4767282,0.23138398,-0.48505765,-0.05974096
329,3.8740656,-8.6618595,2.4767282,0.23138398,-0.48505765,-0.05974096
330,3.8740656,-8.6618595,2.4767282,0.23138398,-0.48505765,-0.05974096
331,3.8684165,-8.682779,2.4114482,0.10487469,0.25327897,-0.14449365
332,3.8684165,-8.682779,2.4114482,0.10487469,0.25327897,-0.14449365
333,3.8684165,-8.682779,2.4114482,0.10487469,0.25327897,-0.14449365
334,3.8684165,-8.682779,2.4114482,0.10487469,0.25327897,-0.14449365
335,3.8684165,-8.682779,2.4114482,0.10487469,0.25327897,-0.14449365
336,3.8684165,-8.682779,2.4114482,0.10487469,0.25327897,-0.14449365
337,3.8676503,-8.70084,2.3467112,0.0154716885,-0.2757253,0.013401724
338,3.8676503,-8.70084,2.3467112,0.0154716885,-0.2757253,0.013401724
339,3.8676503,-8.70084,2.3467112,0.0154716885,-0.2757253,0.013401724
340,3.8676503,-8.70084,2.3467112,0.0154716885,-0.2757253,0.013401724
341,3.8676503,-8.70084,2.3467112,0.0154716885,-0.2757253,0.013401724
342,3.8676503,-8.70084,2.3467112,0.0154716885,-0.2757253,0.013401724
343,3.8547866,-8.721862,2.2891347,-0.1107968,0.032084286,0.048046034
344,3.8547866,-8.721862,2.2891347,-0.1107968,0.032084286,0.048046034
345,3.8547866,-8.721862,2.2891347,-0.1107968,0.032084286,0.048046034
346,3.8547866,-8.721862,2.2891347,-0.1107968,0.032084286,0.048046034
347,3.8547866,-8.721862,2.2891347,-0.1107968,0.032084286,0.048046034
348,3.8547866,-8.721862,2.2891347,-0.1107968,0.032084286,0.048046034
349,3.8400116,-8.729882,2.2833855,-0.19528235,0.5603824,0.33593544
350,3.8400116,-8.729882,2.2833855,-0.19528235,0.5603824,0.33593544
351,3.8400116,-8.729882,2.2833855,-0.19528235,0.5603824,0.33593544
352,3.8400116,-8.729882,2.2833855,-0.19528235,0.5603824,0.33593544
353,3.8400116,-8.729882,2.2833855,-0.19528235,0.5603824,0.33593544
354,3.8225596,-8.724584,2.3323934,0.011363403,0.14504929,-0.27018777
355,3.8225596,-8.724584,2.3323934,0.011363403,0.14504929,-0.27018777
356,3.8225596,-8.724584,2.3323934,0.011363403,0.14504929,-0.27018777
357,3.8225596,-8.724584,2.3323934,0.011363403,0.14504929,-0.27018777
358,3.8225596,-8.724584,2.3323934,0.011363403,0.14504929,-0.27018777
359,3.7901783,-8.722957,2.3905983,0.25065526,-0.4571177,-0.13588053
360,3.7901783,-8.722957,2.3905983,0.25065526,-0.4571177,-0.13588053
361,3.7901783,-8.722957,2.3905983,0.25065526,-0.4571177,-0.13588053
362,3.7901783,-8.722957,2.3905983,0.25065526,-0.4571177,-0.13588053
363,3.7901783,-8.722957,2.3905983,0.25065526,-0.4571177,-0.13588053
364,3.7901783,-8.722957,2.3905983,0.25065526,-0.4571177,-0.13588053
365,3.7562468,-8.712118,2.4819338,0.17202683,0.1887859,-0.2896002
366,3.7562468,-8.712118,2.4819338,0.17202683,0.1887859,-0.2896002
367,3.7562468,-8.712118,2.4819338,0.17202683,0.1887859,-0.2896002
368,3.7562468,-8.712118,2.4819338,0.17202683,0.1887859,-0.2896002
369,3.7562468,-8.712118,2.4819338,0.17202683,0.1887859,-0.2896002
370,3.7562468,-8.712118,2.4819338,0.17202683,0.1887859,-0.2896002
371,3.684746,-8.724084,2.5462515,0.09689041,-0.3366684,-0.039474897
372,3.684746,-8.724084,2.5462515,0.09689041,-0.3366684,-0.039474897
373,3.684746,-8.724084,2.5462515,0.09689041,-0.3366684,-0.039474897
374,3.684746,-8.724084,2.5462515,0.09689041,-0.3366684,-0.039474897
375,3.684746,-8.724084,2.5462515,0.09689041,-0.3366684,-0.039474897
376,3.684746,-8.724084,2.5462515,0.09689041,-0.3366684,-0.039474897
377,3.6026034,-8.735789,2.6225226,-0.2863546,0.13707343,0.11473417
378,3.6026034,-8.735789,2.6225226,-0.2863546,0.13707343,0.11473417
379,3.6026034,-8.735789,2.6225226,-0.2863546,0.13707343,0.11473417
380,3.6026034,-8.735789,2.6225226,-0.2863546,0.13707343,0.11473417
381,3.6026034,-8.735789,2.6225226,-0.2863546,0.13707343,0.11473417
382,3.6026034,-8.735789,2.6225226,-0.2863546,0.13707343,0.11473417
383,3.5391464,-8.754215,2.6473658,-0.066826366,0.17619672,-0.2907968
384,3.5391464,-8.754215,2.6473658,-0.066826366,0.17619672,-0.2907968
385,3.5391464,-8.754215,2.6473658,-0.066826366,0.17619672,-0.2907968
386,3.5391464,-8.754215,2.6473658,-0.066826366,0.17619672,-0.2907968
387,3.5391464,-8.754215,2.6473658,-0.066826366,0.17619672,-0.2907968
388,3.5391464,-8.754215,2.6473658,-0.066826366,0.17619672,-0.2907968
389,3.4557645,-8.784666,2.6566386,0.30442676,-0.066571325,-0.18100213
390,3.4557645,-8.784666,2.6566386,0.30442676,-0.066571325,-0.18100213
391,3.4557645,-8.784666,2.6566386,0.30442676,-0.066571325,-0.18100213
392,3.4557645,-8.784666,2.6566386,0.30442676,-0.066571325,-0.18100213
393,3.4557645,-8.784666,2.6566386,0.30442676,-0.066571325,-0.18100213
394,3.4557645,-8.784666,2.6566386,0.30442676,-0.066571325,-0.18100213
395,3.4058247,-8.783453,2.7242787,-0.060404085,-0.38079318,-1.1864558
396,3.4058247,-8.783453,2.7242787,-0.060404085,-0.38079318,-1.1864558
397,3.4058247,-8.783453,2.7242787,-0.060404085,-0.38079318,-1.1864558
398,3.4058247,-8.783453,2.7242787,-0.060404085,-0.38079318,-1.1864558
399,3.4058247,-8.783453,2.7242787,-0.060404085,-0.38079318,-1.1864558
400,3.4058247,-8.783453,2.7242787,-0.060404085,-0.38079318,-1.1864558
401,3.3733473,-8.78945,2.7452679,-0.049071305,-0.08511922,-0.18709908
402,3.3733473,-8.78945,2.7452679,-0.049071305,-0.08511922,-0.18709908
403,3.3733473,-8.78945,2.7452679,-0.049071305,-0.08511922,-0.18709908
404,3.3733473,-8.78945,2.7452679,-0.049071305,-0.08511922,-0.18709908
405,3.3733473,-8.78945,2.7452679,-0.049071305,-0.08511922,-0.18709908
406,3.3733473,-8.78945,2.7452679,-0.049071305,-0.08511922,-0.18709908
407,3.3670611,-8.771231,2.8104777,0.056208696,-0.14866932,0.23981449
408,3.3670611,-8.771231,2.8104777,0.056208696,-0.14866932,0.23981449
409,3.3670611,-8.771231,2.8104777,0.056208696,-0.14866932,0.23981449
410,3.3670611,-8.771231,2.8104777,0.056208696,-0.14866932,0.23981449
411,3.3670611,-8.771231,2.8104777,0.056208696,-0.14866932,0.23981449
412,3.3670611,-8.771231,2.8104777,0.056208696,-0.14866932,0.23981449
413,3.379768,-8.758512,2.8347898,-0.49064827,0.35001558,-0.023729429
414,3.379768,-8.758512,2.8347898,-0.49064827,0.35001558,-0.023729429
415,3.379768,-8.758512,2.8347898,-0.49064827,0.35001558,-0.023729429
416,3.379768,-8.758512,2.8347898,-0.49064827,0.35001558,-0.023729429
417,3.379768,-8.758512,2.8347898,-0.49064827,0.35001558,-0.023729429
418,3.379768,-8.758512,2.8347898,-0.49064827,0.35001558,-0.023729429
419,3.398795,-8.739329,2.8710115,-0.16557708,-0.10246336,0.32652393
420,3.398795,-8.739329,2.8710115,-0.16557708,-0.10246336,0.32652393
421,3.398795,-8.739329,2.8710115,-0.16557708,-0.10246336,0.32652393
422,3.398795,-8.739329,2.8710115,-0.16557708,-0.10246336,0.32652393
423,3.398795,-8.739329,2.8710115,-0.16557708,-0.10246336,0.32652393
424,3.398795,-8.739329,2.8710115,-0.16557708,-0.10246336,0.32652393
425,3.410086,-8.721624,2.9111784,0.103060424,-0.14995809,0.11438385
426,3.410086,-8.721624,2.9111784,0.103060424,-0.14995809,0.11438385
427,3.410086,-8.721624,2.9111784,0.103060424,-0.14995809,0.11438385
428,3.410086,-8.721624,2.9111784,0.103060424,-0.14995809,0.11438385
429,3.410086,-8.721624,2.9111784,0.103060424,-0.14995809,0.11438385
430,3.410086,-8.721624,2.9111784,0.103060424,-0.14995809,0.11438385
431,3.4438338,-8.718574,2.8804278,-0.09020942,0.1549361,-0.4466652
432,3.4438338,-8.718574,2.8804278,-0.09020942,0.1549361,-0.4466652
433,3.4438338,-8.718574,2.8804278,-0.09020942,0.1549361,-0.4466652
434,3.4438338,-8.718574,2.8804278,-0.09020942,0.1549361,-0.4466652
435,3.4438338,-8.718574,2.8804278,-0.09020942,0.1549361,-0.4466652
436,3.4438338,-8.718574,2.8804278,-0.09020942,0.1549361,-0.4466652
437,3.4931903,-8.689401,2.9090111,0.6621246,-0.2633326,0.26938322
438,3.4931903,-8.689401,2.9090111,0.6621246,-0.2633326,0.26938322
439,3.4931903,-8.689401,2.9090111,0.6621246,-0.2633326,0.26938322
440,3.4931903,-8.689401,2.9090111,0.6621246,-0.2633326,0.26938322
441,3.4931903,-8.689401,2.9090111,0.6621246,-0.2633326,0.26938322
442,3.4931903,-8.689401,2.9090111,0.6621246,-0.2633326,0.26938322
443,3.5336342,-8.667498,2.9254558,0.073676735,0.012244069,0.19393751
444,3.5336342,-8.667498,2.9254558,0.073676735,0.012244069,0.19393751
445,3.5336342,-8.667498,2.9254558,0.073676735,0.012244069,0.19393751
446,3.5336342,-8.667498,2.9254558,0.073676735,0.012244069,0.19393751
447,3.5336342,-8.667498,2.9254558,0.073676735,0.012244069,0.19393751
448,3.5336342,-8.667498,2.9254558,0.073676735,0.012244069,0.19393751
449,3.551496,-8.649657,2.956465,-0.39797324,-0.07038111,0.14731085
450,3.551496,-8.649657,2.956465,-0.39797324,-0.07038111,0.14731085
451,3.551496,-8.649657,2.956465,-0.39797324,-0.07038111,0.14731085
452,3.551496,-8.649657,2.956465,-0.39797324,-0.07038111,0.14731085
453,3.551496,-8.649657,2.956465,-0.39797324,-0.07038111,0.14731085
454,3.551496,-8.649657,2.956465,-0.39797324,-0.07038111,0.14731085
455,3.5554523,-8.639959,2.9799743,0.10469954,-0.33590284,0.32103536
456,3.5554523,-8.639959,2.9799743,0.10469954,-0.33590284,0.32103536
457,3.5554523,-8.639959,2.9799743,0.10469954,-0.33590284,0.32103536
458,3.5554523,-8.639959,2.9799743,0.10469954,-0.33590284,0.32103536
459,3.5554523,-8.639959,2.9799743,0.10469954,-0.33590284,0.32103536
460,3.5554523,-8.639959,2.9799743,0.10469954,-0.33590284,0.32103536
461,3.5977204,-8.615936,2.998739,0.10803197,-0.18555541,-0.20226263
462,3.5977204,-8.615936,2.998739,0.10803197,-0.18555541,-0.20226263
463,3.5977204,-8.615936,2.998739,0.10803197,-0.18555541,-0.20226263
464,3.5977204,-8.615936,2.998739,0.10803197,-0.18555541,-0.20226263
465,3.5977204,-8.615936,2.998739,0.10803197,-0.18555541,-0.20226263
466,3.5977204,-8.615936,2.998739,0.10803197,-0.18555541,-0.20226263
467,3.6073632,-8.621665,2.9705582,0.09144283,0.7559208,0.9551121
468,3.6073632,-8.621665,2.9705582,0.09144283,0.7559208,0.9551121
469,3.6073632,-8.621665,2.9705582,0.09144283,0.7559208,0.9551121
470,3.6073632,-8.621665,2.9705582,0.09144283,0.7559208,0.9551121
471,3.6073632,-8.621665,2.9705582,0.09144283,0.7559208,0.9551121
472,3.6073632,-8.621665,2.9705582,0.09144283,0.7559208,0.9551121
473,3.5860488,-8.65079,2.9110923,-0.030317875,-0.025590066,0.31987113
474,3.5860488,-8.65079,2.9110923,-0.030317875,-0.025590066,0.31987113
475,3.5860488,-8.65079,2.9110923,-0.030317875,-0.025590066,0.31987113
476,3.5860488,-8.65079,2.9110923,-0.030317875,-0.025590066,0.31987113
477,3.5860488,-8.65079,2.9110923,-0.030317875,-0.025590066,0.31987113
478,3.5860488,-8.65079,2.9110923,-0.030317875,-0.025590066,0.31987113
479,3.5902653,-8.670164,2.8475678,-0.061615475,0.08518936,0.021503387
480,3.5902653,-8.670164,2.8475678,-0.061615475,0.08518936,0.021503387
481,3.5902653,-8.670164,2.8475678,-0.061615475,0.08518936,0.021503387
482,3.5902653,-8.670164,2.8475678,-0.061615475,0.08518936,0.021503387
483,3.5902653,-8.670164,2.8475678,-0.061615475,0.08518936,0.021503387
484,3.5902653,-8.670164,2.8475678,-0.061615475,0.08518936,0.021503387
485,3.6095107,-8.67983,2.7932737,-0.36130822,0.6811677,0.14922398
486,3.6095107,-8.67983,2.7932737,-0.36130822,0.6811677,0.14922398
487,3.6095107,-8.67983,2.7932737,-0.36130822,0.6811677,0.14922398
488,3.6095107,-8.67983,2.7932737,-0.36130822,0.6811677,0.14922398
489,3.6095107,-8.67983,2.7932737,-0.36130822,0.6811677,0.14922398
490,3.6095107,-8.67983,2.7932737,-0.36130822,0.6811677,0.14922398
491,3.618695,-8.6914625,2.7447958,0.10724138,-0.12394212,0.34977835
492,3.618695,-8.6914625,2.7447958,0.10724138,-0.12394212,0.34977835
493,3.618695,-8.6914625,2.7447958,0.10724138,-0.12394212,0.34977835
494,3.618695,-8.6914625,2.7447958,0.10724138,-0.12394212,0.34977835
495,3.618695,-8.6914625,2.7447958,0.10724138,-0.12394212,0.34977835
496,3.618695,-8.6914625,2.7447958,0.10724138,-0.12394212,0.34977835
497,3.624087,-8.722012,2.638729,-0.5828905,0.36496288,-0.92573744
498,3.624087,-8.722012,2.638729,-0.5828905,0.36496288,-0.92573744
499,3.624087,-8.722012,2.638729,-0.5828905,0.36496288,-0.92573744
500,3.624087,-8.722012,2.638729,-0.5828905,0.36496288,-0.92573744
501,3.624087,-8.722012,2.638729,-0.5828905,0.36496288,-0.92573744
502,3.624087,-8.722012,2.638729,-0.5828905,0.36496288,-0.92573744
503,3.6409712,-8.739403,2.5566692,0.35210484,-0.13810317,0.62932724
504,3.6409712,-8.739403,2.5566692,0.35210484,-0.13810317,0.62932724
505,3.6409712,-8.739403,2.5566692,0.35210484,-0.13810317,0.62932724
506,3.6409712,-8.739403,2.5566692,0.35210484,-0.13810317,0.62932724
507,3.6409712,-8.739403,2.5566692,0.35210484,-0.13810317,0.62932724
508,3.6409712,-8.739403,2.5566692,0.35210484,-0.13810317,0.62932724
509,3.685731,-8.748852,2.458324,0.033535965,0.059596088,0.26297885
510,3.685731,-8.748852,2.458324,0.033535965,0.059596088,0.26297885
511,3.685731,-8.748852,2.458324,0.033535965,0.059596088,0.26297885
512,3.685731,-8.748852,2.458324,0.033535965,0.059596088,0.26297885
513,3.685731,-8.748852,2.458324,0.033535965,0.059596088,0.26297885
514,3.685731,-8.748852,2.458324,0.033535965,0.059596088,0.26297885
515,3.7242732,-8.760787,2.3555887,-0.036728512,-0.006539717,0.054332018
516,3.7242732,-8.760787,2.3555887,-0.036728512,-0.006539717,0.054332018
517,3.7242732,-8.760787,2.3555887,-0.036728512,-0.006539717,0.054332018
518,3.7242732,-8.760787,2.3555887,-0.036728512,-0.006539717,0.054332018
519,3.7242732,-8.760787,2.3555887,-0.036728512,-0.006539717,0.054332018
520,3.7242732,-8.760787,2.3555887,-0.036728512,-0.006539717,0.054332018
521,3.7433224,-8.777074,2.2629414,0.053073846,-0.16586082,0.17521434
522,3.7433224,-8.777074,2.2629414,0.053073846,-0.16586082,0.17521434
523,3.7433224,-8.777074,2.2629414,0.053073846,-0.16586082,0.17521434
524,3.7433224,-8.777074,2.2629414,0.053073846,-0.16586082,0.17521434
525,3.7433224,-8.777074,2.2629414,0.053073846,-0.16586082,0.17521434
526,3.7433224,-8.777074,2.2629414,0.053073846,-0.16586082,0.17521434
527,3.7852354,-8.798423,2.1047912,0.08370448,0.2883497,-0.28899577
528,3.7852354,-8.798423,2.1047912,0.08370448,0.2883497,-0.28899577
529,3.7852354,-8.798423,2.1047912,0.08370448,0.2883497,-0.28899577
530,3.7852354,-8.798423,2.1047912,0.08370448,0.2883497,-0.28899577
531,3.7852354,-8.798423,2.1047912,0.08370448,0.2883497,-0.28899577
532,3.7852354,-8.798423,2.1047912,0.08370448,0.2883497,-0.28899577
533,3.8294992,-8.808598,1.9783697,0.07991866,0.101340964,0.22430426
534,3.8294992,-8.808598,1.9783697,0.07991866,0.101340964,0.22430426
535,3.8294992,-8.808598,1.9783697,0.07991866,0.101340964,0.22430426
536,3.8294992,-8.808598,1.9783697,0.07991866,0.101340964,0.22430426
537,3.8294992,-8.808598,1.9783697,0.07991866,0.101340964,0.22430426
538,3.8294992,-8.808598,1.9783697,0.07991866,0.101340964,0.22430426
539,3.8778536,-8.812975,1.8612132,-0.15628065,0.10089475,0.11034585
540,3.8778536,-8.812975,1.8612132,-0.15628065,0.10089475,0.11034585
541,3.8778536,-8.812975,1.8612132,-0.15628065,0.10089475,0.11034585
542,3.8778536,-8.812975,1.8612132,-0.15628065,0.10089475,0.11034585
543,3.8778536,-8.812975,1.8612132,-0.15628065,0.10089475,0.11034585
544,3.8778536,-8.812975,1.8612132,-0.15628065,0.10089475,0.11034585
545,3.9142222,-8.819846,1.749163,-0.14915656,0.1270406,0.57337075
546,3.9142222,-8.819846,1.749163,-0.14915656,0.1270406,0.57337075
547,3.9142222,-8.819846,1.749163,-0.14915656,0.1270406,0.57337075
548,3.9142222,-8.819846,1.749163,-0.14915656,0.1270406,0.57337075
549,3.9142222,-8.819846,1.749163,-0.14915656,0.1270406,0.57337075
550,3.9142222,-8.819846,1.749163,-0.14915656,0.1270406,0.57337075
551,3.9428265,-8.822439,1.6700549,0.28964522,-0.1734139,0.20361416
552,3.9428265,-8.822439,1.6700549,0.28964522,-0.1734139,0.20361416
553,3.9428265,-8.822439,1.6700549,0.28964522,-0.1734139,0.20361416
554,3.9428265,-8.822439,1.6700549,0.28964522,-0.1734139,0.20361416
555,3.9428265,-8.822439,1.6700549,0.28964522,-0.1734139,0.20361416
556,3.9428265,-8.822439,1.6700549,0.28964522,-0.1734139,0.20361416
557,3.9850655,-8.819326,1.584024,0.10309829,-0.36443734,-0.76674044
558,3.9850655,-8.819326,1.584024,0.10309829,-0.36443734,-0.76674044
559,3.9850655,-8.819326,1.584024,0.10309829,-0.36443734,-0.76674044
560,3.9850655,-8.819326,1.584024,0.10309829,-0.36443734,-0.76674044
561,3.9850655,-8.819326,1.584024,0.10309829,-0.36443734,-0.76674044
562,3.9850655,-8.819326,1.584024,0.10309829,-0.36443734,-0.76674044
563,4.00737,-8.807995,1.5907881,0.0038442018,0.09896184,-0.07195259
564,4.00737,-8.807995,1.5907881,0.0038442018,0.09896184,-0.07195259
565,4.00737,-8.807995,1.5907881,0.0038442018,0.09896184,-0.07195259
566,4.00737,-8.807995,1.5907881,0.0038442018,0.09896184,-0.07195259
567,4.00737,-8.807995,1.5907881,0.0038442018,0.09896184,-0.07195259
568,4.00737,-8.807995,1.5907881,0.0038442018,0.09896184,-0.07195259
569,4.0329413,-8.800692,1.5663977,-0.38404045,0.23100898,0.28237256
570,4.0329413,-8.800692,1.5663977,-0.38404045,0.23100898,0.28237256
571,4.0329413,-8.800692,1.5663977,-0.38404045,0.23100898,0.28237256
572,4.0329413,-8.800692,1.5663977,-0.38404045,0.23100898,0.28237256
573,4.0329413,-8.800692,1.5663977,-0.38404045,0.23100898,0.28237256
574,4.0329413,-8.800692,1.5663977,-0.38404045,0.23100898,0.28237256
575,4.0319257,-8.817609,1.4709643,0.051741958,0.26198822,-0.2857582
576,4.0319257,-8.817609,1.4709643,0.051741958,0.26198822,-0.2857582
577,4.0319257,-8.817609,1.4709643,0.051741958,0.26198822,-0.2857582
578,4.0319257,-8.817609,1.4709643,0.051741958,0.26198822,-0.2857582
579,4.0319257,-8.817609,1.4709643,0.051741958,0.26198822,-0.2857582
580,4.0319257,-8.817609,1.4709643,0.051741958,0.26198822,-0.2857582
581,4.0140934,-8.83151,1.4359276,0.5087515,-0.5487221,-0.039903395
582,4.0140934,-8.83151,1.4359276,0.5087515,-0.5487221,-0.039903395
583,4.0140934,-8.83151,1.4359276,0.5087515,-0.5487221,-0.039903395
584,4.0140934,-8.83151,1.4359276,0.5087515,-0.5487221,-0.039903395
585,4.0140934,-8.83151,1.4359276,0.5087515,-0.5487221,-0.039903395
586,4.0140934,-8.83151,1.4359276,0.5087515,-0.5487221,-0.039903395
587,3.9774852,-8.856088,1.3855373,-1.3908156,1.6882403,-1.8320258
588,3.9774852,-8.856088,1.3855373,-1.3908156,1.6882403,-1.8320258
589,3.9774852,-8.856088,1.3855373,-1.3908156,1.6882403,-1.8320258
590,3.9774852,-8.856088,1.3855373,-1.3908156,1.6882403,-1.8320258
591,3.9774852,-8.856088,1.3855373,-1.3908156,1.6882403,-1.8320258
592,3.9774852,-8.856088,1.3855373,-1.3908156,1.6882403,-1.8320258
593,3.9371765,-8.876011,1.3731185,-0.057491757,-0.24477027,0.2250855
594,3.9371765,-8.876011,1.3731185,-0.057491757,-0.24477027,0.2250855
595,3.9371765,-8.876011,1.3731185,-0.057491757,-0.24477027,0.2250855
596,3.9371765,-8.876011,1.3731185,-0.057491757,-0.24477027,0.2250855
597,3.9371765,-8.876011,1.3731185,-0.057491757,-0.24477027,0.2250855
598,3.9371765,-8.876011,1.3731185,-0.057491757,-0.24477027,0.2250855
599,3.8797314,-8.909817,1.3165265,-0.4064918,0.37949848,-0.055979673
600,3.8797314,-8.909817,1.3165265,-0.4064918,0.37949848,-0.055979673
601,3.8797314,-8.909817,1.3165265,-0.4064918,0.37949848,-0.055979673
602,3.8797314,-8.909817,1.3165265,-0.4064918,0.37949848,-0.055979673
603,3.8797314,-8.909817,1.3165265,-0.4064918,0.37949848,-0.055979673
604,3.8797314,-8.909817,1.3165265,-0.4064918,0.37949848,-0.055979673
605,3.800607,-8.944823,1.3099319,-0.25592035,0.05621526,0.1957031
606,3.800607,-8.944823,1.3099319,-0.25592035,0.05621526,0.1957031
607,3.800607,-8.944823,1.3099319,-0.25592035,0.05621526,0.1957031
608,3.800607,-8.944823,1.3099319,-0.25592035,0.05621526,0.1957031
609,3.800607,-8.944823,1.3099319,-0.25592035,0.05621526,0.1957031
610,3.800607,-8.944823,1.3099319,-0.25592035,0.05621526,0.1957031
611,3.7107463,-8.964469,1.4279524,0.36165807,-0.79266536,0.0012614554
612,3.7107463,-8.964469,1.4279524,0.36165807,-0.79266536,0.0012614554
613,3.7107463,-8.964469,1.4279524,0.36165807,-0.79266536,0.0012614554
614,3.7107463,-8.964469,1.4279524,0.36165807,-0.79266536,0.0012614554
615,3.7107463,-8.964469,1.4279524,0.36165807,-0.79266536,0.0012614554
616,3.7107463,-8.964469,1.4279524,0.36165807,-0.79266536,0.0012614554
617,3.613339,-8.994419,1.4881531,0.07692044,0.29619294,0.3236961
618,3.613339,-8.994419,1.4881531,0.07692044,0.29619294,0.3236961
619,3.613339,-8.994419,1.4881531,0.07692044,0.29619294,0.3236961
620,3.613339,-8.994419,1.4881531,0.07692044,0.29619294,0.3236961
621,3.613339,-8.994419,1.4881531,0.07692044,0.29619294,0.3236961
622,3.613339,-8.994419,1.4881531,0.07692044,0.29619294,0.3236961
623,3.5344245,-9.016748,1.5415822,-0.14101292,-0.33575052,0.08557353
624,3.5344245,-9.016748,1.5415822,-0.14101292,-0.33575052,0.08557353
625,3.5344245,-9.016748,1.5415822,-0.14101292,-0.33575052,0.08557353
626,3.5344245,-9.016748,1.5415822,-0.14101292,-0.33575052,0.08557353
627,3.5344245,-9.016748,1.5415822,-0.14101292,-0.33575052,0.08557353
628,3.5344245,-9.016748,1.5415822,-0.14101292,-0.33575052,0.08557353
629,3.4733922,-9.034592,1.5754681,-0.3205149,0.21302332,-0.050572906
630,3.4733922,-9.034592,1.5754681,-0.3205149,0.21302332,-0.050572906
631,3.4733922,-9.034592,1.5754681,-0.3205149,0.21302332,-0.050572906
632,3.4733922,-9.034592,1.5754681,-0.3205149,0.21302332,-0.050572906
633,3.4733922,-9.034592,1.5754681,-0.3205149,0.21302332,-0.050572906
634,3.4733922,-9.034592,1.5754681,-0.3205149,0.21302332,-0.050572906
635,3.4270935,-9.042642,1.629738,-0.29448324,0.19804743,0.08479755
636,3.4270935,-9.042642,1.629738,-0.29448324,0.19804743,0.08479755
637,3.4270935,-9.042642,1.629738,-0.29448324,0.19804743,0.08479755
638,3.4270935,-9.042642,1.629738,-0.29448324,0.19804743,0.08479755
639,3.4270935,-9.042642,1.629738,-0.29448324,0.19804743,0.08479755
640,3.4270935,-9.042642,1.629738,-0.29448324,0.19804743,0.08479755
641,3.3880372,-9.044169,1.7013508,0.21503158,-0.57576925,0.06476315
642,3.3880372,-9.044169,1.7013508,0.21503158,-0.57576925,0.06476315
643,3.3880372,-9.044169,1.7013508,0.21503158,-0.57576925,0.06476315
644,3.3880372,-9.044169,1.7013508,0.21503158,-0.57576925,0.06476315
645,3.3880372,-9.044169,1.7013508,0.21503158,-0.57576925,0.06476315
646,3.3880372,-9.044169,1.7013508,0.21503158,-0.57576925,0.06476315
647,3.361844,-9.040081,1.7735034,0.32658023,-0.48798,-2.5529597
648,3.361844,-9.040081,1.7735034,0.32658023,-0.48798,-2.5529597
649,3.361844,-9.040081,1.7735034,0.32658023,-0.48798,-2.5529597
650,3.361844,-9.040081,1.7735034,0.32658023,-0.48798,-2.5529597
651,3.361844,-9.040081,1.7735034,0.32658023,-0.48798,-2.5529597
652,3.361844,-9.040081,1.7735034,0.32658023,-0.48798,-2.5529597
653,3.3463461,-9.025506,1.8741971,-0.14993463,-0.16238648,0.12533659
654,3.3463461,-9.025506,1.8741971,-0.14993463,-0.16238648,0.12533659
655,3.3463461,-9.025506,1.8741971,-0.14993463,-0.16238648,0.12533659
656,3.3463461,-9.025506,1.8741971,-0.14993463,-0.16238648,0.12533659
657,3.3463461,-9.025506,1.8741971,-0.14993463,-0.16238648,0.12533659
658,3.3463461,-9.025506,1.8741971,-0.14993463,-0.16238648,0.12533659
659,3.320278,-9.017516,1.9571791,-0.17309274,0.16692877,-0.0463186
660,3.320278,-9.017516,1.9571791,-0.17309274,0.16692877,-0.0463186
661,3.320278,-9.017516,1.9571791,-0.17309274,0.16692877,-0.0463186
662,3.320278,-9.017516,1.9571791,-0.17309274,0.16692877,-0.0463186
663,3.320278,-9.017516,1.9571791,-0.17309274,0.16692877,-0.0463186
664,3.320278,-9.017516,1.9571791,-0.17309274,0.16692877,-0.0463186
665,3.281904,-9.014274,2.0352838,0.05875467,0.17360479,-0.42738384
666,3.281904,-9.014274,2.0352838,0.05875467,0.17360479,-0.42738384
667,3.281904,-9.014274,2.0352838,0.05875467,0.17360479,-0.42738384
668,3.281904,-9.014274,2.0352838,0.05875467,0.17360479,-0.42738384
669,3.281904,-9.014274,2.0352838,0.05875467,0.17360479,-0.42738384
670,3.281904,-9.014274,2.0352838,0.05875467,0.17360479,-0.42738384
671,3.2649164,-8.999933,2.1241286,0.2532449,-0.04214414,-0.07811173
672,3.2649164,-8.999933,2.1241286,0.2532449,-0.04214414,-0.07811173
673,3.2649164,-8.999933,2.1241286,0.2532449,-0.04214414,-0.07811173
674,3.2649164,-8.999933,2.1241286,0.2532449,-0.04214414,-0.07811173
675,3.2649164,-8.999933,2.1241286,0.2532449,-0.04214414,-0.07811173
676,3.2649164,-8.999933,2.1241286,0.2532449,-0.04214414,-0.07811173
677,3.2442482,-8.982351,2.2276917,0.1466816,-0.54457384,-0.8168101
678,3.2442482,-8.982351,2.2276917,0.1466816,-0.54457384,-0.8168101
679,3.2442482,-8.982351,2.2276917,0.1466816,-0.54457384,-0.8168101
680,3.2442482,-8.982351,2.2276917,0.1466816,-0.54457384,-0.8168101
681,3.2442482,-8.982351,2.2276917,0.1466816,-0.54457384,-0.8168101
682,3.2442482,-8.982351,2.2276917,0.1466816,-0.54457384,-0.8168101
683,3.237315,-8.966468,2.3005705,0.08788928,0.14772677,-0.18459493
684,3.237315,-8.966468,2.3005705,0.08788928,0.14772677,-0.18459493
685,3.237315,-8.966468,2.3005705,0.08788928,0.14772677,-0.18459493
686,3.237315,-8.966468,2.3005705,0.08788928,0.14772677,-0.18459493
687,3.237315,-8.966468,2.3005705,0.08788928,0.14772677,-0.18459493
688,3.237315,-8.966468,2.3005705,0.08788928,0.14772677,-0.18459493
689,3.2012002,-8.963775,2.3608155,-0.086632095,-0.08385286,-0.048127256
690,3.2012002,-8.963775,2.3608155,-0.086632095,-0.08385286,-0.048127256
691,3.2012002,-8.963775,2.3608155,-0.086632095,-0.08385286,-0.048127256
692,3.2012002,-8.963775,2.3608155,-0.086632095,-0.08385286,-0.048127256
693,3.2012002,-8.963775,2.3608155,-0.086632095,-0.08385286,-0.048127256
694,3.2012002,-8.963775,2.3608155,-0.086632095,-0.08385286,-0.048127256
695,3.150009,-8.954498,2.4626825,-0.3871594,0.2948931,0.11503646
696,3.150009,-8.954498,2.4626825,-0.3871594,0.2948931,0.11503646
697,3.150009,-8.954498,2.4626825,-0.3871594,0.2948931,0.11503646
698,3.150009,-8.954498,2.4626825,-0.3871594,0.2948931,0.11503646
699,3.150009,-8.954498,2.4626825,-0.3871594,0.2948931,0.11503646
700,3.150009,-8.954498,2.4626825,-0.3871594,0.2948931,0.11503646
701,3.1139715,-8.94121,2.555063,-0.22096927,-0.059099417,0.48809847
702,3.1139715,-8.94121,2.555063,-0.22096927,-0.059099417,0.48809847
703,3.1139715,-8.94121,2.555063,-0.22096927,-0.059099417,0.48809847
704,3.1139715,-8.94121,2.555063,-0.22096927,-0.059099417,0.48809847
705,3.1139715,-8.94121,2.555063,-0.22096927,-0.059099417,0.48809847
706,3.1139715,-8.94121,2.555063,-0.22096927,-0.059099417,0.48809847
707,3.0569901,-8.92839,2.666282,-0.03738945,-0.4194852,-0.024798812
708,3.0569901,-8.92839,2.666282,-0.03738945,-0.4194852,-0.024798812
709,3.0569901,-8.92839,2.666282,-0.03738945,-0.4194852,-0.024798812
710,3.0569901,-8.92839,2.666282,-0.03738945,-0.4194852,-0.024798812
711,3.0569901,-8.92839,2.666282,-0.03738945,-0.4194852,-0.024798812
712,3.0569901,-8.92839,2.666282,-0.03738945,-0.4194852,-0.024798812
713,3.0414932,-8.905859,2.7577884,0.32614022,-0.23951495,0.034804832
714,3.0414932,-8.905859,2.7577884,0.32614022,-0.23951495,0.034804832
715,3.0414932,-8.905859,2.7577884,0.32614022,-0.23951495,0.034804832
716,3.0414932,-8.905859,2.7577884,0.32614022,-0.23951495,0.034804832
717,3.0414932,-8.905859,2.7577884,0.32614022,-0.23951495,0.034804832
718,3.0414932,-8.905859,2.7577884,0.32614022,-0.23951495,0.034804832
719,3.0063057,-8.8977165,2.8219075,0.058483563,0.4061139,0.55971813
720,3.0063057,-8.8977165,2.8219075,0.058483563,0.4061139,0.55971813
721,3.0063057,-8.8977165,2.8219075,0.058483563,0.4061139,0.55971813
722,3.0063057,-8.8977165,2.8219075,0.058483563,0.4061139,0.55971813
723,3.0063057,-8.8977165,2.8219075,0.058483563,0.4061139,0.55971813
724,3.0063057,-8.8977165,2.8219075,0.058483563,0.4061139,0.55971813
725,2.9988039,-8.882139,2.8783967,-0.028677355,-0.04526813,0.107137285
726,2.9988039,-8.882139,2.8783967,-0.028677355,-0.04526813,0.107137285
727,2.9988039,-8.882139,2.8783967,-0.028677355,-0.04526813,0.107137285
728,2.9988039,-8.882139,2.8783967,-0.028677355,-0.04526813,0.107137285
729,2.9988039,-8.882139,2.8783967,-0.028677355,-0.04526813,0.107137285
730,2.9988039,-8.882139,2.8783967,-0.028677355,-0.04526813,0.107137285
731,3.0218456,-8.8757925,2.8738747,-0.2118119,0.09302699,0.05200755
732,3.0218456,-8.8757925,2.8738747,-0.2118119,0.09302699,0.05200755
733,3.0218456,-8.8757925,2.8738747,-0.2118119,0.09302699,0.05200755
734,3.0218456,-8.8757925,2.8738747,-0.2118119,0.09302699,0.05200755
735,3.0218456,-8.8757925,2.8738747,-0.2118119,0.09302699,0.05200755
736,3.0218456,-8.8757925,2.8738747,-0.2118119,0.09302699,0.05200755
737,3.0420892,-8.870161,2.8699007,-0.3176216,0.64028895,0.18973875
738,3.0420892,-8.870161,2.8699007,-0.3176216,0.64028895,0.18973875
739,3.0420892,-8.870161,2.8699007,-0.3176216,0.64028895,0.18973875
740,3.0420892,-8.870161,2.8699007,-0.3176216,0.64028895,0.18973875
741,3.0420892,-8.870161,2.8699007,-0.3176216,0.64028895,0.18973875
742,3.0420892,-8.870161,2.8699007,-0.3176216,0.64028895,0.18973875
743,3.062038,-8.877146,2.8267622,0.29650706,-0.15800162,0.15312581
744,3.062038,-8.877146,2.8267622,0.29650706,-0.15800162,0.15312581
745,3.062038,-8.877146,2.8267622,0.29650706,-0.15800162,0.15312581
746,3.062038,-8.877146,2.8267622,0.29650706,-0.15800162,0.15312581
747,3.062038,-8.877146,2.8267622,0.29650706,-0.15800162,0.15312581
748,3.062038,-8.877146,2.8267622,0.29650706,-0.15800162,0.15312581
749,3.0312684,-8.901415,2.7832704,-0.6340464,0.31738824,-1.1326073
750,3.0312684,-8.901415,2.7832704,-0.6340464,0.31738824,-1.1326073
751,3.0312684,-8.901415,2.7832704,-0.6340464,0.31738824,-1.1326073
752,3.0312684,-8.901415,2.7832704,-0.6340464,0.31738824,-1.1326073
753,3.0312684,-8.901415,2.7832704,-0.6340464,0.31738824,-1.1326073
754,3.0312684,-8.901415,2.7832704,-0.6340464,0.31738824,-1.1326073
755,3.0360186,-8.90719,2.7595181,-0.1664369,0.44224483,0.36982745
756,3.0360186,-8.90719,2.7595181,-0.1664369,0.44224483,0.36982745
757,3.0360186,-8.90719,2.7595181,-0.1664369,0.44224483,0.36982745
758,3.0360186,-8.90719,2.7595181,-0.1664369,0.44224483,0.36982745
759,3.0360186,-8.90719,2.7595181,-0.1664369,0.44224483,0.36982745
760,3.0360186,-8.90719,2.7595181,-0.1664369,0.44224483,0.36982745
761,3.059288,-8.919748,2.6924398,0.08048029,-0.023231836,0.20484073
762,3.059288,-8.919748,2.6924398,0.08048029,-0.023231836,0.20484073
763,3.059288,-8.919748,2.6924398,0.08048029,-0.023231836,0.20484073
764,3.059288,-8.919748,2.6924398,0.08048029,-0.023231836,0.20484073
765,3.059288,-8.919748,2.6924398,0.08048029,-0.023231836,0.20484073
766,3.0992813,-8.926108,2.6247756,-0.5416934,0.44568563,0.39660573
767,3.0992813,-8.926108,2.6247756,-0.5416934,0.44568563,0.39660573
768,3.0992813,-8.926108,2.6247756,-0.5416934,0.44568563,0.39660573
769,3.0992813,-8.926108,2.6247756,-0.5416934,0.44568563,0.39660573
770,3.0992813,-8.926108,2.6247756,-0.5416934,0.44568563,0.39660573
771,3.0992813,-8.926108,2.6247756,-0.5416934,0.44568563,0.39660573
772,3.0992813,-8.926108,2.6247756,-0.5416934,0.44568563,0.39660573
773,3.118161,-8.939357,2.5564346,-0.28399703,0.23493421,-0.13117856
774,3.118161,-8.939357,2.5564346,-0.28399703,0.23493421,-0.13117856
775,3.118161,-8.939357,2.5564346,-0.28399703,0.23493421,-0.13117856
776,3.118161,-8.939357,2.5564346,-0.28399703,0.23493421,-0.13117856
777,3.118161,-8.939357,2.5564346,-0.28399703,0.23493421,-0.13117856
778,3.118161,-8.939357,2.5564346,-0.28399703,0.23493421,-0.13117856
779,3.1680245,-8.908458,2.6025736,0.31121594,-0.5155643,-0.054234393
780,3.1680245,-8.908458,2.6025736,0.31121594,-0.5155643,-0.054234393
781,3.1680245,-8.908458,2.6025736,0.31121594,-0.5155643,-0.054234393
782,3.1680245,-8.908458,2.6025736,0.31121594,-0.5155643,-0.054234393
783,3.1680245,-8.908458,2.6025736,0.31121594,-0.5155643,-0.054234393
784,3.1680245,-8.908458,2.6025736,0.31121594,-0.5155643,-0.054234393
785,3.2617354,-8.868029,2.6247942,0.03912665,0.41548565,-0.9964702
786,3.2617354,-8.868029,2.6247942,0.03912665,0.41548565,-0.9964702
787,3.2617354,-8.868029,2.6247942,0.03912665,0.41548565,-0.9964702
788,3.2617354,-8.868029,2.6247942,0.03912665,0.41548565,-0.9964702
789,3.2617354,-8.868029,2.6247942,0.03912665,0.41548565,-0.9964702
790,3.2617354,-8.868029,2.6247942,0.03912665,0.41548565,-0.9964702
791,3.3419647,-8.84759,2.5926454,-0.02688839,-0.16279866,0.12486767
792,3.3419647,-8.84759,2.5926454,-0.02688839,-0.16279866,0.12486767
793,3.3419647,-8.84759,2.5926454,-0.02688839,-0.16279866,0.12486767
794,3.3419647,-8.84759,2.5926454,-0.02688839,-0.16279866,0.12486767
795,3.3419647,-8.84759,2.5926454,-0.02688839,-0.16279866,0.12486767
796,3.3419647,-8.84759,2.5926454,-0.02688839,-0.16279866,0.12486767
797,3.389437,-8.818298,2.6305392,-0.2729399,0.28729987,-0.055288587
798,3.389437,-8.818298,2.6305392,-0.2729399,0.28729987,-0.055288587
799,3.389437,-8.818298,2.6305392,-0.2729399,0.28729987,-0.055288587
800,3.389437,-8.818298,2.6305392,-0.2729399,0.28729987,-0.055288587
801,3.389437,-8.818298,2.6305392,-0.2729399,0.28729987,-0.055288587
802,3.4068122,-8.786142,2.714353,-0.23992942,0.05384235,0.5775531
803,3.4068122,-8.786142,2.714353,-0.23992942,0.05384235,0.5775531
804,3.4068122,-8.786142,2.714353,-0.23992942,0.05384235,0.5775531
805,3.4068122,-8.786142,2.714353,-0.23992942,0.05384235,0.5775531
806,3.4068122,-8.786142,2.714353,-0.23992942,0.05384235,0.5775531
807,3.4068122,-8.786142,2.714353,-0.23992942,0.05384235,0.5775531
808,3.4215236,-8.754005,2.7983851,0.24138643,-0.41244754,0.0936119
809,3.4215236,-8.754005,2.7983851,0.24138643,-0.41244754,0.0936119
810,3.4215236,-8.754005,2.7983851,0.24138643,-0.41244754,0.0936119
811,3.4215236,-8.754005,2.7983851,0.24138643,-0.41244754,0.0936119
812,3.4215236,-8.754005,2.7983851,0.24138643,-0.41244754,0.0936119
813,3.4215236,-8.754005,2.7983851,0.24138643,-0.41244754,0.0936119
814,3.440268,-8.756245,2.7682314,-1.1502687,1.8180059,1.2029502
815,3.440268,-8.756245,2.7682314,-1.1502687,1.8180059,1.2029502
816,3.440268,-8.756245,2.7682314,-1.1502687,1.8180059,1.2029502
817,3.440268,-8.756245,2.7682314,-1.1502687,1.8180059,1.2029502
818,3.440268,-8.756245,2.7682314,-1.1502687,1.8180059,1.2029502
819,3.440268,-8.756245,2.7682314,-1.1502687,1.8180059,1.2029502
820,3.4349694,-8.78003,2.6986032,-0.03888483,-0.2418199,0.22841036
821,3.4349694,-8.78003,2.6986032,-0.03888483,-0.2418199,0.22841036
822,3.4349694,-8.78003,2.6986032,-0.03888483,-0.2418199,0.22841036
823,3.4349694,-8.78003,2.6986032,-0.03888483,-0.2418199,0.22841036
824,3.4349694,-8.78003,2.6986032,-0.03888483,-0.2418199,0.22841036
825,3.4349694,-8.78003,2.6986032,-0.03888483,-0.2418199,0.22841036
826,3.4338615,-8.794924,2.6510959,-0.12490583,0.1539868,0.15523164
827,3.4338615,-8.794924,2.6510959,-0.12490583,0.1539868,0.15523164
828,3.4338615,-8.794924,2.6510959,-0.12490583,0.1539868,0.15523164
829,3.4338615,-8.794924,2.6510959,-0.12490583,0.1539868,0.15523164
830,3.4338615,-8.794924,2.6510959,-0.12490583,0.1539868,0.15523164
831,3.4338615,-8.794924,2.6510959,-0.12490583,0.1539868,0.15523164
832,3.4449427,-8.8167715,2.5626724,0.16909222,0.17714164,-0.17691356
833,3.4449427,-8.8167715,2.5626724,0.16909222,0.17714164,-0.17691356
834,3.4449427,-8.8167715,2.5626724,0.16909222,0.17714164,-0.17691356
835,3.4449427,-8.8167715,2.5626724,0.16909222,0.17714164,-0.17691356
836,3.4449427,-8.8167715,2.5626724,0.16909222,0.17714164,-0.17691356
837,3.4449427,-8.8167715,2.5626724,0.16909222,0.17714164,-0.17691356
838,3.4552653,-8.830241,2.5016763,0.28631565,-0.12686215,-0.07281748
839,3.4552653,-8.830241,2.5016763,0.28631565,-0.12686215,-0.07281748
840,3.4552653,-8.830241,2.5016763,0.28631565,-0.12686215,-0.07281748
841,3.4552653,-8.830241,2.5016763,0.28631565,-0.12686215,-0.07281748
842,3.4552653,-8.830241,2.5016763,0.28631565,-0.12686215,-0.07281748
843,3.4552653,-8.830241,2.5016763,0.28631565,-0.12686215,-0.07281748
844,3.467833,-8.841804,2.4427485,0.2226776,-0.35745442,-0.20622219
845,3.467833,-8.841804,2.4427485,0.2226776,-0.35745442,-0.20622219
846,3.467833,-8.841804,2.4427485,0.2226776,-0.35745442,-0.20622219
847,3.467833,-8.841804,2.4427485,0.2226776,-0.35745442,-0.20622219
848,3.467833,-8.841804,2.4427485,0.2226776,-0.35745442,-0.20622219
849,3.467833,-8.841804,2.4427485,0.2226776,-0.35745442,-0.20622219
850,3.4608393,-8.862402,2.377141,0.1819393,-0.043256175,-0.17483713
851,3.4608393,-8.862402,2.377141,0.1819393,-0.043256175,-0.17483713
852,3.4608393,-8.862402,2.377141,0.1819393,-0.043256175,-0.17483713
853,3.4608393,-8.862402,2.377141,0.1819393,-0.043256175,-0.17483713
854,3.4608393,-8.862402,2.377141,0.1819393,-0.043256175,-0.17483713
855,3.4608393,-8.862402,2.377141,0.1819393,-0.043256175,-0.17483713
856,3.4654515,-8.866034,2.3567984,0.09943005,-0.055341106,0.111076586
857,3.4654515,-8.866034,2.3567984,0.09943005,-0.055341106,0.111076586
858,3.4654515,-8.866034,2.3567984,0.09943005,-0.055341106,0.111076586
859,3.4654515,-8.866034,2.3567984,0.09943005,-0.055341106,0.111076586
860,3.4654515,-8.866034,2.3567984,0.09943005,-0.055341106,0.111076586
861,3.4654515,-8.866034,2.3567984,0.09943005,-0.055341106,0.111076586
862,3.442964,-8.875408,2.3544664,-0.101036586,0.032051913,0.07569465
863,3.442964,-8.875408,2.3544664,-0.101036586,0.032051913,0.07569465
864,3.442964,-8.875408,2.3544664,-0.101036586,0.032051913,0.07569465
865,3.442964,-8.875408,2.3544664,-0.101036586,0.032051913,0.07569465
866,3.442964,-8.875408,2.3544664,-0.101036586,0.032051913,0.07569465
867,3.442964,-8.875408,2.3544664,-0.101036586,0.032051913,0.07569465
868,3.429448,-8.873682,2.3805568,-0.101036586,0.032051913,0.07569465
869,3.429448,-8.873682,2.3805568,0.21290734,0.30996484,-0.014387479
870,3.429448,-8.873682,2.3805568,0.21290734,0.30996484,-0.014387479
871,3.429448,-8.873682,2.3805568,0.21290734,0.30996484,-0.014387479
872,3.429448,-8.873682,2.3805568,0.21290734,0.30996484,-0.014387479
873,3.429448,-8.873682,2.3805568,0.21290734,0.30996484,-0.014387479
874,3.4452431,-8.870679,2.368911,0.16326548,0.006663957,-0.18250966
875,3.4452431,-8.870679,2.368911,0.16326548,0.006663957,-0.18250966
876,3.4452431,-8.870679,2.368911,0.16326548,0.006663957,-0.18250966
877,3.4452431,-8.870679,2.368911,0.16326548,0.006663957,-0.18250966
878,3.4452431,-8.870679,2.368911,0.16326548,0.006663957,-0.18250966
879,3.4452431,-8.870679,2.368911,0.16326548,0.006663957,-0.18250966
880,3.4919279,-8.850775,2.374997,0.19535877,-0.40766847,-0.16578153
881,3.4919279,-8.850775,2.374997,0.19535877,-0.40766847,-0.16578153
882,3.4919279,-8.850775,2.374997,0.19535877,-0.40766847,-0.16578153
883,3.4919279,-8.850775,2.374997,0.19535877,-0.40766847,-0.16578153
884,3.4919279,-8.850775,2.374997,0.19535877,-0.40766847,-0.16578153
885,3.4919279,-8.850775,2.374997,0.19535877,-0.40766847,-0.16578153
886,3.5524514,-8.823042,2.3883898,-0.7737237,1.2869622,0.6014348
887,3.5524514,-8.823042,2.3883898,-0.7737237,1.2869622,0.6014348
888,3.5524514,-8.823042,2.3883898,-0.7737237,1.2869622,0.6014348
889,3.5524514,-8.823042,2.3883898,-0.7737237,1.2869622,0.6014348
890,3.5524514,-8.823042,2.3883898,-0.7737237,1.2869622,0.6014348
891,3.5524514,-8.823042,2.3883898,-0.7737237,1.2869622,0.6014348
892,3.5752425,-8.814542,2.3857698,-0.27791706,-0.051556546,0.06570654
893,3.5752425,-8.814542,2.3857698,-0.27791706,-0.051556546,0.06570654
894,3.5752425,-8.814542,2.3857698,-0.27791706,-0.051556546,0.06570654
895,3.5752425,-8.814542,2.3857698,-0.27791706,-0.051556546,0.06570654
896,3.5752425,-8.814542,2.3857698,-0.27791706,-0.051556546,0.06570654
897,3.5752425,-8.814542,2.3857698,-0.27791706,-0.051556546,0.06570654
898,3.6219146,-8.789973,2.4059331,-0.11891538,0.026117453,0.098024994
899,3.6219146,-8.789973,2.4059331,-0.11891538,0.026117453,0.098024994
900,3.6219146,-8.789973,2.4059331,-0.11891538,0.026117453,0.098024994
901,3.6219146,-8.789973,2.4059331,-0.11891538,0.026117453,0.098024994
902,3.6219146,-8.789973,2.4059331,-0.11891538,0.026117453,0.098024994
903,3.6219146,-8.789973,2.4059331,-0.11891538,0.026117453,0.098024994
904,3.6543603,-8.771804,2.423114,-0.13464442,0.08654327,0.032416612
905,3.6543603,-8.771804,2.423114,-0.13464442,0.08654327,0.032416612
906,3.6543603,-8.771804,2.423114,-0.13464442,0.08654327,0.032416612
907,3.6543603,-8.771804,2.423114,-0.13464442,0.08654327,0.032416612
908,3.6543603,-8.771804,2.423114,-0.13464442,0.08654327,0.032416612
909,3.6543603,-8.771804,2.423114,-0.13464442,0.08654327,0.032416612
910,3.6643624,-8.756912,2.4615693,0.07479987,0.19202955,-0.05152393
911,3.6643624,-8.756912,2.4615693,0.07479987,0.19202955,-0.05152393
912,3.6643624,-8.756912,2.4615693,0.07479987,0.19202955,-0.05152393
913,3.6643624,-8.756912,2.4615693,0.07479987,0.19202955,-0.05152393
914,3.6643624,-8.756912,2.4615693,0.07479987,0.19202955,-0.05152393
915,3.6643624,-8.756912,2.4615693,0.07479987,0.19202955,-0.05152393
916,3.649745,-8.750137,2.5069592,0.07819098,-0.00887092,-0.100101486
917,3.649745,-8.750137,2.5069592,0.07819098,-0.00887092,-0.100101486
918,3.649745,-8.750137,2.5069592,0.07819098,-0.00887092,-0.100101486
919,3.649745,-8.750137,2.5069592,0.07819098,-0.00887092,-0.100101486
920,3.649745,-8.750137,2.5069592,0.07819098,-0.00887092,-0.100101486
921,3.649745,-8.750137,2.5069592,0.07819098,-0.00887092,-0.100101486
922,3.632315,-8.739998,2.566927,0.029067136,-0.4061385,-0.28093624
923,3.632315,-8.739998,2.566927,0.029067136,-0.4061385,-0.28093624
924,3.632315,-8.739998,2.566927,0.029067136,-0.4061385,-0.28093624
925,3.632315,-8.739998,2.566927,0.029067136,-0.4061385,-0.28093624
926,3.632315,-8.739998,2.566927,0.029067136,-0.4061385,-0.28093624
927,3.632315,-8.739998,2.566927,0.029067136,-0.4061385,-0.28093624
928,3.6462345,-8.698255,2.6862085,-0.7592826,1.1844877,-0.7446884
929,3.6462345,-8.698255,2.6862085,-0.7592826,1.1844877,-0.7446884
930,3.6462345,-8.698255,2.6862085,-0.7592826,1.1844877,-0.7446884
931,3.6462345,-8.698255,2.6862085,-0.7592826,1.1844877,-0.7446884
932,3.6462345,-8.698255,2.6862085,-0.7592826,1.1844877,-0.7446884
933,3.6462345,-8.698255,2.6862085,-0.7592826,1.1844877,-0.7446884
934,3.650744,-8.662907,2.7922246,-0.098404504,-0.08686325,0.17303465
935,3.650744,-8.662907,2.7922246,-0.098404504,-0.08686325,0.17303465
936,3.650744,-8.662907,2.7922246,-0.098404504,-0.08686325,0.17303465
937,3.650744,-8.662907,2.7922246,-0.098404504,-0.08686325,0.17303465
938,3.650744,-8.662907,2.7922246,-0.098404504,-0.08686325,0.17303465
939,3.650744,-8.662907,2.7922246,-0.098404504,-0.08686325,0.17303465
940,3.6554728,-8.627108,2.8949823,-0.01933611,-0.059296373,0.104923055
941,3.6554728,-8.627108,2.8949823,-0.01933611,-0.059296373,0.104923055
942,3.6554728,-8.627108,2.8949823,-0.01933611,-0.059296373,0.104923055
943,3.6554728,-8.627108,2.8949823,-0.01933611,-0.059296373,0.104923055
944,3.6554728,-8.627108,2.8949823,-0.01933611,-0.059296373,0.104923055
945,3.6554728,-8.627108,2.8949823,-0.01933611,-0.059296373,0.104923055
946,3.6603048,-8.589837,2.9978726,-0.00859313,0.11094975,0.28429887
947,3.6603048,-8.589837,2.9978726,-0.00859313,0.11094975,0.28429887
948,3.6603048,-8.589837,2.9978726,-0.00859313,0.11094975,0.28429887
949,3.6603048,-8.589837,2.9978726,-0.00859313,0.11094975,0.28429887
950,3.6603048,-8.589837,2.9978726,-0.00859313,0.11094975,0.28429887
951,3.6603048,-8.589837,2.9978726,-0.00859313,0.11094975,0.28429887
952,3.6553662,-8.567084,3.0681822,0.420932,0.3046099,0.10988753
953,3.6553662,-8.567084,3.0681822,0.420932,0.3046099,0.10988753
954,3.6553662,-8.567084,3.0681822,0.420932,0.3046099,0.10988753
955,3.6553662,-8.567084,3.0681822,0.420932,0.3046099,0.10988753
956,3.6553662,-8.567084,3.0681822,0.420932,0.3046099,0.10988753
957,3.6553662,-8.567084,3.0681822,0.420932,0.3046099,0.10988753
958,3.6215193,-8.586639,3.053623,0.020644957,0.071738474,-0.1190578
959,3.6215193,-8.586639,3.053623,0.020644957,0.071738474,-0.1190578
960,3.6215193,-8.586639,3.053623,0.020644957,0.071738474,-0.1190578
961,3.6215193,-8.586639,3.053623,0.020644957,0.071738474,-0.1190578
962,3.6215193,-8.586639,3.053623,0.020644957,0.071738474,-0.1190578
963,3.6215193,-8.586639,3.053623,0.020644957,0.071738474,-0.1190578
964,3.5687087,-8.6203,3.0207825,0.047477134,-0.16061834,-0.17512177
965,3.5687087,-8.6203,3.0207825,0.047477134,-0.16061834,-0.17512177
966,3.5687087,-8.6203,3.0207825,0.047477134,-0.16061834,-0.17512177
967,3.5687087,-8.6203,3.0207825,0.047477134,-0.16061834,-0.17512177
968,3.5687087,-8.6203,3.0207825,0.047477134,-0.16061834,-0.17512177
969,3.5687087,-8.6203,3.0207825,0.047477134,-0.16061834,-0.17512177
970,3.504959,-8.647481,3.0177345,0.140554,-0.33276466,-0.25499505
971,3.504959,-8.647481,3.0177345,0.140554,-0.33276466,-0.25499505
972,3.504959,-8.647481,3.0177345,0.140554,-0.33276466,-0.25499505
973,3.504959,-8.647481,3.0177345,0.140554,-0.33276466,-0.25499505
974,3.504959,-8.647481,3.0177345,0.140554,-0.33276466,-0.25499505
975,3.504959,-8.647481,3.0177345,0.140554,-0.33276466,-0.25499505
976,3.470268,-8.674151,2.9810605,-0.14169545,0.19753724,-0.46276525
977,3.470268,-8.674151,2.9810605,-0.14169545,0.19753724,-0.46276525
978,3.470268,-8.674151,2.9810605,-0.14169545,0.19753724,-0.46276525
979,3.470268,-8.674151,2.9810605,-0.14169545,0.19753724,-0.46276525
980,3.470268,-8.674151,2.9810605,-0.14169545,0.19753724,-0.46276525
981,3.470268,-8.674151,2.9810605,-0.14169545,0.19753724,-0.46276525
982,3.4524682,-8.7037945,2.9145865,-0.09616286,-0.05149394,-0.0048566908
983,3.4524682,-8.7037945,2.9145865,-0.09616286,-0.05149394,-0.0048566908
984,3.4524682,-8.7037945,2.9145865,-0.09616286,-0.05149394,-0.0048566908
985,3.4524682,-8.7037945,2.9145865,-0.09616286,-0.05149394,-0.0048566908
986,3.4524682,-8.7037945,2.9145865,-0.09616286,-0.05149394,-0.0048566908
987,3.4524682,-8.7037945,2.9145865,-0.09616286,-0.05149394,-0.0048566908
988,3.4550397,-8.72344,2.8521369,-0.09297204,0.007029581,0.15912923
989,3.4550397,-8.72344,2.8521369,-0.09297204,0.007029581,0.15912923
990,3.4550397,-8.72344,2.8521369,-0.09297204,0.007029581,0.15912923
991,3.4550397,-8.72344,2.8521369,-0.09297204,0.007029581,0.15912923
992,3.4550397,-8.72344,2.8521369,-0.09297204,0.007029581,0.15912923
993,3.4550397,-8.72344,2.8521369,-0.09297204,0.007029581,0.15912923
994,3.4700778,-8.711553,2.8701587,-0.025543693,0.03704009,0.17756219
995,3.4700778,-8.711553,2.8701587,-0.025543693,0.03704009,0.17756219
996,3.4700778,-8.711553,2.8701587,-0.025543693,0.03704009,0.17756219
997,3.4700778,-8.711553,2.8701587,-0.025543693,0.03704009,0.17756219
998,3.4700778,-8.711553,2.8701587,-0.025543693,0.03704009,0.17756219
999,3.4700778,-8.711553,2.8701587,-0.025543693,0.03704009,0.17756219
1000,3.497504,-8.705945,2.8538353,-0.23556574,0.22358315,0.3579648
1001,3.497504,-8.705945,2.8538353,-0.23556574,0.22358315,0.3579648
1002,3.497504,-8.705945,2.8538353,-0.23556574,0.22358315,0.3579648
1003,3.497504,-8.705945,2.8538353,-0.23556574,0.22358315,0.3579648
1004,3.497504,-8.705945,2.8538353,-0.23556574,0.22358315,0.3579648
1005,3.497504,-8.705945,2.8538353,-0.23556574,0.22358315,0.3579648
1006,3.537266,-8.696843,2.8324993,0.13408497,0.17472334,-0.04543993
1007,3.537266,-8.696843,2.8324993,0.13408497,0.17472334,-0.04543993
1008,3.537266,-8.696843,2.8324993,0.13408497,0.17472334,-0.04543993
1009,3.537266,-8.696843,2.8324993,0.13408497,0.17472334,-0.04543993
1010,3.537266,-8.696843,2.8324993,0.13408497,0.17472334,-0.04543993
1011,3.537266,-8.696843,2.8324993,0.13408497,0.17472334,-0.04543993
1012,3.5630555,-8.681954,2.845821,0.09034304,-0.17520109,-0.15878882
1013,3.5630555,-8.681954,2.845821,0.09034304,-0.17520109,-0.15878882
1014,3.5630555,-8.681954,2.845821,0.09034304,-0.17520109,-0.15878882
1015,3.5630555,-8.681954,2.845821,0.09034304,-0.17520109,-0.15878882
1016,3.5630555,-8.681954,2.845821,0.09034304,-0.17520109,-0.15878882
1017,3.5630555,-8.681954,2.845821,0.09034304,-0.17520109,-0.15878882
1018,3.5778065,-8.673521,2.8530188,0.087941796,-0.016192436,0.04841722
1019,3.5778065,-8.673521,2.8530188,0.087941796,-0.016192436,0.04841722
1020,3.5778065,-8.673521,2.8530188,0.087941796,-0.016192436,0.04841722
1021,3.5778065,-8.673521,2.8530188,0.087941796,-0.016192436,0.04841722
1022,3.5778065,-8.673521,2.8530188,0.087941796,-0.016192436,0.04841722
1023,3.5778065,-8.673521,2.8530188,0.087941796,-0.016192436,0.04841722
1024,3.585715,-8.66665,2.8639522,0.07654512,-0.056981698,0.021709213
1025,3.585715,-8.66665,2.8639522,0.07654512,-0.056981698,0.021709213
1026,3.585715,-8.66665,2.8639522,0.07654512,-0.056981698,0.021709213
1027,3.585715,-8.66665,2.8639522,0.07654512,-0.056981698,0.021709213
1028,3.585715,-8.66665,2.8639522,0.07654512,-0.056981698,0.021709213
1029,3.585715,-8.66665,2.8639522,0.07654512,-0.056981698,0.021709213
1030,3.6025867,-8.655332,2.8769739,-0.11942126,0.13014348,-0.08483662
1031,3.6025867,-8.655332,2.8769739,-0.11942126,0.13014348,-0.08483662
1032,3.6025867,-8.655332,2.8769739,-0.11942126,0.13014348,-0.08483662
1033,3.6025867,-8.655332,2.8769739,-0.11942126,0.13014348,-0.08483662
1034,3.6025867,-8.655332,2.8769739,-0.11942126,0.13014348,-0.08483662
1035,3.6025867,-8.655332,2.8769739,-0.11942126,0.13014348,-0.08483662
1036,3.609917,-8.644613,2.899923,-0.100125715,0.09999678,0.24942039
1037,3.609917,-8.644613,2.899923,-0.100125715,0.09999678,0.24942039
1038,3.609917,-8.644613,2.899923,-0.100125715,0.09999678,0.24942039
1039,3.609917,-8.644613,2.899923,-0.100125715,0.09999678,0.24942039
1040,3.609917,-8.644613,2.899923,-0.100125715,0.09999678,0.24942039
1041,3.609917,-8.644613,2.899923,-0.100125715,0.09999678,0.24942039
1042,3.6336699,-8.634782,2.8995469,-0.04108319,0.05560436,0.22888124
1043,3.6336699,-8.634782,2.8995469,-0.04108319,0.05560436,0.22888124
1044,3.6336699,-8.634782,2.8995469,-0.04108319,0.05560436,0.22888124
1045,3.6336699,-8.634782,2.8995469,-0.04108319,0.05560436,0.22888124
1046,3.6336699,-8.634782,2.8995469,-0.04108319,0.05560436,0.22888124
1047,3.6336699,-8.634782,2.8995469,-0.04108319,0.05560436,0.22888124
1048,3.6568441,-8.635044,2.8694768,-0.017731974,0.07363785,0.26877004
1049,3.6568441,-8.635044,2.8694768,-0.017731974,0.07363785,0.26877004
1050,3.6568441,-8.635044,2.8694768,-0.017731974,0.07363785,0.26877004
1051,3.6568441,-8.635044,2.8694768,-0.017731974,0.07363785,0.26877004
1052,3.6568441,-8.635044,2.8694768,-0.017731974,0.07363785,0.26877004
1053,3.6568441,-8.635044,2.8694768,-0.017731974,0.07363785,0.26877004
1054,3.6812062,-8.639425,2.824791,-0.000117021955,0.162028,0.27934644
1055,3.6812062,-8.639425,2.824791,-0.000117021955,0.162028,0.27934644
1056,3.6812062,-8.639425,2.824791,-0.000117021955,0.162028,0.27934644
1057,3.6812062,-8.639425,2.824791,-0.000117021955,0.162028,0.27934644
1058,3.6812062,-8.639425,2.824791,-0.000117021955,0.162028,0.27934644
1059,3.6812062,-8.639425,2.824791,-0.000117021955,0.162028,0.27934644
1060,3.6894982,-8.662213,2.743002,0.04514661,0.11138177,0.32274923
1061,3.6894982,-8.662213,2.743002,0.04514661,0.11138177,0.32274923
1062,3.6894982,-8.662213,2.743002,0.04514661,0.11138177,0.32274923
1063,3.6894982,-8.662213,2.743002,0.04514661,0.11138177,0.32274923
1064,3.6894982,-8.662213,2.743002,0.04514661,0.11138177,0.32274923
1065,3.6894982,-8.662213,2.743002,0.04514661,0.11138177,0.32274923
1066,3.6817675,-8.693455,2.6530776,0.021417206,0.11063769,0.2501278
1067,3.6817675,-8.693455,2.6530776,0.021417206,0.11063769,0.2501278
1068,3.6817675,-8.693455,2.6530776,0.021417206,0.11063769,0.2501278
1069,3.6817675,-8.693455,2.6530776,0.021417206,0.11063769,0.2501278
1070,3.6817675,-8.693455,2.6530776,0.021417206,0.11063769,0.2501278
1071,3.6817675,-8.693455,2.6530776,0.021417206,0.11063769,0.2501278
1072,3.6721826,-8.725968,2.557918,0.017023353,0.09023936,0.2428681
1073,3.6721826,-8.725968,2.557918,0.017023353,0.09023936,0.2428681
1074,3.6721826,-8.725968,2.557918,0.017023353,0.09023936,0.2428681
1075,3.6721826,-8.725968,2.557918,0.017023353,0.09023936,0.2428681
1076,3.6721826,-8.725968,2.557918,0.017023353,0.09023936,0.2428681
1077,3.6721826,-8.725968,2.557918,0.017023353,0.09023936,0.2428681
1078,3.6400936,-8.769938,2.4511814,0.028395724,0.10284118,0.2314996
1079,3.6400936,-8.769938,2.4511814,0.028395724,0.10284118,0.2314996
1080,3.6400936,-8.769938,2.4511814,0.028395724,0.10284118,0.2314996
1081,3.6400936,-8.769938,2.4511814,0.028395724,0.10284118,0.2314996
1082,3.6400936,-8.769938,2.4511814,0.028395724,0.10284118,0.2314996
1083,3.6400936,-8.769938,2.4511814,0.028395724,0.10284118,0.2314996
1084,3.6086192,-8.810418,2.350483,0.021770531,0.088952534,0.230997
1085,3.6086192,-8.810418,2.350483,0.021770531,0.088952534,0.230997
1086,3.6086192,-8.810418,2.350483,0.021770531,0.088952534,0.230997
1087,3.6086192,-8.810418,2.350483,0.021770531,0.088952534,0.230997
1088,3.6086192,-8.810418,2.350483,0.021770531,0.088952534,0.230997
1089,3.6086192,-8.810418,2.350483,0.021770531,0.088952534,0.230997
1090,3.5771801,-8.847757,2.2564044,0.0009936295,0.081729494,0.23458602
1091,3.5771801,-8.847757,2.2564044,0.0009936295,0.081729494,0.23458602
1092,3.5771801,-8.847757,2.2564044,0.0009936295,0.081729494,0.23458602
1093,3.5771801,-8.847757,2.2564044,0.0009936295,0.081729494,0.23458602
1094,3.5771801,-8.847757,2.2564044,0.0009936295,0.081729494,0.23458602
1095,3.5771801,-8.847757,2.2564044,0.0009936295,0.081729494,0.23458602
1096,3.5620072,-8.875054,2.1716135,-0.0025055094,0.076018244,0.24449103
1097,3.5620072,-8.875054,2.1716135,-0.0025055094,0.076018244,0.24449103
1098,3.5620072,-8.875054,2.1716135,-0.0025055094,0.076018244,0.24449103
1099,3.5620072,-8.875054,2.1716135,-0.0025055094,0.076018244,0.24449103
1100,3.5620072,-8.875054,2.1716135,-0.0025055094,0.076018244,0.24449103
1101,3.5620072,-8.875054,2.1716135,-0.0025055094,0.076018244,0.24449103
1102,3.5550623,-8.904454,2.0597627,-0.006630248,0.07155697,0.22772007
1103,3.5550623,-8.904454,2.0597627,-0.006630248,0.07155697,0.22772007
1104,3.5550623,-8.904454,2.0597627,-0.006630248,0.07155697,0.22772007
1105,3.5550623,-8.904454,2.0597627,-0.006630248,0.07155697,0.22772007
1106,3.5550623,-8.904454,2.0597627,-0.006630248,0.07155697,0.22772007
1107,3.5550623,-8.904454,2.0597627,-0.006630248,0.07155697,0.22772007
1108,3.541858,-8.941926,1.9150971,-0.00016643123,0.07261836,0.22419995
1109,3.541858,-8.941926,1.9150971,-0.00016643123,0.07261836,0.22419995
1110,3.541858,-8.941926,1.9150971,-0.00016643123,0.07261836,0.22419995
1111,3.541858,-8.941926,1.9150971,-0.00016643123,0.07261836,0.22419995
1112,3.541858,-8.941926,1.9150971,-0.00016643123,0.07261836,0.22419995
1113,3.541858,-8.941926,1.9150971,-0.00016643123,0.07261836,0.22419995
1114,3.5251627,-8.978307,1.7702062,-0.00040395057,0.06842171,0.21284702
1115,3.5251627,-8.978307,1.7702062,-0.00040395057,0.06842171,0.21284702
1116,3.5251627,-8.978307,1.7702062,-0.00040395057,0.06842171,0.21284702
1117,3.5251627,-8.978307,1.7702062,-0.00040395057,0.06842171,0.21284702
1118,3.5251627,-8.978307,1.7702062,-0.00040395057,0.06842171,0.21284702
1119,3.5251627,-8.978307,1.7702062,-0.00040395057,0.06842171,0.21284702
1120,3.4969542,-9.016632,1.6254336,-0.00083886395,0.06256249,0.1888152
1121,3.4969542,-9.016632,1.6254336,-0.00083886395,0.06256249,0.1888152
1122,3.4969542,-9.016632,1.6254336,-0.00083886395,0.06256249,0.1888152
1123,3.4969542,-9.016632,1.6254336,-0.00083886395,0.06256249,0.1888152
1124,3.4969542,-9.016632,1.6254336,-0.00083886395,0.06256249,0.1888152
1125,3.4969542,-9.016632,1.6254336,-0.00083886395,0.06256249,0.1888152
1126,3.4626608,-9.052343,1.4951419,-0.011656335,0.057945967,0.19554636
1127,3.4626608,-9.052343,1.4951419,-0.011656335,0.057945967,0.19554636
1128,3.4626608,-9.052343,1.4951419,-0.011656335,0.057945967,0.19554636
1129,3.4626608,-9.052343,1.4951419,-0.011656335,0.057945967,0.19554636
1130,3.4626608,-9.052343,1.4951419,-0.011656335,0.057945967,0.19554636
1131,3.4626608,-9.052343,1.4951419,-0.011656335,0.057945967,0.19554636
1132,3.4520907,-9.074252,1.3825359,-0.0015071894,0.055224545,0.1782103
1133,3.4520907,-9.074252,1.3825359,-0.0015071894,0.055224545,0.1782103
1134,3.4520907,-9.074252,1.3825359,-0.0015071894,0.055224545,0.1782103
1135,3.4520907,-9.074252,1.3825359,-0.0015071894,0.055224545,0.1782103
1136,3.4520907,-9.074252,1.3825359,-0.0015071894,0.055224545,0.1782103
1137,3.4520907,-9.074252,1.3825359,-0.0015071894,0.055224545,0.1782103
1138,3.4490366,-9.090838,1.2771822,-0.019878738,0.054021906,0.16161352
1139,3.4490366,-9.090838,1.2771822,-0.019878738,0.054021906,0.16161352
1140,3.4490366,-9.090838,1.2771822,-0.019878738,0.054021906,0.16161352
1141,3.4490366,-9.090838,1.2771822,-0.019878738,0.054021906,0.16161352
1142,3.4490366,-9.090838,1.2771822,-0.019878738,0.054021906,0.16161352
1143,3.4490366,-9.090838,1.2771822,-0.019878738,0.054021906,0.16161352
1144,3.459229,-9.099107,1.1875972,-0.012006161,0.05610774,0.1519934
1145,3.459229,-9.099107,1.1875972,-0.012006161,0.05610774,0.1519934
1146,3.459229,-9.099107,1.1875972,-0.012006161,0.05610774,0.1519934
1147,3.459229,-9.099107,1.1875972,-0.012006161,0.05610774,0.1519934
1148,3.459229,-9.099107,1.1875972,-0.012006161,0.05610774,0.1519934
1149,3.459229,-9.099107,1.1875972,-0.012006161,0.05610774,0.1519934
1150,3.4775708,-9.106427,1.0723295,-0.015993828,0.051456608,0.1407315
1151,3.4775708,-9.106427,1.0723295,-0.015993828,0.051456608,0.1407315
1152,3.4775708,-9.106427,1.0723295,-0.015993828,0.051456608,0.1407315
1153,3.4775708,-9.106427,1.0723295,-0.015993828,0.051456608,0.1407315
1154,3.4775708,-9.106427,1.0723295,-0.015993828,0.051456608,0.1407315
