,Gravity X,Gravity Y,Gravity Z,User Acceleration X,User Acceleration Y,User Acceleration Z
0,3.824575,-8.947293,1.2202317,-0.019182365,0.14333588,-0.24151674
1,3.824575,-8.947293,1.2202317,-0.019182365,0.14333588,-0.24151674
2,3.824575,-8.947293,1.2202317,-0.019182365,0.14333588,-0.24151674
3,3.8048859,-8.955731,1.2198757,-0.06658401,-0.02494738,-0.10146427
4,3.8048859,-8.955731,1.2198757,-0.06658401,-0.02494738,-0.10146427
5,3.8048859,-8.955731,1.2198757,-0.06658401,-0.02494738,-0.10146427
6,3.8048859,-8.955731,1.2198757,-0.06658401,-0.02494738,-0.10146427
7,3.7936907,-8.9582405,1.2362077,0.08895941,-0.35809702,-0.26868695
8,3.7936907,-8.9582405,1.2362077,0.08895941,-0.35809702,-0.26868695
9,3.7936907,-8.9582405,1.2362077,0.08895941,-0.35809702,-0.26868695
10,3.7936907,-8.9582405,1.2362077,0.08895941,-0.35809702,-0.26868695
11,3.7827623,-8.959292,1.2618159,0.0131639615,-0.4421599,-0.4549767
12,3.7827623,-8.959292,1.2618159,0.0131639615,-0.4421599,-0.4549767
13,3.7827623,-8.959292,1.2618159,0.0131639615,-0.4421599,-0.4549767
14,3.7827623,-8.959292,1.2618159,0.0131639615,-0.4421599,-0.4549767
15,3.7916536,-8.952304,1.2845289,0.18783894,-0.099279486,-0.34918123
16,3.7916536,-8.952304,1.2845289,0.18783894,-0.099279486,-0.34918123
17,3.7916536,-8.952304,1.2845289,0.18783894,-0.099279486,-0.34918123
18,3.7916536,-8.952304,1.2845289,0.18783894,-0.099279486,-0.34918123
19,3.7916536,-8.952304,1.2845289,0.18783894,-0.099279486,-0.34918123
20,3.801769,-8.941917,1.3262932,0.08490175,-0.22073734,-0.02667346
21,3.801769,-8.941917,1.3262932,0.08490175,-0.22073734,-0.02667346
22,3.801769,-8.941917,1.3262932,0.08490175,-0.22073734,-0.02667346
23,3.801769,-8.941917,1.3262932,0.08490175,-0.22073734,-0.02667346
24,3.801769,-8.941917,1.3262932,0.08490175,-0.22073734,-0.02667346
25,3.8310742,-8.926532,1.3454727,-0.030234585,-0.053210165,-0.0740179
26,3.8310742,-8.926532,1.3454727,-0.030234585,-0.053210165,-0.0740179
27,3.8310742,-8.926532,1.3454727,-0.030234585,-0.053210165,-0.0740179
28,3.8310742,-8.926532,1.3454727,-0.030234585,-0.053210165,-0.0740179
29,3.8310742,-8.926532,1.3454727,-0.030234585,-0.053210165,-0.0740179
30,3.8798766,-8.907127,1.3341756,-0.22636285,1.082657,-0.06589532
31,3.8798766,-8.907127,1.3341756,-0.22636285,1.082657,-0.06589532
32,3.8798766,-8.907127,1.3341756,-0.22636285,1.082657,-0.06589532
33,3.8798766,-8.907127,1.3341756,-0.22636285,1.082657,-0.06589532
34,3.9004085,-8.90491,1.2883257,0.0119773615,0.2384456,-0.021269586
35,3.9004085,-8.90491,1.2883257,0.0119773615,0.2384456,-0.021269586
36,3.9004085,-8.90491,1.2883257,0.0119773615,0.2384456,-0.021269586
37,3.9004085,-8.90491,1.2883257,0.0119773615,0.2384456,-0.021269586
38,3.9004085,-8.90491,1.2883257,0.0119773615,0.2384456,-0.021269586
39,3.9167185,-8.891375,1.3316034,0.27380478,-0.50796556,-0.18818605
40,3.9167185,-8.891375,1.3316034,0.27380478,-0.50796556,-0.18818605
41,3.9167185,-8.891375,1.3316034,0.27380478,-0.50796556,-0.18818605
42,3.9167185,-8.891375,1.3316034,0.27380478,-0.50796556,-0.18818605
43,3.9167185,-8.891375,1.3316034,0.27380478,-0.50796556,-0.18818605
44,3.931097,-8.876896,1.3847672,-0.21430801,-0.049614783,-2.1391282
45,3.931097,-8.876896,1.3847672,-0.21430801,-0.049614783,-2.1391282
46,3.931097,-8.876896,1.3847672,-0.21430801,-0.049614783,-2.1391282
47,3.931097,-8.876896,1.3847672,-0.21430801,-0.049614783,-2.1391282
48,3.931097,-8.876896,1.3847672,-0.21430801,-0.049614783,-2.1391282
49,3.9398062,-8.864436,1.4387801,-0.26613653,0.16203247,-0.01862371
50,3.9398062,-8.864436,1.4387801,-0.26613653,0.16203247,-0.01862371
51,3.9398062,-8.864436,1.4387801,-0.26613653,0.16203247,-0.01862371
52,3.9398062,-8.864436,1.4387801,-0.26613653,0.16203247,-0.01862371
53,3.9398062,-8.864436,1.4387801,-0.26613653,0.16203247,-0.01862371
54,3.9347653,-8.854788,1.5102135,0.11700733,-0.1723184,0.0052538607
55,3.9347653,-8.854788,1.5102135,0.11700733,-0.1723184,0.0052538607
56,3.9347653,-8.854788,1.5102135,0.11700733,-0.1723184,0.0052538607
57,3.9347653,-8.854788,1.5102135,0.11700733,-0.1723184,0.0052538607
58,3.9347653,-8.854788,1.5102135,0.11700733,-0.1723184,0.0052538607
59,3.918237,-8.848715,1.586842,-0.31177738,0.3500947,-0.06747371
60,3.918237,-8.848715,1.586842,-0.31177738,0.3500947,-0.06747371
61,3.918237,-8.848715,1.586842,-0.31177738,0.3500947,-0.06747371
62,3.918237,-8.848715,1.586842,-0.31177738,0.3500947,-0.06747371
63,3.918237,-8.848715,1.586842,-0.31177738,0.3500947,-0.06747371
64,3.9269717,-8.82998,1.6675558,-0.123451166,0.18116447,0.21751472
65,3.9269717,-8.82998,1.6675558,-0.123451166,0.18116447,0.21751472
66,3.9269717,-8.82998,1.6675558,-0.123451166,0.18116447,0.21751472
67,3.9269717,-8.82998,1.6675558,-0.123451166,0.18116447,0.21751472
68,3.9269717,-8.82998,1.6675558,-0.123451166,0.18116447,0.21751472
69,3.964885,-8.807608,1.6959127,0.2123312,-0.35201615,0.09935303
70,3.964885,-8.807608,1.6959127,0.2123312,-0.35201615,0.09935303
71,3.964885,-8.807608,1.6959127,0.2123312,-0.35201615,0.09935303
72,3.964885,-8.807608,1.6959127,0.2123312,-0.35201615,0.09935303
73,3.964885,-8.807608,1.6959127,0.2123312,-0.35201615,0.09935303
74,3.9890692,-8.787831,1.7411894,-0.2562337,-0.42224112,-0.76975596
75,3.9890692,-8.787831,1.7411894,-0.2562337,-0.42224112,-0.76975596
76,3.9890692,-8.787831,1.7411894,-0.2562337,-0.42224112,-0.76975596
77,3.9890692,-8.787831,1.7411894,-0.2562337,-0.42224112,-0.76975596
78,3.9890692,-8.787831,1.7411894,-0.2562337,-0.42224112,-0.76975596
79,4.016696,-8.76722,1.7811248,-0.18215285,0.19634812,0.028476669
80,4.016696,-8.76722,1.7811248,-0.18215285,0.19634812,0.028476669
81,4.016696,-8.76722,1.7811248,-0.18215285,0.19634812,0.028476669
82,4.016696,-8.76722,1.7811248,-0.18215285,0.19634812,0.028476669
83,4.016696,-8.76722,1.7811248,-0.18215285,0.19634812,0.028476669
84,4.0261817,-8.753974,1.8243312,-0.12700525,0.427112,0.08022805
85,4.0261817,-8.753974,1.8243312,-0.12700525,0.427112,0.08022805
86,4.0261817,-8.753974,1.8243312,-0.12700525,0.427112,0.08022805
87,4.0261817,-8.753974,1.8243312,-0.12700525,0.427112,0.08022805
88,4.0261817,-8.753974,1.8243312,-0.12700525,0.427112,0.08022805
89,4.0350056,-8.7373905,1.883383,-0.21689498,0.11836187,0.23316999
90,4.0350056,-8.7373905,1.883383,-0.21689498,0.11836187,0.23316999
91,4.0350056,-8.7373905,1.883383,-0.21689498,0.11836187,0.23316999
92,4.0350056,-8.7373905,1.883383,-0.21689498,0.11836187,0.23316999
93,4.0350056,-8.7373905,1.883383,-0.21689498,0.11836187,0.23316999
94,4.0350056,-8.7373905,1.883383,-0.21689498,0.11836187,0.23316999
95,4.058774,-8.708164,1.965861,0.15014917,-0.4199775,0.07757116
96,4.058774,-8.708164,1.965861,0.15014917,-0.4199775,0.07757116
97,4.058774,-8.708164,1.965861,0.15014917,-0.4199775,0.07757116
98,4.058774,-8.708164,1.965861,0.15014917,-0.4199775,0.07757116
99,4.058774,-8.708164,1.965861,0.15014917,-0.4199775,0.07757116
100,4.058774,-8.708164,1.965861,0.15014917,-0.4199775,0.07757116
101,4.0808244,-8.677964,2.051879,-0.21612927,-0.40860108,-0.8069093
102,4.0808244,-8.677964,2.051879,-0.21612927,-0.40860108,-0.8069093
103,4.0808244,-8.677964,2.051879,-0.21612927,-0.40860108,-0.8069093
104,4.0808244,-8.677964,2.051879,-0.21612927,-0.40860108,-0.8069093
105,4.0808244,-8.677964,2.051879,-0.21612927,-0.40860108,-0.8069093
106,4.0808244,-8.677964,2.051879,-0.21612927,-0.40860108,-0.8069093
107,4.1044497,-8.656993,2.0929272,0.043027066,0.15145116,-0.07201813
108,4.1044497,-8.656993,2.0929272,0.043027066,0.15145116,-0.07201813
109,4.1044497,-8.656993,2.0929272,0.043027066,0.15145116,-0.07201813
110,4.1044497,-8.656993,2.0929272,0.043027066,0.15145116,-0.07201813
111,4.1044497,-8.656993,2.0929272,0.043027066,0.15145116,-0.07201813
112,4.1044497,-8.656993,2.0929272,0.043027066,0.15145116,-0.07201813
113,4.1351795,-8.632009,2.1352048,0.16965243,-0.21404009,-0.086256824
114,4.1351795,-8.632009,2.1352048,0.16965243,-0.21404009,-0.086256824
115,4.1351795,-8.632009,2.1352048,0.16965243,-0.21404009,-0.086256824
116,4.1351795,-8.632009,2.1352048,0.16965243,-0.21404009,-0.086256824
117,4.1351795,-8.632009,2.1352048,0.16965243,-0.21404009,-0.086256824
118,4.1351795,-8.632009,2.1352048,0.16965243,-0.21404009,-0.086256824
119,4.1791315,-8.600418,2.1767094,-0.07578167,0.3417254,0.26746377
120,4.1791315,-8.600418,2.1767094,-0.07578167,0.3417254,0.26746377
121,4.1791315,-8.600418,2.1767094,-0.07578167,0.3417254,0.26746377
122,4.1791315,-8.600418,2.1767094,-0.07578167,0.3417254,0.26746377
123,4.1791315,-8.600418,2.1767094,-0.07578167,0.3417254,0.26746377
124,4.1791315,-8.600418,2.1767094,-0.07578167,0.3417254,0.26746377
125,4.213694,-8.563709,2.253452,0.2655165,0.061873045,-0.5388878
126,4.213694,-8.563709,2.253452,0.2655165,0.061873045,-0.5388878
127,4.213694,-8.563709,2.253452,0.2655165,0.061873045,-0.5388878
128,4.213694,-8.563709,2.253452,0.2655165,0.061873045,-0.5388878
129,4.213694,-8.563709,2.253452,0.2655165,0.061873045,-0.5388878
130,4.213694,-8.563709,2.253452,0.2655165,0.061873045,-0.5388878
131,4.240326,-8.52788,2.3377964,-0.04806669,-0.2551656,0.08815067
132,4.240326,-8.52788,2.3377964,-0.04806669,-0.2551656,0.08815067
133,4.240326,-8.52788,2.3377964,-0.04806669,-0.2551656,0.08815067
134,4.240326,-8.52788,2.3377964,-0.04806669,-0.2551656,0.08815067
135,4.240326,-8.52788,2.3377964,-0.04806669,-0.2551656,0.08815067
136,4.240326,-8.52788,2.3377964,-0.04806669,-0.2551656,0.08815067
137,4.231313,-8.516371,2.3953722,0.33223173,-0.2598498,0.10866318
138,4.231313,-8.516371,2.3953722,0.33223173,-0.2598498,0.10866318
139,4.231313,-8.516371,2.3953722,0.33223173,-0.2598498,0.10866318
140,4.231313,-8.516371,2.3953722,0.33223173,-0.2598498,0.10866318
141,4.231313,-8.516371,2.3953722,0.33223173,-0.2598498,0.10866318
142,4.231313,-8.516371,2.3953722,0.33223173,-0.2598498,0.10866318
143,4.2418194,-8.481665,2.49774,-0.44523942,-0.046910957,-0.21867676
144,4.2418194,-8.481665,2.49774,-0.44523942,-0.046910957,-0.21867676
145,4.2418194,-8.481665,2.49774,-0.44523942,-0.046910957,-0.21867676
146,4.2418194,-8.481665,2.49774,-0.44523942,-0.046910957,-0.21867676
147,4.2418194,-8.481665,2.49774,-0.44523942,-0.046910957,-0.21867676
148,4.2418194,-8.481665,2.49774,-0.44523942,-0.046910957,-0.21867676
149,4.250143,-8.451416,2.5846138,-0.008504957,0.19778894,0.40959573
150,4.250143,-8.451416,2.5846138,-0.008504957,0.19778894,0.40959573
151,4.250143,-8.451416,2.5846138,-0.008504957,0.19778894,0.40959573
152,4.250143,-8.451416,2.5846138,-0.008504957,0.19778894,0.40959573
153,4.250143,-8.451416,2.5846138,-0.008504957,0.19778894,0.40959573
154,4.250143,-8.451416,2.5846138,-0.008504957,0.19778894,0.40959573
155,4.250026,-8.424875,2.6700454,0.005638441,-0.0015847909,0.24551195
156,4.250026,-8.424875,2.6700454,0.005638441,-0.0015847909,0.24551195
157,4.250026,-8.424875,2.6700454,0.005638441,-0.0015847909,0.24551195
158,4.250026,-8.424875,2.6700454,0.005638441,-0.0015847909,0.24551195
159,4.250026,-8.424875,2.6700454,0.005638441,-0.0015847909,0.24551195
160,4.250026,-8.424875,2.6700454,0.005638441,-0.0015847909,0.24551195
161,4.259073,-8.411313,2.698239,-0.099848285,0.05983572,0.23764741
162,4.259073,-8.411313,2.698239,-0.099848285,0.05983572,0.23764741
163,4.259073,-8.411313,2.698239,-0.099848285,0.05983572,0.23764741
164,4.259073,-8.411313,2.698239,-0.099848285,0.05983572,0.23764741
165,4.259073,-8.411313,2.698239,-0.099848285,0.05983572,0.23764741
166,4.259073,-8.411313,2.698239,-0.099848285,0.05983572,0.23764741
167,4.25647,-8.423408,2.6644058,-0.07521972,0.20796573,0.3035108
168,4.25647,-8.423408,2.6644058,-0.07521972,0.20796573,0.3035108
169,4.25647,-8.423408,2.6644058,-0.07521972,0.20796573,0.3035108
170,4.25647,-8.423408,2.6644058,-0.07521972,0.20796573,0.3035108
171,4.25647,-8.423408,2.6644058,-0.07521972,0.20796573,0.3035108
172,4.25647,-8.423408,2.6644058,-0.07521972,0.20796573,0.3035108
173,4.2673655,-8.431864,2.619859,0.28319043,-0.36447793,-0.020256853
174,4.2673655,-8.431864,2.619859,0.28319043,-0.36447793,-0.020256853
175,4.2673655,-8.431864,2.619859,0.28319043,-0.36447793,-0.020256853
176,4.2673655,-8.431864,2.619859,0.28319043,-0.36447793,-0.020256853
177,4.2673655,-8.431864,2.619859,0.28319043,-0.36447793,-0.020256853
178,4.2673655,-8.431864,2.619859,0.28319043,-0.36447793,-0.020256853
179,4.2779016,-8.459212,2.5123026,-0.03789086,0.74661076,-2.097408
180,4.2779016,-8.459212,2.5123026,-0.03789086,0.74661076,-2.097408
181,4.2779016,-8.459212,2.5123026,-0.03789086,0.74661076,-2.097408
182,4.2779016,-8.459212,2.5123026,-0.03789086,0.74661076,-2.097408
183,4.2779016,-8.459212,2.5123026,-0.03789086,0.74661076,-2.097408
184,4.2779016,-8.459212,2.5123026,-0.03789086,0.74661076,-2.097408
185,4.294911,-8.481215,2.4068906,0.10588422,-0.14888094,0.123504534
186,4.294911,-8.481215,2.4068906,0.10588422,-0.14888094,0.123504534
187,4.294911,-8.481215,2.4068906,0.10588422,-0.14888094,0.123504534
188,4.294911,-8.481215,2.4068906,0.10588422,-0.14888094,0.123504534
189,4.294911,-8.481215,2.4068906,0.10588422,-0.14888094,0.123504534
190,4.294911,-8.481215,2.4068906,0.10588422,-0.14888094,0.123504534
191,4.3142443,-8.492912,2.3298335,-0.1542623,0.10374596,0.061957028
192,4.3142443,-8.492912,2.3298335,-0.1542623,0.10374596,0.061957028
193,4.3142443,-8.492912,2.3298335,-0.1542623,0.10374596,0.061957028
194,4.3142443,-8.492912,2.3298335,-0.1542623,0.10374596,0.061957028
195,4.3142443,-8.492912,2.3298335,-0.1542623,0.10374596,0.061957028
196,4.3142443,-8.492912,2.3298335,-0.1542623,0.10374596,0.061957028
197,4.318277,-8.502724,2.2861674,-0.2802728,0.7670691,0.2698355
198,4.318277,-8.502724,2.2861674,-0.2802728,0.7670691,0.2698355
199,4.318277,-8.502724,2.2861674,-0.2802728,0.7670691,0.2698355
200,4.318277,-8.502724,2.2861674,-0.2802728,0.7670691,0.2698355
201,4.318277,-8.502724,2.2861674,-0.2802728,0.7670691,0.2698355
202,4.318277,-8.502724,2.2861674,-0.2802728,0.7670691,0.2698355
203,4.3185077,-8.5071535,2.269187,-0.007881569,0.19259535,-0.10676709
204,4.3185077,-8.5071535,2.269187,-0.007881569,0.19259535,-0.10676709
205,4.3185077,-8.5071535,2.269187,-0.007881569,0.19259535,-0.10676709
206,4.3185077,-8.5071535,2.269187,-0.007881569,0.19259535,-0.10676709
207,4.3185077,-8.5071535,2.269187,-0.007881569,0.19259535,-0.10676709
208,4.3185077,-8.5071535,2.269187,-0.007881569,0.19259535,-0.10676709
209,4.31076,-8.524274,2.2191257,0.25637463,-0.4915334,-0.23048192
210,4.31076,-8.524274,2.2191257,0.25637463,-0.4915334,-0.23048192
211,4.31076,-8.524274,2.2191257,0.25637463,-0.4915334,-0.23048192
212,4.31076,-8.524274,2.2191257,0.25637463,-0.4915334,-0.23048192
213,4.31076,-8.524274,2.2191257,0.25637463,-0.4915334,-0.23048192
214,4.31076,-8.524274,2.2191257,0.25637463,-0.4915334,-0.23048192
215,4.279575,-8.541396,2.2136376,0.06722424,-0.017855583,0.3566481
216,4.279575,-8.541396,2.2136376,0.06722424,-0.017855583,0.3566481
217,4.279575,-8.541396,2.2136376,0.06722424,-0.017855583,0.3566481
218,4.279575,-8.541396,2.2136376,0.06722424,-0.017855583,0.3566481
219,4.279575,-8.541396,2.2136376,0.06722424,-0.017855583,0.3566481
220,4.279575,-8.541396,2.2136376,0.06722424,-0.017855583,0.3566481
221,4.241488,-8.560594,2.2127824,0.09897411,-0.21847501,0.09005056
222,4.241488,-8.560594,2.2127824,0.09897411,-0.21847501,0.09005056
223,4.241488,-8.560594,2.2127824,0.09897411,-0.21847501,0.09005056
224,4.241488,-8.560594,2.2127824,0.09897411,-0.21847501,0.09005056
225,4.241488,-8.560594,2.2127824,0.09897411,-0.21847501,0.09005056
226,4.241488,-8.560594,2.2127824,0.09897411,-0.21847501,0.09005056
227,4.1991467,-8.585488,2.1970289,-0.14647041,0.09528528,-0.043346126
228,4.1991467,-8.585488,2.1970289,-0.14647041,0.09528528,-0.043346126
229,4.1991467,-8.585488,2.1970289,-0.14647041,0.09528528,-0.043346126
230,4.1991467,-8.585488,2.1970289,-0.14647041,0.09528528,-0.043346126
231,4.1991467,-8.585488,2.1970289,-0.14647041,0.09528528,-0.043346126
232,4.1991467,-8.585488,2.1970289,-0.14647041,0.09528528,-0.043346126
233,4.15528,-8.602956,2.212058,0.37963805,0.30144137,0.039212856
234,4.15528,-8.602956,2.212058,0.37963805,0.30144137,0.039212856
235,4.15528,-8.602956,2.212058,0.37963805,0.30144137,0.039212856
236,4.15528,-8.602956,2.212058,0.37963805,0.30144137,0.039212856
237,4.15528,-8.602956,2.212058,0.37963805,0.30144137,0.039212856
238,4.15528,-8.602956,2.212058,0.37963805,0.30144137,0.039212856
239,4.1122775,-8.612768,2.2538347,0.32595497,-0.023666676,0.12547462
240,4.1122775,-8.612768,2.2538347,0.32595497,-0.023666676,0.12547462
241,4.1122775,-8.612768,2.2538347,0.32595497,-0.023666676,0.12547462
242,4.1122775,-8.612768,2.2538347,0.32595497,-0.023666676,0.12547462
243,4.1122775,-8.612768,2.2538347,0.32595497,-0.023666676,0.12547462
244,4.1122775,-8.612768,2.2538347,0.32595497,-0.023666676,0.12547462
245,4.071026,-8.614122,2.3225105,0.20265006,-0.57830244,-0.5172047
246,4.071026,-8.614122,2.3225105,0.20265006,-0.57830244,-0.5172047
247,4.071026,-8.614122,2.3225105,0.20265006,-0.57830244,-0.5172047
248,4.071026,-8.614122,2.3225105,0.20265006,-0.57830244,-0.5172047
249,4.071026,-8.614122,2.3225105,0.20265006,-0.57830244,-0.5172047
250,4.071026,-8.614122,2.3225105,0.20265006,-0.57830244,-0.5172047
251,4.0392227,-8.610989,2.3887134,0.27604207,-0.093773745,0.023052547
252,4.0392227,-8.610989,2.3887134,0.27604207,-0.093773745,0.023052547
253,4.0392227,-8.610989,2.3887134,0.27604207,-0.093773745,0.023052547
254,4.0392227,-8.610989,2.3887134,0.27604207,-0.093773745,0.023052547
255,4.0392227,-8.610989,2.3887134,0.27604207,-0.093773745,0.023052547
256,4.0392227,-8.610989,2.3887134,0.27604207,-0.093773745,0.023052547
257,4.004372,-8.606478,2.4625053,0.16412817,-0.0928258,0.054492254
258,4.004372,-8.606478,2.4625053,0.16412817,-0.0928258,0.054492254
259,4.004372,-8.606478,2.4625053,0.16412817,-0.0928258,0.054492254
260,4.004372,-8.606478,2.4625053,0.16412817,-0.0928258,0.054492254
261,4.004372,-8.606478,2.4625053,0.16412817,-0.0928258,0.054492254
262,4.004372,-8.606478,2.4625053,0.16412817,-0.0928258,0.054492254
263,3.9754026,-8.600045,2.5309637,-0.064821735,0.11918333,0.0009445118
264,3.9754026,-8.600045,2.5309637,-0.064821735,0.11918333,0.0009445118
265,3.9754026,-8.600045,2.5309637,-0.064821735,0.11918333,0.0009445118
266,3.9754026,-8.600045,2.5309637,-0.064821735,0.11918333,0.0009445118
267,3.9754026,-8.600045,2.5309637,-0.064821735,0.11918333,0.0009445118
268,3.9754026,-8.600045,2.5309637,-0.064821735,0.11918333,0.0009445118
269,3.9630685,-8.598696,2.5547862,0.13404776,0.1407979,-0.27973327
270,3.9630685,-8.598696,2.5547862,0.13404776,0.1407979,-0.27973327
271,3.9630685,-8.598696,2.5547862,0.13404776,0.1407979,-0.27973327
272,3.9630685,-8.598696,2.5547862,0.13404776,0.1407979,-0.27973327
273,3.9630685,-8.598696,2.5547862,0.13404776,0.1407979,-0.27973327
274,3.9630685,-8.598696,2.5547862,0.13404776,0.1407979,-0.27973327
275,3.9534097,-8.597499,2.573704,0.11793164,-0.18806899,0.103900395
276,3.9534097,-8.597499,2.573704,0.11793164,-0.18806899,0.103900395
277,3.9534097,-8.597499,2.573704,0.11793164,-0.18806899,0.103900395
278,3.9534097,-8.597499,2.573704,0.11793164,-0.18806899,0.103900395
279,3.9534097,-8.597499,2.573704,0.11793164,-0.18806899,0.103900395
280,3.9534097,-8.597499,2.573704,0.11793164,-0.18806899,0.103900395
281,3.9623666,-8.603174,2.5407536,0.13739301,-0.421478,-0.5115536
282,3.9623666,-8.603174,2.5407536,0.13739301,-0.421478,-0.5115536
283,3.9623666,-8.603174,2.5407536,0.13739301,-0.421478,-0.5115536
284,3.9623666,-8.603174,2.5407536,0.13739301,-0.421478,-0.5115536
285,3.9623666,-8.603174,2.5407536,0.13739301,-0.421478,-0.5115536
286,3.9623666,-8.603174,2.5407536,0.13739301,-0.421478,-0.5115536
287,3.9865716,-8.607544,2.4875317,-0.09052947,0.19261226,0.16979772
288,3.9865716,-8.607544,2.4875317,-0.09052947,0.19261226,0.16979772
289,3.9865716,-8.607544,2.4875317,-0.09052947,0.19261226,0.16979772
290,3.9865716,-8.607544,2.4875317,-0.09052947,0.19261226,0.16979772
291,3.9865716,-8.607544,2.4875317,-0.09052947,0.19261226,0.16979772
292,3.9865716,-8.607544,2.4875317,-0.09052947,0.19261226,0.16979772
293,4.0217495,-8.608777,2.425878,-0.043989513,0.11341209,-0.06638881
294,4.0217495,-8.608777,2.425878,-0.043989513,0.11341209,-0.06638881
295,4.0217495,-8.608777,2.425878,-0.043989513,0.11341209,-0.06638881
296,4.0217495,-8.608777,2.425878,-0.043989513,0.11341209,-0.06638881
297,4.0217495,-8.608777,2.425878,-0.043989513,0.11341209,-0.06638881
298,4.0217495,-8.608777,2.425878,-0.043989513,0.11341209,-0.06638881
299,4.038383,-8.613488,2.3811078,-0.075973816,0.7513852,0.122340664
300,4.038383,-8.613488,2.3811078,-0.075973816,0.7513852,0.122340664
301,4.038383,-8.613488,2.3811078,-0.075973816,0.7513852,0.122340664
302,4.038383,-8.613488,2.3811078,-0.075973816,0.7513852,0.122340664
303,4.038383,-8.613488,2.3811078,-0.075973816,0.7513852,0.122340664
304,4.038383,-8.613488,2.3811078,-0.075973816,0.7513852,0.122340664
305,4.045743,-8.626021,2.3225207,0.09024712,0.022329394,0.037293985
306,4.045743,-8.626021,2.3225207,0.09024712,0.022329394,0.037293985
307,4.045743,-8.626021,2.3225207,0.09024712,0.022329394,0.037293985
308,4.045743,-8.626021,2.3225207,0.09024712,0.022329394,0.037293985
309,4.045743,-8.626021,2.3225207,0.09024712,0.022329394,0.037293985
310,4.045743,-8.626021,2.3225207,0.09024712,0.022329394,0.037293985
311,4.050138,-8.632194,2.2917264,0.2551896,-0.46397337,-0.19965178
312,4.050138,-8.632194,2.2917264,0.2551896,-0.46397337,-0.19965178
313,4.050138,-8.632194,2.2917264,0.2551896,-0.46397337,-0.19965178
314,4.050138,-8.632194,2.2917264,0.2551896,-0.46397337,-0.19965178
315,4.050138,-8.632194,2.2917264,0.2551896,-0.46397337,-0.19965178
316,4.050138,-8.632194,2.2917264,0.2551896,-0.46397337,-0.19965178
317,4.0393467,-8.63346,2.305954,0.17062205,-0.07995664,-0.4134598
318,4.0393467,-8.63346,2.305954,0.17062205,-0.07995664,-0.4134598
319,4.0393467,-8.63346,2.305954,0.17062205,-0.07995664,-0.4134598
320,4.0393467,-8.63346,2.305954,0.17062205,-0.07995664,-0.4134598
321,4.0393467,-8.63346,2.305954,0.17062205,-0.07995664,-0.4134598
322,4.0393467,-8.63346,2.305954,0.17062205,-0.07995664,-0.4134598
323,4.002861,-8.643573,2.3315542,0.04633863,-0.15566896,0.18416095
324,4.002861,-8.643573,2.3315542,0.04633863,-0.15566896,0.18416095
325,4.002861,-8.643573,2.3315542,0.04633863,-0.15566896,0.18416095
326,4.002861,-8.643573,2.3315542,0.04633863,-0.15566896,0.18416095
327,4.002861,-8.643573,2.3315542,0.04633863,-0.15566896,0.18416095
328,4.002861,-8.643573,2.3315542,0.04633863,-0.15566896,0.18416095
329,3.9700766,-8.647004,2.3744893,-0.23083535,0.17150582,0.13338073
330,3.9700766,-8.647004,2.3744893,-0.23083535,0.17150582,0.13338073
331,3.9700766,-8.647004,2.3744893,-0.23083535,0.17150582,0.13338073
332,3.9700766,-8.647004,2.3744893,-0.23083535,0.17150582,0.13338073
333,3.9700766,-8.647004,2.3744893,-0.23083535,0.17150582,0.13338073
334,3.9700766,-8.647004,2.3744893,-0.23083535,0.17150582,0.13338073
335,3.9629934,-8.646983,2.3863676,0.23263916,0.068027794,-0.49849245
336,3.9629934,-8.646983,2.3863676,0.23263916,0.068027794,-0.49849245
337,3.9629934,-8.646983,2.3863676,0.23263916,0.068027794,-0.49849245
338,3.9629934,-8.646983,2.3863676,0.23263916,0.068027794,-0.49849245
339,3.9629934,-8.646983,2.3863676,0.23263916,0.068027794,-0.49849245
340,3.9629934,-8.646983,2.3863676,0.23263916,0.068027794,-0.49849245
341,3.9504156,-8.641158,2.427958,0.24014308,-0.03339425,-0.13744146
342,3.9504156,-8.641158,2.427958,0.24014308,-0.03339425,-0.13744146
343,3.9504156,-8.641158,2.427958,0.24014308,-0.03339425,-0.13744146
344,3.9504156,-8.641158,2.427958,0.24014308,-0.03339425,-0.13744146
345,3.9504156,-8.641158,2.427958,0.24014308,-0.03339425,-0.13744146
346,3.9504156,-8.641158,2.427958,0.24014308,-0.03339425,-0.13744146
347,3.9302256,-8.618034,2.5403152,-0.18462189,-0.49669802,-0.90648264
348,3.9302256,-8.618034,2.5403152,-0.18462189,-0.49669802,-0.90648264
349,3.9302256,-8.618034,2.5403152,-0.18462189,-0.49669802,-0.90648264
350,3.9302256,-8.618034,2.5403152,-0.18462189,-0.49669802,-0.90648264
351,3.9302256,-8.618034,2.5403152,-0.18462189,-0.49669802,-0.90648264
352,3.9302256,-8.618034,2.5403152,-0.18462189,-0.49669802,-0.90648264
353,3.9245136,-8.595256,2.624912,0.3375661,0.22119926,-0.21157062
354,3.9245136,-8.595256,2.624912,0.3375661,0.22119926,-0.21157062
355,3.9245136,-8.595256,2.624912,0.3375661,0.22119926,-0.21157062
356,3.9245136,-8.595256,2.624912,0.3375661,0.22119926,-0.21157062
357,3.9245136,-8.595256,2.624912,0.3375661,0.22119926,-0.21157062
358,3.9245136,-8.595256,2.624912,0.3375661,0.22119926,-0.21157062
359,3.9170785,-8.560589,2.7464905,0.026855726,-0.030550532,0.11907312
360,3.9170785,-8.560589,2.7464905,0.026855726,-0.030550532,0.11907312
361,3.9170785,-8.560589,2.7464905,0.026855726,-0.030550532,0.11907312
362,3.9170785,-8.560589,2.7464905,0.026855726,-0.030550532,0.11907312
363,3.9170785,-8.560589,2.7464905,0.026855726,-0.030550532,0.11907312
364,3.9170785,-8.560589,2.7464905,0.026855726,-0.030550532,0.11907312
365,3.8949237,-8.537298,2.8485942,-0.34344077,0.371101,0.27786794
366,3.8949237,-8.537298,2.8485942,-0.34344077,0.371101,0.27786794
367,3.8949237,-8.537298,2.8485942,-0.34344077,0.371101,0.27786794
368,3.8949237,-8.537298,2.8485942,-0.34344077,0.371101,0.27786794
369,3.8949237,-8.537298,2.8485942,-0.34344077,0.371101,0.27786794
370,3.8949237,-8.537298,2.8485942,-0.34344077,0.371101,0.27786794
371,3.8610325,-8.510338,2.9727027,-0.01790657,0.00044193713,0.36617687
372,3.8610325,-8.510338,2.9727027,-0.01790657,0.00044193713,0.36617687
373,3.8610325,-8.510338,2.9727027,-0.01790657,0.00044193713,0.36617687
374,3.8610325,-8.510338,2.9727027,-0.01790657,0.00044193713,0.36617687
375,3.8610325,-8.510338,2.9727027,-0.01790657,0.00044193713,0.36617687
376,3.8610325,-8.510338,2.9727027,-0.01790657,0.00044193713,0.36617687
377,3.8551764,-8.470221,3.0924695,-0.14590132,-0.13311684,0.13676901
378,3.8551764,-8.470221,3.0924695,-0.14590132,-0.13311684,0.13676901
379,3.8551764,-8.470221,3.0924695,-0.14590132,-0.13311684,0.13676901
380,3.8551764,-8.470221,3.0924695,-0.14590132,-0.13311684,0.13676901
381,3.8551764,-8.470221,3.0924695,-0.14590132,-0.13311684,0.13676901
382,3.8551764,-8.470221,3.0924695,-0.14590132,-0.13311684,0.13676901
383,3.871917,-8.44961,3.1277373,0.32829967,-0.118324876,0.20089024
384,3.871917,-8.44961,3.1277373,0.32829967,-0.118324876,0.20089024
385,3.871917,-8.44961,3.1277373,0.32829967,-0.118324876,0.20089024
386,3.871917,-8.44961,3.1277373,0.32829967,-0.118324876,0.20089024
387,3.871917,-8.44961,3.1277373,0.32829967,-0.118324876,0.20089024
388,3.871917,-8.44961,3.1277373,0.32829967,-0.118324876,0.20089024
389,3.8736944,-8.440537,3.1499538,-0.56135124,0.280901,0.09625794
390,3.8736944,-8.440537,3.1499538,-0.56135124,0.280901,0.09625794
391,3.8736944,-8.440537,3.1499538,-0.56135124,0.280901,0.09625794
392,3.8736944,-8.440537,3.1499538,-0.56135124,0.280901,0.09625794
393,3.8736944,-8.440537,3.1499538,-0.56135124,0.280901,0.09625794
394,3.8736944,-8.440537,3.1499538,-0.56135124,0.280901,0.09625794
395,3.8992033,-8.440166,3.1193254,0.046998717,0.22529383,0.3049773
396,3.8992033,-8.440166,3.1193254,0.046998717,0.22529383,0.3049773
397,3.8992033,-8.440166,3.1193254,0.046998717,0.22529383,0.3049773
398,3.8992033,-8.440166,3.1193254,0.046998717,0.22529383,0.3049773
399,3.8992033,-8.440166,3.1193254,0.046998717,0.22529383,0.3049773
400,3.8992033,-8.440166,3.1193254,0.046998717,0.22529383,0.3049773
401,3.9367652,-8.43333,3.090501,-0.041914035,0.12885608,0.12387738
402,3.9367652,-8.43333,3.090501,-0.041914035,0.12885608,0.12387738
403,3.9367652,-8.43333,3.090501,-0.041914035,0.12885608,0.12387738
404,3.9367652,-8.43333,3.090501,-0.041914035,0.12885608,0.12387738
405,3.9367652,-8.43333,3.090501,-0.041914035,0.12885608,0.12387738
406,3.9367652,-8.43333,3.090501,-0.041914035,0.12885608,0.12387738
407,3.9720917,-8.439062,3.0290444,-0.21598652,0.25127646,-0.3094872
408,3.9720917,-8.439062,3.0290444,-0.21598652,0.25127646,-0.3094872
409,3.9720917,-8.439062,3.0290444,-0.21598652,0.25127646,-0.3094872
410,3.9720917,-8.439062,3.0290444,-0.21598652,0.25127646,-0.3094872
411,3.9720917,-8.439062,3.0290444,-0.21598652,0.25127646,-0.3094872
412,3.9720917,-8.439062,3.0290444,-0.21598652,0.25127646,-0.3094872
413,3.9899561,-8.462299,2.9394085,0.051368628,-0.005887796,0.12507138
414,3.9899561,-8.462299,2.9394085,0.051368628,-0.005887796,0.12507138
415,3.9899561,-8.462299,2.9394085,0.051368628,-0.005887796,0.12507138
416,3.9899561,-8.462299,2.9394085,0.051368628,-0.005887796,0.12507138
417,3.9899561,-8.462299,2.9394085,0.051368628,-0.005887796,0.12507138
418,3.9899561,-8.462299,2.9394085,0.051368628,-0.005887796,0.12507138
419,4.018169,-8.47656,2.8587832,0.27682462,-0.6111387,-0.20237395
420,4.018169,-8.47656,2.8587832,0.27682462,-0.6111387,-0.20237395
421,4.018169,-8.47656,2.8587832,0.27682462,-0.6111387,-0.20237395
422,4.018169,-8.47656,2.8587832,0.27682462,-0.6111387,-0.20237395
423,4.018169,-8.47656,2.8587832,0.27682462,-0.6111387,-0.20237395
424,4.018169,-8.47656,2.8587832,0.27682462,-0.6111387,-0.20237395
425,4.027874,-8.498027,2.7803156,-0.035555378,-0.2482176,0.52131045
426,4.027874,-8.498027,2.7803156,-0.035555378,-0.2482176,0.52131045
427,4.027874,-8.498027,2.7803156,-0.035555378,-0.2482176,0.52131045
428,4.027874,-8.498027,2.7803156,-0.035555378,-0.2482176,0.52131045
429,4.027874,-8.498027,2.7803156,-0.035555378,-0.2482176,0.52131045
430,4.027874,-8.498027,2.7803156,-0.035555378,-0.2482176,0.52131045
431,4.029037,-8.51847,2.7153118,-0.011031124,-0.2576232,0.15933703
432,4.029037,-8.51847,2.7153118,-0.011031124,-0.2576232,0.15933703
433,4.029037,-8.51847,2.7153118,-0.011031124,-0.2576232,0.15933703
434,4.029037,-8.51847,2.7153118,-0.011031124,-0.2576232,0.15933703
435,4.029037,-8.51847,2.7153118,-0.011031124,-0.2576232,0.15933703
436,4.029037,-8.51847,2.7153118,-0.011031124,-0.2576232,0.15933703
437,4.022212,-8.542894,2.6478615,-0.14156522,0.20310734,0.041659452
438,4.022212,-8.542894,2.6478615,-0.14156522,0.20310734,0.041659452
439,4.022212,-8.542894,2.6478615,-0.14156522,0.20310734,0.041659452
440,4.022212,-8.542894,2.6478615,-0.14156522,0.20310734,0.041659452
441,4.022212,-8.542894,2.6478615,-0.14156522,0.20310734,0.041659452
442,4.022212,-8.542894,2.6478615,-0.14156522,0.20310734,0.041659452
443,4.0194297,-8.561202,2.5923722,0.17152046,0.2700652,-0.48774344
444,4.0194297,-8.561202,2.5923722,0.17152046,0.2700652,-0.48774344
445,4.0194297,-8.561202,2.5923722,0.17152046,0.2700652,-0.48774344
446,4.0194297,-8.561202,2.5923722,0.17152046,0.2700652,-0.48774344
447,4.0194297,-8.561202,2.5923722,0.17152046,0.2700652,-0.48774344
448,4.0194297,-8.561202,2.5923722,0.17152046,0.2700652,-0.48774344
449,4.0194297,-8.561202,2.5923722,0.17152046,0.2700652,-0.48774344
450,4.0031962,-8.568548,2.5932178,0.19817628,-0.18853465,0.016076582
451,4.0031962,-8.568548,2.5932178,0.19817628,-0.18853465,0.016076582
452,4.0031962,-8.568548,2.5932178,0.19817628,-0.18853465,0.016076582
453,4.0031962,-8.568548,2.5932178,0.19817628,-0.18853465,0.016076582
454,4.0031962,-8.568548,2.5932178,0.19817628,-0.18853465,0.016076582
455,3.980505,-8.607918,2.4959407,0.015260976,-0.49469054,-1.0369395
456,3.980505,-8.607918,2.4959407,0.015260976,-0.49469054,-1.0369395
457,3.980505,-8.607918,2.4959407,0.015260976,-0.49469054,-1.0369395
458,3.980505,-8.607918,2.4959407,0.015260976,-0.49469054,-1.0369395
459,3.980505,-8.607918,2.4959407,0.015260976,-0.49469054,-1.0369395
460,3.980505,-8.607918,2.4959407,0.015260976,-0.49469054,-1.0369395
461,3.9607224,-8.632657,2.4413729,-0.017506776,0.3984771,-0.054558918
462,3.9607224,-8.632657,2.4413729,-0.017506776,0.3984771,-0.054558918
463,3.9607224,-8.632657,2.4413729,-0.017506776,0.3984771,-0.054558918
464,3.9607224,-8.632657,2.4413729,-0.017506776,0.3984771,-0.054558918
465,3.9607224,-8.632657,2.4413729,-0.017506776,0.3984771,-0.054558918
466,3.9607224,-8.632657,2.4413729,-0.017506776,0.3984771,-0.054558918
467,3.9385653,-8.657479,2.3887541,0.15742002,-0.029688725,-0.0735899
468,3.9385653,-8.657479,2.3887541,0.15742002,-0.029688725,-0.0735899
469,3.9385653,-8.657479,2.3887541,0.15742002,-0.029688725,-0.0735899
470,3.9385653,-8.657479,2.3887541,0.15742002,-0.029688725,-0.0735899
471,3.9385653,-8.657479,2.3887541,0.15742002,-0.029688725,-0.0735899
472,3.9385653,-8.657479,2.3887541,0.15742002,-0.029688725,-0.0735899
473,3.8832364,-8.695291,2.3415318,-0.19087616,0.54828894,-0.049116753
474,3.8832364,-8.695291,2.3415318,-0.19087616,0.54828894,-0.049116753
475,3.8832364,-8.695291,2.3415318,-0.19087616,0.54828894,-0.049116753
476,3.8832364,-8.695291,2.3415318,-0.19087616,0.54828894,-0.049116753
477,3.8832364,-8.695291,2.3415318,-0.19087616,0.54828894,-0.049116753
478,3.8832364,-8.695291,2.3415318,-0.19087616,0.54828894,-0.049116753
479,3.825649,-8.72827,2.3134613,-0.20797305,0.15834075,0.277987
480,3.825649,-8.72827,2.3134613,-0.20797305,0.15834075,0.277987
481,3.825649,-8.72827,2.3134613,-0.20797305,0.15834075,0.277987
482,3.825649,-8.72827,2.3134613,-0.20797305,0.15834075,0.277987
483,3.825649,-8.72827,2.3134613,-0.20797305,0.15834075,0.277987
484,3.825649,-8.72827,2.3134613,-0.20797305,0.15834075,0.277987
485,3.7931905,-8.75291,2.2734687,0.29782128,-0.51386356,-0.05849545
486,3.7931905,-8.75291,2.2734687,0.29782128,-0.51386356,-0.05849545
487,3.7931905,-8.75291,2.2734687,0.29782128,-0.51386356,-0.05849545
488,3.7931905,-8.75291,2.2734687,0.29782128,-0.51386356,-0.05849545
489,3.7931905,-8.75291,2.2734687,0.29782128,-0.51386356,-0.05849545
490,3.7931905,-8.75291,2.2734687,0.29782128,-0.51386356,-0.05849545
491,3.7350912,-8.777093,2.2764316,-0.55595547,0.9733957,0.19464971
492,3.7350912,-8.777093,2.2764316,-0.55595547,0.9733957,0.19464971
493,3.7350912,-8.777093,2.2764316,-0.55595547,0.9733957,0.19464971
494,3.7350912,-8.777093,2.2764316,-0.55595547,0.9733957,0.19464971
495,3.7350912,-8.777093,2.2764316,-0.55595547,0.9733957,0.19464971
496,3.7350912,-8.777093,2.2764316,-0.55595547,0.9733957,0.19464971
497,3.7026289,-8.7883215,2.2861187,-0.133629,-0.14992338,0.20735192
498,3.7026289,-8.7883215,2.2861187,-0.133629,-0.14992338,0.20735192
499,3.7026289,-8.7883215,2.2861187,-0.133629,-0.14992338,0.20735192
500,3.7026289,-8.7883215,2.2861187,-0.133629,-0.14992338,0.20735192
501,3.7026289,-8.7883215,2.2861187,-0.133629,-0.14992338,0.20735192
502,3.7026289,-8.7883215,2.2861187,-0.133629,-0.14992338,0.20735192
503,3.6908808,-8.796195,2.2748046,-0.0010832855,0.28467187,-0.08813423
504,3.6908808,-8.796195,2.2748046,-0.0010832855,0.28467187,-0.08813423
505,3.6908808,-8.796195,2.2748046,-0.0010832855,0.28467187,-0.08813423
506,3.6908808,-8.796195,2.2748046,-0.0010832855,0.28467187,-0.08813423
507,3.6908808,-8.796195,2.2748046,-0.0010832855,0.28467187,-0.08813423
508,3.6908808,-8.796195,2.2748046,-0.0010832855,0.28467187,-0.08813423
509,3.7076085,-8.791699,2.2649622,0.09678037,0.59068954,0.015807005
510,3.7076085,-8.791699,2.2649622,0.09678037,0.59068954,0.015807005
511,3.7076085,-8.791699,2.2649622,0.09678037,0.59068954,0.015807005
512,3.7076085,-8.791699,2.2649622,0.09678037,0.59068954,0.015807005
513,3.7076085,-8.791699,2.2649622,0.09678037,0.59068954,0.015807005
514,3.7076085,-8.791699,2.2649622,0.09678037,0.59068954,0.015807005
515,3.7114294,-8.788215,2.2722132,0.32463104,0.06436961,-0.09425575
516,3.7114294,-8.788215,2.2722132,0.32463104,0.06436961,-0.09425575
517,3.7114294,-8.788215,2.2722132,0.32463104,0.06436961,-0.09425575
518,3.7114294,-8.788215,2.2722132,0.32463104,0.06436961,-0.09425575
519,3.7114294,-8.788215,2.2722132,0.32463104,0.06436961,-0.09425575
520,3.7114294,-8.788215,2.2722132,0.32463104,0.06436961,-0.09425575
521,3.7061365,-8.798872,2.2393675,0.2167064,-0.51269144,-0.25868163
522,3.7061365,-8.798872,2.2393675,0.2167064,-0.51269144,-0.25868163
523,3.7061365,-8.798872,2.2393675,0.2167064,-0.51269144,-0.25868163
524,3.7061365,-8.798872,2.2393675,0.2167064,-0.51269144,-0.25868163
525,3.7061365,-8.798872,2.2393675,0.2167064,-0.51269144,-0.25868163
526,3.7061365,-8.798872,2.2393675,0.2167064,-0.51269144,-0.25868163
527,3.7301385,-8.81656,2.127139,0.33581236,-0.131813,-0.30477792
528,3.7301385,-8.81656,2.127139,0.33581236,-0.131813,-0.30477792
529,3.7301385,-8.81656,2.127139,0.33581236,-0.131813,-0.30477792
530,3.7301385,-8.81656,2.127139,0.33581236,-0.131813,-0.30477792
531,3.7301385,-8.81656,2.127139,0.33581236,-0.131813,-0.30477792
532,3.7301385,-8.81656,2.127139,0.33581236,-0.131813,-0.30477792
533,3.734954,-8.835169,2.0396826,0.013659804,-0.19667666,0.01871277
534,3.734954,-8.835169,2.0396826,0.013659804,-0.19667666,0.01871277
535,3.734954,-8.835169,2.0396826,0.013659804,-0.19667666,0.01871277
536,3.734954,-8.835169,2.0396826,0.013659804,-0.19667666,0.01871277
537,3.734954,-8.835169,2.0396826,0.013659804,-0.19667666,0.01871277
538,3.734954,-8.835169,2.0396826,0.013659804,-0.19667666,0.01871277
539,3.7224672,-8.8619,1.9443097,-0.25119472,0.19889951,-0.027129676
540,3.7224672,-8.8619,1.9443097,-0.25119472,0.19889951,-0.027129676
541,3.7224672,-8.8619,1.9443097,-0.25119472,0.19889951,-0.027129676
542,3.7224672,-8.8619,1.9443097,-0.25119472,0.19889951,-0.027129676
543,3.7224672,-8.8619,1.9443097,-0.25119472,0.19889951,-0.027129676
544,3.7224672,-8.8619,1.9443097,-0.25119472,0.19889951,-0.027129676
545,3.6946807,-8.892058,1.8576947,-0.10954539,0.053296003,-0.2722062
546,3.6946807,-8.892058,1.8576947,-0.10954539,0.053296003,-0.2722062
547,3.6946807,-8.892058,1.8576947,-0.10954539,0.053296003,-0.2722062
548,3.6946807,-8.892058,1.8576947,-0.10954539,0.053296003,-0.2722062
549,3.6946807,-8.892058,1.8576947,-0.10954539,0.053296003,-0.2722062
550,3.6946807,-8.892058,1.8576947,-0.10954539,0.053296003,-0.2722062
551,3.666482,-8.922407,1.7657745,0.14139947,-0.2109387,-0.04484087
552,3.666482,-8.922407,1.7657745,0.14139947,-0.2109387,-0.04484087
553,3.666482,-8.922407,1.7657745,0.14139947,-0.2109387,-0.04484087
554,3.666482,-8.922407,1.7657745,0.14139947,-0.2109387,-0.04484087
555,3.666482,-8.922407,1.7657745,0.14139947,-0.2109387,-0.04484087
556,3.666482,-8.922407,1.7657745,0.14139947,-0.2109387,-0.04484087
557,3.627885,-8.94813,1.7145877,0.023734435,-0.56549114,-0.93452144
558,3.627885,-8.94813,1.7145877,0.023734435,-0.56549114,-0.93452144
559,3.627885,-8.94813,1.7145877,0.023734435,-0.56549114,-0.93452144
560,3.627885,-8.94813,1.7145877,0.023734435,-0.56549114,-0.93452144
561,3.627885,-8.94813,1.7145877,0.023734435,-0.56549114,-0.93452144
562,3.627885,-8.94813,1.7145877,0.023734435,-0.56549114,-0.93452144
563,3.588545,-8.955073,1.7605098,0.019236125,0.30850166,-0.1132254
564,3.588545,-8.955073,1.7605098,0.019236125,0.30850166,-0.1132254
565,3.588545,-8.955073,1.7605098,0.019236125,0.30850166,-0.1132254
566,3.588545,-8.955073,1.7605098,0.019236125,0.30850166,-0.1132254
567,3.588545,-8.955073,1.7605098,0.019236125,0.30850166,-0.1132254
568,3.588545,-8.955073,1.7605098,0.019236125,0.30850166,-0.1132254
569,3.564961,-8.958122,1.7926204,0.014391465,-0.02909601,-0.11580952
570,3.564961,-8.958122,1.7926204,0.014391465,-0.02909601,-0.11580952
571,3.564961,-8.958122,1.7926204,0.014391465,-0.02909601,-0.11580952
572,3.564961,-8.958122,1.7926204,0.014391465,-0.02909601,-0.11580952
573,3.564961,-8.958122,1.7926204,0.014391465,-0.02909601,-0.11580952
574,3.564961,-8.958122,1.7926204,0.014391465,-0.02909601,-0.11580952
575,3.536366,-8.959843,1.8400333,-0.44979128,0.13912795,0.029600468
576,3.536366,-8.959843,1.8400333,-0.44979128,0.13912795,0.029600468
577,3.536366,-8.959843,1.8400333,-0.44979128,0.13912795,0.029600468
578,3.536366,-8.959843,1.8400333,-0.44979128,0.13912795,0.029600468
579,3.536366,-8.959843,1.8400333,-0.44979128,0.13912795,0.029600468
580,3.536366,-8.959843,1.8400333,-0.44979128,0.13912795,0.029600468
581,3.5185037,-8.956385,1.8904197,-0.107491635,0.06431089,-0.5290351
582,3.5185037,-8.956385,1.8904197,-0.107491635,0.06431089,-0.5290351
583,3.5185037,-8.956385,1.8904197,-0.107491635,0.06431089,-0.5290351
584,3.5185037,-8.956385,1.8904197,-0.107491635,0.06431089,-0.5290351
585,3.5185037,-8.956385,1.8904197,-0.107491635,0.06431089,-0.5290351
586,3.5185037,-8.956385,1.8904197,-0.107491635,0.06431089,-0.5290351
587,3.511093,-8.947564,1.9451736,0.093832195,-0.29257765,0.0735099
588,3.511093,-8.947564,1.9451736,0.093832195,-0.29257765,0.0735099
589,3.511093,-8.947564,1.9451736,0.093832195,-0.29257765,0.0735099
590,3.511093,-8.947564,1.9451736,0.093832195,-0.29257765,0.0735099
591,3.511093,-8.947564,1.9451736,0.093832195,-0.29257765,0.0735099
592,3.511093,-8.947564,1.9451736,0.093832195,-0.29257765,0.0735099
593,3.5206497,-8.9360895,1.9803323,0.18803617,-0.19622567,0.09368974
594,3.5206497,-8.9360895,1.9803323,0.18803617,-0.19622567,0.09368974
595,3.5206497,-8.9360895,1.9803323,0.18803617,-0.19622567,0.09368974
596,3.5206497,-8.9360895,1.9803323,0.18803617,-0.19622567,0.09368974
597,3.5206497,-8.9360895,1.9803323,0.18803617,-0.19622567,0.09368974
598,3.5206497,-8.9360895,1.9803323,0.18803617,-0.19622567,0.09368974
599,3.5097342,-8.945962,1.9549706,-0.4598278,0.01900252,-0.5175739
600,3.5097342,-8.945962,1.9549706,-0.4598278,0.01900252,-0.5175739
601,3.5097342,-8.945962,1.9549706,-0.4598278,0.01900252,-0.5175739
602,3.5097342,-8.945962,1.9549706,-0.4598278,0.01900252,-0.5175739
603,3.5097342,-8.945962,1.9549706,-0.4598278,0.01900252,-0.5175739
604,3.5097342,-8.945962,1.9549706,-0.4598278,0.01900252,-0.5175739
605,3.506541,-8.959765,1.8966179,-0.025731659,0.21869841,0.36972672
606,3.506541,-8.959765,1.8966179,-0.025731659,0.21869841,0.36972672
607,3.506541,-8.959765,1.8966179,-0.025731659,0.21869841,0.36972672
608,3.506541,-8.959765,1.8966179,-0.025731659,0.21869841,0.36972672
609,3.506541,-8.959765,1.8966179,-0.025731659,0.21869841,0.36972672
610,3.506541,-8.959765,1.8966179,-0.025731659,0.21869841,0.36972672
611,3.5215924,-8.96612,1.8377892,0.03291197,-0.040649757,0.18654446
612,3.5215924,-8.96612,1.8377892,0.03291197,-0.040649757,0.18654446
613,3.5215924,-8.96612,1.8377892,0.03291197,-0.040649757,0.18654446
614,3.5215924,-8.96612,1.8377892,0.03291197,-0.040649757,0.18654446
615,3.5215924,-8.96612,1.8377892,0.03291197,-0.040649757,0.18654446
616,3.5215924,-8.96612,1.8377892,0.03291197,-0.040649757,0.18654446
617,3.5545545,-8.971356,1.7465103,-0.14579454,-0.084137596,-0.25132445
618,3.5545545,-8.971356,1.7465103,-0.14579454,-0.084137596,-0.25132445
619,3.5545545,-8.971356,1.7465103,-0.14579454,-0.084137596,-0.25132445
620,3.5545545,-8.971356,1.7465103,-0.14579454,-0.084137596,-0.25132445
621,3.5545545,-8.971356,1.7465103,-0.14579454,-0.084137596,-0.25132445
622,3.5545545,-8.971356,1.7465103,-0.14579454,-0.084137596,-0.25132445
623,3.569971,-8.979853,1.6697098,-0.04074284,0.10536078,0.19918595
624,3.569971,-8.979853,1.6697098,-0.04074284,0.10536078,0.19918595
625,3.569971,-8.979853,1.6697098,-0.04074284,0.10536078,0.19918595
626,3.569971,-8.979853,1.6697098,-0.04074284,0.10536078,0.19918595
627,3.569971,-8.979853,1.6697098,-0.04074284,0.10536078,0.19918595
628,3.569971,-8.979853,1.6697098,-0.04074284,0.10536078,0.19918595
629,3.5906756,-8.980978,1.6184751,0.25325996,-0.4736573,-0.204826
630,3.5906756,-8.980978,1.6184751,0.25325996,-0.4736573,-0.204826
631,3.5906756,-8.980978,1.6184751,0.25325996,-0.4736573,-0.204826
632,3.5906756,-8.980978,1.6184751,0.25325996,-0.4736573,-0.204826
633,3.5906756,-8.980978,1.6184751,0.25325996,-0.4736573,-0.204826
634,3.5906756,-8.980978,1.6184751,0.25325996,-0.4736573,-0.204826
635,3.5990257,-8.963364,1.6957381,0.059841722,-0.19558911,-0.51812917
636,3.5990257,-8.963364,1.6957381,0.059841722,-0.19558911,-0.51812917
637,3.5990257,-8.963364,1.6957381,0.059841722,-0.19558911,-0.51812917
638,3.5990257,-8.963364,1.6957381,0.059841722,-0.19558911,-0.51812917
639,3.5990257,-8.963364,1.6957381,0.059841722,-0.19558911,-0.51812917
640,3.5990257,-8.963364,1.6957381,0.059841722,-0.19558911,-0.51812917
641,3.580687,-8.949114,1.80622,-0.004018143,-0.17998123,0.07301261
642,3.580687,-8.949114,1.80622,-0.004018143,-0.17998123,0.07301261
643,3.580687,-8.949114,1.80622,-0.004018143,-0.17998123,0.07301261
644,3.580687,-8.949114,1.80622,-0.004018143,-0.17998123,0.07301261
645,3.580687,-8.949114,1.80622,-0.004018143,-0.17998123,0.07301261
646,3.580687,-8.949114,1.80622,-0.004018143,-0.17998123,0.07301261
647,3.5473454,-8.936931,1.9282128,-0.12749295,0.16196433,-0.060497984
648,3.5473454,-8.936931,1.9282128,-0.12749295,0.16196433,-0.060497984
649,3.5473454,-8.936931,1.9282128,-0.12749295,0.16196433,-0.060497984
650,3.5473454,-8.936931,1.9282128,-0.12749295,0.16196433,-0.060497984
651,3.5473454,-8.936931,1.9282128,-0.12749295,0.16196433,-0.060497984
652,3.5473454,-8.936931,1.9282128,-0.12749295,0.16196433,-0.060497984
653,3.5334194,-8.914586,2.0531662,-0.11280477,0.64357024,0.025944607
654,3.5334194,-8.914586,2.0531662,-0.11280477,0.64357024,0.025944607
655,3.5334194,-8.914586,2.0531662,-0.11280477,0.64357024,0.025944607
656,3.5334194,-8.914586,2.0531662,-0.11280477,0.64357024,0.025944607
657,3.5334194,-8.914586,2.0531662,-0.11280477,0.64357024,0.025944607
658,3.5334194,-8.914586,2.0531662,-0.11280477,0.64357024,0.025944607
659,3.5530086,-8.886572,2.1390095,-0.049793657,0.08118966,-0.3245568
660,3.5530086,-8.886572,2.1390095,-0.049793657,0.08118966,-0.3245568
661,3.5530086,-8.886572,2.1390095,-0.049793657,0.08118966,-0.3245568
662,3.5530086,-8.886572,2.1390095,-0.049793657,0.08118966,-0.3245568
663,3.5530086,-8.886572,2.1390095,-0.049793657,0.08118966,-0.3245568
664,3.5530086,-8.886572,2.1390095,-0.049793657,0.08118966,-0.3245568
665,3.5671372,-8.860304,2.2228224,0.19619177,-0.41937837,-0.13443473
666,3.5671372,-8.860304,2.2228224,0.19619177,-0.41937837,-0.13443473
667,3.5671372,-8.860304,2.2228224,0.19619177,-0.41937837,-0.13443473
668,3.5671372,-8.860304,2.2228224,0.19619177,-0.41937837,-0.13443473
669,3.5671372,-8.860304,2.2228224,0.19619177,-0.41937837,-0.13443473
670,3.5671372,-8.860304,2.2228224,0.19619177,-0.41937837,-0.13443473
671,3.6128504,-8.837743,2.2387507,-0.35559854,1.0980278,0.8692873
672,3.6128504,-8.837743,2.2387507,-0.35559854,1.0980278,0.8692873
673,3.6128504,-8.837743,2.2387507,-0.35559854,1.0980278,0.8692873
674,3.6128504,-8.837743,2.2387507,-0.35559854,1.0980278,0.8692873
675,3.6128504,-8.837743,2.2387507,-0.35559854,1.0980278,0.8692873
676,3.6128504,-8.837743,2.2387507,-0.35559854,1.0980278,0.8692873
677,3.6777258,-8.811948,2.2347913,-0.14348924,-0.13329533,0.08350802
678,3.6777258,-8.811948,2.2347913,-0.14348924,-0.13329533,0.08350802
679,3.6777258,-8.811948,2.2347913,-0.14348924,-0.13329533,0.08350802
680,3.6777258,-8.811948,2.2347913,-0.14348924,-0.13329533,0.08350802
681,3.6777258,-8.811948,2.2347913,-0.14348924,-0.13329533,0.08350802
682,3.7316036,-8.78823,2.2388685,-0.10431724,0.0126279695,0.07318513
683,3.7316036,-8.78823,2.2388685,-0.10431724,0.0126279695,0.07318513
684,3.7316036,-8.78823,2.2388685,-0.10431724,0.0126279695,0.07318513
685,3.7316036,-8.78823,2.2388685,-0.10431724,0.0126279695,0.07318513
686,3.7316036,-8.78823,2.2388685,-0.10431724,0.0126279695,0.07318513
687,3.7366357,-8.7774935,2.272346,-0.23266643,0.5115988,0.20448363
688,3.7366357,-8.7774935,2.272346,-0.23266643,0.5115988,0.20448363
689,3.7366357,-8.7774935,2.272346,-0.23266643,0.5115988,0.20448363
690,3.7366357,-8.7774935,2.272346,-0.23266643,0.5115988,0.20448363
691,3.7366357,-8.7774935,2.272346,-0.23266643,0.5115988,0.20448363
692,3.7366357,-8.7774935,2.272346,-0.23266643,0.5115988,0.20448363
693,3.7249393,-8.7710905,2.3158538,-0.17333259,0.062210284,0.40123564
694,3.7249393,-8.7710905,2.3158538,-0.17333259,0.062210284,0.40123564
695,3.7249393,-8.7710905,2.3158538,-0.17333259,0.062210284,0.40123564
696,3.7249393,-8.7710905,2.3158538,-0.17333259,0.062210284,0.40123564
697,3.7249393,-8.7710905,2.3158538,-0.17333259,0.062210284,0.40123564
698,3.7249393,-8.7710905,2.3158538,-0.17333259,0.062210284,0.40123564
699,3.7063155,-8.760218,2.3858316,0.17816362,-0.40087795,-0.104150906
700,3.7063155,-8.760218,2.3858316,0.17816362,-0.40087795,-0.104150906
701,3.7063155,-8.760218,2.3858316,0.17816362,-0.40087795,-0.104150906
702,3.7063155,-8.760218,2.3858316,0.17816362,-0.40087795,-0.104150906
703,3.7063155,-8.760218,2.3858316,0.17816362,-0.40087795,-0.104150906
704,3.7063155,-8.760218,2.3858316,0.17816362,-0.40087795,-0.104150906
705,3.6688771,-8.75275,2.4696324,0.37642655,-0.2981009,-0.35821393
706,3.6688771,-8.75275,2.4696324,0.37642655,-0.2981009,-0.35821393
707,3.6688771,-8.75275,2.4696324,0.37642655,-0.2981009,-0.35821393
708,3.6688771,-8.75275,2.4696324,0.37642655,-0.2981009,-0.35821393
709,3.6688771,-8.75275,2.4696324,0.37642655,-0.2981009,-0.35821393
710,3.6688771,-8.75275,2.4696324,0.37642655,-0.2981009,-0.35821393
711,3.6295002,-8.7466135,2.5483065,-0.2020978,0.016870216,0.21162525
712,3.6295002,-8.7466135,2.5483065,-0.2020978,0.016870216,0.21162525
713,3.6295002,-8.7466135,2.5483065,-0.2020978,0.016870216,0.21162525
714,3.6295002,-8.7466135,2.5483065,-0.2020978,0.016870216,0.21162525
715,3.6295002,-8.7466135,2.5483065,-0.2020978,0.016870216,0.21162525
716,3.6295002,-8.7466135,2.5483065,-0.2020978,0.016870216,0.21162525
717,3.6013181,-8.730101,2.6431477,-0.039499883,0.06638866,0.13050382
718,3.6013181,-8.730101,2.6431477,-0.039499883,0.06638866,0.13050382
719,3.6013181,-8.730101,2.6431477,-0.039499883,0.06638866,0.13050382
720,3.6013181,-8.730101,2.6431477,-0.039499883,0.06638866,0.13050382
721,3.6013181,-8.730101,2.6431477,-0.039499883,0.06638866,0.13050382
722,3.6013181,-8.730101,2.6431477,-0.039499883,0.06638866,0.13050382
723,3.5874615,-8.713998,2.7141767,-0.10583155,0.10805547,0.0035128947
724,3.5874615,-8.713998,2.7141767,-0.10583155,0.10805547,0.0035128947
725,3.5874615,-8.713998,2.7141767,-0.10583155,0.10805547,0.0035128947
726,3.5874615,-8.713998,2.7141767,-0.10583155,0.10805547,0.0035128947
727,3.5874615,-8.713998,2.7141767,-0.10583155,0.10805547,0.0035128947
728,3.5874615,-8.713998,2.7141767,-0.10583155,0.10805547,0.0035128947
729,3.5710535,-8.705038,2.764107,0.10921855,0.038680386,-0.30086175
730,3.5710535,-8.705038,2.764107,0.10921855,0.038680386,-0.30086175
731,3.5710535,-8.705038,2.764107,0.10921855,0.038680386,-0.30086175
732,3.5710535,-8.705038,2.764107,0.10921855,0.038680386,-0.30086175
733,3.5710535,-8.705038,2.764107,0.10921855,0.038680386,-0.30086175
734,3.5710535,-8.705038,2.764107,0.10921855,0.038680386,-0.30086175
735,3.5580404,-8.714611,2.750687,0.105939575,-0.1990308,-0.20558313
736,3.5580404,-8.714611,2.750687,0.105939575,-0.1990308,-0.20558313
737,3.5580404,-8.714611,2.750687,0.105939575,-0.1990308,-0.20558313
738,3.5580404,-8.714611,2.750687,0.105939575,-0.1990308,-0.20558313
739,3.5580404,-8.714611,2.750687,0.105939575,-0.1990308,-0.20558313
740,3.5580404,-8.714611,2.750687,0.105939575,-0.1990308,-0.20558313
741,3.5277345,-8.722359,2.7651284,0.13164902,-0.53027385,-0.23779088
742,3.5277345,-8.722359,2.7651284,0.13164902,-0.53027385,-0.23779088
743,3.5277345,-8.722359,2.7651284,0.13164902,-0.53027385,-0.23779088
744,3.5277345,-8.722359,2.7651284,0.13164902,-0.53027385,-0.23779088
745,3.5277345,-8.722359,2.7651284,0.13164902,-0.53027385,-0.23779088
746,3.5277345,-8.722359,2.7651284,0.13164902,-0.53027385,-0.23779088
747,3.5047123,-8.722223,2.7946749,-0.015179559,0.24877007,0.07712593
748,3.5047123,-8.722223,2.7946749,-0.015179559,0.24877007,0.07712593
749,3.5047123,-8.722223,2.7946749,-0.015179559,0.24877007,0.07712593
750,3.5047123,-8.722223,2.7946749,-0.015179559,0.24877007,0.07712593
751,3.5047123,-8.722223,2.7946749,-0.015179559,0.24877007,0.07712593
752,3.5047123,-8.722223,2.7946749,-0.015179559,0.24877007,0.07712593
753,3.4852283,-8.721682,2.8206089,0.08680261,-0.18803681,0.14468873
754,3.4852283,-8.721682,2.8206089,0.08680261,-0.18803681,0.14468873
755,3.4852283,-8.721682,2.8206089,0.08680261,-0.18803681,0.14468873
756,3.4852283,-8.721682,2.8206089,0.08680261,-0.18803681,0.14468873
757,3.4852283,-8.721682,2.8206089,0.08680261,-0.18803681,0.14468873
758,3.4852283,-8.721682,2.8206089,0.08680261,-0.18803681,0.14468873
759,3.4715507,-8.720683,2.8404953,-0.10397993,0.054657687,0.21212319
760,3.4715507,-8.720683,2.8404953,-0.10397993,0.054657687,0.21212319
761,3.4715507,-8.720683,2.8404953,-0.10397993,0.054657687,0.21212319
762,3.4715507,-8.720683,2.8404953,-0.10397993,0.054657687,0.21212319
763,3.4715507,-8.720683,2.8404953,-0.10397993,0.054657687,0.21212319
764,3.4715507,-8.720683,2.8404953,-0.10397993,0.054657687,0.21212319
765,3.4617505,-8.710366,2.883781,-0.3465954,0.2734083,0.5054992
766,3.4617505,-8.710366,2.883781,-0.3465954,0.2734083,0.5054992
767,3.4617505,-8.710366,2.883781,-0.3465954,0.2734083,0.5054992
768,3.4617505,-8.710366,2.883781,-0.3465954,0.2734083,0.5054992
769,3.4617505,-8.710366,2.883781,-0.3465954,0.2734083,0.5054992
770,3.4617505,-8.710366,2.883781,-0.3465954,0.2734083,0.5054992
771,3.454723,-8.69498,2.9381268,-0.15157802,-0.027654026,0.30749542
772,3.454723,-8.69498,2.9381268,-0.15157802,-0.027654026,0.30749542
773,3.454723,-8.69498,2.9381268,-0.15157802,-0.027654026,0.30749542
774,3.454723,-8.69498,2.9381268,-0.15157802,-0.027654026,0.30749542
775,3.454723,-8.69498,2.9381268,-0.15157802,-0.027654026,0.30749542
776,3.454723,-8.69498,2.9381268,-0.15157802,-0.027654026,0.30749542
777,3.4713464,-8.663503,3.010623,0.0224208,-0.19284475,-0.09415422
778,3.4713464,-8.663503,3.010623,0.0224208,-0.19284475,-0.09415422
779,3.4713464,-8.663503,3.010623,0.0224208,-0.19284475,-0.09415422
780,3.4713464,-8.663503,3.010623,0.0224208,-0.19284475,-0.09415422
781,3.4713464,-8.663503,3.010623,0.0224208,-0.19284475,-0.09415422
782,3.4713464,-8.663503,3.010623,0.0224208,-0.19284475,-0.09415422
783,3.4716456,-8.637702,3.0835326,0.15375401,-0.43280748,-0.34981558
784,3.4716456,-8.637702,3.0835326,0.15375401,-0.43280748,-0.34981558
785,3.4716456,-8.637702,3.0835326,0.15375401,-0.43280748,-0.34981558
786,3.4716456,-8.637702,3.0835326,0.15375401,-0.43280748,-0.34981558
787,3.4716456,-8.637702,3.0835326,0.15375401,-0.43280748,-0.34981558
788,3.4716456,-8.637702,3.0835326,0.15375401,-0.43280748,-0.34981558
789,3.4611275,-8.619793,3.1448636,0.20295759,0.065918334,-0.18785526
790,3.4611275,-8.619793,3.1448636,0.20295759,0.065918334,-0.18785526
791,3.4611275,-8.619793,3.1448636,0.20295759,0.065918334,-0.18785526
792,3.4611275,-8.619793,3.1448636,0.20295759,0.065918334,-0.18785526
793,3.4611275,-8.619793,3.1448636,0.20295759,0.065918334,-0.18785526
794,3.4611275,-8.619793,3.1448636,0.20295759,0.065918334,-0.18785526
795,3.4389973,-8.592196,3.2431233,0.024004376,-0.108454004,0.12137498
796,3.4389973,-8.592196,3.2431233,0.024004376,-0.108454004,0.12137498
797,3.4389973,-8.592196,3.2431233,0.024004376,-0.108454004,0.12137498
798,3.4389973,-8.592196,3.2431233,0.024004376,-0.108454004,0.12137498
799,3.4389973,-8.592196,3.2431233,0.024004376,-0.108454004,0.12137498
800,3.4351058,-8.569815,3.3058612,-0.063276626,0.06857239,0.15705712
801,3.4351058,-8.569815,3.3058612,-0.063276626,0.06857239,0.15705712
802,3.4351058,-8.569815,3.3058612,-0.063276626,0.06857239,0.15705712
803,3.4351058,-8.569815,3.3058612,-0.063276626,0.06857239,0.15705712
804,3.4351058,-8.569815,3.3058612,-0.063276626,0.06857239,0.15705712
805,3.4351058,-8.569815,3.3058612,-0.063276626,0.06857239,0.15705712
806,3.4244719,-8.574216,3.3054786,-0.22202149,0.6475153,0.4425649
807,3.4244719,-8.574216,3.3054786,-0.22202149,0.6475153,0.4425649
808,3.4244719,-8.574216,3.3054786,-0.22202149,0.6475153,0.4425649
809,3.4244719,-8.574216,3.3054786,-0.22202149,0.6475153,0.4425649
810,3.4244719,-8.574216,3.3054786,-0.22202149,0.6475153,0.4425649
811,3.4244719,-8.574216,3.3054786,-0.22202149,0.6475153,0.4425649
812,3.439673,-8.58555,3.2599611,-0.13114703,0.12163712,0.1274844
813,3.439673,-8.58555,3.2599611,-0.13114703,0.12163712,0.1274844
814,3.439673,-8.58555,3.2599611,-0.13114703,0.12163712,0.1274844
815,3.439673,-8.58555,3.2599611,-0.13114703,0.12163712,0.1274844
816,3.439673,-8.58555,3.2599611,-0.13114703,0.12163712,0.1274844
817,3.4666197,-8.588985,3.2221513,0.049761478,-0.20574954,-0.08284212
818,3.4666197,-8.588985,3.2221513,0.049761478,-0.20574954,-0.08284212
819,3.4666197,-8.588985,3.2221513,0.049761478,-0.20574954,-0.08284212
820,3.4666197,-8.588985,3.2221513,0.049761478,-0.20574954,-0.08284212
821,3.4666197,-8.588985,3.2221513,0.049761478,-0.20574954,-0.08284212
822,3.4910123,-8.581685,3.2152598,0.1527995,-0.50910044,-0.19532272
823,3.4910123,-8.581685,3.2152598,0.1527995,-0.50910044,-0.19532272
824,3.4910123,-8.581685,3.2152598,0.1527995,-0.50910044,-0.19532272
825,3.4910123,-8.581685,3.2152598,0.1527995,-0.50910044,-0.19532272
826,3.4910123,-8.581685,3.2152598,0.1527995,-0.50910044,-0.19532272
827,3.4910123,-8.581685,3.2152598,0.1527995,-0.50910044,-0.19532272
828,3.524175,-8.5747795,3.1974585,-0.055661548,0.26038322,-0.17077917
829,3.524175,-8.5747795,3.1974585,-0.055661548,0.26038322,-0.17077917
830,3.524175,-8.5747795,3.1974585,-0.055661548,0.26038322,-0.17077917
831,3.524175,-8.5747795,3.1974585,-0.055661548,0.26038322,-0.17077917
832,3.524175,-8.5747795,3.1974585,-0.055661548,0.26038322,-0.17077917
833,3.524175,-8.5747795,3.1974585,-0.055661548,0.26038322,-0.17077917
834,3.5459921,-8.563219,3.2043097,0.07884137,-0.026913738,0.06763079
835,3.5459921,-8.563219,3.2043097,0.07884137,-0.026913738,0.06763079
836,3.5459921,-8.563219,3.2043097,0.07884137,-0.026913738,0.06763079
837,3.5459921,-8.563219,3.2043097,0.07884137,-0.026913738,0.06763079
838,3.5459921,-8.563219,3.2043097,0.07884137,-0.026913738,0.06763079
839,3.5459921,-8.563219,3.2043097,0.07884137,-0.026913738,0.06763079
840,3.5651574,-8.549057,3.220816,-0.049043357,0.061414193,0.13130389
841,3.5651574,-8.549057,3.220816,-0.049043357,0.061414193,0.13130389
842,3.5651574,-8.549057,3.220816,-0.049043357,0.061414193,0.13130389
843,3.5651574,-8.549057,3.220816,-0.049043357,0.061414193,0.13130389
844,3.5651574,-8.549057,3.220816,-0.049043357,0.061414193,0.13130389
845,3.5651574,-8.549057,3.220816,-0.049043357,0.061414193,0.13130389
846,3.571835,-8.548764,3.2141902,-0.049827002,0.039478905,0.13746208
847,3.571835,-8.548764,3.2141902,-0.049827002,0.039478905,0.13746208
848,3.571835,-8.548764,3.2141902,-0.049827002,0.039478905,0.13746208
849,3.571835,-8.548764,3.2141902,-0.049827002,0.039478905,0.13746208
850,3.571835,-8.548764,3.2141902,-0.049827002,0.039478905,0.13746208
851,3.571835,-8.548764,3.2141902,-0.049827002,0.039478905,0.13746208
852,3.5739985,-8.557591,3.1881905,-0.048142128,0.16646497,0.33835533
853,3.5739985,-8.557591,3.1881905,-0.048142128,0.16646497,0.33835533
854,3.5739985,-8.557591,3.1881905,-0.048142128,0.16646497,0.33835533
855,3.5739985,-8.557591,3.1881905,-0.048142128,0.16646497,0.33835533
856,3.5739985,-8.557591,3.1881905,-0.048142128,0.16646497,0.33835533
857,3.5739985,-8.557591,3.1881905,-0.048142128,0.16646497,0.33835533
858,3.5757253,-8.576947,3.1337757,-0.097753726,0.21623199,0.15806362
859,3.5757253,-8.576947,3.1337757,-0.097753726,0.21623199,0.15806362
860,3.5757253,-8.576947,3.1337757,-0.097753726,0.21623199,0.15806362
861,3.5757253,-8.576947,3.1337757,-0.097753726,0.21623199,0.15806362
862,3.5757253,-8.576947,3.1337757,-0.097753726,0.21623199,0.15806362
863,3.5757253,-8.576947,3.1337757,-0.097753726,0.21623199,0.15806362
864,3.5808358,-8.601277,3.0603976,0.14291936,-0.1987046,0.14521444
865,3.5808358,-8.601277,3.0603976,0.14291936,-0.1987046,0.14521444
866,3.5808358,-8.601277,3.0603976,0.14291936,-0.1987046,0.14521444
867,3.5808358,-8.601277,3.0603976,0.14291936,-0.1987046,0.14521444
868,3.5808358,-8.601277,3.0603976,0.14291936,-0.1987046,0.14521444
869,3.5808358,-8.601277,3.0603976,0.14291936,-0.1987046,0.14521444
870,3.569903,-8.630954,2.9887826,0.13448319,-0.053342957,0.1125323
871,3.569903,-8.630954,2.9887826,0.13448319,-0.053342957,0.1125323
872,3.569903,-8.630954,2.9887826,0.13448319,-0.053342957,0.1125323
873,3.569903,-8.630954,2.9887826,0.13448319,-0.053342957,0.1125323
874,3.569903,-8.630954,2.9887826,0.13448319,-0.053342957,0.1125323
875,3.569903,-8.630954,2.9887826,0.13448319,-0.053342957,0.1125323
876,3.5715206,-8.657842,2.907991,0.3147622,0.39835042,-0.19247675
877,3.5715206,-8.657842,2.907991,0.3147622,0.39835042,-0.19247675
878,3.5715206,-8.657842,2.907991,0.3147622,0.39835042,-0.19247675
879,3.5715206,-8.657842,2.907991,0.3147622,0.39835042,-0.19247675
880,3.5715206,-8.657842,2.907991,0.3147622,0.39835042,-0.19247675
881,3.5715206,-8.657842,2.907991,0.3147622,0.39835042,-0.19247675
882,3.5821865,-8.678217,2.8331757,-0.112714745,0.11707212,0.39441985
883,3.5821865,-8.678217,2.8331757,-0.112714745,0.11707212,0.39441985
884,3.5821865,-8.678217,2.8331757,-0.112714745,0.11707212,0.39441985
885,3.5821865,-8.678217,2.8331757,-0.112714745,0.11707212,0.39441985
886,3.5959256,-8.697032,2.757052,-0.12644576,-0.05178082,0.2851323
887,3.5959256,-8.697032,2.757052,-0.12644576,-0.05178082,0.2851323
888,3.5959256,-8.697032,2.757052,-0.12644576,-0.05178082,0.2851323
889,3.5959256,-8.697032,2.757052,-0.12644576,-0.05178082,0.2851323
890,3.6129568,-8.723251,2.6498675,-0.24576198,0.22718826,0.15949945
891,3.6129568,-8.723251,2.6498675,-0.24576198,0.22718826,0.15949945
892,3.6129568,-8.723251,2.6498675,-0.24576198,0.22718826,0.15949945
893,3.6129568,-8.723251,2.6498675,-0.24576198,0.22718826,0.15949945
894,3.6129568,-8.723251,2.6498675,-0.24576198,0.22718826,0.15949945
895,3.6129568,-8.723251,2.6498675,-0.24576198,0.22718826,0.15949945
896,3.638764,-8.7387085,2.5621781,0.028260183,0.2710073,0.17838317
897,3.638764,-8.7387085,2.5621781,0.028260183,0.2710073,0.17838317
898,3.638764,-8.7387085,2.5621781,0.028260183,0.2710073,0.17838317
899,3.638764,-8.7387085,2.5621781,0.028260183,0.2710073,0.17838317
900,3.638764,-8.7387085,2.5621781,0.028260183,0.2710073,0.17838317
901,3.638764,-8.7387085,2.5621781,0.028260183,0.2710073,0.17838317
902,3.638764,-8.7387085,2.5621781,0.028260183,0.2710073,0.17838317
903,3.6810095,-8.747931,2.4686596,0.057948496,-0.23513097,0.1825174
904,3.6810095,-8.747931,2.4686596,0.057948496,-0.23513097,0.1825174
905,3.6810095,-8.747931,2.4686596,0.057948496,-0.23513097,0.1825174
906,3.6810095,-8.747931,2.4686596,0.057948496,-0.23513097,0.1825174
907,3.6810095,-8.747931,2.4686596,0.057948496,-0.23513097,0.1825174
908,3.6810095,-8.747931,2.4686596,0.057948496,-0.23513097,0.1825174
909,3.7111573,-8.745383,2.4322767,0.057604868,-0.06500753,0.01675475
910,3.7111573,-8.745383,2.4322767,0.057604868,-0.06500753,0.01675475
911,3.7111573,-8.745383,2.4322767,0.057604868,-0.06500753,0.01675475
912,3.7111573,-8.745383,2.4322767,0.057604868,-0.06500753,0.01675475
913,3.7111573,-8.745383,2.4322767,0.057604868,-0.06500753,0.01675475
914,3.7111573,-8.745383,2.4322767,0.057604868,-0.06500753,0.01675475
915,3.742532,-8.754934,2.3483937,0.029075691,-0.034741838,-0.0669656
916,3.742532,-8.754934,2.3483937,0.029075691,-0.034741838,-0.0669656
917,3.742532,-8.754934,2.3483937,0.029075691,-0.034741838,-0.0669656
918,3.742532,-8.754934,2.3483937,0.029075691,-0.034741838,-0.0669656
919,3.742532,-8.754934,2.3483937,0.029075691,-0.034741838,-0.0669656
920,3.7582657,-8.769474,2.2676342,-0.03375154,0.15121181,0.36654535
921,3.7853246,-8.778305,2.1870232,0.012937039,0.04390275,0.14209352
922,3.7853246,-8.778305,2.1870232,0.012937039,0.04390275,0.14209352
923,3.7853246,-8.778305,2.1870232,0.012937039,0.04390275,0.14209352
924,3.7853246,-8.778305,2.1870232,0.012937039,0.04390275,0.14209352
925,3.7958975,-8.794857,2.1004896,-0.060178548,0.10127729,0.27775437
926,3.7958975,-8.794857,2.1004896,-0.060178548,0.10127729,0.27775437
927,3.7958975,-8.794857,2.1004896,-0.060178548,0.10127729,0.27775437
928,3.7958975,-8.794857,2.1004896,-0.060178548,0.10127729,0.27775437
929,3.7958975,-8.794857,2.1004896,-0.060178548,0.10127729,0.27775437
930,3.7958975,-8.794857,2.1004896,-0.060178548,0.10127729,0.27775437
931,3.7958975,-8.794857,2.1004896,-0.060178548,0.10127729,0.27775437
932,3.7978036,-8.816101,2.0058482,-0.033626083,0.023454068,0.16169804
933,3.7978036,-8.816101,2.0058482,-0.033626083,0.023454068,0.16169804
934,3.7978036,-8.816101,2.0058482,-0.033626083,0.023454068,0.16169804
935,3.7978036,-8.816101,2.0058482,-0.033626083,0.023454068,0.16169804
936,3.7978036,-8.816101,2.0058482,-0.033626083,0.023454068,0.16169804
937,3.7991235,-8.840494,1.8928065,-0.04227759,-0.05517827,0.22632076
938,3.7991235,-8.840494,1.8928065,-0.04227759,-0.05517827,0.22632076
939,3.7991235,-8.840494,1.8928065,-0.04227759,-0.05517827,0.22632076
940,3.7991235,-8.840494,1.8928065,-0.04227759,-0.05517827,0.22632076
941,3.7991235,-8.840494,1.8928065,-0.04227759,-0.05517827,0.22632076
942,3.7991235,-8.840494,1.8928065,-0.04227759,-0.05517827,0.22632076
943,3.784495,-8.866301,1.7990836,-0.0013028202,0.10278062,0.18699196
944,3.784495,-8.866301,1.7990836,-0.0013028202,0.10278062,0.18699196
945,3.784495,-8.866301,1.7990836,-0.0013028202,0.10278062,0.18699196
946,3.784495,-8.866301,1.7990836,-0.0013028202,0.10278062,0.18699196
947,3.784495,-8.866301,1.7990836,-0.0013028202,0.10278062,0.18699196
948,3.784495,-8.866301,1.7990836,-0.0013028202,0.10278062,0.18699196
949,3.7893531,-8.885078,1.693094,-0.03595184,0.04863826,0.1996172
950,3.7893531,-8.885078,1.693094,-0.03595184,0.04863826,0.1996172
951,3.7893531,-8.885078,1.693094,-0.03595184,0.04863826,0.1996172
952,3.7893531,-8.885078,1.693094,-0.03595184,0.04863826,0.1996172
953,3.7893531,-8.885078,1.693094,-0.03595184,0.04863826,0.1996172
954,3.7893531,-8.885078,1.693094,-0.03595184,0.04863826,0.1996172
955,3.7893531,-8.885078,1.693094,-0.03595184,0.04863826,0.1996172
956,3.7877865,-8.905226,1.5874547,-0.05026685,0.042679597,0.19226547
957,3.7877865,-8.905226,1.5874547,-0.05026685,0.042679597,0.19226547
958,3.7877865,-8.905226,1.5874547,-0.05026685,0.042679597,0.19226547
959,3.7877865,-8.905226,1.5874547,-0.05026685,0.042679597,0.19226547
960,3.7877865,-8.905226,1.5874547,-0.05026685,0.042679597,0.19226547
961,3.7877865,-8.905226,1.5874547,-0.05026685,0.042679597,0.19226547
962,3.786462,-8.925098,1.4750258,-0.02794861,0.043582525,0.18715031
963,3.786462,-8.925098,1.4750258,-0.02794861,0.043582525,0.18715031
964,3.786462,-8.925098,1.4750258,-0.02794861,0.043582525,0.18715031
965,3.786462,-8.925098,1.4750258,-0.02794861,0.043582525,0.18715031
966,3.7855844,-8.941243,1.3761901,-0.04072904,0.050722834,0.16536058
967,3.7855844,-8.941243,1.3761901,-0.04072904,0.050722834,0.16536058
968,3.7855844,-8.941243,1.3761901,-0.04072904,0.050722834,0.16536058
969,3.7855844,-8.941243,1.3761901,-0.04072904,0.050722834,0.16536058
970,3.7855844,-8.941243,1.3761901,-0.04072904,0.050722834,0.16536058
971,3.7855844,-8.941243,1.3761901,-0.04072904,0.050722834,0.16536058
972,3.784371,-8.951939,1.3083277,-0.02718555,0.04328709,0.14672817
973,3.784371,-8.951939,1.3083277,-0.02718555,0.04328709,0.14672817
974,3.784371,-8.951939,1.3083277,-0.02718555,0.04328709,0.14672817
975,3.784371,-8.951939,1.3083277,-0.02718555,0.04328709,0.14672817
976,3.784371,-8.951939,1.3083277,-0.02718555,0.04328709,0.14672817
977,3.784371,-8.951939,1.3083277,-0.02718555,0.04328709,0.14672817
978,3.774234,-8.963195,1.2596381,-0.048719656,0.040187214,0.13883622
979,3.774234,-8.963195,1.2596381,-0.048719656,0.040187214,0.13883622
980,3.774234,-8.963195,1.2596381,-0.048719656,0.040187214,0.13883622
981,3.774234,-8.963195,1.2596381,-0.048719656,0.040187214,0.13883622
982,3.774234,-8.963195,1.2596381,-0.048719656,0.040187214,0.13883622
983,3.774234,-8.963195,1.2596381,-0.048719656,0.040187214,0.13883622
984,3.7572854,-8.979133,1.1951433,-0.04410187,0.04051502,0.123963885
985,3.7572854,-8.979133,1.1951433,-0.04410187,0.04051502,0.123963885
986,3.7572854,-8.979133,1.1951433,-0.04410187,0.04051502,0.123963885
987,3.7572854,-8.979133,1.1951433,-0.04410187,0.04051502,0.123963885
988,3.7572854,-8.979133,1.1951433,-0.04410187,0.04051502,0.123963885
989,3.7572854,-8.979133,1.1951433,-0.04410187,0.04051502,0.123963885
990,3.7458951,-8.995466,1.1046469,-0.032571986,0.033968884,0.119620115
991,3.7458951,-8.995466,1.1046469,-0.032571986,0.033968884,0.119620115
992,3.7458951,-8.995466,1.1046469,-0.032571986,0.033968884,0.119620115
993,3.7458951,-8.995466,1.1046469,-0.032571986,0.033968884,0.119620115
994,3.7458951,-8.995466,1.1046469,-0.032571986,0.033968884,0.119620115
995,3.7458951,-8.995466,1.1046469,-0.032571986,0.033968884,0.119620115
996,3.730196,-9.013025,1.0106393,-0.040029675,0.043405596,0.10515614
997,3.730196,-9.013025,1.0106393,-0.040029675,0.043405596,0.10515614
998,3.730196,-9.013025,1.0106393,-0.040029675,0.043405596,0.10515614
999,3.730196,-9.013025,1.0106393,-0.040029675,0.043405596,0.10515614
1000,3.7097206,-9.032539,0.9064186,-0.047486126,0.035559025,0.095996566
1001,3.7097206,-9.032539,0.9064186,-0.047486126,0.035559025,0.095996566
1002,3.7097206,-9.032539,0.9064186,-0.047486126,0.035559025,0.095996566
1003,3.7097206,-9.032539,0.9064186,-0.047486126,0.035559025,0.095996566
1004,3.7097206,-9.032539,0.9064186,-0.047486126,0.035559025,0.095996566
1005,3.7097206,-9.032539,0.9064186,-0.047486126,0.035559025,0.095996566
1006,3.6956892,-9.049262,0.7893859,-0.0508689,0.039711736,0.083090395
1007,3.6956892,-9.049262,0.7893859,-0.0508689,0.039711736,0.083090395
1008,3.6956892,-9.049262,0.7893859,-0.0508689,0.039711736,0.083090395
1009,3.6956892,-9.049262,0.7893859,-0.0508689,0.039711736,0.083090395
1010,3.6956892,-9.049262,0.7893859,-0.0508689,0.039711736,0.083090395
1011,3.6879544,-9.060691,0.68793064,-0.04238319,0.03512992,0.078117624
1012,3.6879544,-9.060691,0.68793064,-0.04238319,0.03512992,0.078117624
1013,3.6879544,-9.060691,0.68793064,-0.04238319,0.03512992,0.078117624
1014,3.6879544,-9.060691,0.68793064,-0.04238319,0.03512992,0.078117624
1015,3.6879544,-9.060691,0.68793064,-0.04238319,0.03512992,0.078117624
1016,3.6879544,-9.060691,0.68793064,-0.04238319,0.03512992,0.078117624
1017,3.6827104,-9.068617,0.6068254,-0.05268003,0.043596137,0.08107664
1018,3.6827104,-9.068617,0.6068254,-0.05268003,0.043596137,0.08107664
1019,3.6827104,-9.068617,0.6068254,-0.05268003,0.043596137,0.08107664
1020,3.6827104,-9.068617,0.6068254,-0.05268003,0.043596137,0.08107664
1021,3.6827104,-9.068617,0.6068254,-0.05268003,0.043596137,0.08107664
1022,3.6827104,-9.068617,0.6068254,-0.05268003,0.043596137,0.08107664
1023,3.6818938,-9.073085,0.5414577,-0.053251382,0.02556858,0.085639894
1024,3.6818938,-9.073085,0.5414577,-0.053251382,0.02556858,0.085639894
1025,3.6818938,-9.073085,0.5414577,-0.053251382,0.02556858,0.085639894
1026,3.6818938,-9.073085,0.5414577,-0.053251382,0.02556858,0.085639894
1027,3.6818938,-9.073085,0.5414577,-0.053251382,0.02556858,0.085639894
1028,3.6818938,-9.073085,0.5414577,-0.053251382,0.02556858,0.085639894
1029,3.6930661,-9.072306,0.4742677,-0.037469093,0.03980331,0.08171945
1030,3.6930661,-9.072306,0.4742677,-0.037469093,0.03980331,0.08171945
1031,3.6930661,-9.072306,0.4742677,-0.037469093,0.03980331,0.08171945
1032,3.6930661,-9.072306,0.4742677,-0.037469093,0.03980331,0.08171945
1033,3.6930661,-9.072306,0.4742677,-0.037469093,0.03980331,0.08171945
1034,3.6930661,-9.072306,0.4742677,-0.037469093,0.03980331,0.08171945
1035,3.7206604,-9.064803,0.39550662,-0.04588284,0.039103758,0.07173834
1036,3.7206604,-9.064803,0.39550662,-0.04588284,0.039103758,0.07173834
1037,3.7206604,-9.064803,0.39550662,-0.04588284,0.039103758,0.07173834
1038,3.7206604,-9.064803,0.39550662,-0.04588284,0.039103758,0.07173834
1039,3.7206604,-9.064803,0.39550662,-0.04588284,0.039103758,0.07173834
1040,3.7206604,-9.064803,0.39550662,-0.04588284,0.039103758,0.07173834
1041,3.745273,-9.057027,0.33701593,-0.038004648,0.035503417,0.071145244
1042,3.745273,-9.057027,0.33701593,-0.038004648,0.035503417,0.071145244
1043,3.745273,-9.057027,0.33701593,-0.038004648,0.035503417,0.071145244
1044,3.745273,-9.057027,0.33701593,-0.038004648,0.035503417,0.071145244
1045,3.745273,-9.057027,0.33701593,-0.038004648,0.035503417,0.071145244
1046,3.745273,-9.057027,0.33701593,-0.038004648,0.035503417,0.071145244
1047,3.7652128,-9.050778,0.2774575,-0.03206715,0.042485848,0.06263347
1048,3.7652128,-9.050778,0.2774575,-0.03206715,0.042485848,0.06263347
1049,3.7652128,-9.050778,0.2774575,-0.03206715,0.042485848,0.06263347
1050,3.7652128,-9.050778,0.2774575,-0.03206715,0.042485848,0.06263347
1051,3.7652128,-9.050778,0.2774575,-0.03206715,0.042485848,0.06263347
1052,3.7652128,-9.050778,0.2774575,-0.03206715,0.042485848,0.06263347
1053,3.7805696,-9.046019,0.21733034,-0.038311556,0.034184992,0.057968643
1054,3.7805696,-9.046019,0.21733034,-0.038311556,0.034184992,0.057968643
1055,3.7805696,-9.046019,0.21733034,-0.038311556,0.034184992,0.057968643
1056,3.7805696,-9.046019,0.21733034,-0.038311556,0.034184992,0.057968643
1057,3.7805696,-9.046019,0.21733034,-0.038311556,0.034184992,0.057968643
1058,3.7805696,-9.046019,0.21733034,-0.038311556,0.034184992,0.057968643
1059,3.7974792,-9.039696,0.18285362,-0.0385403,0.03190084,0.049084947
1060,3.7974792,-9.039696,0.18285362,-0.0385403,0.03190084,0.049084947
1061,3.7974792,-9.039696,0.18285362,-0.0385403,0.03190084,0.049084947
1062,3.7974792,-9.039696,0.18285362,-0.0385403,0.03190084,0.049084947
1063,3.7974792,-9.039696,0.18285362,-0.0385403,0.03190084,0.049084947
1064,3.7974792,-9.039696,0.18285362,-0.0385403,0.03190084,0.049084947
1065,3.809873,-9.035075,0.1506009,-0.031907648,0.038229216,0.05458326
1066,3.809873,-9.035075,0.1506009,-0.031907648,0.038229216,0.05458326
1067,3.809873,-9.035075,0.1506009,-0.031907648,0.038229216,0.05458326
1068,3.809873,-9.035075,0.1506009,-0.031907648,0.038229216,0.05458326
1069,3.809873,-9.035075,0.1506009,-0.031907648,0.038229216,0.05458326
1070,3.809873,-9.035075,0.1506009,-0.031907648,0.038229216,0.05458326
1071,3.8127432,-9.034164,0.13125488,-0.03259131,0.038810167,0.04919439
1072,3.8127432,-9.034164,0.13125488,-0.03259131,0.038810167,0.04919439
1073,3.8127432,-9.034164,0.13125488,-0.03259131,0.038810167,0.04919439
1074,3.8127432,-9.034164,0.13125488,-0.03259131,0.038810167,0.04919439
1075,3.8127432,-9.034164,0.13125488,-0.03259131,0.038810167,0.04919439
1076,3.8127432,-9.034164,0.13125488,-0.03259131,0.038810167,0.04919439
1077,3.822236,-9.030733,0.08208978,-0.025278153,0.039159946,0.03734906
1078,3.822236,-9.030733,0.08208978,-0.025278153,0.039159946,0.03734906
1079,3.822236,-9.030733,0.08208978,-0.025278153,0.039159946,0.03734906
1080,3.822236,-9.030733,0.08208978,-0.025278153,0.039159946,0.03734906
1081,3.822236,-9.030733,0.08208978,-0.025278153,0.039159946,0.03734906
1082,3.822236,-9.030733,0.08208978,-0.025278153,0.039159946,0.03734906
1083,3.8430836,-9.022183,0.03608434,-0.029010387,0.040519588,0.034123756
1084,3.8430836,-9.022183,0.03608434,-0.029010387,0.040519588,0.034123756
1085,3.8430836,-9.022183,0.03608434,-0.029010387,0.040519588,0.034123756
1086,3.8430836,-9.022183,0.03608434,-0.029010387,0.040519588,0.034123756
1087,3.8430836,-9.022183,0.03608434,-0.029010387,0.040519588,0.034123756
1088,3.8430836,-9.022183,0.03608434,-0.029010387,0.040519588,0.034123756
1089,3.8685405,-9.011364,-0.009482071,-0.029344076,0.041622486,0.03875303
1090,3.8685405,-9.011364,-0.009482071,-0.029344076,0.041622486,0.03875303
1091,3.8685405,-9.011364,-0.009482071,-0.029344076,0.041622486,0.03875303
1092,3.8685405,-9.011364,-0.009482071,-0.029344076,0.041622486,0.03875303
1093,3.8685405,-9.011364,-0.009482071,-0.029344076,0.041622486,0.03875303
1094,3.8685405,-9.011364,-0.009482071,-0.029344076,0.041622486,0.03875303
1095,3.8848314,-9.004181,-0.056480218,-0.025730977,0.037473567,0.027128588
1096,3.8848314,-9.004181,-0.056480218,-0.025730977,0.037473567,0.027128588
1097,3.8848314,-9.004181,-0.056480218,-0.025730977,0.037473567,0.027128588
1098,3.8848314,-9.004181,-0.056480218,-0.025730977,0.037473567,0.027128588
1099,3.8848314,-9.004181,-0.056480218,-0.025730977,0.037473567,0.027128588
1100,3.8848314,-9.004181,-0.056480218,-0.025730977,0.037473567,0.027128588
1101,3.8997054,-8.997387,-0.09848161,-0.025191,0.042559147,0.019918418
1102,3.8997054,-8.997387,-0.09848161,-0.025191,0.042559147,0.019918418
1103,3.8997054,-8.997387,-0.09848161,-0.025191,0.042559147,0.019918418
1104,3.8997054,-8.997387,-0.09848161,-0.025191,0.042559147,0.019918418
1105,3.8997054,-8.997387,-0.09848161,-0.025191,0.042559147,0.019918418
1106,3.8997054,-8.997387,-0.09848161,-0.025191,0.042559147,0.019918418
1107,3.915832,-8.989862,-0.13790604,-0.022570875,0.0443024,0.009554134
1108,3.915832,-8.989862,-0.13790604,-0.022570875,0.0443024,0.009554134
1109,3.915832,-8.989862,-0.13790604,-0.022570875,0.0443024,0.009554134
1110,3.915832,-8.989862,-0.13790604,-0.022570875,0.0443024,0.009554134
1111,3.915832,-8.989862,-0.13790604,-0.022570875,0.0443024,0.009554134
1112,3.915832,-8.989862,-0.13790604,-0.022570875,0.0443024,0.009554134
1113,3.9289463,-8.983741,-0.16176887,-0.026603308,0.03662848,0.013955232
1114,3.9289463,-8.983741,-0.16176887,-0.026603308,0.03662848,0.013955232
1115,3.9289463,-8.983741,-0.16176887,-0.026603308,0.03662848,0.013955232
1116,3.9289463,-8.983741,-0.16176887,-0.026603308,0.03662848,0.013955232
1117,3.9289463,-8.983741,-0.16176887,-0.026603308,0.03662848,0.013955232
1118,3.9289463,-8.983741,-0.16176887,-0.026603308,0.03662848,0.013955232
1119,3.93651,-8.979985,-0.18478759,-0.015581881,0.041404337,0.0081919795
1120,3.93651,-8.979985,-0.18478759,-0.015581881,0.041404337,0.0081919795
1121,3.93651,-8.979985,-0.18478759,-0.015581881,0.041404337,0.0081919795
1122,3.93651,-8.979985,-0.18478759,-0.015581881,0.041404337,0.0081919795
1123,3.93651,-8.979985,-0.18478759,-0.015581881,0.041404337,0.0081919795
1124,3.93651,-8.979985,-0.18478759,-0.015581881,0.041404337,0.0081919795
1125,3.9405675,-8.97788,-0.19999973,-0.01614451,0.045035787,-0.002632868
1126,3.9405675,-8.97788,-0.19999973,-0.01614451,0.045035787,-0.002632868
1127,3.9405675,-8.97788,-0.19999973,-0.01614451,0.045035787,-0.002632868
1128,3.9405675,-8.97788,-0.19999973,-0.01614451,0.045035787,-0.002632868
1129,3.9405675,-8.97788,-0.19999973,-0.01614451,0.045035787,-0.002632868
1130,3.9405675,-8.97788,-0.19999973,-0.01614451,0.045035787,-0.002632868
1131,3.94556,-8.975337,-0.21512845,-0.02393353,0.040901933,0.007539699
1132,3.94556,-8.975337,-0.21512845,-0.02393353,0.040901933,0.007539699
1133,3.94556,-8.975337,-0.21512845,-0.02393353,0.040901933,0.007539699
1134,3.94556,-8.975337,-0.21512845,-0.02393353,0.040901933,0.007539699
1135,3.94556,-8.975337,-0.21512845,-0.02393353,0.040901933,0.007539699
1136,3.94556,-8.975337,-0.21512845,-0.02393353,0.040901933,0.007539699
1137,3.94991,-8.973174,-0.22523624,-0.013239716,0.048444126,0.0060212296
1138,3.94991,-8.973174,-0.22523624,-0.013239716,0.048444126,0.0060212296
1139,3.94991,-8.973174,-0.22523624,-0.013239716,0.048444126,0.0060212296
1140,3.94991,-8.973174,-0.22523624,-0.013239716,0.048444126,0.0060212296
1141,3.94991,-8.973174,-0.22523624,-0.013239716,0.048444126,0.0060212296
1142,3.94991,-8.973174,-0.22523624,-0.013239716,0.048444126,0.0060212296
1143,3.9521043,-8.972161,-0.22710508,-0.019849623,0.04513057,0.0019258118
1144,3.9521043,-8.972161,-0.22710508,-0.019849623,0.04513057,0.0019258118
1145,3.9521043,-8.972161,-0.22710508,-0.019849623,0.04513057,0.0019258118
1146,3.9521043,-8.972161,-0.22710508,-0.019849623,0.04513057,0.0019258118
1147,3.9521043,-8.972161,-0.22710508,-0.019849623,0.04513057,0.0019258118
1148,3.9521043,-8.972161,-0.22710508,-0.019849623,0.04513057,0.0019258118
1149,3.9524734,-8.971972,-0.22814116,-0.021276342,0.042221133,0.005236997
1150,3.9524734,-8.971972,-0.22814116,-0.021276342,0.042221133,0.005236997
1151,3.9524734,-8.971972,-0.22814116,-0.021276342,0.042221133,0.005236997
1152,3.9524734,-8.971972,-0.22814116,-0.021276342,0.042221133,0.005236997
1153,3.9524734,-8.971972,-0.22814116,-0.021276342,0.042221133,0.005236997
1154,3.9524734,-8.971972,-0.22814116,-0.021276342,0.042221133,0.005236997
1155,3.9524713,-8.97191,-0.23061042,-0.027622042,0.043691795,0.0015684891
1156,3.9524713,-8.97191,-0.23061042,-0.027622042,0.043691795,0.0015684891
1157,3.9524713,-8.97191,-0.23061042,-0.027622042,0.043691795,0.0015684891
1158,3.9524713,-8.97191,-0.23061042,-0.027622042,0.043691795,0.0015684891
1159,3.9524713,-8.97191,-0.23061042,-0.027622042,0.043691795,0.0015684891
1160,3.9524713,-8.97191,-0.23061042,-0.027622042,0.043691795,0.0015684891
1161,3.953005,-8.9716015,-0.23350488,-0.021710258,0.043723293,-0.0060482747
1162,3.953005,-8.9716015,-0.23350488,-0.021710258,0.043723293,-0.0060482747
1163,3.953005,-8.9716015,-0.23350488,-0.021710258,0.043723293,-0.0060482747
1164,3.953005,-8.9716015,-0.23350488,-0.021710258,0.043723293,-0.0060482747
1165,3.953005,-8.9716015,-0.23350488,-0.021710258,0.043723293,-0.0060482747
1166,3.953005,-8.9716015,-0.23350488,-0.021710258,0.043723293,-0.0060482747
1167,3.9536707,-8.971195,-0.23777378,-0.019689947,0.043276593,-0.0059953188
1168,3.9536707,-8.971195,-0.23777378,-0.019689947,0.043276593,-0.0059953188
1169,3.9536707,-8.971195,-0.23777378,-0.019689947,0.043276593,-0.0059953188
1170,3.9536707,-8.971195,-0.23777378,-0.019689947,0.043276593,-0.0059953188
1171,3.9536707,-8.971195,-0.23777378,-0.019689947,0.043276593,-0.0059953188
1172,3.9536707,-8.971195,-0.23777378,-0.019689947,0.043276593,-0.0059953188
1173,3.95518,-8.970394,-0.24280813,-0.024417246,0.04433448,-0.0011392492
1174,3.95518,-8.970394,-0.24280813,-0.024417246,0.04433448,-0.0011392492
1175,3.95518,-8.970394,-0.24280813,-0.024417246,0.04433448,-0.0011392492
1176,3.95518,-8.970394,-0.24280813,-0.024417246,0.04433448,-0.0011392492
1177,3.95518,-8.970394,-0.24280813,-0.024417246,0.04433448,-0.0011392492
1178,3.9563873,-8.9697275,-0.2477215,-0.028687198,0.03903318,-0.005545015
1179,3.9563873,-8.9697275,-0.2477215,-0.028687198,0.03903318,-0.005545015
1180,3.9563873,-8.9697275,-0.2477215,-0.028687198,0.03903318,-0.005545015
1181,3.9563873,-8.9697275,-0.2477215,-0.028687198,0.03903318,-0.005545015
1182,3.9563873,-8.9697275,-0.2477215,-0.028687198,0.03903318,-0.005545015
1183,3.9563873,-8.9697275,-0.2477215,-0.028687198,0.03903318,-0.005545015
1184,3.9578588,-8.968942,-0.25261799,-0.030489651,0.03667271,-0.009460946
1185,3.9578588,-8.968942,-0.25261799,-0.030489651,0.03667271,-0.009460946
1186,3.9578588,-8.968942,-0.25261799,-0.030489651,0.03667271,-0.009460946
1187,3.9578588,-8.968942,-0.25261799,-0.030489651,0.03667271,-0.009460946
1188,3.9578588,-8.968942,-0.25261799,-0.030489651,0.03667271,-0.009460946
1189,3.9578588,-8.968942,-0.25261799,-0.030489651,0.03667271,-0.009460946
1190,3.960006,-8.967868,-0.25710464,-0.023437178,0.045080114,-0.011382642
1191,3.960006,-8.967868,-0.25710464,-0.023437178,0.045080114,-0.011382642
1192,3.960006,-8.967868,-0.25710464,-0.023437178,0.045080114,-0.011382642
1193,3.960006,-8.967868,-0.25710464,-0.023437178,0.045080114,-0.011382642
1194,3.9627564,-8.966552,-0.26057565,-0.027549837,0.0427737,-0.003438527
1195,3.9627564,-8.966552,-0.26057565,-0.027549837,0.0427737,-0.003438527
1196,3.9627564,-8.966552,-0.26057565,-0.027549837,0.0427737,-0.003438527
1197,3.9627564,-8.966552,-0.26057565,-0.027549837,0.0427737,-0.003438527
1198,3.9627564,-8.966552,-0.26057565,-0.027549837,0.0427737,-0.003438527
1199,3.9627564,-8.966552,-0.26057565,-0.027549837,0.0427737,-0.003438527
1200,3.9644918,-8.965721,-0.26272944,-0.0298135,0.047739513,-0.006098647
1201,3.9644918,-8.965721,-0.26272944,-0.0298135,0.047739513,-0.006098647
1202,3.9644918,-8.965721,-0.26272944,-0.0298135,0.047739513,-0.006098647
1203,3.9644918,-8.965721,-0.26272944,-0.0298135,0.047739513,-0.006098647
1204,3.9644918,-8.965721,-0.26272944,-0.0298135,0.047739513,-0.006098647
1205,3.9644918,-8.965721,-0.26272944,-0.0298135,0.047739513,-0.006098647
1206,3.9665303,-8.964798,-0.2634844,-0.02033154,0.04197625,-0.007151834
1207,3.9665303,-8.964798,-0.2634844,-0.02033154,0.04197625,-0.007151834
1208,3.9665303,-8.964798,-0.2634844,-0.02033154,0.04197625,-0.007151834
1209,3.9665303,-8.964798,-0.2634844,-0.02033154,0.04197625,-0.007151834
1210,3.9665303,-8.964798,-0.2634844,-0.02033154,0.04197625,-0.007151834
1211,3.9665303,-8.964798,-0.2634844,-0.02033154,0.04197625,-0.007151834
1212,3.9682171,-8.9640665,-0.26299113,-0.02260016,0.044979498,-0.008077781
1213,3.9682171,-8.9640665,-0.26299113,-0.02260016,0.044979498,-0.008077781
1214,3.9682171,-8.9640665,-0.26299113,-0.02260016,0.044979498,-0.008077781
1215,3.9682171,-8.9640665,-0.26299113,-0.02260016,0.044979498,-0.008077781
1216,3.9682171,-8.9640665,-0.26299113,-0.02260016,0.044979498,-0.008077781
1217,3.9682171,-8.9640665,-0.26299113,-0.02260016,0.044979498,-0.008077781
1218,3.9699128,-8.963364,-0.26133963,-0.028772796,0.04212246,-0.008885661
1219,3.9699128,-8.963364,-0.26133963,-0.028772796,0.04212246,-0.008885661
1220,3.9699128,-8.963364,-0.26133963,-0.028772796,0.04212246,-0.008885661
1221,3.9699128,-8.963364,-0.26133963,-0.028772796,0.04212246,-0.008885661
1222,3.9699128,-8.963364,-0.26133963,-0.028772796,0.04212246,-0.008885661
1223,3.9699128,-8.963364,-0.26133963,-0.028772796,0.04212246,-0.008885661
1224,3.971553,-8.962723,-0.25837982,-0.018355193,0.042187788,-0.0017503486
1225,3.971553,-8.962723,-0.25837982,-0.018355193,0.042187788,-0.0017503486
1226,3.971553,-8.962723,-0.25837982,-0.018355193,0.042187788,-0.0017503486
1227,3.971553,-8.962723,-0.25837982,-0.018355193,0.042187788,-0.0017503486
1228,3.971553,-8.962723,-0.25837982,-0.018355193,0.042187788,-0.0017503486
1229,3.971553,-8.962723,-0.25837982,-0.018355193,0.042187788,-0.0017503486
1230,3.9731164,-8.962122,-0.25517014,-0.018683948,0.047130175,-0.00679242
1231,3.9731164,-8.962122,-0.25517014,-0.018683948,0.047130175,-0.00679242
1232,3.9731164,-8.962122,-0.25517014,-0.018683948,0.047130175,-0.00679242
1233,3.9731164,-8.962122,-0.25517014,-0.018683948,0.047130175,-0.00679242
1234,3.9731164,-8.962122,-0.25517014,-0.018683948,0.047130175,-0.00679242
1235,3.9731164,-8.962122,-0.25517014,-0.018683948,0.047130175,-0.00679242
1236,3.974758,-8.961488,-0.25184366,-0.02242153,0.04475425,-0.004012758
1237,3.974758,-8.961488,-0.25184366,-0.02242153,0.04475425,-0.004012758
1238,3.974758,-8.961488,-0.25184366,-0.02242153,0.04475425,-0.004012758
1239,3.974758,-8.961488,-0.25184366,-0.02242153,0.04475425,-0.004012758
1240,3.975859,-8.961092,-0.24853586,-0.03011912,0.035032317,-0.0007468869
1241,3.975859,-8.961092,-0.24853586,-0.03011912,0.035032317,-0.0007468869
1242,3.975859,-8.961092,-0.24853586,-0.03011912,0.035032317,-0.0007468869
1243,3.975859,-8.961092,-0.24853586,-0.03011912,0.035032317,-0.0007468869
1244,3.975859,-8.961092,-0.24853586,-0.03011912,0.035032317,-0.0007468869
1245,3.975859,-8.961092,-0.24853586,-0.03011912,0.035032317,-0.0007468869
1246,3.977329,-8.960534,-0.24506706,-0.019718869,0.043387126,0.0025353967
1247,3.977329,-8.960534,-0.24506706,-0.019718869,0.043387126,0.0025353967
1248,3.977329,-8.960534,-0.24506706,-0.019718869,0.043387126,0.0025353967
1249,3.977329,-8.960534,-0.24506706,-0.019718869,0.043387126,0.0025353967
1250,3.977329,-8.960534,-0.24506706,-0.019718869,0.043387126,0.0025353967
1251,3.977329,-8.960534,-0.24506706,-0.019718869,0.043387126,0.0025353967
1252,3.9786751,-8.959999,-0.24278112,-0.00981937,0.04929903,-0.00064838125
1253,3.9786751,-8.959999,-0.24278112,-0.00981937,0.04929903,-0.00064838125
1254,3.9786751,-8.959999,-0.24278112,-0.00981937,0.04929903,-0.00064838125
1255,3.9786751,-8.959999,-0.24278112,-0.00981937,0.04929903,-0.00064838125
1256,3.9786751,-8.959999,-0.24278112,-0.00981937,0.04929903,-0.00064838125
1257,3.9786751,-8.959999,-0.24278112,-0.00981937,0.04929903,-0.00064838125
1258,3.9792624,-8.95981,-0.24007341,-0.020986132,0.042972796,-0.0033010505
1259,3.9792624,-8.95981,-0.24007341,-0.020986132,0.042972796,-0.0033010505
1260,3.9792624,-8.95981,-0.24007341,-0.020986132,0.042972796,-0.0033010505
1261,3.9792624,-8.95981,-0.24007341,-0.020986132,0.042972796,-0.0033010505
1262,3.9792624,-8.95981,-0.24007341,-0.020986132,0.042972796,-0.0033010505
1263,3.9792624,-8.95981,-0.24007341,-0.020986132,0.042972796,-0.0033010505
1264,3.97912,-8.959952,-0.2371538,-0.014655159,0.045886997,-0.0069083483
1265,3.97912,-8.959952,-0.2371538,-0.014655159,0.045886997,-0.0069083483
1266,3.97912,-8.959952,-0.2371538,-0.014655159,0.045886997,-0.0069083483
1267,3.97912,-8.959952,-0.2371538,-0.014655159,0.045886997,-0.0069083483
1268,3.97912,-8.959952,-0.2371538,-0.014655159,0.045886997,-0.0069083483
1269,3.97912,-8.959952,-0.2371538,-0.014655159,0.045886997,-0.0069083483
1270,3.9795585,-8.959823,-0.2347013,-0.01997972,0.044923987,0.006520733
1271,3.9795585,-8.959823,-0.2347013,-0.01997972,0.044923987,0.006520733
1272,3.9795585,-8.959823,-0.2347013,-0.01997972,0.044923987,0.006520733
1273,3.9795585,-8.959823,-0.2347013,-0.01997972,0.044923987,0.006520733
1274,3.9795585,-8.959823,-0.2347013,-0.01997972,0.044923987,0.006520733
1275,3.9795585,-8.959823,-0.2347013,-0.01997972,0.044923987,0.006520733
1276,3.9793973,-8.959942,-0.23290356,-0.01169821,0.049792975,0.0013347339
1277,3.9793973,-8.959942,-0.23290356,-0.01169821,0.049792975,0.0013347339
1278,3.9793973,-8.959942,-0.23290356,-0.01169821,0.049792975,0.0013347339
1279,3.9793973,-8.959942,-0.23290356,-0.01169821,0.049792975,0.0013347339
1280,3.9793973,-8.959942,-0.23290356,-0.01169821,0.049792975,0.0013347339
1281,3.9793973,-8.959942,-0.23290356,-0.01169821,0.049792975,0.0013347339
1282,3.9789495,-8.960165,-0.23192208,-0.01760122,0.047329657,0.0063159247
1283,3.9789495,-8.960165,-0.23192208,-0.01760122,0.047329657,0.0063159247
1284,3.9789495,-8.960165,-0.23192208,-0.01760122,0.047329657,0.0063159247
1285,3.9789495,-8.960165,-0.23192208,-0.01760122,0.047329657,0.0063159247
1286,3.9789495,-8.960165,-0.23192208,-0.01760122,0.047329657,0.0063159247
1287,3.9789495,-8.960165,-0.23192208,-0.01760122,0.047329657,0.0063159247
1288,3.978797,-8.960271,-0.23044781,-0.016152432,0.045854528,0.0006088362
1289,3.978797,-8.960271,-0.23044781,-0.016152432,0.045854528,0.0006088362
1290,3.978797,-8.960271,-0.23044781,-0.016152432,0.045854528,0.0006088362
1291,3.978797,-8.960271,-0.23044781,-0.016152432,0.045854528,0.0006088362
1292,3.978797,-8.960271,-0.23044781,-0.016152432,0.045854528,0.0006088362
1293,3.978797,-8.960271,-0.23044781,-0.016152432,0.045854528,0.0006088362
1294,3.978593,-8.9603815,-0.22969735,-0.02691172,0.039497767,0.002637794
1295,3.978593,-8.9603815,-0.22969735,-0.02691172,0.039497767,0.002637794
1296,3.978593,-8.9603815,-0.22969735,-0.02691172,0.039497767,0.002637794
1297,3.978593,-8.9603815,-0.22969735,-0.02691172,0.039497767,0.002637794
1298,3.978593,-8.9603815,-0.22969735,-0.02691172,0.039497767,0.002637794
1299,3.978593,-8.9603815,-0.22969735,-0.02691172,0.039497767,0.002637794
1300,3.9788709,-8.960278,-0.22890502,-0.02004981,0.043901388,-0.0026506947
1301,3.9788709,-8.960278,-0.22890502,-0.02004981,0.043901388,-0.0026506947
1302,3.9788709,-8.960278,-0.22890502,-0.02004981,0.043901388,-0.0026506947
1303,3.9788709,-8.960278,-0.22890502,-0.02004981,0.043901388,-0.0026506947
1304,3.9788709,-8.960278,-0.22890502,-0.02004981,0.043901388,-0.0026506947
1305,3.9788709,-8.960278,-0.22890502,-0.02004981,0.043901388,-0.0026506947
1306,3.978156,-8.960615,-0.22814226,-0.01719399,0.045331318,0.0027963144
1307,3.978156,-8.960615,-0.22814226,-0.01719399,0.045331318,0.0027963144
1308,3.978156,-8.960615,-0.22814226,-0.01719399,0.045331318,0.0027963144
1309,3.978156,-8.960615,-0.22814226,-0.01719399,0.045331318,0.0027963144
1310,3.978156,-8.960615,-0.22814226,-0.01719399,0.045331318,0.0027963144
1311,3.978156,-8.960615,-0.22814226,-0.01719399,0.045331318,0.0027963144
1312,3.9779205,-8.960753,-0.22680314,-0.024539711,0.04287665,0.0004922487
1313,3.9779205,-8.960753,-0.22680314,-0.024539711,0.04287665,0.0004922487
1314,3.9779205,-8.960753,-0.22680314,-0.024539711,0.04287665,0.0004922487
1315,3.9779205,-8.960753,-0.22680314,-0.024539711,0.04287665,0.0004922487
1316,3.9779205,-8.960753,-0.22680314,-0.024539711,0.04287665,0.0004922487
1317,3.9779205,-8.960753,-0.22680314,-0.024539711,0.04287665,0.0004922487
1318,3.9780037,-8.960774,-0.22452174,-0.03234105,0.045803197,0.0051178345
1319,3.9780037,-8.960774,-0.22452174,-0.03234105,0.045803197,0.0051178345
1320,3.9780037,-8.960774,-0.22452174,-0.03234105,0.045803197,0.0051178345
1321,3.9780037,-8.960774,-0.22452174,-0.03234105,0.045803197,0.0051178345
1322,3.9780037,-8.960774,-0.22452174,-0.03234105,0.045803197,0.0051178345
1323,3.9780037,-8.960774,-0.22452174,-0.03234105,0.045803197,0.0051178345
1324,3.9775631,-8.961033,-0.22193357,-0.015301976,0.048217423,0.007822234
1325,3.9775631,-8.961033,-0.22193357,-0.015301976,0.048217423,0.007822234
1326,3.9775631,-8.961033,-0.22193357,-0.015301976,0.048217423,0.007822234
1327,3.9775631,-8.961033,-0.22193357,-0.015301976,0.048217423,0.007822234
1328,3.9775631,-8.961033,-0.22193357,-0.015301976,0.048217423,0.007822234
1329,3.9775631,-8.961033,-0.22193357,-0.015301976,0.048217423,0.007822234
1330,3.9773746,-8.961173,-0.21964698,-0.019226111,0.047715016,0.008055323
1331,3.9773746,-8.961173,-0.21964698,-0.019226111,0.047715016,0.008055323
1332,3.9773746,-8.961173,-0.21964698,-0.019226111,0.047715016,0.008055323
1333,3.9773746,-8.961173,-0.21964698,-0.019226111,0.047715016,0.008055323
1334,3.9773746,-8.961173,-0.21964698,-0.019226111,0.047715016,0.008055323
1335,3.9773746,-8.961173,-0.21964698,-0.019226111,0.047715016,0.008055323
1336,3.9773536,-8.961226,-0.21789539,-0.017763909,0.047709573,0.0033527338
1337,3.9773536,-8.961226,-0.21789539,-0.017763909,0.047709573,0.0033527338
1338,3.9773536,-8.961226,-0.21789539,-0.017763909,0.047709573,0.0033527338
1339,3.9773536,-8.961226,-0.21789539,-0.017763909,0.047709573,0.0033527338
1340,3.9773536,-8.961226,-0.21789539,-0.017763909,0.047709573,0.0033527338
1341,3.9773536,-8.961226,-0.21789539,-0.017763909,0.047709573,0.0033527338
1342,3.9777143,-8.961093,-0.21678083,-0.021143936,0.04625884,-0.001902907
1343,3.9777143,-8.961093,-0.21678083,-0.021143936,0.04625884,-0.001902907
1344,3.9777143,-8.961093,-0.21678083,-0.021143936,0.04625884,-0.001902907
1345,3.9777143,-8.961093,-0.21678083,-0.021143936,0.04625884,-0.001902907
1346,3.9777143,-8.961093,-0.21678083,-0.021143936,0.04625884,-0.001902907
1347,3.9777143,-8.961093,-0.21678083,-0.021143936,0.04625884,-0.001902907
1348,3.977875,-8.961035,-0.21624306,-0.025032468,0.047729112,-0.0018480887
1349,3.977875,-8.961035,-0.21624306,-0.025032468,0.047729112,-0.0018480887
1350,3.977875,-8.961035,-0.21624306,-0.025032468,0.047729112,-0.0018480887
1351,3.977875,-8.961035,-0.21624306,-0.025032468,0.047729112,-0.0018480887
1352,3.977875,-8.961035,-0.21624306,-0.025032468,0.047729112,-0.0018480887
1353,3.977875,-8.961035,-0.21624306,-0.025032468,0.047729112,-0.0018480887
1354,3.9784205,-8.960785,-0.21651728,-0.031810455,0.040432874,-0.0018760425
1355,3.9784205,-8.960785,-0.21651728,-0.031810455,0.040432874,-0.0018760425
1356,3.9784205,-8.960785,-0.21651728,-0.031810455,0.040432874,-0.0018760425
1357,3.9784205,-8.960785,-0.21651728,-0.031810455,0.040432874,-0.0018760425
