,gravity.x,gravity.y,gravity.z,userAcceleration.x,userAcceleration.y,userAcceleration.z
0,0.100293,0.994106,0.041111,-0.027966,-0.036617,0.240444
1,0.103072,0.993484,0.048596,-0.04869,-0.034088,0.240314
2,0.105472,0.992712,0.058265,-0.037097,-0.028005,0.167642
3,0.1052319999999999,0.992298,0.065318,-0.0187139999999999,-0.021519,0.191762
4,0.103709,0.991636,0.076801,0.041738,-0.024275,0.240521
5,0.10343,0.990409,0.091589,0.0570769999999999,-0.056968,0.236094
6,0.104745,0.988908,0.1052859999999999,0.064795,-0.005174,0.2085719999999999
7,0.107485,0.987357,0.116476,0.050886,0.032937,0.1855109999999999
8,0.110225,0.985958,0.125426,0.061818,0.067951,0.168565
9,0.113228,0.984568,0.133414,0.057579,0.034337,0.166315
10,0.1168299999999999,0.983226,0.140039,0.047858,-0.027491,0.15444
11,0.120886,0.981856,0.146075,0.086039,0.001191,0.1385009999999999
12,0.124779,0.980669,0.150703,0.086189,0.0126319999999999,0.128518
13,0.129301,0.979196,0.156359,0.063524,0.023596,0.096144
14,0.133529,0.977745,0.161793,0.036911,0.034203,0.0941429999999999
15,0.137441,0.976419,0.166455,0.035594,0.036246,0.091602
16,0.141683,0.974928,0.17156,0.0447339999999999,0.026659,0.087595
17,0.146305,0.973341,0.176616,0.0281029999999999,0.035494,0.102468
18,0.150669,0.971939,0.180621,0.010998,0.0446779999999999,0.107038
19,0.154989,0.97055,0.184395,-0.025351,0.051529,0.1130289999999999
20,0.159073,0.969246,0.187747,-0.057388,0.038337,0.099012
21,0.162518,0.968228,0.1900349999999999,-0.064237,0.040408,0.09181
22,0.164738,0.967321,0.192723,-0.0274089999999999,0.043329,0.090938
23,0.1667789999999999,0.966804,0.193563,-0.036316,0.042443,0.079569
24,0.168088,0.966477,0.1940609999999999,-0.047757,0.030868,0.07428
25,0.167774,0.966316,0.195126,-0.016849,0.027794,0.046283
26,0.168592,0.96618,0.195095,0.000414,0.031836,0.036182
27,0.168895,0.966134,0.195064,0.00211,0.01847,0.0122569999999999
28,0.169243,0.966171,0.194576,-0.015571,0.009201,-0.0135
29,0.169699,0.966204,0.194012,-0.016608,0.0155919999999999,-0.0246699999999999
30,0.170442,0.966329,0.192732,0.001982,0.019114,-0.00566
31,0.170866,0.966597,0.191004,0.018129,0.014253,-0.020076
32,0.170569,0.96698,0.189322,0.003045,0.005996,-0.020483
33,0.169602,0.967403,0.188028,0.000381,0.005879,-0.034128
34,0.168632,0.967725,0.187244,0.021874,0.012698,-0.039081
35,0.16838,0.967922,0.186454,0.037492,0.013722,-0.032661
36,0.168028,0.968151,0.185578,0.039629,0.000126,-0.036209
37,0.1673579999999999,0.968393,0.184922,0.032639,-0.00622,-0.0525669999999999
38,0.167078,0.968564,0.184279,0.041402,-0.008038,-0.05995
39,0.166989,0.968646,0.183926,0.064716,-0.018268,-0.0565909999999999
40,0.166894,0.968679,0.18384,0.071906,-0.013738,-0.06006
41,0.166467,0.968797,0.183605,0.06919,0.009887,-0.069393
42,0.165743,0.968942,0.183496,0.063978,0.00817,-0.075861
43,0.165342,0.969001,0.18354,0.073031,-0.015281,-0.075126
44,0.16538,0.968953,0.183759,0.088541,-0.023992,-0.076306
45,0.16565,0.968848,0.184069,0.089278,-0.020622,-0.062914
46,0.166,0.968689,0.184593,0.06308,-0.021805,-0.058144
47,0.167202,0.968472,0.184647,0.023426,-0.015607,-0.060974
48,0.166439,0.968273,0.186374,0.016804,-0.009151,-0.060871
49,0.16608,0.968151,0.187327,0.008084,-0.002285,-0.060877
50,0.165021,0.968191,0.188053,0.022113,0.012568,-0.041798
51,0.163892,0.968317,0.188391,0.0270569999999999,0.0049039999999999,-0.062704
52,0.1624799999999999,0.96846,0.188877,0.0148729999999999,-0.009124,-0.077442
53,0.160502,0.968792,0.188865,0.033574,-0.007854,-0.08155
54,0.158282,0.969165,0.188824,0.045453,0.010862,-0.080486
55,0.156268,0.969473,0.188918,0.068982,0.0133759999999999,-0.069869
56,0.154437,0.969551,0.190019,0.053541,-0.022866,-0.095841
57,0.15247,0.96936,0.192566,0.050624,-0.05365,-0.113998
58,0.149525,0.969161,0.195847,0.088589,-0.049788,-0.135758
59,0.146284,0.968997,0.19908,0.109271,0.013883,-0.134169
60,0.143181,0.968783,0.202346,0.104453,0.025632,-0.1149589999999999
61,0.139755,0.968371,0.206671,0.062424,0.00604,-0.073706
62,0.136966,0.967597,0.212092,0.04501,0.012872,-0.05218
63,0.134891,0.966675,0.217556,0.056058,0.027954,-0.059261
64,0.133932,0.965933,0.221409,0.137094,0.056116,-0.085377
65,0.132548,0.964832,0.2269739999999999,0.101461,0.073742,-0.1020659999999999
66,0.133881,0.963529,0.23168,0.1017909999999999,0.0974,-0.0725919999999999
67,0.135493,0.962652,0.234369,0.0620169999999999,0.10528,-0.060984
68,0.1355309999999999,0.962505,0.234954,0.060209,0.0946549999999999,-0.0538779999999999
69,0.1342799999999999,0.963172,0.232928,0.090421,0.1009149999999999,-0.0223419999999999
70,0.133544,0.964396,0.22824,0.096985,0.150091,0.006226
71,0.134804,0.965832,0.221323,0.096077,0.180225,0.037436
72,0.1381619999999999,0.967434,0.212062,0.067435,0.200474,0.106023
73,0.142105,0.969508,0.199617,0.026001,0.1972549999999999,0.109922
74,0.1449359999999999,0.972352,0.183062,-0.0609669999999999,0.173842,0.121672
75,0.145495,0.976018,0.161888,-0.128634,0.099849,0.123772
76,0.14278,0.979939,0.139002,-0.149799,0.02586,0.112203
77,0.137506,0.983653,0.116218,-0.100336,-0.020671,0.096734
78,0.130814,0.987005,0.093261,-0.02597,-0.014287,0.054734
79,0.1240319999999999,0.989813,0.069816,0.051413,0.010004,0.027306
80,0.1186619999999999,0.99182,0.046924,0.1246849999999999,0.0093099999999999,-0.0189699999999999
81,0.1155359999999999,0.992972,0.025421,0.115559,-0.029563,-0.0311889999999999
82,0.114993,0.99335,0.00467,0.075589,-0.0117209999999999,-0.026536
83,0.116666,0.993057,-0.014708,0.035556,0.000519,-0.012376
84,0.119054,0.992346,-0.032629,-0.003209,-0.011649,0.0058189999999999
85,0.121126,0.99137,-0.0500279999999999,-0.075883,-0.061942,0.043635
86,0.122958,0.990161,-0.066732,-0.0916169999999999,-0.081088,0.0686539999999999
87,0.1263099999999999,0.988539,-0.082617,-0.074491,-0.065657,0.085822
88,0.132665,0.986327,-0.097724,-0.078801,-0.065703,0.068869
89,0.139308,0.983933,-0.1116279999999999,-0.01208,-0.140762,0.052775
90,0.1418,0.982179,-0.123322,-0.016541,-0.0999159999999999,0.063035
91,0.140837,0.981046,-0.1330569999999999,-0.0127549999999999,-0.041807,0.052735
92,0.14067,0.979824,-0.141948,-0.0234979999999999,-0.000179,0.071635
93,0.141369,0.978242,-0.151816,-0.0516169999999999,0.010161,0.075995
94,0.142713,0.976154,-0.163549,-0.080427,0.03172,0.129919
95,0.145564,0.973957,-0.173814,-0.090357,-0.007526,0.166108
96,0.149499,0.972126,-0.18059,-0.071496,-0.0441779999999999,0.131793
97,0.152915,0.97096,-0.183971,-0.08248,-0.0463839999999999,0.093563
98,0.154687,0.970303,-0.185945,-0.061807,-0.0797539999999999,0.050493
99,0.1532059999999999,0.970138,-0.18802,-0.042778,-0.081649,0.0280769999999999
100,0.1504859999999999,0.970057,-0.190615,0.007992,-0.0269879999999999,0.0396139999999999
101,0.148215,0.970078,-0.19228,0.047845,-0.005494,0.03925
102,0.147432,0.970123,-0.192657,0.055113,0.001374,0.020431
103,0.148333,0.970131,-0.191924,0.037382,-0.010139,-0.0073709999999999
104,0.150605,0.970219,-0.189697,0.013916,-0.0483899999999999,-0.0262
105,0.153272,0.970544,-0.18586,-0.001767,-0.03959,-0.031608
106,0.154597,0.971346,-0.180492,0.0033159999999999,-0.082125,-0.05817
107,0.154711,0.972369,-0.174799,0.029966,-0.064059,-0.065588
108,0.154872,0.97357,-0.1678319999999999,0.0147139999999999,-0.04283,-0.057235
109,0.15666,0.973983,-0.1637289999999999,-0.036116,0.122484,0.008364
110,0.159895,0.973679,-0.162405,0.00989,0.286178,0.04482
111,0.162212,0.974086,-0.157591,-0.0545309999999999,0.210865,0.059111
112,0.163543,0.9745,-0.153606,-0.072296,0.129793,0.024043
113,0.165519,0.97423,-0.153199,-0.03881,0.083158,0.019135
114,0.168704,0.973542,-0.154096,0.0001189999999999,-0.021378,0.027372
115,0.170198,0.973169,-0.1548119999999999,-0.001741,-0.2085659999999999,0.01405
116,0.168706,0.973489,-0.154428,0.002147,-0.153238,0.029443
117,0.166735,0.974236,-0.151837,0.008176,-0.028695,0.082639
118,0.165047,0.975441,-0.145825,0.055061,0.05616,0.17651
119,0.164705,0.976834,-0.136596,0.04492,0.068576,0.117629
120,0.167384,0.97785,-0.125629,0.028112,0.081369,0.051471
121,0.170993,0.9784,-0.116127,0.009228,0.029061,0.055962
122,0.171026,0.979089,-0.110118,0.051523,0.0269839999999999,0.146861
123,0.16758,0.980398,-0.103571,0.090095,0.019922,0.220209
124,0.163581,0.981937,-0.0950309999999999,0.098489,0.00172,0.260192
125,0.161777,0.983271,-0.0836529999999999,0.036847,0.001913,0.23531
126,0.161651,0.9843,-0.070802,-0.048217,0.010512,0.198274
127,0.160749,0.98526,-0.058408,-0.102461,0.01683,0.164716
128,0.158227,0.986299,-0.0465589999999999,-0.121697,0.0455,0.127766
129,0.15455,0.987318,-0.036143,-0.092188,0.050081,0.114939
130,0.15129,0.988104,-0.027407,-0.0158069999999999,0.017939,0.100496
131,0.149355,0.98858,-0.0197919999999999,0.038221,-0.0028469999999999,0.093019
132,0.148725,0.988792,-0.012691,0.0527669999999999,-0.005561,0.087672
133,0.149335,0.98877,-0.004576,0.06444,-0.0374,0.08174
134,0.1502359999999999,0.988631,0.005062,0.048036,-0.026274,0.0598029999999999
135,0.1522359999999999,0.988209,0.015922,0.040513,-0.039937,0.049767
136,0.155083,0.987548,0.026186,0.027412,-0.018431,0.041471
137,0.1592029999999999,0.986595,0.035648,0.026496,-0.021736,0.052594
138,0.162249,0.985757,0.044101,0.018812,-0.012216,0.0437899999999999
139,0.164349,0.984983,0.0527539999999999,0.001117,0.004396,0.044826
140,0.165196,0.984303,0.0619899999999999,-0.014638,0.0122329999999999,0.030112
141,0.164306,0.983881,0.070486,-0.0148919999999999,0.014609,0.019602
142,0.1615349999999999,0.983818,0.077423,-0.017889,-0.021156,0.021591
143,0.158893,0.983642,0.084769,0.0032159999999999,0.016464,0.023141
144,0.157599,0.983086,0.093217,-0.011847,-0.04226,0.011672
145,0.1565089999999999,0.982395,0.1019299999999999,-0.009444,-0.053791,0.008147
146,0.154808,0.981775,0.11017,0.0145189999999999,-0.016397,0.0058579999999999
147,0.152338,0.981327,0.117373,0.048956,0.000759,-0.006411
148,0.149577,0.980954,0.123863,0.061314,0.012286,-0.0305399999999999
149,0.146904,0.980579,0.12988,0.063286,-0.071659,-0.0285769999999999
150,0.142765,0.980393,0.135771,0.051128,0.017212,-0.040175
151,0.140215,0.979912,0.141768,0.060575,0.002647,-0.035612
152,0.138122,0.979452,0.1469059999999999,0.030381,-0.022985,-0.045542
153,0.133764,0.979236,0.15228,0.027461,-0.006076,-0.064664
154,0.12824,0.979132,0.157609,0.039241,-0.010534,-0.1063089999999999
155,0.121442,0.979117,0.162998,0.096484,-0.0257319999999999,-0.128742
156,0.113107,0.979076,0.169125,0.128791,-0.017727,-0.116314
157,0.105889,0.979055,0.173854,0.141319,0.0763809999999999,-0.004497
158,0.099777,0.978659,0.1796,0.12912,0.13801,0.011852
159,0.096994,0.977931,0.185007,0.149802,0.16599,0.0352079999999999
160,0.0965559999999999,0.977162,0.189254,0.100252,0.263439,0.017121
161,0.097624,0.976394,0.192637,0.055406,0.276475,0.0212
162,0.09929,0.976097,0.19329,-0.030274,0.2727429999999999,0.052163
163,0.1016659999999999,0.976232,0.191364,-0.0411959999999999,0.154277,0.054272
164,0.1027039999999999,0.977122,0.186198,-0.032117,0.117269,0.058903
165,0.1027119999999999,0.97881,0.1771039999999999,-0.021932,0.078578,0.077794
166,0.102249,0.98088,0.165543,-0.020736,-0.070556,0.09201
167,0.1017769999999999,0.983101,0.152113,-0.066468,-0.130913,0.088075
168,0.101784,0.985434,0.136183,-0.111854,-0.118322,0.075182
169,0.101425,0.98793,0.117013,-0.113739,-0.078521,0.047141
170,0.099651,0.990464,0.095055,-0.081493,-0.060685,0.050956
171,0.097122,0.992612,0.072621,0.063019,-0.029279,0.020931
172,0.095208,0.994278,0.048287,0.077095,0.038024,0.032356
173,0.0950889999999999,0.995196,0.023015,0.0461769999999999,0.097166,0.048625
174,0.096603,0.995316,-0.000682,-0.002639,0.093246,0.046458
175,0.099383,0.994822,-0.020941,-0.029452,0.049093,0.037268
176,0.103019,0.993931,-0.038401,-0.029457,0.004802,0.021052
177,0.106973,0.992746,-0.054758,-0.058374,-0.0188389999999999,0.020456
178,0.110225,0.991343,-0.071249,-0.080928,0.009954,0.039098
179,0.1126609999999999,0.989769,-0.087482,-0.065069,-0.0234139999999999,0.0493959999999999
180,0.114828,0.988096,-0.1023169999999999,-0.025427,-0.1243869999999999,0.049338
181,0.11499,0.986666,-0.115133,-0.018005,-0.075625,0.039053
182,0.1136539999999999,0.985511,-0.125851,-0.004707,-0.044074,0.018185
183,0.112272,0.984411,-0.135343,-0.0048189999999999,-0.044317,0.047178
184,0.1115369999999999,0.983237,-0.144191,-0.019923,-0.074622,0.063884
185,0.110245,0.982265,-0.151618,-0.033981,-0.077068,0.064948
186,0.1078269999999999,0.98178,-0.156422,-0.044152,-0.100051,0.027882
187,0.103874,0.981907,-0.158289,-0.0463019999999999,-0.075962,0.0046479999999999
188,0.100196,0.982357,-0.157866,-0.0279759999999999,-0.098934,-0.013352
189,0.09745,0.982954,-0.155855,0.009805,-0.121291,-0.039274
190,0.095854,0.983522,-0.15324,0.050493,-0.1191579999999999,-0.040852
191,0.095546,0.984059,-0.149952,0.080983,-0.076191,-0.0635039999999999
192,0.0963059999999999,0.984584,-0.1459619999999999,0.079658,-0.041317,-0.0752299999999999
193,0.097757,0.984951,-0.142478,0.085089,0.057239,-0.066872
194,0.099875,0.984959,-0.140948,0.07551,0.095363,-0.076932
195,0.101609,0.984908,-0.140066,0.063079,0.11075,-0.113901
196,0.102952,0.984853,-0.139465,0.009902,0.120219,-0.172211
197,0.104194,0.985031,-0.137267,-0.024345,0.057144,-0.185059
198,0.1048109999999999,0.98541,-0.134044,-0.036436,0.074649,-0.182743
199,0.104975,0.985551,-0.132873,0.0457819999999999,0.09999,-0.14676
200,0.105818,0.985798,-0.130345,0.0376,0.060161,-0.0525919999999999
201,0.107885,0.986126,-0.126101,-0.006551,0.026142,0.0011619999999999
202,0.111132,0.986835,-0.1174359999999999,-0.126681,0.056927,0.087132
203,0.115383,0.987923,-0.103344,-0.265132,0.188194,0.042629
204,0.120848,0.98881,-0.087378,-0.278777,0.3468989999999999,0.002371
205,0.124134,0.989501,-0.073901,-0.148075,0.080979,0.1008179999999999
206,0.122602,0.990282,-0.065524,-0.166425,-0.203401,0.149524
207,0.117343,0.990952,-0.0650179999999999,-0.145648,-0.145112,0.173966
208,0.111178,0.991633,-0.06546,-0.1655299999999999,-0.089778,0.279694
209,0.107249,0.992594,-0.056898,-0.1577859999999999,-0.031855,0.243864
210,0.1101109999999999,0.993123,-0.03954,-0.114353,0.0771429999999999,0.147755
211,0.1215369999999999,0.992296,-0.0236539999999999,-0.118531,0.1395549999999999,0.0069
212,0.137394,0.990383,-0.015709,-0.173985,0.064228,0.01574
213,0.149246,0.988706,-0.0129419999999999,-0.07605,-0.098249,0.124118
214,0.156042,0.987718,-0.006716,0.115549,-0.031816,0.120897
215,0.161289,0.986881,0.005745,0.15144,-0.039906,0.082191
216,0.170117,0.985175,0.021709,0.139835,-0.105476,-0.030468
217,0.180144,0.982968,0.036094,0.065354,-0.096219,-0.1033849999999999
218,0.188331,0.98094,0.0476339999999999,0.049249,-0.067885,-0.103115
219,0.194943,0.979053,0.058591,0.027255,-0.065723,-0.1061839999999999
220,0.200578,0.977203,0.069453,0.0129229999999999,-0.095733,-0.110392
221,0.204862,0.975595,0.078903,0.024798,-0.102945,-0.11229
222,0.207734,0.974251,0.087535,0.058623,-0.153084,-0.121089
223,0.209638,0.973007,0.096385,0.069171,-0.1203299999999999,-0.149943
224,0.209781,0.972083,0.105012,0.066357,-0.090292,-0.184282
225,0.207512,0.971695,0.112821,0.0768659999999999,-0.055923,-0.188306
226,0.20207,0.972016,0.11972,-0.0022719999999999,-0.077088,-0.181991
227,0.1955829999999999,0.972293,0.127958,-0.022213,-0.060199,-0.199613
228,0.189124,0.97241,0.136496,-0.034644,-0.0361149999999999,-0.1929529999999999
229,0.1826549999999999,0.972451,0.144761,0.099724,0.031944,-0.103822
230,0.176512,0.972214,0.153699,0.113375,-0.02298,-0.105512
231,0.17012,0.971538,0.1647799999999999,0.090149,-0.011562,-0.086685
232,0.165225,0.970096,0.17775,0.136273,0.306043,-0.033387
233,0.168185,0.966733,0.192665,0.310178,0.399859,0.102104
234,0.181015,0.962194,0.203456,0.277816,0.4925029999999999,0.097401
235,0.200013,0.958229,0.204376,-0.037202,0.620109,0.094391
236,0.219297,0.956389,0.192889,-0.2807449999999999,0.4508979999999999,0.040357
237,0.2352909999999999,0.957138,0.1688319999999999,-0.360795,0.403961,0.0028899999999999
238,0.242837,0.960601,0.135113,-0.407311,0.443833,0.0463439999999999
239,0.23983,0.96569,0.099525,-0.311363,0.362008,0.124794
240,0.230951,0.970519,0.068813,-0.0573669999999999,0.2715619999999999,0.083149
241,0.221334,0.974315,0.041264,0.0447329999999999,0.247044,0.049175
242,0.214294,0.976684,0.012182,-0.000976,0.1612859999999999,0.001734
243,0.210342,0.977458,-0.017733,-0.077712,0.016668,-0.0287
244,0.20908,0.976785,-0.046462,-0.167119,-0.126199,-0.0318009999999999
245,0.209814,0.975069,-0.072123,-0.190404,-0.1691,-0.054723
246,0.2125989999999999,0.97262,-0.093784,-0.138579,-0.272883,-0.008862
247,0.216511,0.969874,-0.111581,-0.039829,-0.593379,0.018883
248,0.216536,0.968086,-0.126113,-0.042769,-0.603142,0.011642
249,0.214687,0.967062,-0.13669,-0.05476,-0.5822350000000001,0.0208
250,0.211135,0.967242,-0.140882,-0.076538,-0.71973,-0.005908
251,0.203145,0.969302,-0.138452,-0.099996,-0.635608,-0.072531
252,0.195018,0.972116,-0.130163,-0.071315,-0.5648890000000001,-0.10618
253,0.1885349999999999,0.975002,-0.1175109999999999,-0.013074,-0.537166,-0.192563
254,0.186664,0.976637,-0.106391,-0.003009,-0.1080609999999999,-0.387383
255,0.18744,0.976575,-0.105595,0.012862,0.143649,-0.3736219999999999
256,0.191578,0.973687,-0.12335,0.04533,0.845878,-0.427965
257,0.200689,0.968402,-0.148006,0.068476,0.963331,-0.4453319999999999
258,0.213903,0.963512,-0.160853,0.016597,0.718006,-0.587895
259,0.22793,0.960909,-0.157118,-0.10264,0.019896,-0.4200609999999999
260,0.233702,0.957957,-0.166392,-0.132856,0.088781,-0.302892
261,0.2366,0.955288,-0.177284,-0.278394,0.612538,0.160546
262,0.241925,0.95158,-0.189615,-0.6014520000000001,1.11446,0.434122
263,0.242808,0.950604,-0.19334,-0.472376,0.727115,0.394146
264,0.23364,0.956239,-0.1760789999999999,-0.411756,-0.53708,0.173103
265,0.22115,0.96236,-0.157926,-0.2176409999999999,-0.267032,0.259611
266,0.2163179999999999,0.965111,-0.14748,0.134939,-0.028374,0.339802
267,0.21727,0.966832,-0.134212,0.218583,0.144831,0.262935
268,0.22166,0.968545,-0.1130099999999999,-0.133434,0.174018,0.2261699999999999
269,0.227119,0.970397,-0.0820289999999999,-0.2471539999999999,-0.088683,0.131666
270,0.231067,0.971787,-0.047115,-0.2298619999999999,-0.147171,0.100048
271,0.232504,0.97243,-0.017394,-0.203451,-0.163043,0.09001
272,0.236508,0.971601,0.0060079999999999,-0.199964,-0.288389,0.107838
273,0.243738,0.969534,0.023981,-0.192239,-0.3825139999999999,0.139853
274,0.250717,0.967022,0.04459,-0.009705,-0.165097,0.183773
275,0.249824,0.965566,0.0724539999999999,-0.034797,-0.1193289999999999,-0.0593159999999999
276,0.243357,0.96492,0.098424,-0.073923,-0.2319179999999999,-0.149617
277,0.230431,0.966041,0.1168109999999999,-0.220131,-0.259071,-0.041875
278,0.211757,0.968246,0.132806,-0.077419,-0.113052,-0.182428
279,0.189882,0.970915,0.145767,0.049208,-0.10359,-0.216201
280,0.163897,0.974304,0.154428,0.356198,-0.029418,-0.31077
281,0.139315,0.976448,0.164675,0.231229,-0.0135419999999999,-0.401155
282,0.120622,0.977033,0.175597,0.195662,-0.068616,-0.33493
283,0.104324,0.976788,0.187026,0.627518,0.024128,-0.348342
284,0.091049,0.975568,0.199888,0.56102,0.2336909999999999,-0.326825
285,0.085617,0.973069,0.213969,0.196884,0.605804,-0.130961
286,0.09633,0.970202,0.2222739999999999,0.306944,0.577284,0.1957559999999999
287,0.118548,0.968855,0.217354,0.081021,0.357439,0.1025619999999999
288,0.1516549999999999,0.969419,0.192885,-0.279188,0.644091,0.097505
289,0.182776,0.97199,0.14767,-0.449546,0.975215,0.256154
290,0.19979,0.974608,0.101006,-0.468192,0.8063520000000001,0.408698
291,0.205726,0.976278,0.067361,-0.178245,0.482508,0.240592
292,0.208148,0.977131,0.043241,-0.184023,0.4772,-0.018155
293,0.212247,0.977027,0.018696,-0.003309,0.124276,-0.143391
294,0.2186429999999999,0.975774,-0.006393,0.019898,-0.066518,-0.08606
295,0.2255219999999999,0.973784,-0.029407,-0.056165,-0.313643,-0.004528
296,0.228986,0.972026,-0.052091,-0.230206,-0.542582,0.063337
297,0.228778,0.970664,-0.073859,-0.209094,-0.4574189999999999,0.074973
298,0.2272949999999999,0.969526,-0.091316,-0.143677,-0.509443,0.104225
299,0.221714,0.969384,-0.10545,-0.090961,-0.7735529999999999,0.025006
300,0.2121969999999999,0.970081,-0.117889,-0.065957,-0.7315560000000001,0.055053
301,0.202989,0.970883,-0.127144,-0.038423,-0.7600979999999999,0.01339
302,0.195306,0.972173,-0.1293,-0.022134,-0.7748619999999999,0.008985
303,0.188298,0.973928,-0.126458,0.018779,-0.658834,-0.029655
304,0.1807619999999999,0.975602,-0.1245339999999999,0.078119,-0.161943,-0.130792
305,0.174812,0.976226,-0.128091,-0.134635,0.414781,-0.260001
306,0.173043,0.974132,-0.145278,-0.1438829999999999,0.774296,-0.264802
307,0.1752369999999999,0.969499,-0.171311,-0.078969,0.894316,-0.537719
308,0.178904,0.966809,-0.182367,-0.196314,0.430224,-0.533758
309,0.180585,0.96516,-0.189315,-0.312299,0.157094,-0.271393
310,0.174113,0.960133,-0.218665,-0.148814,1.3652,0.324912
311,0.177285,0.952865,-0.246177,-0.2625659999999999,1.257065,0.409599
312,0.1903359999999999,0.949587,-0.249083,-0.310773,0.710493,0.387999
313,0.203063,0.950498,-0.235171,-0.391173,-0.495709,0.203372
314,0.199688,0.953257,-0.226738,-0.306682,-0.435176,0.170601
315,0.187703,0.956674,-0.222548,-0.009893,-0.214898,0.348326
316,0.1768809999999999,0.961483,-0.210351,0.556929,0.196872,0.397134
317,0.167647,0.968127,-0.1860359999999999,0.025514,0.183546,0.266771
318,0.162222,0.974937,-0.152204,-0.2048849999999999,0.1210869999999999,0.1426059999999999
319,0.160065,0.980311,-0.1155539999999999,-0.236313,-0.098856,0.022964
320,0.161152,0.983355,-0.0838179999999999,-0.157566,-0.269732,0.0300459999999999
321,0.164192,0.984629,-0.059395,-0.102302,-0.407572,0.048012
322,0.1691349999999999,0.984733,-0.040923,-0.071494,-0.497322,0.151946
323,0.173112,0.984649,-0.021874,-0.068559,-0.395843,0.144722
324,0.1720529999999999,0.985076,0.001838,-0.10644,-0.273406,0.024331
325,0.165763,0.985825,0.025512,-0.156379,-0.334626,-0.033355
326,0.153981,0.987018,0.0454279999999999,-0.0980419999999999,-0.295429,0.01283
327,0.1383339999999999,0.988381,0.062811,-0.019758,-0.098961,-0.045737
328,0.122113,0.989664,0.075038,0.010227,-0.0869539999999999,-0.075725
329,0.105852,0.990759,0.0846809999999999,0.005476,-0.095953,-0.121363
330,0.089982,0.991536,0.093473,0.1115099999999999,-0.008504,-0.083234
331,0.072713,0.992194,0.101201,0.327723,-0.068976,-0.232838
332,0.057644,0.992267,0.109821,0.530277,0.066708,-0.2545659999999999
333,0.048312,0.991295,0.1223829999999999,0.599973,0.061928,-0.223182
334,0.043769,0.988803,0.1425809999999999,0.3707519999999999,0.4794279999999999,-0.184222
335,0.0530039999999999,0.985261,0.1625599999999999,0.380651,0.59445,0.045158
336,0.072032,0.982135,0.1737759999999999,0.32343,0.5239689999999999,0.061728
337,0.098678,0.980911,0.167486,-0.047698,0.540008,0.200785
338,0.131175,0.981272,0.140977,-0.3279829999999999,0.642629,0.118346
339,0.15819,0.98223,0.100879,-0.335162,0.693948,0.255536
340,0.175026,0.98266,0.061022,-0.333122,0.637595,0.302458
341,0.185821,0.982085,0.030947,-0.165832,0.4520119999999999,-0.008486
342,0.193472,0.981075,0.006194,-0.093954,0.432896,-0.07405
343,0.199863,0.979602,-0.020315,-0.031162,0.197568,-0.0309699999999999
344,0.206157,0.977466,-0.045147,-0.064174,-0.177768,-0.009815
345,0.2120909999999999,0.974864,-0.068094,-0.136819,-0.385204,0.090921
346,0.216251,0.972094,-0.090821,-0.2221409999999999,-0.487658,0.159897
347,0.217973,0.96958,-0.111279,-0.215684,-0.482153,0.134839
348,0.2176199999999999,0.967789,-0.126513,-0.147552,-0.6857310000000001,0.141024
349,0.211557,0.967614,-0.137654,-0.131189,-0.6924060000000001,0.08312
350,0.202354,0.968142,-0.147431,-0.131386,-0.628893,0.093735
351,0.193192,0.969149,-0.152996,-0.101151,-0.671191,0.092984
352,0.186021,0.970734,-0.15183,-0.042802,-0.716828,0.041128
353,0.180457,0.972626,-0.146342,-0.059745,-0.518402,-0.08849
354,0.174321,0.974154,-0.143593,-0.071355,-0.355196,-0.128227
355,0.171011,0.974164,-0.147449,-0.189046,0.4973479999999999,-0.308011
356,0.174152,0.970701,-0.165508,-0.017993,1.2857379999999998,-0.369831
357,0.181658,0.964541,-0.191426,0.17494,1.240827,-0.461971
358,0.189383,0.962514,-0.194123,-0.113272,0.028895,-0.4120479999999999
359,0.194545,0.96036,-0.199607,-0.100978,0.515988,-0.318535
360,0.191933,0.955243,-0.225069,-0.002907,1.003543,-0.158506
361,0.192315,0.950666,-0.243378,-0.45501,1.0656450000000002,0.347595
362,0.193806,0.951314,-0.239635,-0.343265,-0.0326129999999999,0.315608
363,0.198536,0.953906,-0.225014,-0.268528,-0.4788229999999999,0.214943
364,0.193656,0.957368,-0.214308,-0.156104,-0.310761,0.285948
365,0.1847059999999999,0.961139,-0.2051329999999999,0.138552,-0.10152,0.415155
366,0.178457,0.965543,-0.189377,0.299388,-0.041455,0.405457
367,0.173465,0.971055,-0.16415,0.01759,0.07524,0.275539
368,0.167796,0.976994,-0.131563,-0.19726,0.058345,0.119218
369,0.165152,0.981773,-0.093959,-0.221884,-0.034187,0.053859
370,0.166148,0.984225,-0.060647,-0.19897,-0.220751,0.009041
371,0.170882,0.98467,-0.034723,-0.159911,-0.436421,0.024072
372,0.178419,0.983795,-0.01714,-0.116347,-0.628265,0.1403849999999999
373,0.1852069999999999,0.982689,-0.000367,-0.068645,-0.4427569999999999,0.192963
374,0.185202,0.982398,0.02392,-0.137442,-0.174491,-0.036981
375,0.1807869999999999,0.982193,0.050897,-0.150132,-0.282303,-0.0891049999999999
376,0.170455,0.982635,0.073144,-0.138198,-0.283859,-0.077309
377,0.153587,0.984049,0.089635,-0.00402,-0.03657,-0.0908409999999999
378,0.132372,0.985914,0.102109,0.0434089999999999,-0.03398,-0.138898
379,0.109865,0.9873,0.11465,0.1127,-0.0379899999999999,-0.187801
380,0.08855,0.98793,0.126998,0.296887,-0.029999,-0.223189
381,0.07006,0.987997,0.137588,0.412988,-0.035375,-0.272063
382,0.057665,0.98727,0.148149,0.592054,0.039723,-0.3034679999999999
383,0.049814,0.98536,0.162971,0.4270069999999999,0.4570229999999999,-0.124794
384,0.049851,0.98147,0.184951,0.295562,0.6854,-0.001174
385,0.064015,0.977509,0.200879,0.388744,0.6308739999999999,0.2151219999999999
386,0.087228,0.975315,0.202795,-0.076058,0.6468010000000001,0.243677
387,0.117776,0.976307,0.1814599999999999,-0.355996,0.5964619999999999,0.160963
388,0.145371,0.979155,0.141771,-0.57805,0.734117,0.128599
389,0.161137,0.982138,0.097037,-0.37682,0.524942,0.2521
390,0.168009,0.983872,0.061211,-0.0718169999999999,0.40686,0.1043619999999999
391,0.170978,0.984676,0.034026,0.132916,0.321965,-0.113372
392,0.173928,0.98471,0.008573,0.090705,0.204926,-0.07414
393,0.17943,0.983631,-0.015946,0.141767,0.038037,-0.076507
394,0.185274,0.981861,-0.040027,-0.088137,-0.4427069999999999,0.117709
395,0.187465,0.980198,-0.063628,-0.217876,-0.651036,0.146956
396,0.186912,0.97879,-0.083754,-0.245658,-0.628128,0.169188
397,0.18511,0.977554,-0.100517,-0.1923119999999999,-0.773422,0.078056
398,0.179626,0.976994,-0.114888,-0.13449,-0.8619879999999999,0.063252
399,0.170274,0.977116,-0.127408,-0.107316,-0.820485,0.07951
400,0.161205,0.977404,-0.13666,-0.088069,-0.6865720000000001,0.0750909999999999
401,0.1532069999999999,0.978334,-0.139183,-0.042917,-0.683916,0.034782
402,0.1466309999999999,0.979893,-0.135245,0.002355,-0.557606,-0.057061
403,0.140488,0.981032,-0.133498,0.029327,-0.209319,-0.16707
404,0.134205,0.981437,-0.13694,-0.016835,0.2315449999999999,-0.201011
405,0.131627,0.980023,-0.149038,0.04742,0.8769110000000001,-0.378794
406,0.13762,0.975969,-0.1689,-0.177598,1.0246110000000002,-0.561539
407,0.145343,0.972722,-0.180747,-0.227908,0.439433,-0.406213
408,0.153541,0.968262,-0.197172,-0.262977,0.7172850000000001,-0.240892
409,0.156493,0.956748,-0.245209,0.0516059999999999,2.0013970000000003,0.195999
410,0.163938,0.947999,-0.272775,-0.203749,0.612517,0.358529
411,0.179447,0.947648,-0.2640949999999999,-0.337284,-0.239472,0.237926
412,0.193305,0.948026,-0.252713,-0.249167,-0.4791229999999999,0.2571989999999999
413,0.190524,0.949192,-0.2504369999999999,-0.0194419999999999,-0.067234,0.368037
414,0.181391,0.952952,-0.2428219999999999,0.168539,0.063054,0.3996369999999999
415,0.1696599999999999,0.960608,-0.220069,-0.055585,0.200967,0.2533019999999999
416,0.161182,0.969104,-0.186654,-0.291614,0.0666929999999999,0.115197
417,0.156444,0.976372,-0.1490119999999999,-0.297069,0.008217,0.080225
418,0.155628,0.980943,-0.116237,-0.154148,-0.076081,0.027462
419,0.157624,0.983494,-0.088739,-0.079987,-0.284458,0.004282
420,0.161891,0.984676,-0.064676,-0.0609539999999999,-0.455929,-0.010489
421,0.167363,0.984782,-0.046606,-0.002721,-0.494456,0.070044
422,0.1731869999999999,0.984387,-0.03111,0.0816809999999999,-0.476864,0.158689
423,0.177767,0.984008,-0.0102709999999999,0.022215,-0.339858,0.046511
424,0.175429,0.984383,0.01385,-0.129134,-0.3946,-0.024424
425,0.163296,0.985878,0.036831,-0.164028,-0.352638,0.0051
426,0.143568,0.987832,0.059604,-0.181562,-0.188332,-0.0465579999999999
427,0.121391,0.989488,0.078441,-0.2561719999999999,-0.160447,-0.14413
428,0.099386,0.990617,0.093676,-0.109915,-0.08928,-0.0588399999999999
429,0.077761,0.991226,0.106761,0.160521,0.039993,-0.1568099999999999
430,0.059419,0.991175,0.118392,0.4165939999999999,0.056311,-0.2670119999999999
431,0.047381,0.990271,0.130739,0.7466550000000001,0.069132,-0.149492
432,0.04019,0.988225,0.147544,0.6891649999999999,0.210719,-0.126701
433,0.039816,0.984913,0.168324,0.361505,0.681621,-0.072117
434,0.055531,0.981493,0.183192,0.3765219999999999,0.63397,0.096395
435,0.082061,0.979133,0.185835,0.23758,0.6151810000000001,0.105349
436,0.1184819999999999,0.978702,0.16756,-0.556348,0.799496,0.0137449999999999
437,0.150912,0.980135,0.1285869999999999,-0.592303,0.829466,0.206573
438,0.170075,0.981941,0.082708,-0.574891,0.724495,0.374567
439,0.176948,0.983032,0.0480779999999999,-0.186623,0.37529,0.132052
440,0.178476,0.983654,0.02336,0.006781,0.3679389999999999,0.014237
441,0.1798259999999999,0.983684,-0.00218,0.206786,0.326298,-0.066286
442,0.18349,0.982583,-0.028963,0.019803,-0.093667,-0.007842
443,0.1902609999999999,0.980195,-0.0547289999999999,-0.0568539999999999,-0.17209,0.0349839999999999
444,0.19533,0.97749,-0.079606,-0.22954,-0.427121,0.1778269999999999
445,0.1963859999999999,0.975213,-0.10184,-0.283742,-0.618722,0.144397
446,0.19451,0.973474,-0.120388,-0.2376309999999999,-0.7378939999999999,0.110501
447,0.188711,0.972602,-0.135691,-0.144354,-0.871467,0.1082099999999999
448,0.178359,0.972759,-0.148013,-0.089583,-0.7651479999999999,0.10509
449,0.167972,0.97341,-0.155687,-0.056659,-0.6814180000000001,0.101945
450,0.158392,0.975292,-0.153939,0.017496,-0.69035,0.028817
451,0.150229,0.977817,-0.145894,0.032662,-0.480213,-0.136028
452,0.141981,0.979855,-0.140379,0.070329,-0.096173,-0.2149219999999999
453,0.135533,0.980432,-0.142702,0.038097,0.478278,-0.317976
454,0.135294,0.977904,-0.1593119999999999,0.0258079999999999,1.05887,-0.497121
455,0.143086,0.973043,-0.180815,-0.058019,0.76005,-0.587129
456,0.153185,0.970171,-0.18784,-0.130342,0.4007699999999999,-0.567028
457,0.1620329999999999,0.966772,-0.197683,-0.27208,0.399744,-0.300791
458,0.162109,0.960436,-0.2264179999999999,-0.040222,1.388731,0.164956
459,0.167312,0.953076,-0.25226,-0.152618,1.611987,0.4033219999999999
460,0.176446,0.95066,-0.255136,-0.2430199999999999,-0.076637,0.363076
461,0.187493,0.952175,-0.241231,-0.314629,-0.7310439999999999,0.33025
462,0.182768,0.955273,-0.232448,-0.305159,-0.537686,0.191494
463,0.170944,0.959117,-0.225514,0.259614,-0.073207,0.456425
464,0.158655,0.965241,-0.2076579999999999,0.456579,0.193726,0.346452
465,0.149152,0.972374,-0.179514,-0.038938,0.155113,0.271845
466,0.143077,0.97908,-0.144612,-0.201991,0.034347,0.075779
467,0.142073,0.983955,-0.10784,-0.175551,-0.1122809999999999,-0.001017
468,0.144783,0.986313,-0.0787799999999999,-0.16024,-0.292541,-0.027086
469,0.150579,0.98686,-0.058432,-0.141226,-0.447355,0.015997
470,0.158152,0.986344,-0.045765,-0.099742,-0.635239,0.184193
471,0.1650839999999999,0.985827,-0.0295329999999999,-0.049544,-0.440509,0.187904
472,0.165448,0.986189,-0.006088,-0.102002,-0.248976,-0.024537
473,0.160962,0.986814,0.016411,-0.123777,-0.314573,-0.064659
474,0.148497,0.988235,0.036334,-0.0547929999999999,-0.258422,-0.0145139999999999
475,0.130601,0.989909,0.054789,0.00305,-0.075969,-0.091746
476,0.1106849999999999,0.99135,0.070375,-0.070249,-0.056658,-0.198442
477,0.090421,0.992267,0.084908,-0.012846,-0.0540039999999999,-0.144646
478,0.06931,0.992629,0.099316,0.214687,-0.0381,-0.134991
479,0.050813,0.992248,0.113318,0.483687,0.092469,-0.187659
480,0.040386,0.990961,0.127848,0.568348,0.081473,-0.21911
481,0.034774,0.98882,0.144931,0.3415539999999999,0.63705,0.045346
482,0.036341,0.985788,0.16395,0.383108,0.585592,0.119101
483,0.0539049999999999,0.982638,0.177468,0.365315,0.529462,0.141517
484,0.081502,0.981022,0.175874,-0.058538,0.5652119999999999,0.205077
485,0.116668,0.981277,0.153173,-0.302551,0.5483399999999999,0.1366369999999999
486,0.146329,0.982889,0.111793,-0.520047,0.799582,0.286507
487,0.162956,0.984404,0.066145,-0.368584,0.524309,0.336061
488,0.169665,0.984944,0.032885,-0.224093,0.437404,0.270063
489,0.173224,0.984833,0.008893,0.145059,0.448654,-0.106778
490,0.177761,0.98393,-0.016309,0.130192,0.192294,-0.075167
491,0.184252,0.982,-0.041369,-0.01166,-0.063482,-0.00601
492,0.192348,0.979179,-0.064777,-0.133678,-0.317954,0.077457
493,0.196725,0.976628,-0.086498,-0.227868,-0.572529,0.138668
494,0.1967799999999999,0.974921,-0.1038839999999999,-0.2563809999999999,-0.587882,0.142489
495,0.193001,0.9741,-0.117747,-0.211556,-0.8090149999999999,0.136363
496,0.185406,0.974299,-0.127876,-0.144269,-0.917505,0.081825
497,0.175268,0.975035,-0.136282,-0.097875,-0.735304,0.061728
498,0.166118,0.975887,-0.141543,-0.047054,-0.691875,0.058749
499,0.15985,0.977021,-0.140935,-0.042434,-0.628266,0.035024
500,0.156431,0.978105,-0.137204,-0.014234,-0.410677,-0.098453
501,0.153628,0.978835,-0.135154,-0.008105,-0.081664,-0.158166
502,0.152873,0.978429,-0.138902,0.0496259999999999,0.698543,-0.251708
503,0.155591,0.975413,-0.156041,0.1172359999999999,1.012823,-0.35107
504,0.162098,0.970734,-0.177165,0.092404,1.069015,-0.458806
505,0.168812,0.968783,-0.181519,-0.187671,0.112714,-0.480865
506,0.171352,0.966733,-0.189876,0.013584,0.6831229999999999,-0.1468549999999999
507,0.170809,0.960586,-0.2192889999999999,0.0329879999999999,1.217271,0.1269279999999999
508,0.18093,0.952118,-0.246425,-0.338263,1.522614,0.56808
509,0.1934529999999999,0.948922,-0.249223,-0.337023,-0.335854,0.263414
510,0.204669,0.951332,-0.230361,-0.406009,-0.665245,0.165344
511,0.198972,0.955936,-0.215835,-0.30351,-0.421588,0.1548
512,0.185546,0.960078,-0.20931,0.391115,-0.067637,0.387106
513,0.171575,0.965215,-0.1972549999999999,0.4836979999999999,0.12443,0.35561
514,0.16224,0.971298,-0.173913,0.088432,0.305725,0.362542
515,0.1582059999999999,0.977359,-0.140458,-0.272204,0.092038,0.136597
516,0.160968,0.981641,-0.102265,-0.2906829999999999,-0.148465,0.021882
517,0.166069,0.98347,-0.072072,-0.236351,-0.313289,0.039922
518,0.173408,0.98354,-0.050646,-0.168784,-0.4230239999999999,0.07126
519,0.182801,0.982512,-0.035227,-0.109543,-0.557188,0.2089639999999999
520,0.190796,0.981488,-0.016245,-0.0728299999999999,-0.343106,0.203776
521,0.190646,0.981614,0.008568,-0.142398,-0.2458969999999999,-0.0571669999999999
522,0.18419,0.982386,0.031269,-0.128724,-0.324915,-0.071644
523,0.169158,0.984317,0.049905,-0.06935,-0.317798,-0.012673
524,0.148953,0.986529,0.067524,-0.013607,-0.06473,-0.0858039999999999
525,0.127229,0.988427,0.0825159999999999,0.00537,-0.042703,-0.158627
526,0.1057289999999999,0.98964,0.0970429999999999,0.155822,-0.011033,-0.209623
527,0.08449,0.990217,0.110978,0.2356239999999999,0.0046409999999999,-0.2388
528,0.066072,0.990182,0.123118,0.341398,0.0185919999999999,-0.2378489999999999
529,0.053009,0.989561,0.133952,0.64508,0.135699,-0.243571
530,0.044416,0.98752,0.151048,0.633333,0.252242,-0.197893
531,0.049523,0.983671,0.17298,0.446052,0.607592,-0.000449
532,0.071338,0.979623,0.187701,0.337292,0.698843,0.223356
533,0.103267,0.977562,0.183554,0.083562,0.702202,0.203958
534,0.138713,0.97778,0.157127,-0.5127510000000001,0.660007,0.141823
535,0.16579,0.979485,0.1144849999999999,-0.552433,0.534355,0.27701
536,0.177966,0.981343,0.072648,-0.449878,0.367595,0.251845
537,0.182809,0.982256,0.041701,-0.290079,0.30467,0.185105
538,0.184687,0.982654,0.01635,0.12203,0.342282,-0.0689169999999999
539,0.186825,0.982333,-0.010263,0.041538,0.130994,-0.044898
540,0.190606,0.980967,-0.036881,0.024329,-0.091227,-0.0213159999999999
541,0.195048,0.978821,-0.062062,-0.130411,-0.396973,0.1048019999999999
542,0.199087,0.97633,-0.084447,-0.255392,-0.539349,0.11208
543,0.201956,0.973964,-0.102931,-0.24436,-0.57629,0.0432079999999999
544,0.203038,0.972014,-0.11812,-0.136876,-0.8374459999999999,0.069323
545,0.196017,0.971695,-0.131807,-0.067905,-0.865311,0.054658
546,0.186104,0.972178,-0.1422109999999999,-0.034691,-0.706675,0.066497
547,0.179006,0.973015,-0.145555,-0.01566,-0.674172,0.020021
548,0.174318,0.97454,-0.140974,-0.0121319999999999,-0.5768340000000001,-0.058489
549,0.169192,0.976175,-0.135812,0.0387389999999999,-0.325891,-0.194937
550,0.162395,0.977239,-0.136457,0.016087,-0.001775,-0.168093
551,0.159492,0.976611,-0.144156,-0.057197,0.533856,-0.2334679999999999
552,0.163897,0.972774,-0.163818,0.0489029999999999,1.132542,-0.347321
553,0.172311,0.968166,-0.181527,-0.139505,0.675434,-0.4924989999999999
554,0.176068,0.967059,-0.183808,-0.467603,0.181638,-0.442474
555,0.17487,0.962524,-0.207262,-0.106709,0.81218,-0.120054
556,0.177612,0.954135,-0.240978,-0.1773829999999999,1.4757360000000002,0.4497939999999999
557,0.190022,0.94729,-0.257921,-0.248585,0.8775540000000001,0.3452929999999999
558,0.207648,0.948153,-0.24058,-0.283819,-0.54764,0.274042
559,0.210526,0.952276,-0.2209949999999999,-0.369981,-0.510778,0.12932
560,0.199453,0.956255,-0.213975,-0.046392,-0.219331,0.3431869999999999
561,0.184281,0.961602,-0.203352,0.353027,0.017372,0.376875
562,0.170577,0.968368,-0.182087,0.212281,0.228836,0.337544
563,0.161918,0.975288,-0.150279,-0.173317,0.151619,0.156566
564,0.159345,0.980975,-0.1108349999999999,-0.20651,-0.0576809999999999,0.049678
565,0.161529,0.983838,-0.077194,-0.131377,-0.290173,0.037506
566,0.166525,0.984606,-0.052989,-0.159018,-0.397005,0.0405839999999999
567,0.1736849999999999,0.984108,-0.036762,-0.169978,-0.432762,0.0747559999999999
568,0.1807099999999999,0.983273,-0.0224569999999999,-0.156479,-0.497113,0.244594
569,0.181552,0.983374,-0.000909,-0.1046319999999999,-0.264121,0.109491
570,0.176839,0.983952,0.023516,-0.1139579999999999,-0.286122,-0.074389
571,0.167052,0.984945,0.0443,-0.027785,-0.276343,-0.064213
572,0.151203,0.986497,0.062834,0.013836,-0.181992,-0.0696389999999999
573,0.132849,0.988071,0.077803,0.052194,-0.070254,-0.072173
574,0.1137099999999999,0.989276,0.091581,-0.020311,-0.019184,-0.141844
575,0.093936,0.990099,0.10424,0.034055,0.029524,-0.12696
576,0.0733559999999999,0.990801,0.113652,0.306481,0.079542,-0.256994
577,0.058912,0.990567,0.1236579999999999,0.5244310000000001,0.1257049999999999,-0.204865
578,0.051969,0.989477,0.1349769999999999,0.577227,0.1163579999999999,-0.130598
579,0.049611,0.987479,0.149697,0.330303,0.542932,-0.021813
580,0.06161,0.984356,0.165023,0.420827,0.504871,0.09787
581,0.083824,0.981864,0.170006,0.213067,0.499093,0.084984
582,0.114441,0.981221,0.155225,-0.267334,0.4871939999999999,0.071674
583,0.14599,0.981957,0.120138,-0.4654939999999999,0.6553720000000001,0.05047
584,0.16719,0.98306,0.075016,-0.418624,0.606677,0.283138
585,0.176239,0.983679,0.0361,-0.236008,0.4462069999999999,0.230837
586,0.178886,0.983824,0.008785,-0.015632,0.350145,0.006917
587,0.1808519999999999,0.983376,-0.015916,0.10586,0.310463,-0.094237
588,0.183324,0.982092,-0.04332,0.006281,0.0057009999999999,-0.039153
589,0.186331,0.980031,-0.06934,-0.1062839999999999,-0.201223,0.056798
590,0.18843,0.977706,-0.092598,-0.204834,-0.460387,0.076286
591,0.189701,0.975571,-0.110743,-0.287342,-0.4413149999999999,0.081446
592,0.190881,0.973674,-0.124554,-0.248254,-0.65388,0.068737
593,0.189006,0.972471,-0.136262,-0.1191359999999999,-0.868635,0.070878
594,0.179404,0.972819,-0.146378,-0.0690679999999999,-0.807048,0.092347
595,0.167947,0.973914,-0.1525619999999999,-0.047967,-0.7034520000000001,0.089268
596,0.159164,0.975544,-0.151562,-0.03627,-0.6812020000000001,0.05917
597,0.153055,0.977536,-0.144872,-0.0344019999999999,-0.517682,-0.058482
598,0.148861,0.978953,-0.1395799999999999,-0.109875,-0.0532169999999999,-0.207588
599,0.147154,0.979103,-0.1403299999999999,-0.182966,0.143715,-0.169104
600,0.152052,0.976624,-0.151907,-0.185454,0.417831,-0.200022
601,0.160455,0.971435,-0.174812,0.125052,1.098176,-0.434914
602,0.167772,0.967845,-0.187399,-0.352815,0.362507,-0.377237
603,0.171507,0.964292,-0.201782,-0.273466,0.547701,-0.316102
604,0.173946,0.956711,-0.233319,-0.133297,1.385086,0.11514
605,0.189582,0.947629,-0.257001,-0.229926,0.980686,0.2656989999999999
606,0.216459,0.944516,-0.247034,-0.233381,-0.304196,0.289743
607,0.232509,0.945787,-0.226751,-0.276179,-0.206209,0.190039
608,0.2247179999999999,0.949137,-0.220526,-0.198046,-0.097238,0.287161
609,0.208359,0.95478,-0.212065,0.069885,0.081169,0.419371
610,0.1933349999999999,0.962243,-0.19157,0.190347,0.150077,0.303753
611,0.185855,0.969553,-0.159421,-0.0983909999999999,0.084524,0.156506
612,0.182845,0.975461,-0.1226039999999999,-0.130279,0.088,0.03569
613,0.181705,0.979262,-0.08955,0.008527,-0.037245,-0.001667
614,0.183122,0.981114,-0.06221,0.004012,-0.3705179999999999,0.017425
615,0.186558,0.981563,-0.041449,-0.03986,-0.44305,0.026801
616,0.190128,0.981371,-0.027399,-0.098347,-0.433443,0.12063
617,0.191169,0.981475,-0.01226,-0.079398,-0.276702,0.1234349999999999
618,0.188176,0.982084,0.009395,-0.0576519999999999,-0.23181,0.017491
619,0.180665,0.983047,0.031081,-0.0430759999999999,-0.288681,-0.195434
620,0.16757,0.984755,0.046539,-0.023451,-0.313338,-0.151062
621,0.148343,0.987162,0.059115,0.014011,-0.2117409999999999,-0.151202
622,0.12586,0.989226,0.074694,0.0308779999999999,-0.164794,-0.174975
623,0.1028299999999999,0.990159,0.094864,-0.016679,-0.24109,-0.077179
624,0.079304,0.990182,0.1150539999999999,-0.003148,-0.08082,-0.131869
625,0.0597139999999999,0.989441,0.132013,0.201257,0.240753,-0.161386
626,0.043062,0.988284,0.146379,0.338057,0.195615,-0.189515
627,0.027029,0.986708,0.160196,0.333017,0.59073,0.064276
628,0.022823,0.984961,0.171223,0.283925,0.62034,0.224086
629,0.034488,0.984879,0.169735,0.202649,0.391967,0.014882
630,0.055295,0.987265,0.14912,-0.081068,0.4493649999999999,-0.011547
631,0.077658,0.990437,0.1139829999999999,-0.184637,0.5489310000000001,0.128448
632,0.095529,0.992942,0.070211,-0.03367,0.6208130000000001,0.288234
633,0.10786,0.993703,0.030169,-0.031383,0.606334,0.259443
634,0.1135359999999999,0.993528,7.2e-05,-0.010845,0.476763,0.018361
635,0.114964,0.993034,-0.025626,0.017757,0.367028,-0.008614
636,0.116095,0.991957,-0.050324,0.033013,0.2353219999999999,-0.001968
637,0.1185819999999999,0.990343,-0.071761,0.024591,-0.187059,0.026168
638,0.1229799999999999,0.988414,-0.088907,-0.1132609999999999,-0.480388,0.0594419999999999
639,0.128909,0.986299,-0.1029,-0.196139,-0.4803779999999999,0.087016
640,0.137407,0.983809,-0.115025,-0.286226,-0.795439,0.0504649999999999
641,0.142373,0.981484,-0.128103,-0.209787,-0.8320700000000001,0.077566
642,0.141025,0.979577,-0.143293,-0.179172,-0.802407,0.119825
643,0.133921,0.978584,-0.1563,-0.091777,-0.682869,0.152302
644,0.125077,0.97893,-0.161379,-0.016786,-0.62517,0.130693
645,0.116065,0.980433,-0.158972,0.021203,-0.561823,0.097495
646,0.107071,0.982216,-0.154201,0.038407,-0.208367,-0.065205
647,0.100473,0.982947,-0.1539849999999999,-0.000772,0.306817,-0.219215
648,0.100594,0.981661,-0.161905,-0.000893,0.308103,-0.2112949999999999
649,0.1056859999999999,0.978416,-0.177553,0.119626,0.744363,-0.469771
650,0.113129,0.97436,-0.194463,-0.114701,0.510931,-0.388713
651,0.11695,0.969759,-0.214198,-0.118598,0.648359,-0.208134
652,0.120444,0.958639,-0.257871,0.211984,1.5695290000000002,0.379728
653,0.140586,0.948885,-0.282569,0.055658,0.801237,0.339088
654,0.174806,0.948906,-0.262703,-0.507264,-0.463707,0.133858
655,0.191208,0.951213,-0.242127,-0.305374,-0.3015239999999999,0.178071
656,0.182644,0.952983,-0.241777,-0.0422779999999999,-0.170741,0.256151
657,0.160971,0.957889,-0.237758,0.461221,0.325909,0.426417
658,0.13969,0.966295,-0.2162239999999999,0.363469,0.3416119999999999,0.444968
659,0.133093,0.975273,-0.176406,-0.264517,-0.0429,-0.0031739999999999
660,0.130356,0.982564,-0.132538,-0.277512,-0.0979049999999999,-0.061524
661,0.126771,0.987037,-0.098376,-0.056093,-0.154334,0.009066
662,0.123752,0.989721,-0.071609,0.001416,-0.364843,0.037826
663,0.122636,0.991181,-0.050093,-0.024033,-0.417176,0.04695
664,0.121297,0.992104,-0.031725,-0.1089069999999999,-0.498131,0.136294
665,0.117533,0.992995,-0.011692,-0.1615849999999999,-0.341491,0.068135
666,0.11237,0.993622,0.008799,-0.14719,-0.354065,-0.0267589999999999
667,0.104321,0.994192,0.026256,-0.107708,-0.459768,-0.054897
668,0.0905,0.994969,0.042838,-0.021805,-0.420048,-0.041648
669,0.073221,0.995399,0.061716,0.144171,-0.180579,-0.078424
670,0.054924,0.995363,0.078894,0.045174,-0.031908,-0.0707909999999999
671,0.037984,0.994692,0.095566,0.04948,-0.053103,-0.053894
672,0.018432,0.993836,0.109263,0.445039,0.2157889999999999,-0.092021
673,-0.000781,0.992836,0.1194349999999999,0.653613,0.150154,-0.27303
674,-0.013772,0.991657,0.128125,0.702432,0.1215329999999999,-0.291058
675,-0.018109,0.989798,0.1412769999999999,0.43681,0.533975,0.155216
676,-0.0036,0.987826,0.1554819999999999,0.370604,0.570707,0.293584
677,0.024957,0.987072,0.1582849999999999,0.232397,0.5619390000000001,0.230479
678,0.061007,0.987958,0.142139,-0.436511,0.630312,0.024868
679,0.093678,0.989998,0.1054359999999999,-0.67484,0.989693,0.173952
680,0.115651,0.991382,0.061445,-0.533971,0.940442,0.359133
681,0.128414,0.991248,0.030432,-0.193798,0.4155819999999999,0.111856
682,0.137323,0.990499,0.006547,-0.03718,0.525401,-0.085633
683,0.145335,0.989175,-0.019972,0.195257,0.340735,-0.137545
684,0.155813,0.986613,-0.048036,-0.135839,0.0068569999999999,-0.028899
685,0.166457,0.983275,-0.0738429999999999,-0.195372,-0.50627,0.127889
686,0.172289,0.9804,-0.0955169999999999,-0.24074,-0.541954,0.129682
687,0.176288,0.977789,-0.113328,-0.266177,-0.480321,0.100648
688,0.179722,0.975439,-0.127318,-0.21735,-0.909201,0.050292
689,0.176075,0.974489,-0.139141,-0.129261,-0.8485729999999999,0.056576
690,0.1688049999999999,0.974081,-0.150542,-0.084729,-0.8124140000000001,0.069975
691,0.1608359999999999,0.973993,-0.159566,-0.007043,-0.799279,0.092092
692,0.151872,0.975008,-0.162126,0.045775,-0.7162649999999999,-0.046645
693,0.143548,0.976643,-0.159855,0.050696,-0.555272,-0.122722
694,0.137601,0.97733,-0.16088,0.058322,-0.357152,-0.237207
695,0.13596,0.975591,-0.172418,0.130916,0.413325,-0.273474
696,0.1459109999999999,0.97025,-0.193173,0.101388,0.96229,-0.37836
697,0.161368,0.963464,-0.213751,0.0833059999999999,1.136191,-0.512857
698,0.177079,0.959385,-0.219581,-0.324891,0.493633,-0.365136
699,0.181038,0.954438,-0.237205,-0.306359,0.8291780000000001,-0.281686
700,0.179351,0.94477,-0.274292,-0.175811,1.5136040000000002,0.207794
701,0.194078,0.938048,-0.287042,-0.480257,-0.20764,0.437325
702,0.209335,0.942331,-0.2611199999999999,-0.699036,-0.553277,0.408184
703,0.206862,0.946636,-0.2471429999999999,-0.512664,-0.028744,0.225811
704,0.192739,0.95154,-0.239613,0.044306,0.121305,0.455692
705,0.176864,0.959481,-0.219334,0.346543,0.019676,0.348652
706,0.164522,0.968833,-0.185164,0.248259,-0.004432,0.118727
707,0.152716,0.977479,-0.14561,-0.054572,0.0366649999999999,0.071147
708,0.146214,0.983614,-0.105432,-0.022068,-0.008211,0.000726
709,0.147388,0.986663,-0.069011,0.031399,-0.249481,-0.013875
710,0.153619,0.987385,-0.038228,-0.094979,-0.484684,-0.017345
711,0.161466,0.986722,-0.017263,-0.183942,-0.569059,0.041815
712,0.168005,0.985776,-0.003062,-0.195944,-0.644284,0.194941
713,0.168913,0.985517,0.014637,-0.167037,-0.343122,0.193081
714,0.162674,0.98591,0.038822,-0.166077,-0.178507,0.0460779999999999
715,0.151263,0.98649,0.062815,-0.156039,-0.382425,-0.045252
716,0.13097,0.987804,0.084136,-0.109776,-0.295726,-0.0899799999999999
717,0.105128,0.989214,0.1019419999999999,-0.0263769999999999,-0.062761,-0.0537399999999999
718,0.079889,0.98967,0.118988,0.03269,0.00679,-0.104492
719,0.059368,0.989021,0.135283,0.118488,0.087319,-0.163695
720,0.041158,0.988186,0.147583,0.372797,0.18082,-0.3365329999999999
721,0.0275339999999999,0.986885,0.159022,0.663796,0.181923,-0.310542
722,0.018649,0.984976,0.171641,0.705244,0.289346,-0.131495
723,0.016163,0.982059,0.187847,0.3149369999999999,0.644727,0.013996
724,0.028457,0.979975,0.197045,0.329163,0.487127,0.286644
725,0.0536549999999999,0.979844,0.192389,-0.05985,0.424941,0.152123
726,0.088021,0.982563,0.163738,-0.308709,0.7999229999999999,0.055149
727,0.1174089999999999,0.98624,0.116339,-0.372399,0.963071,0.398325
728,0.133751,0.988401,0.071859,-0.369301,0.887561,0.520579
729,0.142027,0.988891,0.043719,-0.170012,0.553513,0.096723
730,0.147198,0.988904,0.019744,-0.0226099999999999,0.567858,-0.079344
731,0.151556,0.988411,-0.00804,0.047053,0.186089,-0.0618299999999999
732,0.156912,0.987024,-0.033957,0.039346,-0.067178,0.029883
733,0.164923,0.984718,-0.055873,0.005121,-0.447471,0.025996
734,0.1707,0.982509,-0.074358,-0.153534,-0.4895739999999999,0.0740379999999999
735,0.173193,0.980606,-0.091691,-0.226598,-0.785416,0.054246
736,0.169709,0.979649,-0.1071309999999999,-0.19957,-0.951115,0.08647
737,0.1602289999999999,0.979355,-0.123215,-0.132793,-0.969483,0.156724
738,0.147398,0.979675,-0.136018,0.000673,-0.9366,0.161653
739,0.1358329999999999,0.980573,-0.141485,0.021089,-0.8343020000000001,0.078832
740,0.12593,0.98198,-0.140882,0.07364,-0.763261,0.0594149999999999
741,0.119702,0.982576,-0.142147,0.038592,-0.485033,-0.098133
742,0.1165809999999999,0.98197,-0.148779,-0.071857,0.186029,-0.149118
743,0.120319,0.978858,-0.165384,-0.121128,0.52427,-0.2622739999999999
744,0.129969,0.972138,-0.1950599999999999,-0.129511,0.919098,-0.338875
745,0.139039,0.965921,-0.218302,-0.118577,0.6990569999999999,-0.408529
746,0.141527,0.96588,-0.216883,-0.222352,0.3005239999999999,-0.266912
747,0.132863,0.96356,-0.232146,-0.1315049999999999,0.730761,-0.096559
748,0.13,0.954621,-0.267937,-0.141612,1.853301,0.306068
749,0.1444869999999999,0.946431,-0.2887619999999999,-0.482972,1.340663,0.465443
750,0.158264,0.950011,-0.2691139999999999,-0.434662,-0.328796,0.384256
751,0.155218,0.956513,-0.246942,-0.453833,-0.662767,0.159601
752,0.141629,0.960417,-0.2398559999999999,0.330844,-0.254515,0.383334
753,0.1318599999999999,0.964552,-0.228567,0.6173310000000001,-0.089491,0.3865409999999999
754,0.126654,0.970795,-0.203729,0.4100439999999999,0.232986,0.344461
755,0.122239,0.978362,-0.166898,-0.130601,0.262498,0.2148719999999999
756,0.120004,0.985401,-0.120716,-0.182046,0.042125,-0.062389
757,0.12214,0.989306,-0.079645,-0.125741,-0.253894,-0.011465
758,0.128015,0.99045,-0.051078,-0.135278,-0.482622,0.0308449999999999
759,0.138062,0.989922,-0.031314,-0.178254,-0.5841149999999999,0.077609
760,0.148623,0.988781,-0.014535,-0.213992,-0.6544,0.2244199999999999
761,0.154216,0.987991,0.008863,-0.119793,-0.154175,0.105029
762,0.151856,0.98772,0.036552,-0.123246,-0.155872,-0.001182
763,0.144666,0.987608,0.060739,-0.1004159999999999,-0.408034,-0.096475
764,0.130004,0.988188,0.081057,-0.035842,-0.22029,-0.041857
765,0.1097839999999999,0.989132,0.097733,0.0067319999999999,-0.114376,-0.040543
766,0.088082,0.98976,0.1122609999999999,0.024345,-0.040511,-0.088823
767,0.06679,0.989698,0.126584,0.120405,-0.004239,-0.095562
768,0.046173,0.989204,0.1390289999999999,0.330597,0.0307089999999999,-0.287467
769,0.030182,0.988268,0.149667,0.588974,0.07765,-0.301263
770,0.020918,0.98646,0.162615,0.664003,0.100393,-0.186999
771,0.020149,0.983052,0.182177,0.382423,0.5919300000000001,0.136076
772,0.037034,0.979235,0.199278,0.436171,0.678739,0.305208
773,0.067258,0.977301,0.2008579999999999,0.24216,0.652567,0.230996
774,0.104504,0.978417,0.178227,-0.481655,0.8590469999999999,0.136394
775,0.13507,0.981637,0.134647,-0.642257,0.967795,0.3089719999999999
776,0.152471,0.984228,0.089639,-0.4750109999999999,0.689433,0.408972
777,0.160239,0.98539,0.057592,-0.358329,0.492271,0.1370029999999999
778,0.164473,0.98588,0.031244,0.079851,0.4886979999999999,-0.080545
779,0.16705,0.98594,0.002091,0.118,0.319754,-0.080445
780,0.16998,0.985085,-0.026491,0.095706,0.1105569999999999,-0.048948
781,0.177197,0.982788,-0.052136,-0.011609,-0.25476,0.0696529999999999
782,0.184353,0.980067,-0.073964,-0.168545,-0.489879,0.0701789999999999
783,0.188719,0.977548,-0.093671,-0.2332139999999999,-0.5022979999999999,0.038006
784,0.18783,0.97591,-0.110942,-0.193475,-0.898442,0.045482
785,0.179689,0.97534,-0.128116,-0.152834,-0.8490270000000001,0.1139559999999999
786,0.168528,0.975008,-0.144736,-0.083445,-0.815584,0.122168
787,0.158092,0.974799,-0.157367,-0.030895,-0.815634,0.123645
788,0.148351,0.975549,-0.16213,0.007716,-0.8441860000000001,0.052266
789,0.140269,0.9768,-0.161789,0.021459,-0.757394,0.008591
790,0.131716,0.97724,-0.166263,0.021681,-0.280844,-0.2055179999999999
791,0.125639,0.975717,-0.17939,0.077089,0.19483,-0.088326
792,0.130879,0.970542,-0.202262,-0.057926,0.8353360000000001,-0.320795
793,0.1457359999999999,0.963045,-0.226485,0.014024,1.2627389999999998,-0.453538
794,0.161065,0.958774,-0.2340969999999999,-0.210458,-0.051562,-0.382815
795,0.170988,0.956901,-0.2347199999999999,-0.265822,-0.00373,-0.325018
796,0.165576,0.95231,-0.256284,-0.162265,0.8976049999999999,-0.155154
797,0.163759,0.94587,-0.2801869999999999,-0.2515739999999999,1.297294,0.295781
798,0.170736,0.945115,-0.278563,-0.353567,0.386107,0.38571
799,0.17689,0.948507,-0.262745,-0.4786319999999999,-0.343649,0.37621
800,0.16791,0.952778,-0.253003,-0.3931449999999999,-0.1178319999999999,0.259656
801,0.154204,0.957723,-0.242855,-0.0245039999999999,0.042094,0.330196
802,0.145119,0.963241,-0.2260469999999999,0.366371,0.190293,0.278003
803,0.141166,0.969364,-0.200987,0.1077359999999999,0.025692,0.183134
804,0.138263,0.976045,-0.167959,0.01788,0.01181,0.162114
805,0.137156,0.982021,-0.129665,0.015187,-0.0344649999999999,0.111995
806,0.138766,0.986029,-0.092089,-0.093096,-0.279165,0.040088
807,0.143835,0.987881,-0.0582419999999999,-0.169149,-0.37373,0.003738
808,0.151038,0.988007,-0.031922,-0.250479,-0.507629,0.019242
809,0.156796,0.987543,-0.012756,-0.2187469999999999,-0.513315,0.164428
810,0.158621,0.987303,0.0077469999999999,-0.176062,-0.4105359999999999,0.143895
811,0.154638,0.987439,0.032243,-0.112706,-0.207684,0.049545
812,0.146389,0.987631,0.0560679999999999,-0.098202,-0.4244439999999999,-0.055076
813,0.131999,0.988245,0.077052,-0.0373029999999999,-0.342355,-0.0846659999999999
814,0.111422,0.989171,0.095471,0.027388,-0.121876,-0.062848
815,0.088171,0.989813,0.111732,0.0762419999999999,-0.070639,-0.05767
816,0.066944,0.989528,0.127835,0.117825,-0.03033,-0.081738
817,0.049128,0.988959,0.139765,0.156575,0.2052699999999999,-0.237573
818,0.0344779999999999,0.98834,0.148268,0.461539,0.149966,-0.328185
819,0.021832,0.987152,0.158251,0.621845,0.190308,-0.33037
820,0.014708,0.984871,0.172627,0.536272,0.596305,-0.022649
821,0.023668,0.982555,0.184429,0.5105569999999999,0.579808,0.27338
822,0.04431,0.982018,0.1834829999999999,0.387651,0.603325,0.259098
823,0.07361,0.984206,0.160959,-0.487154,0.899049,0.064062
824,0.101469,0.98798,0.116569,-0.432509,0.946789,0.328301
825,0.1153049999999999,0.990971,0.068342,-0.406702,0.874309,0.481417
826,0.120846,0.992047,0.035038,-0.080426,0.509646,0.212506
827,0.124393,0.992173,0.010417,0.03764,0.515838,-0.046321
828,0.128918,0.991492,-0.017694,0.0819889999999999,0.489175,-0.049017
829,0.134042,0.989881,-0.04645,0.055808,-0.0006389999999999,0.011248
830,0.1403039999999999,0.987504,-0.0716919999999999,-0.059844,-0.331758,0.053366
831,0.145334,0.985053,-0.0924059999999999,-0.146112,-0.440222,0.082823
832,0.1477359999999999,0.982649,-0.112096,-0.289444,-0.572782,0.139821
833,0.147619,0.980676,-0.128342,-0.248342,-0.8692719999999999,0.1816559999999999
834,0.142265,0.979299,-0.143954,-0.142174,-0.928594,0.163211
835,0.131079,0.978372,-0.159989,-0.102728,-0.862405,0.172852
836,0.119023,0.977968,-0.171467,-0.065464,-0.716677,0.14275
837,0.1098349999999999,0.978258,-0.17589,0.004712,-0.64908,0.060777
838,0.10286,0.978846,-0.176835,0.047485,-0.519419,0.057451
839,0.098054,0.978564,-0.181076,0.090423,-0.20798,-0.114716
840,0.096096,0.97699,-0.190384,0.00774,0.179031,-0.102112
841,0.1012049999999999,0.972547,-0.209526,0.025748,0.730517,-0.3159869999999999
842,0.111448,0.96575,-0.234302,0.0301379999999999,1.07284,-0.4612699999999999
843,0.116924,0.962234,-0.245815,-0.080165,0.289963,-0.494389
844,0.118881,0.96142,-0.24805,-0.056915,0.046758,-0.271314
845,0.113944,0.954759,-0.274669,0.139841,0.8717030000000001,0.01176
846,0.1205599999999999,0.943473,-0.308733,-0.030304,1.749002,0.34691
847,0.137926,0.939939,-0.312222,-0.362504,0.642336,0.3870969999999999
848,0.149497,0.946238,-0.286835,-0.615225,-0.631526,0.216981
849,0.137273,0.951731,-0.27451,-0.473211,-0.406961,0.087636
850,0.117075,0.955555,-0.270552,0.1119589999999999,-0.164234,0.326506
851,0.103486,0.960491,-0.258336,0.582687,0.046497,0.455358
852,0.100622,0.967916,-0.2302239999999999,0.5767,0.086115,0.380538
853,0.099085,0.976881,-0.189406,-0.138819,0.134019,0.089263
854,0.097457,0.984347,-0.146808,-0.051223,-0.094042,0.039402
855,0.0991669999999999,0.988491,-0.11419,-0.0406959999999999,-0.245556,0.0488209999999999
856,0.104215,0.990431,-0.090415,-0.0765049999999999,-0.436644,0.086295
857,0.1113799999999999,0.99109,-0.072956,-0.154669,-0.520601,0.2226139999999999
858,0.117505,0.991567,-0.054558,-0.148282,-0.409032,0.247902
859,0.1193849999999999,0.992381,-0.030243,-0.106522,-0.209758,0.069748
860,0.1166079999999999,0.993168,-0.002897,-0.109299,-0.200275,-0.039187
861,0.109124,0.993796,0.021199,-0.097039,-0.398428,-0.039891
862,0.0950299999999999,0.99459,0.041787,-0.038511,-0.185157,0.029258
863,0.077056,0.99517,0.060715,-0.021605,-0.113929,0.063873
864,0.059197,0.995077,0.079395,0.002479,-0.142782,-0.060108
865,0.043925,0.994419,0.095846,0.114049,0.134426,-0.049474
866,0.032429,0.99378,0.106463,0.253246,0.216303,-0.229922
867,0.024418,0.993131,0.114372,0.395016,0.179507,-0.243202
868,0.017626,0.992072,0.124368,0.651304,0.3592619999999999,-0.026498
869,0.017001,0.990258,0.138144,0.604001,0.54061,0.0609679999999999
870,0.031277,0.988078,0.150693,0.444691,0.596792,0.2122679999999999
871,0.053788,0.98714,0.150488,-0.147508,0.645871,0.0860529999999999
872,0.077537,0.988066,0.133035,-0.366676,0.676744,0.123572
873,0.096386,0.990351,0.0995009999999999,-0.461208,0.668188,0.163957
874,0.106554,0.992544,0.059071,-0.1809859999999999,0.48585,0.351543
875,0.111002,0.993545,0.02309,-0.068842,0.3980869999999999,0.2179829999999999
876,0.113384,0.993515,-0.007705,-0.022442,0.394791,0.136565
877,0.1143119999999999,0.992725,-0.037652,0.036292,0.316785,0.043207
878,0.11354,0.991389,-0.06514,-0.067367,0.067296,0.070389
879,0.1136829999999999,0.989512,-0.089053,-0.062612,-0.081263,0.095614
880,0.115366,0.987234,-0.109763,-0.1524599999999999,-0.388708,0.1105869999999999
881,0.118214,0.984551,-0.129124,-0.188755,-0.67556,0.07584
882,0.122017,0.981729,-0.145977,-0.138542,-0.7421810000000001,0.097332
883,0.119539,0.979442,-0.162459,-0.1223619999999999,-0.729152,0.078795
884,0.1108069999999999,0.977373,-0.180147,-0.0659309999999999,-0.6954520000000001,0.166231
885,0.102216,0.975397,-0.195303,-0.029951,-0.683114,0.204397
886,0.096256,0.974333,-0.20347,0.03146,-0.659941,0.132578
887,0.092765,0.974213,-0.205652,0.056389,-0.506379,0.025293
888,0.089861,0.973947,-0.2081849999999999,0.118788,-0.199182,-0.161443
889,0.0868309999999999,0.972019,-0.218242,0.089698,0.17976,-0.152073
890,0.088575,0.967521,-0.236744,0.116473,0.464409,-0.028484
891,0.096875,0.961406,-0.257498,0.050647,0.741109,-0.263315
892,0.104624,0.957143,-0.270041,-0.156214,0.7347060000000001,-0.453104
893,0.110107,0.956768,-0.269188,-0.1226039999999999,-0.082012,-0.449577
894,0.109197,0.954992,-0.275785,-0.007009,0.0685679999999999,-0.229784
895,0.102791,0.948277,-0.300326,0.160744,0.7928569999999999,0.063845
896,0.110903,0.939472,-0.324167,-0.046266,1.343746,0.5808810000000001
897,0.125283,0.939907,-0.317601,-0.322305,0.6739539999999999,0.426793
898,0.12883,0.948646,-0.288903,-0.684036,-0.494285,0.059136
899,0.111073,0.954391,-0.277113,-0.178532,-0.267944,0.223906
900,0.094863,0.95737,-0.272828,0.131501,-0.221957,0.345857
901,0.090847,0.961361,-0.2598519999999999,0.528278,0.1003,0.383815
902,0.094243,0.967871,-0.233096,0.2208969999999999,0.217767,0.217761
903,0.097883,0.975884,-0.195089,0.069033,0.140022,0.094213
904,0.098771,0.982993,-0.154783,-0.06392,-0.215629,0.037229
905,0.09819,0.98771,-0.1215609999999999,-0.115814,-0.396737,0.087091
906,0.096927,0.99064,-0.096057,-0.135455,-0.414285,0.119952
907,0.097152,0.99228,-0.077011,-0.135314,-0.393876,0.2210079999999999
908,0.099395,0.99335,-0.058007,-0.150359,-0.401202,0.240578
909,0.101759,0.994195,-0.0347899999999999,-0.095107,-0.241997,0.111679
910,0.102076,0.994723,-0.00977,-0.105677,-0.2494989999999999,-0.0464889999999999
911,0.09798,0.995113,0.011729,-0.068851,-0.351482,-0.035838
912,0.088297,0.995668,0.028941,0.000997,-0.270295,-0.003322
913,0.074734,0.996159,0.045499,0.0671269999999999,-0.048054,0.046786
914,0.06016,0.996249,0.062112,0.064809,-0.020693,0.044135
915,0.046443,0.995755,0.079394,-0.002604,-0.0648929999999999,-0.139697
916,0.0331819999999999,0.995005,0.0940889999999999,0.117438,0.150122,-0.123188
917,0.02033,0.994341,0.104219,0.4255319999999999,0.230879,-0.219636
918,0.013671,0.993282,0.1148619999999999,0.5038159999999999,0.149586,-0.2422119999999999
919,0.010942,0.991929,0.126272,0.450026,0.357207,-0.080298
920,0.01398,0.990418,0.137349,0.279661,0.6123350000000001,0.019176
921,0.025436,0.989361,0.143203,0.34404,0.440739,0.242936
922,0.040059,0.98961,0.138046,0.099879,0.403091,0.147125
923,0.060913,0.991239,0.117151,-0.140655,0.399234,0.15621
924,0.081976,0.993354,0.080731,-0.146231,0.465539,0.2216219999999999
925,0.095792,0.994608,0.039592,-0.145505,0.574621,0.32816
926,0.103878,0.99457,0.00545,-0.099346,0.470488,0.254621
927,0.1091569999999999,0.993767,-0.022387,-0.097057,0.432625,0.071185
928,0.112782,0.992251,-0.052032,-0.185017,0.282315,0.03421
929,0.115547,0.989958,-0.081372,-0.1214069999999999,0.126268,0.057446
930,0.118638,0.98712,-0.1072819999999999,-0.079728,-0.079161,0.083769
931,0.122709,0.983963,-0.129419,-0.1252869999999999,-0.344788,0.130472
932,0.127788,0.980606,-0.148568,-0.150005,-0.4498899999999999,0.116906
933,0.129556,0.978016,-0.163375,-0.114313,-0.630405,0.154693
934,0.124725,0.976282,-0.176942,-0.067489,-0.77923,0.099321
935,0.1146539999999999,0.975174,-0.1894279999999999,-0.020034,-0.718963,0.130254
936,0.104943,0.974531,-0.198161,0.005195,-0.693754,0.1415809999999999
937,0.097847,0.974879,-0.200072,0.035393,-0.684077,0.08705
938,0.093356,0.976215,-0.195654,0.071378,-0.44405,-0.039499
939,0.091205,0.976998,-0.192741,0.077542,-0.273202,-0.136711
940,0.090848,0.9758,-0.19888,-0.006207,0.1126549999999999,-0.15018
941,0.09591,0.971392,-0.2172349999999999,0.05181,0.557569,-0.182591
942,0.104523,0.964313,-0.243244,0.0623019999999999,0.84039,-0.320737
943,0.1103359999999999,0.960026,-0.257232,-0.02475,0.563549,-0.429077
944,0.116218,0.958315,-0.260992,-0.098228,0.194379,-0.279596
945,0.11669,0.950497,-0.287978,0.130762,0.691257,-0.1502089999999999
946,0.1242,0.939195,-0.320123,-0.1950309999999999,1.289595,0.43371
947,0.14489,0.932473,-0.330899,-0.279763,0.776405,0.4474
948,0.168627,0.936569,-0.307239,-0.567278,-0.370087,0.2559079999999999
949,0.165181,0.94236,-0.290973,-0.62888,-0.554405,0.133899
950,0.145493,0.946476,-0.288108,0.134796,-0.107975,0.381553
951,0.126874,0.952204,-0.277853,0.413043,0.091223,0.37496
952,0.1189809999999999,0.960003,-0.253434,0.541832,0.354526,0.396134
953,0.1225079999999999,0.968886,-0.2150409999999999,-0.1449079999999999,0.078355,0.085433
954,0.125151,0.976657,-0.174557,-0.190474,-0.040606,0.035168
955,0.125316,0.98201,-0.141218,-0.1094319999999999,-0.412155,0.13635
956,0.123768,0.985723,-0.1141119999999999,-0.082859,-0.398244,0.1252349999999999
957,0.12443,0.988069,-0.090698,-0.075251,-0.384004,0.179947
958,0.128173,0.989369,-0.068629,-0.114883,-0.36182,0.2307989999999999
959,0.1320319999999999,0.990305,-0.043025,-0.086256,-0.336588,0.186076
960,0.1327289999999999,0.991029,-0.015229,-0.1062849999999999,-0.344972,-0.014038
961,0.126624,0.991887,0.010694,-0.145972,-0.436101,-0.021894
962,0.111564,0.99317,0.033968,-0.076667,-0.263907,-0.009142
963,0.0915909999999999,0.99426,0.055173,-0.011361,-0.021848,0.024478
964,0.071445,0.994757,0.073082,-0.013233,-0.034125,0.037972
965,0.05355,0.994697,0.0877299999999999,0.006585,0.0155419999999999,-0.007729
966,0.037957,0.994577,0.096757,0.080665,0.090796,-0.024598
967,0.0263209999999999,0.994102,0.105142,0.505814,0.097451,-0.314157
968,0.020279,0.993078,0.115631,0.648682,0.194071,-0.145142
969,0.021393,0.990973,0.132287,0.678345,0.350946,-0.0014269999999999
970,0.0342779999999999,0.987881,0.151332,0.409096,0.657169,-0.003459
971,0.054102,0.985523,0.160632,0.15061,0.758343,0.117917
972,0.0739,0.985149,0.154933,0.010633,0.72707,0.138021
973,0.0936169999999999,0.986557,0.13389,-0.435002,0.567398,0.2137349999999999
974,0.112015,0.988808,0.098475,-0.254837,0.406105,0.22701
975,0.126292,0.990374,0.056533,-0.260982,0.40875,0.292466
976,0.135141,0.990642,0.018768,-0.211313,0.4365739999999999,0.218857
977,0.138267,0.990295,-0.013634,-0.227013,0.34961,0.1173319999999999
978,0.136653,0.989672,-0.043155,-0.235484,0.301557,0.145602
979,0.13385,0.988455,-0.070917,-0.1594539999999999,-0.0124269999999999,0.058099
980,0.1328069999999999,0.986381,-0.096975,-0.06106,-0.343146,0.096457
981,0.134464,0.983338,-0.122292,-0.072712,-0.5180060000000001,0.132027
982,0.139972,0.979848,-0.142459,-0.091815,-0.621617,0.082126
983,0.138855,0.977359,-0.159615,-0.088775,-0.8642920000000001,0.067147
984,0.130926,0.975575,-0.1763549999999999,-0.057699,-0.764912,0.091241
985,0.123593,0.973801,-0.190851,-0.056287,-0.641587,0.069376
986,0.1190789999999999,0.972763,-0.198849,0.000244,-0.681305,0.065579
987,0.115566,0.973257,-0.198502,0.04456,-0.690253,0.035675
988,0.112233,0.97467,-0.193418,0.115275,-0.475784,-0.096331
989,0.107818,0.975422,-0.192135,0.200639,-0.175648,-0.278522
990,0.105899,0.973187,-0.2041599999999999,0.166119,0.273548,-0.155886
991,0.11288,0.966515,-0.230425,0.12943,0.777274,-0.236814
992,0.124416,0.959097,-0.254251,-0.14909,0.930079,-0.4821229999999999
993,0.130851,0.956739,-0.259843,-0.230949,0.445468,-0.381652
994,0.130205,0.953171,-0.272948,-0.316744,0.336013,-0.298082
995,0.127961,0.944989,-0.301016,0.111495,0.903079,0.0716919999999999
996,0.146117,0.934873,-0.3235,-0.067275,1.119601,0.440505
997,0.174094,0.933756,-0.312698,-0.301428,0.360738,0.447555
998,0.179785,0.940322,-0.288896,-0.638632,-0.311965,0.18535
999,0.160497,0.946576,-0.279684,-0.150228,-0.128446,0.354635
1000,0.137684,0.95329,-0.268833,0.361034,0.072726,0.380786
1001,0.1238349999999999,0.960965,-0.247386,0.51946,0.194522,0.408198
1002,0.122331,0.969186,-0.213783,0.0147389999999999,0.117118,0.187202
1003,0.1257589999999999,0.977003,-0.172158,-0.188915,-0.113401,0.041864
1004,0.127079,0.982801,-0.133944,-0.160801,-0.229001,0.01105
1005,0.126356,0.986598,-0.1031789999999999,-0.094007,-0.469813,0.0531149999999999
1006,0.124955,0.988932,-0.079909,-0.091126,-0.454341,0.143172
1007,0.124651,0.990224,-0.062497,-0.0795,-0.414357,0.1763279999999999
1008,0.125223,0.991146,-0.044,-0.068338,-0.390178,0.195413
1009,0.125943,0.991811,-0.020853,-0.086805,-0.284337,0.033304
1010,0.123504,0.992332,0.003177,-0.131774,-0.349723,-0.092304
1011,0.114475,0.993161,0.022624,-0.123127,-0.367154,-0.101711
1012,0.097958,0.994468,0.037741,0.0301089999999999,0.017236,0.031992
1013,0.079308,0.995505,0.051636,0.021324,-0.00379,0.12593
1014,0.0621769999999999,0.995818,0.06683,-0.035336,-0.1135089999999999,0.05347
1015,0.046047,0.995874,0.078102,0.0898019999999999,0.042486,-0.090004
1016,0.031677,0.995654,0.087496,0.489228,0.079923,-0.302385
1017,0.023495,0.994827,0.098753,0.568714,0.072373,-0.30432
1018,0.0216349999999999,0.99322,0.11415,0.613848,0.386388,0.033082
1019,0.027993,0.990981,0.130985,0.336494,0.7065739999999999,0.042203
1020,0.042829,0.98881,0.142849,0.221041,0.79064,0.18996
1021,0.060688,0.988223,0.140419,0.021831,0.661802,0.169014
1022,0.082629,0.989216,0.120867,-0.301272,0.516613,0.223584
1023,0.106306,0.990576,0.086279,-0.261183,0.409159,0.184565
1024,0.1234599999999999,0.991422,0.04274,-0.290193,0.498568,0.281036
1025,0.132678,0.991142,0.004596,-0.217959,0.398842,0.1996119999999999
1026,0.136214,0.990347,-0.025442,-0.179046,0.346583,0.156072
1027,0.136341,0.989164,-0.0543549999999999,-0.173191,0.283648,0.042834
1028,0.134604,0.987393,-0.083228,-0.114569,0.088749,0.038932
1029,0.135114,0.98467,-0.110263,-0.017972,-0.20223,0.095294
1030,0.139012,0.981102,-0.134552,-0.046467,-0.463158,0.090499
1031,0.143941,0.977473,-0.154331,-0.122014,-0.562068,0.129856
1032,0.143817,0.974901,-0.169928,-0.108386,-0.853792,0.137457
1033,0.1357809999999999,0.973414,-0.184442,-0.084847,-0.805232,0.090127
1034,0.12558,0.971955,-0.1988069999999999,-0.068131,-0.6210939999999999,0.0896
1035,0.118155,0.970561,-0.209863,-0.023199,-0.6112770000000001,0.112375
1036,0.1138309999999999,0.970159,-0.214067,0.005706,-0.646139,0.058138
1037,0.111104,0.970538,-0.213782,0.083934,-0.446612,-0.082086
1038,0.107921,0.970372,-0.216155,0.100392,-0.317509,-0.200181
1039,0.104051,0.968494,-0.226238,0.247466,0.055874,-0.2111559999999999
1040,0.105043,0.963691,-0.2454739999999999,0.217635,0.816933,-0.266596
1041,0.112538,0.957314,-0.266229,0.197093,1.002312,-0.30509
1042,0.11992,0.954891,-0.271652,-0.051683,0.558964,-0.431015
1043,0.122511,0.95643,-0.265001,-0.112791,0.15261,-0.313505
1044,0.116932,0.952926,-0.279734,-0.13953,0.4027409999999999,-0.161352
1045,0.121749,0.943209,-0.309075,-0.100844,1.5105110000000002,0.687782
1046,0.140903,0.934578,-0.326653,-0.340992,1.026466,0.5486840000000001
1047,0.158755,0.93997,-0.30207,-0.568286,0.2173179999999999,0.399009
1048,0.153928,0.948652,-0.276328,-0.4945199999999999,-0.556547,0.032676
1049,0.1348859999999999,0.952203,-0.2740579999999999,0.066164,-0.26127,0.392771
1050,0.1219339999999999,0.955368,-0.269065,0.415404,-0.117951,0.438331
1051,0.11539,0.961952,-0.2476409999999999,0.469937,0.427605,0.387335
1052,0.113814,0.970809,-0.211113,0.144304,0.350755,0.252586
1053,0.114809,0.979064,-0.1680579999999999,-0.173144,-0.133406,-0.012178
1054,0.115721,0.984378,-0.132659,-0.13275,-0.4125399999999999,0.0843039999999999
1055,0.117105,0.987311,-0.1072109999999999,-0.127816,-0.4275569999999999,0.076556
1056,0.120155,0.988712,-0.089451,-0.127021,-0.450809,0.08118
1057,0.1248079999999999,0.989431,-0.073751,-0.124518,-0.405507,0.251089
1058,0.127995,0.990261,-0.054675,-0.117146,-0.288402,0.154697
1059,0.128092,0.991221,-0.032572,-0.11027,-0.241588,0.051538
1060,0.1217109999999999,0.992472,-0.0131919999999999,-0.134101,-0.4045809999999999,-0.052909
1061,0.105721,0.994382,0.003814,-0.089623,-0.324293,0.022675
1062,0.083213,0.9963,0.021184,-0.007239,-0.19938,0.049067
1063,0.059219,0.997464,0.039324,0.077149,-0.094876,0.0336589999999999
1064,0.03785,0.997606,0.057762,0.041099,-0.065645,-0.012794
1065,0.019305,0.997176,0.0724799999999999,0.09094,0.008668,-0.027924
1066,0.002852,0.996461,0.0839299999999999,0.330613,0.140273,-0.2192599999999999
1067,-0.010359,0.995258,0.096648,0.581541,0.357022,-0.126907
1068,-0.017195,0.993095,0.1159849999999999,0.642043,0.48008,0.01315
1069,-0.008988,0.990768,0.135217,0.542511,0.395416,0.033698
1070,0.011131,0.989052,0.147101,0.204033,0.593987,0.179117
1071,0.036411,0.988537,0.146473,-0.0654179999999999,0.662906,0.164516
1072,0.062583,0.989118,0.1331,-0.3579469999999999,0.5744199999999999,0.280504
1073,0.088907,0.990486,0.104972,-0.163294,0.331078,0.258614
1074,0.1097829999999999,0.991734,0.066324,-0.2252159999999999,0.475628,0.305136
1075,0.123244,0.991959,0.028562,-0.185195,0.6168819999999999,0.285265
1076,0.130763,0.991404,-0.002703,-0.196421,0.462088,0.15224
1077,0.1328609999999999,0.990662,-0.030399,-0.148821,0.283569,0.097278
1078,0.130993,0.989765,-0.056522,-0.123226,0.109448,0.083438
1079,0.1320059999999999,0.98791,-0.081222,-0.028551,-0.238276,0.059662
1080,0.137786,0.985028,-0.103554,-0.0469959999999999,-0.372601,0.069664
1081,0.147234,0.981368,-0.123397,-0.141283,-0.394866,0.031157
1082,0.152419,0.978517,-0.138784,-0.088774,-0.834016,0.074896
1083,0.146824,0.977232,-0.1531269999999999,-0.085682,-0.8659959999999999,0.092473
1084,0.138393,0.976419,-0.165658,-0.03123,-0.739297,0.097817
1085,0.1290609999999999,0.976181,-0.174362,-0.053683,-0.816925,0.102341
1086,0.119766,0.977109,-0.17579,-0.03157,-0.8720979999999999,0.07641
1087,0.113203,0.978522,-0.172245,0.024431,-0.722861,-0.001355
1088,0.108822,0.979039,-0.17213,0.06821,-0.262074,-0.152288
1089,0.110357,0.977077,-0.182019,-0.0136009999999999,0.209691,-0.163654
1090,0.121773,0.97125,-0.204532,0.035698,0.800982,-0.238339
1091,0.137888,0.962204,-0.2348199999999999,0.169119,1.094025,-0.285108
1092,0.148294,0.956844,-0.2498969999999999,-0.063471,0.337422,-0.481914
1093,0.146884,0.957496,-0.2482239999999999,-0.194842,0.1084059999999999,-0.307455
1094,0.135797,0.954956,-0.263833,-0.127222,0.418717,-0.296088
1095,0.136396,0.949574,-0.282303,-0.251265,1.096218,0.339569
1096,0.156334,0.942207,-0.296302,-0.366555,0.8512799999999999,0.494621
1097,0.179098,0.941666,-0.284919,-0.325506,-0.006546,0.379157
1098,0.183247,0.947197,-0.263112,-0.4252359999999999,-0.5878680000000001,0.115452
1099,0.166774,0.952554,-0.254594,-0.126002,-0.28518,0.325791
1100,0.1506549999999999,0.957812,-0.244723,0.29011,-0.142138,0.369173
1101,0.139673,0.964317,-0.224884,0.357123,0.32415,0.350906
1102,0.135485,0.971484,-0.194554,-0.022723,0.269239,0.207142
1103,0.136018,0.978032,-0.15792,-0.1789099999999999,-0.025274,0.040412
1104,0.139345,0.982238,-0.125612,-0.147676,-0.279342,0.087083
1105,0.143496,0.984465,-0.10111,-0.102084,-0.4334399999999999,0.108831
1106,0.149165,0.985425,-0.081688,-0.107982,-0.420407,0.13221
1107,0.155683,0.985712,-0.0641809999999999,-0.133863,-0.4303079999999999,0.161548
1108,0.160789,0.986066,-0.042504,-0.0676799999999999,-0.28143,0.163369
1109,0.160933,0.986791,-0.018129,-0.068235,-0.214956,0.004686
1110,0.155625,0.9878,0.003959,-0.0740059999999999,-0.278557,-0.07621
1111,0.142787,0.989477,0.023033,-0.087871,-0.369726,0.010094
1112,0.1237099999999999,0.991388,0.0427709999999999,-0.007316,-0.108347,-0.054398
1113,0.101714,0.992888,0.061728,0.041658,-0.0979299999999999,-0.081672
1114,0.080752,0.993463,0.080581,0.055464,-0.057352,-0.091675
1115,0.062688,0.993369,0.096288,0.044155,0.143442,-0.144796
1116,0.048073,0.99294,0.1083549999999999,0.150535,0.132014,-0.217989
1117,0.038114,0.991835,0.121622,0.471728,0.125322,-0.259119
1118,0.031492,0.989914,0.1380559999999999,0.60036,0.359207,-0.054026
1119,0.036189,0.987324,0.154473,0.420614,0.637737,0.078224
1120,0.053536,0.985299,0.162175,0.340095,0.6513899999999999,0.2451429999999999
1121,0.077432,0.985405,0.151529,0.027167,0.519386,0.163321
1122,0.1047299999999999,0.987461,0.1180369999999999,-0.415643,0.646572,0.066258
1123,0.125316,0.989492,0.072001,-0.505229,0.663936,0.255361
1124,0.134688,0.990401,0.030775,-0.383636,0.4730689999999999,0.371019
1125,0.1381109999999999,0.990408,-0.000364,-0.1519049999999999,0.341593,0.24394
1126,0.137683,0.990068,-0.02814,0.057904,0.36772,0.039493
1127,0.135555,0.989122,-0.056986,0.07468,0.198699,0.000757
1128,0.133863,0.987377,-0.084571,0.005465,0.129841,0.058844
1129,0.1333619999999999,0.985165,-0.1079349999999999,-0.0498199999999999,-0.236371,0.118556
1130,0.132991,0.983048,-0.126154,-0.187221,-0.4129489999999999,0.150003
1131,0.134816,0.980912,-0.140076,-0.2403159999999999,-0.537355,0.1231839999999999
1132,0.133998,0.979307,-0.151619,-0.235972,-0.848814,0.104652
1133,0.126539,0.9787,-0.161616,-0.078672,-0.80414,0.110514
1134,0.115672,0.978681,-0.169675,-0.031977,-0.789076,0.099972
1135,0.105779,0.979003,-0.174216,0.029719,-0.765487,0.086508
1136,0.100108,0.979629,-0.174046,0.063481,-0.716751,0.065189
1137,0.09847,0.979754,-0.174279,0.066523,-0.521349,-0.067344
1138,0.098453,0.978588,-0.180717,0.063107,0.238148,-0.101083
1139,0.10216,0.975344,-0.195588,0.075223,0.512343,-0.188125
1140,0.110918,0.969355,-0.219169,0.192931,1.064565,-0.385826
1141,0.121458,0.963349,-0.239153,-0.122297,0.854583,-0.457487
1142,0.12815,0.96253,-0.238958,-0.187965,0.080057,-0.320567
1143,0.126463,0.960101,-0.2494,-0.128995,0.409055,-0.1662799999999999
1144,0.1217859999999999,0.953908,-0.274254,-0.07958,1.299297,0.2157369999999999
1145,0.1310079999999999,0.94697,-0.293382,-0.29034,1.122549,0.494263
1146,0.148626,0.946694,-0.285777,-0.230764,0.556617,0.461329
1147,0.160549,0.95052,-0.26594,-0.420284,-0.578144,0.181361
1148,0.150784,0.954652,-0.256694,-0.3418239999999999,-0.433747,0.127986
1149,0.136174,0.958942,-0.2487469999999999,0.217311,-0.222476,0.361235
1150,0.12382,0.964454,-0.23342,0.508199,0.153359,0.3730989999999999
1151,0.118518,0.971232,-0.206519,0.125364,0.231603,0.2878179999999999
1152,0.118946,0.978517,-0.1683579999999999,-0.180256,0.030273,0.0773539999999999
1153,0.121413,0.983833,-0.131599,-0.138502,-0.143898,0.028724
1154,0.12522,0.986721,-0.103381,-0.10189,-0.355831,0.0666679999999999
1155,0.129496,0.988082,-0.083132,-0.095912,-0.44464,0.092699
1156,0.13439,0.988511,-0.0690669999999999,-0.12702,-0.493363,0.207357
1157,0.137576,0.989132,-0.05172,-0.11774,-0.411923,0.256173
1158,0.135973,0.990335,-0.027063,-0.130434,-0.203363,0.085794
1159,0.129855,0.991522,-0.002164,-0.168277,-0.249182,-0.066149
1160,0.1172339999999999,0.992935,0.0178639999999999,-0.098573,-0.208664,0.038151
1161,0.0989309999999999,0.994471,0.03496,-0.0364769999999999,-0.141475,0.0583929999999999
1162,0.0792139999999999,0.995568,0.0505209999999999,0.056147,-0.072045,-0.010787
1163,0.062395,0.995852,0.066096,0.083052,-0.0294819999999999,-0.13061
1164,0.047901,0.995768,0.078324,0.1854819999999999,0.118627,-0.1135109999999999
1165,0.035625,0.995508,0.08762,0.3326,0.175207,-0.214009
1166,0.028222,0.9948,0.0977659999999999,0.495139,0.1807369999999999,-0.231983
1167,0.02396,0.993604,0.110267,0.569058,0.28493,-0.078895
1168,0.0277889999999999,0.991991,0.123142,0.507001,0.4904159999999999,-0.046329
1169,0.043352,0.990796,0.128159,0.360654,0.5147430000000001,0.183975
1170,0.0651,0.990936,0.117433,0.076791,0.353486,0.070769
1171,0.091448,0.992059,0.086245,-0.323641,0.535529,0.0303009999999999
1172,0.1110329999999999,0.992949,0.041322,-0.340388,0.685472,0.3805989999999999
1173,0.120044,0.992759,0.001578,-0.267444,0.5886,0.401453
1174,0.125019,0.991812,-0.0257589999999999,-0.070454,0.3738039999999999,0.2534659999999999
1175,0.128901,0.990379,-0.050184,0.047475,0.3829579999999999,0.042601
1176,0.132867,0.988206,-0.076035,0.003349,0.323226,-0.018737
1177,0.137629,0.985324,-0.100896,-0.070094,0.067578,0.0459339999999999
1178,0.140375,0.982514,-0.1222589999999999,-0.16253,-0.397004,0.159292
1179,0.140733,0.980118,-0.139823,-0.202317,-0.393555,0.169562
1180,0.142002,0.977803,-0.154023,-0.209339,-0.738957,0.15474
1181,0.1391349999999999,0.976235,-0.1661109999999999,-0.182546,-0.816476,0.161656
1182,0.131357,0.975422,-0.176876,-0.111857,-0.8172649999999999,0.155559
1183,0.1205079999999999,0.975092,-0.186176,0.005194,-0.724268,0.144031
1184,0.111345,0.975071,-0.1919,0.021208,-0.702885,0.146032
1185,0.1056849999999999,0.975779,-0.191505,0.04614,-0.69282,0.103096
1186,0.1037039999999999,0.976606,-0.188347,0.048014,-0.157346,-0.163429
1187,0.102677,0.976526,-0.189318,0.031142,0.064261,-0.15785
1188,0.104616,0.974484,-0.198554,-0.017809,0.307086,-0.1338589999999999
1189,0.110665,0.969734,-0.2176159999999999,0.03881,1.0943379999999998,-0.247426
1190,0.116568,0.965213,-0.2340159999999999,-0.077139,0.714536,-0.387688
1191,0.117665,0.964737,-0.235427,-0.282307,0.292084,-0.316819
1192,0.115526,0.96071,-0.252347,-0.222673,0.622939,-0.1929809999999999
1193,0.117748,0.951831,-0.283094,-0.080394,1.349759,0.32678
1194,0.135427,0.944048,-0.300703,-0.204396,0.703047,0.4485149999999999
1195,0.1610349999999999,0.944371,-0.286738,-0.313089,-0.326177,0.343287
1196,0.169686,0.94818,-0.268608,-0.368325,-0.495924,0.193825
1197,0.157677,0.952166,-0.261736,-0.2564929999999999,-0.288027,0.180757
1198,0.139745,0.957602,-0.251907,0.2589059999999999,-0.060584,0.35881
1199,0.1241309999999999,0.964521,-0.232974,0.446273,0.379274,0.366901
1200,0.1185539999999999,0.972398,-0.20093,0.037971,0.170698,0.2201409999999999
1201,0.118594,0.979598,-0.1622,-0.142795,-0.034362,0.06555
1202,0.12125,0.984291,-0.128278,-0.098697,-0.33387,0.089048
1203,0.125236,0.986965,-0.100995,-0.119697,-0.381314,0.092007
1204,0.129432,0.988276,-0.080882,-0.149772,-0.432902,0.101664
1205,0.134209,0.988867,-0.06414,-0.155495,-0.460104,0.232261
1206,0.1365839999999999,0.989676,-0.04325,-0.1217369999999999,-0.313726,0.182349
1207,0.135172,0.990631,-0.019011,-0.085962,-0.228043,-0.001695
1208,0.128868,0.991649,0.002783,-0.116188,-0.3317219999999999,-0.063833
1209,0.115379,0.993073,0.021792,-0.039406,-0.292329,-0.017092
1210,0.097033,0.994516,0.038789,0.049482,-0.143304,0.050993
1211,0.076858,0.99557,0.053988,0.076508,-0.1201119999999999,-0.0271019999999999
1212,0.057832,0.995933,0.06895,0.019865,-0.066581,-0.180568
1213,0.041104,0.995796,0.081738,0.133365,0.074181,-0.112668
1214,0.0278029999999999,0.995255,0.093135,0.378783,0.165633,-0.202068
1215,0.02038,0.994234,0.1051769999999999,0.6112270000000001,0.130659,-0.217055
1216,0.018177,0.992626,0.119756,0.5900380000000001,0.242298,-0.107305
1217,0.026906,0.99068,0.13345,0.376781,0.5496949999999999,0.066852
1218,0.046278,0.989396,0.137597,0.342668,0.4749899999999999,0.2093719999999999
1219,0.071741,0.989556,0.124942,0.065863,0.40441,0.191617
1220,0.10087,0.990831,0.089767,-0.481317,0.855375,0.150529
1221,0.120541,0.991804,0.042135,-0.47723,0.93033,0.372553
1222,0.128578,0.99168,0.004508,-0.3821179999999999,0.619496,0.458535
1223,0.133957,0.990765,-0.020561,-0.105942,0.359715,0.077675
1224,0.139284,0.989225,-0.044886,0.063902,0.4147659999999999,-0.013784
1225,0.14517,0.986825,-0.071298,-0.056257,0.070533,0.0151
1226,0.15325,0.983524,-0.095802,-0.012305,-0.064319,0.039406
1227,0.161068,0.979913,-0.117518,-0.01884,-0.252054,0.066019
1228,0.1648609999999999,0.976756,-0.13694,-0.198384,-0.3789619999999999,0.192161
1229,0.168403,0.973302,-0.15591,-0.228935,-0.592809,0.136943
1230,0.167024,0.970803,-0.17213,-0.183962,-0.740029,0.17242
1231,0.158219,0.969643,-0.186394,-0.083085,-0.809945,0.177651
1232,0.14432,0.969647,-0.197332,-0.041552,-0.740246,0.170644
1233,0.130319,0.970337,-0.203584,-0.023309,-0.723236,0.170915
1234,0.118183,0.972032,-0.202904,0.026363,-0.698503,0.085121
1235,0.108253,0.974093,-0.198516,-0.0121079999999999,-0.459429,-0.072328
1236,0.100271,0.974986,-0.198322,-0.043371,-0.265712,-0.136715
1237,0.098087,0.973177,-0.208063,-0.150302,0.488966,-0.1898099999999999
1238,0.102237,0.967806,-0.2299639999999999,0.158643,0.988538,-0.253725
1239,0.109872,0.96208,-0.249628,0.202353,1.172609,-0.310659
1240,0.115991,0.96056,-0.252698,-0.163324,0.050198,-0.434039
1241,0.119023,0.957527,-0.262605,-0.1960339999999999,0.243554,-0.288649
1242,0.118602,0.950307,-0.287812,-0.054866,0.5306350000000001,-0.093475
1243,0.1318369999999999,0.941563,-0.30994,-0.2193159999999999,1.096248,0.552646
1244,0.151074,0.93962,-0.307046,-0.156674,0.389543,0.437463
1245,0.161496,0.94504,-0.28426,-0.341031,-0.372591,0.306446
1246,0.154075,0.950456,-0.26996,-0.2484199999999999,-0.27292,0.235262
1247,0.13988,0.955447,-0.259884,0.140622,-0.139758,0.381863
1248,0.127599,0.961133,-0.244798,0.39535,0.080859,0.386048
1249,0.122445,0.967676,-0.2204429999999999,0.055473,0.213797,0.340835
1250,0.123088,0.974831,-0.185842,-0.189082,0.10572,0.167196
1251,0.127203,0.980762,-0.148013,-0.154776,-0.056659,0.08684
1252,0.132645,0.984264,-0.116673,-0.120728,-0.247279,0.059529
1253,0.1388569999999999,0.985878,-0.093513,-0.0963,-0.348991,0.077019
1254,0.145234,0.986299,-0.078111,-0.1101849999999999,-0.437212,0.151414
1255,0.150517,0.986689,-0.061398,-0.104527,-0.45135,0.2475699999999999
1256,0.149402,0.988024,-0.038318,-0.084262,-0.270494,0.130313
1257,0.142264,0.98973,-0.013201,-0.118643,-0.295837,-0.029997
1258,0.127394,0.99179,0.0100819999999999,-0.104292,-0.337417,-0.00082
1259,0.106002,0.993849,0.031727,-0.056746,-0.208205,0.046032
1260,0.08295,0.995237,0.050993,-0.01369,-0.130095,-0.009276
1261,0.062657,0.995659,0.068671,-0.000157,-0.094185,-0.125677
1262,0.045424,0.995537,0.082588,0.098344,0.072349,-0.0796279999999999
1263,0.031183,0.995191,0.0927419999999999,0.344702,0.139712,-0.174468
1264,0.022172,0.994423,0.102997,0.534454,0.1900099999999999,-0.197845
1265,0.01872,0.992988,0.116625,0.625368,0.132683,-0.135469
1266,0.021047,0.990843,0.1332819999999999,0.4819739999999999,0.507677,-0.060513
1267,0.035739,0.988745,0.1452,0.282163,0.5246069999999999,0.113879
1268,0.056772,0.987863,0.144502,0.177313,0.450858,0.135223
1269,0.082671,0.988815,0.124044,-0.161437,0.416229,0.128978
1270,0.1072829999999999,0.990503,0.085866,-0.395399,0.608206,0.111018
1271,0.1248809999999999,0.991267,0.042108,-0.329944,0.593266,0.340292
1272,0.136627,0.990593,0.006221,-0.281616,0.510231,0.349278
1273,0.14418,0.989287,-0.0224639999999999,-0.175796,0.429856,0.215808
1274,0.149398,0.987515,-0.0497639999999999,-0.0052179999999999,0.348026,0.028692
1275,0.153101,0.985308,-0.07557,-0.050104,0.208143,0.047722
1276,0.158218,0.982378,-0.0994169999999999,-0.111724,0.008848,0.055609
1277,0.163053,0.979056,-0.121851,-0.0889409999999999,-0.290228,0.132913
1278,0.167696,0.975645,-0.141345,-0.185595,-0.455366,0.138797
1279,0.171094,0.972421,-0.1584549999999999,-0.201474,-0.610895,0.133293
1280,0.17125,0.970074,-0.172089,-0.165299,-0.759976,0.159424
1281,0.164967,0.969063,-0.18354,-0.088337,-0.786492,0.139793
1282,0.156172,0.968916,-0.191823,-0.020201,-0.689177,0.122274
1283,0.147557,0.969689,-0.194717,-0.0071,-0.768441,0.126434
1284,0.141016,0.971202,-0.1920059999999999,0.00228,-0.687739,0.047322
1285,0.135163,0.972808,-0.188046,0.021362,-0.44908,-0.096195
1286,0.128307,0.973607,-0.188708,0.014378,-0.086858,-0.133664
1287,0.126193,0.971938,-0.198488,0.0034,0.488679,-0.2515699999999999
1288,0.130129,0.967326,-0.217561,0.183714,1.095266,-0.298903
1289,0.136688,0.963382,-0.230645,-0.057098,0.747037,-0.42617
1290,0.142614,0.961166,-0.236233,-0.285482,0.242096,-0.298023
1291,0.143016,0.953721,-0.264478,-0.2109489999999999,0.90628,-0.1776599999999999
1292,0.147374,0.942221,-0.3008119999999999,-0.276356,1.811853,0.344528
1293,0.160803,0.938317,-0.306088,-0.366934,1.55239,0.444241
1294,0.1756339999999999,0.941946,-0.28614,-0.392995,-0.534216,0.288246
1295,0.172153,0.945684,-0.275736,-0.36153,-0.398092,0.201715
1296,0.155481,0.949228,-0.273455,-0.173014,-0.2609039999999999,0.2666949999999999
1297,0.1377799999999999,0.954704,-0.26371,0.406654,0.116204,0.445229
1298,0.1282839999999999,0.96156,-0.242757,0.0042229999999999,0.153873,0.317342
1299,0.128429,0.96917,-0.210236,-0.145778,0.068946,0.233368
1300,0.130608,0.976131,-0.173473,-0.2165,-0.0257529999999999,0.106793
1301,0.132878,0.980804,-0.142654,-0.115926,-0.115447,0.101974
1302,0.135789,0.983591,-0.118708,-0.101045,-0.283686,0.0852909999999999
1303,0.140484,0.984829,-0.101774,-0.114697,-0.377269,0.10005
1304,0.146655,0.98519,-0.088732,-0.088992,-0.4284729999999999,0.2735309999999999
1305,0.152072,0.985897,-0.069734,-0.063663,-0.374736,0.234025
1306,0.153493,0.987181,-0.0435129999999999,-0.0505269999999999,-0.3190139999999999,0.039469
1307,0.149033,0.988634,-0.019287,-0.055588,-0.3994769999999999,-0.027481
1308,0.13779,0.990451,0.000802,-0.026568,-0.349536,-0.004999
1309,0.1223819999999999,0.992299,0.01853,0.029687,-0.133474,-0.019537
1310,0.104391,0.993954,0.033694,0.070811,-0.013181,-0.0599539999999999
1311,0.084773,0.995267,0.047269,0.053136,0.000567,-0.097746
1312,0.064326,0.996253,0.057615,0.072057,0.012734,-0.056486
1313,0.044979,0.996765,0.066445,0.338306,-0.003585,-0.190987
1314,0.032907,0.996388,0.078144,0.449485,0.024959,-0.208423
1315,0.025861,0.995287,0.093336,0.518252,0.119367,-0.1947
1316,0.0223879999999999,0.993236,0.1138329999999999,0.3008389999999999,0.5993850000000001,0.027433
1317,0.029792,0.991157,0.129219,0.295128,0.577951,0.0670549999999999
1318,0.0434769999999999,0.990237,0.132352,0.286067,0.538221,0.160617
1319,0.064233,0.990906,0.118138,-0.169275,0.37767,0.194774
1320,0.089908,0.992165,0.08662,-0.355106,0.368095,0.160878
1321,0.112313,0.992712,0.043445,-0.350366,0.600275,0.242184
1322,0.1277859999999999,0.991787,0.0030789999999999,-0.34321,0.589787,0.301196
1323,0.136565,0.990287,-0.025698,-0.036284,0.3292469999999999,0.132113
1324,0.141471,0.988739,-0.048597,0.104851,0.3406369999999999,-0.047747
1325,0.146445,0.986477,-0.073471,0.050729,0.303333,0.021179
1326,0.152531,0.983328,-0.098908,0.038479,0.06634,0.025727
1327,0.157603,0.979726,-0.1236109999999999,-0.112239,-0.338735,0.148223
1328,0.159358,0.976475,-0.145208,-0.188059,-0.4340699999999999,0.199469
1329,0.160424,0.9734,-0.163522,-0.268609,-0.42886,0.177804
1330,0.159278,0.971382,-0.176154,-0.196829,-0.731957,0.182395
1331,0.1520109999999999,0.970716,-0.185973,-0.155887,-0.815351,0.168487
1332,0.141067,0.970913,-0.193421,-0.08107,-0.6388199999999999,0.154817
1333,0.12921,0.972168,-0.195391,-0.023726,-0.637634,0.154101
1334,0.118444,0.97451,-0.190485,-0.004049,-0.663139,0.118494
1335,0.109767,0.976874,-0.183446,0.047445,-0.447607,-0.046962
1336,0.101038,0.978127,-0.181774,0.017858,-0.128915,-0.1748849999999999
1337,0.095715,0.977338,-0.188765,0.0555,0.274493,-0.178957
1338,0.097536,0.97374,-0.205672,-0.0289019999999999,0.777084,-0.312272
1339,0.101073,0.969102,-0.224966,0.074174,0.604979,-0.4205109999999999
1340,0.107378,0.967364,-0.229481,0.01956,0.196638,-0.450572
1341,0.112981,0.965849,-0.233142,-0.091527,0.036898,-0.281064
1342,0.109617,0.96016,-0.257023,-0.050626,0.8934770000000001,0.030445
1343,0.1135579999999999,0.95218,-0.283623,-0.47246,1.485457,0.582466
1344,0.1223119999999999,0.950177,-0.2866849999999999,-0.418882,0.688159,0.461261
1345,0.127613,0.954287,-0.270253,-0.353137,-0.7209949999999999,0.268559
1346,0.119288,0.957551,-0.262394,-0.077372,-0.290773,0.2786909999999999
1347,0.105721,0.960397,-0.257771,0.149695,-0.213509,0.397755
1348,0.09534,0.964848,-0.244873,0.607083,0.2740889999999999,0.388794
1349,0.0900379999999999,0.970735,-0.222598,0.32674,0.300825,0.360461
1350,0.089945,0.977517,-0.190667,-0.165613,0.1160799999999999,0.191262
1351,0.092083,0.983702,-0.154385,-0.170849,-0.017835,0.074643
1352,0.094285,0.987699,-0.124668,-0.131455,-0.215788,0.056065
1353,0.097133,0.98978,-0.1043119999999999,-0.126247,-0.337315,0.063677
1354,0.102408,0.990402,-0.092723,-0.155158,-0.445358,0.123973
1355,0.1092279999999999,0.990749,-0.080414,-0.12644,-0.440349,0.276962
1356,0.1120369999999999,0.991857,-0.060394,-0.107764,-0.286611,0.197876
1357,0.108695,0.993347,-0.037776,-0.08457,-0.186142,0.044948
1358,0.097369,0.995075,-0.017984,-0.056811,-0.365376,0.075738
1359,0.07774,0.996963,0.000874,-0.016033,-0.329085,0.089214
1360,0.054548,0.998329,0.018497,0.00432,-0.25283,0.004559
1361,0.032914,0.998881,0.033619,0.1202849999999999,-0.097102,-0.1312299999999999
1362,0.014218,0.998754,0.047606,0.203922,-0.0403339999999999,-0.141295
1363,-0.0009539999999999,0.998274,0.0585309999999999,0.317254,0.0844289999999999,-0.0627419999999999
1364,-0.012555,0.997534,0.06888,0.567639,0.169031,-0.173525
1365,-0.021143,0.996507,0.080644,0.608942,0.218184,-0.220232
1366,-0.027634,0.995166,0.094113,0.3120429999999999,0.67294,0.055072
1367,-0.022184,0.994209,0.1050339999999999,0.409727,0.528176,0.191292
1368,-0.008249,0.994314,0.1060509999999999,0.4728489999999999,0.397532,0.2314429999999999
1369,0.015663,0.99577,0.09041,-0.022072,0.277363,0.126814
1370,0.043161,0.997656,0.052895,-0.274103,0.40925,0.053978
1371,0.062724,0.998002,0.006101,-0.479655,0.8058310000000001,0.272311
1372,0.072945,0.996831,-0.031395,-0.077798,0.334025,0.21038
1373,0.078919,0.99523,-0.05717,0.012497,0.293512,0.109813
1374,0.0832909999999999,0.99307,-0.0827919999999999,0.211036,0.40909,0.005018
1375,0.08781,0.990054,-0.1098349999999999,0.141362,0.199338,0.061358
1376,0.0927149999999999,0.986656,-0.133778,0.124555,-0.113517,0.093311
1377,0.095457,0.983634,-0.152754,-0.06613,-0.364753,0.1571789999999999
1378,0.097177,0.980994,-0.167901,-0.140939,-0.2810269999999999,0.2499019999999999
1379,0.099995,0.978436,-0.1806839999999999,-0.171513,-0.603787,0.217611
1380,0.099758,0.976173,-0.192658,-0.163097,-0.790413,0.22435
1381,0.094577,0.974264,-0.204569,-0.177539,-0.7484029999999999,0.201869
1382,0.08622,0.973093,-0.213635,-0.13607,-0.7293649999999999,0.189068
1383,0.07911,0.973095,-0.216361,-0.050545,-0.684719,0.123572
1384,0.072613,0.974373,-0.212857,0.044483,-0.627221,0.1208619999999999
1385,0.065534,0.975798,-0.208587,0.100085,-0.413603,0.022049
1386,0.0584929999999999,0.976808,-0.205933,0.12565,-0.118944,-0.025222
1387,0.0535919999999999,0.975862,-0.2116739999999999,0.126172,0.327605,-0.076031
1388,0.0517539999999999,0.972074,-0.2288639999999999,0.292545,0.944506,-0.261126
1389,0.054054,0.968807,-0.241821,0.031411,0.692296,-0.4915319999999999
1390,0.057526,0.968394,-0.242671,-0.139512,0.15064,-0.444616
1391,0.059383,0.962545,-0.2645119999999999,0.15186,0.8259219999999999,0.183121
1392,0.066434,0.950323,-0.304073,0.091998,1.478526,0.442562
1393,0.0851809999999999,0.942619,-0.322801,-0.116644,1.844704,0.6153420000000001
1394,0.104769,0.948395,-0.2992599999999999,-0.5703,-0.8027350000000001,0.258656
1395,0.107884,0.953244,-0.282265,-0.456395,-0.851361,0.1817099999999999
1396,0.095509,0.954441,-0.282677,-0.025211,-0.3285869999999999,0.348503
1397,0.078725,0.95826,-0.274819,0.745905,0.077659,0.5070279999999999
1398,0.064044,0.966213,-0.249634,0.673032,0.343236,0.500473
1399,0.057487,0.976081,-0.2096329999999999,-0.052376,0.375222,0.192772
1400,0.057494,0.984295,-0.1668589999999999,-0.169768,-0.042538,-0.00993
1401,0.060465,0.988907,-0.1356119999999999,-0.110468,-0.210113,0.005455
1402,0.06467,0.991247,-0.115025,-0.094364,-0.420247,0.059452
1403,0.069636,0.992342,-0.101931,-0.084559,-0.555361,0.258761
1404,0.074039,0.993606,-0.085133,-0.074497,-0.546676,0.313618
1405,0.0730389999999999,0.995551,-0.059375,-0.048151,-0.292426,0.206271
1406,0.068972,0.997069,-0.032825,-0.103289,-0.360243,-0.030637
1407,0.0587909999999999,0.998194,-0.011576,-0.096877,-0.3844849999999999,-0.036733
1408,0.042513,0.999056,0.00771,-0.028536,-0.247607,0.002361
1409,0.023399,0.999418,0.024393,0.007729,-0.120741,0.040991
1410,0.00474,0.999224,0.038811,-0.004954,-0.072726,0.026893
1411,-0.0144409999999999,0.998578,0.051098,0.2882139999999999,0.004474,-0.045574
1412,-0.033968,0.997615,0.059891,0.487276,0.035389,-0.119202
1413,-0.046979,0.996499,0.068995,0.6696449999999999,0.0891179999999999,-0.160685
1414,-0.052172,0.995394,0.080285,0.71567,0.134245,-0.167717
1415,-0.052862,0.994043,0.095189,0.556966,0.251349,-0.103719
1416,-0.041995,0.993266,0.10787,0.12955,0.651708,0.02862
1417,-0.020119,0.993785,0.10937,0.228905,0.357014,0.2291
1418,0.0140449999999999,0.995507,0.093516,0.037407,0.313102,0.207586
1419,0.052416,0.996964,0.057385,-0.2853719999999999,0.691909,0.07059
1420,0.080135,0.996657,0.015228,-0.498501,1.034044,0.407578
1421,0.0994029999999999,0.994924,-0.014962,-0.305504,0.625635,0.335854
1422,0.115503,0.992586,-0.037566,-0.2013329999999999,0.5000899999999999,0.084716
1423,0.133155,0.989142,-0.062033,0.023507,0.300714,-0.000513
1424,0.150135,0.984821,-0.086995,0.050137,0.100308,-0.0114849999999999
1425,0.165851,0.980057,-0.1093799999999999,-0.104297,-0.214401,0.0695549999999999
1426,0.178475,0.974725,-0.134315,-0.1728599999999999,-0.438043,0.154319
1427,0.184278,0.969634,-0.160734,-0.219877,-0.453185,0.178419
1428,0.1843,0.965643,-0.183169,-0.126621,-0.6211909999999999,0.214007
1429,0.1802,0.963186,-0.199461,-0.0781179999999999,-0.803137,0.161025
1430,0.1721859999999999,0.962276,-0.210621,-0.110571,-0.723491,0.146626
1431,0.162495,0.962505,-0.217173,-0.09673,-0.703151,0.132715
1432,0.153599,0.963766,-0.218051,-0.027089,-0.6579189999999999,0.042591
1433,0.145607,0.966082,-0.213234,0.017952,-0.605654,0.009483
1434,0.1380569999999999,0.968562,-0.206913,0.094121,-0.388178,-0.05415
1435,0.129492,0.970904,-0.201402,0.065195,-0.039553,-0.192382
1436,0.123451,0.9719,-0.2003839999999999,-0.0295029999999999,0.546334,-0.2083989999999999
1437,0.121701,0.969817,-0.211255,0.2274969999999999,0.878541,-0.316882
1438,0.126571,0.966947,-0.221311,0.045823,0.5284300000000001,-0.5731069999999999
1439,0.129157,0.966437,-0.222043,-0.313392,0.230081,-0.337467
1440,0.126682,0.960907,-0.246161,-0.2330809999999999,1.115875,0.1185819999999999
1441,0.135546,0.947763,-0.28872,-0.241534,2.004996,0.731988
1442,0.1605,0.939009,-0.304117,-0.425225,0.45485,0.459543
1443,0.187322,0.941072,-0.281566,-0.661702,-0.913652,0.234371
1444,0.193144,0.944115,-0.267073,-0.387358,-0.2389909999999999,0.182326
1445,0.182445,0.946158,-0.267366,0.467458,0.248178,0.44687
1446,0.1650849999999999,0.951495,-0.2595969999999999,0.533219,0.388608,0.490432
1447,0.1511,0.959867,-0.2362409999999999,-0.030754,0.378954,0.33495
1448,0.14662,0.96885,-0.199543,-0.27281,-0.006036,0.076191
1449,0.147313,0.975786,-0.161633,-0.230962,-0.0941029999999999,0.063702
1450,0.1517069999999999,0.979752,-0.130596,-0.144764,-0.292008,0.090832
1451,0.159321,0.98135,-0.107477,-0.016026,-0.441189,0.20701
1452,0.171473,0.981088,-0.0897,-0.006113,-0.562753,0.267236
1453,0.184717,0.980333,-0.069353,0.0308899999999999,-0.447633,0.257555
1454,0.188165,0.981247,-0.041595,-0.021188,-0.173874,0.072097
1455,0.182173,0.983153,-0.014352,-0.150206,-0.292189,-0.027732
1456,0.16741,0.98584,0.008679,-0.202032,-0.31633,0.046542
1457,0.145393,0.988925,0.0294839999999999,-0.211707,-0.203448,0.0036729999999999
1458,0.1208569999999999,0.991594,0.046001,-0.16616,-0.127595,-0.074657
1459,0.09685,0.993657,0.056974,0.032392,-0.1283,-0.047819
1460,0.0753799999999999,0.995019,0.065078,0.286406,-0.12597,-0.099899
1461,0.056772,0.9958,0.0716919999999999,0.30773,-0.11372,-0.241141
1462,0.043741,0.99586,0.079559,0.527365,-0.017268,-0.203323
1463,0.035101,0.995258,0.090597,0.598108,0.184109,-0.218527
1464,0.029042,0.993713,0.10803,0.303402,0.550446,-0.097074
1465,0.032636,0.991277,0.127607,0.398181,0.584743,0.174166
1466,0.0470149999999999,0.989417,0.137196,0.327741,0.577188,0.2419849999999999
1467,0.071434,0.988932,0.129958,-0.177819,0.550192,0.228242
1468,0.103988,0.989414,0.10112,-0.44287,0.887875,0.146363
1469,0.131956,0.989713,0.0550919999999999,-0.587004,0.951342,0.241676
1470,0.149128,0.988723,0.012959,-0.619831,0.7489020000000001,0.365169
1471,0.1580339999999999,0.987263,-0.01782,-0.300871,0.3774369999999999,0.145262
1472,0.163439,0.985633,-0.042375,-0.135546,0.326271,0.05948
1473,0.167904,0.983543,-0.066587,0.269413,-0.089713,-0.013797
1474,0.171767,0.981045,-0.089604,0.027101,-0.189099,0.030599
1475,0.178081,0.977773,-0.110581,-0.024868,-0.267553,0.099107
1476,0.184799,0.974221,-0.129325,-0.222198,-0.421822,0.091925
1477,0.190996,0.970559,-0.146693,-0.246629,-0.6244890000000001,0.057719
1478,0.194323,0.967523,-0.161619,-0.198351,-0.743158,0.070494
1479,0.190252,0.965857,-0.175801,-0.059973,-0.699225,0.135121
1480,0.181271,0.96553,-0.186748,-0.032651,-0.6774899999999999,0.139232
1481,0.17265,0.966614,-0.189296,0.020313,-0.796203,0.103862
1482,0.164676,0.969159,-0.183291,0.046338,-0.758328,0.085635
1483,0.156415,0.972371,-0.173237,0.0476399999999999,-0.4740189999999999,-0.089076
1484,0.147006,0.974931,-0.166974,-0.027712,-0.145005,-0.108447
1485,0.1423869999999999,0.975067,-0.17015,-0.093147,0.082626,-0.173005
1486,0.14589,0.971442,-0.187076,0.217788,0.984612,-0.308407
1487,0.157903,0.965602,-0.20655,-0.270513,0.393514,-0.442727
1488,0.165916,0.963065,-0.212038,-0.394096,0.311135,-0.372037
1489,0.167018,0.957397,-0.2355409999999999,-0.091472,0.954743,-0.059823
1490,0.17396,0.947386,-0.2686659999999999,-0.2559,1.302797,0.4791609999999999
1491,0.196489,0.937824,-0.286115,-0.338991,0.715649,0.410764
1492,0.2198679999999999,0.936379,-0.273563,-0.565998,-0.323067,0.3032559999999999
1493,0.226275,0.939227,-0.258138,-0.472842,-0.2144039999999999,0.261327
1494,0.214951,0.943728,-0.251311,-0.081589,0.148618,0.3936139999999999
1495,0.197252,0.950719,-0.239179,0.290571,0.251826,0.415479
1496,0.182419,0.958813,-0.217676,-0.0997929999999999,0.257114,0.361154
1497,0.176608,0.966452,-0.186445,-0.310656,0.094675,0.2626469999999999
1498,0.177723,0.972618,-0.149699,-0.239643,-0.00312,0.1472119999999999
1499,0.183653,0.976306,-0.1143599999999999,-0.1571789999999999,-0.202471,0.108272
1500,0.192682,0.977371,-0.087173,-0.104609,-0.342483,0.083282
1501,0.20457,0.976465,-0.0681539999999999,-0.0478769999999999,-0.4581699999999999,0.1572049999999999
1502,0.2164829999999999,0.974934,-0.05116,-0.020834,-0.4409369999999999,0.237836
1503,0.220088,0.975095,-0.0270029999999999,-0.039362,-0.335217,0.131709
1504,0.211598,0.977345,-0.000743,-0.07816,-0.348576,-0.004246
1505,0.195638,0.980387,0.023318,-0.027761,-0.431284,0.018338
1506,0.1751069999999999,0.983469,0.045852,-0.008222,-0.314157,-0.021057
1507,0.154202,0.985823,0.065957,0.039493,-0.133894,-0.109384
1508,0.133609,0.987637,0.08184,0.120389,-0.026516,-0.163306
1509,0.112297,0.989026,0.095871,0.184319,0.049883,-0.204513
1510,0.092226,0.989842,0.1080869999999999,0.067519,-0.008793,-0.170877
1511,0.073959,0.990107,0.1191359999999999,0.212677,-0.019861,-0.203486
1512,0.058954,0.989391,0.132682,0.519629,0.0723159999999999,-0.262809
1513,0.049672,0.987223,0.151318,0.242351,0.5321100000000001,0.015567
1514,0.057046,0.983651,0.170734,0.2178409999999999,0.662483,0.184598
1515,0.078872,0.980576,0.179508,0.269578,0.702392,0.356991
1516,0.109343,0.979616,0.168433,-0.455672,0.696729,0.144616
1517,0.139924,0.980716,0.136355,-0.731064,0.73631,0.126432
1518,0.162369,0.982289,0.093386,-0.655533,0.670909,0.273343
1519,0.17576,0.982928,0.054198,-0.338068,0.398481,0.2348039999999999
1520,0.183315,0.98278,0.022726,-0.230831,0.377297,0.169855
1521,0.186565,0.982424,-0.003947,0.131138,0.3608989999999999,-0.048574
1522,0.1888369999999999,0.981488,-0.031649,-0.022043,-0.0266689999999999,-0.007292
1523,0.19277,0.979351,-0.06076,-0.037619,-0.1094319999999999,0.0574789999999999
1524,0.198011,0.976168,-0.088698,-0.111204,-0.2422969999999999,0.148527
1525,0.202896,0.972566,-0.113703,-0.308655,-0.461412,0.037561
1526,0.208498,0.968724,-0.134473,-0.295443,-0.6099289999999999,0.1039089999999999
1527,0.210402,0.965638,-0.152502,-0.268874,-0.703125,0.094336
1528,0.206963,0.964096,-0.1663329999999999,-0.091362,-0.700623,0.060148
1529,0.201388,0.963728,-0.175083,-0.022662,-0.724104,0.047596
1530,0.192818,0.965081,-0.177262,0.000251,-0.767678,0.0355529999999999
1531,0.181094,0.968262,-0.172211,0.049847,-0.6810609999999999,-0.045486
1532,0.168669,0.971531,-0.166313,0.046495,-0.267384,-0.2172619999999999
1533,0.156056,0.973267,-0.168467,0.059108,-0.269119,-0.215109
1534,0.149173,0.972273,-0.180045,0.052915,0.496401,-0.224542
1535,0.154638,0.967434,-0.200355,0.183008,1.125065,-0.25605
1536,0.170141,0.961332,-0.216509,-0.0589809999999999,0.927309,-0.53433
1537,0.183748,0.958313,-0.218763,-0.5403,0.233154,-0.364795
1538,0.187242,0.953895,-0.234542,-0.39647,0.6146020000000001,-0.250916
1539,0.186947,0.947746,-0.258481,-0.499875,1.186211,0.302167
1540,0.193031,0.94165,-0.275717,-0.424613,0.870499,0.455572
1541,0.205694,0.941687,-0.266271,-0.37795,-0.178504,0.3632559999999999
1542,0.210966,0.94537,-0.248504,-0.420149,-0.357769,0.226989
1543,0.204179,0.94925,-0.239208,0.033859,-0.076905,0.3975329999999999
1544,0.1939519999999999,0.954052,-0.228368,0.2220489999999999,-0.0091209999999999,0.373388
1545,0.184514,0.960278,-0.209296,0.260692,0.168155,0.312339
1546,0.179121,0.966623,-0.183137,-0.085142,0.065695,0.273072
1547,0.1796569999999999,0.972307,-0.149417,-0.186875,0.004866,0.171146
1548,0.185246,0.976072,-0.11379,-0.173695,-0.144072,0.083868
1549,0.19315,0.977548,-0.084103,-0.169881,-0.246027,0.065915
1550,0.20245,0.977294,-0.062382,-0.177089,-0.481261,0.177052
1551,0.212063,0.976133,-0.0466279999999999,-0.164548,-0.566114,0.268262
1552,0.218023,0.975623,-0.0246,-0.177527,-0.25022,0.097811
1553,0.214307,0.976742,0.005236,-0.179044,-0.2942619999999999,0.0127549999999999
1554,0.204819,0.978173,0.0347209999999999,-0.195602,-0.291009,-0.02436
1555,0.189192,0.98014,0.059246,-0.18936,-0.168891,-0.035442
1556,0.169182,0.982511,0.077627,-0.126182,-0.133238,-0.04949
1557,0.1469339999999999,0.984665,0.09393,0.1615069999999999,-0.083618,-0.151685
1558,0.123643,0.98643,0.1079099999999999,0.172271,0.093175,-0.24498
1559,0.101863,0.987676,0.11873,0.126195,0.131022,-0.258623
1560,0.08539,0.987943,0.12905,0.419706,0.009997,-0.205634
1561,0.072765,0.98726,0.141424,0.6060369999999999,0.2847429999999999,-0.1872309999999999
1562,0.0631549999999999,0.985657,0.156427,0.4388899999999999,0.524582,-0.171853
1563,0.063699,0.982613,0.1743289999999999,0.205694,0.663612,-0.0602399999999999
1564,0.078871,0.979857,0.183402,0.251008,0.592058,0.238
1565,0.103972,0.978991,0.175336,-0.117308,0.485853,0.228671
1566,0.1371,0.980081,0.1436049999999999,-0.368027,0.6052,0.154246
1567,0.1651619999999999,0.981727,0.094408,-0.6133430000000001,0.803201,0.336943
1568,0.179542,0.982489,0.0495899999999999,-0.512671,0.50036,0.31421
1569,0.1844849999999999,0.98263,0.01956,-0.3634239999999999,0.3874869999999999,0.247087
1570,0.185703,0.982591,-0.003028,0.058453,0.334807,-0.082238
1571,0.1880359999999999,0.981769,-0.027435,0.195494,0.0932279999999999,-0.0872039999999999
1572,0.191072,0.98009,-0.0538019999999999,0.104567,-0.0603519999999999,-0.027787
1573,0.195941,0.97738,-0.079475,-0.1236599999999999,-0.409265,0.067314
1574,0.200232,0.974434,-0.101814,-0.270361,-0.399209,0.103691
1575,0.204322,0.971332,-0.121444,-0.27494,-0.606021,0.097823
1576,0.204578,0.96913,-0.13754,-0.160984,-0.810758,0.135923
1577,0.197653,0.968589,-0.150835,-0.0551049999999999,-0.772925,0.101686
1578,0.1869,0.969517,-0.158392,0.006261,-0.798618,0.042944
1579,0.176137,0.971153,-0.160682,-0.0094349999999999,-0.775856,0.035667
1580,0.1673069999999999,0.973035,-0.158726,0.015936,-0.632962,-0.008282
1581,0.1594,0.974762,-0.156244,0.045144,-0.53775,-0.075918
1582,0.1517119999999999,0.975818,-0.157299,0.0238099999999999,-0.013507,-0.138629
1583,0.149226,0.974538,-0.167301,-0.088999,0.580608,-0.25259
1584,0.153766,0.96983,-0.189122,0.0287589999999999,0.919589,-0.29803
1585,0.1603369999999999,0.96472,-0.20878,-0.276578,0.640642,-0.397147
1586,0.163304,0.962769,-0.215383,-0.494313,0.349579,-0.186213
1587,0.163265,0.956822,-0.240457,-0.205623,1.141216,0.062235
1588,0.171341,0.946177,-0.274544,-0.212021,1.091177,0.454827
1589,0.189466,0.941428,-0.278926,-0.376585,-0.4303189999999999,0.342036
1590,0.205913,0.944594,-0.255586,-0.4657239999999999,-0.650436,0.371949
1591,0.204594,0.947935,-0.244013,-0.327382,-0.192168,0.2101989999999999
1592,0.191641,0.951841,-0.239281,0.323282,0.200396,0.432717
1593,0.176565,0.957974,-0.2260349999999999,0.437692,0.308002,0.4217439999999999
1594,0.167729,0.965156,-0.200802,0.028773,0.168144,0.311734
1595,0.164607,0.972697,-0.163541,-0.239726,-0.091609,0.159055
1596,0.163437,0.9786,-0.1249359999999999,-0.237305,-0.104668,0.051709
1597,0.164992,0.981879,-0.093107,-0.104918,-0.185676,0.042707
1598,0.17034,0.982787,-0.071358,-0.143255,-0.330077,0.034019
1599,0.179105,0.982027,-0.05934,-0.133801,-0.488863,0.11244
1600,0.187818,0.980982,-0.048733,-0.090985,-0.4497319999999999,0.219082
1601,0.190203,0.981274,-0.030012,-0.087969,-0.320767,0.102751
1602,0.185834,0.982545,-0.006837,-0.1204349999999999,-0.314851,-0.038589
1603,0.174452,0.984562,0.0134259999999999,-0.058683,-0.266361,0.006166
1604,0.156454,0.987153,0.032038,-0.020224,-0.187638,-0.0152539999999999
1605,0.13598,0.989519,0.048329,-0.047159,-0.108095,-0.1106
1606,0.115231,0.991248,0.064209,-0.035641,-0.030906,-0.193909
1607,0.094701,0.992262,0.0801299999999999,0.0174509999999999,0.014696,-0.181601
1608,0.073388,0.992927,0.093182,0.31597,0.12336,-0.229397
1609,0.057307,0.992463,0.108192,0.6124930000000001,0.183593,-0.111381
1610,0.04887,0.99091,0.125228,0.537525,0.370632,-0.096618
1611,0.046373,0.98862,0.14301,0.395705,0.5636260000000001,-0.04955
1612,0.05967,0.985655,0.157781,0.3871989999999999,0.5063949999999999,0.249446
1613,0.082933,0.983379,0.161427,0.115248,0.445347,0.2080489999999999
1614,0.115127,0.983001,0.142918,-0.154281,0.5059359999999999,0.213573
1615,0.14777,0.983766,0.101695,-0.605,0.868239,0.188191
1616,0.168265,0.984278,0.053459,-0.601584,0.657415,0.391366
1617,0.177179,0.984004,0.017834,-0.50271,0.4961899999999999,0.358646
1618,0.180589,0.983528,-0.005988,-0.058885,0.326287,0.030692
1619,0.182019,0.982844,-0.0293589999999999,0.095172,0.232061,-0.047347
1620,0.18323,0.98153,-0.054795,0.031919,0.064613,-0.01628
1621,0.1873109999999999,0.979032,-0.079925,-0.062098,-0.264951,0.073166
1622,0.19219,0.97591,-0.103149,-0.18305,-0.5122869999999999,0.129012
1623,0.196072,0.972847,-0.122894,-0.2835809999999999,-0.529991,0.096344
1624,0.197896,0.970285,-0.139152,-0.217534,-0.82084,0.133262
1625,0.193466,0.969151,-0.152632,-0.116592,-0.860447,0.110305
1626,0.184469,0.96913,-0.163516,-0.020895,-0.791716,0.0931429999999999
1627,0.1756869999999999,0.96972,-0.16958,-0.025571,-0.711861,0.0577179999999999
1628,0.168957,0.971079,-0.168639,-0.022702,-0.6701600000000001,0.0299819999999999
1629,0.163785,0.972789,-0.163816,-0.001096,-0.465831,-0.145526
1630,0.158266,0.973856,-0.162895,0.0327589999999999,-0.107127,-0.215309
1631,0.154842,0.973358,-0.169048,-0.063397,0.328369,-0.1297039999999999
1632,0.15786,0.969846,-0.185628,-0.063607,0.933962,-0.176326
1633,0.166958,0.963983,-0.206983,-0.093029,1.090033,-0.4290029999999999
1634,0.171924,0.962198,-0.211182,-0.420505,0.271903,-0.417251
1635,0.16937,0.96036,-0.221365,-0.3185699999999999,0.473692,-0.191995
1636,0.166614,0.953468,-0.251237,-0.132099,1.343713,0.31627
1637,0.178949,0.943854,-0.277667,-0.280466,1.527506,0.4967069999999999
1638,0.195614,0.943277,-0.268225,-0.37077,-0.04133,0.294332
1639,0.202282,0.947954,-0.245859,-0.416714,-0.493577,0.143197
1640,0.191949,0.952666,-0.235719,-0.012642,-0.338988,0.357819
1641,0.1769359999999999,0.957188,-0.22905,0.268452,-0.206029,0.383713
1642,0.163386,0.962871,-0.21486,0.535467,0.195714,0.393281
1643,0.156516,0.969711,-0.187463,-0.160102,0.102387,0.228265
1644,0.154836,0.976825,-0.147703,-0.218175,0.037762,0.09036
1645,0.155446,0.981948,-0.107666,-0.2164199999999999,-0.228332,0.047866
1646,0.1575369999999999,0.984371,-0.078567,-0.225576,-0.354824,0.05577
1647,0.162096,0.984886,-0.060836,-0.227053,-0.453346,0.120955
1648,0.1696069999999999,0.98421,-0.050393,-0.179647,-0.554706,0.334771
1649,0.1769609999999999,0.983646,-0.033156,-0.151006,-0.408848,0.294554
1650,0.177086,0.984158,-0.006934,-0.109276,-0.199245,0.046241
1651,0.1716349999999999,0.984989,0.017648,-0.058033,-0.306827,-0.043436
1652,0.157897,0.986754,0.036851,-0.030837,-0.253584,-0.032853
1653,0.139591,0.988804,0.0524669999999999,0.032742,-0.114323,-0.039085
1654,0.120318,0.990556,0.065526,0.041074,-0.036943,-0.144261
1655,0.100742,0.991783,0.078664,0.061489,-0.002846,-0.210439
1656,0.080852,0.992582,0.090632,0.075413,0.105959,-0.190134
1657,0.063026,0.992889,0.100836,0.326821,0.127991,-0.206915
1658,0.05142,0.992205,0.113374,0.563525,0.111966,-0.233521
1659,0.043216,0.99082,0.127974,0.5154850000000001,0.372706,-0.1388839999999999
1660,0.04144,0.988617,0.144523,0.376086,0.380889,0.111107
1661,0.055226,0.986142,0.156339,0.248913,0.388278,0.168033
1662,0.079588,0.984896,0.153666,0.10695,0.360776,0.146535
1663,0.110999,0.985576,0.127621,-0.409964,0.641407,0.1160009999999999
1664,0.13948,0.986807,0.082014,-0.418701,0.8784569999999999,0.383013
1665,0.156373,0.987018,0.036249,-0.431276,0.808453,0.451452
1666,0.166349,0.986042,0.004538,-0.165953,0.39497,0.24209
1667,0.173496,0.984658,-0.01792,0.085461,0.346748,-0.036295
1668,0.180731,0.98267,-0.040853,0.095346,0.19862,-0.034052
1669,0.187243,0.980217,-0.063947,-0.005053,-0.128868,0.046766
1670,0.193413,0.977395,-0.085236,-0.11245,-0.379449,0.0414589999999999
1671,0.1961369999999999,0.975145,-0.102947,-0.209916,-0.269426,0.072597
1672,0.198475,0.97297,-0.117951,-0.2352179999999999,-0.4535149999999999,0.0835429999999999
1673,0.199081,0.971093,-0.131608,-0.173339,-0.7508020000000001,0.0516519999999999
1674,0.19612,0.969625,-0.146081,-0.144942,-0.774053,0.080407
1675,0.188602,0.968816,-0.160632,-0.0977659999999999,-0.736851,0.1210349999999999
1676,0.179036,0.969395,-0.167918,-0.03832,-0.711689,0.089335
1677,0.167206,0.971758,-0.166448,0.00235,-0.7328819999999999,0.086935
1678,0.153819,0.974978,-0.160418,0.020161,-0.576739,0.010851
1679,0.141325,0.977539,-0.156271,-0.005751,-0.287445,-0.056422
1680,0.132381,0.978411,-0.158631,-0.093105,0.091215,-0.051635
1681,0.12924,0.975905,-0.175739,-0.048796,0.884767,-0.277386
1682,0.131491,0.971049,-0.199376,-0.063909,1.255513,-0.4416449999999999
1683,0.134818,0.969233,-0.205888,-0.333991,0.5363829999999999,-0.3190139999999999
1684,0.138001,0.964983,-0.223027,-0.379105,0.568113,-0.107417
1685,0.14193,0.955116,-0.259978,-0.181084,1.482033,0.351302
1686,0.156515,0.945915,-0.284127,-0.2069599999999999,1.286904,0.453301
1687,0.181728,0.946854,-0.265372,-0.426922,-0.709305,0.26818
1688,0.193425,0.950584,-0.242808,-0.327031,-0.369041,0.126017
1689,0.183941,0.953012,-0.240651,-0.1252869999999999,-0.260842,0.2546739999999999
1690,0.167857,0.95655,-0.238358,0.411718,0.384652,0.4349979999999999
1691,0.1542329999999999,0.962807,-0.221794,0.271411,0.441627,0.343483
1692,0.143531,0.971318,-0.189518,0.011178,0.326335,0.195729
1693,0.139157,0.97883,-0.15001,-0.224347,-0.0579159999999999,0.007905
1694,0.1414089999999999,0.983049,-0.1165869999999999,-0.179739,-0.134508,0.051798
1695,0.147139,0.984769,-0.0924909999999999,-0.145903,-0.347043,0.088432
1696,0.154044,0.985231,-0.074589,-0.135748,-0.389971,0.097919
1697,0.16059,0.98503,-0.062456,-0.126074,-0.409316,0.144807
1698,0.1651109999999999,0.984992,-0.050019,-0.045985,-0.301338,0.158372
1699,0.166256,0.985543,-0.032202,-0.081341,-0.299767,0.013846
1700,0.163016,0.986542,-0.011528,-0.109824,-0.416718,-0.035057
1701,0.152108,0.98832,0.007668,-0.079049,-0.323678,0.034858
1702,0.133792,0.990619,0.027308,-0.013796,-0.18761,-0.0119569999999999
1703,0.112561,0.992552,0.04629,-0.019208,-0.1202369999999999,-0.116038
1704,0.091785,0.993696,0.064138,0.0002399999999999,-0.091948,-0.113439
1705,0.071576,0.994134,0.0808919999999999,0.113223,-0.014688,-0.099172
1706,0.051486,0.994212,0.094133,0.133314,-0.014766,-0.112413
1707,0.03667,0.993536,0.107291,0.524655,0.122156,-0.193243
1708,0.026882,0.992169,0.1218539999999999,0.508335,0.236225,-0.084439
1709,0.022736,0.989785,0.1406349999999999,0.390594,0.396323,-0.015497
1710,0.035265,0.986949,0.157025,0.387053,0.58318,0.328007
1711,0.060439,0.985205,0.160269,0.188188,0.465448,0.290506
1712,0.097344,0.985112,0.14159,-0.406625,0.779628,0.152629
1713,0.133645,0.985931,0.100242,-0.538155,0.913818,0.2852099999999999
1714,0.15684,0.986285,0.051137,-0.6218670000000001,0.761426,0.424845
1715,0.168851,0.98549,0.016478,-0.402097,0.301299,0.1088109999999999
1716,0.176242,0.984316,-0.005774,-0.209689,0.3089119999999999,-0.012232
1717,0.181083,0.983008,-0.029626,0.13514,0.302011,-0.067985
1718,0.183731,0.981384,-0.0557059999999999,0.1723029999999999,0.027497,0.005367
1719,0.18723,0.979027,-0.08016,0.032832,-0.273323,0.021277
1720,0.191244,0.976337,-0.1008299999999999,-0.08373,-0.382923,0.0609279999999999
1721,0.195301,0.973636,-0.117751,-0.214268,-0.413257,0.062957
1722,0.195722,0.9716,-0.132903,-0.251584,-0.742214,0.0287769999999999
1723,0.190281,0.970697,-0.1466849999999999,-0.190373,-0.7631319999999999,0.047869
1724,0.181357,0.970533,-0.158592,-0.04296,-0.665129,0.056877
1725,0.172235,0.971353,-0.163663,-0.064554,-0.667139,0.0388769999999999
1726,0.162537,0.973398,-0.161417,-0.031327,-0.713068,0.039942
1727,0.154428,0.975539,-0.15637,0.002036,-0.590713,-0.008318
1728,0.147054,0.977023,-0.154199,0.033076,-0.363437,-0.050986
1729,0.142097,0.977268,-0.157267,-0.039497,-0.0297269999999999,-0.089559
1730,0.1429619999999999,0.974386,-0.173527,0.029005,0.659953,-0.1729089999999999
1731,0.149288,0.968362,-0.199916,0.058689,1.168921,-0.3659719999999999
1732,0.1516009999999999,0.96538,-0.212219,-0.120397,0.3841989999999999,-0.423218
1733,0.151264,0.965151,-0.2134989999999999,-0.309482,0.177107,-0.202593
1734,0.147492,0.959792,-0.2387969999999999,-0.063309,0.835206,-0.0128199999999999
1735,0.156477,0.948016,-0.277057,-0.377623,1.654782,0.569064
1736,0.176122,0.941679,-0.2867099999999999,-0.455159,-0.093321,0.363187
1737,0.19301,0.946212,-0.259632,-0.617037,-0.604171,0.284489
1738,0.188453,0.950943,-0.245301,-0.2227699999999999,-0.319061,0.172654
1739,0.169406,0.954107,-0.2469,0.404675,-0.06275,0.497434
1740,0.150622,0.958807,-0.2407929999999999,0.628278,0.112146,0.489831
1741,0.13924,0.966015,-0.217727,-0.240085,0.104404,0.1903369999999999
1742,0.135293,0.974176,-0.180706,-0.27253,0.032157,0.049984
1743,0.135285,0.980561,-0.142036,-0.227372,-0.013703,0.006492
1744,0.139031,0.98402,-0.111127,-0.142525,-0.292431,0.077375
1745,0.145216,0.985414,-0.088581,-0.170713,-0.4106149999999999,0.074909
1746,0.152814,0.985513,-0.073389,-0.185147,-0.46502,0.199778
1747,0.15994,0.985327,-0.05935,-0.156125,-0.3635469999999999,0.2224199999999999
1748,0.1628119999999999,0.98589,-0.038554,-0.1224069999999999,-0.1970869999999999,0.053492
1749,0.159591,0.987068,-0.0141139999999999,-0.093276,-0.252419,-0.089814
1750,0.150411,0.988592,0.005738,0.000941,-0.286032,-0.0043799999999999
1751,0.134592,0.990634,0.022374,0.056387,-0.1574279999999999,0.0284379999999999
1752,0.116014,0.992472,0.038857,0.0587139999999999,-0.115748,-0.04258
1753,0.097176,0.993753,0.0546059999999999,0.009621,-0.09617,-0.14825
1754,0.0785,0.994488,0.069282,0.048408,-0.0405089999999999,-0.1290349999999999
1755,0.059394,0.994947,0.080756,0.182595,6.3e-05,-0.1300869999999999
1756,0.042968,0.994886,0.091232,0.439179,0.056124,-0.182662
1757,0.032697,0.99409,0.1033579999999999,0.585879,0.0606279999999999,-0.2152659999999999
1758,0.024993,0.992655,0.118229,0.3814099999999999,0.278265,-0.121494
1759,0.0261379999999999,0.99035,0.135978,0.073746,0.591162,0.0924
1760,0.0406459999999999,0.988666,0.1444109999999999,0.203373,0.479184,0.255934
1761,0.062748,0.988267,0.13913,0.028256,0.364898,0.288528
1762,0.093771,0.989115,0.113251,-0.369711,0.5095729999999999,0.145614
1763,0.124974,0.98968,0.069882,-0.441029,0.7686970000000001,0.17937
1764,0.14462,0.989167,0.024581,-0.570127,0.679992,0.332703
1765,0.155172,0.987845,-0.007336,-0.2570699999999999,0.3592,0.220501
1766,0.161647,0.986391,-0.029586,-0.027919,0.318236,-0.079194
1767,0.168927,0.984068,-0.055189,0.1520109999999999,0.23842,-0.032045
1768,0.178261,0.980605,-0.081296,-0.002342,0.00203,0.018216
1769,0.187688,0.976631,-0.10459,-0.065694,-0.194679,0.088782
1770,0.192742,0.973033,-0.126615,-0.242867,-0.4015,0.154096
1771,0.191915,0.970596,-0.1452119999999999,-0.2258349999999999,-0.375473,0.165232
1772,0.188898,0.969135,-0.158339,-0.1960849999999999,-0.496631,0.174406
1773,0.183054,0.968768,-0.167197,-0.12182,-0.749484,0.129828
1774,0.175097,0.968932,-0.1746079999999999,-0.134784,-0.768828,0.083772
1775,0.1666619999999999,0.969625,-0.178963,-0.107153,-0.6337020000000001,0.074242
1776,0.158795,0.971233,-0.177386,-0.046048,-0.65144,0.051562
1777,0.151891,0.973401,-0.171449,-6.6e-05,-0.574048,-0.000868
1778,0.144781,0.97524,-0.167097,0.070124,-0.168431,-0.051439
1779,0.13885,0.976077,-0.16724,0.000585,0.084302,-0.088619
1780,0.136927,0.974056,-0.180114,0.088888,1.005054,-0.441071
1781,0.143293,0.968875,-0.201803,-0.00923,0.913404,-0.4921819999999999
1782,0.154107,0.965315,-0.210698,-0.141091,0.474931,-0.508831
1783,0.162718,0.96275,-0.2158989999999999,-0.12657,0.345981,-0.268309
1784,0.16287,0.956448,-0.242195,-0.071393,0.806339,-0.024971
1785,0.170074,0.945594,-0.277318,-0.23555,1.651941,0.480153
1786,0.184125,0.940449,-0.2857119999999999,-0.406537,-0.1132089999999999,0.34661
1787,0.196492,0.944628,-0.262766,-0.485997,-0.8135100000000001,0.253336
1788,0.192515,0.948834,-0.250258,-0.422724,-0.4802369999999999,0.150358
1789,0.180609,0.951815,-0.247801,0.2485139999999999,-0.077944,0.438079
