,gravity.x,gravity.y,gravity.z,userAcceleration.x,userAcceleration.y,userAcceleration.z
0,-0.002229,0.99622,0.086742,0.443376,-0.021565,-0.260707
1,-0.004605,0.995724,0.092169,0.363431,0.1066319999999999,-0.268484
2,-0.0068439999999999,0.995235,0.097174,0.418877,0.238911,-0.225333
3,-0.010423,0.994869,0.100544,0.36905,0.429753,-0.150348
4,-0.014336,0.994576,0.102931,0.306114,0.415504,-0.116024
5,-0.015065,0.99451,0.103459,0.17101,0.357571,-0.046971
6,-0.0087879999999999,0.994762,0.101746,-0.110718,0.277501,3e-05
7,0.005927,0.995253,0.097045,-0.117819,0.107363,0.06601
8,0.029847,0.995809,0.086341,-0.147142,-0.110799,0.08355
9,0.058475,0.99608,0.066229,-0.1323119999999999,-0.118532,0.057871
10,0.088116,0.995383,0.0378149999999999,-0.110913,-0.08129,-0.010136
11,0.1190109999999999,0.992872,0.004913,-0.1172869999999999,0.243486,0.036255
12,0.150885,0.987971,-0.03361,-0.255713,0.336339,-0.001943
13,0.181981,0.980541,-0.07352,-0.250569,0.32999,-0.072461
14,0.2132079999999999,0.971092,-0.107272,-0.192609,0.335411,-0.117032
15,0.2429349999999999,0.960187,-0.13787,-0.177643,0.303119,-0.067421
16,0.265209,0.949315,-0.168669,-0.158016,0.182627,0.068801
17,0.276864,0.939537,-0.201498,-0.020608,-0.038429,0.081335
18,0.283195,0.930092,-0.2339119999999999,-0.076469,-0.0839159999999999,0.102091
19,0.289538,0.921489,-0.258868,-0.13129,-0.219661,0.001391
20,0.297551,0.914227,-0.275025,-0.170979,-0.240536,-0.0173949999999999
21,0.306408,0.907459,-0.287436,-0.095226,-0.266742,-0.048135
22,0.316927,0.900173,-0.298717,0.005293,-0.2781949999999999,-0.0036049999999999
23,0.329775,0.89274,-0.307002,0.047331,-0.262308,0.011195
24,0.343684,0.8854,-0.312945,0.035543,-0.304956,0.023074
25,0.353614,0.878754,-0.320525,-0.0750649999999999,-0.4598689999999999,0.156005
26,0.355504,0.87454,-0.3298239999999999,-0.09174,-0.531416,0.3104139999999999
27,0.34944,0.8749459999999999,-0.335185,-0.076002,-0.512794,0.362452
28,0.336826,0.8808870000000001,-0.332525,-0.062672,-0.3678869999999999,0.2096309999999999
29,0.320651,0.891541,-0.319882,-0.067768,-0.342575,0.091977
30,0.30458,0.905647,-0.294994,-0.065627,-0.0381699999999999,-0.249409
31,0.294021,0.916822,-0.2701389999999999,0.461823,0.957736,-0.474886
32,0.301437,0.916985,-0.261267,0.26619,0.724525,-0.588541
33,0.3199889999999999,0.90663,-0.274981,0.073535,-0.08322,-0.534909
34,0.332215,0.8930309999999999,-0.303507,0.026779,-0.360117,-0.268423
35,0.332816,0.884343,-0.327351,0.001901,-0.348088,-0.14085
36,0.3281239999999999,0.8851530000000001,-0.329887,0.303971,0.4423,0.228034
37,0.331825,0.8922450000000001,-0.306233,0.161232,1.038099,0.408512
38,0.341825,0.902717,-0.261237,-0.358732,0.7103659999999999,0.058508
39,0.345525,0.909166,-0.2324119999999999,-0.518254,0.113265,-0.127268
40,0.3413239999999999,0.912524,-0.225351,-0.263809,0.043622,-0.003164
41,0.331078,0.916126,-0.2260239999999999,-0.163444,-0.1731599999999999,0.024104
42,0.313203,0.920369,-0.234114,-0.346544,-0.290105,0.191679
43,0.287137,0.927152,-0.240682,-0.138791,-0.249265,0.435018
44,0.261908,0.936454,-0.2333309999999999,-0.003302,-0.24308,0.72468
45,0.242444,0.949024,-0.201393,-0.158795,-0.242023,0.491585
46,0.2294929999999999,0.959791,-0.1616109999999999,-0.232087,0.1038839999999999,0.147847
47,0.222913,0.966287,-0.128776,-0.2954989999999999,0.295951,0.14022
48,0.215544,0.971682,-0.0967399999999999,-0.181395,0.180525,0.047302
49,0.2058,0.975982,-0.071338,-0.049382,-0.06935,0.090869
50,0.197327,0.978884,-0.053199,0.032302,-0.143054,0.103293
51,0.189055,0.981207,-0.03838,0.072679,-0.11199,0.077748
52,0.181294,0.98313,-0.023859,-0.016057,-0.114142,0.139917
53,0.172771,0.984923,-0.00759,-0.156459,0.02498,0.210746
54,0.164007,0.986404,0.00951,-0.148672,0.039368,0.2447619999999999
55,0.153915,0.987712,0.026744,-0.168991,-0.016383,0.048833
56,0.139821,0.989351,0.040182,0.020427,0.009306,-0.161444
57,0.121813,0.991247,0.050713,0.019865,-0.0107319999999999,-0.187356
58,0.100984,0.993126,0.05902,0.047911,-0.067238,-0.168914
59,0.078068,0.994785,0.065493,0.226177,-0.037174,-0.024646
60,0.054794,0.996,0.0704419999999999,0.3608099999999999,-0.0271279999999999,0.013268
61,0.035379,0.996588,0.074432,0.51435,-0.0761169999999999,0.017578
62,0.024781,0.996675,0.0774919999999999,0.399475,0.0267779999999999,-0.18023
63,0.022872,0.996569,0.079413,0.292527,0.204404,-0.27178
64,0.024887,0.996415,0.080736,0.318909,0.257293,-0.213167
65,0.0269389999999999,0.996442,0.079734,0.356896,0.2565179999999999,-0.20098
66,0.0294509999999999,0.99664,0.076288,0.31256,0.2496969999999999,-0.169443
67,0.0378019999999999,0.996947,0.068178,0.210596,0.125902,0.077559
68,0.054888,0.997125,0.052042,0.037,-0.0151919999999999,0.118613
69,0.080833,0.996358,0.026768,-0.042182,-0.097921,0.102337
70,0.1131119999999999,0.99355,-0.0067269999999999,-0.05107,-0.036,-0.139498
71,0.149999,0.987581,-0.046531,-0.098501,0.4858229999999999,-0.045541
72,0.188578,0.978174,-0.087158,-0.225413,0.613241,0.027344
73,0.222877,0.967079,-0.122749,-0.268394,0.572823,-0.093483
74,0.253676,0.955556,-0.15015,-0.175306,0.5708260000000001,-0.112072
75,0.282835,0.943965,-0.170058,-0.225233,0.5234880000000001,-0.067796
76,0.303642,0.933994,-0.1882589999999999,-0.072578,0.232357,0.04977
77,0.314197,0.926012,-0.209204,0.060742,-0.054857,-0.040048
78,0.3205929999999999,0.918337,-0.2320829999999999,0.004236,-0.1167619999999999,-0.044834
79,0.324822,0.9111,-0.253719,-0.018913,-0.400236,-0.0617559999999999
80,0.32631,0.905211,-0.272213,-0.037797,-0.442229,0.011044
81,0.3260389999999999,0.900014,-0.2892409999999999,-0.018635,-0.454976,0.056102
82,0.326445,0.8945700000000001,-0.30523,0.0011,-0.467735,0.1195609999999999
83,0.329494,0.888649,-0.318941,-0.032162,-0.421989,0.155932
84,0.335836,0.881601,-0.331634,-0.137777,-0.419763,0.18727
85,0.341378,0.8741459999999999,-0.3454239999999999,-0.210748,-0.445206,0.259349
86,0.342313,0.8693559999999999,-0.356413,-0.242902,-0.496126,0.35214
87,0.338539,0.870476,-0.357282,-0.194221,-0.4278949999999999,0.337384
88,0.33059,0.8779680000000001,-0.346221,-0.139733,-0.204125,0.220138
89,0.319999,0.8909459999999999,-0.322185,-0.0326,0.004349,-0.011143
90,0.309217,0.907584,-0.284011,0.352694,0.6731189999999999,-0.390245
91,0.305675,0.918022,-0.252554,0.578068,1.302376,-0.732431
92,0.319388,0.913249,-0.252889,-0.035315,-0.201518,-0.6604869999999999
93,0.334263,0.901732,-0.274103,-0.160847,-0.456893,-0.603506
94,0.337174,0.892867,-0.298476,-0.086258,-0.151839,-0.2314
95,0.333329,0.8901049999999999,-0.310791,0.286041,1.148484,0.07138
96,0.338564,0.8915879999999999,-0.300718,0.03523,1.333205,0.4969
97,0.349025,0.8964059999999999,-0.273173,-0.579098,0.228762,0.220148
98,0.354722,0.897017,-0.263663,-0.5458689999999999,-0.182966,0.269355
99,0.351935,0.898537,-0.262219,-0.415365,-0.154625,0.257824
100,0.3386429999999999,0.903926,-0.2611969999999999,-0.432882,-0.173259,0.202374
101,0.311834,0.915153,-0.255419,-0.096945,-0.184578,0.403537
102,0.277764,0.929919,-0.241004,0.003486,-0.100512,0.565665
103,0.247515,0.945531,-0.211403,-0.1103079999999999,-0.116308,0.529045
104,0.226225,0.958521,-0.1733299999999999,-0.144957,0.209448,0.131963
105,0.2145139999999999,0.966345,-0.141934,-0.164389,0.2576699999999999,0.10722
106,0.21022,0.970985,-0.113925,-0.304886,0.092293,0.051532
107,0.202966,0.974782,-0.092665,-0.023309,-0.292104,0.040922
108,0.194238,0.977939,-0.076738,0.075049,-0.29964,0.045839
109,0.1861799999999999,0.980613,-0.060965,0.162056,-0.241813,0.137198
110,0.178989,0.982891,-0.043247,0.166378,-0.207943,0.16576
111,0.172131,0.984827,-0.021641,0.095233,-0.006113,0.18636
112,0.167425,0.985874,0.0018789999999999,0.0077,0.066769,0.18382
113,0.162233,0.98643,0.024853,-0.0271779999999999,0.067479,0.008045
114,0.151048,0.987689,0.04044,0.091338,0.026059,-0.299428
115,0.1358059999999999,0.989587,0.047484,0.081921,-0.113962,-0.244246
116,0.116371,0.991944,0.049863,0.169777,-0.17302,-0.14819
117,0.093988,0.994175,0.052557,0.2496699999999999,-0.044209,-0.0384889999999999
118,0.07125,0.995651,0.0598559999999999,0.4254239999999999,-0.0298459999999999,-0.005122
119,0.054599,0.996173,0.068103,0.4406859999999999,-0.0064269999999999,-0.10332
120,0.048431,0.996125,0.073279,0.384156,0.084228,-0.2130639999999999
121,0.0491029999999999,0.996046,0.073903,0.310867,0.425951,-0.2304429999999999
122,0.050282,0.996175,0.071323,0.42654,0.438609,-0.166141
123,0.053903,0.99627,0.067244,0.4256189999999999,0.407783,-0.152449
124,0.0650179999999999,0.996216,0.057496,0.261917,0.198043,0.102843
125,0.086795,0.995481,0.03828,-0.018436,-0.076795,0.177129
126,0.116131,0.993176,0.0098269999999999,-0.0855679999999999,-0.162289,0.15509
127,0.146506,0.988786,-0.028647,-0.0828309999999999,-0.009462,-0.163156
128,0.177651,0.98139,-0.072782,-0.137459,0.508662,-0.034457
129,0.2074679999999999,0.97147,-0.1148319999999999,-0.275965,0.566952,0.0546049999999999
130,0.233902,0.960882,-0.148257,-0.378616,0.422526,-0.019849
131,0.262103,0.949548,-0.172179,-0.209003,0.401573,-0.055039
132,0.292437,0.936948,-0.191293,-0.2064079999999999,0.327639,0.008477
133,0.316651,0.924448,-0.2123989999999999,-0.1055,0.248663,0.083203
134,0.330541,0.913593,-0.236803,0.014735,-0.094486,0.012697
135,0.336157,0.904697,-0.261742,-0.0846,-0.212848,0.021996
136,0.335546,0.8983770000000001,-0.2833969999999999,-0.101552,-0.3577889999999999,0.0156819999999999
137,0.3311989999999999,0.8941969999999999,-0.301173,-0.102866,-0.391161,0.047496
138,0.326445,0.8911379999999999,-0.315109,-0.114531,-0.417658,0.0518179999999999
139,0.322781,0.888602,-0.325863,-0.096447,-0.426703,0.103115
140,0.3209909999999999,0.886496,-0.333284,-0.0322029999999999,-0.370031,0.154253
141,0.32198,0.883669,-0.339773,-0.078236,-0.351626,0.144903
142,0.3229619999999999,0.880067,-0.348088,-0.153025,-0.418443,0.19695
143,0.318289,0.8789309999999999,-0.355191,-0.217398,-0.478464,0.323071
144,0.308958,0.8829889999999999,-0.35336,-0.212644,-0.340737,0.325971
145,0.297415,0.892453,-0.339205,-0.180869,-0.127347,0.254992
146,0.287546,0.906324,-0.309647,-0.074107,0.362734,-0.278976
147,0.281651,0.919944,-0.272696,0.1492109999999999,0.8359770000000001,-0.444421
148,0.286951,0.923215,-0.255576,0.431097,0.969378,-0.562005
149,0.306296,0.913999,-0.266036,0.014184,-0.30969,-0.53827
150,0.326651,0.903134,-0.27863,-0.038748,-0.149594,-0.5921890000000001
151,0.337813,0.894282,-0.293478,0.349123,1.05898,0.04183
152,0.34319,0.8870680000000001,-0.308737,0.210567,1.145677,0.2604889999999999
153,0.348864,0.8857709999999999,-0.306089,-0.4798149999999999,0.428697,0.2545139999999999
154,0.3494739999999999,0.889174,-0.295338,-0.528917,-0.236525,0.255344
155,0.348148,0.8929879999999999,-0.285222,-0.473056,-0.27725,0.218648
156,0.339765,0.8992379999999999,-0.27553,-0.34802,-0.131355,0.190813
157,0.3190659999999999,0.9102,-0.264044,-0.068227,0.023592,0.27648
158,0.289942,0.924204,-0.248529,0.121694,0.061728,0.49801
159,0.262265,0.938498,-0.224553,0.046985,0.048792,0.531239
160,0.239286,0.951139,-0.195092,-0.238263,0.0893429999999999,0.284875
161,0.222425,0.960354,-0.168019,-0.2417429999999999,0.0999029999999999,0.2145429999999999
162,0.213439,0.966416,-0.143063,-0.247069,0.095443,0.128628
163,0.208911,0.970648,-0.1190799999999999,-0.225879,-0.197409,0.051041
164,0.202275,0.974146,-0.10053,-0.0192759999999999,-0.241556,0.0572559999999999
165,0.195513,0.977085,-0.0840289999999999,0.050794,-0.267384,0.063552
166,0.1898359999999999,0.979596,-0.065834,0.0782,-0.218107,0.130287
167,0.1844559999999999,0.981761,-0.0458579999999999,0.063469,-0.0569559999999999,0.146551
168,0.178349,0.983615,-0.025954,0.043545,0.041272,0.140211
169,0.172468,0.984984,-0.006516,0.021624,0.082658,0.060028
170,0.1646359999999999,0.986288,0.010559,0.01055,0.085062,-0.1199799999999999
171,0.153008,0.987999,0.020656,0.040611,0.048622,-0.127529
172,0.13681,0.990249,0.025882,0.151764,-0.119399,-0.158252
173,0.116392,0.992708,0.0310529999999999,0.210787,-0.112749,-0.125901
174,0.093648,0.99484,0.038775,0.301005,-0.024869,-0.068941
175,0.072554,0.996219,0.047572,0.3766489999999999,-0.018497,-0.0456639999999999
176,0.0577919999999999,0.996897,0.053265,0.408853,0.038473,-0.097623
177,0.051102,0.997192,0.054558,0.280929,0.179215,-0.201179
178,0.048608,0.997387,0.053247,0.215964,0.264835,-0.183832
179,0.045533,0.997579,0.05237,0.339965,0.216639,-0.141542
180,0.042735,0.997824,0.050005,0.391515,0.271768,-0.1456319999999999
181,0.045342,0.998028,0.043176,0.338996,0.242206,0.001303
182,0.056648,0.998021,0.026941,0.165581,0.013362,0.172263
183,0.0774059999999999,0.99699,0.000922,0.000109,-0.205517,0.119546
184,0.106207,0.99381,-0.0323149999999999,-0.051626,-0.171697,0.017041
185,0.139677,0.987534,-0.072461,-0.068022,0.229568,-0.053745
186,0.17593,0.977513,-0.1161869999999999,-0.249279,0.5989329999999999,0.10105
187,0.209013,0.965569,-0.154833,-0.340986,0.5167149999999999,0.026309
188,0.240444,0.95275,-0.185576,-0.259777,0.413842,-0.059694
189,0.271811,0.939589,-0.208029,-0.218634,0.393541,-0.055337
190,0.298007,0.926922,-0.2280199999999999,-0.243533,0.3371159999999999,0.059639
191,0.3145989999999999,0.915036,-0.252433,0.086097,0.0307649999999999,0.0172949999999999
192,0.323409,0.90408,-0.279344,0.027635,-0.108151,0.026643
193,0.326845,0.8947209999999999,-0.304356,-0.028657,-0.321845,0.018346
194,0.3261159999999999,0.887545,-0.325422,-0.088109,-0.369539,0.059416
195,0.323495,0.8818590000000001,-0.34302,-0.077203,-0.359108,0.097597
196,0.322484,0.876635,-0.357076,-0.0323079999999999,-0.357027,0.113469
197,0.325369,0.8721190000000001,-0.3654199999999999,-0.001731,-0.323291,0.122088
198,0.332406,0.8674799999999999,-0.3700969999999999,-0.003045,-0.256778,0.101802
199,0.340828,0.861409,-0.376562,-0.03315,-0.291066,0.176291
200,0.343,0.856406,-0.385886,-0.031797,-0.332175,0.285209
201,0.3377699999999999,0.855857,-0.3916739999999999,-0.019823,-0.355751,0.4514579999999999
202,0.327165,0.861701,-0.387845,-0.040498,-0.166022,0.38339
203,0.313797,0.8742850000000001,-0.370331,-0.033722,-0.1176779999999999,0.165848
204,0.301747,0.8920790000000001,-0.336353,-0.002369,0.045071,-0.090451
205,0.296213,0.907619,-0.2974449999999999,0.292136,0.96291,-0.585307
206,0.3020469999999999,0.911075,-0.280529,0.271973,0.493328,-0.491932
207,0.314064,0.903154,-0.2926829999999999,0.107949,0.052534,-0.407665
208,0.320526,0.893508,-0.314474,0.055572,0.422334,0.022268
209,0.321588,0.8879440000000001,-0.328822,0.283484,0.822993,0.20431
210,0.324074,0.886035,-0.331522,0.021752,0.876188,0.501154
211,0.333644,0.889259,-0.312871,-0.314128,0.375344,0.314565
212,0.3402139999999999,0.891281,-0.299769,-0.492054,-0.189041,0.106653
213,0.341242,0.89213,-0.296051,-0.3602849999999999,-0.264368,0.09613
214,0.335037,0.896119,-0.291048,-0.25882,-0.24109,0.155138
215,0.317141,0.904477,-0.285184,-0.143496,-0.229154,0.2257809999999999
216,0.28944,0.915471,-0.279509,0.1947829999999999,-0.107152,0.486403
217,0.261034,0.928854,-0.262829,0.176253,0.128031,0.6022609999999999
218,0.2378719999999999,0.942808,-0.2334889999999999,0.0375029999999999,0.179522,0.3927
219,0.224102,0.952884,-0.204393,-0.142513,0.156903,0.237078
220,0.220106,0.95898,-0.178594,-0.279005,0.157612,0.077947
221,0.217916,0.962883,-0.159229,-0.386754,-0.022637,-0.001736
222,0.209968,0.966424,-0.148065,-0.160438,-0.1160829999999999,0.062875
223,0.200025,0.969666,-0.140438,-0.021192,-0.1233529999999999,0.14114
224,0.190879,0.972857,-0.130768,0.033593,-0.0612659999999999,0.229263
225,0.18287,0.976294,-0.115728,-0.018227,-0.034049,0.247534
226,0.175002,0.979582,-0.098883,-0.0894,-0.012251,0.240591
227,0.1677799999999999,0.982345,-0.082662,-0.099589,-0.048675,0.161734
228,0.160671,0.984702,-0.067321,-0.053859,-0.047553,0.044936
229,0.151519,0.986971,-0.053987,0.000138,0.0069409999999999,-0.083189
230,0.138774,0.989423,-0.042043,0.084691,0.033312,-0.071696
231,0.1226049999999999,0.992006,-0.029625,0.134094,0.004287,-0.0644909999999999
232,0.103438,0.994488,-0.01668,0.194276,0.027606,-0.070569
233,0.083664,0.99647,-0.005671,0.222626,0.0127459999999999,-0.015356
234,0.067024,0.997744,-0.000436,0.354378,-0.065859,-0.005973
235,0.0571669999999999,0.998356,-0.001306,0.245461,-0.0429579999999999,0.002268
236,0.05326,0.99856,-0.005194,0.219063,0.070074,0.0271819999999999
237,0.051315,0.998624,-0.010139,0.26944,0.118945,0.00489
238,0.052887,0.998474,-0.015452,0.2660369999999999,0.186432,-0.006933
239,0.06192,0.997821,-0.022455,0.251144,0.246838,0.016397
240,0.079869,0.99626,-0.032739,0.199733,0.1076369999999999,0.074777
241,0.1049119999999999,0.993294,-0.048445,0.008705,0.017693,0.139799
242,0.132118,0.988566,-0.072585,-0.068962,-0.012766,0.129164
243,0.158556,0.981621,-0.106143,-0.111132,-0.014977,0.030536
244,0.186154,0.971761,-0.144965,-0.178021,0.258555,-0.042551
245,0.214588,0.959681,-0.181526,-0.268787,0.32578,-0.064217
246,0.242488,0.947352,-0.2090719999999999,-0.25085,0.369909,-0.0542029999999999
247,0.269629,0.935669,-0.22762,-0.08248,0.232956,0.047749
248,0.294131,0.924185,-0.243634,-0.065325,0.133463,0.086727
249,0.310233,0.913503,-0.263166,0.0507899999999999,0.047969,0.083188
250,0.317305,0.903938,-0.2867099999999999,0.018892,-0.133369,0.0565769999999999
251,0.320038,0.895308,-0.309819,-0.085495,-0.2334889999999999,0.0591789999999999
252,0.319872,0.88869,-0.328484,-0.083971,-0.261859,0.0342639999999999
253,0.319001,0.8836290000000001,-0.342677,-0.081651,-0.228813,0.031886
254,0.319019,0.8796370000000001,-0.352783,-0.059147,-0.156645,0.035934
255,0.320969,0.8767520000000001,-0.358154,-0.021866,-0.135221,0.046585
256,0.324128,0.8747879999999999,-0.360107,-0.030961,-0.167146,0.104782
257,0.32553,0.8735290000000001,-0.3618929999999999,-0.038756,-0.2412659999999999,0.1945349999999999
258,0.321648,0.874184,-0.363779,-0.021904,-0.312798,0.313303
259,0.313276,0.8785569999999999,-0.360536,-0.011289,-0.268098,0.370515
260,0.302819,0.8871479999999999,-0.348223,-0.028329,-0.147524,0.286425
261,0.293174,0.8982370000000001,-0.3274289999999999,-0.055884,-0.061933,0.084204
262,0.286983,0.909799,-0.299827,-0.04858,0.153098,-0.2082139999999999
263,0.285812,0.918498,-0.2732429999999999,0.012604,0.4928329999999999,-0.368343
264,0.290995,0.920147,-0.261992,0.004903,0.552891,-0.341494
265,0.299506,0.915686,-0.267961,0.003594,0.119394,-0.156294
266,0.310176,0.908246,-0.280836,-0.030864,-0.13699,-0.081926
267,0.319841,0.90148,-0.291589,-0.01169,-0.111304,-0.067984
268,0.3260969999999999,0.898008,-0.29535,0.092589,0.207201,0.040055
269,0.328943,0.897544,-0.2936,0.0371769999999999,0.651651,0.099844
270,0.329445,0.900494,-0.283842,-0.00132,0.8397709999999999,0.188612
271,0.327835,0.904668,-0.2721929999999999,-0.156433,0.606563,0.166099
272,0.324079,0.905799,-0.27293,-0.281034,-0.146506,0.02647
273,0.317619,0.906557,-0.277961,-0.192131,-0.2464,0.011359
274,0.308744,0.909172,-0.279414,-0.150449,-0.314384,0.083186
275,0.298546,0.913925,-0.274956,-0.119255,-0.303726,0.314247
276,0.287365,0.921075,-0.262736,-0.076168,-0.23031,0.355936
277,0.277027,0.930067,-0.241288,-0.000873,0.01845,0.3654489999999999
278,0.268026,0.938834,-0.216196,-0.007726,0.247323,0.262628
279,0.259887,0.945367,-0.196792,-0.081099,0.224051,0.283447
280,0.251119,0.950376,-0.183605,-0.229879,0.130221,0.266109
281,0.239802,0.954744,-0.175914,-0.239008,0.009444,0.187815
282,0.228479,0.958128,-0.172556,-0.172724,0.0088519999999999,0.160899
283,0.221712,0.960242,-0.1696089999999999,-0.107545,4e-05,0.202171
284,0.2206489999999999,0.96154,-0.163526,-0.081962,-0.0089489999999999,0.200422
285,0.223971,0.962345,-0.153998,-0.070482,-0.0023539999999999,0.2103949999999999
286,0.2274679999999999,0.96338,-0.14193,-0.038092,0.075423,0.25245
287,0.22933,0.964701,-0.129408,-0.008688,0.077886,0.221235
288,0.228484,0.966231,-0.119075,0.007844,0.076082,0.18394
289,0.225455,0.96812,-0.109093,-0.012259,0.035329,0.0718159999999999
290,0.222069,0.969641,-0.102312,-0.014962,0.020334,0.058122
291,0.218078,0.97121,-0.095809,-0.044952,-0.003025,0.0623769999999999
292,0.214176,0.972653,-0.089784,-0.04198,0.012485,0.080888
293,0.210812,0.973724,-0.086062,-0.033581,0.029313,0.07445
294,0.208215,0.974606,-0.0823179999999999,-0.033044,0.043262,0.063413
295,0.20546,0.975479,-0.078824,-0.034927,0.095749,0.034878
296,0.202792,0.976198,-0.076807,-0.08916,0.069242,0.025934
297,0.199491,0.976917,-0.076311,-0.095335,0.0275839999999999,0.040468
298,0.1943109999999999,0.978028,-0.075444,-0.10198,-0.0893559999999999,0.086339
299,0.187844,0.979516,-0.07246,0.009803,0.00283,0.090725
300,0.182004,0.981055,-0.066282,0.05141,0.071802,0.136686
301,0.177575,0.982329,-0.0590169999999999,0.046577,0.0203409999999999,0.1114609999999999
302,0.17454,0.983253,-0.052309,0.0282959999999999,-0.009452,0.079882
303,0.1721349999999999,0.983918,-0.047548,0.005676,-0.011384,0.084352
304,0.169907,0.984456,-0.04431,-0.010331,0.0279339999999999,0.0961289999999999
305,0.168054,0.984892,-0.041615,-0.03425,-0.011473,0.085835
306,0.166717,0.98519,-0.039907,-0.048004,-0.063559,0.045294
307,0.165588,0.985423,-0.038831,-0.035095,-0.0796159999999999,-0.016284
308,0.1650869999999999,0.985536,-0.038111,-0.003573,-0.039491,-0.037237
309,0.165434,0.985481,-0.038015,0.053697,0.061852,0.017522
310,0.166038,0.985405,-0.0373589999999999,0.102975,0.109734,0.0573179999999999
311,0.165165,0.985611,-0.035752,0.059536,0.068909,0.0670019999999999
312,0.16074,0.986373,-0.034887,0.010311,0.019777,0.068197
313,0.153738,0.987507,-0.0343329999999999,-0.000815,-0.000874,0.084474
314,0.145678,0.988762,-0.033377,-0.050844,-0.017754,0.053076
315,0.136494,0.990125,-0.031756,-0.137821,0.001559,0.035006
316,0.125646,0.991618,-0.029874,-0.154424,-0.034282,0.042462
317,0.113134,0.993162,-0.028556,-0.03301,-0.012282,0.0051329999999999
318,0.099735,0.994595,-0.0286319999999999,0.049099,0.046756,-0.033608
319,0.085907,0.99581,-0.0311259999999999,0.227875,0.202738,-0.041094
320,0.0724549999999999,0.996708,-0.036175,0.238992,-0.009755,-0.075718
321,0.060782,0.997301,-0.041025,0.247797,-0.079729,-0.08515
322,0.051073,0.997748,-0.043322,0.237181,-0.132056,-0.024961
323,0.04206,0.998243,-0.041558,0.133431,-0.157103,0.036996
324,0.03199,0.998839,-0.035822,0.107872,-0.126174,0.046686
325,0.019985,0.999406,-0.027805,0.08707,-0.042573,0.02573
326,0.006843,0.999777,-0.019573,0.1494069999999999,0.029352,-0.0261269999999999
327,-0.004636,0.999892,-0.013412,0.215482,0.043901,-0.055878
328,-0.010475,0.999885,-0.010221,0.361168,-0.037986,-0.0994289999999999
329,-0.014214,0.999846,-0.009463,0.379067,-0.0883019999999999,-0.102597
330,-0.014939,0.999819,-0.0110599999999999,0.40625,-0.108874,-0.0771049999999999
331,-0.0151449999999999,0.9998,-0.01239,0.384652,-0.0956409999999999,-0.049759
332,-0.015288,0.999804,-0.011934,0.365386,-0.068758,-0.046171
333,-0.014279,0.999826,-0.0112909999999999,0.369717,-0.027749,-0.00238
334,-0.012692,0.999848,-0.0111659999999999,0.429807,-0.085328,0.05653
335,-0.013875,0.99985,-0.0094939999999999,0.44547,-0.126071,0.048923
336,-0.016413,0.999845,-0.004924,0.412897,-0.132947,0.046062
337,-0.012878,0.999907,0.001726,0.324264,-0.0292949999999999,-0.116823
338,-0.010953,0.999877,0.010472,0.344388,0.072862,-0.163731
339,-0.0087739999999999,0.999786,0.018268,0.384094,0.215256,-0.168521
340,-0.0068319999999999,0.999702,0.023071,0.328136,0.470116,-0.031555
341,-0.001344,0.999763,0.021312,0.231584,0.449364,-0.048274
342,0.011337,0.999845,0.01284,0.141602,0.434756,-0.0718
343,0.031225,0.999504,-0.000743,-0.005361,0.301095,0.038723
344,0.0575139999999999,0.998105,-0.021498,-0.125659,0.118945,0.09535
345,0.08851,0.994936,-0.04746,-0.149087,0.000197,0.047109
346,0.122338,0.989534,-0.076419,-0.079415,0.312407,-0.2086309999999999
347,0.159105,0.981694,-0.104629,-0.1066759999999999,0.6264,-0.254258
348,0.198665,0.970515,-0.136446,-0.120983,0.680868,-0.289549
349,0.237153,0.956299,-0.170983,-0.245164,0.359191,-0.0641549999999999
350,0.2650969999999999,0.942166,-0.2050159999999999,-0.138602,0.017459,0.079451
351,0.281806,0.928669,-0.241136,-0.105399,-0.0520049999999999,0.173692
352,0.290869,0.916931,-0.273167,-0.157995,-0.4760279999999999,0.206807
353,0.300618,0.906521,-0.2963699999999999,-0.1199079999999999,-0.434964,0.148939
354,0.312112,0.897117,-0.312656,-0.049691,-0.428459,0.100788
355,0.326755,0.888033,-0.323443,0.0187349999999999,-0.398547,0.040194
356,0.34397,0.8778370000000001,-0.333279,0.003442,-0.398421,0.011394
357,0.359631,0.8666809999999999,-0.345713,-0.046581,-0.4499939999999999,0.043574
358,0.367421,0.8575290000000001,-0.360047,-0.062764,-0.515046,0.0976419999999999
359,0.363878,0.8526969999999999,-0.374818,-0.048906,-0.588644,0.162523
360,0.3492909999999999,0.8537,-0.386239,0.050062,-0.587129,0.2544639999999999
361,0.330017,0.860442,-0.388225,0.148621,-0.431029,0.2877909999999999
362,0.313786,0.8705280000000001,-0.37909,0.32571,-0.225203,0.137101
363,0.3115969999999999,0.8806219999999999,-0.356933,0.461032,0.151605,-0.178147
364,0.328049,0.88626,-0.326979,0.348678,0.650407,-0.529558
365,0.349677,0.883494,-0.311693,-0.351858,0.380377,-0.842192
366,0.360193,0.8766459999999999,-0.3189659999999999,-0.273294,0.6816270000000001,-0.613804
367,0.367151,0.8716219999999999,-0.3247489999999999,0.284903,2.269796,0.148571
368,0.382463,0.8708370000000001,-0.30879,-0.745531,0.518018,0.2518289999999999
369,0.393278,0.8699610000000001,-0.297466,-0.738463,-0.16235,0.166042
370,0.39496,0.866907,-0.304082,-0.61931,-0.7418,0.058217
371,0.394914,0.868291,-0.300167,-0.697068,-0.2492869999999999,0.2362639999999999
372,0.384184,0.878559,-0.283765,-0.645155,-0.169773,0.276853
373,0.352069,0.897011,-0.267216,0.054852,0.461372,0.7023050000000001
374,0.312294,0.918546,-0.2423449999999999,-0.036186,0.330325,0.6273850000000001
375,0.278179,0.937652,-0.208352,-0.292065,0.167954,0.425851
376,0.251482,0.951081,-0.179404,-0.364351,0.0726919999999999,0.343085
377,0.2315449999999999,0.960594,-0.153718,-0.297189,0.042259,0.287507
378,0.218824,0.967232,-0.128689,-0.174742,-0.121422,0.109967
379,0.211144,0.971505,-0.107607,0.020362,-0.099053,0.080782
380,0.206665,0.974256,-0.089985,0.124649,-0.146406,0.177174
381,0.204272,0.976158,-0.073283,0.10719,-0.280922,0.186243
382,0.202183,0.977745,-0.055852,0.072841,-0.296714,0.101369
383,0.1992529999999999,0.979225,-0.037403,0.030499,-0.106056,0.061588
384,0.194723,0.980671,-0.018655,0.028712,0.046185,0.107339
385,0.187084,0.982329,0.002909,0.016789,-0.010787,0.0699679999999999
386,0.176344,0.984007,0.024751,0.04439,-0.124785,-0.175782
387,0.16137,0.986013,0.041437,0.192542,-0.068472,-0.211328
388,0.144904,0.987971,0.053805,0.195718,0.060002,-0.149447
389,0.128343,0.989876,0.06045,0.183257,0.117073,-0.153559
390,0.1151819999999999,0.991338,0.062936,0.178199,0.164896,-0.130624
391,0.104067,0.9924,0.065507,0.1375559999999999,0.170335,-0.077486
392,0.09361,0.993087,0.070675,0.210864,0.167268,-0.142254
393,0.084989,0.993665,0.073385,0.255237,0.142535,-0.2005819999999999
394,0.078317,0.994501,0.069379,0.272757,0.154135,-0.170194
395,0.075171,0.995386,0.0594639999999999,0.1897829999999999,0.153128,-0.0567019999999999
396,0.078994,0.995853,0.044902,0.1153569999999999,0.123516,0.055638
397,0.091886,0.995444,0.025056,-0.035459,-0.058448,0.129546
398,0.1116109999999999,0.993739,-0.002537,-0.089501,-0.08015,0.129047
399,0.1337799999999999,0.990257,-0.038414,-0.1474069999999999,-0.010246,0.036049
400,0.1557059999999999,0.984584,-0.07958,-0.139485,0.208669,-0.007654
401,0.177171,0.976841,-0.119894,-0.2193159999999999,0.260021,0.12522
402,0.197695,0.968521,-0.151221,-0.255175,0.193268,0.069632
403,0.218601,0.95956,-0.17732,-0.155475,0.226399,-0.0002319999999999
404,0.242436,0.948435,-0.2041589999999999,-0.08881,0.302374,0.012417
405,0.267282,0.935082,-0.232738,-0.090585,0.251182,0.1446339999999999
406,0.287417,0.921751,-0.260294,-0.022173,0.11098,0.141275
407,0.301017,0.909839,-0.285599,-0.01171,-0.0257139999999999,0.09871
408,0.310754,0.8990450000000001,-0.308442,-0.0613029999999999,-0.156018,0.052308
409,0.317825,0.8901870000000001,-0.326406,-0.091675,-0.177891,0.0137539999999999
410,0.323213,0.883009,-0.340316,-0.131898,-0.115614,0.006148
411,0.326952,0.876813,-0.352546,-0.151048,-0.110898,0.014717
412,0.3296,0.870711,-0.364984,-0.156886,-0.1188039999999999,0.074746
413,0.332427,0.8646370000000001,-0.3766739999999999,-0.096313,-0.113172,0.147288
414,0.3352,0.85882,-0.387372,-0.04748,-0.11619,0.23071
415,0.336539,0.854374,-0.395947,-0.054633,-0.155156,0.280514
416,0.3367989999999999,0.852347,-0.400075,-0.031761,-0.177862,0.270345
417,0.33869,0.852915,-0.397259,-0.0249689999999999,-0.163828,0.18713
418,0.342992,0.856001,-0.38679,-0.033895,-0.100569,0.090175
419,0.34936,0.8600620000000001,-0.371792,0.000173,0.082351,-0.0638919999999999
420,0.357437,0.862568,-0.358055,0.03299,0.146144,-0.1128619999999999
421,0.365342,0.861982,-0.351426,0.096816,0.163042,-0.17012
422,0.369604,0.859685,-0.352593,0.105447,0.079981,-0.1514049999999999
423,0.368486,0.8581120000000001,-0.357562,0.054519,-0.03136,-0.084256
424,0.362784,0.8590979999999999,-0.361007,-0.071555,-0.140425,0.0453029999999999
425,0.354768,0.8632540000000001,-0.359055,-0.10103,-0.1307559999999999,0.041047
426,0.347697,0.8709549999999999,-0.347179,-0.082759,0.228289,0.048869
427,0.344627,0.8816930000000001,-0.322238,0.037117,0.73937,0.1985039999999999
428,0.345896,0.8926059999999999,-0.289134,-0.016947,0.753436,0.128489
429,0.346076,0.900062,-0.264777,-0.1312019999999999,0.182717,-0.047555
430,0.341898,0.905947,-0.249705,-0.128854,0.083997,-0.103978
431,0.3340869999999999,0.911362,-0.2403989999999999,-0.114314,0.048019,-0.090976
432,0.322503,0.916897,-0.235112,-0.139702,-0.0698059999999999,0.027791
433,0.306668,0.923643,-0.229838,-0.1205099999999999,-0.1099069999999999,0.1232549999999999
434,0.287975,0.931523,-0.222084,-0.064388,-0.092793,0.1663589999999999
435,0.269628,0.939743,-0.210168,0.064387,0.016846,0.297311
436,0.25293,0.947443,-0.195867,0.009323,-0.03274,0.345037
437,0.236452,0.954684,-0.1807079999999999,-0.026598,-0.078509,0.342146
438,0.218967,0.961647,-0.165149,-0.019641,-0.0614549999999999,0.309879
439,0.201394,0.967889,-0.150386,-0.053597,-0.0505,0.23434
440,0.1847599999999999,0.973278,-0.1363059999999999,-0.057654,0.0185129999999999,0.171416
441,0.171391,0.977461,-0.123206,-0.0593,0.056932,0.136176
442,0.161905,0.980497,-0.111344,-0.035013,-0.0088019999999999,0.140779
443,0.155024,0.982799,-0.100287,-0.017557,-0.032726,0.137824
444,0.14889,0.984739,-0.090024,0.010183,-0.0446149999999999,0.143613
445,0.142707,0.986546,-0.079658,-0.016075,-0.038823,0.188545
446,0.135902,0.98828,-0.069406,-0.022056,-0.009734,0.198129
447,0.128225,0.989954,-0.059451,-0.01882,0.002448,0.1767
448,0.11972,0.991576,-0.049276,0.02591,0.011308,0.117819
449,0.1098609999999999,0.993173,-0.0390019999999999,0.101198,-0.0266199999999999,0.0853889999999999
450,0.09926,0.994588,-0.0304339999999999,0.111769,-0.051854,0.064675
451,0.089387,0.995749,-0.021836,0.089232,-0.066382,0.017624
452,0.08092,0.996617,-0.013756,0.078824,-0.043873,-0.013603
453,0.073141,0.997295,-0.0059479999999999,0.12443,-0.020824,-0.0017579999999999
454,0.065157,0.997866,0.000503,0.201124,-0.007586,-0.002151
455,0.057248,0.998339,0.0049299999999999,0.299075,-0.020083,-0.022722
456,0.05057,0.998681,0.007857,0.292157,-0.0357139999999999,-0.011214
457,0.0456209999999999,0.998904,0.009633,0.257586,-0.04964,-0.008123
458,0.042248,0.999047,0.010187,0.206455,-0.026497,-0.016931
459,0.039643,0.999163,0.009261,0.247481,0.008116,0.014512
460,0.03783,0.99925,0.007095,0.22746,0.137591,0.0391699999999999
461,0.037445,0.999281,0.004338,0.149139,0.3265099999999999,0.075679
462,0.041144,0.999145,5.9e-05,0.1388339999999999,0.364198,0.054721
463,0.050065,0.998721,-0.005716,0.123733,0.401837,0.026087
464,0.063597,0.997854,-0.015002,0.064913,0.316431,0.071917
465,0.080307,0.996304,-0.030211,0.036606,0.2461739999999999,0.097411
466,0.098599,0.993695,-0.053211,-0.025463,0.090442,0.097584
467,0.117463,0.989574,-0.083245,-0.049485,-0.072765,-0.0206669999999999
468,0.136683,0.983474,-0.118666,-0.038645,-0.024916,-0.015977
469,0.157263,0.975144,-0.156038,-0.0879269999999999,0.117416,-0.040526
470,0.179363,0.965166,-0.190447,-0.1071579999999999,0.13629,-0.047514
471,0.201656,0.954337,-0.220367,-0.028758,0.139428,0.0307759999999999
472,0.222465,0.943292,-0.2463659999999999,0.046211,0.026343,0.12692
473,0.237876,0.932823,-0.270637,0.057885,-0.021766,0.170737
474,0.24718,0.922875,-0.295283,0.095441,-0.147377,0.181864
475,0.253457,0.913649,-0.317795,0.088432,-0.182402,0.153184
476,0.260673,0.90591,-0.333715,0.036461,-0.17245,0.106115
477,0.269762,0.9001309999999999,-0.342025,0.007658,-0.141464,0.044479
478,0.280053,0.895284,-0.346447,0.005103,-0.08463,0.040249
479,0.2914489999999999,0.8901120000000001,-0.350351,0.01719,-0.070349,0.108011
480,0.302316,0.885164,-0.353664,0.051215,-0.0977649999999999,0.177638
481,0.311684,0.8816280000000001,-0.354364,-0.0200419999999999,-0.200476,0.2675869999999999
482,0.319144,0.880208,-0.3512389999999999,-0.050864,-0.22405,0.275006
483,0.325583,0.880941,-0.343405,-0.064566,-0.2335559999999999,0.261603
484,0.331385,0.883525,-0.330992,-0.0641419999999999,-0.168376,0.167052
485,0.335586,0.887351,-0.316193,-0.024017,0.034921,0.04094
486,0.337779,0.8913059999999999,-0.302434,0.029149,0.128622,-0.016627
487,0.339629,0.89371,-0.293124,0.178713,0.3367429999999999,-0.0772679999999999
488,0.342873,0.892394,-0.293356,0.132713,0.1600349999999999,-0.049661
489,0.347029,0.888202,-0.301092,0.067842,0.049726,-0.017862
490,0.349828,0.8839819999999999,-0.310136,-0.068975,-0.274134,0.110704
491,0.350333,0.882776,-0.312988,-0.099936,-0.4091579999999999,0.174728
492,0.347522,0.8855959999999999,-0.308118,-0.097125,-0.4119779999999999,0.1698579999999999
493,0.342016,0.894392,-0.28823,-0.085485,0.058001,0.285773
494,0.33555,0.909368,-0.24585,0.126059,1.511103,0.211823
495,0.325218,0.923094,-0.205223,0.136391,1.497377,0.171196
496,0.317707,0.929851,-0.185539,-0.2076,0.320316,0.029518
497,0.307636,0.934862,-0.177144,-0.363926,-0.012163,0.106465
498,0.290004,0.940765,-0.175627,-0.365184,-0.174499,0.197294
499,0.266486,0.947833,-0.1748819999999999,-0.292746,-0.131122,0.211641
500,0.241117,0.9551,-0.172139,-0.237607,-0.011039,0.271901
501,0.217642,0.96236,-0.1627279999999999,-0.2366239999999999,0.0282709999999999,0.289543
502,0.198378,0.968888,-0.147948,-0.189161,0.075363,0.2377
503,0.183114,0.973606,-0.136181,-0.1841819999999999,-0.024205,0.243923
504,0.1700559999999999,0.977305,-0.126256,-0.144421,-0.1009169999999999,0.262273
505,0.1595,0.980428,-0.115351,0.082077,-0.136571,0.2249699999999999
506,0.154184,0.982711,-0.102423,0.192298,-0.037384,0.230643
507,0.151542,0.984702,-0.085912,0.235558,0.016549,0.190069
508,0.149671,0.986306,-0.069161,0.278613,0.091529,0.096474
509,0.148322,0.987334,-0.056179,0.146768,0.059969,0.066692
510,0.146785,0.987955,-0.048809,0.066182,0.044836,0.060238
511,0.142865,0.988686,-0.045514,0.012912,-0.02961,-0.0002009999999999
512,0.1365819999999999,0.9896,-0.044953,-0.0459139999999999,-0.041953,-0.134475
513,0.127589,0.990776,-0.045465,-0.0036119999999999,-0.0656809999999999,-0.147223
514,0.1182349999999999,0.991891,-0.0464199999999999,0.17481,-0.107873,-0.108441
515,0.1110329999999999,0.992711,-0.0466769999999999,0.2411849999999999,-0.093633,-0.088836
516,0.106797,0.993245,-0.045197,0.311813,-0.059575,-0.007217
517,0.104314,0.99358,-0.043585,0.359904,-0.071965,0.005866
518,0.1037049999999999,0.99367,-0.042996,0.366616,-0.031511,-0.0265839999999999
519,0.104459,0.993524,-0.04451,0.355258,0.041754,-0.029373
520,0.105444,0.993208,-0.049017,0.2098949999999999,0.136019,-0.020853
521,0.106089,0.99269,-0.0574,0.226568,0.3239,0.0552179999999999
522,0.10969,0.991534,-0.069363,0.160833,0.335553,0.069576
523,0.119354,0.989277,-0.084075,0.091187,0.209331,0.067412
524,0.134853,0.985443,-0.103442,0.084965,0.1295319999999999,0.0807669999999999
525,0.153556,0.979802,-0.128038,0.082177,0.1001389999999999,0.069262
526,0.1754619999999999,0.971631,-0.158532,0.145431,0.086582,-0.1096099999999999
527,0.2003869999999999,0.960033,-0.195366,0.10192,0.091221,-0.194053
528,0.2258099999999999,0.946254,-0.231517,0.023961,0.0911299999999999,-0.196935
529,0.248906,0.932317,-0.262332,-0.078816,0.08993,-0.080991
530,0.2629599999999999,0.920817,-0.287986,-0.083059,0.036824,0.0567549999999999
531,0.2672719999999999,0.912924,-0.308421,-0.024536,-0.07894,0.2337449999999999
532,0.2657489999999999,0.907553,-0.325136,0.025343,-0.178946,0.236208
533,0.263959,0.903773,-0.33691,0.070758,-0.148341,0.146557
534,0.2672219999999999,0.90018,-0.343887,0.064154,-0.1213099999999999,0.111145
535,0.275858,0.8963270000000001,-0.347116,-0.026682,-0.09901,-0.006598
536,0.287258,0.8917120000000001,-0.349745,-0.088924,-0.153889,-0.041781
537,0.297021,0.887222,-0.352993,-0.11657,-0.175018,-0.003208
538,0.303397,0.884042,-0.355542,-0.032034,-0.191903,0.214184
539,0.307848,0.8825,-0.355547,-0.0253919999999999,-0.193703,0.255175
540,0.309745,0.8834879999999999,-0.351419,-0.04444,-0.238118,0.299005
541,0.310271,0.8875719999999999,-0.340495,-0.060683,-0.254042,0.262782
542,0.311017,0.894084,-0.322291,-0.078152,-0.259181,0.120555
543,0.310976,0.901815,-0.30002,-0.073168,-0.190801,-0.043593
544,0.308202,0.909615,-0.278568,0.056651,-0.004769,-0.107022
545,0.303802,0.916238,-0.261148,0.2252199999999999,0.076529,-0.163824
546,0.301732,0.920148,-0.249544,0.283305,0.062045,-0.1824319999999999
547,0.302307,0.921794,-0.242681,0.313248,-0.029673,-0.121378
548,0.304253,0.922986,-0.235612,0.279289,-0.158307,-0.061598
549,0.307696,0.927037,-0.214273,0.095213,-0.013096,-0.138769
550,0.314153,0.933971,-0.170273,0.471125,1.633306,0.267792
551,0.326001,0.93701,-0.125384,0.091876,2.022936,-0.073926
552,0.340172,0.933654,-0.112063,-0.8551709999999999,0.200562,-0.319578
553,0.341341,0.931476,-0.125794,-0.7615529999999999,-0.315173,-0.182631
554,0.328159,0.933623,-0.143681,-0.723575,-0.4959699999999999,0.20435
555,0.303126,0.940656,-0.152532,-0.698542,-0.503003,0.213201
556,0.2688239999999999,0.95093,-0.153137,-0.6215,-0.355028,0.4326319999999999
557,0.228678,0.963615,-0.1383349999999999,0.042929,0.160194,0.562407
558,0.193385,0.974917,-0.1101029999999999,0.1125839999999999,0.224561,0.410228
559,0.169896,0.982078,-0.081493,0.059916,0.314766,0.338924
560,0.153675,0.986566,-0.0552659999999999,0.165188,-0.135339,0.25421
561,0.144901,0.988748,-0.036951,0.1988339999999999,-0.262185,0.181574
562,0.1423289999999999,0.989573,-0.021709,0.196339,-0.293879,0.094387
563,0.1440799999999999,0.989544,-0.005183,0.222253,-0.25906,-0.035268
564,0.149926,0.988612,0.012301,0.179587,-0.155284,-0.095858
565,0.1567579999999999,0.987136,0.031193,-0.036885,0.098802,0.0252639999999999
566,0.1568369999999999,0.986472,0.047522,-0.109413,0.0389339999999999,0.010752
567,0.153079,0.986536,0.0574159999999999,-0.041904,0.079321,0.0322449999999999
568,0.145385,0.987309,0.063783,-0.061111,-0.070713,-0.215394
569,0.132863,0.988828,0.067448,0.063609,-0.1201609999999999,-0.206898
570,0.118847,0.990299,0.071878,0.244785,-0.08202,-0.1272059999999999
571,0.1066859999999999,0.991152,0.0788669999999999,0.24329,-0.045259,-0.083247
572,0.098284,0.99146,0.085618,0.242445,-0.043264,-0.111451
573,0.091974,0.991657,0.090222,0.2033589999999999,-0.013721,-0.208005
574,0.086039,0.991942,0.092903,0.2290849999999999,0.127656,-0.146004
575,0.080252,0.992209,0.0952,0.25947,0.136666,-0.152802
576,0.07478,0.992454,0.097082,0.281802,0.260796,-0.115789
577,0.072277,0.992761,0.095829,0.199924,0.279532,-0.143116
578,0.077023,0.992867,0.090913,0.121677,0.281623,-0.135499
579,0.091784,0.992472,0.0809759999999999,0.053998,0.204702,0.080355
580,0.117006,0.991139,0.0627419999999999,-0.0764789999999999,0.1447099999999999,0.064577
581,0.148813,0.988258,0.0343889999999999,-0.199258,0.200828,-0.056209
582,0.182589,0.983177,-0.002729,-0.213046,0.4620439999999999,-0.140719
583,0.215381,0.975534,-0.043917,-0.350391,0.600547,-0.008741
584,0.24304,0.966354,-0.084112,-0.356901,0.3760989999999999,-0.006647
585,0.267282,0.956186,-0.1193839999999999,-0.25451,0.206365,-0.0014349999999999
586,0.292834,0.944687,-0.147647,-0.19263,0.134018,-0.007642
587,0.31828,0.932105,-0.172811,-0.181943,0.087807,0.0576529999999999
588,0.341163,0.919281,-0.196257,-0.071235,-0.078522,0.027617
589,0.360589,0.907123,-0.217002,-0.118768,-0.2514679999999999,0.012718
590,0.376482,0.896016,-0.235379,-0.062196,-0.490453,-0.05141
591,0.388301,0.887085,-0.24958,-0.021815,-0.5068050000000001,-0.0371019999999999
592,0.3976699999999999,0.879916,-0.2599889999999999,0.066456,-0.493975,-0.051641
593,0.40487,0.8734049999999999,-0.2706139999999999,0.10987,-0.436698,-0.05069
594,0.409533,0.866497,-0.285401,0.095442,-0.399502,-0.011993
595,0.4101609999999999,0.859708,-0.304399,0.004359,-0.4160439999999999,0.052461
596,0.405281,0.8553799999999999,-0.322587,-0.056968,-0.466464,0.128557
597,0.39471,0.8567790000000001,-0.331847,-0.081432,-0.4942149999999999,0.1584
598,0.379218,0.865866,-0.32628,-0.102286,-0.488577,0.116319
599,0.3628389999999999,0.8808549999999999,-0.3040239999999999,-0.047791,-0.401943,0.008476
600,0.352747,0.8973270000000001,-0.265257,0.059789,-0.051029,-0.218691
601,0.353754,0.907942,-0.224692,0.293387,0.6307699999999999,-0.392038
602,0.365546,0.906515,-0.211169,0.22889,0.409418,-0.637419
603,0.376986,0.8982950000000001,-0.225687,0.102491,0.082083,-0.460761
604,0.379776,0.8933549999999999,-0.240153,-0.0894929999999999,-0.31938,-0.4173779999999999
605,0.378534,0.8953969999999999,-0.23444,0.430457,1.991535,0.169469
606,0.3879579999999999,0.8980440000000001,-0.207342,0.448788,2.504757,0.572775
607,0.405764,0.8961899999999999,-0.179399,-0.915423,0.618123,-0.074721
608,0.410309,0.8924540000000001,-0.187502,-0.794175,-0.700361,0.26343
609,0.407614,0.8916139999999999,-0.197132,-0.717368,-0.5958829999999999,0.33678
610,0.397863,0.899329,-0.181376,-0.687796,0.05993,0.23585
611,0.368777,0.914491,-0.166414,-0.376269,0.194105,0.447252
612,0.335852,0.93087,-0.143765,-0.2545989999999999,0.2874219999999999,0.650113
613,0.309266,0.945803,-0.09897,-0.274705,0.219313,0.0585799999999999
614,0.287473,0.955744,-0.062414,-0.322782,0.3035489999999999,0.0564929999999999
615,0.265854,0.963408,-0.033874,-0.1517339999999999,0.055757,0.1953119999999999
616,0.245596,0.969295,-0.011423,0.029764,-0.196346,0.129709
617,0.2321349999999999,0.972667,0.003656,0.105725,-0.227931,0.135566
618,0.222525,0.974754,0.0178259999999999,0.106699,-0.256203,0.2313349999999999
619,0.21515,0.97598,0.033991,0.137999,-0.124173,0.1948599999999999
620,0.213526,0.975524,0.0523519999999999,0.0825549999999999,-0.021666,0.130463
621,0.2138199999999999,0.974175,0.072416,-0.18051,-0.057519,-0.037947
622,0.203278,0.975035,0.0892429999999999,0.052322,-0.11119,-0.290354
623,0.184161,0.977832,0.09955,0.042921,-0.020602,-0.276933
624,0.159327,0.981652,0.1046589999999999,0.198461,-0.179971,-0.229171
625,0.129,0.985951,0.106018,0.381895,-0.1198619999999999,-0.224045
626,0.097835,0.989562,0.105709,0.538808,0.060273,-0.11198
627,0.0717049999999999,0.991679,0.106819,0.472621,-0.113337,-0.077095
628,0.055994,0.992337,0.110053,0.561666,-0.134594,-0.2584909999999999
629,0.052558,0.992021,0.114506,0.339623,0.222563,-0.390873
630,0.054713,0.991705,0.116219,0.264165,0.412347,-0.347161
631,0.05775,0.991674,0.1150089999999999,0.2228139999999999,0.41215,-0.267597
632,0.064824,0.991661,0.111293,0.143428,0.503762,-0.193691
633,0.07943,0.991999,0.0980289999999999,0.149895,0.4616909999999999,-0.070746
634,0.102816,0.99205,0.0724269999999999,-0.103991,-0.018341,0.147605
635,0.133806,0.990319,0.036666,-0.053438,0.01763,-0.141616
636,0.1688359999999999,0.985628,-0.003744,-0.040251,0.290358,-0.088007
637,0.203301,0.978074,-0.044978,-0.2091449999999999,0.69017,0.052943
638,0.230365,0.969443,-0.084238,-0.291812,0.5079739999999999,0.053491
639,0.256169,0.959767,-0.1149309999999999,-0.215885,0.336055,-0.069716
640,0.285898,0.947687,-0.141899,-0.241907,0.356329,-0.137704
641,0.3128,0.934097,-0.172059,-0.396754,0.35135,0.114686
642,0.330043,0.92261,-0.199618,-0.107601,0.034482,0.080661
643,0.3411349999999999,0.912025,-0.227648,-0.044794,-0.064109,0.08867
644,0.349674,0.902248,-0.252315,-0.012805,-0.616848,-0.034581
645,0.358325,0.893862,-0.269447,-0.001773,-0.6105520000000001,-0.1087569999999999
646,0.365018,0.8867450000000001,-0.2836059999999999,0.054996,-0.51202,-0.030649
647,0.370247,0.8797590000000001,-0.29821,0.129631,-0.4934979999999999,-0.013923
648,0.375711,0.871474,-0.315217,0.105475,-0.437697,0.021272
649,0.3813269999999999,0.8615010000000001,-0.335252,-0.0421389999999999,-0.447866,0.122865
650,0.382951,0.851807,-0.357438,-0.092332,-0.475831,0.2697
651,0.379423,0.845512,-0.375681,-0.146971,-0.439461,0.383036
652,0.373692,0.846608,-0.378944,-0.263279,-0.292714,0.377555
653,0.366498,0.8561629999999999,-0.364215,-0.087491,-0.19207,0.220615
654,0.36374,0.8723190000000001,-0.326713,-0.121171,-0.113194,-0.024911
655,0.365222,0.888799,-0.276833,0.338315,1.164607,-0.699654
656,0.373273,0.892933,-0.251644,0.142169,0.930859,-0.995823
657,0.379876,0.884713,-0.2701179999999999,-0.1081329999999999,-0.175515,-0.6038899999999999
658,0.3785739999999999,0.8769610000000001,-0.29599,0.0630309999999999,0.4590229999999999,-0.257965
659,0.373422,0.872258,-0.31577,0.245612,1.313472,0.034367
660,0.378529,0.872697,-0.30839,0.082058,1.752242,0.71525
661,0.3862739999999999,0.8756299999999999,-0.289919,-0.5997140000000001,-0.307728,0.286028
662,0.387139,0.8730559999999999,-0.296453,-0.685723,-0.694132,0.29685
663,0.382846,0.8739110000000001,-0.299493,-0.517108,-0.5767770000000001,0.283364
664,0.3684219999999999,0.8835860000000001,-0.289013,-0.355437,-0.267756,0.237088
665,0.3366389999999999,0.899958,-0.277014,0.060944,-0.045893,0.5373439999999999
666,0.30475,0.918828,-0.250736,-0.067949,0.204295,0.741016
667,0.279627,0.938906,-0.20062,-0.138682,0.227552,0.174314
668,0.262468,0.952018,-0.157346,-0.130922,0.164575,0.142407
669,0.2530929999999999,0.959781,-0.121444,-0.180385,0.103696,0.058776
670,0.24391,0.965341,-0.092782,-0.136748,-0.217538,0.054192
671,0.233116,0.969482,-0.075798,-0.0709299999999999,-0.246536,0.034874
672,0.221047,0.973064,-0.06532,-0.001885,-0.292538,0.0302399999999999
673,0.208535,0.976455,-0.055054,0.009803,-0.276626,0.172761
674,0.195431,0.979926,-0.039182,-0.072277,-0.144324,0.206113
675,0.181898,0.983136,-0.018425,-0.065229,-0.100323,0.167397
676,0.169222,0.985559,0.004241,-0.072298,-0.029673,0.002763
677,0.154993,0.987634,0.023174,0.077765,0.05271,-0.226787
678,0.13781,0.989946,0.0315649999999999,0.203377,-0.077775,-0.163049
679,0.117351,0.99253,0.033063,0.420552,-0.2397989999999999,-0.211652
680,0.094814,0.994815,0.036518,0.439076,-0.077808,-0.103595
681,0.073729,0.99633,0.043251,0.481385,-0.041969,-0.0521159999999999
682,0.060069,0.996974,0.049148,0.399663,0.1444599999999999,-0.058349
683,0.0544539999999999,0.997112,0.0527539999999999,0.4027,0.4656869999999999,-0.208103
684,0.0560279999999999,0.997164,0.050046,0.227434,0.60948,-0.250561
685,0.057275,0.997431,0.042799,0.38056,0.536215,-0.184095
686,0.062033,0.997509,0.033285,0.436014,0.392856,-0.121694
687,0.074168,0.997127,0.014743,0.288976,0.0770909999999999,0.143064
688,0.095874,0.995244,-0.0167389999999999,0.043607,-0.243092,0.13324
689,0.127371,0.990185,-0.0573929999999999,0.009225,-0.320278,-0.120082
690,0.168177,0.980519,-0.101408,0.035009,0.330638,-0.079912
691,0.211913,0.96622,-0.146617,-0.321059,0.775555,0.092189
692,0.248007,0.950971,-0.184751,-0.213583,0.439914,0.082761
693,0.280057,0.936482,-0.211082,-0.204023,0.352169,-0.004464
694,0.307001,0.922768,-0.232886,-0.199106,0.238197,-0.0776
695,0.326047,0.909999,-0.256091,-0.205457,0.102513,0.156298
696,0.337136,0.899459,-0.278027,-0.061532,-0.009475,0.1530119999999999
697,0.344471,0.8890899999999999,-0.301406,-0.097737,-0.279944,0.134566
698,0.348497,0.879509,-0.3240389999999999,-0.032853,-0.60743,0.099383
699,0.352486,0.870733,-0.342878,-0.08445,-0.636007,0.113401
700,0.3553139999999999,0.863584,-0.357719,-0.0132729999999999,-0.563596,0.1361619999999999
701,0.3583159999999999,0.857766,-0.368558,-0.030329,-0.5291680000000001,0.120939
702,0.360293,0.853404,-0.37667,-0.025638,-0.471156,0.132163
703,0.358223,0.851043,-0.383916,-0.092735,-0.442611,0.125448
704,0.3498739999999999,0.8516100000000001,-0.390306,-0.085454,-0.417085,0.143709
705,0.335568,0.856716,-0.391691,-0.033032,-0.1910359999999999,0.354323
706,0.32073,0.867956,-0.379176,0.185068,-0.023046,0.471904
707,0.314378,0.8833549999999999,-0.34762,0.030944,0.0036079999999999,0.205805
708,0.319347,0.8986709999999999,-0.300661,0.076848,0.718029,-0.1551799999999999
709,0.333546,0.905059,-0.263824,0.392071,1.207245,-0.8603370000000001
710,0.3532349999999999,0.8975280000000001,-0.263926,-0.218759,0.159876,-0.764288
711,0.365251,0.8882690000000001,-0.278493,-0.347124,0.165579,-0.523799
712,0.367302,0.8816459999999999,-0.296274,0.102806,1.784598,-0.050894
713,0.374477,0.8778309999999999,-0.298612,-0.083858,2.0336380000000003,0.80966
714,0.384111,0.8772340000000001,-0.287938,-0.711717,1.009637,0.403402
715,0.386835,0.869183,-0.308008,-0.761941,-0.866986,0.534967
716,0.387297,0.8662280000000001,-0.315657,-0.704604,-0.581972,0.4236279999999999
717,0.376807,0.8770370000000001,-0.298012,-0.730521,-0.397561,0.34742
718,0.3422969999999999,0.8981120000000001,-0.276074,-0.118175,0.165884,0.5640689999999999
719,0.301726,0.9225,-0.240713,-0.0407089999999999,0.493027,0.646185
720,0.2662989999999999,0.945165,-0.189039,-0.054629,0.458964,0.0439279999999999
721,0.244524,0.958097,-0.149151,-0.06685,0.112201,0.226131
722,0.234498,0.965446,-0.1136279999999999,-0.1199809999999999,-0.004371,0.120724
723,0.228735,0.969697,-0.085749,-0.070547,-0.2021339999999999,0.072398
724,0.224954,0.972117,-0.066106,-0.0525299999999999,-0.326075,0.060658
725,0.220349,0.974159,-0.049461,0.080813,-0.426368,0.064689
726,0.214664,0.976095,-0.033814,0.057797,-0.365286,0.097809
727,0.207169,0.978164,-0.016128,-0.090974,-0.153579,0.233886
728,0.194175,0.980938,0.0064849999999999,-0.012367,-0.014294,0.179688
729,0.178076,0.983552,0.0299779999999999,-0.023733,0.054976,0.129659
730,0.156832,0.986399,0.049039,0.037,0.02828,-0.223096
731,0.132626,0.989521,0.056938,0.28255,-0.162678,-0.332985
732,0.107155,0.992469,0.059213,0.4862439999999999,-0.173194,-0.326288
733,0.085258,0.994563,0.059654,0.5343100000000001,-0.073146,-0.169593
734,0.070642,0.995537,0.062442,0.483847,0.021812,-0.05939
735,0.063065,0.995782,0.06651,0.515517,0.183875,-0.147168
736,0.061107,0.995877,0.066919,0.413334,0.436481,-0.296335
737,0.0629059999999999,0.996159,0.0607679999999999,0.418631,0.494929,-0.237907
738,0.07247,0.99608,0.050571,0.371057,0.418929,-0.156986
739,0.091219,0.995296,0.032394,0.2460159999999999,0.1162609999999999,0.079789
740,0.120038,0.992759,0.00247,-0.034711,-0.170539,0.021624
741,0.156002,0.986988,-0.038778,-0.051891,-0.052631,-0.10081
742,0.193981,0.977105,-0.0873169999999999,-0.073986,0.5991890000000001,-0.091928
743,0.224706,0.965331,-0.13278,-0.337605,0.639573,0.137434
744,0.2477059999999999,0.954098,-0.1683,-0.347788,0.52103,0.166561
745,0.273024,0.941462,-0.197723,-0.204146,0.222494,-0.083191
746,0.301885,0.926711,-0.22374,-0.191457,0.277039,-0.019363
747,0.329007,0.911761,-0.245835,-0.316465,0.359906,0.1615599999999999
748,0.349993,0.8980799999999999,-0.266356,0.014051,0.024832,0.0510689999999999
749,0.366932,0.884057,-0.289471,-0.027897,-0.096581,0.034558
750,0.378555,0.871641,-0.311334,-0.0092459999999999,-0.5155,-0.008307
751,0.3864059999999999,0.861309,-0.32989,-0.091484,-0.545147,0.02833
752,0.388402,0.8531479999999999,-0.3482409999999999,-0.06609,-0.522292,0.090246
753,0.385812,0.8471639999999999,-0.3653119999999999,-0.036462,-0.506908,0.1727
754,0.37987,0.8435469999999999,-0.379627,-0.071734,-0.5135149999999999,0.171344
755,0.368284,0.8431629999999999,-0.391705,-0.099012,-0.516808,0.223111
756,0.35113,0.846565,-0.400032,-0.075739,-0.4544289999999999,0.284096
757,0.333019,0.853461,-0.400865,-0.088573,-0.296577,0.354417
758,0.320325,0.863757,-0.38898,0.001285,-0.157413,0.33388
759,0.318279,0.877559,-0.358578,-0.075298,-0.084682,0.063717
760,0.327034,0.8908469999999999,-0.315323,-0.1674119999999999,0.614066,-0.259155
761,0.342715,0.8952459999999999,-0.284728,0.289411,1.194186,-0.6450359999999999
762,0.362147,0.886249,-0.2887929999999999,-0.238642,0.171994,-0.510493
763,0.372271,0.87682,-0.3042849999999999,-0.104327,0.4601699999999999,-0.422796
764,0.374728,0.872233,-0.314289,0.155591,1.246801,-0.105313
765,0.37649,0.871539,-0.314109,0.494238,1.791348,0.300803
766,0.383424,0.874901,-0.2958429999999999,-0.58249,0.487404,0.220571
767,0.384997,0.8722049999999999,-0.301702,-0.6002529999999999,-0.615506,0.292989
768,0.383046,0.870139,-0.310037,-0.548497,-0.674475,0.310953
769,0.376053,0.8774069999999999,-0.297873,-0.5640109999999999,-0.269314,0.359854
770,0.349854,0.8943459999999999,-0.278811,-0.116272,-0.037077,0.391344
771,0.31597,0.91406,-0.254255,0.09559,0.0942559999999999,0.6077859999999999
772,0.283408,0.936462,-0.206651,-0.2060159999999999,0.242355,0.325868
773,0.257614,0.952016,-0.165184,-0.256089,0.200267,0.068962
774,0.241738,0.960892,-0.135035,-0.223901,0.236175,0.198207
775,0.230552,0.967128,-0.107213,-0.226341,-0.160014,0.1038099999999999
776,0.221953,0.971026,-0.088484,-0.087889,-0.26105,0.115294
777,0.213615,0.974157,-0.07329,-0.045829,-0.290838,0.092013
778,0.205232,0.976982,-0.058057,0.018553,-0.2457349999999999,0.090452
779,0.195305,0.97996,-0.038959,-0.03138,-0.119563,0.187106
780,0.1832859999999999,0.982913,-0.0165139999999999,-0.046705,-0.045291,0.166188
781,0.169948,0.985436,0.004175,-0.060344,0.0008619999999999,0.194525
782,0.153597,0.987921,0.020111,0.155867,-0.026907,-0.174973
783,0.134563,0.990487,0.028494,0.27831,-0.129556,-0.167502
784,0.114469,0.992919,0.031506,0.3644739999999999,-0.267547,-0.235104
785,0.094244,0.994931,0.0348329999999999,0.419626,-0.184705,-0.227109
786,0.075837,0.996235,0.041813,0.4313189999999999,0.0156819999999999,-0.1648599999999999
787,0.0640169999999999,0.996845,0.046735,0.528634,0.09663,-0.132764
788,0.060595,0.997008,0.04781,0.445478,0.243333,-0.29955
789,0.063048,0.997084,0.042794,0.32924,0.431047,-0.2671139999999999
790,0.06842,0.997079,0.03369,0.374116,0.482825,-0.149001
791,0.0791289999999999,0.996655,0.020007,0.318134,0.36246,-0.014468
792,0.09714,0.995251,-0.004804,0.23634,0.02718,0.182142
793,0.123617,0.991512,-0.040087,0.046626,-0.250164,0.184725
794,0.156363,0.984257,-0.082299,0.062707,-0.145146,-0.072944
795,0.193359,0.972968,-0.126217,0.132263,0.5723199999999999,0.051007
796,0.226323,0.959619,-0.167017,-0.188527,0.744192,0.179819
797,0.254228,0.946401,-0.199196,-0.16266,0.44227,0.089378
798,0.28343,0.931922,-0.2262199999999999,-0.09303,0.22564,-0.071189
799,0.309239,0.917091,-0.2516,-0.196553,0.277306,-0.016909
800,0.327794,0.903252,-0.276903,-0.130803,0.108055,0.16324
801,0.339427,0.891108,-0.301171,-0.1025339999999999,0.084478,0.186425
802,0.348765,0.879499,-0.32378,-0.1556809999999999,-0.263517,0.12299
803,0.355725,0.8693299999999999,-0.343096,-0.122754,-0.508749,0.056612
804,0.360842,0.8609049999999999,-0.358643,-0.125125,-0.513676,0.097794
805,0.3645739999999999,0.8546530000000001,-0.369653,-0.110714,-0.518319,0.162545
806,0.368169,0.849849,-0.377091,-0.0746049999999999,-0.431484,0.128983
807,0.371153,0.846823,-0.380955,-0.057066,-0.3422,0.070118
808,0.371953,0.8457709999999999,-0.382508,-0.122014,-0.269813,0.034425
809,0.368087,0.8462620000000001,-0.385153,-0.129027,-0.237482,0.069662
810,0.360264,0.848932,-0.3866699999999999,-0.0266,-0.139826,0.295835
811,0.353906,0.8552200000000001,-0.378603,0.067893,-0.062312,0.436601
812,0.3527869999999999,0.864735,-0.357442,0.021572,-0.050098,0.341115
813,0.357057,0.8742270000000001,-0.328979,0.106841,0.398005,-0.097962
814,0.368686,0.878292,-0.304404,0.384854,0.51688,-0.5624170000000001
815,0.380816,0.875711,-0.2968119999999999,0.215696,0.452063,-0.6846180000000001
816,0.386225,0.8704350000000001,-0.305225,-0.128077,-0.3985869999999999,-0.342587
817,0.386515,0.869382,-0.307846,-0.131404,0.1735259999999999,-0.180283
818,0.39116,0.8744559999999999,-0.286894,0.553207,2.639536,0.404753
819,0.405362,0.881243,-0.2430639999999999,0.279926,3.064741,0.664054
820,0.4124859999999999,0.8772790000000001,-0.245405,-1.054484,-0.507574,0.334379
821,0.407675,0.874308,-0.26339,-0.8345090000000001,-0.6380560000000001,0.370659
822,0.397698,0.8803979999999999,-0.258306,-0.7086720000000001,-0.550824,0.294058
823,0.366641,0.8964700000000001,-0.248801,-0.409351,-0.182252,0.30709
824,0.325702,0.917524,-0.228156,0.098797,0.373767,0.723517
825,0.286812,0.940962,-0.179765,0.222953,0.366579,0.337877
826,0.25338,0.958029,-0.1340329999999999,-0.101006,0.053202,0.322845
827,0.231398,0.968058,-0.096448,-0.174178,-0.051448,0.193234
828,0.21463,0.974231,-0.069218,-0.14331,-0.210956,0.119817
829,0.203309,0.977708,-0.052305,-0.039689,-0.416383,0.066786
830,0.196649,0.979812,-0.035782,0.068488,-0.4648739999999999,0.071014
831,0.193957,0.980838,-0.017896,0.1094339999999999,-0.347537,0.049177
832,0.195945,0.980606,0.000817,0.020135,-0.111908,0.1678079999999999
833,0.192871,0.980947,0.022924,-0.051514,-0.053594,0.00915
834,0.180205,0.98265,0.043676,0.052599,0.007722,-0.036962
835,0.16326,0.984999,0.0557309999999999,0.118997,0.028399,-0.238104
836,0.141423,0.988185,0.058925,0.440197,-0.170711,-0.230602
837,0.117365,0.991419,0.057412,0.531546,-0.139567,-0.216805
838,0.096201,0.993663,0.057969,0.4726619999999999,-0.003643,-0.116669
839,0.081684,0.994694,0.0624039999999999,0.387921,0.230633,-0.2331349999999999
840,0.07347,0.995058,0.066659,0.405412,0.426542,-0.378609
841,0.071496,0.995325,0.064801,0.4717479999999999,0.433783,-0.333386
842,0.070101,0.995887,0.0572419999999999,0.560071,0.412377,-0.182456
843,0.072052,0.996274,0.047218,0.418579,0.350055,-0.109367
844,0.083898,0.996047,0.028897,0.2251679999999999,0.045854,0.1773559999999999
845,0.105637,0.994384,-0.0050799999999999,0.006698,-0.183196,0.1373589999999999
846,0.138141,0.989156,-0.049712,0.006619,-0.070302,-0.084367
847,0.180464,0.978745,-0.097343,-0.149702,0.655425,0.034523
848,0.2204539999999999,0.964668,-0.144227,-0.373164,0.8470690000000001,0.217225
849,0.251186,0.951083,-0.179818,-0.2597,0.534177,0.200127
850,0.281533,0.936815,-0.207615,-0.175393,0.289961,-0.018475
851,0.309996,0.921741,-0.23299,-0.167433,0.278531,0.024249
852,0.331548,0.907116,-0.259237,-0.27239,0.2514679999999999,0.128408
853,0.3451329999999999,0.8946059999999999,-0.283817,-0.065744,-0.002364,0.102924
854,0.3538679999999999,0.8829799999999999,-0.308404,0.027846,-0.555862,0.0230949999999999
855,0.35931,0.871618,-0.333418,-0.032513,-0.71964,0.059797
856,0.365252,0.860721,-0.354599,-0.169604,-0.668475,0.085937
857,0.367133,0.851741,-0.373817,-0.098045,-0.5791430000000001,0.164131
858,0.365316,0.8445520000000001,-0.391493,-0.0354509999999999,-0.506173,0.212187
859,0.36138,0.839623,-0.405496,-0.041785,-0.477441,0.141626
860,0.355652,0.837406,-0.415034,-0.074097,-0.46915,0.182398
861,0.3466079999999999,0.837837,-0.4217619999999999,-0.088475,-0.41291,0.228998
862,0.336871,0.8417180000000001,-0.4219229999999999,0.044492,-0.034055,0.355288
863,0.330117,0.8500409999999999,-0.410418,0.2215489999999999,0.0130419999999999,0.428393
864,0.332509,0.8617360000000001,-0.383195,0.141963,-0.034206,0.318559
865,0.345064,0.874122,-0.341804,0.161238,0.835259,-0.190026
866,0.362371,0.879811,-0.307584,0.383951,1.314723,-0.89754
867,0.382429,0.872208,-0.304942,-0.095747,0.696136,-0.91422
868,0.3896699999999999,0.863549,-0.320044,-0.076727,0.696067,-0.396295
869,0.38784,0.856936,-0.339456,0.446938,1.899534,0.3718349999999999
870,0.391026,0.851375,-0.349641,0.128246,1.77683,0.6508189999999999
871,0.395285,0.853226,-0.340211,-0.711615,-0.284531,0.428696
872,0.392851,0.850676,-0.349294,-0.800474,-0.671431,0.455053
873,0.391856,0.852016,-0.347139,-0.737727,-0.556118,0.448305
874,0.385909,0.8649020000000001,-0.320946,-0.708266,-0.298465,0.335518
875,0.3573179999999999,0.887252,-0.2917099999999999,-0.130847,0.147919,0.585457
876,0.316259,0.913293,-0.256638,0.053386,0.236762,0.674408
877,0.2739769999999999,0.938387,-0.210598,0.10525,0.488447,0.156963
878,0.238379,0.956048,-0.170683,0.194803,0.177589,0.302977
879,0.220243,0.966436,-0.132207,0.017184,-0.166463,0.133427
880,0.21297,0.971594,-0.10311,-0.102252,-0.424292,0.1086029999999999
881,0.2094079999999999,0.974179,-0.084295,-0.094296,-0.508252,0.089589
882,0.205308,0.976299,-0.068342,-0.0204479999999999,-0.5301319999999999,-0.0107599999999999
883,0.199767,0.978411,-0.05279,0.056718,-0.382311,-0.040823
884,0.194548,0.980316,-0.033364,-0.008543,-0.032287,0.156533
885,0.186747,0.982379,-0.0060479999999999,0.027242,0.1138579999999999,0.063986
886,0.177391,0.983903,0.021143,0.0056229999999999,0.281051,0.038839
887,0.165055,0.985524,0.038459,0.060089,-0.072469,-0.267615
888,0.149529,0.987801,0.043249,0.215019,-0.305748,-0.2958739999999999
889,0.128958,0.990689,0.04342,0.440577,-0.169079,-0.154642
890,0.108649,0.993082,0.044311,0.394388,-0.024317,-0.041198
891,0.094101,0.994272,0.050482,0.310424,0.12055,-0.055639
892,0.087361,0.994408,0.059172,0.308086,0.4580609999999999,-0.171492
893,0.0881909999999999,0.994068,0.0634899999999999,0.137715,0.5779989999999999,-0.2093949999999999
894,0.089813,0.994135,0.060072,0.379944,0.504629,-0.142317
895,0.094032,0.994174,0.052508,0.398812,0.445264,-0.098559
896,0.103824,0.99389,0.03721,0.311688,0.152686,0.09075
897,0.122349,0.99245,0.007362,0.153667,-0.032993,0.129617
898,0.150274,0.988047,-0.034106,0.001597,-0.218561,-0.100019
899,0.18622,0.979164,-0.080894,-0.131868,0.5522239999999999,0.074272
900,0.224489,0.966155,-0.127021,-0.313402,0.616945,0.131995
901,0.25547,0.951967,-0.168756,-0.257255,0.550413,0.144266
902,0.284308,0.937224,-0.201906,-0.173987,0.407731,-0.09326
903,0.315371,0.920362,-0.2312179999999999,-0.247057,0.3591789999999999,-0.084975
904,0.341702,0.903797,-0.257639,-0.28468,0.212902,0.099329
905,0.3599199999999999,0.8896569999999999,-0.280989,-0.148128,0.073615,0.127333
906,0.37358,0.875735,-0.305798,-0.180221,-0.1776,0.117719
907,0.380969,0.863611,-0.330192,-0.0600919999999999,-0.7004640000000001,0.06295
908,0.385822,0.854299,-0.348286,-0.106342,-0.674901,0.076482
909,0.3881949999999999,0.847447,-0.362113,-0.00967,-0.586095,0.089499
910,0.385703,0.8424790000000001,-0.3760989999999999,-0.00257,-0.5527449999999999,0.127824
911,0.380803,0.839095,-0.388455,-0.021687,-0.5013270000000001,0.118313
912,0.373676,0.8376040000000001,-0.398466,-0.05405,-0.520358,0.092176
913,0.361906,0.8385239999999999,-0.4072969999999999,-0.064299,-0.335212,0.220743
914,0.34623,0.8423790000000001,-0.41293,-0.017784,-0.200427,0.272916
915,0.332192,0.8501059999999999,-0.408604,0.087669,-0.071664,0.296238
916,0.3285369999999999,0.8608120000000001,-0.388657,0.145401,0.107678,0.113526
917,0.338431,0.8717020000000001,-0.354384,0.172586,0.731676,-0.098421
918,0.357876,0.8769620000000001,-0.320701,0.2650639999999999,1.119376,-0.419411
919,0.3795719999999999,0.870187,-0.314143,-0.198465,-0.0211729999999999,-0.712667
920,0.385415,0.862265,-0.328545,-0.191048,-0.156424,-0.368827
921,0.379112,0.8601040000000001,-0.341296,-0.1774369999999999,0.258778,-0.265897
922,0.37312,0.862532,-0.341771,0.36687,2.14876,0.715184
923,0.380374,0.8725860000000001,-0.306424,-0.7250850000000001,0.8369629999999999,0.278653
924,0.383314,0.8748799999999999,-0.296042,-0.810805,-0.199923,0.356605
925,0.380721,0.8716,-0.308792,-0.6807850000000001,-0.62163,0.391891
926,0.375862,0.8760399999999999,-0.302108,-0.69213,-0.386675,0.339355
927,0.353577,0.8916729999999999,-0.282647,-0.560318,-0.356761,0.295998
928,0.31399,0.912446,-0.262372,-0.0471139999999999,0.159408,0.771436
929,0.270071,0.936803,-0.2223659999999999,0.195002,0.327952,0.4001
930,0.2286349999999999,0.957505,-0.175766,0.2210869999999999,0.2635949999999999,0.092819
931,0.203617,0.969315,-0.137668,0.083705,-9.2e-05,0.221103
932,0.191681,0.976045,-0.102839,-0.10315,-0.30649,0.060419
933,0.184088,0.979619,-0.080242,-0.117315,-0.467809,0.092937
934,0.17825,0.981931,-0.063404,-0.049191,-0.5445369999999999,-0.025493
935,0.172955,0.983738,-0.048227,0.075839,-0.387379,-0.134375
936,0.17087,0.984787,-0.031276,0.011244,-0.0603029999999999,0.113826
937,0.16796,0.985748,-0.008426,-0.11753,0.1027069999999999,0.105838
938,0.160643,0.986901,0.014152,-0.0048509999999999,0.278037,0.1046069999999999
939,0.150786,0.988063,0.031216,0.08127,0.055989,-0.121197
940,0.135115,0.990035,0.039434,0.138597,-0.1963329999999999,-0.29096
941,0.109878,0.993031,0.042368,0.466614,-0.211812,-0.195749
942,0.0816679999999999,0.995624,0.045185,0.517011,-0.083683,-0.067753
943,0.059235,0.997,0.049605,0.379135,0.090936,-0.014937
944,0.045792,0.997367,0.056046,0.4319449999999999,0.364526,-0.140656
945,0.043073,0.997335,0.058722,0.370379,0.624675,-0.255347
946,0.0452199999999999,0.997672,0.050841,0.532462,0.5266350000000001,-0.234938
947,0.050674,0.99797,0.038321,0.536363,0.407777,-0.148505
948,0.063147,0.997782,0.020593,0.405877,0.080969,0.102439
949,0.086507,0.996201,-0.008962,0.070521,-0.2584079999999999,0.1345569999999999
950,0.1225339999999999,0.991307,-0.047726,0.0213259999999999,-0.263585,-0.079868
951,0.16879,0.981358,-0.0918139999999999,-0.049635,0.48753,-0.009779
952,0.212571,0.967384,-0.137716,-0.32509,0.923699,0.127432
953,0.24493,0.953447,-0.175878,-0.243709,0.79991,0.188848
954,0.273929,0.939323,-0.206445,-0.188113,0.436058,-0.037787
955,0.300784,0.924229,-0.23519,-0.214251,0.230052,-0.106897
956,0.3225679999999999,0.909316,-0.262832,-0.32771,0.133501,0.180893
957,0.339391,0.8957229999999999,-0.287195,-0.162725,-0.016893,0.1985559999999999
958,0.353891,0.8820040000000001,-0.311153,-0.119867,-0.127213,0.197734
959,0.3658099999999999,0.8677790000000001,-0.336347,-0.103114,-0.479092,0.125333
960,0.3789599999999999,0.8525469999999999,-0.359917,-0.197625,-0.659371,0.084648
961,0.387478,0.839275,-0.3814,-0.211132,-0.5845600000000001,0.1348329999999999
962,0.3886989999999999,0.829167,-0.401725,-0.115994,-0.520513,0.196235
963,0.384261,0.8232379999999999,-0.417865,-0.072982,-0.504421,0.20087
964,0.3768829999999999,0.8220780000000001,-0.426774,-0.0615289999999999,-0.521281,0.152436
965,0.366081,0.824825,-0.430857,-0.082389,-0.533611,0.157191
966,0.352101,0.8301270000000001,-0.432324,-0.036991,-0.421695,0.271542
967,0.338339,0.838102,-0.427902,0.274149,0.002962,0.410553
968,0.332475,0.8487889999999999,-0.4111039999999999,0.300002,0.0142479999999999,0.287355
969,0.338767,0.860627,-0.380192,0.3010489999999999,0.720504,-0.103314
970,0.357421,0.866893,-0.347467,0.209229,1.138951,-0.8283149999999999
971,0.376416,0.86164,-0.340402,-0.214353,0.633843,-0.7958430000000001
972,0.37982,0.854785,-0.353646,-0.435683,-0.429782,-0.267997
973,0.375942,0.8527040000000001,-0.362701,0.30779,1.905918,0.307541
974,0.376865,0.858108,-0.348727,0.558774,2.791809,0.900134
975,0.388865,0.87064,-0.301259,-0.004038,2.950573,0.490254
976,0.393783,0.867078,-0.305118,-0.918747,-0.760251,0.480991
977,0.391731,0.8580700000000001,-0.332038,-0.705314,-0.752342,0.288199
978,0.3927739999999999,0.85865,-0.329296,-0.716108,-0.588905,0.223706
979,0.373843,0.873431,-0.312003,-0.398807,-0.120028,0.4274199999999999
980,0.3418239999999999,0.893797,-0.290292,-0.25816,0.148317,0.731653
981,0.306875,0.921316,-0.238726,-0.062353,0.410807,0.7299979999999999
982,0.270546,0.944978,-0.183865,0.124427,0.263839,0.331753
983,0.246137,0.958909,-0.141043,0.027362,0.0580279999999999,0.276633
984,0.227908,0.968317,-0.101998,0.005384,-0.092142,0.097802
985,0.212846,0.973925,-0.078415,0.078673,-0.310503,0.112167
986,0.202127,0.977339,-0.062729,0.033392,-0.535033,0.080566
987,0.192387,0.980125,-0.048218,0.114818,-0.569114,0.067673
988,0.187659,0.981691,-0.032367,0.088387,-0.338854,0.099948
989,0.186021,0.98245,-0.0130419999999999,-0.215104,-0.015607,0.117
990,0.177877,0.983959,0.012924,-0.1168119999999999,0.041249,0.029008
991,0.163258,0.985827,0.038386,0.12376,0.083753,-0.1700539999999999
992,0.1446049999999999,0.988028,0.053587,0.031604,0.013849,-0.320036
993,0.120041,0.991097,0.057418,0.354812,-0.161141,-0.253661
994,0.0933,0.993986,0.057151,0.533775,-0.041609,-0.083915
995,0.071444,0.995761,0.057763,0.557081,0.071805,0.007834
996,0.05845,0.996293,0.062954,0.4513609999999999,0.0961289999999999,-0.182278
997,0.05375,0.99632,0.066609,0.41262,0.3568139999999999,-0.380772
998,0.05449,0.996603,0.061594,0.541946,0.556757,-0.342035
999,0.06342,0.996674,0.05097,0.4372359999999999,0.45935,-0.137228
1000,0.082878,0.996029,0.032201,0.33445,0.172901,0.153635
1001,0.1149099999999999,0.993364,0.00211,0.007481,-0.197465,0.208248
1002,0.157515,0.986775,-0.038023,0.032335,-0.0206949999999999,-0.084474
1003,0.203274,0.975438,-0.084755,-0.081646,0.804287,0.001839
1004,0.239637,0.962218,-0.129206,-0.278379,1.019914,0.182535
1005,0.265604,0.949677,-0.165989,-0.284525,0.676162,0.148151
1006,0.29199,0.935539,-0.198729,-0.258725,0.403389,-0.085435
1007,0.318953,0.919925,-0.228017,-0.3796219999999999,0.3310059999999999,-0.008662
1008,0.3430269999999999,0.903625,-0.256474,-0.440561,0.325226,0.1804089999999999
1009,0.363087,0.8873709999999999,-0.284124,-0.119603,0.019154,0.15624
1010,0.379711,0.870316,-0.313619,-0.106151,-0.406998,0.027395
1011,0.391313,0.854241,-0.3422469999999999,-0.169069,-0.74865,0.0305709999999999
1012,0.3990059999999999,0.841026,-0.365316,-0.111622,-0.555763,0.0779779999999999
1013,0.4006679999999999,0.829255,-0.389601,-0.08208,-0.532319,0.148268
1014,0.398074,0.818887,-0.413459,-0.037692,-0.5107970000000001,0.2330699999999999
1015,0.393855,0.810545,-0.433456,-0.0566659999999999,-0.5162640000000001,0.195724
1016,0.3854599999999999,0.804983,-0.451013,-0.066124,-0.516149,0.190973
1017,0.369733,0.802937,-0.467525,-0.0316279999999999,-0.398182,0.316722
1018,0.351227,0.805315,-0.477595,-0.000535,-0.119692,0.353434
1019,0.338091,0.812487,-0.47492,0.09149,-0.0566429999999999,0.350438
1020,0.338233,0.823498,-0.455455,0.1148309999999999,0.030933,0.164469
1021,0.3523449999999999,0.837233,-0.418189,0.090205,0.640519,-0.3820429999999999
1022,0.37271,0.8450540000000001,-0.383353,0.116166,1.064752,-0.765725
1023,0.383102,0.8424149999999999,-0.378892,-0.318664,-0.119255,-0.7373649999999999
1024,0.377445,0.839041,-0.391834,-0.049976,0.6677489999999999,0.0293769999999999
1025,0.371286,0.839174,-0.397395,0.201041,1.427886,0.33314
1026,0.376427,0.850571,-0.367178,0.273613,1.954559,0.632757
1027,0.380295,0.8633049999999999,-0.331765,-0.6512,0.073402,0.311562
1028,0.378738,0.8622479999999999,-0.336264,-0.799316,-0.629155,0.308539
1029,0.377913,0.863237,-0.334651,-0.715056,-0.581422,0.249934
1030,0.370292,0.8741709999999999,-0.31416,-0.6709510000000001,-0.286311,0.288754
1031,0.341421,0.892343,-0.295199,-0.0730649999999999,0.017905,0.566591
1032,0.303261,0.915031,-0.265964,0.066657,0.137459,0.8014560000000001
1033,0.263819,0.940316,-0.2149219999999999,0.207754,0.281898,0.258151
1034,0.231131,0.95769,-0.171444,0.144571,0.161649,0.199688
1035,0.21352,0.96758,-0.134839,0.021724,-0.0519769999999999,0.167706
1036,0.204297,0.97332,-0.104377,-0.1169559999999999,-0.332267,0.0712039999999999
1037,0.19882,0.976441,-0.083761,-0.132536,-0.467789,0.100195
1038,0.192751,0.978984,-0.066482,-0.039767,-0.546672,-0.003892
1039,0.186275,0.981217,-0.049969,0.084996,-0.4237979999999999,-0.0671269999999999
1040,0.1826559999999999,0.98269,-0.030636,0.025291,-0.060953,0.167096
1041,0.1769339999999999,0.984198,-0.005557,-0.155007,0.157404,0.191607
1042,0.16569,0.985969,0.0198169999999999,-0.002512,0.2296679999999999,0.131779
1043,0.150826,0.987881,0.036385,0.003578,0.0300019999999999,-0.28019
1044,0.130363,0.990604,0.041116,0.17881,-0.140491,-0.262338
1045,0.103589,0.993749,0.041388,0.485141,-0.115316,-0.2266139999999999
1046,0.077442,0.996101,0.042041,0.504268,0.075799,-0.075671
1047,0.056353,0.997374,0.045286,0.47923,0.09456,-0.0604539999999999
1048,0.043448,0.997801,0.049865,0.4768,0.310243,-0.193877
1049,0.039937,0.997967,0.049477,0.402263,0.478931,-0.292671
1050,0.041698,0.998208,0.042694,0.451558,0.4775609999999999,-0.21344
1051,0.049071,0.998223,0.033545,0.353608,0.327049,-0.051245
1052,0.065475,0.997708,0.0165389999999999,0.206681,0.030963,0.191347
1053,0.092684,0.995609,-0.012448,-0.022158,-0.201053,0.2161989999999999
1054,0.1297839999999999,0.990293,-0.049578,-0.006371,-0.127485,-0.0847909999999999
1055,0.171629,0.98105,-0.089818,-0.056807,0.517165,-0.036204
1056,0.208992,0.969196,-0.130254,-0.267906,0.8335389999999999,0.103673
1057,0.241192,0.956358,-0.164895,-0.254421,0.54381,-0.0180889999999999
1058,0.274342,0.941804,-0.194235,-0.207859,0.321898,-0.199717
1059,0.306779,0.925529,-0.221966,-0.306962,0.319314,-0.0401339999999999
1060,0.331586,0.909598,-0.250336,-0.350644,0.177743,0.242981
1061,0.348088,0.895684,-0.2767179999999999,-0.127354,-0.012795,0.21849
1062,0.3592869999999999,0.882483,-0.303519,-0.039677,-0.388266,0.129294
1063,0.3685989999999999,0.869518,-0.328726,-0.0364,-0.6500199999999999,0.0889799999999999
1064,0.3763579999999999,0.857656,-0.350383,-0.093383,-0.60874,0.060634
1065,0.377775,0.847726,-0.372337,7.900000000000001e-05,-0.515039,0.1688609999999999
1066,0.375586,0.8390200000000001,-0.393661,0.021707,-0.47371,0.201919
1067,0.372356,0.832082,-0.411071,0.024937,-0.466771,0.219329
1068,0.367744,0.826941,-0.425351,-0.0575179999999999,-0.4359649999999999,0.19447
1069,0.3584469999999999,0.824449,-0.4379369999999999,-0.071216,-0.449984,0.243997
1070,0.3458429999999999,0.8256610000000001,-0.44572,-0.094394,-0.307579,0.354076
1071,0.333413,0.832659,-0.442158,-0.03991,-0.190737,0.363896
1072,0.327602,0.845867,-0.420922,0.158436,-0.094326,0.265603
1073,0.333796,0.8629950000000001,-0.379221,0.1431319999999999,0.407055,-0.1409359999999999
1074,0.350693,0.874568,-0.334863,0.302932,1.043416,-0.540274
1075,0.3724119999999999,0.868584,-0.326895,-0.381384,0.49865,-0.903132
1076,0.3786739999999999,0.858661,-0.345392,-0.228665,0.424847,-0.432379
1077,0.377472,0.848355,-0.37121,-0.008789,1.159457,-0.168127
1078,0.3795139999999999,0.846076,-0.374318,-0.129407,1.513742,0.727483
1079,0.379924,0.8475969999999999,-0.3704409999999999,-0.6557569999999999,-0.396852,0.470233
1080,0.377656,0.842125,-0.384954,-0.745546,-0.8544700000000001,0.418187
1081,0.381028,0.8449399999999999,-0.375343,-0.729218,-0.54271,0.452507
1082,0.374877,0.86182,-0.341645,-0.5894159999999999,-0.3961679999999999,0.443559
1083,0.344686,0.887805,-0.304928,-0.33663,-0.074634,0.407925
1084,0.300017,0.916594,-0.264257,0.1065079999999999,0.481797,0.439763
1085,0.255096,0.941906,-0.218463,0.060807,0.24448,0.151553
1086,0.221804,0.957971,-0.181882,0.069731,0.072806,0.193341
1087,0.204669,0.967176,-0.150552,0.011151,-0.147306,0.166772
1088,0.195461,0.972335,-0.127844,-0.067088,-0.354827,0.1333369999999999
1089,0.188566,0.97583,-0.110375,-0.129468,-0.487595,0.1763539999999999
1090,0.1799619999999999,0.979272,-0.09286,-0.1049339999999999,-0.572259,0.079692
1091,0.16979,0.982563,-0.075668,-0.028127,-0.460269,-0.0033729999999999
1092,0.159601,0.985724,-0.053469,-0.174341,-0.075049,0.137896
1093,0.146169,0.98891,-0.025935,-0.132406,0.154263,0.124476
1094,0.132902,0.991118,-0.001903,-0.072645,0.210603,0.111141
1095,0.120049,0.992688,0.011797,0.10517,-0.045438,-0.03406
1096,0.10421,0.994405,0.016756,0.304191,-0.139958,-0.166643
1097,0.08186,0.996472,0.018021,0.622989,-0.149044,-0.163818
1098,0.0605259999999999,0.998026,0.0162129999999999,0.4993039999999999,0.037649,-0.063897
1099,0.045065,0.998833,0.016856,0.396464,0.177376,-0.05485
1100,0.035257,0.999109,0.0227729999999999,0.3905389999999999,0.5858369999999999,-0.144141
1101,0.031488,0.999202,0.024183,0.35723,0.651311,-0.235746
1102,0.030955,0.999369,0.016873,0.600988,0.615209,-0.24368
1103,0.036232,0.999319,0.005477,0.538261,0.406168,-0.1332539999999999
1104,0.050231,0.998662,-0.011503,0.387711,0.104441,0.125517
1105,0.074956,0.996491,-0.037001,0.034938,-0.232408,0.237623
1106,0.1075049999999999,0.991691,-0.070536,-0.003867,-0.308433,-0.0309649999999999
1107,0.144787,0.983619,-0.107303,0.026371,0.200692,-0.056424
1108,0.182243,0.972336,-0.14606,-0.1925579999999999,0.7245020000000001,0.065097
1109,0.2144309999999999,0.959273,-0.183848,-0.224105,0.5935229999999999,0.065913
1110,0.244285,0.945592,-0.214861,-0.27935,0.472804,-0.013319
1111,0.272997,0.930946,-0.2424849999999999,-0.350267,0.33175,-0.002098
1112,0.296084,0.916084,-0.270391,-0.415713,0.311409,0.146245
1113,0.312683,0.902355,-0.296601,-0.216461,0.0335279999999999,0.2707219999999999
1114,0.324659,0.889059,-0.322734,-0.059873,-0.253958,0.2196
1115,0.3335909999999999,0.876343,-0.347458,-0.040974,-0.502885,0.202744
1116,0.343153,0.8637020000000001,-0.369125,-0.022032,-0.675225,0.130844
1117,0.34829,0.851823,-0.391255,-0.002495,-0.539018,0.209722
1118,0.351215,0.8411280000000001,-0.4112659999999999,0.016048,-0.534213,0.256786
1119,0.3544989999999999,0.831622,-0.427463,0.009774,-0.513568,0.249607
1120,0.357018,0.8232,-0.4414399999999999,-0.163963,-0.4867439999999999,0.179248
1121,0.353942,0.8169109999999999,-0.455381,-0.211562,-0.4574899999999999,0.216917
1122,0.342936,0.814757,-0.467501,-0.192514,-0.2490679999999999,0.326311
1123,0.3275119999999999,0.818913,-0.471283,0.217502,0.066509,0.364533
1124,0.317368,0.829095,-0.460294,0.291977,0.08155,0.260388
1125,0.322142,0.8444159999999999,-0.42799,0.258394,0.123953,0.095776
1126,0.3415539999999999,0.8543459999999999,-0.391692,0.364089,1.114923,-0.7860729999999999
1127,0.35961,0.8495209999999999,-0.3859849999999999,0.246103,1.048841,-0.891267
1128,0.357784,0.841534,-0.4047219999999999,-0.088726,-0.5052,-0.329531
1129,0.348941,0.8408209999999999,-0.4138229999999999,-0.350391,-0.334184,-0.131237
1130,0.348192,0.8480780000000001,-0.399393,-0.258638,0.278707,0.057535
1131,0.36356,0.870352,-0.3321119999999999,0.724819,2.997262,1.080617
1132,0.36917,0.8758,-0.310928,-1.0562280000000002,-0.258292,0.329986
1133,0.363743,0.869323,-0.334598,-1.1124459999999998,-0.851562,0.400928
1134,0.361051,0.8718870000000001,-0.3308239999999999,-0.925015,-0.714019,0.324751
1135,0.340613,0.885977,-0.314666,-0.591437,-0.258917,0.327026
1136,0.302054,0.904103,-0.302239,-0.129858,0.175807,0.867516
1137,0.259327,0.930416,-0.2589639999999999,-0.031636,0.325901,0.990394
1138,0.218718,0.954118,-0.204469,0.317811,0.301192,0.103425
1139,0.192179,0.967799,-0.1625339999999999,0.057027,0.011251,0.261655
1140,0.178562,0.975884,-0.1255,-0.004077,-0.117684,0.126461
1141,0.169824,0.980078,-0.102914,-0.016686,-0.3607849999999999,0.1100849999999999
1142,0.165245,0.982442,-0.086525,-0.05706,-0.5081979999999999,0.045449
1143,0.161689,0.984173,-0.072416,0.079858,-0.4547229999999999,-0.067004
1144,0.162985,0.984746,-0.060774,0.075022,-0.265295,0.006086
1145,0.164999,0.985076,-0.048816,-0.171759,-0.158416,0.163989
1146,0.1622859999999999,0.986257,-0.0307199999999999,-0.083124,-0.116338,0.1107829999999999
1147,0.154412,0.987941,-0.010586,-0.0263149999999999,-0.0002089999999999,-0.044696
1148,0.137951,0.990424,0.003499,0.135243,-0.100287,-0.190679
1149,0.114217,0.993372,0.012192,0.39857,-0.091745,-0.133683
1150,0.091032,0.995671,0.01829,0.555818,0.089183,-0.1212569999999999
1151,0.073055,0.997023,0.024285,0.456501,0.240877,-0.121224
1152,0.0583669999999999,0.997835,0.030018,0.4256569999999999,0.4802079999999999,-0.214802
1153,0.047278,0.998408,0.0304459999999999,0.659387,0.524968,-0.285725
1154,0.042607,0.998869,0.020664,0.6690470000000001,0.4731,-0.172215
1155,0.050549,0.998689,0.006856,0.509464,0.205519,-0.008718
1156,0.071211,0.997416,-0.008478,0.166033,-0.0344649999999999,0.219599
1157,0.101024,0.994428,-0.029824,-0.049953,-0.14485,0.1055069999999999
1158,0.134154,0.989037,-0.061583,0.058748,0.210029,-0.175112
1159,0.16954,0.980648,-0.097832,-0.118987,0.759984,0.0623549999999999
1160,0.201734,0.970344,-0.133122,-0.201642,0.69172,0.1188849999999999
1161,0.229533,0.958649,-0.168204,-0.209376,0.5616300000000001,0.0406399999999999
1162,0.256678,0.945235,-0.20158,-0.223581,0.514604,-0.076207
1163,0.284802,0.928974,-0.236396,-0.227734,0.419064,-0.013481
1164,0.311393,0.909819,-0.274321,-0.300804,0.295885,0.1973859999999999
1165,0.333106,0.8905700000000001,-0.309699,-0.045936,0.058114,0.223426
1166,0.352954,0.870933,-0.341889,-0.137255,-0.12519,0.19127
1167,0.370469,0.851303,-0.371517,-0.173707,-0.538986,0.142986
1168,0.382555,0.833959,-0.397685,-0.249666,-0.612707,0.162577
1169,0.388728,0.818637,-0.422747,-0.13734,-0.4476189999999999,0.221727
1170,0.393448,0.8052819999999999,-0.443521,-0.078385,-0.3926989999999999,0.2654809999999999
1171,0.398471,0.794088,-0.458951,-0.073672,-0.356603,0.202741
1172,0.400298,0.785393,-0.472135,-0.157363,-0.402901,0.16232
1173,0.393129,0.7809520000000001,-0.4853399999999999,-0.040132,-0.372566,0.203602
1174,0.377267,0.780721,-0.4981319999999999,0.07392,-0.276845,0.2651
1175,0.361681,0.783295,-0.505595,0.082899,-0.2013859999999999,0.2817949999999999
1176,0.3518199999999999,0.7885,-0.504462,0.1584799999999999,-0.211184,0.2837739999999999
1177,0.350151,0.79683,-0.4923899999999999,0.238289,0.112716,-0.176815
1178,0.357571,0.805244,-0.472987,0.225559,0.418847,-0.344976
1179,0.366423,0.808854,-0.45987,0.092821,0.301695,-0.326767
1180,0.368144,0.807685,-0.46055,-0.297892,-0.225898,-0.330633
1181,0.367203,0.807902,-0.46092,-0.294998,0.101949,-0.075015
1182,0.3724389999999999,0.81791,-0.4385239999999999,0.351514,2.354484,0.72365
1183,0.3789679999999999,0.8413200000000001,-0.385428,-0.567261,0.713932,0.228476
1184,0.376291,0.8482700000000001,-0.372603,-0.813516,-0.329502,0.242736
1185,0.369156,0.8489770000000001,-0.37809,-0.738312,-0.3860409999999999,0.196495
1186,0.366448,0.855505,-0.365811,-0.757622,-0.271795,0.2942929999999999
1187,0.3514,0.868935,-0.348513,-0.278142,-0.1671369999999999,0.444567
1188,0.320942,0.8871379999999999,-0.3316199999999999,0.009288,0.036644,0.635789
1189,0.283435,0.912507,-0.294933,0.299405,0.395355,0.460292
1190,0.246714,0.935906,-0.251398,0.220815,0.37046,0.258677
1191,0.215496,0.952872,-0.213505,-0.090146,-0.0370389999999999,0.296055
1192,0.192332,0.964839,-0.179112,-0.037913,-0.161434,0.133747
1193,0.177994,0.971589,-0.155951,-0.009674,-0.2415929999999999,0.112555
1194,0.16933,0.975832,-0.1380829999999999,-0.010287,-0.337404,0.162741
1195,0.163652,0.979083,-0.1208349999999999,0.0554179999999999,-0.4462609999999999,0.126374
1196,0.162394,0.98131,-0.103175,0.123175,-0.271837,0.081233
1197,0.167246,0.982265,-0.084672,-0.0066319999999999,-0.105327,0.153321
1198,0.168991,0.983643,-0.062238,-0.065033,-0.0350959999999999,0.071332
1199,0.162918,0.985904,-0.037904,0.093918,-0.071734,-0.069839
1200,0.150983,0.988349,-0.01885,0.049594,-0.018042,-0.201105
1201,0.133713,0.990977,-0.00832,0.160339,-0.090632,-0.17744
1202,0.112439,0.993645,-0.003474,0.361072,0.110817,-0.115423
1203,0.09436,0.99553,0.000307,0.437119,0.326155,0.052809
1204,0.083111,0.996496,0.008499,0.429645,0.311228,-0.033768
1205,0.078329,0.996769,0.017318,0.6143430000000001,0.3793289999999999,-0.384811
1206,0.078982,0.996732,0.016491,0.6641060000000001,0.4544399999999999,-0.360074
1207,0.082064,0.996608,0.004917,0.657881,0.451482,-0.1744119999999999
1208,0.091601,0.995699,-0.013328,0.345303,0.085004,0.145378
1209,0.111014,0.992907,-0.042405,0.043588,-0.187334,0.2601179999999999
1210,0.139087,0.986875,-0.081975,0.023114,-0.0526549999999999,-0.0290019999999999
1211,0.173441,0.97639,-0.128719,-0.2934969999999999,0.815434,0.190013
1212,0.202286,0.964043,-0.172308,-0.307556,0.815605,0.221518
1213,0.222098,0.952701,-0.207416,-0.286445,0.72543,0.252567
1214,0.242159,0.940178,-0.239612,-0.211184,0.300118,-0.0720789999999999
1215,0.267839,0.923714,-0.273869,-0.200014,0.25283,-0.055691
1216,0.294863,0.904906,-0.306905,-0.331682,0.148072,0.213994
1217,0.318162,0.8869,-0.334919,-0.220659,-0.0026079999999999,0.22324
1218,0.338234,0.8697290000000001,-0.359389,-0.074806,-0.086373,0.136382
1219,0.354761,0.8534639999999999,-0.381752,-0.080286,-0.619562,0.056694
1220,0.368081,0.839922,-0.3987969999999999,-0.097482,-0.630648,0.095009
1221,0.378289,0.827203,-0.415481,-0.151376,-0.478692,0.180847
1222,0.382607,0.815742,-0.433784,0.052238,-0.4297399999999999,0.2410199999999999
1223,0.383407,0.805541,-0.451768,0.017442,-0.443359,0.236787
1224,0.38147,0.79661,-0.46892,-0.026917,-0.474771,0.250903
1225,0.374324,0.789572,-0.4862609999999999,-0.106715,-0.3439239999999999,0.381723
1226,0.360519,0.785521,-0.5029680000000001,-0.105713,-0.2068159999999999,0.402229
1227,0.344515,0.786512,-0.512544,-0.054278,-0.10388,0.348115
1228,0.3316929999999999,0.794655,-0.508425,0.156191,-0.000496,0.238513
1229,0.329082,0.809919,-0.48552,0.2660409999999999,0.151491,-0.118393
1230,0.340473,0.8250620000000001,-0.4509359999999999,0.307766,0.433696,-0.451042
1231,0.355636,0.831044,-0.427646,0.145706,0.4687909999999999,-0.588635
1232,0.358755,0.8265440000000001,-0.4337189999999999,-0.0698,-0.285544,-0.31477
1233,0.355919,0.823368,-0.442018,-0.129433,-0.249271,-0.158828
1234,0.360348,0.828451,-0.4287319999999999,0.199939,1.628962,0.5261140000000001
1235,0.37111,0.845916,-0.383009,0.096465,2.041429,0.38188
1236,0.375861,0.858591,-0.348627,-0.4189819999999999,0.702825,0.133677
1237,0.368095,0.859102,-0.355587,-0.738762,-0.39853,0.140942
1238,0.3618909999999999,0.861978,-0.354995,-0.827131,-0.347283,0.2505179999999999
1239,0.347236,0.873001,-0.342473,-0.6739109999999999,-0.339554,0.348852
1240,0.313431,0.889178,-0.333338,0.055008,0.281674,0.916651
1241,0.273974,0.91176,-0.305978,0.248471,0.382353,0.8408899999999999
1242,0.235259,0.937489,-0.256434,0.308747,0.31216,0.269755
1243,0.2050159999999999,0.955466,-0.212233,-0.1257309999999999,-0.050422,0.287246
1244,0.185951,0.966948,-0.174423,-0.157952,-0.091978,0.175491
1245,0.1693339999999999,0.974193,-0.1492079999999999,-0.00872,-0.321163,0.120735
1246,0.1596,0.978161,-0.133108,0.02201,-0.356335,0.112463
1247,0.153862,0.981144,-0.1169289999999999,0.065895,-0.4141729999999999,0.098725
1248,0.151706,0.983423,-0.099263,0.1781579999999999,-0.205255,0.025791
1249,0.156563,0.984183,-0.082827,0.023506,-0.035025,0.083392
1250,0.157215,0.985617,-0.061894,-0.10825,-0.066046,0.019108
1251,0.15032,0.987832,-0.03975,0.014597,0.069083,-0.050674
1252,0.137828,0.990111,-0.025904,-0.033657,-0.041854,-0.083349
1253,0.116557,0.992991,-0.01926,0.328572,-0.178141,-0.047115
1254,0.087814,0.996014,-0.015246,0.455704,-0.08067,-0.0193449999999999
1255,0.062557,0.997973,-0.011139,0.410908,0.160367,-0.037384
1256,0.045214,0.99895,-0.006615,0.444914,0.372587,-0.111229
1257,0.035331,0.999369,0.001037,0.578195,0.410985,-0.230132
1258,0.032076,0.999479,0.001023,0.751646,0.467211,-0.31656
1259,0.033946,0.999365,-0.010245,0.549138,0.349909,-0.062814
1260,0.045335,0.998581,-0.027716,0.360457,0.203536,0.078283
1261,0.06877,0.996215,-0.053049,-0.070296,-0.18811,0.1093539999999999
1262,0.1020409999999999,0.990978,-0.086827,-0.004477,-0.068935,-0.023799
1263,0.139913,0.982206,-0.125241,-0.140234,0.574023,0.118741
1264,0.173392,0.971545,-0.161328,-0.179038,0.7678659999999999,0.106045
1265,0.201782,0.95983,-0.194939,-0.173828,0.665078,0.083336
1266,0.229751,0.946505,-0.226568,-0.190963,0.364286,-0.101709
1267,0.25759,0.930738,-0.259549,-0.260963,0.171466,-0.0401329999999999
1268,0.282238,0.914297,-0.290507,-0.306637,0.152201,0.088114
1269,0.302509,0.899135,-0.316284,-0.074176,-0.110622,0.209503
1270,0.3200159999999999,0.8851030000000001,-0.337897,-0.069009,-0.177278,0.167456
1271,0.3351099999999999,0.870943,-0.359376,-0.075908,-0.5055109999999999,0.1127789999999999
1272,0.347828,0.857243,-0.37966,-0.162953,-0.565144,0.150107
1273,0.3567079999999999,0.844009,-0.400501,0.0206879999999999,-0.4475699999999999,0.2424199999999999
1274,0.361248,0.8311950000000001,-0.4226189999999999,0.047138,-0.427768,0.258968
1275,0.364189,0.818896,-0.443586,0.066949,-0.423343,0.261656
1276,0.365345,0.808188,-0.461897,-0.062717,-0.522116,0.277525
1277,0.3613369999999999,0.800664,-0.477877,-0.138284,-0.496312,0.300707
1278,0.350609,0.798215,-0.489817,-0.137718,-0.291013,0.365183
1279,0.336493,0.8020550000000001,-0.493431,0.1841829999999999,-0.027687,0.330681
1280,0.322992,0.812148,-0.485887,0.249228,-0.028792,0.3118599999999999
1281,0.317486,0.828512,-0.461264,0.261128,-0.015066,0.2022
1282,0.32788,0.8447709999999999,-0.422907,0.407441,0.997636,-0.777075
1283,0.346913,0.848626,-0.399346,-0.209126,0.274665,-0.703422
1284,0.353688,0.842511,-0.4062909999999999,-0.049687,0.555438,-0.326176
1285,0.356261,0.834702,-0.419934,0.367021,1.671082,0.471204
1286,0.362569,0.8353280000000001,-0.413235,-0.08167,1.497893,0.47723
1287,0.363293,0.841501,-0.399858,-0.821118,-0.221582,0.300309
1288,0.355934,0.8416950000000001,-0.406021,-0.709068,-0.5838979999999999,0.199356
1289,0.352951,0.8445870000000001,-0.402606,-0.863708,-0.43115,0.390399
1290,0.345841,0.856988,-0.382044,-0.781754,-0.532403,0.490122
1291,0.32378,0.8782690000000001,-0.351856,-0.2464489999999999,-0.0277279999999999,0.631595
1292,0.289853,0.905032,-0.311277,0.185992,0.36984,0.721815
1293,0.248023,0.931686,-0.265397,0.2576989999999999,0.4578399999999999,0.371476
1294,0.2084369999999999,0.951831,-0.22486,0.286787,0.2167639999999999,0.310874
1295,0.180442,0.965738,-0.186495,0.267495,-0.092127,0.123491
1296,0.164654,0.97374,-0.157189,0.159855,-0.332825,0.035653
1297,0.155521,0.977875,-0.139867,0.061688,-0.443115,0.1446579999999999
1298,0.150175,0.980624,-0.125745,0.014726,-0.571185,0.0648779999999999
1299,0.146748,0.982786,-0.1121819999999999,0.051738,-0.4826029999999999,-0.00554
1300,0.149056,0.983875,-0.09879,-0.093239,-0.049152,0.098637
1301,0.1502359999999999,0.985626,-0.077197,-0.350858,0.160279,0.264758
1302,0.142254,0.988611,-0.048994,-0.104091,0.1702789999999999,0.122649
1303,0.128222,0.991394,-0.0261709999999999,0.023832,0.140366,-0.034345
1304,0.107954,0.994066,-0.012909,0.188586,-0.069948,-0.124207
1305,0.078244,0.996894,-0.0082,0.3977989999999999,-0.120841,-0.139795
1306,0.047331,0.998834,-0.008808,0.431017,0.046744,-0.075207
1307,0.024604,0.999644,-0.009635,0.416055,0.091558,-0.012047
1308,0.01008,0.999926,-0.005795,0.493063,0.310926,-0.134845
1309,0.002934,0.999988,-0.001078,0.555187,0.407879,-0.280431
1310,0.00141,0.999984,-0.004036,0.635645,0.533387,-0.2388989999999999
1311,0.004101,0.999918,-0.011555,0.443989,0.286138,-0.012798
1312,0.016804,0.999594,-0.022742,0.184047,0.020594,0.260688
1313,0.042437,0.99826,-0.040789,-0.057543,-0.182205,0.244357
1314,0.07883,0.994613,-0.067229,0.0187349999999999,0.0619059999999999,0.039915
1315,0.1185089999999999,0.987724,-0.1017179999999999,-0.080804,0.643349,0.0605039999999999
1316,0.155343,0.978156,-0.138092,-0.172158,0.830606,0.058106
1317,0.186263,0.966457,-0.176795,-0.2220599999999999,0.644169,-0.033898
1318,0.214919,0.952783,-0.2144889999999999,-0.3995039999999999,0.40943,-0.178257
1319,0.243081,0.937239,-0.249973,-0.377663,0.335146,-0.057858
1320,0.269151,0.92031,-0.283865,-0.435288,0.27131,0.216482
1321,0.291458,0.90345,-0.314361,-0.095581,-0.084632,0.281738
1322,0.31143,0.887774,-0.338912,-0.0757429999999999,-0.1822069999999999,0.200423
1323,0.329046,0.8728809999999999,-0.360279,-0.09934,-0.575716,0.086338
1324,0.340158,0.861159,-0.377744,-0.057382,-0.647093,0.0540289999999999
1325,0.349807,0.8505149999999999,-0.3927489999999999,-0.000213,-0.4911859999999999,0.0983
1326,0.357125,0.839464,-0.4095789999999999,0.095695,-0.455812,0.174945
1327,0.36196,0.8284799999999999,-0.427316,0.094308,-0.458897,0.189111
1328,0.362631,0.8177840000000001,-0.446902,0.065073,-0.491597,0.267871
1329,0.3546829999999999,0.808759,-0.46915,0.037468,-0.518079,0.31345
1330,0.337754,0.804588,-0.4884199999999999,0.031478,-0.387565,0.44742
1331,0.31899,0.8071149999999999,-0.496795,0.13705,-0.126863,0.520004
1332,0.30511,0.81506,-0.4925229999999999,0.23267,-0.139248,0.444046
1333,0.305752,0.828069,-0.469905,0.097446,0.00381,0.097072
1334,0.326461,0.8416809999999999,-0.430105,0.104966,0.675455,-0.527659
1335,0.354992,0.847044,-0.3955869999999999,-0.088696,0.781343,-0.8858159999999999
1336,0.368128,0.8413309999999999,-0.3957739999999999,-0.22291,0.18435,-0.708108
1337,0.368458,0.834902,-0.408863,0.517818,2.121336,0.4652439999999999
1338,0.3704469999999999,0.830699,-0.415571,0.213354,1.950871,0.549711
1339,0.373211,0.8353010000000001,-0.403705,-0.671185,0.40028,0.392124
1340,0.371782,0.8351290000000001,-0.405375,-0.8019270000000001,-0.608033,0.306804
1341,0.369513,0.8342350000000001,-0.4092719999999999,-0.672675,-0.488928,0.365419
1342,0.3680449999999999,0.8437290000000001,-0.390712,-0.8205600000000001,-0.399652,0.428737
1343,0.348691,0.8641639999999999,-0.362802,-0.469297,-0.025923,0.447656
1344,0.31369,0.8895120000000001,-0.332202,0.1008,0.384612,0.678806
1345,0.275335,0.916067,-0.291553,0.118799,0.432276,0.511371
1346,0.240641,0.938484,-0.2476469999999999,0.104681,0.270851,0.342816
1347,0.217136,0.953745,-0.207873,0.168133,0.008551,0.25281
1348,0.203812,0.96331,-0.174591,0.148361,-0.136437,0.106414
1349,0.195127,0.968876,-0.15229,0.108828,-0.3201179999999999,0.140465
1350,0.1889829999999999,0.972529,-0.135865,0.0240599999999999,-0.445704,0.181642
1351,0.181999,0.975926,-0.120129,-0.044975,-0.4871109999999999,0.120191
1352,0.1736579999999999,0.979244,-0.1044549999999999,-0.013746,-0.398556,0.103753
1353,0.168044,0.982307,-0.082591,-0.13002,-0.073417,0.2573809999999999
1354,0.161451,0.985461,-0.05279,-0.258665,0.1248599999999999,0.068613
1355,0.149195,0.988411,-0.027767,-0.042078,0.1084359999999999,-0.011234
1356,0.135163,0.990724,-0.013577,-0.004395,0.171508,-0.225223
1357,0.116226,0.993172,-0.009387,0.323075,-0.275658,-0.1648369999999999
1358,0.093474,0.995562,-0.010237,0.429917,-0.184268,-0.164827
1359,0.07342,0.997257,-0.008654,0.3895619999999999,0.089673,0.078448
1360,0.058501,0.99828,-0.000847,0.384905,0.145458,-0.005318
1361,0.050654,0.998658,0.010102,0.320638,0.427307,-0.213517
1362,0.04928,0.998678,0.014068,0.3971,0.6621640000000001,-0.2241969999999999
1363,0.049499,0.998725,0.009091,0.574509,0.629998,-0.124844
1364,0.052319,0.998622,0.001353,0.4651979999999999,0.367848,-0.097636
1365,0.063515,0.997926,-0.009776,0.220207,0.139129,0.1368359999999999
1366,0.086369,0.995875,-0.027541,-0.06963,-0.20576,0.1952809999999999
1367,0.116641,0.991612,-0.055557,-0.104754,-0.237584,-0.1019289999999999
1368,0.149299,0.98441,-0.092914,0.001106,0.238246,-0.1582609999999999
1369,0.1844609999999999,0.97387,-0.132431,-0.18173,0.686469,0.065888
1370,0.21573,0.96094,-0.173324,-0.258607,0.59422,0.104492
1371,0.242203,0.947014,-0.210926,-0.22255,0.481422,0.034443
1372,0.269861,0.932179,-0.241261,-0.192133,0.420238,-0.048839
1373,0.296747,0.91524,-0.272517,-0.246714,0.3241699999999999,0.138606
1374,0.320292,0.8970040000000001,-0.304609,-0.1675819999999999,0.009337,0.243833
1375,0.337737,0.879893,-0.334235,-0.11531,-0.1630349999999999,0.21099
1376,0.3487639999999999,0.8644209999999999,-0.36212,-0.153436,-0.488017,0.1716599999999999
1377,0.35759,0.8517950000000001,-0.382838,-0.077591,-0.6244850000000001,0.121333
1378,0.36587,0.841015,-0.398528,-0.087001,-0.5196029999999999,0.146026
1379,0.372706,0.8311120000000001,-0.4127159999999999,-0.019159,-0.5257689999999999,0.132992
1380,0.378753,0.8220049999999999,-0.42526,-0.036254,-0.50125,0.074705
1381,0.380885,0.813112,-0.440189,-0.067912,-0.456896,0.1001929999999999
1382,0.374727,0.804721,-0.46043,-0.093522,-0.43967,0.163509
1383,0.360211,0.79925,-0.4810819999999999,-0.049969,-0.380533,0.279483
1384,0.342012,0.7988310000000001,-0.494863,-0.002321,-0.173174,0.334707
1385,0.328007,0.803712,-0.496438,0.198848,-0.085145,0.3734369999999999
1386,0.324696,0.814322,-0.481087,0.216716,-0.014106,0.2045819999999999
1387,0.333523,0.8289629999999999,-0.44897,0.2076449999999999,0.392625,-0.2199289999999999
1388,0.3491309999999999,0.839374,-0.416593,0.177817,0.608196,-0.6648729999999999
1389,0.356584,0.8388,-0.411405,0.071105,0.1443849999999999,-0.531909
1390,0.349746,0.835066,-0.424659,-0.090652,-0.351515,-0.2654809999999999
1391,0.340425,0.8384809999999999,-0.425502,0.14981,1.189839,0.392009
1392,0.341384,0.8504809999999999,-0.400163,0.1776589999999999,2.010679,0.632737
1393,0.352007,0.868877,-0.348046,-0.684633,0.2464489999999999,0.07914
1394,0.355864,0.872283,-0.335372,-0.867735,-0.394073,0.132201
1395,0.353983,0.869343,-0.344863,-0.715585,-0.571354,0.193023
1396,0.351236,0.873057,-0.338225,-0.5519350000000001,-0.281077,0.231215
1397,0.33108,0.8851049999999999,-0.327056,-0.06068,-0.037372,0.4234
1398,0.295218,0.900757,-0.318551,0.198877,0.027481,0.8209620000000001
1399,0.259696,0.924638,-0.2785559999999999,0.189157,0.11444,0.479178
1400,0.2289719999999999,0.946687,-0.226594,0.021913,0.036818,0.234682
1401,0.208278,0.960271,-0.185714,-0.055598,0.010234,0.2591239999999999
1402,0.1950339999999999,0.969203,-0.150321,-0.195125,-0.030147,0.089698
1403,0.182591,0.974792,-0.128176,-0.076329,-0.295853,0.16353
1404,0.174576,0.978033,-0.113857,-0.036941,-0.33959,0.119502
1405,0.168172,0.980516,-0.1014679999999999,0.106455,-0.467851,0.0443389999999999
1406,0.165485,0.982198,-0.088832,0.098385,-0.145848,0.1183579999999999
1407,0.168445,0.983134,-0.071154,0.029812,-0.028193,0.165759
1408,0.167415,0.984787,-0.0464339999999999,-0.036754,0.142853,0.039873
1409,0.160735,0.986693,-0.024281,0.041322,0.061723,-0.085979
1410,0.148568,0.988803,-0.0135539999999999,-0.021615,-0.041568,-0.201046
1411,0.126708,0.991861,-0.012022,0.356813,-0.293344,-0.12668
1412,0.097798,0.995134,-0.011491,0.508464,-0.080964,-0.049468
1413,0.070795,0.997455,-0.007653,0.475469,0.105114,0.063073
1414,0.050963,0.998694,-0.000666,0.513154,0.179559,-0.0257769999999999
1415,0.043193,0.999022,0.00875,0.471624,0.501253,-0.309119
1416,0.045612,0.998903,0.009906,0.497555,0.534758,-0.280017
1417,0.051737,0.99865,0.002868,0.486471,0.488411,-0.209151
1418,0.062152,0.998024,-0.008449,0.263532,0.123588,0.1373859999999999
1419,0.081297,0.996303,-0.027542,0.160677,-0.039089,0.1844319999999999
1420,0.1105299999999999,0.992195,-0.05762,-0.03741,-0.216392,0.063739
1421,0.149234,0.984052,-0.096744,-0.0389889999999999,0.568164,0.008381
1422,0.191792,0.97137,-0.140158,-0.2118429999999999,0.822102,0.099906
1423,0.2274,0.956255,-0.183998,-0.310164,0.888533,0.162254
1424,0.25387,0.942039,-0.219323,-0.286646,0.473549,0.128854
1425,0.2796599999999999,0.927499,-0.248044,-0.19888,0.244223,-0.1133599999999999
1426,0.305095,0.911395,-0.276165,-0.259029,0.258893,-0.084049
1427,0.328137,0.895395,-0.3009739999999999,-0.398266,0.160849,0.223398
1428,0.3465519999999999,0.881042,-0.3219599999999999,-0.1045779999999999,-0.068069,0.132675
1429,0.359501,0.8666790000000001,-0.345859,-0.13776,-0.3431349999999999,0.106876
1430,0.366664,0.8543950000000001,-0.368184,-0.0311079999999999,-0.6999609999999999,0.10941
1431,0.371181,0.843734,-0.3877239999999999,-0.10136,-0.706054,0.167722
1432,0.370625,0.834733,-0.407246,-0.019673,-0.603273,0.2494699999999999
1433,0.36593,0.827652,-0.425535,0.0177979999999999,-0.573655,0.281171
1434,0.35886,0.822793,-0.440708,0.0264399999999999,-0.491342,0.255924
1435,0.348726,0.8204530000000001,-0.453035,-0.020555,-0.455875,0.182649
1436,0.333906,0.820792,-0.463466,-0.040449,-0.2286139999999999,0.246898
1437,0.315277,0.8250649999999999,-0.468894,0.027023,-0.017005,0.263236
1438,0.29893,0.834408,-0.46303,0.225805,0.096775,0.181078
1439,0.297963,0.848615,-0.4371069999999999,0.166881,0.271761,0.080357
1440,0.308869,0.863557,-0.398573,0.1743309999999999,0.702666,-0.206224
1441,0.3306489999999999,0.8658309999999999,-0.3755,-0.203742,0.542754,-0.8840520000000001
1442,0.346652,0.856559,-0.38227,-0.3246179999999999,-0.0748669999999999,-0.711816
1443,0.344667,0.848306,-0.401963,-0.151216,0.217582,-0.193542
1444,0.336453,0.8432430000000001,-0.419204,0.399509,1.718189,0.574493
1445,0.33919,0.849835,-0.403389,-0.063799,1.551776,0.6815260000000001
1446,0.340987,0.857822,-0.384528,-0.718962,0.025143,0.409323
1447,0.340273,0.856533,-0.388017,-0.644533,-0.580959,0.425324
1448,0.342255,0.8605510000000001,-0.377234,-0.69043,-0.363969,0.401251
1449,0.33731,0.874439,-0.348669,-0.600295,-0.325534,0.342246
1450,0.31153,0.894133,-0.321663,0.055642,0.117861,0.672112
1451,0.274591,0.917717,-0.28703,0.152594,0.307213,0.550442
1452,0.235118,0.941684,-0.2407099999999999,0.294896,0.328198,0.15639
1453,0.204873,0.957397,-0.203488,0.184394,0.046723,0.2781949999999999
1454,0.189877,0.966961,-0.170067,-0.01936,-0.217678,0.157966
1455,0.181252,0.97256,-0.145822,-0.12307,-0.4272109999999999,0.165338
1456,0.174869,0.975901,-0.130488,-0.060703,-0.5174810000000001,0.101252
1457,0.167717,0.978706,-0.118293,0.035851,-0.477013,-0.042855
1458,0.1613619999999999,0.981054,-0.107166,0.078735,-0.178441,0.051166
1459,0.1577049999999999,0.983348,-0.090241,-0.096731,0.181508,0.2691199999999999
1460,0.152374,0.986218,-0.064381,-0.166076,0.267871,0.229221
1461,0.143611,0.988851,-0.0392029999999999,-0.0311079999999999,0.053415,0.050281
1462,0.1300349999999999,0.991215,-0.023883,0.0533289999999999,-0.027226,-0.249036
1463,0.109845,0.99379,-0.0174129999999999,0.310001,-0.149964,-0.182782
1464,0.0848049999999999,0.996245,-0.017055,0.4982939999999999,-0.023681,-0.059025
1465,0.062653,0.997839,-0.01948,0.484542,0.205225,0.049234
1466,0.046478,0.998748,-0.018157,0.513916,0.234864,0.000472
1467,0.038833,0.999132,-0.014659,0.5327,0.358168,-0.094838
1468,0.039103,0.999084,-0.0170169999999999,0.673407,0.418549,-0.2036099999999999
1469,0.045274,0.998601,-0.027091,0.506957,0.235377,-0.142862
1470,0.059972,0.997365,-0.040684,0.287623,0.023403,0.076955
1471,0.085224,0.994544,-0.060064,0.045635,-0.160269,0.173941
1472,0.121146,0.988821,-0.086867,0.0104,-0.1285599999999999,-0.042787
1473,0.163206,0.979091,-0.1213839999999999,-0.046156,0.514653,0.0265959999999999
1474,0.203354,0.966164,-0.158628,-0.208176,0.91497,0.061827
1475,0.236428,0.951959,-0.194589,-0.226906,0.805579,0.1088799999999999
1476,0.265057,0.937778,-0.224294,-0.223721,0.398267,-0.06187
1477,0.291411,0.922888,-0.25169,-0.225264,0.174875,-0.093112
1478,0.314564,0.907695,-0.277723,-0.343846,0.1881,0.100034
1479,0.33453,0.893488,-0.299598,-0.247707,0.00089,0.200996
1480,0.3503219999999999,0.8805129999999999,-0.319314,-0.125164,-0.116933,0.181222
1481,0.363142,0.867182,-0.340756,-0.106123,-0.441568,0.11546
1482,0.374197,0.853612,-0.3623719999999999,-0.158514,-0.561224,0.078864
1483,0.3794369999999999,0.8404879999999999,-0.386779,-0.103848,-0.5995060000000001,0.227157
1484,0.376393,0.830255,-0.411093,-0.059605,-0.569299,0.281622
1485,0.3693659999999999,0.823478,-0.430633,-0.002789,-0.513862,0.318603
1486,0.361417,0.8196389999999999,-0.444479,-0.0093969999999999,-0.417906,0.224477
1487,0.350951,0.818558,-0.45474,-0.025588,-0.429947,0.195936
1488,0.337507,0.820576,-0.461234,-0.033933,-0.1537369999999999,0.2238679999999999
1489,0.32337,0.826549,-0.460697,0.168695,0.074635,0.274066
1490,0.3135179999999999,0.836484,-0.4494359999999999,0.257893,0.022601,0.270572
1491,0.316324,0.8505370000000001,-0.420141,0.1001799999999999,0.081561,0.087743
1492,0.32682,0.86272,-0.385869,0.379845,1.180569,-0.688716
1493,0.346396,0.8603040000000001,-0.374004,-0.269629,0.404619,-0.799916
1494,0.3608929999999999,0.8518040000000001,-0.379706,-0.375542,0.377779,-0.365533
1495,0.363144,0.8448469999999999,-0.392877,-0.011017,1.344499,0.136697
1496,0.36079,0.8439209999999999,-0.397013,-0.074444,1.6031,0.672953
1497,0.363403,0.8520399999999999,-0.376772,-0.699066,0.224528,0.368243
1498,0.359948,0.854951,-0.373481,-0.617867,-0.578385,0.4635229999999999
1499,0.35551,0.8562059999999999,-0.374854,-0.572597,-0.513143,0.510642
1500,0.352299,0.866554,-0.353496,-0.54601,-0.407005,0.4670829999999999
1501,0.333238,0.885408,-0.32403,-0.082734,-0.064699,0.509242
1502,0.2998889999999999,0.907064,-0.295453,0.0072549999999999,0.079417,0.63577
1503,0.2635949999999999,0.930723,-0.253499,0.087662,0.282076,0.304906
1504,0.231096,0.949571,-0.211892,0.1343059999999999,0.175871,0.1920859999999999
1505,0.2117909999999999,0.960837,-0.17868,0.069261,-0.100073,0.264069
1506,0.201226,0.968057,-0.149539,-0.099084,-0.364511,0.169498
1507,0.193304,0.972679,-0.128517,-0.0302629999999999,-0.421517,0.116325
1508,0.184961,0.976222,-0.112996,0.086814,-0.361903,-0.054775
1509,0.177033,0.97911,-0.09995,0.098144,-0.231735,0.01621
1510,0.170595,0.981861,-0.0826669999999999,-0.024599,0.071728,0.208918
1511,0.1624799999999999,0.984921,-0.059321,-0.14037,0.200428,0.152033
1512,0.151702,0.987617,-0.039835,0.023957,0.0718159999999999,0.127405
1513,0.138987,0.989842,-0.0297009999999999,0.061682,-0.052724,-0.181969
1514,0.120393,0.992337,-0.027571,0.437697,-0.288846,-0.181399
1515,0.096366,0.994951,-0.027821,0.6090479999999999,-0.221361,-0.13702
1516,0.073203,0.996991,-0.025251,0.517526,-0.00488,-0.028048
1517,0.056062,0.998231,-0.019487,0.479368,0.187469,0.013734
1518,0.04799,0.998756,-0.013045,0.502532,0.4712449999999999,-0.102174
1519,0.049128,0.998715,-0.011944,0.450613,0.555805,-0.203052
1520,0.053673,0.998373,-0.01893,0.5005569999999999,0.484354,-0.160437
1521,0.063002,0.997611,-0.028098,0.402468,0.266732,-0.0758139999999999
1522,0.080297,0.995902,-0.041462,0.226542,0.0488829999999999,0.136158
1523,0.108025,0.992099,-0.063694,-0.013359,-0.2169219999999999,0.184422
1524,0.142931,0.985061,-0.095985,0.012998,-0.171065,-0.101677
1525,0.181035,0.974155,-0.135044,-0.026036,0.535062,-0.039272
1526,0.216409,0.960225,-0.176416,-0.262521,0.8315229999999999,0.0550019999999999
1527,0.2443429999999999,0.945937,-0.213281,-0.2747989999999999,0.447206,0.0673769999999999
1528,0.269041,0.932448,-0.241136,-0.267805,0.3153849999999999,-0.104414
1529,0.2939239999999999,0.917881,-0.266633,-0.307122,0.302014,-0.04779
1530,0.316339,0.902461,-0.292377,-0.345544,0.174062,0.234211
1531,0.33438,0.887843,-0.316094,-0.1010269999999999,-0.031687,0.194512
1532,0.347387,0.8735139999999999,-0.341008,-0.140463,-0.134515,0.203099
1533,0.355228,0.8603049999999999,-0.365622,-0.128726,-0.605575,0.090445
1534,0.361374,0.847145,-0.389546,-0.156326,-0.616691,0.169316
1535,0.36112,0.834557,-0.416051,-0.120672,-0.593514,0.2575119999999999
1536,0.356784,0.824361,-0.43946,-0.030123,-0.522558,0.310539
1537,0.351665,0.817033,-0.456925,-0.017833,-0.437547,0.267136
1538,0.345343,0.812381,-0.469859,-0.023718,-0.4292479999999999,0.24174
1539,0.335282,0.810513,-0.480257,-0.0693059999999999,-0.405072,0.230348
1540,0.320834,0.813077,-0.4857619999999999,-0.005602,-0.136014,0.276991
1541,0.30521,0.822068,-0.48067,0.117459,0.010909,0.264346
1542,0.299873,0.8375870000000001,-0.456637,0.293328,0.147277,0.099978
1543,0.309527,0.857001,-0.411988,0.275403,0.96734,-0.289855
1544,0.330959,0.866309,-0.374121,0.0441779999999999,1.311288,-1.11648
1545,0.352763,0.857977,-0.373396,-0.333812,0.6055699999999999,-0.9004989999999999
1546,0.354976,0.8488600000000001,-0.391688,-0.3109389999999999,-0.282759,-0.008276
1547,0.3456349999999999,0.8457290000000001,-0.406534,-0.145424,0.438222,0.154184
1548,0.338066,0.850823,-0.4022469999999999,0.224678,1.600165,0.677424
1549,0.343503,0.866276,-0.362714,-0.434674,1.277645,0.223188
1550,0.345387,0.8725360000000001,-0.345514,-0.803318,-0.4761729999999999,0.454721
1551,0.343956,0.871383,-0.3498239999999999,-0.684334,-0.457686,0.440201
1552,0.343651,0.8759379999999999,-0.338565,-0.617149,-0.369651,0.401661
1553,0.329644,0.8883459999999999,-0.319634,-0.239602,-0.31695,0.474221
1554,0.300703,0.905742,-0.298662,-0.11035,0.180928,0.87636
1555,0.265714,0.930263,-0.252974,0.1756319999999999,0.258168,0.485106
1556,0.233252,0.951198,-0.201997,0.1093079999999999,0.182316,0.221406
1557,0.215084,0.961908,-0.168697,0.033635,0.045675,0.295055
1558,0.205668,0.968632,-0.139427,-0.144022,-0.1062819999999999,0.2388989999999999
1559,0.197038,0.973353,-0.117248,-0.123247,-0.4368229999999999,0.149078
1560,0.1887309999999999,0.976922,-0.099948,0.012792,-0.4466029999999999,0.021106
1561,0.18106,0.97985,-0.084241,0.097352,-0.330909,-0.002002
1562,0.17535,0.982212,-0.067062,0.094548,-0.053074,0.217498
1563,0.169129,0.984558,-0.045017,-0.009476,0.055634,0.177769
1564,0.160572,0.986758,-0.022579,-0.003589,0.150327,0.107067
1565,0.149273,0.988734,-0.010329,0.023853,0.009557,-0.181443
1566,0.134322,0.990893,-0.00853,0.3467719999999999,-0.1920349999999999,-0.223251
1567,0.115464,0.99327,-0.008209,0.555145,-0.167953,-0.181748
1568,0.095383,0.995421,-0.004933,0.5225069999999999,-0.014708,-0.044703
1569,0.079475,0.996829,0.00065,0.42698,0.157727,-0.075509
1570,0.071014,0.997457,0.004614,0.395813,0.563959,-0.206762
1571,0.069504,0.997568,0.0034159999999999,0.344589,0.62171,-0.2339
1572,0.068342,0.997647,-0.003854,0.507815,0.580203,-0.171423
1573,0.070518,0.997426,-0.012431,0.374748,0.2382159999999999,0.041941
1574,0.079732,0.996422,-0.02778,0.282786,0.064705,0.173226
1575,0.098678,0.993587,-0.055069,0.0591429999999999,-0.178554,0.2514949999999999
1576,0.1279819999999999,0.987523,-0.091683,0.082376,-0.032994,-0.063834
1577,0.164394,0.977304,-0.133556,0.035954,0.296163,-0.017475
1578,0.201212,0.96327,-0.177799,-0.2263889999999999,0.7207359999999999,0.133671
1579,0.232145,0.947699,-0.219003,-0.229521,0.4120569999999999,0.13218
1580,0.260812,0.932195,-0.250953,-0.258707,0.290492,0.048423
1581,0.290943,0.915765,-0.276974,-0.335346,0.310172,-0.012531
1582,0.318653,0.899136,-0.300005,-0.491962,0.242252,0.217227
1583,0.341493,0.884141,-0.318852,-0.095079,-0.051133,0.179188
1584,0.358081,0.870093,-0.338682,-0.0910059999999999,-0.218726,0.1231369999999999
1585,0.368206,0.8571030000000001,-0.3602619999999999,-0.020763,-0.605745,0.055437
1586,0.376098,0.8449840000000001,-0.380187,-0.067657,-0.61798,0.0751179999999999
1587,0.377862,0.8351059999999999,-0.399762,0.012565,-0.608406,0.1704369999999999
1588,0.372052,0.828132,-0.419245,0.032382,-0.53913,0.250986
1589,0.362286,0.8237959999999999,-0.436005,0.004642,-0.486668,0.293916
1590,0.351416,0.821377,-0.449264,-0.075155,-0.485195,0.263275
1591,0.3380309999999999,0.820368,-0.461218,-0.111286,-0.42103,0.258368
1592,0.323659,0.8218120000000001,-0.468894,-0.1457109999999999,-0.205876,0.362113
1593,0.311646,0.8289280000000001,-0.464485,-0.024552,0.057439,0.333885
1594,0.3058909999999999,0.8413729999999999,-0.445549,0.098269,0.066678,0.2441179999999999
1595,0.313321,0.8562069999999999,-0.410768,0.06467,0.552774,-0.0276779999999999
1596,0.329405,0.864467,-0.379709,0.4340989999999999,1.220509,-0.671362
1597,0.353257,0.857906,-0.373091,-0.123948,0.355213,-0.6444409999999999
1598,0.362894,0.846917,-0.388625,-0.176279,-0.46647,-0.4189
1599,0.360023,0.839935,-0.406059,-0.136009,-0.21846,-0.039376
1600,0.356553,0.839756,-0.409477,0.277449,1.494732,0.177025
1601,0.3718619999999999,0.851786,-0.369012,0.27653,3.038961,0.4170319999999999
1602,0.383259,0.860405,-0.335865,-0.919255,0.101295,0.275928
1603,0.37981,0.8560399999999999,-0.350614,-0.84029,-0.690863,0.421506
1604,0.371006,0.8556010000000001,-0.360961,-0.6257510000000001,-0.549754,0.387954
1605,0.358536,0.8658680000000001,-0.348877,-0.599762,-0.462029,0.3504489999999999
1606,0.328082,0.8837379999999999,-0.333707,-0.208163,-0.199244,0.805661
1607,0.292026,0.909414,-0.296103,-0.099353,0.2942909999999999,0.827521
1608,0.254751,0.936359,-0.241504,0.149439,0.513562,0.1095609999999999
1609,0.226146,0.953495,-0.199232,0.078969,0.2579,0.290617
1610,0.211509,0.963734,-0.16269,-0.044243,-0.033208,0.2190869999999999
1611,0.202903,0.969532,-0.137208,0.0124739999999999,-0.337467,0.123277
1612,0.198713,0.972547,-0.121049,0.041262,-0.5159279999999999,0.0879679999999999
1613,0.194964,0.975063,-0.105966,0.098966,-0.508724,0.048685
1614,0.191734,0.977035,-0.092886,0.171853,-0.299545,-0.020059
1615,0.189432,0.978875,-0.0768549999999999,0.012824,0.018852,0.259472
1616,0.1852339999999999,0.981303,-0.052146,-0.110786,0.117986,0.204948
1617,0.175429,0.984114,-0.027035,0.0923929999999999,-0.014006,-0.0717039999999999
1618,0.160193,0.987021,-0.010643,0.167764,-0.154609,-0.343895
1619,0.138994,0.990273,-0.005047,0.350569,-0.2430199999999999,-0.346134
1620,0.113552,0.993521,-0.002809,0.6150399999999999,-0.047949,-0.113783
1621,0.092124,0.995738,-0.0021449999999999,0.4313439999999999,0.071446,0.025369
1622,0.077589,0.996978,-0.000602,0.503145,0.16539,-0.091561
1623,0.07037,0.997511,0.002585,0.345615,0.4394399999999999,-0.200553
1624,0.07115,0.997459,0.000455,0.38048,0.555199,-0.2271389999999999
1625,0.075889,0.997079,-0.0077659999999999,0.320366,0.4952149999999999,-0.183121
1626,0.087535,0.995949,-0.020273,0.271169,0.158241,0.1298
1627,0.107177,0.99328,-0.043531,0.0863039999999999,-0.133264,0.222882
1628,0.137143,0.987461,-0.078109,-0.0384329999999999,-0.251026,0.1730799999999999
1629,0.175799,0.976888,-0.121545,0.01875,0.45547,-0.045005
1630,0.216364,0.961755,-0.167942,-0.266413,0.8727790000000001,0.112491
1631,0.247792,0.945962,-0.209153,-0.312947,0.817725,0.193253
1632,0.27257,0.932068,-0.2386329999999999,-0.211504,0.2790829999999999,0.03592
1633,0.300689,0.917213,-0.261338,-0.1693869999999999,0.2662739999999999,-0.1272579999999999
1634,0.329787,0.900817,-0.282417,-0.3080739999999999,0.302903,0.077567
1635,0.3553699999999999,0.884648,-0.301831,-0.422432,0.3230699999999999,0.20387
1636,0.372586,0.8704559999999999,-0.32168,-0.08212,0.0005009999999999,0.092447
1637,0.383083,0.856881,-0.344955,-0.021205,-0.411095,0.036743
1638,0.388845,0.844201,-0.3689389999999999,-0.126165,-0.641015,0.106885
1639,0.390705,0.8326370000000001,-0.392501,-0.132008,-0.647105,0.199233
1640,0.384135,0.824046,-0.416389,-0.086482,-0.5696979999999999,0.313255
1641,0.373706,0.818144,-0.43701,-0.0735649999999999,-0.567747,0.329557
1642,0.360954,0.8161149999999999,-0.451287,-0.06411,-0.543929,0.340646
1643,0.345403,0.818002,-0.45996,-0.0364279999999999,-0.569405,0.250182
1644,0.327113,0.8226479999999999,-0.465016,-0.082453,-0.377473,0.28806
1645,0.309539,0.830008,-0.463967,-0.015701,-0.2412929999999999,0.316735
1646,0.298501,0.84111,-0.451026,0.298041,0.05626,0.250708
1647,0.30367,0.855914,-0.418554,0.133463,0.20303,0.094594
1648,0.3188,0.868834,-0.378795,0.194124,1.2473610000000002,-0.484639
1649,0.3429239999999999,0.8660909999999999,-0.3637039999999999,-0.148619,1.043058,-0.7703439999999999
1650,0.360347,0.8551209999999999,-0.372706,-0.355205,-0.308292,-0.565511
1651,0.365329,0.846734,-0.38674,-0.4338869999999999,0.276312,-0.343882
1652,0.3598139999999999,0.8419780000000001,-0.401995,0.4857979999999999,1.799227,0.315843
1653,0.36395,0.846907,-0.387661,-0.164304,1.529802,0.517513
1654,0.364824,0.8516889999999999,-0.376193,-0.479646,-0.139958,0.418292
1655,0.3643639999999999,0.849449,-0.381663,-0.55902,-0.597527,0.473566
1656,0.365327,0.8540030000000001,-0.3704139999999999,-0.550218,-0.413024,0.509254
1657,0.355724,0.8688809999999999,-0.344234,-0.2273369999999999,-0.154816,0.4644729999999999
1658,0.325651,0.8894290000000001,-0.320716,-0.050093,-0.05935,0.573646
1659,0.288827,0.914276,-0.284024,-0.062753,0.25261,0.636914
1660,0.251617,0.938982,-0.234504,-0.021911,0.280012,0.112068
1661,0.224739,0.953738,-0.199667,-0.003227,0.138288,0.27738
1662,0.210583,0.962625,-0.170285,-0.097424,-0.080286,0.281445
1663,0.202122,0.968338,-0.146485,-0.1451609999999999,-0.398269,0.188309
1664,0.195746,0.972281,-0.127838,-0.115027,-0.460135,0.140975
1665,0.18823,0.975892,-0.110423,0.003649,-0.409806,-0.015202
1666,0.180443,0.979106,-0.093704,-0.021919,-0.100901,0.1585079999999999
1667,0.171914,0.982431,-0.072546,-0.000741,0.002051,0.185248
1668,0.162891,0.985425,-0.048922,-0.0788,0.246723,0.281023
1669,0.152489,0.987869,-0.029151,0.051902,-0.061295,-0.037439
1670,0.1388619999999999,0.990122,-0.0190949999999999,0.354852,-0.215662,-0.223215
1671,0.1205369999999999,0.992587,-0.0151539999999999,0.531502,-0.2260619999999999,-0.247434
1672,0.10084,0.994807,-0.013366,0.576696,-0.083842,-0.090257
1673,0.084702,0.996326,-0.012194,0.468047,0.0578429999999999,0.0299399999999999
1674,0.073844,0.997232,-0.008025,0.5145350000000001,0.134818,-0.01851
1675,0.070944,0.997463,-0.004802,0.400156,0.456364,-0.20403
1676,0.073697,0.997232,-0.009238,0.416842,0.5402279999999999,-0.204721
1677,0.079665,0.996627,-0.019415,0.391282,0.475846,-0.150965
1678,0.092044,0.995174,-0.033846,0.359021,0.133229,0.153795
1679,0.112313,0.991957,-0.0582769999999999,0.009757,-0.299772,0.135853
1680,0.143963,0.985191,-0.093073,0.025379,-0.263816,-0.038031
1681,0.184446,0.973468,-0.1353869999999999,0.036883,0.4406859999999999,-0.068593
1682,0.226629,0.957077,-0.180645,-0.279134,0.919998,0.101009
1683,0.260246,0.939897,-0.2210369999999999,-0.278022,0.749206,0.228209
1684,0.287907,0.924301,-0.250536,-0.153309,0.368515,0.038484
1685,0.316612,0.90794,-0.274579,-0.146079,0.290272,-0.013171
1686,0.3417409999999999,0.8916280000000001,-0.296992,-0.213155,0.304005,0.09695
1687,0.360855,0.876893,-0.317544,-0.138946,0.09526,0.160058
1688,0.373259,0.8638870000000001,-0.338185,-0.078917,-0.080562,0.123677
1689,0.3814619999999999,0.850823,-0.361358,-0.073707,-0.269539,0.102676
1690,0.386444,0.838082,-0.385062,-0.2349699999999999,-0.55201,0.162635
1691,0.386395,0.82726,-0.407838,-0.1238529999999999,-0.631047,0.241288
1692,0.381304,0.819465,-0.427876,-0.120104,-0.581901,0.2932929999999999
1693,0.373247,0.815094,-0.443059,-0.066912,-0.545792,0.315327
1694,0.363203,0.8142550000000001,-0.452842,-0.0568059999999999,-0.471146,0.24488
1695,0.351223,0.816379,-0.4584319999999999,-0.044766,-0.485843,0.203336
1696,0.336961,0.820994,-0.4608899999999999,-0.061158,-0.3316139999999999,0.275358
1697,0.321596,0.829354,-0.4568819999999999,0.083112,-0.040734,0.359409
1698,0.310659,0.8421649999999999,-0.440729,0.283411,0.068586,0.432077
1699,0.312486,0.859138,-0.4052489999999999,0.034575,0.096429,0.145041
1700,0.321966,0.873974,-0.364005,0.167979,0.991825,-0.2777949999999999
1701,0.34064,0.8744770000000001,-0.345319,0.2215239999999999,1.093418,-0.808658
1702,0.357623,0.8644350000000001,-0.35334,-0.403049,-0.1537869999999999,-0.5096970000000001
1703,0.3664969999999999,0.856426,-0.363602,-0.499721,0.287083,-0.383667
1704,0.363392,0.853506,-0.373449,0.487117,2.153513,0.302023
1705,0.368705,0.857253,-0.3593949999999999,-0.391639,1.6425490000000005,0.520192
1706,0.366973,0.8554649999999999,-0.36538,-0.604399,-0.406826,0.56408
1707,0.363331,0.850276,-0.380805,-0.5951420000000001,-0.86877,0.6123270000000001
1708,0.364644,0.8569979999999999,-0.364115,-0.5636180000000001,-0.551426,0.493158
1709,0.348676,0.8755280000000001,-0.334463,-0.353834,-0.259409,0.332251
1710,0.3141989999999999,0.898503,-0.30653,0.0797669999999999,0.505015,0.656185
1711,0.27509,0.925687,-0.259651,0.144756,0.455447,0.1892319999999999
1712,0.241708,0.947309,-0.210171,0.011725,0.229586,-0.032429
1713,0.223762,0.957747,-0.180665,-0.135338,-0.006392,0.363847
1714,0.214355,0.9642,-0.156073,-0.135116,-0.301663,0.233954
1715,0.210571,0.967895,-0.137209,-0.103684,-0.3725429999999999,0.21123
1716,0.2083429999999999,0.970703,-0.119652,-0.0289149999999999,-0.469589,0.093864
1717,0.205779,0.97312,-0.103348,0.015824,-0.314688,0.100464
1718,0.203786,0.975154,-0.086801,-0.02599,-0.123225,0.197473
1719,0.199794,0.977701,-0.064577,-0.045955,0.130774,0.271181
1720,0.190838,0.980767,-0.040801,-0.04173,0.023704,0.1361079999999999
1721,0.175972,0.984185,-0.020021,0.05201,-0.045174,-0.06845
1722,0.155743,0.987751,-0.008908,0.180164,-0.232868,-0.343052
1723,0.130212,0.991468,-0.004697,0.3165199999999999,-0.2683239999999999,-0.314471
1724,0.104278,0.994527,-0.005398,0.537126,-0.1917309999999999,-0.126896
1725,0.083059,0.996522,-0.005643,0.571512,0.073012,0.0982789999999999
1726,0.068616,0.997636,0.000252,0.503649,0.226149,-0.060402
1727,0.06418,0.997911,0.006401,0.397902,0.348921,-0.19149
1728,0.0662919999999999,0.997786,0.0038469999999999,0.379234,0.488313,-0.200014
1729,0.07146,0.997423,-0.005302,0.3754699999999999,0.384871,-0.0411459999999999
1730,0.081975,0.996416,-0.020566,0.397059,0.243559,0.165738
1731,0.101182,0.993744,-0.047158,0.2386619999999999,0.0892179999999999,0.25222
1732,0.13341,0.987495,-0.083924,0.011579,-0.106728,0.001801
1733,0.173544,0.976554,-0.127333,-0.040732,0.487084,0.012938
1734,0.212191,0.961931,-0.172205,-0.2442949999999999,0.869627,0.109644
1735,0.242821,0.946692,-0.211666,-0.27343,0.7133729999999999,0.190777
1736,0.269989,0.932089,-0.241469,-0.159027,0.334879,-0.022356
1737,0.300173,0.916109,-0.265767,-0.163057,0.371794,-0.0874429999999999
1738,0.327832,0.8999520000000001,-0.28741,-0.256817,0.383007,0.112041
1739,0.349192,0.884302,-0.309946,-0.009577,0.027731,0.162806
1740,0.362385,0.869965,-0.334411,-0.037251,-0.037811,0.149825
1741,0.369381,0.855698,-0.3623969999999999,-0.094829,-0.1905059999999999,0.147416
1742,0.371554,0.842194,-0.390704,-0.172061,-0.596665,0.157427
