,gravity.x,gravity.y,gravity.z,userAcceleration.x,userAcceleration.y,userAcceleration.z
0,0.086783,0.906804,-0.412524,-0.079596,-0.520634,0.390993
1,0.076332,0.902103,-0.424717,-0.093681,-0.5568270000000001,0.3342469999999999
2,0.0611779999999999,0.900418,-0.4307029999999999,-0.13294,-0.578839,0.279961
3,0.045195,0.901702,-0.42999,-0.140426,-0.5513899999999999,0.261411
4,0.030663,0.906065,-0.422025,-0.138939,-0.447676,0.110578
5,0.019642,0.913705,-0.405903,-0.134953,-0.351983,0.031422
6,0.013993,0.924233,-0.381573,-0.115418,-0.30851,-0.00278
7,0.0140889999999999,0.936101,-0.351448,-0.097737,-0.2120719999999999,-0.019981
8,0.018823,0.946983,-0.320731,-0.1169829999999999,0.002709,-0.129769
9,0.02688,0.954368,-0.297421,-0.074167,0.363961,-0.287754
10,0.033859,0.957143,-0.287629,0.034821,0.641993,-0.3945
11,0.039637,0.955625,-0.291906,0.114965,0.494158,-0.353281
12,0.046698,0.951605,-0.3037559999999999,0.192437,0.011042,-0.375657
13,0.050579,0.948481,-0.312771,0.1423829999999999,-0.304041,-0.400394
14,0.050417,0.948785,-0.311873,0.083875,-0.199441,-0.228487
15,0.046657,0.949467,-0.310379,0.067067,-0.028416,-0.10144
16,0.042619,0.94833,-0.314411,-0.1312569999999999,0.910099,0.130557
17,0.045748,0.948982,-0.3119949999999999,-0.325289,1.025368,0.2156969999999999
18,0.061541,0.951586,-0.301158,-0.182116,-0.372363,0.388392
19,0.071529,0.953817,-0.291748,-0.260799,-0.621816,0.351075
20,0.073331,0.957558,-0.278756,-0.07266,-0.251717,0.306603
21,0.0682919999999999,0.965279,-0.252135,-0.010079,-0.09829,0.29483
22,0.051972,0.975213,-0.215079,0.05426,-0.0007559999999999,0.287955
23,0.0291209999999999,0.983547,-0.17829,-0.208534,0.464649,0.308035
24,0.014675,0.989609,-0.143034,-0.308544,0.337417,0.226301
25,0.010784,0.99431,-0.1059789999999999,-0.290432,0.176863,0.139945
26,0.009044,0.997479,-0.07039,-0.011958,-0.338055,0.050492
27,0.003132,0.999093,-0.042464,0.016781,-0.370156,0.0495899999999999
28,-0.0068629999999999,0.999758,-0.020921,0.010373,-0.380129,0.044557
29,-0.018325,0.99983,-0.002023,0.09204,0.007464,0.0950559999999999
30,-0.02762,0.999475,0.016914,0.1212029999999999,0.0271509999999999,0.066949
31,-0.0360459999999999,0.998668,0.03691,0.159459,0.028599,0.030503
32,-0.046428,0.99727,0.057423,0.154979,-0.1159369999999999,-0.149311
33,-0.059149,0.995277,0.0769789999999999,0.197516,-0.1453009999999999,-0.211348
34,-0.073405,0.992922,0.093363,0.325496,-0.116656,-0.319299
35,-0.087352,0.990319,0.107878,0.3381,-0.155114,-0.23123
36,-0.099639,0.987529,0.121901,0.41548,-0.024958,-0.147779
37,-0.111414,0.984568,0.134954,0.428629,0.059286,-0.024206
38,-0.121843,0.981573,0.147203,0.285585,0.018427,-0.053438
39,-0.131542,0.978994,0.155782,0.212078,0.048594,-0.108449
40,-0.139205,0.97719,0.160379,0.047317,0.239378,-0.186822
41,-0.143903,0.976284,0.161747,0.0311709999999999,0.269978,-0.209079
42,-0.145873,0.976318,0.159763,0.05754,0.235077,-0.25034
43,-0.146103,0.977773,0.1503779999999999,0.200744,0.3770699999999999,0.023481
44,-0.139301,0.981962,0.127848,0.2472869999999999,0.279527,0.004659
45,-0.126624,0.987704,0.09169,0.2903199999999999,0.228025,0.033814
46,-0.108139,0.993175,0.043689,-0.11235,0.112263,-0.027545
47,-0.087282,0.996101,-0.012805,-0.356276,0.157372,-0.005765
48,-0.068575,0.994782,-0.075542,-0.462095,0.312362,0.0958059999999999
49,-0.055214,0.989238,-0.135499,-0.64962,0.639562,0.225007
50,-0.036056,0.982149,-0.184615,-0.262665,0.370054,0.039244
51,-0.004794,0.974488,-0.2243869999999999,0.019076,0.358367,-0.1663599999999999
52,0.032981,0.965416,-0.2586199999999999,0.124215,0.342705,-0.127229
53,0.068993,0.954221,-0.291037,0.1943119999999999,0.302539,-0.009973
54,0.098895,0.940697,-0.3245139999999999,0.153897,0.075111,0.1210069999999999
55,0.1166869999999999,0.926819,-0.356919,0.0627419999999999,-0.238891,0.202241
56,0.118809,0.91692,-0.380975,-0.020375,-0.424763,0.366129
57,0.110324,0.909952,-0.3997699999999999,-0.068607,-0.485529,0.392782
58,0.097557,0.905711,-0.412518,-0.1125869999999999,-0.536219,0.348309
59,0.081216,0.904588,-0.4184779999999999,-0.218606,-0.625368,0.2180079999999999
60,0.063362,0.905507,-0.419575,-0.191261,-0.631855,0.184162
61,0.047763,0.908854,-0.414371,-0.161929,-0.5947520000000001,0.156268
62,0.037482,0.915312,-0.400998,-0.125907,-0.464384,0.0961429999999999
63,0.03313,0.9248,-0.379008,-0.121555,-0.473872,0.074153
64,0.034625,0.936019,-0.3502429999999999,-0.145374,-0.3011,-0.0334389999999999
65,0.041422,0.946461,-0.32015,-0.07606,0.207119,-0.318034
66,0.050802,0.953127,-0.298274,0.031458,0.471281,-0.398
67,0.056376,0.953841,-0.2949739999999999,0.1541799999999999,0.719896,-0.429041
68,0.064087,0.949396,-0.307473,0.310287,0.265173,-0.372321
69,0.075315,0.942662,-0.3251409999999999,0.2449219999999999,-0.023167,-0.414727
70,0.0803,0.93776,-0.337872,0.162147,-0.234971,-0.434192
71,0.07747,0.93726,-0.339916,-0.104646,-0.011768,-0.00211
72,0.067689,0.938388,-0.338889,-0.2091989999999999,0.2412989999999999,0.1595069999999999
73,0.051126,0.938207,-0.342276,-0.268717,0.610911,0.222403
74,0.042921,0.938581,-0.34238,-0.554639,-0.013608,0.237994
75,0.050584,0.940448,-0.336154,-0.277421,-0.424457,0.283373
76,0.061748,0.944128,-0.323744,-0.1735799999999999,-0.44396,0.332045
77,0.068921,0.950945,-0.301585,-0.125836,-0.232302,0.4537609999999999
78,0.066109,0.961699,-0.266018,0.048957,0.058458,0.4207109999999999
79,0.053009,0.972706,-0.225906,0.0919649999999999,0.3376429999999999,0.39923
80,0.038773,0.981907,-0.185354,-0.238342,0.236996,0.293051
81,0.03082,0.989165,-0.143537,-0.372677,0.054246,0.170774
82,0.028433,0.994598,-0.099829,-0.2479309999999999,-0.150421,0.085837
83,0.0269209999999999,0.997801,-0.060564,-0.088994,-0.310042,0.078172
84,0.023044,0.999232,-0.031704,-0.002369,-0.336252,0.106182
85,0.014762,0.999831,-0.010971,0.037011,-0.215712,0.13237
86,0.004252,0.999974,0.005828,0.059423,-0.005254,0.165651
87,-0.005213,0.999674,0.024992,0.082698,0.0542659999999999,0.125444
88,-0.013884,0.998775,0.047501,0.175123,-0.034816,-0.065995
89,-0.0253389999999999,0.997334,0.068427,0.231211,-0.123875,-0.175391
90,-0.039329,0.995528,0.08589,0.382927,-0.13005,-0.276472
91,-0.053991,0.993626,0.098954,0.467046,-0.087254,-0.337342
92,-0.066353,0.991653,0.110548,0.470681,-0.122421,-0.23271
93,-0.077468,0.989451,0.122418,0.550673,-0.011454,-0.080502
94,-0.088649,0.986744,0.135932,0.3835409999999999,-0.009297,-0.073508
95,-0.099551,0.984046,0.147455,0.275118,0.134683,-0.103494
96,-0.1097359999999999,0.981921,0.1542349999999999,0.098032,0.08775,-0.162658
97,-0.1190609999999999,0.980685,0.1551799999999999,-0.062122,0.181638,-0.2095929999999999
98,-0.126531,0.980031,0.153391,-0.141505,0.287867,-0.20077
99,-0.132122,0.979755,0.150415,-0.075825,0.230344,-0.151346
100,-0.134209,0.98109,0.139463,0.170113,0.348317,0.071215
101,-0.130046,0.984854,0.1146799999999999,0.334315,0.268061,-0.009623
102,-0.117865,0.990067,0.076646,0.29827,0.228011,-0.003114
103,-0.098217,0.994758,0.028467,0.182521,0.222588,0.0004019999999999
104,-0.077331,0.996594,-0.028656,-0.295365,0.278171,0.014893
105,-0.061827,0.993824,-0.092153,-0.310869,0.280941,0.078389
106,-0.051293,0.986635,-0.154661,-0.396293,0.577955,0.265409
107,-0.035132,0.977664,-0.2072179999999999,0.031592,0.396863,-0.046886
108,-0.008818,0.968431,-0.249127,0.084883,0.42726,-0.128528
109,0.023385,0.958382,-0.284529,0.112022,0.4385449999999999,-0.154085
110,0.0554559999999999,0.946512,-0.317867,0.203699,0.24465,0.031063
111,0.080565,0.932767,-0.351363,0.147188,0.109165,0.123518
112,0.0926159999999999,0.918916,-0.383426,0.072087,-0.207628,0.245059
113,0.093089,0.907619,-0.409344,-0.071238,-0.340999,0.4053469999999999
114,0.088104,0.898565,-0.429904,-0.158447,-0.452078,0.445346
115,0.080146,0.892317,-0.444238,-0.223106,-0.4905069999999999,0.390664
116,0.070865,0.8892479999999999,-0.451902,-0.2596159999999999,-0.509015,0.343443
117,0.061274,0.8884780000000001,-0.45481,-0.238932,-0.5239149999999999,0.310859
118,0.0535519999999999,0.890591,-0.4516409999999999,-0.162744,-0.538632,0.251247
119,0.05124,0.896859,-0.439339,-0.1586,-0.480263,0.15841
120,0.055726,0.906962,-0.41751,-0.177003,-0.418147,0.077849
121,0.065515,0.919313,-0.388036,-0.190835,-0.281373,0.019155
122,0.077184,0.930126,-0.359038,-0.203618,0.011524,-0.059358
123,0.087379,0.936367,-0.339974,-0.05558,0.467091,-0.401008
124,0.08703,0.938394,-0.334429,0.2448789999999999,0.5593779999999999,-0.481077
125,0.08205,0.936363,-0.341309,0.244885,0.054604,-0.301116
126,0.078649,0.930598,-0.357493,0.324885,-0.204692,-0.283407
127,0.0757309999999999,0.925558,-0.370954,0.1995829999999999,-0.214575,-0.374605
128,0.074892,0.925952,-0.37014,0.18788,0.138654,-0.172889
129,0.073678,0.928142,-0.36486,0.169303,0.353825,-0.064705
130,0.0726639999999999,0.930541,-0.358905,-0.134966,0.968598,0.172625
131,0.075642,0.93357,-0.350321,-0.645237,0.321343,0.104349
132,0.083259,0.934236,-0.346801,-0.406837,-0.498949,0.152526
133,0.0876509999999999,0.935434,-0.342463,-0.19222,-0.541101,0.221003
134,0.0908799999999999,0.939297,-0.33085,-0.076232,-0.3478969999999999,0.472131
135,0.084309,0.948926,-0.304025,0.034588,-0.2465949999999999,0.5210359999999999
136,0.062979,0.960688,-0.270392,0.078638,0.5188649999999999,0.411338
137,0.044936,0.971027,-0.234706,-0.103453,0.5309560000000001,0.302303
138,0.038894,0.980014,-0.195089,-0.399581,0.18707,0.1185359999999999
139,0.040719,0.987313,-0.153479,-0.2250909999999999,-0.217751,-0.023203
140,0.038445,0.992552,-0.115593,-0.065575,-0.318404,0.077751
141,0.032007,0.995719,-0.086708,0.039419,-0.259834,0.161202
142,0.022626,0.997607,-0.06534,0.104235,-0.117754,0.156862
143,0.010655,0.998933,-0.04493,0.1057849999999999,0.025969,0.142052
144,-0.000574,0.999721,-0.02362,0.078699,0.043385,0.109329
145,-0.009091,0.999957,-0.001877,0.062222,-0.177676,0.023545
146,-0.019277,0.99963,0.019185,0.106175,-0.19981,-0.034093
147,-0.033229,0.998587,0.041477,0.181774,-0.154211,-0.087574
148,-0.050127,0.996684,0.064098,0.291383,-0.133357,-0.210246
149,-0.069154,0.994052,0.084133,0.332963,-0.042926,-0.2534909999999999
150,-0.088434,0.990798,0.102463,0.262812,-0.061111,-0.10022
151,-0.104084,0.987708,0.116617,0.285984,0.0431449999999999,0.0483769999999999
152,-0.1149319999999999,0.985058,0.1282599999999999,0.247348,-0.00845,0.018392
153,-0.121265,0.983086,0.13725,0.241444,0.029717,-0.024457
154,-0.124347,0.982029,0.141971,0.183139,0.176998,-0.111317
155,-0.12426,0.981714,0.144214,0.161416,0.339179,-0.21297
156,-0.122055,0.981989,0.144224,0.204071,0.417822,-0.210966
157,-0.1202869999999999,0.982748,0.140489,0.203219,0.34231,-0.165208
158,-0.116118,0.984802,0.129154,0.234435,0.339752,-0.012073
159,-0.109271,0.988459,0.104924,0.293566,0.199102,0.02064
160,-0.097052,0.993115,0.065607,0.27912,-0.087139,-0.012369
161,-0.080433,0.996662,0.0140069999999999,0.015842,-0.05521,-0.022155
162,-0.063386,0.996753,-0.049658,-0.226928,0.07182,0.151556
163,-0.048927,0.991313,-0.1220869999999999,-0.439827,0.640447,0.089723
164,-0.035574,0.980406,-0.193751,-0.665201,1.018557,0.134501
165,-0.013046,0.969854,-0.243337,-0.40593,0.449839,-0.104716
166,0.023098,0.960027,-0.278954,-0.082409,0.389399,-0.2575
167,0.0662519999999999,0.94911,-0.307896,0.092515,0.356996,-0.130138
168,0.1058849999999999,0.936815,-0.333415,0.151073,0.278441,0.072139
169,0.135927,0.922841,-0.3603989999999999,0.12152,-0.028936,0.19124
170,0.152645,0.908962,-0.387926,-0.0014609999999999,-0.307751,0.2335679999999999
171,0.152219,0.8990239999999999,-0.410591,-0.086392,-0.486045,0.399467
172,0.142139,0.892408,-0.4282579999999999,-0.0929909999999999,-0.583875,0.428746
173,0.125423,0.888403,-0.4415979999999999,-0.191661,-0.617682,0.297952
174,0.104484,0.887698,-0.448414,-0.186272,-0.61423,0.261479
175,0.082648,0.890534,-0.447347,-0.1554019999999999,-0.6021270000000001,0.219457
176,0.064411,0.8966040000000001,-0.4381229999999999,-0.16074,-0.442533,0.072339
177,0.0523919999999999,0.905528,-0.421039,-0.138573,-0.405833,0.039753
178,0.0467529999999999,0.91605,-0.39833,-0.14325,-0.233067,-0.059098
179,0.047987,0.927236,-0.3713889999999999,-0.134153,0.007853,-0.207392
180,0.054514,0.937393,-0.343981,-0.044611,0.44072,-0.3190739999999999
181,0.063494,0.943844,-0.324233,0.122846,0.804707,-0.33783
182,0.0700549999999999,0.943857,-0.322841,0.211271,0.7196100000000001,-0.360631
183,0.077959,0.938008,-0.337734,0.284331,0.461788,-0.367985
184,0.086572,0.930889,-0.354896,0.1639779999999999,-0.305431,-0.425835
185,0.090338,0.927054,-0.363883,0.088312,-0.3492949999999999,-0.295877
186,0.089301,0.926988,-0.364306,0.069222,-0.205583,-0.205259
187,0.083142,0.92778,-0.363746,-0.1537589999999999,0.460556,0.1046059999999999
188,0.070302,0.927338,-0.367562,-0.313802,0.78479,0.189522
189,0.056746,0.927628,-0.369169,-0.464476,0.602645,0.247908
190,0.058121,0.929326,-0.364659,-0.235779,-0.387745,0.294881
191,0.063742,0.932933,-0.354364,-0.118063,-0.341456,0.363473
192,0.069475,0.938124,-0.33926,0.016493,-0.205046,0.453838
193,0.069617,0.947104,-0.313284,0.207803,0.038949,0.412527
194,0.0599279999999999,0.958313,-0.279365,0.210244,0.360291,0.374809
195,0.047722,0.968855,-0.242988,-0.018181,0.342409,0.331443
196,0.041072,0.977806,-0.205446,-0.192195,0.145088,0.2448449999999999
197,0.039735,0.985363,-0.165776,-0.222428,-0.072734,0.125432
198,0.038334,0.991124,-0.12729,-0.203251,-0.218862,0.071382
199,0.033906,0.994862,-0.095389,-0.106415,-0.272206,0.080695
200,0.024084,0.997123,-0.071878,-0.038031,-0.149558,0.144953
201,0.010109,0.998466,-0.054437,-0.024056,-0.150901,0.1275109999999999
202,-0.003166,0.999288,-0.037591,0.054588,-0.0257319999999999,0.153313
203,-0.013321,0.999748,-0.0180509999999999,0.121582,-0.1075059999999999,0.10942
204,-0.023587,0.999712,0.0043479999999999,0.145977,-0.11394,0.066194
205,-0.036947,0.998933,0.027696,0.2241719999999999,-0.087495,-0.094468
206,-0.053789,0.997245,0.051085,0.306719,-0.102591,-0.2145679999999999
207,-0.073005,0.994739,0.071864,0.374656,-0.044635,-0.252956
208,-0.092028,0.991646,0.090382,0.400118,-0.045265,-0.13715
209,-0.1073339999999999,0.988623,0.105374,0.476872,0.075235,-0.037518
210,-0.120326,0.985672,0.1182049999999999,0.334956,-0.021896,-0.0321759999999999
211,-0.129932,0.983251,0.127805,0.2326239999999999,-0.03301,-0.058332
212,-0.137929,0.981505,0.1327559999999999,0.2433969999999999,0.164354,-0.157171
213,-0.143846,0.980553,0.133511,0.310853,0.341454,-0.1895869999999999
214,-0.146804,0.980262,0.132421,0.379348,0.412499,-0.205801
215,-0.145944,0.980809,0.1292859999999999,0.317529,0.384929,-0.203184
216,-0.140425,0.982754,0.1203109999999999,0.2620369999999999,0.399524,-0.046138
217,-0.130404,0.986453,0.099527,0.240725,0.3755469999999999,0.107047
218,-0.115049,0.99109,0.067122,0.197553,-0.08223,0.063341
219,-0.094497,0.995258,0.023068,0.076674,-0.062809,0.096775
220,-0.074272,0.996665,-0.033805,-0.08033,0.004113,0.111533
221,-0.056191,0.993539,-0.0986,-0.590431,0.853613,0.1552869999999999
222,-0.04112,0.985644,-0.1637549999999999,-0.713671,0.983091,0.234555
223,-0.021318,0.976732,-0.2134,-0.395308,0.354704,-0.100366
224,0.012044,0.968081,-0.250347,-0.080343,0.338834,-0.109822
225,0.053671,0.957727,-0.282628,-0.02294,0.331534,-0.0601149999999999
226,0.092777,0.945117,-0.313283,0.043392,0.167737,0.201497
227,0.1237089999999999,0.929429,-0.347645,0.0460449999999999,-0.053026,0.228291
228,0.145399,0.911992,-0.3835739999999999,-0.002241,-0.201619,0.237944
229,0.14892,0.899041,-0.4117619999999999,-0.119348,-0.4518979999999999,0.431858
230,0.142069,0.89086,-0.4314909999999999,-0.144007,-0.5165930000000001,0.410236
231,0.130877,0.8857229999999999,-0.4453819999999999,-0.153063,-0.533047,0.353982
232,0.116195,0.8848450000000001,-0.451163,-0.199645,-0.558063,0.226294
233,0.100227,0.8875709999999999,-0.449635,-0.154701,-0.5494060000000001,0.158375
234,0.086007,0.892655,-0.442458,-0.1310049999999999,-0.552766,0.1062309999999999
235,0.077551,0.9005719999999999,-0.427733,-0.124273,-0.449888,0.028838
236,0.075443,0.910543,-0.406473,-0.145801,-0.363348,-0.024878
237,0.078347,0.921387,-0.380668,-0.172555,-0.281403,-0.130639
238,0.087113,0.931342,-0.353573,-0.04924,0.296746,-0.372944
239,0.099391,0.937572,-0.333286,0.2615409999999999,0.8620190000000001,-0.4525109999999999
240,0.104307,0.937376,-0.332335,0.460161,0.8101520000000001,-0.295641
241,0.107275,0.930192,-0.35105,0.354548,0.164169,-0.341425
242,0.10705,0.92169,-0.372863,0.270834,-0.348509,-0.421952
243,0.10159,0.919286,-0.380254,0.1161069999999999,-0.5813649999999999,-0.366084
244,0.0975299999999999,0.923905,-0.369984,0.133229,-0.397461,-0.255626
245,0.093138,0.928795,-0.358699,-0.126722,0.198448,0.13116
246,0.089142,0.931637,-0.352286,-0.263688,0.516803,0.196707
247,0.084434,0.933692,-0.347979,-0.527305,1.202218,0.169238
248,0.10044,0.936163,-0.336913,-0.2999489999999999,-0.406302,0.4005579999999999
249,0.1177619999999999,0.936603,-0.330011,-0.253978,-0.720431,0.358332
250,0.124772,0.938221,-0.322759,-0.122026,-0.36533,0.315663
251,0.121749,0.944321,-0.305672,0.008957,-0.176819,0.407326
252,0.106084,0.955762,-0.274345,0.125773,0.157336,0.3967969999999999
253,0.077929,0.967889,-0.2389949999999999,0.086164,0.488593,0.408505
254,0.055208,0.977576,-0.203216,-0.385316,0.3144619999999999,0.2213889999999999
255,0.048043,0.985128,-0.164966,-0.327569,0.097467,0.112125
256,0.046368,0.990864,-0.126645,-0.237713,-0.079945,0.027005
257,0.041591,0.994623,-0.094842,-0.010509,-0.349161,0.1280609999999999
258,0.031512,0.996884,-0.072315,-0.023578,-0.337323,0.132313
259,0.019107,0.998358,-0.054013,0.011853,-0.26293,0.136257
260,0.005606,0.999372,-0.034983,0.077234,-0.018583,0.140727
261,-0.005959,0.999893,-0.013347,0.078027,-0.036255,0.115474
262,-0.017357,0.999799,0.010053,0.072823,-0.083554,0.0556059999999999
263,-0.030565,0.998955,0.033967,0.150454,-0.138772,-0.125169
264,-0.046386,0.997322,0.056538,0.216567,-0.140877,-0.178151
265,-0.063737,0.995104,0.075541,0.313417,-0.0827649999999999,-0.212153
266,-0.080444,0.992502,0.092027,0.382538,-0.0224849999999999,-0.114717
267,-0.0943789999999999,0.989823,0.1065079999999999,0.383975,0.060821,-0.032167
268,-0.107152,0.987133,0.118689,0.195408,0.022511,-0.023901
269,-0.117847,0.984845,0.127249,0.142154,0.033023,-0.076071
270,-0.128421,0.983018,0.131088,0.137378,0.108154,-0.118729
271,-0.137757,0.981803,0.130715,0.279466,0.256555,-0.160348
272,-0.142921,0.981271,0.129153,0.396736,0.339652,-0.191241
273,-0.143668,0.981312,0.128013,0.374213,0.385189,-0.175773
274,-0.137743,0.982912,0.12211,0.212908,0.396895,0.093192
275,-0.126115,0.986562,0.103881,0.154344,0.232784,-0.024046
276,-0.1069859999999999,0.991527,0.073683,0.0940309999999999,0.179967,0.02411
277,-0.083344,0.996056,0.030449,-0.217254,0.022926,-0.064079
278,-0.06236,0.997681,-0.027264,-0.4570649999999999,0.138183,-0.02367
279,-0.045893,0.994679,-0.092234,-0.580206,0.36523,0.079111
280,-0.035477,0.987369,-0.154416,-0.578507,0.61839,0.2362639999999999
281,-0.018955,0.978976,-0.203092,-0.106305,0.307813,-0.0574059999999999
282,0.01144,0.96994,-0.243077,0.097233,0.355744,-0.169613
283,0.049745,0.959133,-0.278547,0.173964,0.277607,-0.049104
284,0.084322,0.945596,-0.314227,0.191389,0.176673,0.058062
285,0.112995,0.929374,-0.351419,0.121349,0.103585,0.122675
286,0.132708,0.913223,-0.385243,0.041654,-0.33316,0.2446019999999999
287,0.133686,0.901168,-0.41234,-0.044636,-0.486922,0.427065
288,0.125709,0.892804,-0.4325489999999999,-0.05558,-0.516003,0.413384
289,0.113724,0.887968,-0.4456229999999999,-0.164429,-0.589384,0.289815
290,0.1005409999999999,0.8868860000000001,-0.4509149999999999,-0.194764,-0.6034079999999999,0.249148
291,0.087393,0.8891459999999999,-0.449202,-0.193503,-0.589707,0.212721
292,0.076044,0.894252,-0.441057,-0.17486,-0.423152,0.096712
293,0.069138,0.902218,-0.425702,-0.137482,-0.35217,0.030545
294,0.070285,0.912697,-0.402548,-0.126834,-0.318992,-0.001489
295,0.080451,0.92387,-0.374155,-0.133536,-0.0582539999999999,-0.160437
296,0.0968639999999999,0.932817,-0.347088,-0.026949,0.308013,-0.304219
297,0.112593,0.936899,-0.330973,0.047091,0.505179,-0.368871
298,0.120571,0.935092,-0.333266,0.282124,0.631498,-0.384049
299,0.124251,0.929215,-0.348024,0.275408,0.160964,-0.363463
300,0.125792,0.923176,-0.363211,0.197389,-0.2597239999999999,-0.386636
301,0.125216,0.920808,-0.369369,0.186643,-0.313569,-0.392808
302,0.123895,0.921402,-0.368332,0.1047119999999999,0.482987,0.035309
303,0.121869,0.92115,-0.369636,0.0411259999999999,0.7652359999999999,0.1590339999999999
304,0.120698,0.921968,-0.367976,-0.089234,0.956389,0.209621
305,0.127263,0.925197,-0.357513,-0.500432,-0.4635109999999999,0.251876
306,0.132212,0.927759,-0.3489739999999999,-0.451136,-0.577906,0.2405139999999999
307,0.132424,0.931191,-0.339627,-0.374261,-0.530053,0.269406
308,0.129159,0.937644,-0.322711,0.071265,-0.080512,0.4899779999999999
309,0.114976,0.949587,-0.29166,0.155639,0.170866,0.426914
310,0.091166,0.962599,-0.255131,0.19927,0.38463,0.384587
311,0.075619,0.973441,-0.21609,-0.3321489999999999,0.289926,0.22436
312,0.073905,0.981807,-0.1749079999999999,-0.2710329999999999,-0.069164,0.071026
313,0.075271,0.988231,-0.133166,-0.14244,-0.295848,0.0361509999999999
314,0.071299,0.992695,-0.09733,-0.0297339999999999,-0.326542,0.12063
315,0.0623049999999999,0.99558,-0.070276,-3.4e-05,-0.312963,0.139123
316,0.049821,0.997519,-0.049727,0.0780169999999999,-0.081412,0.155989
317,0.036323,0.998868,-0.0306959999999999,0.101326,0.026949,0.117168
318,0.025176,0.999628,-0.010475,0.093949,0.013113,0.074241
319,0.016071,0.999801,0.011783,0.10368,-0.12825,0.035397
320,0.004608,0.999407,0.034117,0.10495,-0.14905,-0.1208019999999999
321,-0.0096969999999999,0.998342,0.056733,0.178368,-0.159765,-0.187394
322,-0.027241,0.996577,0.078049,0.307301,-0.125407,-0.2427679999999999
323,-0.046379,0.994261,0.0964049999999999,0.350136,-0.049177,-0.177094
324,-0.064409,0.991447,0.113508,0.3781,-0.020286,-0.102766
325,-0.080924,0.988289,0.129369,0.360877,0.063087,-0.000371
326,-0.0940169999999999,0.985084,0.144119,0.200691,0.0364,-0.032623
327,-0.104277,0.982236,0.156007,0.155821,0.072268,-0.052033
328,-0.112757,0.980401,0.161552,0.104457,0.290808,-0.156257
329,-0.118652,0.979505,0.162765,0.126525,0.301654,-0.233764
330,-0.120891,0.97948,0.161261,0.204998,0.344587,-0.225028
331,-0.119339,0.980519,0.156015,0.154328,0.4008739999999999,0.078253
332,-0.111713,0.983931,0.139284,0.238361,0.31888,0.074126
333,-0.099086,0.989035,0.1095109999999999,0.213633,0.2146239999999999,0.012422
334,-0.079751,0.99448,0.068183,-0.018469,-0.0033759999999999,-0.052665
335,-0.057857,0.998215,0.014819,-0.2198369999999999,0.0073549999999999,0.022443
336,-0.038148,0.998186,-0.046574,-0.331146,0.099562,0.135181
337,-0.023099,0.993192,-0.114179,-0.600589,0.800433,0.163251
338,-0.008436,0.985037,-0.1721339999999999,-0.456209,0.503595,0.0524289999999999
339,0.019077,0.976255,-0.215782,-0.264332,0.373614,-0.050026
340,0.057048,0.965845,-0.252763,0.080083,0.356955,-0.106566
341,0.094979,0.953062,-0.287493,0.154884,0.26755,0.045245
342,0.124191,0.937305,-0.325631,0.072159,0.091686,0.135323
343,0.145669,0.919994,-0.363857,0.032721,-0.190944,0.182048
344,0.151079,0.905493,-0.3965579999999999,-0.097291,-0.4097189999999999,0.322202
345,0.144788,0.895357,-0.421155,-0.140867,-0.4631369999999999,0.396314
346,0.133544,0.888758,-0.4384909999999999,-0.19873,-0.557353,0.305923
347,0.1188309999999999,0.886228,-0.447748,-0.209087,-0.567198,0.254831
348,0.1017769999999999,0.8875069999999999,-0.449413,-0.192567,-0.584361,0.220592
349,0.084631,0.8922549999999999,-0.443531,-0.123297,-0.523266,0.133442
350,0.07201,0.8997379999999999,-0.4304479999999999,-0.131473,-0.3814889999999999,0.074537
351,0.066491,0.908985,-0.411492,-0.1133349999999999,-0.341678,0.034844
352,0.068994,0.918657,-0.388984,-0.103951,-0.11635,-0.161172
353,0.078628,0.926282,-0.368537,-0.045211,0.253268,-0.300805
354,0.089585,0.930053,-0.356336,0.0151199999999999,0.459656,-0.377764
355,0.095576,0.929671,-0.355776,0.174017,0.567079,-0.477216
356,0.102133,0.925597,-0.364471,0.179041,0.217027,-0.447175
357,0.110107,0.919157,-0.378189,0.0172879999999999,0.046312,-0.361557
358,0.116724,0.91097,-0.395613,0.015966,0.185085,-0.237504
359,0.114796,0.905096,-0.409418,-0.219746,0.3678079999999999,0.2353309999999999
360,0.111224,0.906231,-0.40789,-0.403933,0.0618779999999999,0.25132
361,0.11029,0.910224,-0.399159,-0.5331560000000001,-0.141425,0.208882
362,0.111777,0.915943,-0.385427,-0.213691,-0.492878,0.499502
363,0.117243,0.924457,-0.362813,-0.1221869999999999,-0.490955,0.529591
364,0.118897,0.938815,-0.323248,-0.067201,-0.362308,0.469992
365,0.109305,0.954476,-0.27754,0.111597,0.771644,0.312758
366,0.095624,0.967597,-0.233692,-0.149549,0.536568,0.240848
367,0.092016,0.976167,-0.196545,-0.141119,0.005949,0.200452
368,0.091114,0.982238,-0.1640309999999999,-0.130176,-0.185043,0.1062
369,0.086267,0.987499,-0.131923,-0.128152,-0.2491409999999999,0.087261
370,0.077836,0.991872,-0.100654,-0.040238,-0.325429,0.1406619999999999
371,0.067525,0.995071,-0.072621,0.04008,-0.221908,0.109776
372,0.053661,0.997428,-0.047525,0.068928,-0.159262,0.1035859999999999
373,0.038118,0.998986,-0.023943,0.065184,-0.021218,0.129976
374,0.025749,0.999668,0.001247,0.10122,-0.084018,0.0658919999999999
375,0.01372,0.999565,0.026087,0.133466,-0.112481,-0.02476
376,-0.0002379999999999,0.998714,0.050702,0.170236,-0.134425,-0.223813
377,-0.017109,0.996972,0.075859,0.266713,-0.149361,-0.210838
378,-0.036263,0.994485,0.09841,0.333352,-0.05932,-0.2149869999999999
379,-0.055576,0.991501,0.117629,0.31763,-0.0572509999999999,-0.139204
380,-0.073038,0.98801,0.136019,0.345224,-0.012424,-0.073076
381,-0.08884,0.984196,0.153186,0.310108,-0.042759,-0.054873
382,-0.101896,0.980464,0.168248,0.2254469999999999,0.1285599999999999,-0.062276
383,-0.112514,0.977414,0.17889,0.13737,0.301196,-0.1829339999999999
384,-0.120047,0.976036,0.181501,0.067663,0.369988,-0.244703
385,-0.124542,0.975756,0.17997,0.133926,0.362165,-0.225227
386,-0.1272339999999999,0.976315,0.174985,0.267493,0.435962,-0.1446039999999999
387,-0.126643,0.978696,0.161604,0.294581,0.560321,0.063677
388,-0.1186069999999999,0.983646,0.135543,0.251694,0.4348109999999999,0.10582
389,-0.099982,0.989747,0.101999,0.070502,-0.136903,-0.0826809999999999
390,-0.073689,0.995476,0.059982,0.044209,-0.1426319999999999,-0.040664
391,-0.0474889999999999,0.998848,0.00685,-0.133205,0.074333,0.0991679999999999
392,-0.026239,0.998092,-0.055888,-0.265692,0.8159489999999999,0.117014
393,-0.009869,0.992464,-0.122141,-0.33823,0.8509200000000001,0.166163
394,0.010134,0.984156,-0.177012,-0.31174,0.457509,0.0344029999999999
395,0.040925,0.974271,-0.221632,-0.1104589999999999,0.329394,-0.087328
396,0.077833,0.962105,-0.261334,0.0289019999999999,0.344169,-0.044269
397,0.109224,0.947393,-0.300859,0.05458,0.32168,0.171968
398,0.128332,0.930939,-0.341883,-0.049185,-0.016235,0.310419
399,0.136587,0.914638,-0.380501,-0.1130119999999999,-0.3340869999999999,0.371788
400,0.135182,0.900752,-0.4127619999999999,-0.163441,-0.451762,0.380459
401,0.12653,0.890748,-0.43653,-0.174137,-0.497102,0.359107
402,0.1142599999999999,0.884817,-0.451711,-0.170336,-0.527807,0.311635
403,0.100297,0.882733,-0.459045,-0.145722,-0.579236,0.272186
404,0.0833309999999999,0.884423,-0.459187,-0.086994,-0.588585,0.15308
405,0.065805,0.8896350000000001,-0.451906,-0.0912419999999999,-0.5032979999999999,0.086412
406,0.0523649999999999,0.897143,-0.438625,-0.086895,-0.4214199999999999,0.028697
407,0.047501,0.905575,-0.421519,0.02658,-0.170864,-0.161031
408,0.055227,0.913693,-0.402634,0.036432,-0.053494,-0.227508
409,0.069624,0.919062,-0.387914,0.038667,0.097432,-0.320994
410,0.078447,0.920048,-0.383873,0.104399,0.5212979999999999,-0.44387
411,0.0784919999999999,0.917063,-0.39094,0.215988,0.165426,-0.363851
412,0.076258,0.914367,-0.3976409999999999,-0.027873,-0.159133,-0.322086
413,0.073363,0.913461,-0.40026,-0.060057,0.1217109999999999,-0.150293
414,0.068145,0.910675,-0.407464,-0.05072,0.406158,0.023431
415,0.0539059999999999,0.903853,-0.424434,-0.287701,1.111314,0.218685
416,0.0366,0.8997059999999999,-0.434959,-0.4916939999999999,-0.078783,0.228904
417,0.03348,0.90064,-0.433274,-0.297305,-0.427343,0.268876
418,0.04051,0.90424,-0.425098,-0.0541049999999999,-0.491826,0.536319
419,0.0565639999999999,0.912525,-0.405092,0.105271,-0.298648,0.572603
420,0.065841,0.927352,-0.368352,0.207871,-0.120422,0.478917
421,0.059869,0.943139,-0.326963,0.377326,0.609046,0.2665679999999999
422,0.048213,0.957082,-0.285779,0.016057,0.4931439999999999,0.277905
423,0.043315,0.967735,-0.2482199999999999,-0.088969,0.28962,0.257375
424,0.040413,0.976115,-0.213463,-0.151619,-0.139552,0.129814
425,0.033539,0.982653,-0.182396,-0.1353,-0.31589,0.064613
426,0.023096,0.987648,-0.154979,-0.0767,-0.336418,0.062618
427,0.012024,0.991488,-0.129643,0.006836,-0.2156699999999999,0.09911
428,0.00081,0.994399,-0.10569,0.009703,-0.119063,0.117119
429,-0.009556,0.996496,-0.083092,0.013142,-0.109274,0.124489
430,-0.017832,0.997899,-0.062294,0.059824,-0.2117659999999999,0.131172
431,-0.0274089999999999,0.998707,-0.042823,0.152608,-0.192097,0.081138
432,-0.040997,0.998909,-0.022383,0.147244,-0.078239,0.015913
433,-0.056813,0.998385,0.000293,0.243703,-0.028963,-0.110706
434,-0.075034,0.996911,0.023184,0.286307,-0.020181,-0.204413
435,-0.0940039999999999,0.994571,0.044622,0.332743,0.040722,-0.220815
436,-0.110993,0.991922,0.06141,0.323502,0.028982,-0.043755
437,-0.124751,0.989436,0.073844,0.272852,-0.005321,0.015863
438,-0.1360589999999999,0.987101,0.084377,0.252164,0.031393,0.0089459999999999
439,-0.146476,0.985042,0.090755,0.371116,0.342884,-0.102794
440,-0.154889,0.983551,0.092936,0.433758,0.384354,-0.249903
441,-0.1582829999999999,0.983051,0.092509,0.4500619999999999,0.351926,-0.279719
442,-0.1537369999999999,0.984585,0.083407,0.326284,0.3457679999999999,0.007276
443,-0.1418309999999999,0.987946,0.062026,0.319642,0.145599,0.108948
444,-0.1239369999999999,0.991879,0.028555,0.203283,-0.048581,0.072641
445,-0.101071,0.994776,-0.014306,0.025067,-0.010142,0.1469359999999999
446,-0.078946,0.994543,-0.068205,-0.206592,0.1597839999999999,0.144011
447,-0.058364,0.989794,-0.1300079999999999,-0.305344,0.398314,0.183032
448,-0.040079,0.981029,-0.189675,-0.5934659999999999,0.970097,0.210823
449,-0.0152419999999999,0.971864,-0.235048,-0.266527,0.29634,-0.18379
450,0.0197889999999999,0.96276,-0.269633,-0.1726359999999999,0.2983639999999999,-0.193319
451,0.062878,0.952775,-0.297097,-0.13377,0.291274,-0.168311
452,0.106313,0.941346,-0.320258,0.089976,0.206527,0.1511289999999999
453,0.140879,0.927957,-0.345034,0.05541,0.2199159999999999,0.175906
454,0.168142,0.912489,-0.372951,0.0226689999999999,-0.242948,0.232632
455,0.177207,0.899655,-0.399023,-0.063667,-0.411419,0.381216
456,0.169251,0.891677,-0.4198409999999999,-0.089615,-0.470473,0.447963
457,0.152017,0.8864700000000001,-0.437106,-0.161661,-0.5592600000000001,0.368732
458,0.129281,0.883848,-0.449555,-0.187783,-0.575727,0.268464
459,0.106793,0.884608,-0.453942,-0.174176,-0.570704,0.233895
460,0.087846,0.887934,-0.451505,-0.192094,-0.466562,0.172879
461,0.0738409999999999,0.8934639999999999,-0.4430229999999999,-0.186054,-0.396837,0.133178
462,0.065859,0.901751,-0.427209,-0.19385,-0.309695,0.060846
463,0.064084,0.911998,-0.405158,-0.231031,-0.110439,-0.065439
464,0.067855,0.921516,-0.382367,-0.1675859999999999,0.216439,-0.252246
465,0.0765049999999999,0.9276,-0.365656,-0.076566,0.40849,-0.314306
466,0.084129,0.928582,-0.361466,0.196648,0.732169,-0.393005
467,0.087324,0.924111,-0.372012,0.252504,0.629004,-0.363126
468,0.091488,0.91863,-0.384381,0.266361,0.0216629999999999,-0.362735
469,0.095486,0.915523,-0.390767,0.026111,-0.061657,-0.254542
470,0.096416,0.914303,-0.393388,0.0306889999999999,0.164204,-0.09912
471,0.092206,0.910039,-0.4041369999999999,0.0069599999999999,0.485469,0.024437
472,0.081148,0.904893,-0.417831,-0.251345,1.062743,0.187363
473,0.073758,0.905064,-0.418831,-0.610486,-0.120045,0.321815
474,0.078065,0.908211,-0.411168,-0.455643,-0.503258,0.354313
475,0.087755,0.911463,-0.401913,-0.216189,-0.460367,0.4555939999999999
476,0.099203,0.918727,-0.38223,-0.048361,-0.293177,0.544172
477,0.10188,0.933081,-0.344936,0.197009,0.161951,0.455348
478,0.092598,0.948977,-0.301442,0.2540199999999999,0.573758,0.381017
479,0.080915,0.962309,-0.259642,-0.130232,0.595384,0.351606
480,0.079376,0.972304,-0.21983,-0.329818,0.3841719999999999,0.257901
481,0.085864,0.980433,-0.177138,-0.3161199999999999,-0.116328,0.08966
482,0.089958,0.986568,-0.136352,-0.184685,-0.326778,0.078399
483,0.088636,0.990779,-0.102477,-0.105817,-0.351832,0.079421
484,0.082149,0.993821,-0.074643,0.0173539999999999,-0.296128,0.121609
485,0.0697909999999999,0.996268,-0.0507899999999999,0.0983909999999999,-0.008002,0.173104
486,0.05576,0.997978,-0.030501,0.112422,-0.009712,0.152816
487,0.043624,0.998998,-0.010022,0.146378,-0.046102,0.111615
488,0.03177,0.99942,0.01223,0.179167,-0.0936429999999999,-0.005913
489,0.017824,0.99919,0.036077,0.214308,-0.102202,-0.093953
490,0.001294,0.998115,0.061363,0.345782,-0.171897,-0.2351
491,-0.018218,0.996306,0.0839159999999999,0.334655,-0.164458,-0.252618
492,-0.038187,0.993992,0.102571,0.373605,-0.0692639999999999,-0.233232
493,-0.055246,0.991512,0.117692,0.404779,0.032536,0.00212
494,-0.067508,0.98916,0.1304,0.328921,0.036459,-0.0283649999999999
495,-0.076245,0.987077,0.140944,0.269085,0.038695,-0.038741
496,-0.083272,0.985738,0.146244,0.112202,0.2176469999999999,-0.134693
497,-0.088461,0.985096,0.147517,0.082586,0.291104,-0.245967
498,-0.090986,0.984999,0.146625,0.1051609999999999,0.302843,-0.257266
499,-0.091734,0.985773,0.140842,0.215926,0.328924,-0.098285
500,-0.087544,0.988307,0.124844,0.181217,0.2674,0.009861
501,-0.077037,0.992323,0.096747,0.255687,0.194429,0.01626
502,-0.06201,0.996555,0.055075,0.162321,0.0307579999999999,0.018808
503,-0.044274,0.999019,-0.000695,-0.051063,0.092701,0.021249
504,-0.02648,0.997486,-0.065735,-0.144708,0.148404,0.138718
505,-0.012155,0.990565,-0.136506,-0.385229,0.84783,0.225404
506,0.004241,0.980316,-0.197389,-0.4514149999999999,0.477142,0.024339
507,0.033291,0.969802,-0.24161,-0.36961,0.357957,-0.103361
508,0.073945,0.95818,-0.276446,0.037978,0.347667,-0.162503
509,0.1180799999999999,0.944557,-0.30638,0.177926,0.3339,0.053572
510,0.1506839999999999,0.928478,-0.339444,0.152462,0.256473,0.2065699999999999
511,0.1716059999999999,0.910402,-0.376456,0.102945,-0.190569,0.222083
512,0.177877,0.8943,-0.4105939999999999,0.012248,-0.393583,0.293177
513,0.169877,0.88374,-0.436056,-0.050232,-0.463605,0.37908
514,0.156861,0.8770899999999999,-0.453991,-0.185975,-0.545623,0.3532679999999999
515,0.141178,0.8736,-0.4657159999999999,-0.215031,-0.542805,0.306063
516,0.121959,0.873009,-0.472208,-0.205425,-0.551934,0.292902
517,0.1015399999999999,0.874864,-0.4736069999999999,-0.166054,-0.564393,0.225408
518,0.084935,0.879841,-0.467618,-0.18871,-0.4648319999999999,0.160153
519,0.075399,0.888258,-0.453114,-0.168905,-0.439879,0.134007
520,0.074758,0.899601,-0.4302649999999999,-0.163366,-0.280003,0.012465
521,0.082985,0.911689,-0.402414,-0.147163,-0.0131449999999999,-0.160056
522,0.097697,0.920902,-0.377354,-0.103052,0.179837,-0.291332
523,0.11044,0.92591,-0.36124,0.304172,0.738153,-0.402035
524,0.111178,0.924952,-0.363459,0.342878,0.564168,-0.339346
525,0.109889,0.919717,-0.376889,0.33437,0.277289,-0.318378
526,0.109443,0.915712,-0.386644,0.118524,-0.351091,-0.379179
527,0.109953,0.916008,-0.385798,0.082567,-0.086189,-0.203984
528,0.109993,0.917025,-0.383361,0.06295,0.084562,-0.105195
529,0.109438,0.915344,-0.387517,-0.157412,1.1204690000000002,0.130696
530,0.105594,0.915235,-0.388837,-0.543063,0.8762690000000001,0.259809
531,0.115413,0.916855,-0.382173,-0.4671439999999999,-0.425751,0.3683639999999999
532,0.125277,0.919418,-0.372796,-0.389391,-0.632644,0.316827
533,0.133638,0.923494,-0.359582,-0.229921,-0.354464,0.470528
534,0.136643,0.933642,-0.3311199999999999,0.012679,-0.082278,0.462925
535,0.1246319999999999,0.948116,-0.292477,0.185412,0.242756,0.408535
536,0.104646,0.961834,-0.252831,0.052138,0.5151859999999999,0.374291
537,0.091832,0.972725,-0.2130099999999999,-0.293324,0.388069,0.280286
538,0.091316,0.981233,-0.16983,-0.285682,0.039854,0.166595
539,0.093164,0.98756,-0.126675,-0.156869,-0.228145,0.100735
540,0.091737,0.991603,-0.091149,-0.046006,-0.325923,0.119165
541,0.085025,0.994288,-0.064515,-0.0250729999999999,-0.312876,0.130845
542,0.073492,0.996388,-0.042532,0.026911,-0.15598,0.140249
543,0.0602179999999999,0.99792,-0.0230259999999999,0.049523,-0.066783,0.134476
544,0.048437,0.998817,-0.004311,0.085672,-0.024955,0.114907
545,0.03702,0.999184,0.016152,0.138151,-0.107857,-0.023919
546,0.022835,0.998976,0.039061,0.240654,-0.142454,-0.1177349999999999
547,0.00554,0.998002,0.062936,0.31404,-0.142457,-0.176537
548,-0.013778,0.9963,0.084837,0.387175,-0.03762,-0.229917
549,-0.033729,0.993988,0.104169,0.434349,-0.0051719999999999,-0.151669
550,-0.0522169999999999,0.991542,0.118819,0.4647989999999999,0.002858,-0.071059
551,-0.067109,0.989088,0.131155,0.258393,0.035357,-0.077048
552,-0.078777,0.986605,0.142843,0.270061,0.037839,-0.088736
553,-0.088899,0.985012,0.147811,0.070756,0.249653,-0.164748
554,-0.097221,0.984294,0.147356,0.194145,0.324346,-0.182756
555,-0.101256,0.98422,0.145117,0.233,0.307925,-0.217322
556,-0.100436,0.985106,0.139564,0.2316929999999999,0.469758,-0.066703
557,-0.092235,0.98797,0.1241299999999999,0.216579,0.269019,0.0281519999999999
558,-0.077477,0.992387,0.095733,0.230111,0.1593,0.004288
559,-0.056915,0.996801,0.056114,0.002411,-0.009038,-0.018806
560,-0.035873,0.999354,0.002147,-0.102539,0.085393,0.016118
561,-0.018318,0.997914,-0.061903,-0.190102,0.236827,0.13426
562,-0.005918,0.991469,-0.13021,-0.460588,0.665147,0.15261
563,0.007553,0.981769,-0.189926,-0.398864,0.434872,0.0744929999999999
564,0.032588,0.971295,-0.235636,-0.32429,0.369388,-0.019659
565,0.068074,0.959633,-0.272892,0.0223949999999999,0.317726,-0.1036339999999999
566,0.104797,0.945395,-0.308619,0.1387789999999999,0.2589349999999999,0.066324
567,0.131883,0.928255,-0.347777,0.075575,0.129393,0.206008
568,0.150553,0.909725,-0.386956,0.007696,-0.117854,0.239571
569,0.15855,0.893317,-0.420531,-0.060238,-0.339759,0.357573
570,0.154471,0.88087,-0.447446,-0.107718,-0.402018,0.4207579999999999
571,0.144332,0.872482,-0.466844,-0.2130719999999999,-0.5208430000000001,0.391328
572,0.1302299999999999,0.867886,-0.479389,-0.208279,-0.5292789999999999,0.381976
573,0.112072,0.866424,-0.48657,-0.193752,-0.582854,0.351209
574,0.092663,0.8681620000000001,-0.4875529999999999,-0.147274,-0.557326,0.2226449999999999
575,0.077778,0.874023,-0.47962,-0.15511,-0.429259,0.1062369999999999
576,0.070251,0.884126,-0.461937,-0.143676,-0.33304,-0.01696
577,0.070494,0.896282,-0.437847,-0.109419,-0.175029,-0.1507
578,0.078183,0.905822,-0.416381,-0.017346,0.12465,-0.283753
579,0.088145,0.910863,-0.403186,0.164205,0.454707,-0.406476
580,0.0908139999999999,0.910936,-0.402429,0.283454,0.558608,-0.376273
581,0.0894809999999999,0.906902,-0.41173,0.308208,0.230595,-0.315214
582,0.088061,0.902737,-0.421083,0.191297,0.033893,-0.319319
583,0.08578,0.899057,-0.429347,-0.031138,0.192649,-0.271809
584,0.080627,0.892249,-0.444287,0.018387,0.98504,0.01785
585,0.069801,0.885567,-0.459238,-0.089821,0.943291,0.1516819999999999
586,0.064285,0.88613,-0.458956,-0.473312,-0.003348,0.2874469999999999
587,0.066483,0.890267,-0.450561,-0.361481,-0.470284,0.345031
588,0.073894,0.893544,-0.442853,-0.368892,-0.4735609999999999,0.337323
589,0.088762,0.8999030000000001,-0.426962,-0.044741,-0.5183409999999999,0.62908
590,0.098925,0.915311,-0.390411,0.128934,0.232517,0.476852
591,0.094803,0.932803,-0.347694,0.133056,0.2150239999999999,0.434135
592,0.085645,0.947898,-0.306846,0.099612,0.817361,0.334922
593,0.085551,0.959017,-0.270124,-0.172175,0.064573,0.218275
594,0.088073,0.96811,-0.234533,-0.195098,-0.080445,0.115697
595,0.086542,0.97603,-0.199691,-0.155343,-0.261018,0.086624
596,0.079699,0.98266,-0.167413,-0.120349,-0.271311,0.093087
597,0.071123,0.987873,-0.138016,-0.031771,-0.257832,0.132675
598,0.061305,0.992056,-0.109849,0.0509839999999999,-0.103979,0.1566779999999999
599,0.049535,0.995385,-0.082185,0.0478769999999999,-0.039422,0.152192
600,0.037829,0.997616,-0.05772,0.058469,-0.039776,0.115139
601,0.027027,0.999005,-0.035486,0.1194119999999999,-0.10162,0.00123
602,0.015338,0.999787,-0.013818,0.183926,-0.119584,-0.0531679999999999
603,0.001405,0.999962,0.00857,0.205855,-0.107888,-0.082972
604,-0.01449,0.999375,0.032255,0.299966,-0.161484,-0.123136
605,-0.032849,0.997996,0.0540789999999999,0.330731,-0.1085309999999999,-0.161699
606,-0.052674,0.995967,0.072626,0.334351,-0.0521649999999999,-0.186869
607,-0.070993,0.993651,0.087275,0.285089,0.087754,-0.04452
608,-0.084101,0.991366,0.100601,0.2325539999999999,0.069105,-0.005264
609,-0.093676,0.989332,0.111565,0.212923,0.061617,-0.027016
610,-0.1006799999999999,0.987894,0.118022,0.168093,0.261648,-0.166011
611,-0.106145,0.987027,0.120458,0.188619,0.352862,-0.209051
612,-0.108677,0.986879,0.1194089999999999,0.236058,0.367506,-0.245493
613,-0.107371,0.987947,0.111497,0.238643,0.406325,-0.04561
614,-0.100222,0.990721,0.091806,0.229403,0.205889,0.088157
615,-0.086072,0.994503,0.059619,0.301496,0.154346,0.080259
616,-0.068178,0.997517,0.0176419999999999,0.152605,0.002574,0.087262
617,-0.049082,0.998146,-0.035998,-0.052648,0.144097,0.058963
618,-0.033931,0.994782,-0.096212,-0.123998,0.247878,0.161093
619,-0.024322,0.987058,-0.1585089999999999,-0.341965,0.725558,0.204408
620,-0.0115459999999999,0.976797,-0.213855,-0.283482,0.341715,-0.043958
621,0.012752,0.966122,-0.257771,-0.2181199999999999,0.3256409999999999,-0.076946
622,0.046326,0.954372,-0.295005,-0.047074,0.280827,-0.051262
623,0.080986,0.940248,-0.3307179999999999,0.156059,0.20024,0.187713
624,0.105927,0.923444,-0.368823,0.131118,0.217044,0.225818
625,0.12227,0.905339,-0.406708,0.0055229999999999,-0.053746,0.2844239999999999
626,0.130281,0.8894799999999999,-0.438009,-0.077501,-0.382339,0.381551
627,0.124164,0.877999,-0.4622779999999999,-0.071383,-0.3708579999999999,0.405821
628,0.1102559999999999,0.870067,-0.4804449999999999,-0.203991,-0.4857899999999999,0.371726
629,0.0936299999999999,0.8653799999999999,-0.492291,-0.2100699999999999,-0.5015649999999999,0.329662
630,0.076165,0.863883,-0.497901,-0.194222,-0.495825,0.300117
631,0.060752,0.8655940000000001,-0.497047,-0.196295,-0.357751,0.199532
632,0.050553,0.870002,-0.49045,-0.205903,-0.245963,0.125964
633,0.048093,0.877129,-0.4778409999999999,-0.1947,-0.2275469999999999,0.074201
634,0.052808,0.886302,-0.4600869999999999,-0.145245,-0.120845,-0.035121
635,0.062601,0.89575,-0.4401279999999999,-0.07725,0.068651,-0.16267
636,0.074877,0.903876,-0.421191,-0.014071,0.162881,-0.275617
637,0.085667,0.909885,-0.405919,0.154094,0.346417,-0.409037
638,0.090212,0.911676,-0.400884,0.342527,0.304037,-0.407023
639,0.09058,0.909707,-0.40525,0.335171,0.144873,-0.37809
640,0.090241,0.906565,-0.412306,0.153045,-0.1248109999999999,-0.357652
641,0.091494,0.904801,-0.41589,0.1380289999999999,0.0029289999999999,-0.265857
642,0.096226,0.903113,-0.418483,0.142681,0.35734,0.007533
643,0.103194,0.900019,-0.423459,-0.10649,0.999487,0.247876
644,0.110593,0.900761,-0.4199989999999999,-0.588819,0.074428,0.229844
645,0.1188559999999999,0.903875,-0.410955,-0.5025229999999999,-0.381719,0.253561
646,0.1238339999999999,0.906424,-0.403807,-0.278955,-0.464789,0.339323
647,0.131391,0.910145,-0.392902,-0.111555,-0.357838,0.513095
648,0.134452,0.921227,-0.365052,-0.002143,-0.17875,0.470597
649,0.122458,0.936413,-0.328838,0.254358,0.491275,0.39326
650,0.104406,0.951012,-0.290991,-0.045873,0.6880109999999999,0.287817
651,0.095276,0.962325,-0.254662,-0.24324,0.507768,0.21766
652,0.094463,0.971601,-0.216954,-0.141902,-0.102979,0.068425
653,0.091418,0.979389,-0.180109,-0.020846,-0.294026,0.0857639999999999
654,0.084,0.985392,-0.148145,0.048781,-0.337275,0.111875
655,0.073295,0.989849,-0.121768,0.110848,-0.25793,0.167301
656,0.059851,0.99342,-0.097644,0.08346,-0.122342,0.153628
657,0.045954,0.996165,-0.0744539999999999,0.0289509999999999,-0.052104,0.125129
658,0.0337579999999999,0.998028,-0.0529179999999999,-0.007376,-0.088085,0.052934
659,0.022011,0.99928,-0.03091,0.035072,-0.172589,0.032207
660,0.006696,0.999939,-0.008791,0.0898149999999999,-0.191727,0.0028399999999999
661,-0.011412,0.999829,0.014578,0.215834,-0.148251,-0.120397
662,-0.033122,0.998749,0.037456,0.289775,-0.160325,-0.15446
663,-0.0563409999999999,0.996781,0.057034,0.340688,-0.069184,-0.1367
664,-0.0770909999999999,0.994289,0.073805,0.337177,0.046574,0.038012
665,-0.092374,0.991808,0.088229,0.267621,0.011839,0.018049
666,-0.103403,0.98942,0.101761,0.203562,0.006567,-0.026139
667,-0.1128779999999999,0.98733,0.111524,0.164773,0.153173,-0.095472
668,-0.1226339999999999,0.985754,0.1151069999999999,0.287551,0.312677,-0.151423
669,-0.129221,0.984885,0.115343,0.328531,0.322046,-0.19684
670,-0.131766,0.984876,0.112508,0.404684,0.303409,-0.173924
671,-0.128299,0.986477,0.101996,0.281695,0.363133,0.014901
672,-0.118194,0.989732,0.080376,0.356644,0.2980489999999999,0.130347
673,-0.101057,0.993714,0.048174,0.223829,0.033294,0.058927
674,-0.07714,0.997004,0.005775,-0.038995,0.043676,0.067909
675,-0.05364,0.997289,-0.050364,-0.1666359999999999,0.134257,0.035151
676,-0.034386,0.992875,-0.114096,-0.530296,0.8864129999999999,0.151007
677,-0.021434,0.984253,-0.175459,-0.675038,0.87828,0.240218
678,-0.003706,0.9744,-0.22479,-0.5251939999999999,0.396694,0.105589
679,0.025159,0.964243,-0.263823,-0.22514,0.291128,-0.065858
680,0.064023,0.95284,-0.296644,0.059894,0.26913,-0.04526
681,0.103519,0.938795,-0.328555,0.020398,0.283175,-0.013349
682,0.133827,0.921983,-0.363369,0.061547,0.139204,0.234829
683,0.157518,0.903656,-0.398238,0.012206,-0.177582,0.248351
684,0.164497,0.887494,-0.43046,0.005226,-0.161419,0.280573
685,0.155146,0.875868,-0.456931,-0.140757,-0.4245739999999999,0.4597989999999999
686,0.1383069999999999,0.8682790000000001,-0.476406,-0.201402,-0.469674,0.357952
687,0.117072,0.8641549999999999,-0.4894189999999999,-0.18859,-0.47678,0.352593
688,0.094341,0.8625139999999999,-0.497162,-0.1864579999999999,-0.509609,0.296005
689,0.074099,0.863556,-0.498779,-0.176729,-0.4607699999999999,0.250183
690,0.0606149999999999,0.86806,-0.492745,-0.193169,-0.391849,0.202523
691,0.0564289999999999,0.876959,-0.4772399999999999,-0.16672,-0.262671,0.049613
692,0.060535,0.8888440000000001,-0.454194,-0.1366,-0.148426,-0.093322
693,0.070618,0.9000290000000001,-0.430072,-0.107025,-0.054585,-0.189161
694,0.08367,0.907606,-0.411401,0.257898,0.5399649999999999,-0.501441
695,0.092397,0.910169,-0.403801,0.3110449999999999,0.571856,-0.5228510000000001
696,0.094682,0.907108,-0.41011,0.339263,0.4788479999999999,-0.491883
697,0.095869,0.90241,-0.4200779999999999,0.282183,-0.09731,-0.3121
698,0.096474,0.899166,-0.4268399999999999,0.09214,-0.129681,-0.186685
699,0.098411,0.8977450000000001,-0.429382,0.0987929999999999,0.055441,-0.099763
700,0.099204,0.895487,-0.4338909999999999,-0.050681,0.7515310000000001,0.095191
701,0.099865,0.8945190000000001,-0.4357319999999999,-0.305386,0.708432,0.171236
702,0.1049339999999999,0.897381,-0.4285989999999999,-0.498809,0.218434,0.193613
703,0.111438,0.902359,-0.416329,-0.406788,-0.450027,0.331536
704,0.121367,0.906511,-0.404362,-0.246795,-0.361436,0.487446
705,0.131889,0.915615,-0.379808,-0.092552,-0.208813,0.508745
706,0.128408,0.930129,-0.344051,0.073664,0.272431,0.405406
707,0.112415,0.944479,-0.308744,0.147152,0.562235,0.330503
708,0.0995549999999999,0.956125,-0.275525,-0.003882,0.528311,0.273862
709,0.095982,0.965579,-0.241754,-0.134938,0.0284089999999999,0.161218
710,0.094554,0.974364,-0.204141,-0.019862,-0.209914,0.146463
711,0.090925,0.981676,-0.167465,-0.016233,-0.217226,0.109787
712,0.083889,0.987089,-0.13645,0.069905,-0.300855,0.1400809999999999
713,0.072637,0.991296,-0.109798,0.072535,-0.159967,0.128323
714,0.0588179999999999,0.994629,-0.085164,0.086355,-0.1633,0.103688
715,0.044971,0.996943,-0.063887,0.053265,-0.045466,0.089903
716,0.032603,0.998482,-0.04439,0.044805,-0.103218,0.0091569999999999
717,0.02155,0.999493,-0.023424,0.0848039999999999,-0.142346,-0.018279
718,0.008091,0.999967,-0.001178,0.156018,-0.147504,-0.100888
719,-0.007076,0.999744,0.02148,0.239453,-0.0968509999999999,-0.13969
720,-0.028009,0.998616,0.044508,0.270288,-0.085439,-0.168242
721,-0.04999,0.996643,0.064829,0.272173,0.0009,-0.017374
722,-0.069199,0.99429,0.0812399999999999,0.230012,-0.025158,-0.014696
723,-0.0834559999999999,0.9919,0.0957549999999999,0.252279,0.018506,-0.009955
724,-0.094084,0.989806,0.106922,0.256193,0.178315,-0.005268
725,-0.103449,0.988292,0.112148,0.28451,0.386327,-0.182323
726,-0.109602,0.987264,0.115315,0.257002,0.384486,-0.256214
727,-0.113369,0.986871,0.115033,0.250759,0.336707,-0.237729
728,-0.112488,0.987987,0.105967,0.224655,0.421285,0.0060479999999999
729,-0.105528,0.990793,0.0848059999999999,0.238051,0.295675,0.123125
730,-0.092145,0.994434,0.051086,0.283276,-0.038242,0.001389
731,-0.072061,0.997344,0.010623,0.085244,-0.031951,0.026486
732,-0.048438,0.997992,-0.040824,-0.013345,0.0517059999999999,0.014212
733,-0.027666,0.994492,-0.101097,-0.30139,0.640426,0.076225
734,-0.011457,0.986286,-0.164644,-0.555697,0.936764,0.207323
735,0.005097,0.975231,-0.221129,-0.582719,0.658207,0.167464
736,0.03242,0.962577,-0.2690619999999999,-0.155101,0.332757,-0.06654
737,0.070307,0.947973,-0.310489,-0.091075,0.310678,-0.0301019999999999
738,0.110394,0.93084,-0.348355,-0.016323,0.282204,0.073635
739,0.14256,0.911279,-0.386326,0.005588,0.1217569999999999,0.3101239999999999
740,0.166142,0.8902629999999999,-0.4240609999999999,-0.04131,-0.130208,0.342351
741,0.178548,0.869567,-0.460406,-0.05866,-0.224776,0.353763
742,0.174578,0.853039,-0.49178,-0.1842059999999999,-0.393383,0.385686
743,0.159938,0.8423450000000001,-0.514659,-0.202022,-0.433791,0.380687
744,0.136174,0.836174,-0.531291,-0.185246,-0.4491199999999999,0.38769
745,0.108676,0.833658,-0.541484,-0.158374,-0.542215,0.2486219999999999
746,0.085561,0.835225,-0.543212,-0.1244099999999999,-0.485188,0.210662
747,0.071116,0.8387319999999999,-0.53988,-0.096873,-0.404574,0.161127
748,0.066965,0.8425090000000001,-0.534504,-0.100687,-0.139872,-0.0990409999999999
749,0.071187,0.8448110000000001,-0.530308,-0.04392,-0.001397,-0.235454
750,0.082585,0.844982,-0.5283800000000001,-0.003544,0.083988,-0.282534
751,0.093998,0.8431780000000001,-0.529354,0.1489069999999999,0.215477,-0.318135
752,0.09698,0.839851,-0.534084,0.295003,0.111214,-0.29749
753,0.092185,0.8379559999999999,-0.537895,0.4027489999999999,-0.062169,-0.305763
754,0.082722,0.8400049999999999,-0.536235,0.247478,-0.286157,-0.268757
755,0.074364,0.8440200000000001,-0.531131,0.182564,-0.394252,-0.31062
756,0.072478,0.848577,-0.524083,0.08896,-0.323217,-0.24763
757,0.074457,0.850756,-0.520261,-0.365518,0.13545,0.2341889999999999
758,0.071298,0.8544510000000001,-0.514617,-0.336343,0.7721359999999999,0.326415
759,0.049946,0.8547020000000001,-0.5167109999999999,-0.539539,1.798252,-0.040601
760,0.039712,0.860564,-0.507792,-0.618722,0.200975,0.248515
761,0.053933,0.8685379999999999,-0.49268,-0.305795,-0.389778,0.295597
762,0.0833059999999999,0.8774959999999999,-0.4722939999999999,-0.302712,-0.408776,0.371219
763,0.11079,0.891847,-0.43856,-0.061245,-0.351487,0.598152
764,0.128316,0.909765,-0.394796,0.163127,0.027201,0.436254
765,0.131923,0.92704,-0.350988,0.228963,0.206505,0.325368
766,0.123796,0.942132,-0.311548,0.080183,0.631049,0.254617
767,0.1187119999999999,0.955075,-0.271551,-0.0468279999999999,0.308658,0.236455
768,0.116745,0.96611,-0.2302219999999999,-0.009888,-0.080703,0.145872
769,0.1128319999999999,0.974923,-0.191819,-0.020547,-0.255913,0.102753
770,0.103897,0.98157,-0.16039,-0.015045,-0.371951,0.098256
771,0.090076,0.98683,-0.1343599999999999,0.01109,-0.408308,0.080741
772,0.073075,0.991258,-0.109856,0.065795,-0.201905,0.066445
773,0.056812,0.994746,-0.085158,0.092205,-0.019801,0.10327
774,0.041815,0.997217,-0.061723,0.1072019999999999,-0.022272,0.079835
775,0.030244,0.998748,-0.039841,0.1453549999999999,0.017243,0.034104
776,0.01733,0.999674,-0.018731,0.1348609999999999,-0.054087,-0.125617
777,0.002963,0.99998,0.005665,0.149228,-0.0543919999999999,-0.150013
778,-0.0151199999999999,0.999403,0.031073,0.255126,-0.168684,-0.102271
779,-0.01563,0.998805,0.046312,0.279851,0.037404,-0.091127
780,-0.037834,0.996956,0.068177,0.302055,0.0392529999999999,-0.112992
781,-0.055941,0.994768,0.085478,0.229814,0.083921,-0.076277
782,-0.0662919999999999,0.992948,0.098289,0.1676099999999999,0.149982,-0.060783
783,-0.073257,0.991705,0.105615,0.1191089999999999,0.213053,-0.080285
784,-0.076778,0.991262,0.107264,0.089229,0.288249,-0.1993049999999999
785,-0.079639,0.991319,0.104615,0.176852,0.254134,-0.292741
786,-0.082283,0.991702,0.098773,0.2101969999999999,0.211957,-0.277408
787,-0.082702,0.99309,0.083258,0.393051,0.274167,-0.02088
788,-0.075977,0.995572,0.055352,0.296558,0.260974,0.179939
789,-0.060189,0.99796,0.021293,0.1861809999999999,0.107829,0.14811
790,-0.036739,0.999131,-0.019687,-0.086597,-0.065644,0.0922429999999999
791,-0.011434,0.99755,-0.0690139999999999,-0.134181,0.340081,-0.04651
792,0.006856,0.992101,-0.125256,-0.201008,0.533412,0.050808
793,0.016472,0.983404,-0.18068,-0.334878,0.500162,0.360382
794,0.028211,0.972023,-0.233185,-0.201032,0.192192,0.248871
795,0.0500069999999999,0.958618,-0.2802679999999999,-0.197957,0.1602319999999999,0.1418559999999999
796,0.080568,0.943048,-0.322752,-0.143343,0.325598,0.028349
797,0.119493,0.925097,-0.360441,-0.079286,0.321257,0.02751
798,0.156748,0.90484,-0.395847,-0.083552,0.308829,0.1234779999999999
799,0.187427,0.883392,-0.429522,-0.288455,-0.04332,0.2988
800,0.206711,0.862266,-0.46235,-0.185135,-0.25576,0.344323
801,0.210625,0.844353,-0.492651,-0.091759,-0.254708,0.380575
802,0.205075,0.8295450000000001,-0.519422,0.037173,-0.300172,0.299848
803,0.19582,0.817814,-0.541142,0.003979,-0.366978,0.223194
804,0.184013,0.8096,-0.557393,-0.040458,-0.393874,0.22379
805,0.168999,0.8040039999999999,-0.570102,-0.177941,-0.463489,0.272235
806,0.150319,0.800613,-0.580019,-0.189397,-0.418838,0.2884239999999999
807,0.133681,0.8009350000000001,-0.583638,-0.190916,-0.339417,0.222203
808,0.124296,0.806531,-0.5779770000000001,-0.191694,-0.26634,0.071172
809,0.120702,0.816597,-0.564447,-0.123754,-0.1280599999999999,-0.13462
810,0.119491,0.828652,-0.546862,0.0,0.024681,-0.297238
811,0.117255,0.839649,-0.530321,0.208352,0.127743,-0.412031
812,0.112339,0.84596,-0.521278,0.38876,0.1385819999999999,-0.407585
813,0.1062589999999999,0.847305,-0.520368,0.343539,-0.0270079999999999,-0.287356
814,0.101922,0.846181,-0.523058,0.168784,-0.106649,-0.215544
815,0.107464,0.841864,-0.528882,-0.001446,0.177973,0.0322089999999999
816,0.118219,0.835774,-0.536196,0.041662,0.958461,0.106386
817,0.1139329999999999,0.8396110000000001,-0.531105,-0.123759,1.456303,-0.024773
818,0.103694,0.848355,-0.519174,-0.593089,0.065402,0.3277219999999999
819,0.102763,0.8524510000000001,-0.512608,-0.4883979999999999,-0.639942,0.280476
820,0.113798,0.8543209999999999,-0.507134,-0.333723,-0.372052,0.448235
821,0.12897,0.8650049999999999,-0.484905,-0.198687,-0.4619439999999999,0.614635
822,0.142261,0.884066,-0.445184,0.0706909999999999,-0.081423,0.584283
823,0.144984,0.905682,-0.398397,0.206715,0.621067,0.343938
824,0.139092,0.92417,-0.355756,-0.185845,0.671014,0.229154
825,0.139794,0.938146,-0.316763,-0.164895,0.349863,0.19451
826,0.139271,0.949783,-0.280205,-0.046483,-0.062775,0.102623
827,0.131838,0.960066,-0.2467619999999999,0.019941,-0.269621,0.139263
828,0.1208299999999999,0.968916,-0.215873,0.041539,-0.297118,0.131172
829,0.1092819999999999,0.976719,-0.184602,0.052751,-0.291782,0.14911
830,0.095961,0.983863,-0.1510099999999999,0.020997,-0.125023,0.190408
831,0.081499,0.989588,-0.118631,0.010954,-0.0733279999999999,0.189798
832,0.06754,0.993549,-0.091101,0.002146,-0.049655,0.1188869999999999
833,0.052765,0.996308,-0.067726,0.019775,-0.114365,-0.063225
834,0.037886,0.998174,-0.047053,0.0374769999999999,-0.131581,-0.109395
835,0.020664,0.999371,-0.028803,0.1735799999999999,-0.171536,-0.074271
836,0.002157,0.999944,-0.010316,0.22555,-0.136282,0.065935
837,-0.017169,0.999796,0.010601,0.2321349999999999,-0.118495,0.067631
838,-0.037038,0.998778,0.032725,0.151555,-0.079756,-0.0622659999999999
839,-0.057269,0.996881,0.0543,0.073214,0.044608,-0.067682
840,-0.0746059999999999,0.994561,0.0726769999999999,0.063665,0.056907,0.051743
841,-0.088162,0.992512,0.084548,0.180982,0.248989,-0.007873
842,-0.097477,0.990809,0.093784,0.176166,0.311483,-0.08469
843,-0.103696,0.989532,0.100371,0.19975,0.405778,-0.116408
844,-0.107894,0.98888,0.102347,0.308745,0.5476340000000001,-0.080771
845,-0.1084069999999999,0.98929,0.097743,0.316781,0.500792,-0.056788
846,-0.104022,0.991116,0.082872,0.335833,0.488406,-0.011903
847,-0.094192,0.993836,0.0584559999999999,0.166427,0.217849,0.03737
848,-0.0777429999999999,0.996601,0.027261,0.1764369999999999,-0.048725,-0.001199
849,-0.059557,0.998144,-0.012673,0.1562359999999999,-0.174933,0.076119
850,-0.04257,0.997044,-0.063959,0.012633,-0.003804,0.0516909999999999
851,-0.028135,0.992141,-0.12192,-0.139956,0.380219,0.0990019999999999
852,-0.017084,0.983738,-0.178795,-0.252051,0.630047,0.173745
853,-0.0055,0.973936,-0.226757,-0.351037,0.458727,0.170727
854,0.01425,0.964003,-0.265509,-0.221633,0.30504,0.114401
855,0.040792,0.952518,-0.301737,-0.144003,0.276623,0.146387
856,0.069026,0.937994,-0.339709,-0.031733,0.195551,0.178653
857,0.0945429999999999,0.921007,-0.377899,-0.0388639999999999,0.128996,0.260163
858,0.116881,0.903551,-0.41223,-0.166701,0.085645,0.293959
859,0.132412,0.88785,-0.44067,-0.211804,-0.106752,0.35783
860,0.136145,0.8740389999999999,-0.466391,-0.165976,-0.260285,0.478887
861,0.130056,0.861461,-0.490888,-0.147833,-0.321651,0.5104489999999999
862,0.118118,0.851678,-0.51058,-0.174225,-0.446405,0.407309
863,0.103612,0.846039,-0.5229560000000001,-0.18749,-0.4904779999999999,0.340385
864,0.08997,0.843931,-0.528853,-0.173847,-0.488371,0.346282
865,0.080095,0.844044,-0.530258,-0.18062,-0.409657,0.2292179999999999
866,0.076003,0.845841,-0.527992,-0.155165,-0.246842,0.066704
867,0.078151,0.848649,-0.523151,-0.157313,-0.24965,0.061862
868,0.086591,0.851266,-0.51754,-0.033795,0.038581,-0.196647
869,0.0995429999999999,0.853044,-0.512257,0.126958,0.2023609999999999,-0.283428
870,0.111317,0.854196,-0.507895,0.201046,0.221976,-0.317086
871,0.116828,0.85467,-0.505857,0.408486,0.093695,-0.394183
872,0.113837,0.854398,-0.506997,0.406915,-0.096707,-0.325614
873,0.104558,0.854973,-0.508024,0.345989,-0.2164849999999999,-0.2645139999999999
874,0.096576,0.85585,-0.508127,0.1183589999999999,0.048004,-0.137533
875,0.094541,0.85351,-0.512428,0.01726,0.497854,-0.045159
876,0.09485,0.8489760000000001,-0.519849,0.038222,0.818657,-0.022219
877,0.092731,0.8485940000000001,-0.520854,-0.133427,1.164177,-0.0044909999999999
878,0.0946309999999999,0.853517,-0.5123989999999999,-0.5729029999999999,-0.412813,0.285257
879,0.100704,0.8589100000000001,-0.502128,-0.547633,-0.634026,0.3025739999999999
880,0.114121,0.8613379999999999,-0.4950479999999999,-0.326874,-0.439479,0.327629
881,0.1332819999999999,0.8679819999999999,-0.478375,-0.079297,-0.445131,0.661114
882,0.147568,0.8855139999999999,-0.440556,-0.023147,-0.2168429999999999,0.610462
883,0.14803,0.906477,-0.395457,0.256069,0.8140729999999999,0.395472
884,0.13849,0.924862,-0.354189,-0.043382,0.929248,0.3002039999999999
885,0.13663,0.937964,-0.318677,-0.216632,0.587548,0.248609
886,0.138199,0.94932,-0.2822989999999999,-0.084793,-0.199091,0.089077
887,0.133965,0.960306,-0.244673,-0.058373,-0.255655,0.098784
888,0.124327,0.970198,-0.207986,-0.042861,-0.26657,0.113748
889,0.1132,0.978432,-0.17279,0.0069319999999999,-0.282097,0.232742
890,0.100523,0.985419,-0.137272,0.025454,-0.233421,0.224201
891,0.085003,0.990914,-0.104228,0.00861,-0.133019,0.231792
892,0.069394,0.994601,-0.077155,0.007999,-0.050525,0.131964
893,0.0543159999999999,0.997065,-0.0539529999999999,0.012929,-0.1028849999999999,0.049269
894,0.039448,0.99875,-0.03071,0.018993,-0.107713,-0.009909
895,0.023627,0.9997,-0.006475,0.057504,-0.214132,-0.040385
896,0.005144,0.999815,0.018527,0.093687,-0.1123329999999999,-0.059512
897,-0.015479,0.998877,0.044772,0.16294,-0.0719669999999999,-0.061847
898,-0.0379,0.997007,0.067379,0.290296,0.024706,-0.037426
899,-0.0590809999999999,0.99452,0.086254,0.296508,0.046145,-0.013286
900,-0.075333,0.99191,0.1021779999999999,0.321289,0.105594,-0.006536
901,-0.085983,0.989598,0.1153339999999999,0.31253,0.239665,-0.119423
902,-0.092599,0.987752,0.125584,0.217691,0.309459,-0.154774
903,-0.097117,0.986958,0.128385,0.192744,0.334026,-0.224134
904,-0.100502,0.986973,0.125632,0.274559,0.336101,-0.205115
905,-0.1032329999999999,0.987622,0.118091,0.353615,0.395999,-0.133777
906,-0.102118,0.989327,0.103946,0.312078,0.44445,0.014066
907,-0.094221,0.992332,0.079993,0.0948919999999999,0.236153,0.070611
908,-0.0777549999999999,0.995818,0.047961,-0.007511,0.00435,0.040799
909,-0.056023,0.998401,0.0075819999999999,-0.0136479999999999,-0.035296,0.082933
910,-0.033831,0.998452,-0.044143,-0.094221,0.223426,0.0843039999999999
911,-0.014883,0.994573,-0.102975,-0.274119,0.540248,0.2033319999999999
912,0.000405,0.986874,-0.161489,-0.380059,0.642749,0.250204
913,0.019204,0.976945,-0.212627,-0.323632,0.403854,0.136623
914,0.047248,0.965693,-0.255352,-0.124122,0.34609,0.078793
915,0.081498,0.9522,-0.294402,0.049193,0.304361,0.074278
916,0.114721,0.935452,-0.334317,0.109919,0.241488,0.182355
917,0.1373049999999999,0.916252,-0.376337,0.001321,0.145988,0.293527
918,0.150782,0.8966430000000001,-0.416289,-0.136957,-0.110998,0.2775559999999999
919,0.154951,0.8797219999999999,-0.449532,-0.175932,-0.344002,0.392876
920,0.147391,0.8665430000000001,-0.476843,-0.195197,-0.4670069999999999,0.471304
921,0.132113,0.855467,-0.5007229999999999,-0.211078,-0.4779029999999999,0.471746
922,0.112088,0.845995,-0.521275,-0.179944,-0.4976069999999999,0.406941
923,0.0906899999999999,0.840111,-0.53478,-0.151862,-0.464653,0.357595
924,0.071502,0.8387020000000001,-0.539876,-0.132675,-0.4632439999999999,0.362691
925,0.058746,0.841525,-0.5370149999999999,-0.186829,-0.354571,0.20445
926,0.0542929999999999,0.847025,-0.5287729999999999,-0.169619,-0.1464329999999999,-0.002141
927,0.057271,0.85324,-0.518365,-0.117757,-0.088332,-0.081275
928,0.0669299999999999,0.858563,-0.50832,0.070261,0.191989,-0.2872119999999999
929,0.082028,0.8623780000000001,-0.499576,0.2247809999999999,0.333988,-0.389584
930,0.095784,0.863308,-0.495505,0.211024,0.3330579999999999,-0.393655
931,0.101523,0.861072,-0.498246,0.440226,0.034741,-0.354095
932,0.098872,0.858361,-0.50343,0.233617,-0.167061,-0.24538
933,0.092249,0.856791,-0.5073449999999999,0.149832,-0.137095,-0.190791
934,0.090267,0.85324,-0.5136470000000001,0.058918,0.465653,-0.031305
935,0.0952529999999999,0.8460719999999999,-0.524489,0.086022,0.96597,0.0684039999999999
936,0.100461,0.841366,-0.531048,0.080814,0.970677,0.074963
937,0.101973,0.846275,-0.522896,-0.742781,-0.267433,0.325096
938,0.107886,0.852772,-0.511019,-0.4637819999999999,-0.422856,0.331637
939,0.119807,0.857125,-0.500983,-0.357203,-0.390297,0.397147
940,0.141395,0.8650469999999999,-0.481353,-0.206367,-0.42976,0.618316
941,0.159073,0.883641,-0.440312,0.0539399999999999,0.267086,0.5502670000000001
942,0.162165,0.904913,-0.39349,0.177618,0.562646,0.4643359999999999
943,0.154449,0.923261,-0.351759,0.101227,0.8492299999999999,0.341337
944,0.150803,0.935955,-0.318194,-0.125351,0.1021919999999999,0.195163
945,0.149173,0.946808,-0.285136,-0.109394,-0.0482019999999999,0.117564
946,0.143583,0.957214,-0.251249,-0.010908,-0.27774,0.186384
947,0.133922,0.966216,-0.220209,0.0210759999999999,-0.2928449999999999,0.188227
948,0.123147,0.973691,-0.191733,0.043189,-0.316571,0.185049
949,0.110839,0.98044,-0.162638,0.08342,-0.116518,0.222926
950,0.097157,0.986142,-0.134478,0.052028,0.009723,0.182513
951,0.084549,0.990254,-0.110673,0.037399,0.035503,0.104646
952,0.073583,0.993293,-0.089189,0.02035,-0.091559,-0.034956
953,0.061735,0.995719,-0.068795,0.0648059999999999,-0.164191,-0.0666269999999999
954,0.047242,0.997694,-0.048743,0.1157059999999999,-0.1580329999999999,-0.067285
955,0.029049,0.999177,-0.02831,0.200824,-0.103379,0.067678
956,0.00938,0.999932,-0.0069489999999999,0.212025,-0.106377,0.0275639999999999
957,-0.013337,0.999816,0.0138039999999999,0.199891,-0.061019,-0.037104
958,-0.035893,0.998805,0.033185,0.1200609999999999,0.023122,-0.009701
959,-0.053407,0.997285,0.050703,0.134507,0.06903,0.063982
960,-0.065113,0.995841,0.063725,0.214939,0.049447,0.046596
961,-0.072401,0.994665,0.073485,0.208082,0.156229,-0.043394
962,-0.07746,0.993728,0.0806559999999999,0.202429,0.300508,-0.099928
963,-0.081473,0.9931,0.084342,0.256278,0.318576,-0.098151
964,-0.0856529999999999,0.992757,0.084246,0.266378,0.34788,-0.102084
965,-0.08793,0.992912,0.079968,0.305383,0.356103,-0.058163
966,-0.087573,0.993836,0.067976,0.3059719999999999,0.3779139999999999,0.0151539999999999
967,-0.082857,0.995507,0.045823,0.169146,0.141501,0.054885
968,-0.070386,0.997363,0.0177039999999999,0.159039,-0.071963,0.04945
969,-0.053401,0.998399,-0.01867,0.10052,-0.127045,0.097665
970,-0.035972,0.997095,-0.067146,-0.065682,0.0465,0.0284649999999999
971,-0.019977,0.992073,-0.124064,-0.259152,0.417946,0.098552
972,-0.006555,0.983291,-0.181925,-0.5060640000000001,0.8095100000000001,0.188211
973,0.006677,0.97282,-0.2314679999999999,-0.491388,0.467869,0.18238
974,0.027948,0.962332,-0.270438,-0.160074,0.26475,0.062598
975,0.057266,0.950832,-0.3043659999999999,-0.189392,0.2762489999999999,0.096527
976,0.089496,0.936705,-0.338488,-0.017185,0.188188,0.145877
977,0.116782,0.919953,-0.374231,-0.0695409999999999,0.0598289999999999,0.243311
978,0.13901,0.902433,-0.407787,-0.106219,0.004549,0.255565
979,0.154794,0.886036,-0.437013,-0.1371089999999999,-0.170505,0.313798
980,0.159148,0.87136,-0.464116,-0.145156,-0.36869,0.407658
981,0.151775,0.8591799999999999,-0.488645,-0.156657,-0.380268,0.414975
982,0.136095,0.8502139999999999,-0.508541,-0.1762099999999999,-0.451334,0.369961
983,0.115962,0.8445299999999999,-0.522802,-0.16157,-0.470171,0.301748
984,0.095202,0.842519,-0.530188,-0.144213,-0.455541,0.253607
985,0.078858,0.843475,-0.531349,-0.141709,-0.364883,0.171257
986,0.071228,0.845973,-0.528447,-0.147521,-0.131572,-0.008357
987,0.071708,0.848606,-0.524143,-0.1133339999999999,-0.073307,-0.072353
988,0.078389,0.850715,-0.51975,-0.0276839999999999,0.046716,-0.198313
989,0.089112,0.852497,-0.515081,0.186615,0.167797,-0.331401
990,0.09941,0.8533270000000001,-0.51181,0.23137,0.166326,-0.351624
991,0.103766,0.8526360000000001,-0.512099,0.3932739999999999,-0.0277149999999999,-0.345857
992,0.1006669999999999,0.8512,-0.515098,0.339992,-0.062747,-0.31759
993,0.09296,0.849176,-0.5198649999999999,0.257077,-0.085473,-0.246935
994,0.087279,0.8424790000000001,-0.531612,-0.027724,0.512165,-0.15807
995,0.085685,0.832203,-0.54781,-0.034675,0.6835439999999999,-0.032909
996,0.081565,0.828451,-0.554091,-0.121299,0.705515,0.131895
997,0.075263,0.836456,-0.542841,-0.693778,-0.018906,0.290995
998,0.07592,0.8463639999999999,-0.527165,-0.462257,-0.2472889999999999,0.3024949999999999
999,0.087767,0.8524450000000001,-0.5153979999999999,-0.34004,-0.297849,0.350771
1000,0.111817,0.8620950000000001,-0.4942569999999999,-0.11995,-0.304081,0.539896
1001,0.132972,0.879001,-0.457904,0.001366,0.10278,0.493625
1002,0.143629,0.89923,-0.413226,0.114092,0.383592,0.415302
1003,0.137909,0.917907,-0.372059,0.040039,0.7001350000000001,0.323978
1004,0.130041,0.931301,-0.340246,-0.124197,0.225513,0.261907
1005,0.125708,0.942363,-0.310081,-0.0715539999999999,0.042089,0.19416
1006,0.119531,0.953952,-0.275115,-0.066599,-0.18822,0.1753839999999999
1007,0.111089,0.964995,-0.2375789999999999,-0.039663,-0.2671489999999999,0.207153
1008,0.101617,0.974403,-0.2005299999999999,0.016364,-0.235451,0.21968
1009,0.091156,0.982074,-0.164986,0.025177,-0.158939,0.224374
1010,0.079118,0.988007,-0.132599,0.006865,-0.118699,0.169846
1011,0.066727,0.992273,-0.104602,-0.024384,-0.075372,0.092731
1012,0.0554309999999999,0.995188,-0.080798,0.022251,-0.126047,0.006808
1013,0.042976,0.997283,-0.0598389999999999,0.053825,-0.164214,-0.005515
1014,0.029969,0.998817,-0.038298,0.066833,-0.165748,-0.027055
1015,0.014332,0.999787,-0.014846,0.135433,-0.063462,0.020156
1016,-0.00122,0.99994,0.010912,0.203139,-0.074143,-0.041964
1017,-0.021619,0.999184,0.034123,0.223539,-0.073387,-0.065175
1018,-0.042587,0.99768,0.05312,0.207504,0.026094,-0.029667
1019,-0.056322,0.996077,0.068245,0.226061,0.058213,0.0387949999999999
1020,-0.067976,0.994533,0.0792679999999999,0.237715,0.059758,0.027773
1021,-0.076396,0.993305,0.08665,0.193889,0.316402,-0.123912
1022,-0.082218,0.992513,0.090326,0.17931,0.384685,-0.176141
1023,-0.086226,0.992152,0.090552,0.2020549999999999,0.3779349999999999,-0.143103
1024,-0.087615,0.992389,0.086531,0.213835,0.447995,-0.0132889999999999
1025,-0.0844169999999999,0.993423,0.077362,0.185979,0.431962,0.118576
1026,-0.07611,0.9954,0.058183,0.154204,0.349265,0.132766
1027,-0.060921,0.997619,0.032331,0.132424,-0.034164,0.067126
1028,-0.04168,0.999127,-0.002729,0.091332,-0.112195,0.1036349999999999
1029,-0.022557,0.998559,-0.048695,0.0131569999999999,-0.0691919999999999,0.087544
1030,-0.0062619999999999,0.994408,-0.105417,-0.153223,0.151221,0.046762
1031,0.006377,0.986384,-0.1643369999999999,-0.4328149999999999,0.667044,0.195831
1032,0.017186,0.975952,-0.217306,-0.463338,0.612594,0.225347
1033,0.034379,0.965119,-0.2595429999999999,-0.315873,0.358748,0.143989
1034,0.058971,0.953499,-0.29557,-0.065898,0.22219,0.083152
1035,0.086842,0.939551,-0.331214,-0.042317,0.184137,0.1268369999999999
1036,0.1123069999999999,0.922425,-0.369486,-0.027086,0.019409,0.219325
1037,0.133188,0.903156,-0.408131,-0.094583,-0.02785,0.261326
1038,0.1479859999999999,0.8848229999999999,-0.441801,-0.162543,-0.07037,0.280913
1039,0.153077,0.869818,-0.469025,-0.206376,-0.258825,0.404892
1040,0.149623,0.857859,-0.491622,-0.201319,-0.272333,0.442534
1041,0.1406329999999999,0.84865,-0.509917,-0.182549,-0.32004,0.417235
1042,0.128068,0.842635,-0.523034,-0.143586,-0.4183949999999999,0.309808
1043,0.113597,0.8401870000000001,-0.530266,-0.121348,-0.412025,0.276726
1044,0.0994559999999999,0.8407319999999999,-0.532238,-0.102432,-0.386402,0.2420469999999999
1045,0.090641,0.842933,-0.530328,-0.16196,-0.219322,0.129617
1046,0.090164,0.845476,-0.526346,-0.153351,-0.1027849999999999,0.036768
1047,0.095836,0.8475870000000001,-0.521931,-0.1340589999999999,-0.062492,-0.027493
1048,0.105031,0.849563,-0.5169239999999999,-0.007848,0.079041,-0.224043
1049,0.114978,0.8515530000000001,-0.511505,0.089032,0.136941,-0.3120429999999999
1050,0.122715,0.8529709999999999,-0.507328,0.2331349999999999,0.131664,-0.337719
1051,0.125242,0.8532559999999999,-0.506229,0.364763,0.037964,-0.347851
1052,0.122525,0.853147,-0.507077,0.3925349999999999,-0.126814,-0.277514
1053,0.11818,0.8532360000000001,-0.507959,0.283538,-0.188044,-0.257849
1054,0.117542,0.851601,-0.510843,0.028332,0.142433,-0.1096559999999999
1055,0.120668,0.8469459999999999,-0.5178050000000001,0.031294,0.632592,-0.004626
1056,0.122143,0.842094,-0.5253180000000001,-0.032971,1.102548,0.033879
1057,0.115775,0.844564,-0.522788,-0.6068479999999999,-0.147878,0.2082889999999999
1058,0.1135559999999999,0.850726,-0.513197,-0.494645,-0.450427,0.280348
1059,0.1180269999999999,0.856621,-0.502264,-0.391007,-0.421929,0.292487
1060,0.131725,0.8614360000000001,-0.490487,-0.110363,-0.447159,0.642907
1061,0.150744,0.8741610000000001,-0.461647,0.017255,-0.040238,0.569649
1062,0.1585619999999999,0.893774,-0.419556,0.078377,0.248011,0.491699
1063,0.155757,0.913019,-0.37701,0.0637409999999999,0.919196,0.2644
1064,0.14914,0.92766,-0.342352,-0.090805,0.350859,0.217001
1065,0.150055,0.938543,-0.31084,-0.063584,0.101786,0.147235
1066,0.149745,0.94865,-0.2786389999999999,-0.029369,-0.194652,0.147001
1067,0.144759,0.95827,-0.246502,-0.022323,-0.261874,0.182079
1068,0.135506,0.967031,-0.215611,-0.0130699999999999,-0.270636,0.151189
1069,0.124277,0.974846,-0.185015,0.0284019999999999,-0.144982,0.211534
1070,0.111266,0.981846,-0.153619,-0.000732,-0.049366,0.202523
1071,0.098172,0.987369,-0.124355,0.008059,-0.039097,0.172558
1072,0.086444,0.99117,-0.100543,-0.006122,-0.048345,0.091601
1073,0.075691,0.993906,-0.080136,0.011422,-0.12739,-0.027316
1074,0.064289,0.996028,-0.061611,0.017315,-0.139552,-0.063999
1075,0.051694,0.99778,-0.041997,0.068332,-0.157112,-0.02653
1076,0.036195,0.999138,-0.0203479999999999,0.130889,-0.123207,0.035012
1077,0.01765,0.999841,0.002359,0.1759079999999999,-0.1148619999999999,-0.002999
1078,-0.004444,0.999716,0.023431,0.2038,-0.111562,-0.06402
1079,-0.02585,0.998806,0.041463,0.141206,0.025471,0.038218
1080,-0.044251,0.997368,0.057444,0.146485,0.048745,0.024724
1081,-0.055661,0.995898,0.0713309999999999,0.151777,0.085141,0.037785
1082,-0.063573,0.994677,0.081091,0.192129,0.2433449999999999,-0.041342
1083,-0.070171,0.993766,0.086634,0.21429,0.2836079999999999,-0.114741
1084,-0.075393,0.993078,0.090063,0.264099,0.292353,-0.191351
1085,-0.079476,0.99282,0.089401,0.310661,0.346902,-0.1497339999999999
1086,-0.079981,0.993359,0.0827059999999999,0.26092,0.370899,-0.082386
1087,-0.07628,0.995036,0.063914,0.271546,0.144155,0.056462
1088,-0.067732,0.997084,0.035142,0.177702,0.062562,0.063979
1089,-0.051423,0.998677,-0.0002189999999999,0.047593,0.016551,0.099859
1090,-0.030708,0.99851,-0.045113,-0.086754,0.0891059999999999,0.054619
1091,-0.01158,0.994964,-0.099558,-0.2450119999999999,0.294586,0.067896
1092,0.0024,0.987548,-0.157302,-0.463811,0.598359,0.1781609999999999
1093,0.013341,0.977204,-0.211884,-0.5279590000000001,0.453399,0.185028
1094,0.031283,0.965937,-0.256878,-0.323366,0.2862139999999999,0.093152
1095,0.059715,0.953735,-0.294657,-0.125237,0.2555389999999999,0.083323
1096,0.094399,0.93948,-0.329341,0.001121,0.2235599999999999,0.131206
1097,0.125238,0.92285,-0.3642309999999999,0.05004,0.1048299999999999,0.245075
1098,0.147726,0.904395,-0.400308,-0.046698,0.009988,0.22175
1099,0.1660839999999999,0.886551,-0.431792,-0.098503,-0.105331,0.215285
1100,0.171517,0.8723770000000001,-0.457755,-0.1201869999999999,-0.250795,0.342734
1101,0.16337,0.8620760000000001,-0.479725,-0.127054,-0.3513949999999999,0.440067
1102,0.147768,0.854025,-0.498805,-0.166399,-0.395391,0.399485
1103,0.129383,0.848841,-0.512571,-0.176228,-0.458552,0.366346
1104,0.1120369999999999,0.8473430000000001,-0.519093,-0.1555099999999999,-0.463234,0.309513
1105,0.099098,0.849575,-0.518075,-0.14608,-0.418408,0.231698
1106,0.093192,0.8552209999999999,-0.509817,-0.168845,-0.2459219999999999,0.1270349999999999
1107,0.095943,0.863608,-0.49495,-0.1506,-0.221869,0.0784919999999999
1108,0.106763,0.8731,-0.475709,-0.105299,-0.148597,-0.0277089999999999
1109,0.121042,0.88185,-0.45573,0.040152,0.130266,-0.3015489999999999
1110,0.133502,0.888526,-0.438974,0.1099059999999999,0.2339409999999999,-0.365912
1111,0.13944,0.8921389999999999,-0.429703,0.302455,0.375241,-0.370132
1112,0.138564,0.8917579999999999,-0.430776,0.4289409999999999,0.193966,-0.2590119999999999
1113,0.13867,0.8881760000000001,-0.43808,0.360659,0.09481,-0.258453
1114,0.1407,0.884122,-0.4455689999999999,0.09369,0.070498,-0.257663
1115,0.144445,0.882551,-0.447481,0.081111,0.417574,-0.097823
1116,0.147051,0.8824120000000001,-0.446905,0.086851,0.6280399999999999,0.043143
1117,0.152696,0.880972,-0.447853,-0.016207,1.093592,0.202141
1118,0.163252,0.8812030000000001,-0.443655,-0.466902,-0.311776,0.371909
1119,0.173974,0.883491,-0.4349439999999999,-0.513528,-0.620582,0.37455
1120,0.178385,0.8866729999999999,-0.426602,-0.465449,-0.540024,0.331906
1121,0.1792619999999999,0.892465,-0.413969,-0.211107,-0.266718,0.546949
1122,0.176488,0.904133,-0.389096,-0.095067,-0.098332,0.522762
1123,0.160748,0.920526,-0.356079,0.055759,0.640814,0.406463
1124,0.139069,0.935794,-0.3239599999999999,0.002685,0.763196,0.376648
1125,0.131321,0.948036,-0.289796,-0.271778,0.444115,0.25081
1126,0.134015,0.957988,-0.253573,-0.071119,-0.123347,0.129473
1127,0.134955,0.966759,-0.2171719999999999,-0.001898,-0.3064199999999999,0.134332
1128,0.131429,0.973721,-0.185995,0.032115,-0.3256949999999999,0.149343
1129,0.1245059999999999,0.979251,-0.159892,0.075568,-0.1664,0.200434
1130,0.114225,0.98403,-0.136517,0.073137,-0.083121,0.174786
1131,0.102345,0.988106,-0.11477,0.076564,-0.009178,0.151162
1132,0.092482,0.991491,-0.091607,0.000474,-0.018652,0.053033
1133,0.082269,0.994104,-0.070638,0.039084,-0.174524,0.020589
1134,0.0692779999999999,0.996382,-0.049234,0.03555,-0.147993,-0.024191
1135,0.054838,0.998134,-0.0268519999999999,0.124865,-0.139141,-0.076572
1136,0.036655,0.999319,-0.004117,0.201169,-0.165106,-0.089786
1137,0.0147669999999999,0.999754,0.01655,0.243412,-0.090254,-0.105692
1138,-0.000634,0.999324,0.036768,0.216592,-0.006755,0.035726
1139,-0.020529,0.998346,0.053706,0.1797089999999999,0.015509,0.043264
1140,-0.034213,0.996958,0.07003,0.145266,0.0257009999999999,0.002419
1141,-0.044156,0.995594,0.082716,0.179639,0.182247,0.045443
1142,-0.050792,0.994721,0.089166,0.192302,0.309158,-0.099893
1143,-0.053937,0.994223,0.092794,0.190961,0.3235409999999999,-0.2001099999999999
1144,-0.05495,0.994154,0.092947,0.16933,0.323244,-0.181982
1145,-0.0531059999999999,0.994888,0.08589,0.098348,0.351456,-0.082839
1146,-0.046678,0.996545,0.0687,0.251299,0.245551,0.199
1147,-0.036656,0.998573,0.038841,0.226766,-0.0074379999999999,0.086708
1148,-0.020885,0.999782,-0.0002319999999999,0.076565,0.007558,0.104694
1149,-0.000656,0.99873,-0.050375,-0.109177,0.117939,0.082724
1150,0.018001,0.993708,-0.110548,-0.328533,0.375494,0.092573
1151,0.032925,0.984228,-0.173811,-0.6158100000000001,0.839563,0.183546
1152,0.046159,0.972252,-0.2293369999999999,-0.719087,0.542488,0.184613
1153,0.0691259999999999,0.959786,-0.2720909999999999,-0.4253119999999999,0.317665,0.004665
1154,0.103046,0.946602,-0.305492,-0.178729,0.276618,-0.007252
1155,0.143558,0.931709,-0.333631,0.000988,0.202233,0.110151
1156,0.178306,0.913808,-0.364913,0.07293,0.100016,0.313659
1157,0.202427,0.8933909999999999,-0.401093,0.013302,-0.047917,0.360596
1158,0.217359,0.872906,-0.436795,-0.076887,-0.2192349999999999,0.270978
1159,0.216746,0.856908,-0.467686,-0.208552,-0.3563429999999999,0.347447
1160,0.203673,0.8464200000000001,-0.492027,-0.244154,-0.366012,0.344597
1161,0.185916,0.8394020000000001,-0.510724,-0.226398,-0.358994,0.363294
1162,0.16773,0.835791,-0.5228,-0.211019,-0.419608,0.271991
1163,0.1514339999999999,0.835982,-0.5274479999999999,-0.1237549999999999,-0.453383,0.216794
1164,0.139463,0.838994,-0.525964,-0.100752,-0.437154,0.214258
1165,0.134841,0.844289,-0.518646,-0.1464069999999999,-0.319951,0.167221
1166,0.13651,0.851872,-0.505648,-0.126607,-0.18993,0.016725
1167,0.142055,0.861159,-0.488084,-0.113811,-0.129149,-0.081634
1168,0.149704,0.870303,-0.469213,-0.056396,0.0771299999999999,-0.279536
1169,0.156599,0.8767459999999999,-0.454744,0.206026,0.482339,-0.447752
1170,0.159376,0.8783770000000001,-0.450614,0.300952,0.508525,-0.45736
1171,0.156077,0.875724,-0.4568899999999999,0.368673,0.062997,-0.393681
1172,0.149901,0.872268,-0.465487,0.259705,-0.094466,-0.341199
1173,0.145054,0.8688620000000001,-0.473327,0.033367,-0.050502,-0.175995
1174,0.143205,0.8640620000000001,-0.482587,-0.0663,0.565183,0.074521
1175,0.140994,0.8582690000000001,-0.493452,-0.1299,0.783806,0.136794
1176,0.135511,0.8580559999999999,-0.495356,-0.4478279999999999,0.660423,0.192209
1177,0.136451,0.8628020000000001,-0.48678,-0.4424659999999999,-0.430413,0.33764
1178,0.143069,0.868764,-0.47411,-0.3582639999999999,-0.387883,0.37067
1179,0.1580619999999999,0.8744120000000001,-0.458716,-0.302822,-0.3720469999999999,0.475547
1180,0.175546,0.8872450000000001,-0.426591,-0.076135,-0.053001,0.536439
1181,0.17817,0.905927,-0.384125,0.003073,0.206469,0.440766
1182,0.168081,0.924357,-0.342509,0.095789,0.7688189999999999,0.328975
1183,0.158459,0.938449,-0.306927,-0.194226,0.331876,0.254895
1184,0.156514,0.948894,-0.27405,-0.110539,-0.054363,0.179293
1185,0.153832,0.958748,-0.239034,-0.065743,-0.219689,0.167653
1186,0.147464,0.967621,-0.204851,-0.035633,-0.3004,0.192781
1187,0.137793,0.975041,-0.174094,-0.0009519999999999,-0.296437,0.1827
1188,0.126123,0.981231,-0.145869,0.004797,-0.178268,0.141536
1189,0.1130579999999999,0.986445,-0.118925,-0.02471,-0.08108,0.1204819999999999
1190,0.100255,0.990554,-0.093548,-0.0123489999999999,-0.044952,0.100522
1191,0.08882,0.993612,-0.069609,0.03473,-0.0880799999999999,0.069762
1192,0.077682,0.995843,-0.047562,0.054123,-0.1120839999999999,-0.000641
1193,0.065743,0.997529,-0.024763,0.085517,-0.1074079999999999,-0.0513169999999999
1194,0.050917,0.998703,-0.000372,0.161851,-0.1265869999999999,-0.039286
1195,0.032061,0.999213,0.023366,0.210569,-0.107901,-0.058064
1196,0.010333,0.998976,0.044045,0.20445,-0.048888,-0.039162
1197,0.011852,0.997974,0.062503,0.1854589999999999,0.088238,0.032223
1198,-0.0041979999999999,0.997009,0.077172,0.087755,0.063919,-0.027948
1199,-0.014736,0.995903,0.089223,0.063564,0.292443,-0.032491
1200,-0.021141,0.99532,0.094289,0.089882,0.325679,-0.109548
1201,-0.025106,0.995171,0.094889,0.189413,0.306083,-0.24708
1202,-0.0279649999999999,0.99534,0.09228,0.333934,0.389837,-0.2070409999999999
1203,-0.0283529999999999,0.996295,0.081191,0.266604,0.405591,-0.125624
1204,-0.022356,0.997983,0.059414,0.231996,0.21773,0.100284
1205,-0.010045,0.999625,0.025469,0.172291,-0.085914,0.1106549999999999
1206,0.0074959999999999,0.999798,-0.018654,0.047467,-0.063961,0.156898
1207,0.027888,0.99684,-0.074373,-0.146326,0.140122,0.09099
1208,0.044986,0.989567,-0.13687,-0.396975,0.7791100000000001,0.212661
1209,0.0565059999999999,0.978215,-0.199756,-0.5341359999999999,0.868983,0.283389
1210,0.069931,0.964914,-0.253083,-0.587906,0.4568239999999999,0.192185
1211,0.0938399999999999,0.9506,-0.295894,-0.2948139999999999,0.30001,0.0138039999999999
1212,0.127168,0.934537,-0.332367,-0.244936,0.262515,0.036393
1213,0.164392,0.916048,-0.36583,-0.071909,0.20793,0.114228
1214,0.194896,0.895166,-0.400865,-0.038417,0.051016,0.294191
1215,0.2169989999999999,0.8742479999999999,-0.434283,-0.075168,-0.039028,0.328082
1216,0.231616,0.8555159999999999,-0.463084,-0.154239,-0.2908489999999999,0.32699
1217,0.2315429999999999,0.841693,-0.487792,-0.202871,-0.40047,0.427642
1218,0.219019,0.832868,-0.5082939999999999,-0.260951,-0.421506,0.453988
1219,0.200049,0.8275899999999999,-0.524476,-0.247153,-0.472106,0.408738
1220,0.178196,0.826073,-0.5346489999999999,-0.221439,-0.496072,0.380474
1221,0.15854,0.8287,-0.5367689999999999,-0.2013859999999999,-0.48257,0.26646
1222,0.145229,0.835131,-0.530533,-0.220638,-0.3587059999999999,0.169723
1223,0.139309,0.844932,-0.516413,-0.183773,-0.292121,0.075114
1224,0.139726,0.8571790000000001,-0.4957029999999999,-0.167848,-0.164415,-0.062571
1225,0.145369,0.8686940000000001,-0.473538,-0.08325,0.1074869999999999,-0.2735619999999999
1226,0.154809,0.8763,-0.456216,0.138892,0.5046510000000001,-0.407752
1227,0.161693,0.878181,-0.450171,0.294087,0.741448,-0.420541
1228,0.16105,0.8739899999999999,-0.45848,0.354026,0.405825,-0.339814
1229,0.159146,0.867481,-0.471327,0.16463,-0.070514,-0.3090989999999999
1230,0.154591,0.8625309999999999,-0.481811,-0.015065,-0.121778,-0.175278
1231,0.148568,0.8598129999999999,-0.488518,0.014869,0.239415,0.0721509999999999
1232,0.140779,0.855065,-0.499044,-0.187684,0.712043,0.275655
1233,0.131885,0.85051,-0.509155,-0.4676079999999999,0.8625940000000001,0.215561
1234,0.126735,0.8505510000000001,-0.510393,-0.617839,-0.027614,0.213808
1235,0.133329,0.855017,-0.5011680000000001,-0.407896,-0.477927,0.361672
1236,0.150929,0.860276,-0.486977,-0.2735329999999999,-0.29924,0.490685
1237,0.17292,0.8685299999999999,-0.4644939999999999,-0.134605,-0.196411,0.597978
1238,0.185609,0.884602,-0.427818,0.1057119999999999,0.346431,0.476371
1239,0.181516,0.902998,-0.389417,0.149798,0.529146,0.418699
1240,0.170118,0.919778,-0.353651,-0.11598,0.60723,0.3174119999999999
1241,0.16547,0.933301,-0.318698,-0.169925,0.06737,0.2280449999999999
1242,0.167021,0.945382,-0.2799239999999999,-0.150862,-0.065087,0.185045
1243,0.168594,0.95634,-0.238724,-0.088836,-0.285289,0.209167
1244,0.166783,0.965493,-0.200016,-0.03806,-0.316232,0.201603
1245,0.160746,0.972949,-0.165927,-0.011683,-0.252245,0.166949
1246,0.149091,0.979324,-0.136738,-0.089734,-0.07167,0.130268
1247,0.135156,0.98452,-0.111595,-0.072168,-0.023933,0.126656
1248,0.123247,0.988428,-0.088429,-0.033174,-0.0550019999999999,0.110203
1249,0.112547,0.99146,-0.065884,0.062425,-0.167149,0.080731
1250,0.09996,0.994045,-0.043392,0.087646,-0.101268,-0.0131259999999999
1251,0.085227,0.996187,-0.018634,0.152352,-0.116167,-0.043042
1252,0.069609,0.997562,0.004972,0.232332,-0.112918,-0.089567
1253,0.050112,0.998444,0.024459,0.236921,-0.012787,-0.065886
1254,0.0310389999999999,0.998711,0.040162,0.23596,-0.023949,0.003021
1255,0.015196,0.998499,0.052618,0.2120989999999999,0.0651149999999999,0.055536
1256,0.003915,0.997814,0.065975,0.068244,0.053136,-4.2e-05
1257,-0.004998,0.997045,0.076657,0.057855,0.138896,-0.0247919999999999
1258,-0.01222,0.9966,0.08148,0.089613,0.291242,-0.142927
1259,-0.0166979999999999,0.996414,0.082952,0.129049,0.2665869999999999,-0.157171
1260,-0.018241,0.996399,0.0828059999999999,0.127295,0.26709,-0.1418579999999999
1261,-0.017155,0.996813,0.077909,0.137485,0.350721,0.037173
1262,-0.012131,0.997971,0.062498,0.12027,0.291076,0.129442
1263,-0.002035,0.99944,0.033387,0.162985,0.040034,0.06932
1264,0.014146,0.999889,-0.004732,-0.005402,0.017064,0.122439
1265,0.034645,0.997918,-0.054395,-0.163933,0.1042849999999999,0.049818
1266,0.0527,0.992054,-0.114247,-0.296169,0.358563,0.07143
1267,0.065416,0.98199,-0.177246,-0.534028,0.754613,0.187775
1268,0.076468,0.96948,-0.2329389999999999,-0.5322640000000001,0.5426810000000001,0.151625
1269,0.096051,0.956591,-0.27515,-0.287045,0.36279,-0.00488
1270,0.125751,0.942835,-0.3086239999999999,-0.11008,0.319982,-0.00972
1271,0.160708,0.926877,-0.339221,0.014356,0.242556,0.078571
1272,0.191802,0.908297,-0.371763,0.044694,0.156247,0.214613
1273,0.213765,0.8883770000000001,-0.406313,-0.129415,-0.123668,0.246935
1274,0.230552,0.8692469999999999,-0.437328,-0.167183,-0.2021329999999999,0.279491
1275,0.234415,0.8539979999999999,-0.464475,-0.194376,-0.251505,0.352613
1276,0.224429,0.842915,-0.489005,-0.25397,-0.392689,0.500922
1277,0.206587,0.8342780000000001,-0.511177,-0.245878,-0.411564,0.4517739999999999
1278,0.185314,0.828843,-0.527899,-0.222652,-0.4289409999999999,0.41033
1279,0.165102,0.828052,-0.53579,-0.188829,-0.477802,0.31173
1280,0.149038,0.831176,-0.535663,-0.181493,-0.4198439999999999,0.243259
1281,0.139904,0.837183,-0.5287270000000001,-0.207744,-0.337381,0.196604
1282,0.139011,0.8453,-0.515891,-0.227741,-0.203271,0.096961
1283,0.145171,0.8545020000000001,-0.49875,-0.181442,-0.012293,-0.1136619999999999
1284,0.155631,0.8630459999999999,-0.4805529999999999,-0.1423859999999999,0.1012639999999999,-0.2152329999999999
1285,0.167173,0.868625,-0.466417,0.157153,0.4917569999999999,-0.366332
1286,0.1743289999999999,0.8694219999999999,-0.462292,0.3212,0.490502,-0.371402
1287,0.174285,0.8653780000000001,-0.469837,0.321244,0.494547,-0.363858
1288,0.170188,0.859201,-0.482504,0.165963,-0.166498,-0.246057
1289,0.1638359999999999,0.854404,-0.493104,0.0075049999999999,-0.065845,-0.145416
1290,0.1590089999999999,0.851301,-0.5000020000000001,0.012332,-0.0627419999999999,-0.138517
1291,0.15279,0.847708,-0.5079819999999999,-0.108509,0.878534,0.105989
1292,0.143416,0.8438049999999999,-0.517131,-0.424239,0.8831540000000001,0.150447
1293,0.13293,0.8433799999999999,-0.520614,-0.413753,0.8835790000000001,0.1539309999999999
1294,0.132844,0.8465379999999999,-0.5154850000000001,-0.474778,-0.532284,0.288709
1295,0.140941,0.850794,-0.506246,-0.279308,-0.382791,0.4574789999999999
1296,0.158108,0.8544719999999999,-0.494853,-0.1918,-0.410563,0.617106
1297,0.176009,0.8671629999999999,-0.465885,-0.027342,-0.203299,0.613438
1298,0.178267,0.8858659999999999,-0.428324,0.118059,0.374067,0.482997
1299,0.170177,0.904645,-0.390713,0.170506,0.8778100000000001,0.32896
1300,0.166302,0.919362,-0.356536,-0.210247,0.546596,0.271331
1301,0.1730789999999999,0.931335,-0.320404,-0.201125,-0.0560299999999999,0.14656
1302,0.17932,0.943036,-0.280226,-0.194304,-0.144636,0.119444
1303,0.179644,0.953993,-0.240053,-0.195498,-0.230437,0.153108
1304,0.1741049999999999,0.96357,-0.203026,-0.104479,-0.271386,0.245461
1305,0.1640869999999999,0.971785,-0.169436,-0.079172,-0.20082,0.231173
1306,0.149967,0.978822,-0.139345,-0.068241,-0.068391,0.236315
1307,0.13597,0.984293,-0.112605,-0.067961,-0.022379,0.198054
1308,0.12475,0.988335,-0.087355,-0.037531,-0.0839159999999999,0.123732
1309,0.114023,0.991577,-0.061437,0.0125329999999999,-0.165893,0.0520679999999999
1310,0.102069,0.994188,-0.034229,0.060804,-0.146532,-0.0002399999999999
1311,0.087547,0.99614,-0.006328,0.098259,-0.0990149999999999,-0.037007
1312,0.070422,0.997297,0.020967,0.1718569999999999,-0.069288,-0.093583
1313,0.051496,0.997747,0.042998,0.185687,-0.095373,-0.128997
1314,0.033108,0.997703,0.0591019999999999,0.248935,-0.005149,0.0126299999999999
1315,0.018065,0.997285,0.071391,0.216432,0.03897,0.03391
1316,0.007586,0.996627,0.08171,0.180494,0.015595,0.003128
1317,0.000235,0.995855,0.09095,0.144693,0.0543,-0.012642
1318,-0.0065379999999999,0.995387,0.095719,0.097053,0.2741139999999999,-0.119324
1319,-0.011343,0.995116,0.098061,0.091543,0.301942,-0.164071
1320,-0.014206,0.995019,0.098664,0.142044,0.304694,-0.164002
1321,-0.0148,0.995272,0.095995,0.159957,0.317564,-0.11664
1322,-0.011498,0.99636,0.084464,0.2164849999999999,0.313454,0.107293
1323,-0.003482,0.998184,0.0601419999999999,0.307086,0.215226,0.158944
1324,0.010948,0.999625,0.025115,0.134316,-0.024207,0.053849
1325,0.03159,0.99929,-0.02051,-0.052784,0.051842,0.046221
1326,0.051209,0.995572,-0.078833,-0.140565,0.120975,0.061011
1327,0.064482,0.987707,-0.1424,-0.405043,0.6364850000000001,0.206777
1328,0.073062,0.97626,-0.203908,-0.627582,0.716214,0.230535
1329,0.0890649999999999,0.963524,-0.252366,-0.597808,0.53408,0.165864
1330,0.1166369999999999,0.949929,-0.28988,-0.26834,0.348533,-0.021445
1331,0.153131,0.934587,-0.321088,-0.097711,0.28224,-0.004016
1332,0.188865,0.916897,-0.351611,-0.045921,0.273258,0.085895
1333,0.214856,0.897424,-0.385315,-0.032422,0.067038,0.302627
1334,0.234014,0.8774059999999999,-0.418802,-0.104696,-0.128032,0.288248
1335,0.242426,0.859759,-0.449493,-0.155268,-0.249942,0.353012
1336,0.235217,0.847029,-0.476671,-0.228503,-0.4062179999999999,0.479753
1337,0.218476,0.8377950000000001,-0.500367,-0.2360539999999999,-0.423351,0.456727
1338,0.1966119999999999,0.832292,-0.518299,-0.23569,-0.493501,0.385731
1339,0.172846,0.831781,-0.527507,-0.206919,-0.535837,0.319316
1340,0.151314,0.836327,-0.526935,-0.196312,-0.5193260000000001,0.245761
1341,0.13663,0.844791,-0.517359,-0.235553,-0.389255,0.159449
1342,0.129738,0.855504,-0.5012800000000001,-0.223885,-0.292546,0.082716
1343,0.131175,0.866583,-0.481485,-0.210337,-0.160314,-0.038855
1344,0.1406589999999999,0.875466,-0.4623569999999999,-0.1441079999999999,0.073996,-0.198151
1345,0.1554029999999999,0.88029,-0.448262,0.028236,0.435475,-0.310634
1346,0.167127,0.879393,-0.445799,0.146639,0.681963,-0.384371
1347,0.170756,0.8739600000000001,-0.4550119999999999,0.274633,0.459277,-0.313725
1348,0.1695539999999999,0.867124,-0.468346,0.092348,0.044604,-0.266944
1349,0.1650569999999999,0.8607739999999999,-0.481481,-0.1145359999999999,0.057362,-0.219859
1350,0.158192,0.853007,-0.497347,0.028973,0.595693,-0.0261519999999999
1351,0.145272,0.8421209999999999,-0.519354,-0.037438,0.965893,0.0537169999999999
1352,0.131456,0.837892,-0.529771,-0.595308,-0.214128,0.237168
1353,0.12833,0.840815,-0.525891,-0.669407,-0.402446,0.2953
1354,0.135712,0.8442649999999999,-0.518458,-0.443939,-0.354916,0.392421
1355,0.153329,0.8485659999999999,-0.506386,-0.058252,-0.44671,0.7676310000000001
1356,0.174743,0.863974,-0.472243,-0.079665,-0.4621189999999999,0.7334890000000001
1357,0.184428,0.884797,-0.427925,0.097097,0.423781,0.517479
1358,0.182172,0.90537,-0.383559,0.172793,0.912485,0.310424
1359,0.183284,0.920332,-0.345537,-0.1716869999999999,0.556505,0.272325
1360,0.190766,0.931925,-0.308423,-0.178833,0.071112,0.2059909999999999
1361,0.194646,0.943081,-0.269648,-0.180882,-0.15141,0.193232
1362,0.191874,0.95368,-0.2316869999999999,-0.187555,-0.181143,0.172697
1363,0.185094,0.962762,-0.197054,-0.122884,-0.275658,0.17911
1364,0.175859,0.970596,-0.164366,-0.033113,-0.180145,0.20175
1365,0.162969,0.9776,-0.133191,-0.01473,-0.124832,0.201474
1366,0.149547,0.983111,-0.105492,0.022038,-0.027957,0.211632
1367,0.1394359999999999,0.987204,-0.077375,0.028762,-0.061712,0.093091
1368,0.130469,0.990036,-0.052979,0.0448089999999999,-0.11589,0.037141
1369,0.119128,0.992475,-0.028326,0.095029,-0.216275,-0.040156
1370,0.1047589999999999,0.994493,-0.003011,0.1030349999999999,-0.1552599999999999,-0.12295
1371,0.086502,0.996013,0.021831,0.155914,-0.1530099999999999,-0.12817
1372,0.064587,0.997004,0.042571,0.217685,-0.156046,-0.13391
1373,0.04208,0.997215,0.061576,0.240162,-0.003853,0.005029
1374,0.022403,0.996676,0.078332,0.249829,0.03491,0.025382
1375,0.007657,0.99558,0.093607,0.137195,0.07812,-0.0572149999999999
1376,-0.004611,0.994415,0.1054349999999999,0.084857,0.1207119999999999,-0.077863
1377,-0.016304,0.993843,0.109588,0.0507279999999999,0.254509,-0.114837
1378,-0.023833,0.993686,0.109638,0.172973,0.297589,-0.158542
1379,-0.0260269999999999,0.994072,0.1055609999999999,0.228877,0.4234239999999999,-0.084199
1380,-0.019601,0.995469,0.093041,0.17428,0.453139,0.033729
1381,-0.0043869999999999,0.997636,0.068574,0.170632,0.231841,0.087111
1382,0.0186509999999999,0.999247,0.034015,0.037974,0.093877,0.069348
1383,0.044578,0.998935,-0.011871,-0.102974,0.034375,0.067642
1384,0.067094,0.995283,-0.070065,-0.3416909999999999,0.190385,0.072461
1385,0.080957,0.987684,-0.13389,-0.488946,0.5673239999999999,0.224939
1386,0.088854,0.976832,-0.194688,-0.5654319999999999,0.699605,0.3003699999999999
1387,0.105592,0.964339,-0.242695,-0.336351,0.384767,0.086536
1388,0.133928,0.949957,-0.282215,-0.129503,0.368692,-0.008282
1389,0.167103,0.932902,-0.3190139999999999,-0.089619,0.358205,0.021513
1390,0.193843,0.912966,-0.359053,0.0282639999999999,0.174543,0.178587
1391,0.2124349999999999,0.8909959999999999,-0.401244,-0.04703,0.043849,0.251952
1392,0.225238,0.869767,-0.43906,-0.120242,-0.0306709999999999,0.271961
1393,0.226181,0.853699,-0.469084,-0.194565,-0.313279,0.383238
1394,0.217676,0.842413,-0.492907,-0.2383969999999999,-0.390509,0.4558279999999999
1395,0.204379,0.835227,-0.5105149999999999,-0.281832,-0.451514,0.42415
1396,0.188725,0.832355,-0.5211210000000001,-0.260731,-0.5172,0.401065
1397,0.172251,0.834017,-0.524161,-0.2109619999999999,-0.5401020000000001,0.34014
1398,0.158091,0.8401219999999999,-0.5188470000000001,-0.180705,-0.507404,0.265277
1399,0.150457,0.8499059999999999,-0.504997,-0.1975,-0.362556,0.152351
1400,0.150912,0.861825,-0.484234,-0.19443,-0.272455,0.064282
1401,0.159445,0.8732030000000001,-0.460537,-0.179861,-0.111896,-0.075489
1402,0.173166,0.880956,-0.440376,-0.095621,0.175868,-0.2781909999999999
1403,0.185004,0.8838440000000001,-0.4296439999999999,0.075021,0.5431279999999999,-0.421522
1404,0.186367,0.88126,-0.4343359999999999,0.195118,0.684612,-0.366415
1405,0.184322,0.874607,-0.448428,0.276615,0.335751,-0.29585
1406,0.180296,0.868977,-0.460838,0.012529,-0.200673,-0.2632219999999999
1407,0.176968,0.866942,-0.465933,-0.017422,-0.110243,-0.199838
1408,0.1725809999999999,0.8641409999999999,-0.472732,-0.001118,0.335611,0.0610039999999999
1409,0.165958,0.858664,-0.484927,-0.305118,1.081827,0.2449059999999999
1410,0.158066,0.8572629999999999,-0.490015,-0.517808,0.842352,0.263804
1411,0.1610079999999999,0.8594629999999999,-0.48518,-0.548138,-0.20776,0.319348
1412,0.172336,0.8636309999999999,-0.473754,-0.269092,-0.352476,0.487914
1413,0.189239,0.8705280000000001,-0.454279,-0.206955,-0.313979,0.582391
1414,0.199319,0.886058,-0.418538,-0.007883,-0.074656,0.570256
1415,0.193197,0.905262,-0.378386,0.208918,0.489529,0.4397729999999999
1416,0.180347,0.923262,-0.339208,0.10957,0.564821,0.3726239999999999
1417,0.1741339999999999,0.937622,-0.300903,-0.241303,0.399948,0.331848
1418,0.173875,0.949483,-0.261245,-0.266984,-0.031774,0.235611
1419,0.17253,0.959324,-0.223452,-0.255675,-0.14484,0.178424
1420,0.169438,0.966655,-0.192013,-0.153767,-0.302272,0.163967
1421,0.164705,0.972345,-0.165579,-0.121218,-0.321268,0.142279
1422,0.157079,0.977572,-0.140283,-0.063955,-0.2260309999999999,0.144144
1423,0.148285,0.982155,-0.115684,-0.032395,0.008308,0.213905
1424,0.140868,0.98572,-0.092264,-0.005004,-0.015108,0.15777
1425,0.1328349999999999,0.988779,-0.068339,0.01693,-0.061808,0.092067
1426,0.12087,0.991698,-0.043873,0.084315,-0.124633,-0.040172
1427,0.104256,0.99437,-0.018937,0.180748,-0.176621,-0.092177
1428,0.083877,0.996466,0.004484,0.229325,-0.179739,-0.13136
1429,0.062583,0.99772,0.025269,0.287255,-0.017877,0.0065
1430,0.043944,0.998098,0.043243,0.303682,0.014399,0.0436709999999999
1431,0.029519,0.997881,0.057981,0.2601989999999999,-0.027087,0.039859
1432,0.018372,0.997425,0.0693309999999999,0.080948,-0.040607,0.037404
1433,0.008559,0.997111,0.0754809999999999,0.026918,0.0591029999999999,-0.021526
1434,0.0004559999999999,0.996886,0.078855,0.041506,0.2473,-0.112638
1435,-0.0037479999999999,0.996763,0.080312,0.114039,0.307269,-0.129064
1436,-0.002712,0.996812,0.079744,0.113368,0.32994,-0.127001
1437,0.00475,0.997377,0.072232,0.084101,0.339675,0.094547
1438,0.017884,0.998492,0.051894,0.246978,0.25842,0.154817
1439,0.03615,0.999161,0.019259,0.2128739999999999,0.115921,0.096616
1440,0.058204,0.997936,-0.027117,-0.028525,0.084263,0.116625
1441,0.0782809999999999,0.993043,-0.0879679999999999,-0.3023099999999999,0.127364,0.030641
1442,0.093195,0.983491,-0.155113,-0.548014,0.47557,0.095711
1443,0.102496,0.970612,-0.217729,-0.762332,0.78575,0.289613
1444,0.119289,0.956898,-0.264795,-0.5935020000000001,0.4463,0.164697
1445,0.149393,0.941957,-0.300663,-0.215006,0.35713,-0.049571
1446,0.188096,0.924648,-0.331129,-0.052552,0.327565,-0.053026
1447,0.223254,0.904354,-0.363733,0.074765,0.246022,0.088831
1448,0.24778,0.881934,-0.400996,-0.007881,0.032632,0.221553
1449,0.265018,0.859239,-0.437577,-0.064624,-0.043306,0.239244
1450,0.267758,0.841672,-0.4689279999999999,-0.171368,-0.219907,0.339778
1451,0.260155,0.830061,-0.493272,-0.2473679999999999,-0.359282,0.406526
1452,0.249484,0.822261,-0.511512,-0.26395,-0.363216,0.368979
1453,0.23736,0.818785,-0.5227350000000001,-0.277444,-0.419172,0.289093
1454,0.223538,0.81989,-0.527077,-0.21986,-0.498296,0.262261
1455,0.209109,0.824523,-0.525771,-0.176287,-0.494689,0.238448
1456,0.1988359999999999,0.832899,-0.516473,-0.16284,-0.405576,0.175835
1457,0.195525,0.844211,-0.499076,-0.150161,-0.26958,0.131248
1458,0.197995,0.8571559999999999,-0.47548,-0.1597869999999999,-0.212259,0.075044
1459,0.203285,0.869085,-0.450962,-0.172264,-0.0030269999999999,-0.089169
1460,0.207863,0.8770450000000001,-0.43311,-0.024742,0.588043,-0.393031
1461,0.206704,0.8789620000000001,-0.429767,0.08657,0.7359060000000001,-0.405072
1462,0.202322,0.873826,-0.442147,0.193948,0.601867,-0.2696909999999999
1463,0.197174,0.865238,-0.4609609999999999,0.097946,-0.170002,-0.280158
1464,0.190318,0.859994,-0.4734859999999999,0.0149889999999999,-0.321893,-0.28628
1465,0.18445,0.859648,-0.476429,-0.040743,0.01993,-0.037411
1466,0.175646,0.859489,-0.4800279999999999,-0.085726,0.220879,0.077227
1467,0.163648,0.859159,-0.484836,-0.2365239999999999,0.778292,0.203464
1468,0.15292,0.8601340000000001,-0.486605,-0.566189,0.0105469999999999,0.3314539999999999
1469,0.157421,0.8604450000000001,-0.484616,-0.386211,-0.3375869999999999,0.371427
1470,0.172352,0.86236,-0.476056,-0.236942,-0.333811,0.417585
1471,0.1938109999999999,0.8679030000000001,-0.457364,-0.126993,-0.261565,0.625165
1472,0.207983,0.8815790000000001,-0.423747,0.037088,0.0581179999999999,0.58668
1473,0.205096,0.8985559999999999,-0.3879849999999999,0.19116,0.477893,0.433746
1474,0.19537,0.914819,-0.353464,-0.020245,0.566596,0.345011
1475,0.191028,0.928922,-0.317196,-0.257281,0.257312,0.279644
1476,0.191197,0.941684,-0.276902,-0.251546,0.025922,0.177262
1477,0.190478,0.952623,-0.237123,-0.221911,-0.170198,0.150606
1478,0.18584,0.9613,-0.2033859999999999,-0.12717,-0.243862,0.167955
1479,0.176925,0.968305,-0.176303,-0.0531909999999999,-0.214155,0.1691619999999999
1480,0.165068,0.974548,-0.151686,-0.04611,-0.127685,0.1776569999999999
1481,0.152693,0.979898,-0.128395,-0.047056,-0.033471,0.182564
1482,0.142736,0.983968,-0.106925,-0.042607,-0.049047,0.158897
1483,0.1340329999999999,0.98717,-0.086776,0.002869,-0.138354,0.107268
1484,0.123098,0.990171,-0.066398,0.039225,-0.150724,0.041237
1485,0.11043,0.992927,-0.043606,0.113188,-0.123359,-0.03516
1486,0.094737,0.995276,-0.021224,0.205327,-0.098776,-0.113725
1487,0.076397,0.997076,-0.001551,0.255802,-0.100607,-0.150381
1488,0.056997,0.99827,0.0144129999999999,0.275721,-0.0478,-0.05172
1489,0.039174,0.998879,0.026565,0.248332,0.018119,0.0746309999999999
1490,0.025477,0.998962,0.037759,0.126027,0.005478,0.079718
1491,0.014832,0.998804,0.046594,0.097748,-0.001947,0.071128
1492,0.004929,0.998629,0.052108,0.0573269999999999,0.10449,-0.008971
1493,-0.003264,0.998387,0.056683,0.078779,0.300533,-0.118816
1494,-0.00915,0.998165,0.05985,0.1221869999999999,0.266117,-0.117925
1495,-0.0126579999999999,0.99812,0.059961,0.212915,0.2198969999999999,-0.128397
1496,-0.011714,0.998551,0.052528,0.201702,0.302292,0.078576
1497,-0.00616,0.999421,0.033471,0.252772,0.240325,0.1373049999999999
1498,0.00531,0.999982,0.002866,0.259186,0.0486329999999999,0.095675
1499,0.0222629999999999,0.998996,-0.038885,0.053558,-0.002917,0.145193
1500,0.040618,0.994802,-0.093376,-0.085433,0.039805,0.136421
1501,0.055678,0.986269,-0.155475,-0.292998,0.280073,0.1090119999999999
1502,0.066033,0.973884,-0.2172329999999999,-0.679238,0.793725,0.260477
1503,0.079025,0.960458,-0.266975,-0.721038,0.635123,0.256126
1504,0.103523,0.947062,-0.303901,-0.427497,0.382802,0.038581
1505,0.1377779999999999,0.932737,-0.3331929999999999,-0.1105869999999999,0.296938,-0.007093
1506,0.174769,0.91564,-0.362021,-0.0169169999999999,0.28245,0.056967
1507,0.20268,0.8963540000000001,-0.3942969999999999,0.0621669999999999,0.24572,0.19195
1508,0.221651,0.876828,-0.4266649999999999,-0.039034,-0.005704,0.2736949999999999
1509,0.233546,0.85903,-0.455547,-0.0852919999999999,-0.093863,0.278484
1510,0.230505,0.8458889999999999,-0.480976,-0.218298,-0.281207,0.43253
1511,0.217419,0.837045,-0.50208,-0.272763,-0.346902,0.447362
1512,0.200372,0.83167,-0.517857,-0.300851,-0.373266,0.403294
1513,0.182549,0.8296129999999999,-0.5276529999999999,-0.27076,-0.417778,0.360371
1514,0.166879,0.830936,-0.53075,-0.2415409999999999,-0.430118,0.346348
1515,0.155842,0.834966,-0.527774,-0.241917,-0.358815,0.240177
1516,0.151796,0.8421139999999999,-0.517496,-0.242876,-0.27969,0.182093
1517,0.156289,0.851569,-0.500404,-0.251001,-0.235526,0.149192
1518,0.168299,0.861139,-0.479704,-0.234507,0.015967,0.0347569999999999
1519,0.183143,0.867864,-0.461812,-0.143226,0.268183,-0.192913
1520,0.194322,0.8711450000000001,-0.450938,0.02925,0.41073,-0.328146
1521,0.196804,0.870919,-0.450297,0.18607,0.303733,-0.2766619999999999
1522,0.195226,0.867292,-0.457921,0.260295,0.06766,-0.229609
1523,0.192746,0.86251,-0.467895,0.350284,-0.161552,-0.209809
1524,0.189993,0.861058,-0.47168,0.159769,-0.223378,-0.249161
1525,0.190432,0.863613,-0.4668069999999999,0.0349709999999999,0.196095,-0.058919
1526,0.1940349999999999,0.866812,-0.459334,-0.035161,0.441324,0.0211319999999999
1527,0.202707,0.869763,-0.449914,-0.082514,0.747562,0.127236
1528,0.215158,0.8733540000000001,-0.43699,-0.435464,1.117323,0.339074
1529,0.226667,0.873459,-0.4309189999999999,-0.562742,-0.346039,0.357783
1530,0.229803,0.870763,-0.434698,-0.592535,-0.683095,0.331381
1531,0.23146,0.872137,-0.4310489999999999,-0.3086239999999999,-0.224295,0.602161
1532,0.226221,0.882959,-0.4113479999999999,-0.067422,0.15824,0.594087
1533,0.2097909999999999,0.900309,-0.3813539999999999,0.034182,0.30393,0.5374979999999999
1534,0.194801,0.917921,-0.34565,-0.210578,0.686434,0.361108
1535,0.192128,0.933315,-0.303332,-0.418676,0.271611,0.233309
1536,0.200282,0.946242,-0.253996,-0.333781,0.099077,0.131437
1537,0.20439,0.956688,-0.2073,-0.142561,-0.2375719999999999,0.1663599999999999
1538,0.200212,0.964581,-0.171751,-0.039583,-0.225369,0.209364
1539,0.19116,0.970718,-0.145482,-0.0268839999999999,-0.222991,0.217503
1540,0.178747,0.976237,-0.12252,0.0086,-0.121714,0.231148
1541,0.165223,0.981126,-0.100467,-0.058763,0.009429,0.179996
1542,0.154299,0.984875,-0.078828,-0.047838,0.0056799999999999,0.158357
1543,0.144044,0.987945,-0.05671,-0.037431,-0.123245,0.0653919999999999
1544,0.131042,0.99079,-0.03412,0.089936,-0.109671,-0.036055
1545,0.116414,0.993148,-0.010225,0.169352,-0.091415,-0.096022
1546,0.099797,0.994924,0.012911,0.275035,-0.084646,-0.172732
1547,0.081177,0.996162,0.032728,0.351684,-0.0676799999999999,-0.123884
1548,0.062393,0.996884,0.0482579999999999,0.352799,-0.077664,-0.075404
1549,0.045023,0.997252,0.058837,0.279364,-0.0844559999999999,0.0318769999999999
1550,0.031506,0.997052,0.0699679999999999,0.1461059999999999,-0.00932,-0.037283
1551,0.020349,0.996547,0.080494,0.11167,0.073796,-0.0575909999999999
1552,0.0107,0.996095,0.087634,-0.107074,0.254179,-0.1140619999999999
1553,0.002359,0.995858,0.09089,-0.066019,0.285346,-0.122476
1554,-0.004482,0.99572,0.092312,-0.02158,0.289085,-0.127392
1555,-0.011033,0.995702,0.091957,0.229676,0.2458139999999999,-0.152962
1556,-0.0150139999999999,0.996417,0.083233,0.332061,0.3382239999999999,-0.094525
1557,-0.011631,0.998063,0.061119,0.260715,0.280059,0.072013
1558,0.000171,0.99966,0.026088,0.271817,-0.0704149999999999,0.088399
1559,0.018436,0.999628,-0.020085,0.108594,-0.072199,0.059209
1560,0.0402589999999999,0.996115,-0.078321,-0.1240599999999999,0.173349,0.009565
1561,0.059626,0.987923,-0.143011,-0.235117,0.591773,0.197943
1562,0.072978,0.976344,-0.203538,-0.337581,0.815343,0.270432
1563,0.08612,0.962699,-0.256504,-0.360672,0.4861229999999999,0.200825
1564,0.1081049999999999,0.947974,-0.299429,-0.181866,0.4274989999999999,0.063086
1565,0.140762,0.931538,-0.335296,-0.064529,0.359356,0.0102379999999999
1566,0.174522,0.91301,-0.368721,0.027779,0.356186,0.138847
1567,0.196565,0.8935569999999999,-0.403631,-0.115068,0.0670149999999999,0.305929
1568,0.209717,0.8742559999999999,-0.43783,-0.154282,-0.069569,0.341776
1569,0.212355,0.857656,-0.468329,-0.178465,-0.172322,0.387015
1570,0.204015,0.844879,-0.494527,-0.206303,-0.431687,0.496389
1571,0.189833,0.835801,-0.515169,-0.228163,-0.457292,0.4770529999999999
1572,0.173166,0.830457,-0.529485,-0.232676,-0.483396,0.460835
1573,0.154447,0.8288030000000001,-0.537802,-0.25604,-0.565284,0.4071869999999999
1574,0.136159,0.830799,-0.539661,-0.241247,-0.5014689999999999,0.33768
1575,0.122664,0.8367030000000001,-0.533742,-0.243606,-0.444568,0.282476
1576,0.1167119999999999,0.84649,-0.519455,-0.235288,-0.318627,0.138443
1577,0.119467,0.8585940000000001,-0.498541,-0.2134,-0.013105,-0.072671
1578,0.130977,0.8695139999999999,-0.476225,-0.224911,-0.024024,-0.094988
1579,0.144924,0.8766709999999999,-0.458744,0.099339,0.7246630000000001,-0.395154
1580,0.147749,0.8776510000000001,-0.45596,0.206255,0.641606,-0.349735
1581,0.142853,0.871542,-0.46905,0.2788239999999999,0.391825,-0.312155
1582,0.137565,0.863598,-0.485051,0.253197,-0.138302,-0.292643
1583,0.130289,0.8601030000000001,-0.493201,0.105047,-0.273342,-0.170632
1584,0.128134,0.859841,-0.494221,0.1513,-0.050485,-0.034649
1585,0.128181,0.8555530000000001,-0.501596,-0.060279,0.621711,0.2596219999999999
1586,0.122056,0.85357,-0.506478,-0.085511,1.549613,0.357705
1587,0.113619,0.8575879999999999,-0.501631,-0.699587,0.697024,0.336776
1588,0.113104,0.859516,-0.4984369999999999,-0.4202939999999999,-0.634312,0.4809199999999999
1589,0.124349,0.8606030000000001,-0.4938619999999999,-0.176518,-0.32238,0.531551
1590,0.140287,0.869251,-0.474049,-0.1215339999999999,-0.367801,0.644948
1591,0.148015,0.887885,-0.435604,0.075725,-0.030006,0.575573
1592,0.144124,0.908989,-0.391112,0.208446,0.516228,0.440413
1593,0.133267,0.9278,-0.348464,0.058292,0.6171220000000001,0.412506
1594,0.127891,0.943737,-0.304965,-0.310295,0.444492,0.301212
1595,0.129187,0.956401,-0.261929,-0.292838,-0.050167,0.148389
1596,0.128101,0.965734,-0.225717,-0.244586,-0.220708,0.1075839999999999
1597,0.125198,0.972302,-0.197369,-0.047699,-0.354092,0.1955829999999999
1598,0.121222,0.977514,-0.172542,0.000711,-0.3135739999999999,0.21014
1599,0.114578,0.982317,-0.148073,0.043229,-0.239351,0.215867
1600,0.106607,0.986798,-0.121918,0.0556549999999999,-0.046277,0.245117
1601,0.098738,0.990794,-0.0926179999999999,0.067751,-0.046534,0.2062659999999999
1602,0.0890649999999999,0.993998,-0.063526,0.075639,-0.070734,0.015064
1603,0.075121,0.996472,-0.0374139999999999,0.138914,-0.123364,-0.141083
1604,0.056986,0.998295,-0.0126439999999999,0.231116,-0.179035,-0.172827
1605,0.0366579999999999,0.999293,0.008303,0.264246,-0.141688,-0.112078
1606,0.01744,0.999476,0.027255,0.268952,-0.054194,0.0018739999999999
1607,0.001105,0.998975,0.045258,0.307748,0.073413,0.050644
1608,-0.012527,0.998086,0.0605519999999999,0.154891,0.032156,0.035106
1609,-0.025762,0.997151,0.070903,0.115423,0.121044,0.018392
1610,-0.037833,0.996486,0.074723,0.120169,0.223027,-0.0852059999999999
1611,-0.0455589999999999,0.996125,0.075223,0.177654,0.295867,-0.126691
1612,-0.047182,0.996138,0.074046,0.258135,0.311388,-0.065165
1613,-0.043104,0.996917,0.065558,0.1617559999999999,0.339478,0.034922
1614,-0.0318149999999999,0.998476,0.045096,0.104904,0.315504,0.145715
1615,-0.01399,0.999823,0.012595,0.1983319999999999,0.136514,0.170617
1616,0.008475,0.999459,-0.031785,-0.095847,0.090248,0.117967
1617,0.032997,0.995544,-0.088333,-0.237999,0.162689,0.138641
1618,0.051733,0.987132,-0.151305,-0.402059,0.569493,0.213988
1619,0.064313,0.975058,-0.212429,-0.557996,0.619638,0.258434
1620,0.083748,0.961493,-0.261758,-0.577431,0.633203,0.307763
1621,0.1163059999999999,0.946391,-0.301357,-0.242008,0.389943,0.010845
1622,0.159115,0.928591,-0.335262,-0.046536,0.379087,-0.030506
1623,0.197375,0.908153,-0.369191,0.05554,0.34464,0.136647
1624,0.221917,0.8855270000000001,-0.4081599999999999,0.048118,0.153505,0.313235
1625,0.235344,0.8623270000000001,-0.4483359999999999,-0.0242229999999999,-0.131843,0.2791619999999999
1626,0.232582,0.8450790000000001,-0.4814,-0.138741,-0.29204,0.359269
1627,0.217961,0.834167,-0.5066149999999999,-0.232884,-0.414703,0.505089
1628,0.1995849999999999,0.826895,-0.525748,-0.30899,-0.435309,0.427512
1629,0.180205,0.8226969999999999,-0.5391630000000001,-0.304762,-0.441318,0.416742
1630,0.160088,0.822349,-0.545998,-0.250878,-0.4670939999999999,0.380745
1631,0.140843,0.8259299999999999,-0.545896,-0.181583,-0.435534,0.316434
1632,0.127316,0.8334959999999999,-0.537656,-0.193859,-0.393997,0.2715889999999999
1633,0.123342,0.844909,-0.520496,-0.183492,-0.353438,0.206638
1634,0.129999,0.8588020000000001,-0.495539,-0.1947569999999999,-0.208198,0.086039
1635,0.144547,0.872542,-0.4666659999999999,-0.192917,-0.10272,-0.032388
1636,0.16152,0.8828090000000001,-0.441089,-0.069495,0.2386199999999999,-0.280682
1637,0.170128,0.8870879999999999,-0.429104,0.1239089999999999,0.7422300000000001,-0.383701
1638,0.1673369999999999,0.883966,-0.43658,0.193213,0.7219909999999999,-0.3274579999999999
1639,0.166067,0.8761770000000001,-0.452477,0.25477,0.298032,-0.279686
1640,0.167155,0.8705149999999999,-0.4628859999999999,-0.008784,0.013885,-0.280705
1641,0.168796,0.867064,-0.46873,0.094097,0.502687,-0.05927
1642,0.171448,0.859507,-0.4815109999999999,0.031616,1.104863,0.264302
1643,0.176472,0.854981,-0.487714,-0.146214,1.092819,0.337629
1644,0.187751,0.856442,-0.480892,-0.5366890000000001,-0.509396,0.422573
1645,0.1985569999999999,0.8592719999999999,-0.471409,-0.452524,-0.526859,0.414601
1646,0.211821,0.862908,-0.458827,-0.332228,-0.434685,0.5092270000000001
1647,0.2223389999999999,0.876352,-0.4272859999999999,0.026425,-0.004327,0.605463
1648,0.213905,0.89717,-0.3864329999999999,0.1889569999999999,0.5661930000000001,0.482731
1649,0.197746,0.918217,-0.343182,0.16906,0.697734,0.449108
1650,0.190592,0.934142,-0.301752,-0.4429109999999999,0.358644,0.337396
1651,0.1938,0.946331,-0.2586489999999999,-0.380278,-0.009441,0.213819
1652,0.1953869999999999,0.956634,-0.216045,-0.238142,-0.248794,0.185558
1653,0.193566,0.96466,-0.17878,-0.120477,-0.333343,0.232308
1654,0.190123,0.97054,-0.148002,-0.067,-0.304769,0.255973
1655,0.183871,0.975457,-0.121136,-0.0131259999999999,-0.179284,0.26373
1656,0.175673,0.979804,-0.095519,-0.000899,0.0091799999999999,0.235732
1657,0.168068,0.983222,-0.070899,-0.00103,-0.016441,0.130438
1658,0.159734,0.98612,-0.045311,-0.004293,-0.083562,0.073799
1659,0.147734,0.988809,-0.020765,0.009264,-0.1244599999999999,0.000395
1660,0.13137,0.99133,0.002546,0.157342,-0.2029089999999999,-0.1177349999999999
1661,0.1117119999999999,0.993456,0.02379,0.244993,-0.193621,-0.16469
1662,0.09099,0.994927,0.042919,0.289777,-0.084984,-0.13702
1663,0.071685,0.995514,0.061745,0.359269,0.0058439999999999,-0.021553
1664,0.053887,0.995483,0.078163,0.275107,-0.032272,0.024621
1665,0.038144,0.995005,0.092245,0.2237579999999999,0.075353,0.00921
1666,0.023522,0.994555,0.101524,0.11637,0.131742,-0.019905
1667,0.011755,0.994477,0.104292,0.0581919999999999,0.177627,-0.108595
1668,0.0041789999999999,0.994526,0.1044079999999999,0.117601,0.225857,-0.16964
1669,0.001085,0.994938,0.100485,0.1832869999999999,0.270397,-0.18334
1670,0.0047469999999999,0.996035,0.088836,0.128798,0.323728,0.14505
1671,0.0163509999999999,0.9977,0.065777,0.128973,0.220561,0.098514
1672,0.035621,0.998895,0.0306579999999999,0.083871,0.071555,0.102597
1673,0.0607,0.99799,-0.018211,-0.2579349999999999,0.185924,0.045417
1674,0.086034,0.993193,-0.078526,-0.358358,0.296968,0.117604
1675,0.1041769999999999,0.98387,-0.145418,-0.511998,0.756929,0.181978
1676,0.1182349999999999,0.971516,-0.205371,-0.666728,0.584713,0.217792
1677,0.141251,0.957597,-0.251111,-0.524582,0.429458,0.127957
1678,0.175538,0.94107,-0.28909,-0.250275,0.397263,-0.0154449999999999
1679,0.215887,0.921334,-0.323323,-0.036336,0.3740159999999999,0.015614
1680,0.248296,0.899273,-0.360081,-0.024007,0.333729,0.132313
1681,0.2686139999999999,0.8750690000000001,-0.402618,-0.039641,0.0918809999999999,0.31279
1682,0.2787199999999999,0.851499,-0.444144,-0.160937,-0.282209,0.304298
1683,0.275483,0.8339049999999999,-0.478238,-0.202928,-0.352155,0.379819
1684,0.2636199999999999,0.822544,-0.5039100000000001,-0.300592,-0.42844,0.452229
1685,0.24883,0.816243,-0.521375,-0.34934,-0.492573,0.366239
1686,0.231207,0.814653,-0.531868,-0.331717,-0.490984,0.376732
1687,0.2101039999999999,0.817425,-0.536351,-0.225119,-0.543041,0.321523
1688,0.190589,0.824148,-0.533343,-0.189308,-0.528143,0.30643
1689,0.179628,0.8346520000000001,-0.520662,-0.181886,-0.4011349999999999,0.237276
1690,0.1783809999999999,0.848269,-0.498618,-0.184621,-0.316806,0.149481
1691,0.185711,0.862886,-0.470042,-0.203,-0.150544,-0.069829
1692,0.199602,0.874582,-0.441889,-0.1152059999999999,0.207862,-0.314901
1693,0.211875,0.8793139999999999,-0.426516,0.067879,0.713337,-0.480558
1694,0.213085,0.876252,-0.4321779999999999,0.144413,0.911254,-0.471585
1695,0.215158,0.86895,-0.4456819999999999,0.189825,0.603843,-0.3629429999999999
1696,0.218531,0.8624860000000001,-0.456468,-0.130412,0.042132,-0.244231
1697,0.219829,0.857355,-0.465421,-0.098064,0.3572599999999999,-0.05411
1698,0.217578,0.8504809999999999,-0.478897,-0.121051,0.593672,0.109329
1699,0.2156719999999999,0.8454020000000001,-0.4886529999999999,-0.4799229999999999,0.8913840000000001,0.184042
1700,0.2247559999999999,0.8439129999999999,-0.48713,-0.422495,-0.324321,0.418282
1701,0.240734,0.846282,-0.4752399999999999,-0.416775,-0.616043,0.4584859999999999
1702,0.256094,0.849748,-0.4608069999999999,-0.318823,-0.351717,0.663948
1703,0.266092,0.861207,-0.433033,-0.1243069999999999,-0.070786,0.654652
1704,0.261894,0.880268,-0.395652,-0.016807,0.124508,0.569908
1705,0.249964,0.901402,-0.353543,-0.055643,0.697078,0.442792
1706,0.24405,0.918502,-0.311117,-0.4380189999999999,0.587296,0.396902
1707,0.2504389999999999,0.930264,-0.268121,-0.56625,0.3835179999999999,0.311121
1708,0.259934,0.93961,-0.2226389999999999,-0.320221,-0.060459,0.205275
1709,0.264338,0.947482,-0.180007,-0.162715,-0.219119,0.270233
1710,0.263302,0.954005,-0.143341,-0.161679,-0.225642,0.233567
1711,0.2560429999999999,0.960199,-0.111626,-0.070313,-0.056558,0.269555
1712,0.2432639999999999,0.966255,-0.084697,-0.0623549999999999,0.022606,0.275309
1713,0.2306869999999999,0.9709,-0.064316,-0.0513809999999999,0.07541,0.265518
1714,0.220438,0.974438,-0.0433259999999999,0.012015,-0.061261,0.170233
1715,0.2102679999999999,0.977361,-0.0235009999999999,0.061933,-0.152868,0.05646
1716,0.199817,0.979831,-0.001901,0.140286,-0.196735,-0.0286009999999999
1717,0.188448,0.981903,0.018821,0.176741,-0.204773,-0.112892
1718,0.175735,0.983704,0.037984,0.207626,-0.149415,-0.090413
1719,0.1620079999999999,0.985223,0.055574,0.216028,-0.136224,-0.076021
1720,0.148676,0.986056,0.0747559999999999,0.210226,-0.093356,-0.042285
1721,0.135296,0.986247,0.0949309999999999,0.1087829999999999,-0.077662,-0.028082
1722,0.119922,0.98644,0.112048,0.074872,0.033839,-0.028506
1723,0.101536,0.986904,0.125342,0.049633,0.054188,-0.044577
1724,0.081759,0.987299,0.136224,0.146742,0.08219,-0.146539
1725,0.063812,0.987043,0.147219,0.143555,0.106279,-0.218691
1726,0.05068,0.986056,0.1585069999999999,0.158838,0.13078,-0.296935
1727,0.042888,0.984986,0.167225,0.1052599999999999,0.189422,-0.236469
1728,0.040716,0.98459,0.17007,0.1059359999999999,0.285032,-0.215069
1729,0.044857,0.985215,0.165345,0.145939,0.369338,0.0417779999999999
1730,0.058045,0.987055,0.14951,0.098937,0.256048,0.127635
1731,0.083314,0.988898,0.12304,-0.026445,0.2339099999999999,0.056144
1732,0.121018,0.988855,0.086714,-0.35373,0.3366139999999999,-0.12564
1733,0.16284,0.985941,0.037466,-0.589186,0.7862,-0.4047449999999999
1734,0.1977819999999999,0.980007,-0.021644,-0.75871,0.917668,-0.3436059999999999
1735,0.221844,0.972336,-0.073133,-0.8685579999999999,0.484818,-0.150225
1736,0.24374,0.96307,-0.114397,-0.429897,0.256015,0.07187
1737,0.271176,0.950715,-0.150346,-0.311032,0.262846,0.106644
1738,0.302669,0.934564,-0.187033,-0.208156,0.333472,0.134284
1739,0.325878,0.916952,-0.230225,-0.301738,0.084467,0.097046
1740,0.338152,0.8995280000000001,-0.276589,-0.410952,-0.070854,0.0611049999999999
1741,0.343354,0.883833,-0.317723,-0.521347,-0.136183,0.079625
1742,0.343763,0.871245,-0.350369,-0.5260600000000001,-0.143538,0.117932
1743,0.343153,0.8605299999999999,-0.376477,-0.454847,-0.127253,0.116086
1744,0.345235,0.8506819999999999,-0.396425,-0.381307,-0.194142,0.056642
1745,0.3481,0.842794,-0.4105189999999999,-0.360185,-0.260182,0.094036
1746,0.347236,0.838166,-0.4206,-0.280449,-0.393433,0.208442
1747,0.342697,0.8378770000000001,-0.424877,-0.154648,-0.4962789999999999,0.284252
1748,0.337753,0.842276,-0.420112,-0.077148,-0.432684,0.241386
1749,0.3336909999999999,0.851497,-0.404479,-0.086209,-0.390529,0.162108
1750,0.330429,0.8637819999999999,-0.380391,-0.134446,-0.228131,-0.171276
1751,0.326655,0.875848,-0.355229,-0.15037,-0.041512,-0.45425
1752,0.320741,0.8848600000000001,-0.337857,-0.0901049999999999,0.05917,-0.572635
1753,0.312431,0.8903120000000001,-0.331257,0.211388,0.420204,-0.393474
1754,0.303689,0.891293,-0.336704,0.2269199999999999,0.374836,-0.235073
1755,0.301666,0.8873840000000001,-0.348635,0.203873,0.233236,-0.251081
1756,0.305791,0.8822760000000001,-0.357884,-0.084752,0.048373,-0.1220359999999999
1757,0.313296,0.878109,-0.361621,-0.19887,0.260532,0.146289
1758,0.32158,0.8765379999999999,-0.358145,-0.3347179999999999,0.422931,0.250555
1759,0.3234059999999999,0.880714,-0.346051,-0.629329,0.503624,0.105694
1760,0.327806,0.882339,-0.337669,-0.339479,-0.17717,0.365928
1761,0.333007,0.8834700000000001,-0.329526,-0.352126,-0.216279,0.408612
1762,0.33514,0.888541,-0.31333,-0.177379,-0.025291,0.465002
1763,0.328529,0.901294,-0.28238,-0.10778,0.128522,0.41861
1764,0.311537,0.919027,-0.241526,-0.123289,0.210643,0.399653
