,gravity.x,gravity.y,gravity.z,userAcceleration.x,userAcceleration.y,userAcceleration.z
0,0.2654849999999999,0.936268,-0.230035,-0.087369,-0.950474,-0.134451
1,0.245243,0.944289,-0.2194739999999999,0.957073,0.622147,-2.760567
2,0.260054,0.939104,-0.2246139999999999,1.3868120000000002,1.435957,0.0135699999999999
3,0.311692,0.931819,-0.185893,-0.476014,-0.590572,1.7370709999999998
4,0.324509,0.932321,-0.159582,-1.996262,1.061133,-3.091669
5,0.26896,0.929578,-0.252075,-0.7053,0.279788,2.490265
6,0.261395,0.926221,-0.271629,-0.228177,-0.681837,1.027397
7,0.2416239999999999,0.938071,-0.248266,-0.262437,-0.213263,1.015509
8,0.196757,0.958772,-0.205033,0.162435,1.079543,0.729783
9,0.141959,0.977626,-0.15521,0.894983,1.912938,0.262799
10,0.103017,0.988783,-0.108123,0.889415,0.680483,-0.213517
11,0.072948,0.996098,-0.049611,0.155445,1.015681,0.051549
12,0.048141,0.998607,0.021472,-0.372528,1.1351209999999998,-0.8542209999999999
13,0.0114489999999999,0.997515,0.069471,-0.108297,0.667036,-0.992505
14,-0.0278199999999999,0.993532,0.1100609999999999,0.289798,0.4462109999999999,-0.735977
15,-0.0638789999999999,0.988984,0.133508,0.46842,-0.041031,-0.4728479999999999
16,-0.091498,0.984576,0.149098,0.557822,-1.053836,-0.812702
17,-0.098423,0.983713,0.150383,1.074756,-0.984109,-0.757545
18,-0.089183,0.984944,0.148069,1.055614,-1.196598,-0.545423
19,-0.066049,0.988725,0.1343589999999999,0.55137,-1.044878,-0.5337729999999999
20,-0.028629,0.995564,0.089588,-0.20889,-0.3352239999999999,-0.6572600000000001
21,-0.001348,0.999648,0.026357,-0.384928,-0.011337,-0.286199
22,0.021755,0.998739,-0.045183,-0.0305439999999999,0.709132,-0.158644
23,0.058177,0.991235,-0.118584,0.325078,1.626593,0.327904
24,0.1079609999999999,0.973404,-0.202048,-0.386937,1.048828,0.5820069999999999
25,0.164366,0.947295,-0.274973,-0.775054,1.347657,0.057871
26,0.209755,0.920417,-0.329896,-0.0971149999999999,1.926751,-0.226333
27,0.254589,0.8924799999999999,-0.37237,0.3910869999999999,0.834342,0.013499
28,0.309046,0.86054,-0.404917,0.302129,0.603755,0.027186
29,0.338157,0.836981,-0.430243,0.478768,0.458643,0.410651
30,0.348698,0.822729,-0.448914,0.4369159999999999,0.268458,0.543808
31,0.340598,0.81605,-0.4669609999999999,-0.041419,-0.09997,0.603283
32,0.310538,0.8218719999999999,-0.4775859999999999,-0.763678,-1.199161,1.000978
33,0.288041,0.8422790000000001,-0.455626,-0.719819,-2.039758,1.30136
34,0.285787,0.877617,-0.3848519999999999,-0.882116,-2.151451,1.176707
35,0.2757199999999999,0.915545,-0.292833,-0.8446440000000001,-1.787799,0.429659
36,0.2480929999999999,0.940376,-0.232678,-0.093598,-0.74784,-0.199389
37,0.2262219999999999,0.949437,-0.217688,0.652303,0.603007,-2.357187
38,0.2390719999999999,0.940945,-0.2397159999999999,0.903216,1.763599,-1.977661
39,0.280333,0.929864,-0.23825,-0.465117,-0.883584,2.24713
40,0.30829,0.927624,-0.210871,-1.574342,0.1067839999999999,0.8444010000000001
41,0.273388,0.933764,-0.230955,-0.383465,1.976759,0.910627
42,0.2619849999999999,0.920794,-0.288962,-0.1140359999999999,-0.500079,1.09043
43,0.26016,0.925909,-0.273872,-0.361082,-0.901403,0.8919290000000001
44,0.225752,0.946021,-0.2325449999999999,-0.024565,-0.3739989999999999,1.173997
45,0.17102,0.966705,-0.190341,0.2310179999999999,2.812912,0.614505
46,0.120992,0.982763,-0.139766,0.8622989999999999,2.702067,0.03625
47,0.079805,0.992448,-0.09314,0.36093,0.637054,-0.168503
48,0.055747,0.998009,-0.029441,-0.271048,0.8785629999999999,-0.261148
49,0.023015,0.999434,0.024471,-0.4376569999999999,0.856676,-0.8922379999999999
50,-0.0085209999999999,0.99779,0.065869,0.160056,0.684217,-0.487928
51,-0.033575,0.994488,0.099314,0.499105,0.275974,-0.361078
52,-0.061611,0.990457,0.123267,0.431652,-0.796823,-0.754279
53,-0.0762299999999999,0.986928,0.14198,0.788754,-1.214208,-0.716458
54,-0.074607,0.986493,0.145817,1.007376,-1.187817,-0.686284
55,-0.065169,0.986879,0.147714,0.641677,-1.364107,-0.2390219999999999
56,-0.0346589999999999,0.991706,0.123754,0.164038,-0.646323,-0.7674
57,0.001773,0.997395,0.0720929999999999,-0.5693090000000001,-0.101765,-0.870174
58,0.023412,0.999708,0.005741,-0.486989,-0.063871,-0.190632
59,0.042678,0.996758,-0.068184,-0.004241,0.5869979999999999,0.091774
60,0.0844299999999999,0.986603,-0.1395819999999999,0.434644,2.168685,0.306865
61,0.140075,0.96667,-0.214304,0.303056,2.372243,0.53184
62,0.192102,0.941554,-0.276713,-0.723703,1.4759870000000002,-0.270787
63,0.2335699999999999,0.915082,-0.328736,-0.376713,1.318011,-0.2140949999999999
64,0.278597,0.889143,-0.363052,0.01045,0.994662,0.136795
65,0.332513,0.8611709999999999,-0.384472,0.394278,0.5666100000000001,0.143535
66,0.365092,0.837922,-0.405699,0.318272,0.231368,0.4140149999999999
67,0.374241,0.823961,-0.425477,0.028469,-0.110094,0.486008
68,0.3677539999999999,0.8207479999999999,-0.4371819999999999,-0.497042,-0.459451,0.500689
69,0.3482949999999999,0.832232,-0.4313689999999999,-0.855283,-0.994952,0.7254970000000001
70,0.326281,0.858772,-0.39503,-0.805774,-1.571556,1.026805
71,0.3048119999999999,0.8968870000000001,-0.320439,-0.8074520000000001,-2.025458,1.245503
72,0.275371,0.92936,-0.245883,-0.529888,-1.931786,0.668032
73,0.243971,0.946886,-0.209484,0.075121,-1.013521,-0.335362
74,0.23733,0.944778,-0.2259789999999999,1.05367,0.630997,-2.324466
75,0.281607,0.93131,-0.230992,0.865763,1.740336,-0.510189
76,0.327477,0.920983,-0.2110639999999999,-1.040154,-0.2261889999999999,2.040104
77,0.3047559999999999,0.924354,-0.229546,-1.096977,1.050469,0.992669
78,0.28983,0.916515,-0.275676,-0.326375,-0.956859,1.628703
79,0.302533,0.919242,-0.251925,-0.75047,-1.06359,0.776828
80,0.273911,0.935642,-0.2225889999999999,-0.487015,0.1985289999999999,0.7240850000000001
81,0.198289,0.961411,-0.1907049999999999,0.066954,2.678863,0.267503
82,0.121066,0.982406,-0.142189,0.8554510000000001,2.6756900000000003,0.199257
83,0.078205,0.993044,-0.088,0.488155,0.680326,0.052309
84,0.050806,0.998336,-0.027224,-0.303431,0.7705850000000001,-0.387571
85,0.026237,0.999339,0.025088,-0.360938,0.966222,-0.8908870000000001
86,-0.004888,0.997629,0.068617,0.252416,0.712011,-0.762465
87,-0.0425829999999999,0.993584,0.1047589999999999,0.5144920000000001,0.303703,-0.492073
88,-0.072312,0.989214,0.127371,0.447327,-0.663103,-0.676138
89,-0.094633,0.984261,0.149232,0.780836,-1.31054,-0.8869940000000001
90,-0.101511,0.982415,0.156692,1.075647,-1.04873,-0.759536
91,-0.09484,0.983665,0.1529839999999999,0.7430939999999999,-1.293281,-0.24655
92,-0.0719549999999999,0.988737,0.131215,0.230433,-0.8667889999999999,-0.551778
93,-0.042822,0.995496,0.084563,-0.300654,-0.359174,-0.8714129999999999
94,-0.020273,0.999613,0.01899,-0.309241,-0.075464,-0.236703
95,0.004213,0.998591,-0.052864,0.232359,0.595296,-0.000221
96,0.049099,0.991012,-0.124428,0.682834,1.942964,0.384285
97,0.112995,0.973817,-0.1972549999999999,-0.229252,1.496153,0.3110699999999999
98,0.176123,0.949663,-0.259071,-0.713568,1.67288,-0.486092
99,0.219751,0.923421,-0.314643,-0.177561,1.65539,-0.043115
100,0.258475,0.899236,-0.352935,0.402597,0.811473,0.077025
101,0.309271,0.872941,-0.377257,0.319315,0.610946,0.134734
102,0.348977,0.848075,-0.3987239999999999,0.448905,0.40931,0.364025
103,0.367726,0.8295299999999999,-0.420304,0.077891,0.229171,0.523576
104,0.366313,0.822017,-0.436005,-0.503123,-0.3120679999999999,0.6411899999999999
105,0.353717,0.8288469999999999,-0.4334689999999999,-0.98041,-0.989903,0.804532
106,0.33737,0.853123,-0.397946,-0.953169,-1.530399,1.013729
107,0.324756,0.889865,-0.320422,-1.070957,-2.048862,1.386919
108,0.307252,0.920573,-0.241119,-0.7996840000000001,-2.0495400000000004,0.568496
109,0.280839,0.937479,-0.205569,-0.21277,-0.961558,-0.446133
110,0.26481,0.938694,-0.220739,0.71955,0.253902,-2.154963
111,0.295304,0.932719,-0.2069489999999999,1.000243,1.647161,-0.353263
112,0.3406369999999999,0.923184,-0.178027,-0.622924,-0.2340969999999999,1.5310700000000002
113,0.340751,0.924653,-0.170002,-2.084205,0.815474,-2.090328
114,0.273934,0.926502,-0.257973,-0.769479,0.342205,2.972527
115,0.2783469999999999,0.925308,-0.257534,-0.071957,-0.497208,1.201977
116,0.261096,0.937818,-0.2287409999999999,-0.062747,-0.4156319999999999,0.868282
117,0.21128,0.959155,-0.188093,0.020852,0.8952760000000001,0.695814
118,0.157104,0.978807,-0.131342,0.5941930000000001,2.250746,0.0982919999999999
119,0.116013,0.989489,-0.086301,0.5252220000000001,0.801771,0.090543
120,0.075484,0.996702,-0.029712,0.1175089999999999,0.950045,-0.2128719999999999
121,0.0426319999999999,0.998627,0.030363,-0.005141,1.131668,-0.905485
122,-0.000518,0.997481,0.0708879999999999,0.190398,0.667466,-0.762264
123,-0.038201,0.993749,0.104875,0.589638,0.515452,-0.4479229999999999
124,-0.0733299999999999,0.9894,0.125321,0.581539,-0.374638,-0.531007
125,-0.0986679999999999,0.984838,0.142665,0.792974,-1.315892,-0.89323
126,-0.101594,0.983309,0.150917,1.147736,-1.1122,-0.819924
127,-0.087864,0.984793,0.149856,1.048573,-1.3443969999999998,-0.572387
128,-0.0634639999999999,0.989731,0.128058,0.2983429999999999,-0.847474,-0.436209
129,-0.0283839999999999,0.996304,0.081047,-0.31674,-0.045712,-0.767463
130,0.000619,0.999886,0.014934,-0.336847,0.106773,-0.350871
131,0.028191,0.997592,-0.063334,0.18235,0.6886720000000001,0.027125
132,0.072938,0.987241,-0.141529,0.31636,1.785494,0.521839
133,0.137712,0.966157,-0.21811,-0.162004,1.606292,0.614869
134,0.214713,0.935645,-0.2801119999999999,-0.693793,2.065988,-0.265451
135,0.271186,0.905199,-0.327214,-0.176947,1.417066,-0.090251
136,0.3196219999999999,0.874383,-0.365094,0.452259,0.829109,0.125592
137,0.373684,0.840094,-0.393191,0.474308,0.697595,0.202655
138,0.4013199999999999,0.810559,-0.426537,0.419939,0.4451479999999999,0.675804
139,0.404289,0.792137,-0.457239,-0.0395579999999999,-0.004661,0.6631560000000001
140,0.393323,0.78581,-0.477281,-0.824521,-0.719923,0.545976
141,0.36758,0.7996,-0.474891,-0.950848,-1.390527,0.771247
142,0.345595,0.836167,-0.4258949999999999,-0.772261,-1.6048129999999998,1.158713
143,0.335573,0.8785040000000001,-0.340027,-0.825624,-1.92901,1.097718
144,0.320633,0.907262,-0.27215,-0.5257109999999999,-1.515981,0.294031
145,0.30088,0.920758,-0.248338,-0.195869,-0.705518,-0.7082510000000001
146,0.297171,0.917569,-0.26411,0.630671,0.522419,-1.221836
147,0.341325,0.909215,-0.238371,0.675002,0.92776,0.105864
148,0.355829,0.911328,-0.207035,-1.263299,0.587787,0.221577
149,0.308998,0.915147,-0.258886,-1.288704,1.349623,-0.031809
150,0.302717,0.910545,-0.281542,-0.549315,-0.6452100000000001,2.073076
151,0.290053,0.915895,-0.277494,-0.653517,-0.808427,0.742002
152,0.237613,0.935761,-0.260552,-0.415485,0.438934,0.739663
153,0.1713059999999999,0.962402,-0.21079,0.480976,1.952896,0.5496880000000001
154,0.1246119999999999,0.980321,-0.153097,0.7771060000000001,0.8311870000000001,-0.071375
155,0.089655,0.990482,-0.104415,0.419989,0.8927879999999999,0.135345
156,0.053899,0.997737,-0.040149,-0.001775,1.037526,-0.34776
157,0.010189,0.999878,0.011617,0.178746,1.091156,-0.830937
158,-0.034862,0.997934,0.053914,0.5574899999999999,0.8125359999999999,-0.794575
159,-0.069401,0.99374,0.087513,0.657688,0.3552889999999999,-0.504262
160,-0.097149,0.989471,0.1072559999999999,0.525112,-0.539032,-0.6708850000000001
161,-0.1071309999999999,0.986831,0.121174,0.769149,-1.140853,-0.8690979999999999
162,-0.096096,0.987347,0.126118,1.094677,-0.88995,-0.817387
163,-0.074646,0.990175,0.11822,0.770141,-1.378069,-0.38183
164,-0.042868,0.99495,0.090722,-0.092935,-0.674531,-0.464181
165,-0.005239,0.999172,0.04028,-0.30923,-0.303051,-0.5572020000000001
166,0.027206,0.999238,-0.027885,-0.264221,0.33824,-0.338753
167,0.061188,0.993235,-0.098672,0.211548,1.14063,0.18879
168,0.108458,0.978882,-0.17327,0.2756369999999999,1.6616669999999998,0.4721899999999999
169,0.171703,0.95389,-0.246189,0.010609,1.655516,0.608997
170,0.234201,0.922481,-0.306881,-0.481363,2.113256,-0.043598
171,0.277992,0.8921110000000001,-0.356168,0.1910329999999999,1.102381,-0.0162539999999999
172,0.333896,0.857144,-0.3921929999999999,0.225552,0.917927,0.021771
173,0.384421,0.822314,-0.419545,0.504617,0.559675,0.287327
174,0.409169,0.794237,-0.449184,0.360607,0.433226,0.6009939999999999
175,0.413171,0.775425,-0.477496,-0.132592,0.012386,0.5964079999999999
176,0.400282,0.769939,-0.496956,-0.860533,-0.832622,0.718194
177,0.379224,0.7855840000000001,-0.488921,-1.001157,-1.361481,0.93431
178,0.367805,0.822982,-0.432918,-0.983803,-1.709456,1.309016
179,0.366102,0.868927,-0.3330639999999999,-0.990629,-2.03743,1.101924
180,0.350033,0.902522,-0.250853,-0.592312,-1.468623,0.166533
181,0.3180409999999999,0.921573,-0.222597,0.047163,-0.555438,-1.345473
182,0.300676,0.921196,-0.246959,1.172194,0.969765,-0.903935
183,0.341087,0.913315,-0.222512,0.55314,1.08313,0.324883
184,0.359857,0.91017,-0.2051599999999999,-1.27334,0.866808,0.054449
185,0.34212,0.911827,-0.226986,-0.934191,0.190041,0.814968
186,0.346463,0.907488,-0.237539,-0.783337,-0.8035760000000001,1.57871
187,0.336989,0.913791,-0.226763,-0.643293,-0.19414,0.635897
188,0.278188,0.937593,-0.208632,-0.4807479999999999,0.943465,0.472151
189,0.207117,0.961906,-0.178424,0.4507649999999999,1.7500240000000002,0.4619479999999999
190,0.161826,0.976983,-0.138969,0.868814,0.602348,0.3162
191,0.123333,0.988547,-0.086939,0.211414,0.752908,0.245554
192,0.0916299999999999,0.995562,-0.021324,-0.05861,1.159894,-0.621987
193,0.052524,0.998268,0.0264009999999999,0.236203,1.060173,-0.59383
194,0.006275,0.998152,0.0603929999999999,0.6823239999999999,0.947542,-0.6990649999999999
195,-0.033155,0.995733,0.086091,0.875821,0.512843,-0.520356
196,-0.063711,0.992769,0.101708,0.6808529999999999,-0.429796,-0.5830310000000001
197,-0.0797929999999999,0.990421,0.1126609999999999,0.921239,-1.108967,-0.8307549999999999
198,-0.077141,0.990625,0.11272,1.1430129999999998,-1.088861,-0.8237329999999999
199,-0.061978,0.993078,0.099748,0.840634,-1.418188,-0.358522
200,-0.031927,0.997207,0.067487,0.089132,-0.8602280000000001,-0.204648
201,0.005554,0.999898,0.013008,-0.1805119999999999,-0.139516,-0.247505
202,0.046612,0.997666,-0.049849,0.016605,0.668304,-0.685106
203,0.093497,0.988557,-0.1183579999999999,0.071924,1.259139,0.221996
204,0.150612,0.969335,-0.194168,-0.6821520000000001,0.909281,0.5992430000000001
205,0.218516,0.941588,-0.256241,-0.538249,0.900285,-0.245651
206,0.272219,0.908761,-0.316301,-0.269396,1.958045,-0.006468
207,0.32155,0.875768,-0.360047,0.260451,1.207301,0.201249
208,0.374129,0.839339,-0.394378,0.167665,0.820466,0.168869
209,0.4160609999999999,0.8017340000000001,-0.429083,0.304658,0.7316520000000001,0.450781
210,0.433021,0.770153,-0.4683529999999999,-0.0813059999999999,0.323658,0.5811609999999999
211,0.43146,0.748517,-0.503549,-0.518085,-0.165632,0.559106
212,0.411864,0.743696,-0.526575,-0.730849,-0.931105,0.692789
213,0.383584,0.762197,-0.521457,-0.6290060000000001,-1.3564040000000002,0.912006
214,0.369368,0.799461,-0.473736,-0.676787,-1.567818,1.136639
215,0.372653,0.84105,-0.392126,-0.759127,-1.753861,0.817571
216,0.369773,0.872755,-0.318689,-0.5530010000000001,-1.13484,0.08378
217,0.357273,0.88908,-0.286164,-0.1127809999999999,-0.547756,-0.705673
218,0.359638,0.892548,-0.272059,0.375668,0.280624,0.444025
219,0.377986,0.897674,-0.2265059999999999,-0.408885,-0.264632,0.676305
220,0.360908,0.917109,-0.169268,-0.68116,-0.6027779999999999,0.2867449999999999
221,0.321337,0.935546,-0.146603,-1.415346,0.828675,-1.728428
222,0.2867929999999999,0.936157,-0.2033599999999999,0.165951,2.899887,1.765753
223,0.277261,0.937351,-0.210943,0.181159,1.878323,1.000814
224,0.268873,0.945135,-0.185538,-0.013807,-1.4399620000000002,0.715277
225,0.2392889999999999,0.958299,-0.156204,-0.3378,-0.311632,0.739654
226,0.201455,0.973946,-0.104123,-0.2299739999999999,2.8617630000000003,1.167462
227,0.164029,0.984849,-0.056235,0.736545,0.953475,-0.414468
228,0.1230359999999999,0.992385,-0.005399,0.391551,1.179001,-0.341815
229,0.0834879999999999,0.995684,0.040481,0.098259,1.194669,-0.531189
230,0.038279,0.996297,0.07696,-0.016856,0.986537,-0.561854
231,-0.008964,0.994175,0.107386,0.572562,0.780667,-0.482905
232,-0.053845,0.990344,0.1277309999999999,0.7749149999999999,-0.274905,-0.6127319999999999
233,-0.084258,0.985974,0.1440519999999999,0.984558,-1.212063,-0.6941930000000001
234,-0.092661,0.984539,0.1486309999999999,1.306422,-1.181622,-0.813716
235,-0.085923,0.985897,0.14359,0.960771,-1.332897,-0.614309
236,-0.061061,0.990708,0.121504,0.225093,-0.764146,-0.570982
237,-0.026054,0.997088,0.071638,-0.274147,-0.41881,-0.571318
238,0.006182,0.999978,0.001003,-0.229723,0.0719669999999999,-0.3457139999999999
239,0.044121,0.996584,-0.06977,0.221962,0.779035,-0.137963
240,0.097706,0.984005,-0.148942,0.135677,1.6618240000000002,0.559419
241,0.1653599999999999,0.960469,-0.2239429999999999,-0.5150600000000001,1.057643,0.385259
242,0.234508,0.929984,-0.283075,-0.507838,1.66018,-0.572959
243,0.283941,0.8975200000000001,-0.33739,-0.2209989999999999,1.766177,0.362857
244,0.33742,0.863535,-0.374768,0.211042,0.714071,0.0369079999999999
245,0.3940599999999999,0.825896,-0.4032489999999999,0.395201,0.715715,0.1947829999999999
246,0.430059,0.792607,-0.432227,0.266779,0.615078,0.4398109999999999
247,0.4425409999999999,0.766951,-0.4646939999999999,-0.098913,0.243639,0.5211819999999999
248,0.434742,0.754732,-0.491301,-0.555866,-0.37755,0.5213909999999999
249,0.410887,0.766936,-0.492928,-0.768339,-1.231124,0.725945
250,0.389105,0.805188,-0.44751,-0.692816,-1.6952330000000002,0.962082
251,0.377034,0.8530459999999999,-0.360769,-0.739338,-1.957797,0.95159
252,0.360188,0.8873989999999999,-0.287722,-0.675984,-1.556145,0.6333340000000001
253,0.334709,0.907368,-0.254262,-0.359718,-0.8661840000000001,-0.013713
254,0.319532,0.914724,-0.247336,0.086245,-0.277578,-0.489679
255,0.342548,0.913142,-0.220969,0.435864,0.376561,0.009955
256,0.351275,0.916899,-0.189463,-0.675143,0.581544,-0.695516
257,0.319205,0.922184,-0.218356,-0.742408,2.448925,-1.991102
258,0.3301139999999999,0.916001,-0.22795,-0.179357,0.351668,2.384521
259,0.336229,0.915424,-0.221234,-0.681994,-0.997897,0.8725700000000001
260,0.311238,0.926921,-0.209626,-0.745839,-0.768428,0.400528
261,0.2442079999999999,0.950983,-0.1897049999999999,-0.515891,0.430456,0.517738
262,0.1851539999999999,0.972349,-0.142301,0.6883199999999999,2.371157,0.560072
263,0.150644,0.983557,-0.099584,0.605368,0.367777,0.18012
264,0.112665,0.992776,-0.041188,-0.038645,0.736564,-0.063777
265,0.072002,0.997227,0.01864,-0.37643,1.127865,-0.8932889999999999
266,0.020998,0.998164,0.056761,0.2660659999999999,1.053198,-0.5858439999999999
267,-0.024333,0.995948,0.086537,0.962047,0.858575,-0.538396
268,-0.062685,0.992698,0.103018,0.901705,-0.131798,-0.518103
269,-0.085655,0.989673,0.114906,0.941948,-1.020633,-0.794014
270,-0.086982,0.989035,0.119313,1.2280950000000002,-0.937399,-0.8923700000000001
271,-0.071663,0.991089,0.112248,1.170555,-1.065353,-0.8660329999999999
272,-0.043039,0.99498,0.090302,0.389642,-1.025269,-0.355805
273,-0.004474,0.998917,0.046241,-0.194592,-0.480362,-0.507942
274,0.031542,0.999316,-0.019127,-0.312685,-0.041766,-0.258766
275,0.066848,0.99325,-0.094757,0.008073,0.805471,-0.225814
276,0.110789,0.978986,-0.171189,0.15746,1.824282,0.552384
277,0.168851,0.953199,-0.25079,-0.1830109999999999,1.789553,0.737683
278,0.235148,0.919967,-0.313626,-0.807475,1.589768,-0.493777
279,0.28083,0.886077,-0.368778,-0.4473189999999999,1.3676,0.417545
280,0.332394,0.8511540000000001,-0.40626,0.102039,0.789563,0.058619
281,0.391514,0.814673,-0.4278079999999999,0.573589,0.4200069999999999,0.21243
282,0.434116,0.785062,-0.441833,0.437191,0.357928,0.297882
283,0.446739,0.767311,-0.46006,0.142754,0.0423819999999999,0.501747
284,0.44115,0.7638149999999999,-0.471135,-0.388294,-0.481452,0.516622
285,0.423297,0.781523,-0.458298,-0.77959,-1.058333,0.80394
286,0.407061,0.8215049999999999,-0.399283,-0.787981,-1.354403,0.8832770000000001
287,0.392027,0.867994,-0.304788,-0.976805,-1.994078,1.060052
288,0.3679159999999999,0.89985,-0.234314,-0.6795760000000001,-1.545052,0.3334809999999999
289,0.3298239999999999,0.91907,-0.215685,-0.179647,-0.672504,-0.819014
290,0.310007,0.920612,-0.237409,0.919073,0.409054,-0.8873620000000001
291,0.3564,0.910621,-0.2091449999999999,0.874816,1.676751,-0.8598549999999999
292,0.36874,0.905847,-0.208486,-1.249157,1.424628,-0.124431
293,0.343106,0.905721,-0.248881,-1.267957,-0.469106,0.710322
294,0.351433,0.906004,-0.235894,-0.989281,-1.048155,1.60717
295,0.340254,0.915829,-0.213257,-0.78105,-0.927609,0.7387090000000001
296,0.269308,0.940168,-0.208691,-0.292867,0.8344600000000001,0.276868
297,0.189227,0.964987,-0.181623,1.131299,2.66955,0.433866
298,0.16226,0.975597,-0.147904,1.205965,0.264103,0.385956
299,0.130254,0.986592,-0.0983049999999999,0.041026,0.528988,0.23658
300,0.098358,0.994551,-0.034432,-0.32399,0.956849,-0.2242969999999999
301,0.054136,0.99839,0.016692,0.044802,1.082695,-0.7485649999999999
302,0.011334,0.998421,0.054942,0.6764560000000001,0.744682,-0.647822
303,-0.027111,0.996177,0.082987,0.743405,0.400292,-0.479959
304,-0.05764,0.993225,0.100861,0.541267,-0.434235,-0.543137
305,-0.071026,0.991073,0.1127809999999999,0.791714,-1.006729,-0.768848
306,-0.06377,0.99128,0.115272,1.100025,-0.909081,-0.787712
307,-0.044055,0.9932,0.10772,0.618808,-1.2990469999999998,-0.4061059999999999
308,-0.007401,0.996777,0.079829,-0.075897,-0.6092029999999999,-0.50616
309,0.034571,0.998879,0.032181,-0.272028,-0.345269,-0.553696
310,0.069648,0.996966,-0.034633,-0.377021,-0.226748,-0.227742
311,0.1046859999999999,0.987939,-0.114059,-0.135738,0.388755,-0.169312
312,0.152249,0.971035,-0.1841269999999999,0.219547,1.7160529999999998,0.4232479999999999
313,0.216588,0.943825,-0.249552,0.324275,2.522712,0.370142
314,0.2898239999999999,0.909432,-0.29821,-0.891173,1.538048,-0.411522
315,0.346912,0.871193,-0.3473719999999999,-0.008045,1.256324,0.0342769999999999
316,0.386255,0.8367899999999999,-0.388051,0.241263,0.622073,0.166341
317,0.444263,0.801617,-0.400041,0.342663,0.534763,0.0959179999999999
318,0.4869699999999999,0.775396,-0.402014,0.24092,0.176127,0.3669949999999999
319,0.501263,0.7634569999999999,-0.40726,0.063113,0.012437,0.376743
320,0.495443,0.764687,-0.412047,-0.316274,-0.388848,0.510436
321,0.480284,0.7815840000000001,-0.398054,-0.991896,-0.897825,0.868131
322,0.463424,0.819793,-0.336408,-1.320953,-1.5348959999999998,1.098539
323,0.4386239999999999,0.8676780000000001,-0.233952,-1.4213360000000002,-1.880542,0.965519
324,0.402573,0.901327,-0.159793,-0.631608,-1.590262,-0.085126
325,0.3568139999999999,0.921759,-0.151767,0.2162909999999999,-0.547904,-1.383038
326,0.332996,0.927406,-0.1703589999999999,1.208889,0.504448,-0.306646
327,0.35553,0.923353,-0.14494,0.579742,0.450029,0.155331
328,0.361908,0.923685,-0.125773,-1.0616,-0.612024,0.508296
329,0.337831,0.934016,-0.116079,-2.1657580000000003,0.81397,-3.282969
330,0.29525,0.937835,-0.18244,-0.334877,1.569642,2.704566
331,0.299892,0.935405,-0.187278,0.1698339999999999,0.191151,0.996955
332,0.296747,0.941034,-0.162443,0.143072,-0.704446,0.54289
333,0.258111,0.957255,-0.130509,-0.166573,0.247853,0.4724279999999999
334,0.211882,0.974482,-0.074032,-0.204726,2.5325830000000003,0.8661469999999999
335,0.1731349999999999,0.984712,-0.018904,0.392004,0.904464,-0.295747
336,0.12783,0.99127,0.032136,0.538567,0.982836,-0.492677
337,0.082504,0.993683,0.076004,-0.004639,0.995896,-0.863816
338,0.036672,0.993677,0.106066,0.109721,0.900259,-0.696749
339,-0.0091,0.992267,0.123741,0.674078,0.654889,-0.4708779999999999
340,-0.047361,0.989738,0.1347799999999999,0.8337690000000001,-0.452765,-0.578505
341,-0.0661269999999999,0.987084,0.1458829999999999,1.121699,-1.265587,-0.754312
342,-0.0652659999999999,0.986546,0.1498519999999999,1.253621,-1.251271,-0.742214
343,-0.056833,0.988036,0.1433299999999999,0.909921,-1.424376,-0.3793829999999999
344,-0.0304949999999999,0.993141,0.112825,0.170143,-0.76313,-0.593965
345,0.002544,0.998129,0.061006,-0.4184529999999999,-0.209249,-0.5799880000000001
346,0.0290399999999999,0.999498,-0.0122239999999999,-0.541872,-0.141314,-0.14514
347,0.060913,0.994128,-0.089387,-0.168274,0.360059,-0.149153
348,0.114444,0.979956,-0.163036,0.337781,2.020945,0.111691
349,0.185821,0.955557,-0.228853,-0.258469,2.163691,0.500551
350,0.254278,0.923947,-0.285757,-1.053549,1.385913,-0.395502
351,0.30287,0.892281,-0.334811,-0.501921,1.464287,0.346438
352,0.356212,0.862146,-0.360293,0.5936779999999999,0.5784520000000001,0.004946
353,0.407141,0.8327610000000001,-0.375151,0.414224,0.552493,0.219771
354,0.4343439999999999,0.809473,-0.3950849999999999,0.130841,0.373938,0.402044
355,0.437778,0.7935810000000001,-0.422581,-0.2374,-0.147493,0.508671
356,0.4285279999999999,0.790801,-0.437026,-0.854706,-0.68637,0.5436840000000001
357,0.407894,0.809612,-0.422073,-0.8623620000000001,-1.338237,0.867233
358,0.386165,0.8500790000000001,-0.358101,-0.945598,-1.75317,1.096977
359,0.359425,0.893465,-0.269308,-0.937824,-2.043063,0.947652
360,0.325451,0.920184,-0.2175679999999999,-0.33157,-1.333484,0.010231
361,0.292039,0.932083,-0.214307,0.326171,-0.420913,-1.285601
362,0.292506,0.929067,-0.2264219999999999,1.342382,0.557474,-0.047732
363,0.341285,0.919996,-0.192677,-0.029564,0.073595,0.274861
364,0.341814,0.924007,-0.171368,-1.37456,-0.69128,-0.6583439999999999
365,0.304463,0.929385,-0.208661,-1.385685,1.848951,-0.271854
366,0.282843,0.92428,-0.256318,0.353036,1.15711,2.142808
367,0.263245,0.930567,-0.254443,0.245575,-0.587961,0.37485
368,0.2364969999999999,0.943806,-0.23085,0.1413869999999999,-0.5352060000000001,0.607208
369,0.184965,0.964758,-0.187147,-0.0996529999999999,1.3749790000000002,0.931837
370,0.148668,0.982239,-0.114442,0.089445,2.180969,0.8520059999999999
371,0.114167,0.991931,-0.055047,0.046096,0.863583,-0.224189
372,0.074308,0.997182,0.009838,0.028963,1.05662,-0.308956
373,0.027748,0.998096,0.0550019999999999,-0.067924,0.931134,-1.064905
374,-0.015018,0.995801,0.090245,0.206486,0.7163109999999999,-0.472325
375,-0.056584,0.991892,0.113748,0.465214,0.375402,-0.420496
376,-0.091878,0.98758,0.127415,0.535421,-0.074768,-0.546986
377,-0.106904,0.984893,0.136185,1.005174,-1.205337,-0.786652
378,-0.102779,0.985286,0.136517,1.18446,-1.220806,-0.804562
379,-0.092945,0.987614,0.126368,0.787907,-1.317601,-0.265223
380,-0.062241,0.993819,0.091862,0.1462099999999999,-0.7937310000000001,-0.454197
381,-0.023134,0.999138,0.034329,-0.265212,-0.224678,-0.383877
382,0.02207,0.999355,-0.028175,-0.1650299999999999,0.577687,-0.504067
383,0.081732,0.992096,-0.09517,-0.015738,1.73439,0.2416239999999999
384,0.142019,0.97567,-0.167006,-0.451696,1.7245400000000002,0.483275
385,0.200312,0.952787,-0.22818,-0.362452,1.640246,-0.200501
386,0.249487,0.927488,-0.278416,-0.258765,1.488726,0.20551
387,0.303996,0.898893,-0.3155489999999999,0.083607,0.905611,0.044904
388,0.355564,0.870339,-0.340703,0.378827,0.687217,0.293004
389,0.390691,0.8470209999999999,-0.360432,0.345958,0.387217,0.455692
390,0.415438,0.827334,-0.378052,0.012601,0.182218,0.509537
391,0.4250939999999999,0.817505,-0.388556,-0.507446,-0.2147369999999999,0.404486
392,0.415992,0.823784,-0.38513,-1.017081,-0.951531,0.573836
393,0.393047,0.8480139999999999,-0.355501,-0.829785,-1.353385,1.088182
394,0.365044,0.886056,-0.28573,-0.7223890000000001,-1.7325990000000002,1.292215
395,0.334746,0.917451,-0.214995,-0.717817,-1.98665,0.4882189999999999
396,0.296329,0.935784,-0.191023,0.082989,-0.810159,-1.111711
397,0.276601,0.939349,-0.202753,0.802531,-0.175082,-1.106283
398,0.319062,0.930714,-0.178784,0.7919149999999999,1.165492,-0.8362299999999999
399,0.346406,0.922561,-0.169932,-1.419832,1.005204,-0.322896
400,0.324263,0.921437,-0.214013,-0.87921,0.2575639999999999,1.472955
401,0.321367,0.917664,-0.2336889999999999,-0.977175,-1.017273,1.576478
402,0.308346,0.926448,-0.2158949999999999,-0.665966,0.117177,0.8412299999999999
403,0.252578,0.948923,-0.189058,-0.230132,1.007788,0.269975
404,0.169349,0.973412,-0.15422,0.6890189999999999,1.984428,0.302521
405,0.119342,0.986772,-0.109688,0.828931,0.795851,0.166695
406,0.075911,0.995156,-0.062416,0.122941,0.992073,0.2284159999999999
407,0.042234,0.999104,0.000742,-0.1940589999999999,0.925304,-0.758097
408,-0.000569,0.999028,0.043982,-0.042232,0.767314,-0.815237
409,-0.043752,0.9958,0.0803789999999999,0.418996,0.6784399999999999,-0.454662
410,-0.08249,0.991117,0.104278,0.632829,0.006808,-0.430893
411,-0.110506,0.986446,0.1212599999999999,0.524828,-1.117199,-0.710585
412,-0.116913,0.984607,0.129896,0.902588,-1.148578,-0.692503
413,-0.107014,0.986115,0.126953,1.122319,-1.217637,-0.66156
414,-0.090549,0.98986,0.1094059999999999,0.773609,-1.162361,-0.289902
415,-0.060252,0.995559,0.0722759999999999,-0.023778,-0.65509,-0.496821
416,-0.0257829999999999,0.999536,0.016011,-0.1648599999999999,-0.422357,-0.2691699999999999
417,0.015294,0.998473,-0.053025,-0.010838,0.258409,-0.555999
418,0.0704299999999999,0.991008,-0.11374,0.401708,1.7627150000000005,0.181245
419,0.136471,0.973865,-0.181538,-0.086453,2.23164,0.744404
420,0.199599,0.950408,-0.2384949999999999,-0.4422439999999999,1.467927,-0.130859
421,0.25283,0.924634,-0.2848199999999999,-0.241981,1.337893,-0.189591
422,0.299256,0.8973110000000001,-0.3244579999999999,0.051131,1.057218,0.061839
423,0.353448,0.868466,-0.347616,0.18595,0.6221810000000001,0.236746
424,0.397113,0.84334,-0.362041,0.285001,0.431654,0.345851
425,0.4235239999999999,0.822933,-0.378687,0.151625,0.357838,0.403574
426,0.433343,0.810589,-0.393897,-0.321755,-0.037838,0.487647
427,0.428142,0.812338,-0.395975,-0.921566,-0.65058,0.583734
428,0.4092739999999999,0.833726,-0.370662,-1.086398,-1.361314,0.98347
429,0.383465,0.872343,-0.303261,-1.08009,-1.8206,1.299203
430,0.352929,0.906898,-0.230152,-0.919763,-2.141762,0.595158
431,0.316366,0.926905,-0.201874,-0.259359,-1.336665,-0.444687
432,0.287136,0.930672,-0.22671,0.678395,-0.375313,-1.541616
433,0.318789,0.922003,-0.219723,1.492612,1.1020450000000002,-0.226367
434,0.357051,0.913047,-0.197115,-0.510432,1.5531549999999998,-0.138197
435,0.3402989999999999,0.90855,-0.242338,-1.52139,1.496067,-0.553682
436,0.344142,0.904449,-0.252056,-1.08897,-0.932434,1.711712
437,0.349442,0.911518,-0.21684,-1.010605,-1.365665,0.793317
438,0.304473,0.930725,-0.202585,-0.8741450000000001,0.2405699999999999,0.556787
439,0.206064,0.960539,-0.186806,0.18125,2.81798,0.179513
440,0.153524,0.976118,-0.153677,1.068232,0.462389,0.35845
441,0.1086859999999999,0.987723,-0.112174,0.105166,0.723916,0.23426
442,0.076995,0.99558,-0.05371,-0.307936,1.140132,-0.610871
443,0.039125,0.999202,-0.007489,0.101851,0.8653,-0.76778
444,-0.001565,0.999585,0.028611,0.566628,0.5185420000000001,-0.6692819999999999
445,-0.03764,0.997711,0.056103,0.639324,0.0602269999999999,-0.480541
446,-0.0668309999999999,0.994882,0.075726,0.560407,-0.789941,-0.624081
447,-0.0819299999999999,0.992522,0.090434,0.895392,-1.099731,-0.7623850000000001
448,-0.08042,0.992366,0.09346,1.046912,-1.004557,-0.772293
449,-0.071467,0.993997,0.0827919999999999,0.495295,-1.21766,-0.215726
450,-0.046389,0.997526,0.05275,0.051913,-0.766004,-0.370529
451,-0.012375,0.999906,0.005272,-0.240219,-0.393689,-0.3361429999999999
452,0.02396,0.997761,-0.0623809999999999,0.163921,0.541957,-0.2879
453,0.06646,0.989877,-0.125377,0.495247,1.7074189999999998,0.350032
454,0.125646,0.97354,-0.190855,0.289469,1.735597,0.5706
455,0.1916759999999999,0.94946,-0.248556,-0.51617,1.325915,0.381109
456,0.256308,0.92193,-0.290423,-0.338659,1.748541,-0.334715
457,0.302066,0.893431,-0.332464,0.206128,1.149919,0.205785
458,0.355671,0.8623200000000001,-0.360412,0.352932,0.64479,0.160217
459,0.40085,0.8336459999999999,-0.379932,0.347823,0.5312060000000001,0.600132
460,0.42535,0.810207,-0.403282,0.164646,0.301517,0.494606
461,0.43303,0.795972,-0.422976,-0.401124,-0.151532,0.4841789999999999
462,0.424371,0.794249,-0.434826,-1.017449,-0.792479,0.640606
463,0.4062139999999999,0.810001,-0.422947,-1.0646,-1.434315,0.882968
464,0.386248,0.8452870000000001,-0.369185,-1.092898,-1.807307,1.177932
465,0.362284,0.885893,-0.28972,-0.837427,-1.925383,0.6179359999999999
466,0.330553,0.912968,-0.239201,-0.337206,-1.104695,-0.476467
467,0.290501,0.926028,-0.240986,0.4927319999999999,-0.075427,-1.139706
468,0.281129,0.923784,-0.259968,1.397475,1.0073530000000002,-0.2333179999999999
469,0.339631,0.9139,-0.222329,-0.630219,0.395044,0.093637
470,0.3507349999999999,0.914582,-0.201288,-1.502805,1.428756,-1.962912
471,0.314156,0.915265,-0.252169,-0.260339,0.070865,2.237979
472,0.317394,0.910535,-0.264917,-0.5671350000000001,-0.758908,1.184748
473,0.307648,0.918163,-0.2496449999999999,-0.6200869999999999,-0.290355,0.459606
474,0.256288,0.940313,-0.223876,-0.38289,1.017206,0.343368
475,0.181724,0.964652,-0.190831,0.726723,2.006036,0.405705
476,0.135077,0.978136,-0.1581,0.557137,0.831419,0.333728
477,0.095957,0.988926,-0.113173,-0.034693,0.819667,0.045363
478,0.058634,0.996741,-0.05532,-0.226115,1.186303,-0.699044
479,0.015082,0.999742,-0.016711,0.261132,0.760771,-0.572934
480,-0.023333,0.999604,0.015422,0.604464,0.478591,-0.4385479999999999
481,-0.058312,0.997415,0.041875,0.736244,-0.0138789999999999,-0.4497569999999999
482,-0.086371,0.994315,0.062189,0.653312,-0.715567,-0.591806
483,-0.1017309999999999,0.991418,0.0820419999999999,0.992874,-0.910074,-0.705257
484,-0.101114,0.990686,0.091146,1.15101,-1.106729,-0.7887930000000001
485,-0.092347,0.992072,0.085175,0.737259,-1.3795389999999998,-0.220825
486,-0.066278,0.996102,0.058121,-0.037528,-0.707146,-0.440003
487,-0.03086,0.999459,0.010935,-0.405434,-0.291101,-0.459315
488,0.001786,0.998269,-0.058707,-0.279771,-0.078759,-0.245828
489,0.041286,0.99073,-0.129389,0.144337,0.780144,0.1188
490,0.098412,0.976096,-0.193766,0.546028,2.449014,0.401255
491,0.164828,0.952786,-0.254998,-0.261981,1.500003,0.390786
492,0.228093,0.923937,-0.307096,-0.8250780000000001,1.176115,-0.158541
493,0.28131,0.893849,-0.3491309999999999,-0.251265,1.184016,0.254251
494,0.332607,0.863756,-0.37854,0.386494,0.574965,0.272766
495,0.378293,0.8355879999999999,-0.398348,0.571445,0.434554,0.207919
496,0.410379,0.812701,-0.4136439999999999,0.194205,0.414716,0.502542
497,0.4215359999999999,0.7988689999999999,-0.42908,-0.372846,-0.162486,0.693347
498,0.419959,0.796281,-0.435391,-1.065222,-0.829881,0.737271
499,0.408554,0.811864,-0.41708,-1.093216,-1.175527,0.8267629999999999
500,0.388515,0.8479690000000001,-0.360553,-1.059138,-1.789177,0.950397
501,0.359222,0.8885930000000001,-0.285229,-0.878539,-1.94682,0.689816
502,0.322178,0.915477,-0.241031,0.2479969999999999,-0.945491,-0.686383
503,0.290002,0.926213,-0.240877,1.166907,0.369289,-0.62007
504,0.306199,0.922197,-0.236194,0.905624,0.662566,-0.424252
505,0.364032,0.910922,-0.194148,-0.322589,0.133038,-0.191655
506,0.370383,0.911478,-0.1789339999999999,-1.879538,2.0121830000000003,-2.140478
507,0.306322,0.917446,-0.253875,-0.8752,1.164707,1.839034
508,0.316588,0.910809,-0.26494,-0.338362,-0.6484949999999999,0.593858
509,0.3185429999999999,0.915502,-0.2457239999999999,-0.48935,-0.46465,0.513882
510,0.275146,0.93315,-0.231341,-0.223175,0.943452,0.606494
511,0.203901,0.956245,-0.2097909999999999,0.805605,1.932656,0.620679
512,0.15974,0.970527,-0.180423,0.539906,0.524239,0.065341
513,0.119519,0.982796,-0.140781,0.1595339999999999,0.654854,0.41962
514,0.076741,0.993701,-0.081615,-0.227544,0.923917,-0.4116869999999999
515,0.034785,0.99886,-0.032561,-0.0595039999999999,0.8929549999999999,-0.584855
516,-0.004988,0.999961,0.006626,0.445341,0.6985100000000001,-0.644642
517,-0.04316,0.998388,0.036721,0.6847,0.287882,-0.505578
518,-0.075043,0.995704,0.054151,0.658082,-0.562766,-0.549741
519,-0.097183,0.99312,0.065247,0.945266,-1.122957,-0.686951
520,-0.099467,0.992663,0.068655,1.158793,-1.069232,-0.724813
521,-0.088249,0.994075,0.063359,0.911156,-1.318447,-0.269704
522,-0.067317,0.996761,0.043866,0.31103,-0.904537,-0.308453
523,-0.034939,0.999366,0.005989,-0.077641,-0.488303,-0.314079
524,-0.002999,0.998698,-0.050824,-0.095802,-0.081477,-0.292331
525,0.032207,0.992815,-0.1152,0.212285,0.779829,-0.108829
526,0.081356,0.981182,-0.175082,0.318608,2.206684,0.505923
527,0.148865,0.960075,-0.236823,-0.715332,0.875603,0.440283
528,0.2194849999999999,0.932651,-0.2863199999999999,-0.727405,1.453717,-0.5224880000000001
529,0.2791889999999999,0.90113,-0.331677,-0.05844,1.271584,0.30798
530,0.331316,0.869909,-0.365351,0.515989,0.599345,0.105188
531,0.3906739999999999,0.8365959999999999,-0.384023,0.312146,0.560621,0.152379
532,0.428651,0.810937,-0.398287,0.371566,0.439079,0.366869
533,0.441722,0.792049,-0.421347,-0.00854,0.34409,0.545675
534,0.438942,0.78254,-0.441537,-0.778648,-0.502632,0.525888
535,0.42563,0.7863859999999999,-0.447692,-0.934007,-0.923532,0.680923
536,0.402931,0.812607,-0.42108,-0.904014,-1.3379219999999998,1.043944
537,0.381065,0.855975,-0.349411,-0.8976360000000001,-1.7389709999999998,1.0303950000000002
538,0.356276,0.895178,-0.267793,-0.60269,-1.7296049999999998,0.2691969999999999
539,0.328802,0.915737,-0.23088,0.074687,-0.7287100000000001,-0.920029
540,0.319024,0.918917,-0.23196,0.86959,0.487013,-0.092106
541,0.360005,0.914602,-0.18409,0.519939,0.6271,-0.210716
542,0.3838789999999999,0.911148,-0.149782,-1.716048,0.783813,-1.791014
543,0.347838,0.917751,-0.191654,-0.421203,1.174214,2.352634
544,0.329054,0.920117,-0.212366,-0.352583,0.505817,1.611459
545,0.32974,0.921269,-0.206215,-0.696607,-0.464406,0.378044
546,0.295723,0.936966,-0.186098,-0.535637,0.278503,0.5126970000000001
547,0.225017,0.959177,-0.171282,-0.100612,1.085669,0.657656
548,0.166383,0.975972,-0.1406599999999999,1.051726,0.99531,0.417027
549,0.135895,0.985727,-0.099325,0.544144,0.588645,-0.290827
550,0.095138,0.994452,-0.04476,0.14943,0.868341,-0.363642
551,0.05559,0.998448,0.001029,-0.078188,0.788189,-0.607703
552,0.010369,0.999303,0.035715,0.433051,0.505138,-0.557474
553,-0.031318,0.997592,0.061785,0.7757029999999999,0.257764,-0.456835
554,-0.065458,0.994533,0.081285,0.743696,-0.487896,-0.562334
555,-0.093918,0.990597,0.099424,0.95041,-1.099926,-0.624448
556,-0.10364,0.988166,0.113024,1.171343,-0.877983,-0.809649
557,-0.096996,0.988675,0.114465,0.8914290000000001,-1.2671940000000002,-0.398522
558,-0.076482,0.992101,0.099375,0.233404,-0.957799,-0.458338
559,-0.041541,0.997169,0.062592,-0.221216,-0.462379,-0.625321
560,-0.0090099999999999,0.99993,0.006909,-0.292443,-0.357902,-0.307232
561,0.022142,0.997249,-0.07067,-0.073869,0.208378,-0.291009
562,0.065437,0.987953,-0.140205,0.462501,1.657631,0.259467
563,0.131345,0.969238,-0.20813,0.337099,2.342987,0.548874
564,0.205907,0.941076,-0.268273,-0.983235,1.498514,-0.1190869999999999
565,0.274179,0.909273,-0.313117,-0.237054,1.2535690000000002,-0.1216059999999999
566,0.322832,0.8741209999999999,-0.362886,0.065703,0.697184,0.336458
567,0.3810219999999999,0.837625,-0.391409,0.298757,0.58129,0.05306
568,0.433339,0.806109,-0.402988,0.282649,0.391233,0.2450139999999999
569,0.458405,0.784834,-0.4170069999999999,0.136962,0.114275,0.385757
570,0.462621,0.772892,-0.434297,-0.2425429999999999,-0.169972,0.546769
571,0.453003,0.7735479999999999,-0.443177,-0.807557,-0.77013,0.685883
572,0.4366609999999999,0.793716,-0.4234819999999999,-0.984299,-1.229675,0.894918
573,0.4177189999999999,0.834884,-0.358432,-1.153223,-1.702163,1.033023
574,0.3899309999999999,0.880207,-0.270523,-0.903649,-1.891132,0.553619
575,0.353236,0.908491,-0.223295,-0.008998,-1.003553,-0.5710310000000001
576,0.322309,0.917291,-0.233852,1.042865,0.031927,-0.7868850000000001
577,0.340121,0.913781,-0.222071,1.131543,0.8302069999999999,0.1297849999999999
578,0.383286,0.905688,-0.181147,-1.095245,-0.22983,-0.348027
579,0.366809,0.912057,-0.183292,-2.0175810000000003,2.014045,-3.157955
580,0.320718,0.913932,-0.248719,0.012259,1.159981,3.175096
581,0.335001,0.909241,-0.247082,-0.374963,-0.63855,1.044964
582,0.332071,0.915325,-0.22782,-0.5812930000000001,-1.007809,0.512518
583,0.286493,0.934897,-0.20948,-0.498072,0.431252,0.572425
584,0.217362,0.960817,-0.171984,0.813461,1.551146,0.445147
585,0.179221,0.974137,-0.1375829999999999,0.48832,0.507934,0.052103
586,0.139796,0.986061,-0.090187,0.123555,0.726143,0.18319
587,0.100538,0.994393,-0.032655,-0.36041,0.981727,-0.6458430000000001
588,0.0552919999999999,0.998399,0.011534,0.105795,0.637282,-0.520568
589,0.010657,0.998824,0.0472029999999999,0.429193,0.668611,-0.605202
590,-0.030077,0.996993,0.07136,0.883928,0.043275,-0.545008
591,-0.062062,0.994493,0.084398,0.849416,-1.094331,-0.515459
592,-0.080298,0.992405,0.093137,1.091407,-1.2913709999999998,-0.710492
593,-0.07786,0.992693,0.092126,1.155008,-1.1703059999999998,-0.557703
594,-0.063537,0.994842,0.079007,0.456833,-1.079071,-0.342679
595,-0.032309,0.998417,0.045937,0.0035619999999999,-0.668705,-0.379723
596,0.002271,0.999989,-0.002851,-0.204449,-0.206974,-0.252398
597,0.0358389999999999,0.99675,-0.072085,0.034824,0.7103729999999999,-0.471585
598,0.077346,0.988098,-0.132938,0.285889,2.062638,0.278567
599,0.137565,0.970206,-0.199424,-0.395133,1.383966,0.618797
600,0.199601,0.944259,-0.261777,-0.617768,1.129807,-0.151781
601,0.257206,0.914676,-0.311781,-0.634037,1.446957,-0.081011
602,0.304987,0.88571,-0.349992,0.309561,0.703096,0.152971
603,0.361018,0.85314,-0.37658,0.192083,0.534616,0.203408
604,0.408436,0.8249360000000001,-0.390711,0.2876849999999999,0.362594,0.2545409999999999
605,0.4384399999999999,0.803597,-0.402488,0.0763,0.232169,0.432731
606,0.452589,0.790139,-0.413326,-0.263883,-0.105005,0.582973
607,0.455721,0.788241,-0.413508,-0.932573,-0.784961,0.674479
608,0.448129,0.805971,-0.386763,-1.017572,-1.289385,0.918318
609,0.432289,0.843836,-0.317901,-1.069069,-1.752299,0.889373
610,0.400763,0.8838940000000001,-0.2410699999999999,-0.746588,-1.77313,0.2377739999999999
611,0.360008,0.909215,-0.209083,0.034599,-0.908132,-0.721017
612,0.325801,0.91975,-0.21888,0.968511,0.206471,-0.155541
613,0.34444,0.917962,-0.196726,0.774655,0.826255,-0.61756
614,0.380227,0.910247,-0.163923,-1.327661,0.551346,-0.936984
615,0.349186,0.918877,-0.183649,-1.142811,1.348472,0.04896
616,0.329345,0.918483,-0.218894,-0.485991,-0.125316,1.938193
617,0.339089,0.917142,-0.2094349999999999,-0.560128,-0.685971,0.6950609999999999
618,0.314559,0.929008,-0.194912,-0.5955189999999999,-0.108497,0.404308
619,0.246263,0.95325,-0.1751069999999999,-0.249681,1.4061860000000002,0.406018
620,0.182196,0.972844,-0.142731,0.781457,1.4593,0.5298609999999999
621,0.147356,0.983505,-0.104869,0.726164,0.5090180000000001,0.12791
622,0.106518,0.993074,-0.049506,0.13184,0.7513569999999999,-0.088983
623,0.06272,0.997976,0.010055,-0.132025,1.038675,-0.541976
624,0.015524,0.998488,0.0526419999999999,0.234232,0.70044,-0.653899
625,-0.025807,0.996234,0.082719,0.6114689999999999,0.619397,-0.543473
626,-0.060154,0.993094,0.100678,0.769718,0.032358,-0.489991
627,-0.0859429999999999,0.990146,0.110517,0.821966,-0.911915,-0.6511359999999999
628,-0.092699,0.988969,0.1154869999999999,1.202684,-0.993531,-0.8204739999999999
629,-0.080919,0.990575,0.110475,0.8725149999999999,-1.201741,-0.370134
630,-0.0551759999999999,0.994241,0.091825,0.4852609999999999,-1.145486,-0.371732
631,-0.016593,0.998404,0.053903,-0.097635,-0.538366,-0.389718
632,0.022276,0.999743,-0.003011,-0.076582,0.3884869999999999,-0.574381
633,0.06341,0.99555,-0.069656,0.203085,1.497691,0.142532
634,0.116352,0.984198,-0.133452,0.105526,2.095392,0.414885
635,0.181321,0.96236,-0.20243,-0.8644729999999999,1.021679,0.0987929999999999
636,0.244723,0.934694,-0.257781,-0.7009920000000001,1.392119,-0.431932
637,0.296304,0.905639,-0.303342,-0.536462,1.573975,-0.022601
638,0.352236,0.8733280000000001,-0.336484,-0.049243,0.61149,0.189497
639,0.412714,0.8390049999999999,-0.354589,0.220938,0.380646,0.26714
640,0.4565,0.809281,-0.369685,0.203702,0.402313,0.256312
641,0.476563,0.787917,-0.389961,-0.123901,-0.015288,0.422141
642,0.4766829999999999,0.778216,-0.408838,-0.599592,-0.5895560000000001,0.4769229999999999
643,0.45876,0.78557,-0.415227,-0.770772,-1.257494,0.8256889999999999
644,0.430177,0.816558,-0.3849349999999999,-0.695222,-1.609176,0.876085
645,0.398388,0.859139,-0.321187,-0.635418,-1.888741,0.704015
646,0.364659,0.892302,-0.26611,-0.00295,-1.063002,0.107541
647,0.333936,0.91004,-0.245574,0.344485,-0.399207,-0.7203689999999999
648,0.3317739999999999,0.911121,-0.244496,1.043317,0.583294,-0.238811
649,0.381786,0.8985129999999999,-0.21658,-0.397395,1.873536,-1.606586
650,0.382506,0.895803,-0.226315,-1.294539,1.129618,-0.303989
651,0.365419,0.891339,-0.268286,-0.937853,-0.496304,1.977896
652,0.374352,0.8933450000000001,-0.2485699999999999,-1.098717,-1.181218,0.936787
653,0.372648,0.902921,-0.214146,-1.134016,-0.047773,0.314351
654,0.322554,0.924102,-0.204905,-0.6572560000000001,1.661225,0.067119
655,0.228656,0.953137,-0.1980859999999999,1.103146,1.941318,0.634487
656,0.180305,0.968841,-0.169793,1.331414,0.388657,0.463616
657,0.145333,0.981881,-0.121569,0.327781,0.6814640000000001,0.137209
658,0.111865,0.99189,-0.0602549999999999,-0.056948,0.8934860000000001,-0.527544
659,0.067508,0.997637,-0.012397,0.344144,0.785978,-0.746743
660,0.023045,0.999426,0.024641,0.6250720000000001,0.4625189999999999,-0.472609
661,-0.011043,0.998665,0.05036,0.623378,0.179481,-0.418722
662,-0.0368779999999999,0.996956,0.068624,0.534284,-0.8018569999999999,-0.7024279999999999
663,-0.054195,0.995031,0.083465,1.039272,-1.073171,-0.8055720000000001
664,-0.052249,0.994911,0.086088,1.026034,-1.125466,-0.693662
665,-0.037629,0.996562,0.0737429999999999,0.5767369999999999,-1.358943,-0.24693
666,-0.007772,0.998997,0.043987,-0.1076309999999999,-0.579457,-0.548092
667,0.026105,0.999645,-0.004429,-0.208783,-0.380977,-0.360317
668,0.0566809999999999,0.995508,-0.075777,-0.092783,0.172201,-0.276746
669,0.091192,0.985386,-0.143839,0.4168949999999999,1.331325,0.1691079999999999
670,0.146722,0.966814,-0.209129,0.210028,1.902952,0.635628
671,0.218855,0.93826,-0.267887,-0.8314799999999999,0.8989440000000001,0.073002
672,0.2923449999999999,0.905635,-0.30717,-0.491563,1.490941,-0.242222
673,0.337536,0.8748799999999999,-0.347344,0.275623,0.8623790000000001,0.30993
674,0.396313,0.839736,-0.371179,0.442097,0.584184,0.093316
675,0.449661,0.8050149999999999,-0.386976,0.364365,0.553643,0.203764
676,0.477042,0.778401,-0.408065,0.096612,0.271571,0.481963
677,0.481455,0.759948,-0.436663,-0.393397,-0.062515,0.5592060000000001
678,0.4722149999999999,0.754383,-0.455977,-0.871217,-0.692783,0.624678
679,0.45311,0.768746,-0.451349,-0.971283,-1.127846,0.762339
680,0.432596,0.805134,-0.405727,-0.984614,-1.6606029999999998,0.969188
681,0.4097949999999999,0.850994,-0.328439,-0.494543,-1.600063,0.450326
682,0.379779,0.8854850000000001,-0.267728,0.215603,-0.7446619999999999,-0.761645
683,0.358912,0.896323,-0.260348,0.979818,0.453042,-0.334836
684,0.3911139999999999,0.8872969999999999,-0.244394,0.28714,0.721635,-0.3931949999999999
685,0.429382,0.877765,-0.212494,-1.0026700000000002,0.529706,-0.691604
686,0.397063,0.883601,-0.248163,-0.790542,0.700368,1.707666
687,0.38444,0.8834799999999999,-0.267701,-0.999048,-0.711864,1.205049
688,0.381702,0.88939,-0.251563,-1.074512,-0.8486950000000001,0.790259
689,0.347292,0.907971,-0.234458,-0.52762,0.542392,0.468451
690,0.27184,0.938822,-0.2114469999999999,0.561579,1.7248900000000005,0.4473789999999999
691,0.208552,0.961149,-0.180809,1.0805559999999998,1.698061,0.633491
692,0.171362,0.973398,-0.152068,0.875085,0.5507569999999999,0.340971
693,0.126859,0.987191,-0.096711,0.057162,0.704871,-0.088073
694,0.087266,0.995464,-0.03779,-0.160477,0.940495,-0.617743
695,0.040427,0.999161,0.0058439999999999,0.424447,0.698547,-0.699799
696,0.000128,0.999172,0.040581,0.644266,0.4751319999999999,-0.507484
697,-0.035185,0.997299,0.0644,0.562865,-0.22519,-0.5113449999999999
698,-0.064522,0.99464,0.080741,0.53518,-1.101497,-0.6696840000000001
699,-0.076786,0.992879,0.091028,1.086827,-0.957356,-0.8704780000000001
700,-0.06989,0.993385,0.091057,1.052327,-1.175301,-0.382271
701,-0.0510959999999999,0.995546,0.079173,0.7124119999999999,-1.395326,-0.327968
702,-0.01509,0.998774,0.0470379999999999,-0.012086,-0.480357,-0.478038
703,0.026438,0.999642,-0.002872,-0.072779,-0.106545,-0.32066
704,0.068966,0.995387,-0.0666399999999999,0.1599,0.84229,-0.261378
705,0.117113,0.98476,-0.128547,0.393874,2.091717,0.352913
706,0.177824,0.963242,-0.201338,-0.472227,1.349746,0.6552720000000001
707,0.241401,0.934414,-0.261896,-0.763252,1.63361,-0.305731
708,0.302179,0.903734,-0.303228,-0.053109,1.184325,0.148336
709,0.355809,0.8697290000000001,-0.342003,-0.052709,0.764213,0.1659769999999999
710,0.416653,0.8347950000000001,-0.359878,0.090702,0.572279,0.243606
711,0.462896,0.804139,-0.372938,0.354426,0.372787,0.294538
712,0.4868399999999999,0.779464,-0.394228,0.118674,0.2489469999999999,0.517077
713,0.488709,0.765721,-0.418127,-0.462006,-0.369359,0.564627
714,0.474995,0.769301,-0.4272609999999999,-1.188587,-1.078856,0.93724
715,0.455831,0.798655,-0.392891,-1.032323,-1.595545,1.076241
716,0.4353869999999999,0.842822,-0.31636,-0.919594,-1.920901,0.914336
717,0.409584,0.878524,-0.245826,-0.536552,-1.332,0.1435
718,0.37459,0.9005489999999999,-0.220652,-0.057925,-0.820227,-0.8184100000000001
719,0.356678,0.905652,-0.22928,0.719066,0.567859,-0.228453
720,0.381178,0.900711,-0.208366,-0.7256600000000001,1.008392,-1.01812
721,0.375348,0.905989,-0.195684,-1.323407,1.6332719999999998,-1.342646
722,0.345952,0.907453,-0.238411,-0.436376,0.020113,2.26728
723,0.357792,0.903259,-0.236857,-0.6918979999999999,-0.94899,0.925929
724,0.358545,0.90719,-0.220105,-0.721368,-0.208719,0.5671510000000001
725,0.317742,0.926522,-0.20147,-0.408867,1.033332,0.456581
726,0.2372639999999999,0.956179,-0.171525,0.8303780000000001,1.710676,0.508744
727,0.18961,0.973053,-0.13118,1.016704,0.8602139999999999,0.388901
728,0.151562,0.984385,-0.089486,0.196293,0.825155,0.1018
729,0.1105039999999999,0.993398,-0.030701,-0.228836,0.968226,-0.667755
730,0.061875,0.997981,0.01411,0.105301,0.795492,-0.802226
731,0.012449,0.99889,0.04534,0.4967819999999999,0.761257,-0.4791319999999999
732,-0.033948,0.997159,0.067186,0.780072,0.042255,-0.437059
733,-0.069954,0.994459,0.078419,0.878868,-0.962828,-0.5935560000000001
734,-0.0904679999999999,0.99203,0.087657,1.3777,-1.052943,-0.846965
735,-0.0919799999999999,0.991798,0.088698,1.267761,-1.238365,-0.524352
736,-0.081728,0.993716,0.076414,0.609514,-1.2497280000000002,-0.3854039999999999
737,-0.05275,0.99775,0.041267,-0.006729,-0.5207149999999999,-0.268378
738,-0.017647,0.999744,-0.013837,-0.016273,0.012615,-0.261142
739,0.0222169999999999,0.996596,-0.079344,0.257507,1.0430469999999998,-0.108003
740,0.078194,0.987145,-0.139364,-0.068398,2.058097,0.485525
741,0.150507,0.96645,-0.2081219999999999,-0.8895059999999999,1.11375,0.1726
742,0.214582,0.93913,-0.268294,-0.749861,1.207507,-0.155244
743,0.277851,0.906633,-0.317504,-0.294315,1.308684,0.3659199999999999
744,0.338703,0.876067,-0.343192,0.172741,0.625261,0.30149
745,0.398037,0.844749,-0.357714,0.332615,0.558602,0.130694
746,0.444679,0.81445,-0.372726,0.252999,0.357577,0.288406
747,0.47017,0.791373,-0.390721,-0.064714,0.17193,0.455647
748,0.479406,0.778846,-0.404429,-0.5806020000000001,-0.354545,0.468028
749,0.4726479999999999,0.78359,-0.403217,-0.951896,-1.024069,0.752155
750,0.4503109999999999,0.812369,-0.3704989999999999,-0.902505,-1.524192,0.970261
751,0.416927,0.856165,-0.305198,-0.895122,-1.957514,0.854972
752,0.376637,0.8919229999999999,-0.250219,-0.416158,-1.60724,0.196508
753,0.3386349999999999,0.911283,-0.2342699999999999,0.301456,-0.708554,-0.773939
754,0.331399,0.911764,-0.242596,1.149604,0.5599310000000001,-0.356602
755,0.3815179999999999,0.899691,-0.21211,0.052136,0.7557649999999999,-0.5274220000000001
756,0.389635,0.900855,-0.191404,-1.510622,0.509865,-1.019411
757,0.340048,0.90992,-0.237496,-0.884986,1.26757,1.303627
758,0.337158,0.907641,-0.250008,-0.4794609999999999,0.083219,1.572594
759,0.34695,0.906647,-0.2400179999999999,-0.611019,-0.793702,0.5015229999999999
760,0.32356,0.919805,-0.221944,-0.648221,-0.117895,0.390935
761,0.250667,0.946657,-0.202478,-0.070507,1.276991,0.532403
762,0.186148,0.968309,-0.166487,0.915537,1.569075,0.598891
763,0.146156,0.980675,-0.130026,0.527169,0.510521,0.211508
764,0.104092,0.992185,-0.06874,-0.201764,0.891284,-0.3619239999999999
765,0.061449,0.998027,-0.012508,-0.261706,1.034398,-0.913212
766,0.012753,0.999621,0.024173,0.324253,0.834851,-0.706591
767,-0.030598,0.998192,0.051634,0.817448,0.31675,-0.4538399999999999
768,-0.0668639999999999,0.995718,0.0637409999999999,0.728912,-0.654303,-0.494618
769,-0.093822,0.993112,0.070107,0.834407,-1.10621,-0.560982
770,-0.098754,0.992493,0.07207,1.2890620000000002,-1.212631,-0.7149989999999999
771,-0.088873,0.993869,0.065683,0.916205,-1.423679,-0.256907
772,-0.063138,0.997092,0.042549,0.051236,-0.6359779999999999,-0.43412
773,-0.024673,0.999691,0.000596,-0.147797,-0.255321,-0.393449
774,0.0132039999999999,0.997989,-0.0619269999999999,-0.114843,0.152631,-0.275231
775,0.053029,0.990088,-0.130021,0.2892409999999999,1.209253,0.128297
776,0.107097,0.975664,-0.19132,0.370931,2.390196,0.39382
777,0.176941,0.950402,-0.255774,-0.691925,1.171469,0.223105
778,0.244804,0.920157,-0.305575,-0.809516,1.277627,-0.077115
779,0.300454,0.889876,-0.343282,0.2831639999999999,0.8996139999999999,0.203908
780,0.3548449999999999,0.856648,-0.374479,0.131911,0.6423909999999999,0.1611759999999999
781,0.409236,0.825759,-0.388128,0.181844,0.4378829999999999,0.215231
782,0.447701,0.800902,-0.397635,0.059226,0.245362,0.313727
783,0.466203,0.784223,-0.409443,-0.077012,-0.007658,0.569431
784,0.468664,0.7783720000000001,-0.417714,-0.8074859999999999,-0.508994,0.683537
785,0.4609359999999999,0.7904680000000001,-0.403353,-1.31436,-1.162233,0.901003
786,0.4456489999999999,0.82621,-0.344626,-1.343064,-1.685723,1.067313
787,0.4158779999999999,0.872059,-0.257975,-1.096283,-2.000905,0.458643
788,0.373973,0.904419,-0.205337,-0.101314,-1.123795,-0.5417029999999999
789,0.328782,0.921171,-0.208182,0.763259,-0.122831,-0.786935
790,0.3241739999999999,0.922701,-0.2086309999999999,1.319503,0.91142,-0.469836
791,0.3680239999999999,0.913561,-0.1730819999999999,-0.902234,0.390363,-0.3253769999999999
792,0.363878,0.916309,-0.167223,-1.480333,2.276288,-1.624601
793,0.338403,0.915735,-0.216579,-0.303735,0.236686,2.156521
794,0.3563969999999999,0.908788,-0.216978,-0.563154,-0.947209,0.831297
795,0.3522699999999999,0.915081,-0.1962799999999999,-0.644369,-0.52972,0.511145
796,0.2988389999999999,0.938342,-0.173787,-0.558071,0.8512850000000001,0.332738
797,0.213711,0.96373,-0.159826,0.53014,2.199234,0.680624
798,0.1683619999999999,0.977155,-0.129672,0.913929,0.411929,0.311328
799,0.1282829999999999,0.988512,-0.079869,0.085645,0.619703,-0.12492
800,0.089781,0.99568,-0.023492,-0.418852,1.113634,-0.595938
801,0.043202,0.998905,0.017709,0.086162,0.761959,-0.5723659999999999
802,-0.003807,0.998878,0.047106,0.790992,0.692589,-0.476869
803,-0.045832,0.996679,0.067234,1.083948,0.154673,-0.411182
804,-0.075776,0.993761,0.081777,0.926347,-0.971498,-0.537832
805,-0.087184,0.991522,0.096296,1.226985,-1.115637,-0.777586
806,-0.080476,0.991784,0.099385,1.171861,-1.142465,-0.560353
807,-0.059824,0.994439,0.086614,0.4664399999999999,-1.184685,-0.363973
808,-0.0242539999999999,0.998356,0.0518309999999999,-0.097709,-0.463093,-0.509488
809,0.012598,0.99991,-0.0034119999999999,-0.10113,-0.001802,-0.289526
810,0.0519179999999999,0.995757,-0.075913,0.041145,0.461747,-0.4797659999999999
811,0.105252,0.984631,-0.139337,0.313617,1.856479,0.266687
812,0.177294,0.961891,-0.208146,-0.771411,1.266655,0.328752
813,0.246685,0.932134,-0.265076,-0.8825799999999999,1.441355,-0.171768
814,0.304654,0.9006040000000001,-0.309987,-0.373273,1.429993,0.027775
815,0.355216,0.869092,-0.34423,0.235177,0.7147399999999999,0.188301
816,0.413533,0.835206,-0.362512,0.240215,0.378783,0.311761
817,0.454189,0.8084859999999999,-0.374242,0.199559,0.405503,0.323491
818,0.47401,0.788352,-0.392185,-0.053844,0.056115,0.500797
819,0.477076,0.7773939999999999,-0.409941,-0.918696,-0.775334,0.627302
820,0.4686229999999999,0.7806569999999999,-0.413476,-1.024531,-1.140871,0.830758
821,0.4495619999999999,0.808159,-0.380482,-0.990486,-1.427467,0.915913
822,0.4231479999999999,0.852259,-0.30756,-0.987113,-1.868449,0.80518
823,0.38832,0.889703,-0.240058,-0.270812,-1.334756,-0.04345
824,0.351093,0.909546,-0.222378,0.390393,-0.507798,-0.884632
825,0.338586,0.909751,-0.240219,1.151634,0.798654,-0.223648
826,0.386264,0.8988389999999999,-0.207077,-0.286746,0.457408,-0.509247
827,0.405448,0.895754,-0.182285,-1.770072,1.005186,-1.827541
828,0.354717,0.90503,-0.234709,-0.654369,0.722854,2.528196
829,0.3471619999999999,0.903232,-0.252274,-0.502893,-0.346088,1.434922
830,0.352608,0.904165,-0.2411309999999999,-0.5924,-0.580755,0.590344
831,0.318469,0.91994,-0.228648,-0.352938,0.398511,0.397517
832,0.2479969999999999,0.946423,-0.206815,0.333347,1.6071959999999998,0.6450020000000001
833,0.196405,0.967386,-0.159943,0.790991,0.883918,0.320404
834,0.158498,0.979968,-0.12055,0.204173,0.683591,0.181616
835,0.1165549999999999,0.991202,-0.062649,0.00344,0.811655,-0.056843
836,0.071594,0.997412,-0.005866,-0.10588,1.058832,-0.8257680000000001
837,0.0212949999999999,0.999301,0.030552,0.322272,0.84129,-0.668293
838,-0.023187,0.997965,0.05931,0.6944670000000001,0.606191,-0.454452
839,-0.059697,0.995537,0.073018,0.7640279999999999,-0.343102,-0.492589
840,-0.086808,0.993057,0.079318,1.009843,-1.174805,-0.6635310000000001
841,-0.092431,0.992392,0.081274,1.312676,-1.085531,-0.8525290000000001
842,-0.082853,0.993821,0.07379,1.021756,-1.282792,-0.328627
843,-0.054139,0.997298,0.049572,0.1098329999999999,-0.8677959999999999,-0.3452719999999999
844,-0.014563,0.999855,0.008336,-0.118463,-0.366173,-0.320134
845,0.025306,0.998256,-0.053262,-0.090599,0.26209,-0.504721
846,0.069862,0.991016,-0.114013,0.173486,1.3554959999999998,0.177321
847,0.129553,0.974998,-0.18052,0.02012,2.115853,0.534478
848,0.192864,0.949647,-0.246913,-0.744973,0.999846,0.164516
849,0.253587,0.919098,-0.301573,-0.6032420000000001,1.406265,-0.118852
850,0.3030219999999999,0.88808,-0.345666,0.07332,0.943463,0.502679
851,0.360367,0.8551049999999999,-0.372727,-0.046906,0.626432,0.19989
852,0.413147,0.8233590000000001,-0.389081,0.18692,0.453451,0.343884
853,0.44971,0.798446,-0.4002989999999999,0.006665,0.20897,0.397308
854,0.464279,0.783173,-0.413617,-0.329163,-0.293671,0.510113
855,0.461605,0.7808689999999999,-0.420902,-0.8542139999999999,-0.913224,0.87093
856,0.4457109999999999,0.7991149999999999,-0.403426,-0.8886879999999999,-1.294812,0.946227
857,0.4224239999999999,0.8388209999999999,-0.343412,-0.943252,-1.870391,0.836317
858,0.391134,0.877748,-0.276708,-0.5513359999999999,-1.514787,0.13648
859,0.356265,0.901883,-0.244286,-0.153873,-1.04675,-0.226982
860,0.329865,0.910862,-0.248017,0.916458,0.214565,-0.160613
861,0.356254,0.904041,-0.236192,0.371453,0.857769,-1.26831
862,0.391617,0.896933,-0.20528,-0.8324290000000001,0.791085,-1.016598
863,0.36252,0.904029,-0.2265059999999999,-0.437593,0.86921,1.7731669999999995
864,0.3597869999999999,0.899494,-0.247908,-0.648605,-0.5272100000000001,1.521269
865,0.368915,0.8989540000000001,-0.2361739999999999,-0.7332029999999999,-0.7056100000000001,1.058226
866,0.348902,0.911873,-0.216214,-0.711054,0.330955,0.237363
867,0.277383,0.941148,-0.193115,0.005835,1.765639,0.371627
868,0.2058699999999999,0.964002,-0.168259,0.736085,1.798586,0.50647
869,0.165555,0.97605,-0.141111,0.366458,0.5490970000000001,0.373151
870,0.125966,0.988267,-0.08634,0.055171,0.740813,0.254858
871,0.082039,0.996097,-0.0324529999999999,-0.237923,1.050961,-0.761187
872,0.032552,0.999467,0.0005679999999999,0.4155689999999999,0.770171,-0.525989
873,-0.010965,0.999431,0.031783,0.813074,0.508412,-0.4373149999999999
874,-0.047462,0.997576,0.050802,0.8294600000000001,-0.338092,-0.526571
875,-0.075719,0.994941,0.065958,0.980229,-1.108772,-0.5965520000000001
876,-0.0858049999999999,0.99339,0.07619,1.239522,-1.048566,-0.75513
877,-0.08031,0.993988,0.074364,0.99869,-1.290176,-0.351388
878,-0.060792,0.996505,0.057222,0.101792,-0.954711,-0.4165359999999999
879,-0.0274459999999999,0.999427,0.019602,-0.129918,-0.516318,-0.2594849999999999
880,0.00627,0.999218,-0.038944,-0.098357,-0.0583299999999999,-0.278958
881,0.046029,0.993348,-0.105512,0.287407,0.94757,-0.131701
882,0.101806,0.98094,-0.165484,0.255235,2.230547,0.496356
883,0.17303,0.957571,-0.230461,-0.6461140000000001,1.125803,0.443107
884,0.241244,0.92852,-0.2822159999999999,-0.567203,1.379357,-0.1494859999999999
885,0.300169,0.8984270000000001,-0.320502,0.04204,1.230632,0.19332
886,0.356799,0.867877,-0.345657,0.370267,0.6708189999999999,0.149383
887,0.414595,0.8350190000000001,-0.3617309999999999,0.368425,0.502124,0.159216
888,0.452194,0.807408,-0.378957,0.246994,0.345668,0.291478
889,0.468276,0.786862,-0.401947,-0.1255339999999999,0.0991399999999999,0.554107
890,0.469431,0.7765350000000001,-0.420266,-0.625437,-0.263015,0.56585
891,0.454967,0.782596,-0.424904,-1.004787,-1.034671,0.7611319999999999
892,0.42921,0.811372,-0.3967989999999999,-1.025921,-1.394944,0.988245
893,0.401483,0.855876,-0.326008,-1.144983,-1.7937580000000002,1.012105
894,0.3708599999999999,0.8935209999999999,-0.253134,-0.729823,-1.617138,0.1670289999999999
895,0.333889,0.914677,-0.227769,-0.028926,-0.830082,-0.871612
896,0.314306,0.917819,-0.2425139999999999,1.081598,0.322171,-0.583581
897,0.356541,0.908865,-0.216417,0.836758,1.206674,-0.756087
898,0.377909,0.904474,-0.19775,-1.292902,1.640463,-0.566074
899,0.347641,0.904034,-0.2487219999999999,-0.57872,-0.334347,2.148838
900,0.360661,0.896149,-0.258523,-0.8110390000000001,-1.1688690000000002,0.989526
901,0.368352,0.8990020000000001,-0.236864,-0.8507889999999999,-0.437943,0.563525
902,0.332305,0.917113,-0.220162,-0.559584,1.260393,0.147134
903,0.248854,0.945112,-0.211728,0.211763,2.366839,0.368039
904,0.196316,0.961534,-0.192107,1.110218,1.019316,0.469283
905,0.154128,0.975962,-0.154064,0.2514659999999999,0.65357,0.169537
906,0.116218,0.988311,-0.098633,-0.209815,0.956392,-0.487992
907,0.075032,0.995993,-0.048588,-0.114842,0.970194,-0.612088
908,0.030456,0.999469,-0.011251,0.550401,0.563901,-0.642833
909,-0.011612,0.999723,0.020267,0.640656,0.340227,-0.517184
910,-0.047574,0.998163,0.037418,0.62367,-0.022928,-0.504108
911,-0.073588,0.99601,0.050413,0.908122,-1.157295,-0.608396
912,-0.080502,0.995232,0.0549929999999999,1.106991,-1.090615,-0.778733
913,-0.074016,0.996075,0.048463,0.553035,-1.341869,-0.365662
914,-0.053676,0.998215,0.026023,0.0600539999999999,-0.8535309999999999,-0.496237
915,-0.016283,0.9997,-0.018072,-0.286894,-0.424734,-0.4524939999999999
916,0.017515,0.996511,-0.081553,-0.181822,-0.1285,-0.19895
917,0.050875,0.986643,-0.15473,0.228712,0.864432,0.1216329999999999
918,0.097501,0.971431,-0.216353,0.526416,2.410328,0.47531
919,0.164565,0.946293,-0.278284,0.098786,1.842418,0.633691
920,0.229967,0.916957,-0.326036,-0.482943,1.455876,-0.2669809999999999
921,0.291284,0.885552,-0.361865,0.154593,1.148719,0.367129
922,0.343808,0.8526030000000001,-0.393523,0.474887,0.532209,0.135893
923,0.400887,0.819775,-0.408967,0.386558,0.5084420000000001,0.216538
924,0.440572,0.796295,-0.414494,0.230174,0.364319,0.383428
925,0.4574649999999999,0.7811819999999999,-0.424825,0.0067989999999999,0.163413,0.634069
926,0.4561659999999999,0.774512,-0.438223,-0.646672,-0.351157,0.762274
927,0.4440699999999999,0.782935,-0.435672,-1.130791,-1.034812,0.865482
928,0.427842,0.814188,-0.392487,-1.287827,-1.5213709999999998,0.968262
929,0.404604,0.860151,-0.310532,-1.303072,-1.89897,0.80571
930,0.371577,0.8963909999999999,-0.241676,-0.694483,-1.435591,-0.147316
931,0.327918,0.917446,-0.225294,-0.038536,-0.5638989999999999,-0.860125
932,0.300629,0.92302,-0.2401059999999999,0.799423,0.515777,-0.7343810000000001
933,0.329893,0.919119,-0.2153699999999999,0.263292,0.621622,-0.039772
934,0.344957,0.920749,-0.1822609999999999,-1.099916,0.836224,-0.389577
935,0.323627,0.924918,-0.199465,0.086789,1.403726,1.378588
936,0.333791,0.915891,-0.222982,-0.392019,-0.326917,1.114614
937,0.334865,0.913662,-0.2303909999999999,-0.48141,-0.76318,0.435332
938,0.3052539999999999,0.927573,-0.2154559999999999,-0.7630939999999999,-0.190299,0.587847
939,0.2367389999999999,0.949006,-0.2081719999999999,-0.2691489999999999,1.55548,0.842251
940,0.17615,0.967848,-0.179539,0.789365,1.202089,0.588673
941,0.140329,0.98206,-0.125933,0.4691979999999999,0.4547529999999999,-0.1895119999999999
942,0.102406,0.992521,-0.066403,-0.17426,0.860614,-0.004841
943,0.059211,0.998129,-0.015062,-0.099494,0.8614139999999999,-0.5118090000000001
944,0.010296,0.99976,0.019167,0.725193,0.806377,-0.457186
945,-0.034048,0.998459,0.043743,1.013403,0.353226,-0.435971
946,-0.0718169999999999,0.995718,0.0581529999999999,0.94816,-0.1575069999999999,-0.505953
947,-0.099677,0.992665,0.068357,1.002372,-1.082707,-0.604826
948,-0.107194,0.991442,0.074463,1.233796,-1.012789,-0.774994
949,-0.098308,0.992534,0.072136,1.191845,-1.115581,-0.631828
950,-0.075446,0.995613,0.055284,0.106666,-0.800712,-0.542222
951,-0.042594,0.999012,0.0123769999999999,-0.129952,-0.520679,-0.316057
952,-0.010738,0.998794,-0.0478339999999999,-0.202199,-0.073135,-0.243533
953,0.025032,0.992484,-0.1197609999999999,0.236229,0.898049,-0.0003259999999999
954,0.072858,0.980416,-0.182952,0.450503,2.704521,0.415099
955,0.1454599999999999,0.95794,-0.24736,-0.389311,2.191306,0.649047
956,0.215915,0.929648,-0.298548,-0.4703699999999999,1.249124,-0.157949
957,0.271892,0.896016,-0.351036,-0.126018,1.118526,0.3049389999999999
958,0.328617,0.8640459999999999,-0.381356,0.187802,0.556227,0.1325309999999999
959,0.39038,0.831382,-0.39548,0.2046059999999999,0.458215,0.268466
960,0.44164,0.802203,-0.4017719999999999,0.237834,0.21858,0.164544
961,0.4699939999999999,0.780831,-0.411588,0.03501,0.131401,0.324964
962,0.4768529999999999,0.770626,-0.42278,-0.5517890000000001,-0.345455,0.540928
963,0.4710899999999999,0.7761520000000001,-0.419117,-0.905004,-1.046309,0.6216020000000001
964,0.456291,0.8045720000000001,-0.380076,-1.028511,-1.324744,0.8335670000000001
965,0.4339739999999999,0.849143,-0.301029,-1.062774,-1.853232,0.591068
966,0.399667,0.8857510000000001,-0.2360239999999999,-0.3931659999999999,-1.441598,0.102433
967,0.365795,0.903494,-0.223353,0.177067,-0.8001010000000001,-0.532567
968,0.354301,0.906269,-0.230525,0.838433,0.108547,-0.201009
969,0.390462,0.8975989999999999,-0.204574,-0.174794,0.8344719999999999,-1.474885
970,0.397492,0.896568,-0.195347,-0.557801,2.407814,-1.347453
971,0.38841,0.891882,-0.231688,-0.463118,0.590754,2.182936
972,0.399286,0.886976,-0.232032,-0.956704,-0.913496,0.905082
973,0.402455,0.890001,-0.214299,-1.003437,-0.642732,0.549092
974,0.369853,0.907778,-0.197846,-0.871959,0.729765,0.3816989999999999
975,0.282168,0.940693,-0.188344,0.233594,2.197811,0.622502
976,0.212676,0.963183,-0.164443,1.276002,0.840131,0.383498
977,0.178777,0.976208,-0.12268,0.5366770000000001,0.441547,0.214126
978,0.144804,0.987452,-0.062966,-0.2205639999999999,0.8928889999999999,-0.329109
979,0.105319,0.994333,-0.014252,0.019544,0.8864190000000001,-0.787963
980,0.056839,0.998177,0.020143,0.4725189999999999,0.6309739999999999,-0.528199
981,0.012062,0.998847,0.046379,0.744667,0.348427,-0.5117109999999999
982,-0.020583,0.99796,0.060371,0.70262,-0.512807,-0.49488
983,-0.038832,0.996725,0.070879,0.995268,-1.096548,-0.740984
984,-0.039287,0.996759,0.070144,1.199275,-1.162088,-0.7112729999999999
985,-0.029207,0.997966,0.056599,0.859224,-1.448558,-0.333073
986,-0.003312,0.999764,0.021258,0.005875,-0.728387,-0.550509
987,0.029155,0.999144,-0.0292079999999999,-0.153728,-0.5475909999999999,-0.482907
988,0.061147,0.993246,-0.098576,-0.201985,-0.260702,-0.014003
989,0.097937,0.979977,-0.173339,0.523035,1.590533,0.239135
990,0.150914,0.959737,-0.236905,0.779994,2.72021,0.380155
991,0.222711,0.930445,-0.290975,-0.609354,1.339544,0.534536
992,0.293682,0.89579,-0.333624,-0.675609,1.267189,-0.367471
993,0.344306,0.859848,-0.376974,0.355142,0.751678,0.224584
994,0.398767,0.8237389999999999,-0.40303,0.1814329999999999,0.593314,0.085999
995,0.451917,0.791555,-0.4113479999999999,0.311236,0.259456,0.207262
996,0.487874,0.768609,-0.41378,0.041255,0.223243,0.4105
997,0.499116,0.756649,-0.422327,-0.259171,-0.067975,0.582331
998,0.4951529999999999,0.7568590000000001,-0.426595,-0.767019,-0.66819,0.66718
999,0.479634,0.775833,-0.409915,-1.026814,-1.213287,0.830523
1000,0.460294,0.817291,-0.346641,-1.217908,-1.702423,0.86518
1001,0.427351,0.866567,-0.257736,-0.955656,-1.858632,0.497146
1002,0.387182,0.8986729999999999,-0.206086,-0.047201,-0.992743,-0.507934
1003,0.347016,0.914772,-0.2067989999999999,0.789565,0.071312,-0.655933
1004,0.345109,0.915104,-0.2085139999999999,1.202422,1.049832,-0.510709
1005,0.385735,0.905333,-0.17769,-1.108178,0.367479,0.110231
1006,0.378236,0.909406,-0.172948,-1.487642,2.071887,-1.459743
1007,0.3452719999999999,0.915271,-0.20751,-0.525844,0.375836,2.089529
1008,0.368913,0.906981,-0.203181,-0.581727,-0.8083020000000001,0.48466
1009,0.379902,0.906986,-0.18178,-0.742405,-0.641544,0.4007739999999999
1010,0.346831,0.926145,-0.148178,-0.646926,0.586017,0.2711639999999999
1011,0.265433,0.954761,-0.134051,0.2385489999999999,2.5562720000000003,0.660937
1012,0.201049,0.972802,-0.115008,0.8693549999999999,1.762549,0.542605
1013,0.160303,0.984219,-0.074885,0.534292,0.265125,0.04243
1014,0.1167609999999999,0.99302,-0.0164169999999999,-0.063202,0.952842,-0.518357
1015,0.071062,0.997128,0.026016,-0.133425,0.973865,-0.662277
1016,0.024203,0.998226,0.054314,0.613614,0.614064,-0.437829
1017,-0.0151069999999999,0.997252,0.07246,0.920503,0.086962,-0.437618
1018,-0.045699,0.995748,0.079916,0.900069,-0.321477,-0.4793449999999999
1019,-0.062386,0.994476,0.084345,1.076653,-1.142914,-0.725291
1020,-0.056513,0.995234,0.079402,1.126246,-1.100383,-0.631618
1021,-0.035537,0.997205,0.06565,0.655654,-1.297986,-0.337088
1022,-0.0029519999999999,0.999522,0.030619,-0.071374,-0.670512,-0.4281109999999999
1023,0.0331259999999999,0.999256,-0.019507,-0.184676,-0.311314,-0.305902
1024,0.068399,0.993582,-0.090049,-0.0853049999999999,0.219446,-0.373498
1025,0.106996,0.98169,-0.157573,0.288497,1.265228,0.267864
1026,0.164339,0.960196,-0.225852,0.121885,1.9918,0.461296
1027,0.235953,0.929715,-0.282753,-0.7567659999999999,1.364367,0.146843
1028,0.308055,0.894749,-0.323297,-0.3292489999999999,1.443691,-0.0917419999999999
1029,0.360376,0.8611209999999999,-0.358601,0.446463,0.8615510000000001,0.264805
1030,0.415384,0.827642,-0.377438,0.453101,0.585993,0.186871
1031,0.460934,0.797137,-0.390009,0.461017,0.403379,0.251459
1032,0.48553,0.775414,-0.4037179999999999,0.0856059999999999,0.300453,0.327379
1033,0.4878909999999999,0.7652899999999999,-0.419867,-0.231101,-0.069154,0.490667
1034,0.477653,0.7689520000000001,-0.424918,-0.945625,-1.0202639999999998,0.866599
1035,0.461041,0.792941,-0.398347,-1.056775,-1.407794,1.082139
1036,0.439454,0.836886,-0.326337,-1.1589969999999998,-1.688952,0.938031
1037,0.4108779999999999,0.87676,-0.2499289999999999,-0.648534,-1.374166,-0.056086
1038,0.375784,0.9006290000000001,-0.218282,0.131494,-0.564996,-0.529017
1039,0.3503989999999999,0.909407,-0.224039,0.6325270000000001,0.024553,-0.376929
1040,0.379926,0.902432,-0.20314,-1.159848,0.912937,-0.35048
1041,0.407533,0.894214,-0.1851789999999999,-1.3643809999999998,1.505582,-0.91968
1042,0.3765739999999999,0.900849,-0.216,-0.852023,1.086776,0.527187
1043,0.3814619999999999,0.8959969999999999,-0.2273099999999999,-0.841255,-0.525055,1.119873
1044,0.384036,0.897531,-0.2166719999999999,-0.7879510000000001,-0.080026,0.477017
1045,0.341201,0.918053,-0.201873,-0.671142,0.188148,0.406936
1046,0.260101,0.947932,-0.183756,0.442917,1.79801,0.707758
1047,0.200755,0.96809,-0.149973,0.881872,0.55167,0.417047
1048,0.166429,0.979903,-0.109926,0.166518,0.625154,0.024477
1049,0.127152,0.990496,-0.052375,0.015472,0.898848,-0.397652
1050,0.0848299999999999,0.996385,-0.0037409999999999,0.066019,0.8821100000000001,-0.553663
1051,0.038519,0.998775,0.0309339999999999,0.556879,0.7468,-0.4660229999999999
1052,-0.006196,0.998336,0.0572509999999999,0.91385,0.3306429999999999,-0.4781189999999999
1053,-0.040791,0.996488,0.073067,0.772587,-0.602033,-0.530099
1054,-0.065929,0.993978,0.087477,0.879131,-1.073797,-0.6241439999999999
1055,-0.070828,0.992973,0.094762,1.085461,-0.980598,-0.799871
1056,-0.061426,0.993877,0.091792,0.8296450000000001,-1.25317,-0.398814
1057,-0.0398769999999999,0.996507,0.073307,0.067251,-0.8690959999999999,-0.549686
1058,-0.009146,0.999383,0.0337839999999999,-0.046289,-0.575448,-0.19304
1059,0.022399,0.999424,-0.025327,0.133424,-0.030476,-0.428455
1060,0.060403,0.994345,-0.087307,0.627631,1.341974,-0.11887
1061,0.117043,0.982117,-0.147444,0.001091,2.1383970000000003,0.778883
1062,0.187347,0.958859,-0.213269,-0.844116,1.041919,0.060559
1063,0.252255,0.93138,-0.262473,-0.180965,1.700013,-0.363717
1064,0.303525,0.902135,-0.3066239999999999,-0.15788,1.254817,0.336394
1065,0.360829,0.871592,-0.331848,0.324107,0.58463,0.176422
1066,0.422497,0.8372649999999999,-0.347098,0.338337,0.534485,0.260596
1067,0.464914,0.807368,-0.363328,0.253226,0.325933,0.367646
1068,0.483754,0.786561,-0.383794,-0.143513,0.003371,0.4843189999999999
1069,0.487754,0.778004,-0.3959809999999999,-0.79592,-0.374027,0.461227
1070,0.47355,0.787349,-0.3947489999999999,-1.0608,-1.121776,0.750218
1071,0.444067,0.820385,-0.3602329999999999,-0.991262,-1.506725,1.070392
1072,0.414455,0.863798,-0.286486,-1.044567,-2.052503,0.925234
1073,0.383302,0.8961950000000001,-0.2234,-0.543946,-1.547852,-0.099949
1074,0.3503719999999999,0.912329,-0.2118679999999999,0.047485,-0.840521,-1.066757
1075,0.343846,0.911299,-0.22649,0.944011,0.456804,-0.538449
1076,0.394219,0.8972479999999999,-0.198819,0.257132,1.704665,-1.163989
1077,0.4022159999999999,0.893618,-0.199151,-1.043253,2.645581,-0.795326
1078,0.393204,0.8866709999999999,-0.243306,-0.66098,-0.240782,1.906026
1079,0.402744,0.8840020000000001,-0.237341,-0.966754,-1.192199,0.8886930000000001
1080,0.39721,0.8932049999999999,-0.210718,-0.96174,-0.054903,0.482965
1081,0.341889,0.917916,-0.2013339999999999,-0.765839,0.930152,0.176523
1082,0.243827,0.949797,-0.196027,1.281991,1.380754,0.423688
1083,0.189195,0.966224,-0.174952,0.8589469999999999,0.174416,0.382777
1084,0.141509,0.981648,-0.127805,0.34047,0.395808,0.314145
1085,0.1047309999999999,0.992102,-0.068966,-0.139231,1.009362,-0.616321
1086,0.059028,0.997857,-0.02811,0.607629,0.541053,-0.530026
1087,0.018725,0.999809,0.004822,0.80676,0.419396,-0.576905
1088,-0.017401,0.999442,0.02839,0.732581,-0.256537,-0.437173
1089,-0.045134,0.998045,0.043154,0.3945599999999999,-1.157957,-0.546221
1090,-0.059624,0.99658,0.0571539999999999,0.861137,-1.113309,-0.682901
1091,-0.05165,0.996854,0.060055,0.890548,-1.129957,-0.483883
1092,-0.029869,0.998101,0.053801,0.508811,-1.288903,-0.447081
1093,0.006132,0.999662,0.025115,0.045153,-0.8206610000000001,-0.416778
1094,0.047963,0.998521,-0.025468,-0.127583,0.137496,-0.419753
1095,0.091047,0.992293,-0.084022,0.2307,1.148958,-0.214379
1096,0.140065,0.979665,-0.143644,0.2645679999999999,1.7889509999999995,0.189222
1097,0.204979,0.956139,-0.20923,-0.57212,1.372764,0.7174550000000001
1098,0.2767739999999999,0.925253,-0.259417,-0.693293,1.371515,-0.367277
1099,0.336453,0.8934489999999999,-0.297563,-0.0803649999999999,1.6670060000000002,0.25023
1100,0.389452,0.863157,-0.321376,0.529524,0.681017,0.133251
1101,0.4450189999999999,0.8297829999999999,-0.3367699999999999,0.258396,0.4536949999999999,0.1587299999999999
1102,0.480147,0.802403,-0.354405,0.2771619999999999,0.296962,0.32285
1103,0.495031,0.779889,-0.383032,-0.048483,0.233508,0.500372
1104,0.495239,0.764548,-0.412554,-0.579162,-0.2161469999999999,0.595171
1105,0.485676,0.76303,-0.426497,-1.075215,-0.968078,0.751967
1106,0.469451,0.781645,-0.4106609999999999,-1.018447,-1.43524,1.052446
1107,0.451945,0.8212520000000001,-0.348261,-1.160807,-1.876901,1.038157
1108,0.432598,0.8623219999999999,-0.263162,-0.962643,-1.7579060000000002,0.2343989999999999
1109,0.404445,0.8869520000000001,-0.223015,-0.0059159999999999,-0.80077,-0.616386
1110,0.383602,0.895381,-0.226136,1.258015,0.656774,-0.635833
1111,0.405472,0.888959,-0.21293,1.086334,1.079074,-1.037818
1112,0.437614,0.87629,-0.201506,-0.140221,0.901726,-1.002947
1113,0.399097,0.885972,-0.236154,-1.019992,2.336684,-0.636282
1114,0.393311,0.8754219999999999,-0.280958,-0.219071,0.56603,3.0244880000000003
1115,0.410354,0.871075,-0.269874,-0.994552,-1.215832,0.5336380000000001
1116,0.398265,0.885387,-0.239727,-0.8337049999999999,-0.107525,0.630871
1117,0.332727,0.916651,-0.2214469999999999,-0.4283079999999999,1.568731,0.254269
1118,0.256581,0.946333,-0.196508,1.114711,2.040728,0.3491869999999999
1119,0.211497,0.963042,-0.166773,0.8808950000000001,0.567964,0.155497
1120,0.164538,0.978768,-0.122209,0.082166,0.619545,0.104218
1121,0.1215849999999999,0.989601,-0.076815,-0.211429,0.888542,-0.696439
1122,0.071756,0.996407,-0.044926,0.1636109999999999,0.629097,-0.420483
1123,0.0280139999999999,0.999515,-0.013324,0.598878,0.444912,-0.409833
1124,-0.012855,0.999865,0.009899,0.785454,-0.098833,-0.339901
1125,-0.04615,0.998549,0.027614,0.6516029999999999,-0.929885,-0.384883
1126,-0.064006,0.996994,0.043566,0.938548,-1.144898,-0.460863
1127,-0.062416,0.99671,0.051625,1.068245,-1.32691,-0.656758
1128,-0.048917,0.99752,0.0505209999999999,0.842374,-1.400764,-0.433654
1129,-0.019207,0.999498,0.025056,-0.1189,-0.6033029999999999,-0.553133
1130,0.0173919999999999,0.999557,-0.024028,-0.29025,-0.232894,-0.202748
1131,0.053326,0.994291,-0.092389,0.04668,0.50844,-0.203373
1132,0.0955029999999999,0.983479,-0.1537589999999999,0.556139,2.301997,0.357189
1133,0.164227,0.962767,-0.21472,0.401539,2.461763,0.587553
1134,0.240708,0.931459,-0.272835,-0.63942,1.301787,0.008034
1135,0.300406,0.898857,-0.3190739999999999,-0.267829,1.520256,-0.076404
1136,0.343888,0.8695780000000001,-0.35436,0.496612,0.730291,0.214482
1137,0.401943,0.8339200000000001,-0.3781719999999999,0.137593,0.650943,0.307036
1138,0.44897,0.801441,-0.3951119999999999,0.246357,0.480618,0.355454
1139,0.476567,0.776849,-0.411564,-0.0836529999999999,0.294806,0.436467
1140,0.490222,0.759783,-0.427093,-0.499133,-0.101626,0.529159
1141,0.4917829999999999,0.754339,-0.434877,-0.8349690000000001,-0.318273,0.498354
1142,0.480063,0.7698149999999999,-0.42062,-1.099524,-1.225625,0.804195
1143,0.4576939999999999,0.810159,-0.36627,-1.138953,-1.510584,0.850599
1144,0.4251109999999999,0.8580059999999999,-0.288273,-0.972504,-1.832448,0.4767649999999999
1145,0.382256,0.8909239999999999,-0.245213,-0.170998,-1.116983,-0.284267
1146,0.341896,0.904431,-0.25516,0.312249,-0.141491,-0.840208
1147,0.341161,0.899553,-0.272779,0.950282,0.578246,-0.369173
1148,0.397736,0.885986,-0.238387,-0.585846,0.215836,0.432983
1149,0.407227,0.8887149999999999,-0.210586,-1.539521,1.862582,-2.981812
1150,0.360075,0.892381,-0.272023,0.237337,0.8957200000000001,2.842687
1151,0.365806,0.885754,-0.285694,-0.292106,-0.5583,1.224613
1152,0.370105,0.8895719999999999,-0.267728,-0.489749,-0.816315,0.383161
1153,0.341152,0.908877,-0.239901,-0.4592699999999999,-0.262728,0.377719
1154,0.2786349999999999,0.936248,-0.214,0.306006,2.049057,0.321269
1155,0.2289909999999999,0.954347,-0.191776,0.6013930000000001,0.821882,0.253178
1156,0.184555,0.970147,-0.157315,0.4880069999999999,0.696052,0.360135
1157,0.14229,0.984678,-0.10078,-0.125032,0.816317,-0.263814
1158,0.096329,0.993848,-0.054587,0.251785,0.953235,-0.575738
1159,0.051035,0.998482,-0.020543,0.540747,0.73307,-0.583216
1160,0.012556,0.999852,0.0113829999999999,0.6511859999999999,0.30659,-0.495788
1161,-0.017795,0.999354,0.0310899999999999,0.429935,-0.338923,-0.460442
1162,-0.039068,0.998098,0.047598,0.5902310000000001,-1.147756,-0.569342
1163,-0.04402,0.997619,0.053011,1.047911,-1.110335,-0.74988
1164,-0.03581,0.998296,0.045966,0.90988,-1.301962,-0.299735
1165,-0.0148659999999999,0.999617,0.023153,0.269367,-1.021803,-0.385976
1166,0.019061,0.999642,-0.018591,-0.2112909999999999,-0.4503399999999999,-0.381113
1167,0.050788,0.995482,-0.080185,-0.1597049999999999,-0.07353,-0.214523
1168,0.085065,0.985642,-0.145829,0.186923,0.898971,-0.037383
1169,0.1345329999999999,0.968242,-0.210719,0.360142,2.336141,0.4692489999999999
1170,0.202908,0.940845,-0.271355,-0.801862,0.976163,0.3809889999999999
1171,0.265127,0.909585,-0.319934,-0.456304,1.372291,-0.381787
1172,0.312791,0.8781620000000001,-0.3619239999999999,-0.0952,1.252576,0.395737
1173,0.36907,0.8457459999999999,-0.385352,0.141153,0.652606,0.140997
1174,0.4233149999999999,0.813913,-0.397926,0.252009,0.435446,0.186134
1175,0.459993,0.7891729999999999,-0.406948,0.258757,0.3337969999999999,0.3039659999999999
1176,0.475967,0.77576,-0.414304,0.0590059999999999,0.129666,0.384504
1177,0.47906,0.7738,-0.414404,-0.428126,-0.3292199999999999,0.492971
1178,0.471793,0.787554,-0.396441,-0.968772,-0.963961,0.80974
1179,0.452804,0.823799,-0.341054,-1.051223,-1.444008,0.980611
1180,0.420118,0.8673059999999999,-0.266976,-1.082868,-1.872677,0.745446
1181,0.379796,0.896789,-0.226979,-0.476307,-1.519439,-0.1403609999999999
1182,0.339626,0.912229,-0.229102,0.339436,-0.578382,-0.6329130000000001
1183,0.341731,0.912855,-0.223405,1.182821,0.434237,-0.429411
1184,0.390828,0.9005299999999999,-0.1905069999999999,0.187968,0.508451,-0.4985189999999999
1185,0.3931159999999999,0.902085,-0.178034,-1.653766,1.528243,-1.598685
1186,0.344251,0.910978,-0.227167,-0.250455,0.516085,2.303293
1187,0.346131,0.906154,-0.243048,-0.323502,-0.4307359999999999,1.14942
1188,0.345433,0.907073,-0.240601,-0.339284,-0.354583,0.4702149999999999
1189,0.310767,0.92562,-0.215976,-0.434241,-0.128578,0.342761
1190,0.24949,0.94918,-0.191853,0.189384,1.840631,0.6394850000000001
1191,0.200968,0.965872,-0.163394,0.46723,0.523187,0.233172
1192,0.162128,0.979394,-0.120401,0.224682,0.499641,0.109094
1193,0.123847,0.99042,-0.061024,-0.214164,0.964246,-0.338725
1194,0.079527,0.996746,-0.012853,0.032824,0.8847229999999999,-0.324137
1195,0.035171,0.999118,0.022795,0.369934,0.722394,-0.334685
1196,-0.007034,0.998726,0.0499089999999999,0.995682,0.444435,-0.505155
1197,-0.042012,0.996742,0.068803,0.80486,-0.514213,-0.439012
1198,-0.068222,0.994592,0.078265,0.668579,-0.97709,-0.424411
1199,-0.074645,0.993449,0.08648,0.981261,-0.980541,-0.725305
1200,-0.061227,0.994261,0.087688,0.960152,-1.1030870000000002,-0.594784
1201,-0.032673,0.996466,0.0773399999999999,0.7269939999999999,-1.129629,-0.415429
1202,0.009586,0.999085,0.041609,-0.269748,-0.577576,-0.421202
1203,0.048893,0.998713,-0.013237,-0.222492,-0.226801,-0.142525
1204,0.08959,0.99294,-0.077696,-0.0646419999999999,0.125575,-0.478792
1205,0.142629,0.980788,-0.133063,0.5274300000000001,2.495942,0.288779
1206,0.2085469999999999,0.957792,-0.19783,-0.3977719999999999,1.18973,0.505706
1207,0.267373,0.928887,-0.256275,-0.533867,1.447685,-0.331829
1208,0.318633,0.898136,-0.303017,-0.321258,1.32719,0.269265
1209,0.3649989999999999,0.867292,-0.338488,0.135657,0.700838,0.225284
1210,0.414404,0.8361879999999999,-0.359242,0.197413,0.424829,0.101719
1211,0.450136,0.80767,-0.380843,0.060514,0.434883,0.374419
1212,0.470879,0.785688,-0.401201,-0.0825429999999999,0.287417,0.359865
1213,0.478572,0.771389,-0.4194319999999999,-0.4330239999999999,-0.058132,0.522597
1214,0.476346,0.768917,-0.426447,-0.858655,-0.675808,0.586023
1215,0.463479,0.78704,-0.407125,-0.955163,-1.117576,0.829732
1216,0.446242,0.826105,-0.344112,-0.959045,-1.497064,0.975979
1217,0.4211899999999999,0.866353,-0.268374,-0.747805,-1.7099959999999998,0.419833
1218,0.3881969999999999,0.89095,-0.2355969999999999,-0.045942,-0.988224,-0.4730979999999999
1219,0.367676,0.897158,-0.244776,0.350738,-0.782489,-0.8144279999999999
1220,0.394658,0.890595,-0.226007,0.87759,0.495208,-0.124747
1221,0.421387,0.8836440000000001,-0.203961,-1.374176,1.421044,-1.447192
1222,0.394098,0.8859879999999999,-0.2443469999999999,-1.3468870000000002,1.418699,-1.406806
1223,0.394287,0.881167,-0.260916,-0.6632680000000001,-0.062746,1.7958889999999998
1224,0.395866,0.885344,-0.2438219999999999,-0.8660959999999999,-0.682204,0.762865
1225,0.366088,0.902347,-0.227473,-0.863936,0.4618649999999999,0.230952
1226,0.291978,0.930931,-0.2193409999999999,-0.050493,1.302605,0.29002
1227,0.239747,0.951732,-0.191626,1.006851,1.018894,0.468008
1228,0.201322,0.966383,-0.159899,0.537127,0.703341,0.393846
1229,0.163045,0.981234,-0.102905,0.033596,0.6992619999999999,0.265838
1230,0.120303,0.991694,-0.0454209999999999,-0.038562,0.988989,-0.558995
1231,0.07201,0.997381,-0.00618,0.323025,0.894999,-0.614304
1232,0.029587,0.999187,0.027217,0.7057180000000001,0.5122869999999999,-0.649257
1233,-0.009993,0.998789,0.048089,0.6980569999999999,-0.13183,-0.440468
1234,-0.03885,0.997368,0.061146,0.739823,-0.935005,-0.551319
1235,-0.052361,0.996206,0.06944,1.085793,-1.025885,-0.7815979999999999
1236,-0.047417,0.996676,0.0661669999999999,1.0438459999999998,-1.250049,-0.5489850000000001
1237,-0.028422,0.998475,0.047219,0.7467600000000001,-1.320802,-0.264718
1238,0.003121,0.999936,0.010487,-0.175164,-0.58926,-0.172764
1239,0.037756,0.998405,-0.041876,-0.149893,-0.147178,-0.272958
1240,0.078601,0.991584,-0.102828,-0.001605,0.245995,-0.59488
1241,0.131089,0.978777,-0.157487,0.218398,2.155485,0.325563
1242,0.195353,0.955945,-0.219086,-0.655452,0.925769,0.336991
1243,0.25374,0.928296,-0.2717989999999999,-0.341158,1.502353,-0.29273
1244,0.305615,0.900019,-0.310739,0.163394,1.284216,0.334207
1245,0.353702,0.870323,-0.342674,0.263882,0.633491,0.204506
1246,0.4052469999999999,0.8367479999999999,-0.368268,0.2594869999999999,0.510023,0.164777
1247,0.44563,0.806661,-0.388208,0.213855,0.413966,0.278879
1248,0.4682979999999999,0.783818,-0.407823,-0.168341,0.236186,0.442338
1249,0.47568,0.7709,-0.423598,-0.327517,0.114338,0.514113
1250,0.4682479999999999,0.772963,-0.428096,-0.925111,-0.862425,0.626384
1251,0.449712,0.7971590000000001,-0.402852,-0.7906850000000001,-1.340174,0.8843129999999999
1252,0.424985,0.839516,-0.338517,-0.8894770000000001,-1.753075,0.989869
1253,0.395838,0.87736,-0.27119,-0.706583,-1.751552,0.270457
1254,0.360604,0.899056,-0.248304,-0.235848,-0.891625,-0.470843
1255,0.337475,0.905057,-0.258797,0.49332,-0.126721,-0.407326
1256,0.3659159999999999,0.8985620000000001,-0.242248,0.560872,0.412137,-0.359558
1257,0.390056,0.896668,-0.209366,-1.041088,-0.042176,-0.362641
1258,0.358275,0.909572,-0.210497,-1.184279,2.199345,-2.018125
1259,0.345509,0.903271,-0.254398,0.4908399999999999,1.512211,2.410831
1260,0.346989,0.8959799999999999,-0.27715,-0.225727,-0.746413,0.8950239999999999
1261,0.348726,0.901372,-0.256732,-0.558,-1.225682,0.37073
1262,0.314642,0.9199,-0.234046,-0.542745,0.2498699999999999,0.6585449999999999
1263,0.252172,0.947168,-0.198177,-0.012228,2.333945,0.8320120000000001
1264,0.215117,0.963465,-0.159538,0.592622,1.855581,0.459618
1265,0.175317,0.978102,-0.1121289999999999,0.052283,0.749849,0.124428
1266,0.136579,0.988774,-0.060521,-0.2171139999999999,0.888026,-0.254314
1267,0.0908799999999999,0.995594,-0.022868,-0.0231919999999999,0.848857,-0.53771
1268,0.04891,0.998764,0.008256,0.5280699999999999,0.656586,-0.410386
1269,0.009597,0.99945,0.031592,0.909867,0.019502,-0.55271
1270,-0.020904,0.99868,0.046805,0.940368,0.020271,-0.567923
1271,-0.039691,0.997502,0.058341,1.057269,-1.163014,-0.6538609999999999
1272,-0.040282,0.997394,0.0597679999999999,1.079512,-1.276889,-0.659408
1273,-0.02926,0.998312,0.05006,1.06849,-1.277807,-0.649699
1274,0.001754,0.999833,0.0179229999999999,-0.0565639999999999,-0.745728,-0.395791
1275,0.036348,0.998848,-0.03118,-0.3153849999999999,-0.465339,-0.090753
1276,0.069396,0.992846,-0.0971149999999999,-0.243834,-0.226855,-0.067039
1277,0.111777,0.981107,-0.157881,0.198892,0.690753,-0.126421
1278,0.171869,0.961528,-0.214285,0.58573,2.465673,0.445608
1279,0.241535,0.933472,-0.265112,-0.238223,1.041366,0.5432640000000001
1280,0.311154,0.903062,-0.296067,-0.599546,1.339538,-0.147949
1281,0.369508,0.872424,-0.319896,-0.075899,1.142469,0.0305279999999999
1282,0.4260899999999999,0.8382040000000001,-0.340375,0.3567929999999999,0.624183,0.309873
1283,0.474196,0.807229,-0.351445,0.400163,0.537864,0.097676
1284,0.4976819999999999,0.785017,-0.368857,-0.0283529999999999,0.377902,0.300361
1285,0.499456,0.7719090000000001,-0.393314,-0.4868979999999999,-0.069592,0.5441159999999999
1286,0.4867149999999999,0.771138,-0.410425,-0.970846,-0.664846,0.666895
1287,0.462801,0.7898189999999999,-0.402487,-1.037844,-1.254464,0.913336
1288,0.4335199999999999,0.8283520000000001,-0.354806,-1.051959,-1.388212,0.91839
1289,0.39759,0.869175,-0.294026,-0.8706280000000001,-1.636951,0.52068
1290,0.358065,0.898191,-0.2550219999999999,-0.1932859999999999,-1.0035379999999998,-0.1559579999999999
1291,0.326613,0.912894,-0.244831,0.547791,-0.293036,-0.454891
1292,0.338669,0.915222,-0.218323,0.474121,0.941162,-1.009933
1293,0.375618,0.909348,-0.178857,-0.542503,1.416,-1.3737549999999998
1294,0.356097,0.9112,-0.2071309999999999,-0.7590819999999999,1.488794,-0.047645
1295,0.350037,0.905554,-0.239664,-0.704331,-0.457663,1.580301
1296,0.360266,0.902331,-0.236644,-0.907156,-0.942462,0.879618
1297,0.351528,0.909172,-0.2232199999999999,-0.843334,-0.078026,0.548614
1298,0.291588,0.931984,-0.21535,-0.380715,1.320793,0.4130729999999999
1299,0.2174869999999999,0.956751,-0.193184,0.842007,1.4626370000000002,0.5330590000000001
1300,0.178994,0.970996,-0.158491,1.040687,0.587964,0.334318
1301,0.142949,0.983434,-0.111422,0.093577,0.674067,0.225329
1302,0.107241,0.992513,-0.0583889999999999,-0.241488,0.965083,-0.387259
1303,0.0597799999999999,0.998017,-0.0194669999999999,-0.140285,1.0128780000000002,-0.722812
1304,0.0209689999999999,0.999758,0.005876,0.8241850000000001,0.729215,-0.437562
1305,-0.014625,0.999594,0.024276,1.068459,0.343012,-0.427352
1306,-0.0458779999999999,0.998261,0.036891,0.82194,-0.514161,-0.372981
1307,-0.06656,0.996419,0.05205,0.873094,-1.055257,-0.557559
1308,-0.066686,0.995961,0.060048,1.006262,-0.90041,-0.711324
1309,-0.053432,0.996718,0.060745,1.01791,-1.055906,-0.719192
1310,-0.027065,0.998661,0.0439899999999999,0.350323,-1.060871,-0.4781939999999999
1311,0.01184,0.999924,-0.001546,-0.234039,-0.193909,-0.148478
1312,0.051215,0.996423,-0.067165,-0.108054,0.234153,-0.46085
1313,0.096388,0.987313,-0.126153,0.060488,0.8248209999999999,-0.359306
1314,0.161177,0.968065,-0.192003,-0.009916,2.42259,0.826723
1315,0.2316909999999999,0.938583,-0.255683,-0.558153,1.37822,0.7946989999999999
1316,0.2898469999999999,0.907662,-0.303533,-0.230475,1.168235,-0.177439
1317,0.340471,0.8764540000000001,-0.340444,0.129728,0.939723,0.44933
1318,0.39809,0.8424450000000001,-0.3630489999999999,0.084972,0.558876,0.301923
1319,0.4426199999999999,0.810811,-0.382971,0.255347,0.320781,0.392538
1320,0.471862,0.784888,-0.4016119999999999,0.005601,0.182092,0.450669
1321,0.4834449999999999,0.768467,-0.419207,-0.152497,0.069516,0.4935779999999999
1322,0.483155,0.766255,-0.423567,-0.8346870000000001,-0.477696,0.630934
1323,0.4688609999999999,0.787862,-0.3992969999999999,-1.136815,-1.158986,1.080235
1324,0.44438,0.8293719999999999,-0.338618,-1.177275,-1.615566,1.015773
1325,0.40993,0.866677,-0.2842929999999999,-0.896517,-1.716271,0.356162
1326,0.3668679999999999,0.8903979999999999,-0.269429,0.374755,-0.764162,-0.326732
1327,0.348577,0.8999780000000001,-0.261777,0.845118,0.25908,-0.114123
1328,0.378571,0.8959940000000001,-0.232103,0.5728300000000001,0.327258,-0.70732
1329,0.375139,0.903336,-0.207958,-1.171923,-0.142793,-1.041767
1330,0.338138,0.912019,-0.232113,-1.258975,0.5835100000000001,-0.671009
1331,0.312998,0.913481,-0.259957,-0.105555,0.981432,1.338463
1332,0.308847,0.912724,-0.267472,0.078192,-0.177983,0.62256
1333,0.296532,0.921886,-0.249377,-0.120644,-0.314388,0.458269
1334,0.250593,0.941294,-0.2261889999999999,-0.205396,0.6950890000000001,0.8729020000000001
1335,0.2000549999999999,0.960172,-0.195036,0.116123,1.449633,0.776579
1336,0.166338,0.974691,-0.149336,0.311232,0.737574,0.165129
1337,0.12476,0.987334,-0.097965,-0.038075,1.11609,-0.331738
1338,0.080917,0.995434,-0.050537,0.005768,1.10799,-0.379166
1339,0.035907,0.999179,-0.018498,0.276394,0.8895540000000001,-0.5000720000000001
1340,-0.004271,0.999959,0.007308,0.8713209999999999,0.714411,-0.3815909999999999
1341,-0.040351,0.998929,0.022409,0.781745,-0.207914,-0.406076
1342,-0.0664169999999999,0.997155,0.035497,0.6729390000000001,-0.963403,-0.4816939999999999
1343,-0.074671,0.996094,0.047018,1.021815,-0.884964,-0.6434529999999999
1344,-0.0680419999999999,0.996561,0.047191,1.017276,-1.154565,-0.612941
1345,-0.049554,0.998178,0.034293,0.430291,-1.210305,-0.314566
1346,-0.01924,0.999807,-0.002619,-0.141481,-0.609838,-0.21134
1347,0.015373,0.998105,-0.0595129999999999,-0.142326,-0.380475,-0.144146
1348,0.056823,0.99144,-0.117514,0.228669,0.576446,-0.501428
1349,0.113809,0.97659,-0.182515,-0.287957,1.7465240000000002,0.792363
1350,0.185263,0.95095,-0.2477219999999999,-0.84609,0.915658,0.153667
1351,0.250841,0.921449,-0.296655,-0.3282489999999999,1.499617,-0.256919
1352,0.3003099999999999,0.8906440000000001,-0.341412,-0.1708849999999999,1.201412,0.436321
1353,0.358908,0.860094,-0.362516,0.454538,0.649092,0.212186
1354,0.417455,0.8253739999999999,-0.380109,0.371257,0.62447,0.147825
1355,0.4528779999999999,0.7957569999999999,-0.402079,0.218646,0.423192,0.372523
1356,0.464226,0.775714,-0.427502,-0.217858,0.1868109999999999,0.605023
1357,0.465201,0.768117,-0.439977,-0.693717,-0.2989699999999999,0.474706
1358,0.454895,0.778324,-0.432755,-0.932251,-1.076603,0.785081
1359,0.430814,0.813209,-0.39126,-0.8789950000000001,-1.495933,1.126154
1360,0.40465,0.857034,-0.318974,-0.964571,-1.717523,1.080387
1361,0.377744,0.8870450000000001,-0.265432,-0.700681,-1.367361,0.102697
1362,0.343227,0.903642,-0.256163,-0.1053119999999999,-0.659822,-0.752946
1363,0.339675,0.904746,-0.257,0.8474280000000001,0.286615,-0.282536
1364,0.385204,0.893869,-0.229366,0.1866799999999999,0.748618,-0.916935
1365,0.370248,0.901205,-0.225253,-0.957162,1.570567,-0.8902260000000001
1366,0.342323,0.900373,-0.268583,-0.032234,1.223758,1.57324
1367,0.354054,0.893818,-0.275187,-0.074879,0.542644,2.085291
1368,0.354203,0.8965059999999999,-0.266103,-0.527726,-0.237646,0.4414109999999999
1369,0.311502,0.919118,-0.2412099999999999,-0.469889,0.254299,0.399138
1370,0.238426,0.946787,-0.2161969999999999,-0.253349,0.896292,0.4632979999999999
1371,0.195313,0.962973,-0.18582,0.425308,0.587641,0.119993
1372,0.156407,0.976794,-0.146297,-0.009358,0.720105,0.302333
1373,0.118622,0.988622,-0.092446,-0.254257,1.016184,-0.396094
1374,0.073198,0.995948,-0.052159,0.128401,0.766274,-0.5855060000000001
1375,0.030317,0.999247,-0.024025,0.550524,0.5193989999999999,-0.367531
1376,-0.004752,0.999964,-0.006382,0.8413459999999999,0.207129,-0.4514729999999999
1377,-0.032026,0.999474,0.00418,0.758238,-0.7217180000000001,-0.433791
1378,-0.050282,0.998599,0.016171,0.79459,-1.111377,-0.462063
1379,-0.050404,0.998444,0.023656,1.126377,-1.125916,-0.679357
1380,-0.039474,0.998978,0.021784,0.89299,-1.276612,-0.316614
1381,-0.0133479999999999,0.999904,0.00193,0.4724239999999999,-1.113765,-0.342613
1382,0.0218979999999999,0.999056,-0.037396,-0.064318,-0.42821,-0.197986
1383,0.05488,0.993649,-0.09819,0.0868429999999999,0.124851,-0.310776
1384,0.08985,0.983684,-0.155835,0.298166,0.8085060000000001,-0.290408
1385,0.139653,0.967109,-0.21258,0.269069,1.827157,0.6712739999999999
1386,0.204455,0.938647,-0.277728,-0.904391,0.759626,0.300815
1387,0.27254,0.907117,-0.32071,-0.668795,1.479953,-0.1870109999999999
1388,0.327488,0.875401,-0.355555,0.227093,0.88792,0.285837
1389,0.37676,0.841593,-0.386999,0.32577,0.551412,0.244802
1390,0.428638,0.8119930000000001,-0.396146,0.173535,0.481907,0.131879
1391,0.463714,0.7886850000000001,-0.403657,0.1065369999999999,0.4546159999999999,0.257921
1392,0.475783,0.772506,-0.420547,-0.2283,0.1741339999999999,0.656921
1393,0.473682,0.768382,-0.43036,-0.8566469999999999,-0.539027,0.559068
1394,0.461056,0.783573,-0.4164569999999999,-1.086986,-1.088718,0.794127
1395,0.4351,0.822001,-0.367419,-0.936016,-1.428339,1.027895
1396,0.399257,0.865186,-0.303381,-0.901119,-1.735151,0.97019
1397,0.358068,0.8937450000000001,-0.270184,-0.034673,-1.042961,-0.186496
1398,0.325606,0.906191,-0.269796,0.815034,-0.323977,-0.282358
1399,0.351339,0.904438,-0.2419619999999999,1.1884709999999998,0.32568,0.179614
1400,0.391582,0.898711,-0.197418,-0.726543,0.114198,-0.513626
1401,0.365793,0.90619,-0.21215,-1.556665,0.754332,-1.603295
1402,0.318326,0.908092,-0.272084,-0.792981,1.1796,1.722509
1403,0.333232,0.906574,-0.258984,-0.547022,-0.076084,1.025448
1404,0.331816,0.911986,-0.241188,-0.523817,-0.396804,0.48452
1405,0.284152,0.930346,-0.231748,-0.199771,0.1920599999999999,0.351499
1406,0.210465,0.953806,-0.214361,0.640213,1.977285,0.754049
1407,0.176984,0.967388,-0.181189,0.781512,0.656666,0.4662229999999999
1408,0.140567,0.98041,-0.137946,0.517239,0.400327,0.050025
1409,0.100384,0.991643,-0.08098,-0.0674559999999999,0.824839,-0.088515
1410,0.0607539999999999,0.997485,-0.036377,-0.227807,0.980832,-0.627426
1411,0.021689,0.999745,-0.005428,0.264337,0.667003,-0.4822729999999999
1412,-0.01712,0.999729,0.015483,0.759201,0.6116,-0.432307
1413,-0.047984,0.998399,0.029785,0.800258,-0.684938,-0.397522
1414,-0.07097,0.996407,0.046109,1.0381479999999998,-1.217232,-0.561368
1415,-0.07702,0.995334,0.058032,1.113397,-1.114108,-0.620517
1416,-0.072409,0.995816,0.055657,0.7989569999999999,-1.282071,-0.3225949999999999
1417,-0.04892,0.99813,0.036519,-0.071686,-0.666175,-0.494695
1418,-0.0135919999999999,0.99989,-0.005141,-0.26514,-0.4221609999999999,-0.24878
1419,0.019975,0.997481,-0.067997,-0.1330579999999999,0.012025,-0.318676
1420,0.060121,0.989524,-0.131224,0.25389,1.020044,-0.013872
1421,0.118174,0.974805,-0.18916,0.234655,2.091555,0.447797
1422,0.187727,0.949403,-0.251762,-0.2599309999999999,1.490263,0.6360859999999999
1423,0.252635,0.919562,-0.300956,-0.640712,1.363443,-0.06202
1424,0.3083849999999999,0.890433,-0.3346969999999999,0.0075489999999999,0.965845,0.286723
1425,0.362295,0.8613209999999999,-0.356177,0.5000399999999999,0.658455,0.169532
1426,0.415413,0.830732,-0.370552,0.334876,0.59746,0.165855
1427,0.449455,0.805367,-0.386481,0.157295,0.421821,0.2705599999999999
1428,0.462464,0.7882640000000001,-0.405908,-0.160385,0.135579,0.5043569999999999
1429,0.46242,0.7817649999999999,-0.418337,-0.336916,-0.139232,0.4875359999999999
1430,0.449472,0.7913020000000001,-0.4144989999999999,-0.8769309999999999,-1.064831,0.735636
1431,0.426014,0.8242709999999999,-0.372938,-0.804264,-1.36431,0.7627689999999999
1432,0.390245,0.867885,-0.307372,-0.787904,-1.508464,0.679244
1433,0.347244,0.8997440000000001,-0.264338,-0.318939,-1.228418,0.120295
1434,0.31151,0.913785,-0.260673,0.325865,-0.402372,-0.492302
1435,0.325474,0.909207,-0.259619,0.826946,0.174488,-0.2008
1436,0.389642,0.8953760000000001,-0.215576,-0.382058,1.035883,-1.559479
1437,0.381332,0.894335,-0.2339719999999999,-1.366744,1.09419,-0.503974
1438,0.353528,0.8956790000000001,-0.269757,-0.8664059999999999,-0.03725,1.766461
1439,0.353214,0.900985,-0.2519099999999999,-0.955097,-0.705825,1.062502
1440,0.339967,0.912765,-0.2264389999999999,-0.979189,-0.063461,0.403136
1441,0.2749769999999999,0.935452,-0.222056,-0.843474,0.5959810000000001,0.150569
1442,0.192885,0.959722,-0.204258,0.920198,1.635646,0.58617
1443,0.153117,0.972294,-0.176609,0.959157,0.541393,0.422672
1444,0.11637,0.984928,-0.12793,0.410729,0.563153,0.305771
1445,0.08242,0.994213,-0.068829,-0.032936,0.903171,-0.354755
1446,0.0382029999999999,0.998943,-0.025352,0.239416,0.808384,-0.704583
1447,-0.005277,0.999957,0.0069739999999999,0.634091,0.567274,-0.4826819999999999
1448,-0.042789,0.998608,0.030661,0.775379,0.164508,-0.462546
1449,-0.074323,0.996098,0.04747,0.554182,-0.610539,-0.48941
1450,-0.091294,0.993882,0.062071,0.904893,-0.966675,-0.643339
1451,-0.0884679999999999,0.993845,0.066585,1.109281,-0.8865149999999999,-0.8091229999999999
1452,-0.073237,0.995559,0.05905,0.783381,-1.288238,-0.331786
1453,-0.041578,0.998659,0.030679,0.580457,-1.395326,-0.324945
1454,-0.003293,0.999832,-0.017755,-0.2590969999999999,-0.56839,-0.283499
1455,0.0347009999999999,0.995563,-0.087406,-0.141223,-0.077884,-0.2291989999999999
1456,0.081522,0.985573,-0.14829,0.307424,1.20861,0.010946
1457,0.145642,0.966324,-0.212127,0.372562,2.610901,0.5485979999999999
1458,0.2132909999999999,0.938016,-0.273176,-0.856068,0.847995,0.368971
1459,0.275712,0.908339,-0.314476,-0.5677800000000001,1.486207,-0.424965
1460,0.320856,0.87875,-0.35333,0.065329,0.996631,0.447706
1461,0.380084,0.8446870000000001,-0.376874,0.216688,0.707621,0.158918
1462,0.4329199999999999,0.81212,-0.391196,0.485934,0.507414,0.149848
1463,0.462377,0.786525,-0.409364,-0.114919,0.34055,0.451982
1464,0.4717449999999999,0.772718,-0.424685,-0.406331,-0.112775,0.524416
1465,0.466735,0.771785,-0.431856,-0.918106,-0.770595,0.617083
1466,0.448194,0.791808,-0.414918,-0.965421,-1.345,0.8180850000000001
1467,0.42296,0.8340690000000001,-0.354157,-0.960558,-1.742073,0.791779
1468,0.389477,0.877008,-0.2813489999999999,-0.6283380000000001,-1.6549009999999995,0.411827
1469,0.347732,0.90582,-0.242001,-0.116394,-0.94238,-0.33382
1470,0.3141989999999999,0.916442,-0.247801,0.409998,-0.264067,-0.352983
1471,0.32566,0.9132,-0.244954,0.690499,0.336647,-0.1533769999999999
1472,0.363294,0.906545,-0.21491,-0.7646609999999999,0.380229,-0.389307
1473,0.346385,0.913802,-0.212073,-1.008204,1.945405,-1.7388400000000002
1474,0.326495,0.909185,-0.258411,-0.249575,1.463999,1.353977
1475,0.335366,0.9062,-0.257535,-0.5206390000000001,-0.7369180000000001,1.123502
1476,0.329239,0.91252,-0.242696,-0.542359,-0.774412,0.874822
1477,0.278751,0.935095,-0.21883,-0.673374,0.150171,0.467686
1478,0.200524,0.961553,-0.187608,0.285407,1.883829,0.521775
1479,0.149884,0.976985,-0.151742,0.800616,0.694875,0.255913
1480,0.1051,0.989111,-0.102975,0.6043729999999999,0.52128,0.290826
1481,0.068218,0.996875,-0.0397029999999999,-0.208904,1.0519379999999998,-0.644547
1482,0.024872,0.999683,-0.002001,0.018005,0.8085289999999999,-0.556791
1483,-0.015097,0.99948,0.028275,0.220846,0.689759,-0.325318
1484,-0.0559039999999999,0.997228,0.048984,0.947109,0.351573,-0.5137520000000001
1485,-0.0902159999999999,0.994224,0.058037,0.8934540000000001,-0.931571,-0.4750439999999999
1486,-0.110464,0.991544,0.068021,0.913701,-0.928891,-0.485029
1487,-0.111113,0.991218,0.071622,1.323638,-1.089896,-0.832838
1488,-0.100895,0.992772,0.0649059999999999,0.7927890000000001,-1.377263,-0.220729
1489,-0.072479,0.996702,0.036337,0.764374,-1.381193,-0.19216
1490,-0.029604,0.999453,-0.01433,0.056795,-0.166202,-0.182692
1491,0.0181659999999999,0.997656,-0.065897,0.3316719999999999,1.444483,-0.013845
1492,0.080604,0.988997,-0.124008,-0.131874,1.731523,0.4683529999999999
1493,0.14942,0.969986,-0.191814,-0.793387,1.204788,0.384639
1494,0.209828,0.945908,-0.2474309999999999,-0.428105,1.673812,-0.375479
1495,0.261301,0.916873,-0.3017579999999999,-0.416392,1.658154,0.395554
1496,0.323711,0.8858590000000001,-0.332353,0.132801,0.802481,0.15796
1497,0.388005,0.850535,-0.355014,0.016353,0.7202350000000001,0.2203699999999999
1498,0.4349949999999999,0.818141,-0.376057,0.296512,0.484609,0.26392
1499,0.4651689999999999,0.791596,-0.396216,0.0335339999999999,0.308776,0.251578
1500,0.4763,0.776501,-0.412526,-0.396069,-0.042722,0.457906
1501,0.470943,0.7762600000000001,-0.419079,-0.7734479999999999,-0.78215,0.606533
1502,0.448314,0.800003,-0.398753,-0.8441270000000001,-1.302352,1.183604
1503,0.423163,0.842405,-0.3335869999999999,-1.06214,-1.893689,1.366989
1504,0.398663,0.877725,-0.265817,-1.099331,-2.086527,0.531396
1505,0.359779,0.901738,-0.239625,-0.55178,-1.062062,-0.482421
1506,0.324486,0.912528,-0.2489849999999999,0.996529,0.231957,-0.277092
1507,0.348993,0.908815,-0.2285849999999999,0.768424,1.172575,-0.734305
1508,0.375614,0.90456,-0.2016869999999999,-1.314029,0.975567,-0.55965
1509,0.3393989999999999,0.91056,-0.2359679999999999,-0.659849,1.224206,0.962851
1510,0.338865,0.904425,-0.259188,-0.204527,0.451715,2.446551
1511,0.352097,0.9027,-0.24729,-0.5076609999999999,-1.093236,0.8699549999999999
1512,0.339591,0.913863,-0.222538,-0.5913609999999999,-0.0261829999999999,0.4670289999999999
1513,0.272108,0.941559,-0.198532,-0.1298349999999999,1.7973169999999998,0.395828
1514,0.201152,0.964613,-0.170444,0.491764,2.220843,0.481754
1515,0.159625,0.977057,-0.140964,0.428098,0.6482020000000001,0.283771
1516,0.11459,0.989343,-0.089783,0.16074,0.702033,0.296784
1517,0.071864,0.996688,-0.037923,-0.164988,1.094056,-0.736064
1518,0.022843,0.999723,-0.004695,0.446701,0.728594,-0.4433029999999999
1519,-0.0198169999999999,0.999545,0.022489,1.007656,0.4764069999999999,-0.515989
1520,-0.054482,0.99769,0.04046,1.095818,-0.109857,-0.5317930000000001
1521,-0.080246,0.995002,0.059337,0.860031,-0.999229,-0.5476340000000001
1522,-0.088364,0.993126,0.076697,1.04776,-1.068276,-0.69712
1523,-0.0817919999999999,0.993417,0.080148,0.934544,-1.299981,-0.6070949999999999
1524,-0.064362,0.995529,0.069057,0.565064,-1.167176,-0.354106
1525,-0.027213,0.999109,0.032106,-0.161828,-0.447779,-0.418031
1526,0.008301,0.999468,-0.031395,-0.24347,-0.074709,-0.219078
1527,0.045199,0.994039,-0.099176,0.130719,1.024577,-0.206992
1528,0.102994,0.981228,-0.163023,0.129977,2.605198,0.467787
1529,0.172906,0.956209,-0.23614,-0.991356,1.036192,0.349498
1530,0.231734,0.926671,-0.295929,-0.6267689999999999,1.4985,-0.30864
1531,0.278595,0.897068,-0.342999,-0.506744,1.40144,0.1973079999999999
1532,0.3376909999999999,0.8645889999999999,-0.372082,0.013368,0.640645,0.350903
1533,0.397444,0.831823,-0.3874309999999999,0.3368239999999999,0.305475,0.207621
1534,0.4398149999999999,0.805318,-0.397517,0.252644,0.339045,0.298594
1535,0.459758,0.786489,-0.4123729999999999,0.092687,0.1806579999999999,0.439488
1536,0.464908,0.777306,-0.423852,-0.344516,-0.275933,0.635217
1537,0.458183,0.78475,-0.417408,-0.978416,-0.924856,1.016667
1538,0.438421,0.8173520000000001,-0.373787,-1.230322,-1.481384,1.290093
1539,0.410562,0.8564200000000001,-0.313013,-1.079049,-1.8932400000000005,0.741037
1540,0.372782,0.8822530000000001,-0.287502,-0.6982520000000001,-1.738545,0.087658
1541,0.342566,0.8918440000000001,-0.2953909999999999,0.762598,-0.5164479999999999,-0.345143
1542,0.366504,0.8889309999999999,-0.274717,0.3552369999999999,0.4665829999999999,-0.398654
1543,0.390228,0.887106,-0.246492,-0.688079,-0.073385,-0.2250199999999999
1544,0.360791,0.8989940000000001,-0.248261,-1.493482,-0.097129,-1.780456
1545,0.3210139999999999,0.900855,-0.292238,-0.906219,1.271828,2.361116
1546,0.308237,0.909635,-0.278475,-0.533502,0.696017,1.251498
1547,0.295186,0.917831,-0.265417,-0.152852,-0.135436,0.297247
1548,0.248678,0.938387,-0.2399639999999999,-0.243307,0.582334,0.429616
1549,0.178375,0.960315,-0.214409,0.158219,1.453732,0.457176
1550,0.130289,0.975225,-0.17876,0.872991,0.9322,0.553851
1551,0.088151,0.987891,-0.127649,0.056548,0.633828,0.315576
1552,0.047585,0.996788,-0.064367,-0.027138,0.986595,-0.295268
1553,0.000554,0.999766,-0.0214409999999999,0.376506,0.754857,-0.456265
1554,-0.039945,0.999145,0.010298,0.73422,0.664979,-0.485411
1555,-0.075511,0.996706,0.0294639999999999,0.874782,0.427809,-0.4724569999999999
1556,-0.10402,0.993833,0.038318,0.764085,-0.791853,-0.534397
1557,-0.117016,0.991862,0.050111,1.014599,-0.964854,-0.604859
1558,-0.107669,0.992642,0.0553419999999999,1.067569,-0.923993,-0.848097
1559,-0.084937,0.994892,0.054486,0.750648,-1.48386,-0.466916
1560,-0.048602,0.998454,0.026839,-0.195295,-0.646861,-0.4496439999999999
1561,-0.007131,0.999704,-0.023128,-0.418437,-0.4814239999999999,-0.248112
1562,0.03132,0.995044,-0.094338,-0.1067589999999999,0.267529,-0.5023270000000001
1563,0.076225,0.98487,-0.15561,0.603371,2.157479,0.194154
1564,0.138728,0.965151,-0.221885,0.634617,3.003584,0.596
1565,0.208812,0.933196,-0.292469,-1.006343,1.335114,-0.317898
1566,0.268971,0.8986290000000001,-0.346578,-0.6328779999999999,1.52352,0.137669
1567,0.318528,0.8673069999999999,-0.382511,0.247573,0.841922,0.359058
1568,0.380202,0.833298,-0.4013199999999999,0.2565469999999999,0.563553,0.384062
1569,0.431787,0.802114,-0.412516,0.286109,0.501139,0.30839
1570,0.458854,0.7795770000000001,-0.4262729999999999,0.182168,0.4700109999999999,0.381733
1571,0.465624,0.7665270000000001,-0.442297,-0.232546,-0.060198,0.5954649999999999
1572,0.459484,0.7669199999999999,-0.448001,-0.900173,-0.7075319999999999,0.6643100000000001
1573,0.4407069999999999,0.791103,-0.4241819999999999,-1.023196,-1.2969620000000002,0.914309
1574,0.4104529999999999,0.8367549999999999,-0.362442,-1.0488959999999998,-1.651132,0.880387
1575,0.368048,0.878283,-0.305213,-0.727758,-1.778598,0.387808
1576,0.32209,0.900165,-0.293184,0.1411059999999999,-1.020175,-0.481184
1577,0.30385,0.9006149999999999,-0.310749,1.006301,0.0128379999999999,-0.161389
1578,0.357041,0.8883709999999999,-0.288641,0.801711,0.68986,0.030066
1579,0.391605,0.88415,-0.254795,-1.280964,0.415945,-1.0186879999999998
1580,0.343939,0.892049,-0.293172,-1.4502620000000002,1.208949,-0.199778
1581,0.3221739999999999,0.892645,-0.315253,-0.832641,0.130212,1.954611
1582,0.3281449999999999,0.8950809999999999,-0.301904,-0.687276,-0.380036,0.5984430000000001
1583,0.2937369999999999,0.910982,-0.289529,-0.6596270000000001,0.181166,0.308511
1584,0.2129329999999999,0.936835,-0.27748,0.010425,1.059518,0.571959
1585,0.156335,0.956925,-0.2446429999999999,0.991737,1.210342,0.617904
1586,0.120728,0.970252,-0.209838,0.8491059999999999,0.668451,0.299926
1587,0.081157,0.984928,-0.15273,0.332509,0.7763939999999999,0.114675
1588,0.038627,0.993791,-0.104323,0.014107,1.0759729999999998,-0.664842
1589,-0.010634,0.997303,-0.072584,0.396285,0.7427020000000001,-0.502123
1590,-0.050358,0.997662,-0.046152,0.7191350000000001,0.583454,-0.4346529999999999
1591,-0.085827,0.995926,-0.027576,0.8318139999999999,0.0840149999999999,-0.395413
1592,-0.115281,0.993262,-0.011644,0.742005,-0.6886359999999999,-0.392867
1593,-0.129123,0.991616,0.004319,1.198291,-0.98681,-0.5907899999999999
1594,-0.126408,0.99189,0.013037,1.195576,-0.987083,-0.5995090000000001
1595,-0.113559,0.993456,0.012022,0.828586,-1.238955,-0.193465
1596,-0.078904,0.996798,-0.012716,0.086594,-0.502871,-0.255289
1597,-0.036363,0.997345,-0.063056,0.00406,-0.272964,-0.105615
1598,0.008713,0.992794,-0.119493,0.430709,1.169849,0.016741
1599,0.0632269999999999,0.982873,-0.173084,0.522482,1.7737029999999998,0.383366
1600,0.124873,0.962399,-0.241228,0.437749,2.127109,0.749498
1601,0.1932819999999999,0.934461,-0.299033,-0.562683,1.890689,-0.143014
1602,0.259275,0.905201,-0.336723,-0.042325,1.272609,0.1777109999999999
1603,0.320524,0.8720610000000001,-0.369825,0.153292,0.928873,0.294904
1604,0.382717,0.8382860000000001,-0.388331,0.143727,0.546953,0.363475
1605,0.4280989999999999,0.8083640000000001,-0.404072,-0.028822,0.5737,0.5404399999999999
1606,0.453492,0.7853,-0.421479,-0.142075,0.522012,0.5328229999999999
1607,0.45978,0.773516,-0.436202,-0.967241,-0.460283,0.552505
1608,0.44786,0.7818579999999999,-0.4337229999999999,-1.292266,-1.165922,0.846641
1609,0.421284,0.817384,-0.392936,-1.144948,-1.371217,1.036185
1610,0.387517,0.860762,-0.330022,-1.113866,-1.845442,0.8217979999999999
1611,0.345281,0.8915799999999999,-0.293022,-0.7604569999999999,-1.59472,-0.146263
1612,0.293124,0.910919,-0.290342,-0.020923,-0.8437049999999999,-0.724367
1613,0.2676989999999999,0.91764,-0.293716,1.000245,0.176675,-0.176041
1614,0.313451,0.915707,-0.2514429999999999,0.706645,0.5074350000000001,0.152566
1615,0.32528,0.921651,-0.211533,-0.919655,0.574412,-0.97998
1616,0.288143,0.923418,-0.25351,0.142445,2.540083,0.4349369999999999
1617,0.292122,0.910033,-0.294109,-0.08297,0.127077,1.690273
1618,0.298906,0.904481,-0.304244,-0.527849,-1.360383,0.911361
1619,0.296144,0.909536,-0.291612,-0.673769,-0.646825,0.852266
1620,0.245829,0.931416,-0.268378,-0.523096,0.936763,0.720893
1621,0.178411,0.957497,-0.226634,0.5191439999999999,2.362464,0.474909
1622,0.140113,0.973366,-0.181443,0.523752,0.552086,0.026994
1623,0.097824,0.986832,-0.1287849999999999,-0.037415,0.71115,0.195146
1624,0.057986,0.995478,-0.075199,-0.2255579999999999,0.899084,-0.17561
1625,0.014303,0.999215,-0.036847,0.196589,0.768913,-0.406558
1626,-0.028668,0.99956,-0.007109,0.691083,0.7002689999999999,-0.336931
1627,-0.066939,0.997692,0.0111069999999999,0.876708,0.475102,-0.393462
1628,-0.095427,0.995175,0.022627,0.825332,-0.915158,-0.47856
1629,-0.106568,0.993982,0.0252009999999999,1.134003,-1.150064,-0.596703
1630,-0.103921,0.994429,0.017446,1.093744,-1.215422,-0.456304
1631,-0.089531,0.995979,0.0013039999999999,0.8234020000000001,-1.435066,-0.280006
1632,-0.053319,0.997989,-0.034169,0.112264,-0.671085,-0.550059
1633,-0.014678,0.995809,-0.090236,-0.029619,-0.578923,-0.391057
1634,0.025249,0.987075,-0.158236,0.141255,0.239686,-0.376065
1635,0.075763,0.974149,-0.212808,0.614911,1.902346,0.297296
1636,0.144762,0.950996,-0.273213,-0.0338,1.847054,0.724492
1637,0.2157599999999999,0.923235,-0.317929,-0.905275,1.066099,0.0362209999999999
1638,0.276595,0.893962,-0.352592,-0.2297809999999999,1.710087,-0.154915
1639,0.325702,0.8620120000000001,-0.388392,-0.069034,1.377795,0.4178409999999999
1640,0.38785,0.826983,-0.407021,0.384656,0.6756409999999999,0.12037
1641,0.436546,0.7985680000000001,-0.414382,0.180016,0.486146,0.4136039999999999
1642,0.4578569999999999,0.780338,-0.425952,-0.111467,0.4733239999999999,0.46181
1643,0.4608939999999999,0.770816,-0.4397899999999999,-0.70653,-0.149097,0.531632
1644,0.451474,0.774796,-0.442558,-1.041943,-0.8894350000000001,0.6251140000000001
1645,0.4300279999999999,0.802044,-0.414483,-1.037587,-1.106961,0.759271
1646,0.40047,0.847842,-0.347538,-1.145892,-1.7400080000000002,0.8906290000000001
1647,0.362088,0.887072,-0.286341,-0.645092,-1.6488509999999998,0.0288329999999999
1648,0.319087,0.907895,-0.271855,-0.173701,-1.293713,-0.563747
1649,0.300305,0.910539,-0.284132,0.5696289999999999,0.141814,-0.051806
1650,0.33725,0.907795,-0.249329,0.24614,0.192806,0.044663
1651,0.357863,0.90958,-0.211169,-0.693785,-0.049442,-0.205228
1652,0.318735,0.91618,-0.242932,-0.067911,1.96648,0.692166
1653,0.310628,0.910576,-0.272684,-0.08283,0.195839,1.394861
1654,0.310927,0.909226,-0.276817,-0.284453,-0.683457,0.8825299999999999
1655,0.292057,0.919341,-0.263646,-0.388736,-0.233413,0.62003
1656,0.230144,0.942784,-0.2412159999999999,-0.168514,1.190669,0.8700760000000001
1657,0.169565,0.964374,-0.203037,0.282278,1.849209,0.772892
1658,0.130718,0.977351,-0.166409,0.5005229999999999,0.578969,-0.0558809999999999
1659,0.083289,0.989875,-0.114906,-0.039175,0.70353,0.279426
1660,0.0393709999999999,0.997161,-0.064132,-0.308582,0.85251,-0.007661
1661,-0.009092,0.999498,-0.0302029999999999,0.107572,0.605055,-0.457941
1662,-0.0546419999999999,0.998488,-0.005242,0.810059,0.628129,-0.295951
1663,-0.093588,0.995551,0.0105379999999999,1.079825,0.490457,-0.373896
1664,-0.123726,0.992089,0.021041,0.872292,-0.848382,-0.52661
1665,-0.137495,0.989998,0.031486,1.180449,-0.961982,-0.560188
1666,-0.132156,0.990672,0.033073,1.210433,-0.901073,-0.684608
1667,-0.115506,0.992933,0.027082,0.862606,-1.403486,-0.281278
1668,-0.085066,0.996369,-0.001885,0.172285,-0.878983,-0.238837
1669,-0.046849,0.997525,-0.0523519999999999,-0.065899,-0.594846,0.054824
1670,-0.003118,0.994559,-0.104092,0.348501,0.751001,-0.514133
1671,0.057201,0.986015,-0.1565099999999999,0.298664,2.311959,0.394303
1672,0.128183,0.966109,-0.2240469999999999,-0.434381,1.899767,0.809405
1673,0.191565,0.941528,-0.277169,-0.438926,1.731232,-0.411445
1674,0.2440909999999999,0.914061,-0.323893,-0.365109,1.441743,0.412821
1675,0.303571,0.885287,-0.352288,0.313159,0.789716,0.299096
1676,0.362508,0.853649,-0.373987,0.2241159999999999,0.661289,0.265253
1677,0.406525,0.825133,-0.392286,0.379852,0.484956,0.267484
1678,0.4310479999999999,0.804176,-0.409261,-0.053362,0.3415,0.443608
1679,0.441191,0.79272,-0.4206439999999999,-0.455718,-0.070018,0.5534720000000001
1680,0.4359399999999999,0.795849,-0.420209,-0.795864,-0.716534,0.582639
1681,0.4134229999999999,0.8213299999999999,-0.393057,-0.740586,-1.316508,0.880743
1682,0.382804,0.863094,-0.329431,-0.811408,-1.7515060000000002,1.008249
1683,0.349294,0.898392,-0.266232,-0.687642,-1.807145,0.135982
1684,0.308678,0.9191,-0.244884,-0.647026,-1.827852,0.1146349999999999
1685,0.283782,0.923178,-0.259239,0.978852,0.454599,-0.5532159999999999
1686,0.324006,0.913364,-0.2465369999999999,0.812438,1.359723,-0.842635
1687,0.366429,0.904253,-0.219202,-1.480245,1.0337809999999998,-0.098319
1688,0.334404,0.90894,-0.248991,-0.954124,0.5429649999999999,0.826262
1689,0.329755,0.903492,-0.273786,-0.615445,-0.468463,1.475278
1690,0.3411369999999999,0.904669,-0.255331,-0.833782,-0.7598020000000001,0.733892
1691,0.318557,0.918439,-0.23449,-0.6684260000000001,0.425708,0.422997
1692,0.240718,0.945219,-0.220476,0.105229,1.597216,0.632937
1693,0.173757,0.965516,-0.193859,0.809916,1.837478,0.577282
1694,0.1341099999999999,0.977179,-0.164709,0.487304,0.529108,0.386908
1695,0.093294,0.989497,-0.1103859999999999,0.010679,0.750387,0.247196
1696,0.054661,0.997183,-0.051288,-0.141087,0.930811,-0.393551
1697,0.008471,0.999828,-0.01624,0.4416029999999999,0.737934,-0.4418439999999999
1698,-0.0301759999999999,0.999444,0.013913,0.778223,0.547279,-0.489881
1699,-0.06509,0.997375,0.031612,0.840618,-0.063399,-0.4586439999999999
1700,-0.091637,0.99472,0.046124,0.718987,-0.94197,-0.53259
1701,-0.101936,0.993018,0.059298,1.104637,-1.015815,-0.696978
1702,-0.095046,0.993563,0.061555,1.041076,-1.1872280000000002,-0.543488
1703,-0.077927,0.99555,0.052909,0.668808,-1.343633,-0.221015
1704,-0.042638,0.998831,0.02259,-0.09611,-0.492666,-0.5037149999999999
1705,-0.00503,0.999474,-0.031901,-0.223379,-0.378075,-0.281286
1706,0.03465,0.994809,-0.095636,0.10477,0.6783319999999999,-0.422156
1707,0.090181,0.98399,-0.153704,0.236296,2.062916,0.431704
1708,0.161935,0.962154,-0.219158,-0.2780849999999999,2.01479,0.7067829999999999
1709,0.228221,0.935074,-0.2711949999999999,-0.5698810000000001,1.748719,-0.376327
1710,0.278982,0.907716,-0.313395,-0.256811,1.309402,0.2439219999999999
1711,0.333198,0.879452,-0.339909,0.105568,0.998737,0.313756
1712,0.387957,0.8497870000000001,-0.356855,0.324033,0.555913,0.2463659999999999
1713,0.426778,0.824076,-0.3724969999999999,0.4017739999999999,0.418904,0.268875
1714,0.4433729999999999,0.8049350000000001,-0.39433,0.174043,0.40585,0.369
1715,0.443418,0.796003,-0.412014,-0.792844,-0.4844489999999999,0.5492670000000001
1716,0.430296,0.801366,-0.415517,-0.8804299999999999,-1.064061,0.842458
1717,0.404614,0.8273209999999999,-0.3896429999999999,-0.854748,-1.090017,0.816584
1718,0.374867,0.867957,-0.32576,-0.983983,-1.680335,1.0323639999999998
1719,0.343861,0.901479,-0.262847,-0.612797,-1.540655,-0.117631
1720,0.309592,0.919715,-0.241396,-0.100516,-1.017615,-0.67793
1721,0.298079,0.921659,-0.2483699999999999,1.1593950000000002,0.020205,-0.576414
1722,0.351489,0.910021,-0.219798,1.239973,1.132291,-0.8216450000000001
1723,0.369458,0.904341,-0.213688,-1.304349,1.04059,-0.426556
1724,0.329576,0.905818,-0.266211,-1.02797,1.011296,0.587958
1725,0.337181,0.901664,-0.270751,-0.663323,-0.644675,1.879027
1726,0.33918,0.907672,-0.24715,-0.6085430000000001,-1.060382,0.878451
1727,0.292463,0.926724,-0.235888,-0.523954,0.219669,0.398989
1728,0.203453,0.953866,-0.220773,0.201377,2.032386,0.364129
1729,0.1602869999999999,0.968815,-0.188944,0.8837950000000001,0.994198,0.372965
1730,0.1188099999999999,0.981408,-0.150719,-0.007345,0.643638,0.509988
1731,0.083989,0.992438,-0.089484,-0.304769,0.926965,-0.293146
1732,0.041604,0.998398,-0.03825,-0.259484,0.909469,-0.692249
1733,-0.002395,0.999991,-0.002232,0.660094,0.6897979999999999,-0.428936
1734,-0.042657,0.998773,0.025047,0.927941,0.403037,-0.486321
1735,-0.073536,0.996463,0.040601,0.881458,-0.035449,-0.495237
1736,-0.096215,0.993857,0.05462,0.8954549999999999,-1.145774,-0.662667
1737,-0.09772,0.993326,0.061222,1.105548,-0.99096,-0.760288
1738,-0.086619,0.994602,0.0570679999999999,1.004603,-1.088627,-0.540756
1739,-0.061549,0.9973,0.039978,0.366175,-1.006745,-0.4108739999999999
1740,-0.020965,0.999775,0.001692,-0.12082,-0.48882,-0.271376
1741,0.022233,0.998225,-0.055195,-0.095551,-0.19369,-0.28439
1742,0.07284,0.991632,-0.106555,0.4755609999999999,1.655706,0.079074
1743,0.136765,0.976227,-0.16814,-0.037323,1.734268,0.791614
1744,0.204955,0.95019,-0.2347949999999999,-0.495436,1.151571,0.75843
1745,0.273103,0.921701,-0.27546,-0.394288,1.907645,-0.2107
1746,0.333275,0.892101,-0.305089,0.198173,0.98708,0.196355
