,gravity.x,gravity.y,gravity.z,userAcceleration.x,userAcceleration.y,userAcceleration.z
0,-0.051904,0.995614,0.077667,1.031244,0.8870610000000001,0.046403
1,-0.069182,0.989374,0.127768,0.629455,0.5570430000000001,-0.215613
2,-0.082646,0.984742,0.153056,0.39684,0.528579,-0.453716
3,-0.098826,0.982011,0.1608099999999999,0.154673,0.293913,-0.4983039999999999
4,-0.120848,0.979117,0.163395,-0.051408,-0.279929,-0.398625
5,-0.148998,0.975842,0.1597,-0.100513,-0.656064,-0.381685
6,-0.1766319999999999,0.973249,0.146835,-0.04665,-0.7629670000000001,-0.27562
7,-0.194669,0.972514,0.127646,0.059202,-0.898998,-0.1144309999999999
8,-0.200207,0.973881,0.106989,0.307309,-1.235325,-0.060587
9,-0.194471,0.976802,0.08952,0.350126,-1.310633,0.13837
10,-0.177111,0.98183,0.067947,0.16968,-0.919513,-0.001114
11,-0.149744,0.988124,0.034104,0.21528,-0.572307,-0.567109
12,-0.109267,0.99351,-0.0312329999999999,0.792281,1.031865,-0.487581
13,-0.033129,0.991174,-0.128281,-0.134565,2.217353,0.111863
14,0.053808,0.979401,-0.194578,-0.686681,1.825668,0.1361359999999999
15,0.103282,0.96117,-0.255866,-0.848857,0.77113,-0.040063
16,0.143221,0.942658,-0.301442,-0.829775,0.526794,0.121267
17,0.180478,0.925795,-0.332138,0.47507,0.554399,-0.233002
18,0.213378,0.910656,-0.35378,0.491212,0.725696,-0.462734
19,0.2308619999999999,0.902922,-0.362519,0.853107,0.7544270000000001,-0.545714
20,0.226092,0.902109,-0.367514,0.784436,0.033743,-0.371729
21,0.212387,0.900823,-0.378676,0.540512,-0.061803,-0.325579
22,0.199968,0.8989879999999999,-0.38964,0.610442,-0.358323,0.035331
23,0.192694,0.896325,-0.39932,-0.145667,-1.0025110000000002,0.437589
24,0.1902859999999999,0.896019,-0.401158,-0.258386,-1.112373,0.553212
25,0.190875,0.901606,-0.3881489999999999,-0.395083,-1.279612,0.690852
26,0.193556,0.916605,-0.3497929999999999,-0.593901,-1.3865299999999998,0.523912
27,0.19338,0.935348,-0.296161,-0.635733,-1.322586,0.473942
28,0.188857,0.950481,-0.246783,-0.549163,-1.058482,0.200671
29,0.182847,0.959142,-0.215857,-0.573716,-0.942403,0.050483
30,0.1786049999999999,0.96335,-0.200098,-0.854844,-0.749223,-0.035986
31,0.184619,0.964874,-0.186856,-1.258746,2.585923,0.7101109999999999
32,0.199275,0.966943,-0.1590339999999999,-1.0013530000000002,4.916205000000001,0.815696
33,0.192928,0.967983,-0.160523,0.3969,1.413044,0.2836
34,0.200491,0.961161,-0.189615,0.425409,-1.129541,0.667567
35,0.20115,0.960696,-0.191264,0.746452,-1.096973,0.520076
36,0.188124,0.968722,-0.161763,0.234438,-0.6623560000000001,0.382878
37,0.169405,0.977104,-0.128641,-0.32004,-0.013207,-0.137427
38,0.144257,0.985426,-0.090026,-0.006501,0.997042,0.191863
39,0.093681,0.995055,-0.032659,0.255318,1.132386,0.0123489999999999
40,0.035835,0.999108,0.021795,0.8712540000000001,1.061821,-0.342993
41,-0.008614,0.996943,0.07749,1.01049,0.719106,-0.340307
42,-0.033466,0.992503,0.117438,0.591663,0.419652,-0.36016
43,-0.0474,0.990113,0.131921,0.308341,0.5378569999999999,-0.296624
44,-0.061725,0.98878,0.13593,-0.102597,0.1804089999999999,-0.375569
45,-0.085125,0.9877,0.131053,-0.099659,-0.3331739999999999,-0.31132
46,-0.109395,0.986986,0.11775,-0.146022,-0.668184,-0.385511
47,-0.126685,0.987292,0.095808,-0.0142,-0.883242,-0.087065
48,-0.132868,0.988755,0.068434,0.200801,-1.146729,-0.139922
49,-0.127022,0.991007,0.041772,0.2408829999999999,-1.231364,-0.096109
50,-0.1094589999999999,0.993906,0.012024,0.116844,-0.982065,0.3322449999999999
51,-0.084133,0.995944,-0.031525,0.0228389999999999,-0.769,-0.279815
52,-0.047701,0.994915,-0.088585,0.457812,0.292317,-0.86895
53,0.011966,0.980674,-0.195236,1.021344,2.166512,0.4355159999999999
54,0.110897,0.956883,-0.26844,-0.296353,1.985348,0.253868
55,0.18285,0.925142,-0.332658,-0.981358,1.4132209999999998,-0.251921
56,0.2134989999999999,0.901836,-0.375626,-0.2083719999999999,0.401753,-0.103714
57,0.237943,0.8794559999999999,-0.412222,0.1322809999999999,0.353958,-0.2347199999999999
58,0.248511,0.864557,-0.436774,0.313898,0.4252689999999999,-0.458933
59,0.2540679999999999,0.863075,-0.436506,0.622641,0.64788,-0.5963609999999999
60,0.251179,0.867772,-0.428799,0.935879,0.292415,-0.189136
61,0.242702,0.8719819999999999,-0.425125,0.953465,-0.081912,-0.302643
62,0.23722,0.871373,-0.429446,0.216302,-0.7399789999999999,0.30086
63,0.241716,0.867756,-0.4342359999999999,-0.114992,-0.974415,0.3234869999999999
64,0.247977,0.868668,-0.4288479999999999,-0.463325,-1.348542,0.552933
65,0.253696,0.880343,-0.400776,-0.7998689999999999,-1.2672450000000002,0.6413770000000001
66,0.254643,0.898926,-0.356476,-0.730168,-1.230316,0.553162
67,0.250565,0.916308,-0.312381,-0.552994,-1.103991,0.471088
68,0.244652,0.929318,-0.276582,-0.584771,-1.04443,0.214311
69,0.237167,0.938109,-0.252363,-0.666046,-0.955351,0.2058699999999999
70,0.2305699999999999,0.944614,-0.233507,-1.084497,-0.6789430000000001,-0.131133
71,0.23554,0.948615,-0.2112659999999999,-2.217016,4.121286,2.106453
72,0.238585,0.954681,-0.1778819999999999,-1.104003,6.726761,0.214701
73,0.232202,0.954386,-0.187648,0.492408,-0.6983590000000001,0.728237
74,0.244781,0.948246,-0.202224,0.819932,-1.115604,0.657516
75,0.245049,0.954643,-0.169087,0.908684,-1.189658,0.438984
76,0.228535,0.965662,-0.123488,-0.169514,-0.393412,-0.085115
77,0.197746,0.976379,-0.086953,-0.046791,0.556916,-0.0198889999999999
78,0.1535109999999999,0.987604,-0.032423,0.293633,1.082342,0.018171
79,0.091528,0.995331,0.030253,0.455561,1.255783,-0.140986
80,0.037438,0.994661,0.09604,0.955024,0.957411,-0.310563
81,-0.000135,0.989396,0.1451569999999999,0.986798,0.765044,-0.541626
82,-0.021637,0.986975,0.159335,0.300781,0.03422,-0.4858729999999999
83,-0.0370389999999999,0.987199,0.155055,-0.140116,0.149505,-0.361674
84,-0.057064,0.988127,0.142565,-0.1133,-0.065107,-0.350482
85,-0.077772,0.989066,0.125203,-0.180055,-0.646964,-0.232228
86,-0.091382,0.990539,0.102264,0.109509,-1.090286,-0.1137079999999999
87,-0.093727,0.992888,0.073253,0.211312,-1.333418,-0.1086839999999999
88,-0.078456,0.995789,0.047186,0.21902,-1.1312870000000002,-0.045126
89,-0.049158,0.998688,0.01356,0.000925,-0.8312229999999999,0.069783
90,-0.011266,0.9992,-0.038114,-0.102503,-0.693062,-0.342013
91,0.0379959999999999,0.991704,-0.122721,1.495833,1.568385,0.024668
92,0.12659,0.964614,-0.231254,-0.253116,2.015321,0.315071
93,0.220176,0.929214,-0.296764,-0.170966,1.64737,0.1144369999999999
94,0.259131,0.899098,-0.352788,-1.090766,1.258708,0.336675
95,0.28246,0.875599,-0.391829,-0.138615,0.203274,0.149016
96,0.2993099999999999,0.8550479999999999,-0.423432,0.233283,0.11329,-0.093704
97,0.30791,0.840535,-0.4457359999999999,0.358808,0.525081,-0.570697
98,0.312635,0.8359040000000001,-0.451122,0.664324,0.2110469999999999,-0.101674
99,0.311395,0.839758,-0.4447779999999999,0.8731450000000001,-0.018164,-0.2233429999999999
100,0.306386,0.845952,-0.4364409999999999,0.72639,-0.367299,-0.181311
101,0.304988,0.8470209999999999,-0.435345,0.0519769999999999,-0.7821100000000001,0.025906
102,0.303459,0.848225,-0.434068,-0.409294,-1.334095,0.593949
103,0.295188,0.8564620000000001,-0.423467,-0.759269,-1.520464,1.000692
104,0.286471,0.876767,-0.386265,-0.737796,-1.139432,0.781208
105,0.276165,0.8988780000000001,-0.340201,-0.631832,-1.098753,0.648246
106,0.268326,0.914358,-0.303209,-0.653275,-1.100927,0.363802
107,0.264437,0.923002,-0.279506,-1.244875,-0.705488,-0.092244
108,0.26738,0.925851,-0.267007,-0.8929290000000001,-0.693627,-1.2423620000000002
109,0.284993,0.924253,-0.254006,-2.2008400000000004,4.640078,1.7766810000000002
110,0.283074,0.929294,-0.237205,0.925224,-0.645312,0.398231
111,0.299611,0.916413,-0.26534,0.361431,-1.057999,0.8108569999999999
112,0.302939,0.913528,-0.271439,1.012659,-1.725631,0.88823
113,0.287267,0.933017,-0.2166539999999999,0.384791,-0.669712,0.21461
114,0.257241,0.953499,-0.156999,0.006706,-0.598518,-0.0356579999999999
115,0.2157619999999999,0.970584,-0.10674,0.227002,0.790601,-0.512141
116,0.1643099999999999,0.985232,-0.047957,0.5769,1.021208,-0.045305
117,0.102207,0.994642,0.014815,0.682492,0.8225120000000001,-0.126632
118,0.060889,0.995229,0.076081,0.854607,0.655589,-0.399034
119,0.034099,0.993,0.112971,0.151616,0.3009449999999999,-0.427363
120,0.02048,0.992345,0.1216869999999999,-0.03464,0.175166,-0.34091
121,0.004157,0.992633,0.120988,-0.203025,0.047879,-0.288163
122,-0.019533,0.993609,0.1110609999999999,-0.17079,-0.505984,-0.293739
123,-0.041863,0.994987,0.0906899999999999,-0.189002,-0.642051,-0.152855
124,-0.05645,0.996474,0.0618809999999999,0.16108,-1.31761,-0.126685
125,-0.059096,0.997829,0.0286699999999999,0.23062,-1.417492,-0.078856
126,-0.0443319999999999,0.999002,-0.002732,0.159597,-1.117715,0.127244
127,-0.017595,0.998772,-0.046087,0.168627,-0.586296,-0.526926
128,0.019334,0.994857,-0.099325,0.554671,0.12439,-0.8846379999999999
129,0.072713,0.977556,-0.197684,1.436595,1.492476,-0.110207
130,0.165189,0.944051,-0.285419,-0.571607,1.665828,0.17377
131,0.238229,0.903743,-0.355641,-0.661569,1.626652,0.0273779999999999
132,0.2702,0.870757,-0.410806,-0.806531,1.09366,0.117913
133,0.303182,0.845493,-0.439556,0.00854,0.126919,-0.1960339999999999
134,0.32442,0.826858,-0.459396,0.408734,0.347916,-0.447755
135,0.329759,0.816591,-0.473736,0.247054,0.466413,-0.403004
136,0.329185,0.81719,-0.473103,1.057,0.106669,-0.079235
137,0.3274,0.8242219999999999,-0.462013,1.119073,-0.2954739999999999,-0.066704
138,0.326748,0.826073,-0.459159,0.8313940000000001,-0.47863,0.155799
139,0.3306469999999999,0.8225680000000001,-0.462647,-0.3013659999999999,-1.039502,0.32988
140,0.329705,0.826233,-0.456751,-0.70202,-1.318878,0.738016
141,0.327815,0.842051,-0.428339,-0.789821,-1.290827,0.800165
142,0.326648,0.864431,-0.382159,-0.7299680000000001,-1.017691,0.6117739999999999
143,0.32442,0.8835,-0.337882,-0.676761,-1.0427110000000002,0.458426
144,0.319778,0.895824,-0.308586,-0.72673,-1.092175,0.348534
145,0.315996,0.904484,-0.286426,-1.285478,-0.653629,-0.031445
146,0.320476,0.908065,-0.269622,-1.206417,0.867585,-0.632065
147,0.326909,0.913877,-0.2407119999999999,-2.098943,3.942278,1.787205
148,0.323157,0.914959,-0.241669,0.896234,0.299,0.355469
149,0.328101,0.905238,-0.269958,1.018899,-1.6801099999999998,0.977508
150,0.320008,0.913495,-0.251209,0.919189,-1.606992,0.578601
151,0.298563,0.93328,-0.199576,-0.051797,-0.33097,0.10369
152,0.265503,0.952542,-0.148842,0.227081,0.968174,-0.140816
153,0.221795,0.970848,-0.09078,0.365195,1.673729,0.01264
154,0.163286,0.986353,-0.020592,0.587873,1.176244,-0.127724
155,0.1103339999999999,0.993025,0.041303,1.0845049999999998,0.722032,-0.465772
156,0.073716,0.993583,0.085647,1.108275,0.4168779999999999,-0.764587
157,0.050704,0.993756,0.099269,0.368821,-0.271756,-0.5741069999999999
158,0.033586,0.995494,0.088547,-0.262193,0.076939,-0.172257
159,0.0144389999999999,0.997099,0.07458,-0.326893,-0.042128,-0.182994
160,-0.004496,0.998062,0.061887,-0.291448,-0.4040829999999999,-0.061872
161,-0.0173919999999999,0.998917,0.04291,0.020718,-1.102814,-0.121813
162,-0.022327,0.999642,0.014002,0.1532619999999999,-1.291375,-0.085062
163,-0.012364,0.999802,-0.014871,0.230534,-1.2425540000000002,0.304894
164,0.013536,0.998716,-0.048611,0.010313,-0.683439,-0.452259
165,0.055295,0.994257,-0.091519,0.446246,-0.297586,-0.5916170000000001
166,0.125698,0.975703,-0.179402,1.1572,1.608479,0.272954
167,0.2254699999999999,0.938579,-0.261184,0.004342,1.815007,0.249939
168,0.292944,0.894904,-0.336626,-0.69071,2.095422,0.275377
169,0.315037,0.861957,-0.3972,-0.55721,0.8895540000000001,0.353011
170,0.335402,0.8287700000000001,-0.447922,0.052919,0.061367,0.104599
171,0.355626,0.803553,-0.477306,0.301189,0.188833,-0.16776
172,0.372386,0.789872,-0.487256,0.2281389999999999,0.578368,-0.687029
173,0.3789889999999999,0.789428,-0.4828659999999999,0.93168,0.746598,-0.424147
174,0.379606,0.79489,-0.473326,0.986926,0.443086,-0.277086
175,0.375787,0.80133,-0.465449,0.401938,-0.4866479999999999,0.028879
176,0.381415,0.7996409999999999,-0.463772,-0.098533,-0.935948,0.371701
177,0.379583,0.798013,-0.468059,-0.309866,-1.350198,0.7198899999999999
178,0.371003,0.811236,-0.451931,-0.860917,-1.3542809999999998,0.8578600000000001
179,0.36133,0.8354530000000001,-0.414059,-0.720247,-1.047108,0.6453369999999999
180,0.356509,0.8582770000000001,-0.369119,-0.65552,-0.961914,0.5371640000000001
181,0.352635,0.875202,-0.331142,-0.76302,-0.8814280000000001,0.271481
182,0.34775,0.8865709999999999,-0.305035,-1.233202,-0.440709,-0.074634
183,0.3476889999999999,0.893396,-0.2845,-0.937746,-0.431101,-0.596909
184,0.359087,0.897167,-0.257161,-1.389315,4.86353,0.103627
185,0.358665,0.899423,-0.2497599999999999,0.613366,0.3685969999999999,0.133122
186,0.368892,0.8946799999999999,-0.251894,0.348988,-0.0346029999999999,0.205675
187,0.361121,0.901086,-0.240037,0.7045680000000001,-1.29368,0.683686
188,0.337957,0.919734,-0.1996369999999999,0.400248,-0.725154,0.507026
189,0.299663,0.942554,-0.147561,0.217961,-0.343479,0.322976
190,0.255001,0.962888,-0.088318,0.4406779999999999,0.810671,-0.2366329999999999
191,0.21109,0.977065,-0.027601,0.494613,1.0442209999999998,-0.127199
192,0.161657,0.986004,0.0404949999999999,0.936579,0.879704,-0.187086
193,0.128669,0.986693,0.0992779999999999,0.903283,0.919328,-0.506749
194,0.10926,0.985677,0.12836,0.205178,0.382777,-0.690662
195,0.0947539999999999,0.986877,0.130645,-0.2182889999999999,0.194504,-0.272323
196,0.071378,0.989767,0.123456,-0.255704,0.051844,-0.232098
197,0.0442899999999999,0.993457,0.105146,-0.115289,-0.643543,-0.122663
198,0.022387,0.996741,0.077333,-0.007677,-0.8991459999999999,-0.088548
199,0.009617,0.998901,0.045609,0.222286,-1.541534,-0.061036
200,0.017434,0.999627,0.0204379999999999,0.369773,-1.319955,-0.068686
201,0.045751,0.998918,-0.006763,-0.066335,-1.005968,0.205554
202,0.085501,0.995034,-0.050743,-0.134771,-0.6433949999999999,-0.502861
203,0.138802,0.983265,-0.1179089999999999,1.076575,0.75671,-0.7278560000000001
204,0.226894,0.945182,-0.234805,0.195134,2.166848,0.371111
205,0.316532,0.8948510000000001,-0.314696,-0.410801,1.712235,0.320921
206,0.358802,0.8482850000000001,-0.389435,-0.72538,0.8764930000000001,0.1023559999999999
207,0.392207,0.806135,-0.4430659999999999,-0.713496,0.828234,0.37936
208,0.427278,0.772038,-0.470508,0.22682,0.116939,-0.2089659999999999
209,0.443416,0.746661,-0.49585,0.384083,0.4965029999999999,-0.559753
210,0.4419619999999999,0.733693,-0.516093,0.6398560000000001,0.682826,-0.488606
211,0.440741,0.730876,-0.521111,1.087548,0.649755,-0.071663
212,0.429901,0.737954,-0.520189,0.658539,-0.165933,-0.481184
213,0.415425,0.742869,-0.524936,0.519695,-0.275584,-0.295926
214,0.392918,0.747883,-0.535047,-0.490696,-1.272175,0.725416
215,0.362525,0.7576,-0.542778,-0.665274,-1.5930030000000002,1.084358
216,0.3501,0.779755,-0.519038,-0.786883,-1.54416,0.997569
217,0.357315,0.811674,-0.4620579999999999,-0.911636,-1.037169,0.689918
218,0.365681,0.8389540000000001,-0.403014,-0.837024,-1.025965,0.494826
219,0.371245,0.8569540000000001,-0.35748,-0.883391,-0.992742,0.357937
220,0.373767,0.86692,-0.3297449999999999,-0.991076,-0.5107189999999999,-0.268186
221,0.380544,0.8701030000000001,-0.313195,-0.752309,0.273437,-0.127066
222,0.386302,0.874813,-0.292329,-0.8968149999999999,6.250247,0.052994
223,0.387056,0.8743799999999999,-0.292628,-0.058977,-0.476782,0.178965
224,0.400568,0.867268,-0.295593,-0.1668339999999999,-0.194997,0.4452359999999999
225,0.394106,0.876043,-0.2778719999999999,0.7850779999999999,-1.330632,0.5701390000000001
226,0.372458,0.89691,-0.2383469999999999,0.477151,-0.462416,0.43958
227,0.337278,0.923957,-0.180355,0.240954,-0.081214,0.301845
228,0.2949219999999999,0.947306,-0.1249509999999999,0.2433469999999999,0.538687,-0.135074
229,0.2404739999999999,0.968519,-0.064207,0.54572,1.0526,0.151335
230,0.173484,0.98482,0.003059,0.8889549999999999,0.760495,-0.113578
231,0.129746,0.989384,0.065272,1.036789,0.494838,-0.414286
232,0.101046,0.989649,0.101778,0.581144,0.312612,-0.685732
233,0.085967,0.989385,0.1170529999999999,-0.2769,0.199351,-0.326373
234,0.07038,0.989602,0.125334,-0.2611449999999999,0.097801,-0.181014
235,0.047566,0.991036,0.124733,-0.269063,-0.2429739999999999,-0.357048
236,0.023186,0.993392,0.112284,-0.203957,-0.527725,-0.154566
237,0.0059159999999999,0.995717,0.092119,0.036473,-0.967443,-0.114427
238,-0.001098,0.997735,0.067072,0.21495,-1.394249,-0.068704
239,0.01163,0.998903,0.045082,0.185422,-1.150575,-0.079964
240,0.041443,0.99903,0.014066,-0.080506,-0.999838,0.180743
241,0.077106,0.996133,-0.041851,-0.200001,-0.68612,0.037243
242,0.120692,0.985996,-0.115002,1.399312,1.6753810000000002,-0.7957489999999999
243,0.184769,0.95125,-0.246913,1.561707,2.769041,0.78918
244,0.2882619999999999,0.906966,-0.307085,-0.608925,1.619508,0.075625
245,0.3462989999999999,0.86124,-0.371924,-0.678193,1.290539,-0.24949
246,0.374217,0.8259780000000001,-0.421556,-0.4947609999999999,1.178814,0.403031
247,0.393646,0.79074,-0.468786,0.306656,0.138245,-0.148753
248,0.39503,0.766371,-0.506572,0.383992,0.082887,-0.6103109999999999
249,0.380247,0.7642869999999999,-0.520832,0.321687,0.4403939999999999,-0.406521
250,0.377973,0.766158,-0.519736,0.984926,0.144013,0.118735
251,0.376165,0.7731100000000001,-0.510675,0.7781319999999999,-0.343453,-0.40235
252,0.375302,0.7781060000000001,-0.503674,0.315951,-0.422408,-0.08266
253,0.3761,0.779678,-0.5006390000000001,-0.762666,-1.101073,0.520826
254,0.368869,0.785972,-0.496156,-0.787341,-1.447852,0.694048
255,0.370026,0.803566,-0.466207,-0.836152,-1.58236,0.95374
256,0.382823,0.8331790000000001,-0.399054,-0.951152,-1.088184,0.653418
257,0.39203,0.8568020000000001,-0.334943,-0.731263,-1.189871,0.33038
258,0.394238,0.872122,-0.2897619999999999,-0.759472,-1.232565,0.107069
259,0.390621,0.883325,-0.259102,-0.964962,-0.890848,0.035164
260,0.39039,0.889698,-0.236673,-0.998514,1.7346150000000002,0.540903
261,0.401729,0.894287,-0.197089,-1.203121,5.549346,1.736213
262,0.391065,0.899359,-0.195455,0.620821,-0.016531,0.540425
263,0.392119,0.893015,-0.2207889999999999,0.5704199999999999,-1.7751560000000002,0.772211
264,0.3901179999999999,0.8963479999999999,-0.2105909999999999,0.934848,-1.929215,0.483876
265,0.3710739999999999,0.915975,-0.152552,-0.089519,-0.4618739999999999,-0.0542809999999999
266,0.335588,0.935496,-0.110479,-0.233537,0.371251,-0.386317
267,0.298019,0.951684,-0.073882,0.118592,1.21659,0.2373179999999999
268,0.235884,0.971763,-0.0033439999999999,0.409731,0.4364399999999999,-0.117154
269,0.182145,0.981476,0.059172,0.54309,0.876892,-0.432646
270,0.137969,0.983737,0.114882,0.95923,0.854733,-0.459685
271,0.114407,0.983016,0.143394,0.342746,-0.095229,-0.509315
272,0.100357,0.984276,0.145257,-0.0345759999999999,0.297676,-0.317711
273,0.081147,0.987382,0.135877,-0.172867,-0.109681,-0.327101
274,0.058275,0.991108,0.119499,-0.21074,-0.4961279999999999,-0.315559
275,0.0413269999999999,0.994534,0.095734,-0.0622919999999999,-0.915143,-0.134812
276,0.03457,0.997216,0.065858,0.2281099999999999,-1.237664,-0.063509
277,0.043548,0.998324,0.037758,0.1144569999999999,-0.976366,0.222435
278,0.06715,0.997729,0.001415,-0.072827,-0.845065,0.2252849999999999
279,0.10007,0.993612,-0.051923,-0.198657,-0.706961,-0.1725799999999999
280,0.144847,0.981457,-0.125452,1.666463,1.098575,-0.293936
281,0.225694,0.945636,-0.234126,0.105055,2.0847290000000003,0.391245
282,0.3104179999999999,0.897647,-0.312814,-0.39901,1.6919830000000002,0.3109369999999999
283,0.348821,0.8574,-0.378382,-0.7155050000000001,1.150168,0.313868
284,0.375879,0.8230700000000001,-0.425741,0.018119,0.061924,0.0666559999999999
285,0.3992949999999999,0.79235,-0.461226,0.2095,0.099877,-0.180009
286,0.416191,0.76649,-0.489146,0.066536,0.280888,-0.5095270000000001
287,0.41585,0.757076,-0.503876,0.908933,0.32021,-0.066452
288,0.4131869999999999,0.761255,-0.499754,1.022924,0.151633,-0.090075
289,0.406541,0.7743180000000001,-0.484914,0.80284,-0.4365949999999999,-0.334055
290,0.404448,0.7810520000000001,-0.475779,-0.271269,-0.750397,0.136546
291,0.403669,0.77987,-0.4783729999999999,-0.548215,-1.00776,0.36233
292,0.394771,0.786533,-0.474876,-0.750637,-1.6044200000000002,0.7849649999999999
293,0.393661,0.809649,-0.435297,-0.8696290000000001,-1.337695,0.8777860000000001
294,0.3948239999999999,0.8392940000000001,-0.373741,-0.806689,-1.026077,0.6579510000000001
295,0.3911159999999999,0.8625639999999999,-0.320926,-0.651019,-0.955154,0.392963
296,0.383284,0.8779370000000001,-0.286879,-0.866042,-0.834633,0.075164
297,0.378836,0.8841479999999999,-0.273396,-0.742408,-0.562554,-1.196346
298,0.391621,0.8841709999999999,-0.254667,-1.100361,4.60527,1.12309
299,0.395214,0.8842469999999999,-0.248782,0.2252699999999999,3.341766,0.423297
300,0.411042,0.8700540000000001,-0.272086,-0.324891,-0.475812,0.369361
301,0.407363,0.8669819999999999,-0.287014,0.195969,-1.2724540000000002,0.792233
302,0.388107,0.8845790000000001,-0.258598,0.245713,-0.53027,0.8250190000000001
303,0.353614,0.912397,-0.206077,0.025735,-0.265439,0.5381229999999999
304,0.312762,0.938326,-0.147312,0.271925,0.469938,-0.10751
305,0.2656929999999999,0.960089,-0.087246,0.081353,1.070627,-0.021106
306,0.20204,0.979206,-0.017556,0.4877939999999999,0.686962,-0.297721
307,0.148516,0.987886,0.0446649999999999,1.278288,0.4930859999999999,-0.4516779999999999
308,0.1121009999999999,0.989481,0.091277,0.632177,0.099966,-0.815657
309,0.0946289999999999,0.990228,0.1022909999999999,0.185889,0.175513,-0.515041
310,0.079222,0.991735,0.10078,-0.293837,0.390818,0.0569799999999999
311,0.053638,0.993366,0.101573,-0.145191,-0.148792,-0.151638
312,0.028508,0.99553,0.0898809999999999,-0.026372,-0.412293,-0.307593
313,0.010028,0.997614,0.068098,0.076017,-1.093149,-0.128644
314,0.002402,0.99916,0.040575,0.3265619999999999,-1.336974,-0.142397
315,0.010651,0.999873,0.010642,0.34436,-1.276927,-0.099372
316,0.032769,0.999096,-0.026583,-0.124521,-0.8435940000000001,0.086946
317,0.064682,0.995299,-0.071909,-0.0082709999999999,-0.6410359999999999,-0.5595600000000001
318,0.111064,0.985232,-0.1302289999999999,0.548192,-0.240542,-0.7773329999999999
319,0.190413,0.953244,-0.2346219999999999,0.0591909999999999,1.84975,0.483997
320,0.271763,0.914034,-0.301111,-0.265857,1.7484419999999998,0.439478
321,0.315536,0.87751,-0.361104,-0.5942069999999999,1.749641,0.063542
322,0.344288,0.8469110000000001,-0.405204,-0.3285409999999999,0.2160619999999999,0.148994
323,0.370407,0.8201379999999999,-0.436069,0.329941,0.06034,-0.275356
324,0.38499,0.799908,-0.460342,0.467076,-0.042752,-0.404435
325,0.395806,0.795775,-0.458329,0.732093,0.454363,-0.47789
326,0.4159,0.7887029999999999,-0.4527239999999999,1.095712,0.451775,-0.129124
327,0.42882,0.784982,-0.447103,1.066648,-0.009363,-0.1005799999999999
328,0.4394689999999999,0.783434,-0.4394119999999999,-0.509415,-1.001177,0.320378
329,0.433453,0.7885840000000001,-0.436162,-0.8889739999999999,-1.559641,0.723669
330,0.411121,0.8038569999999999,-0.429858,-0.86449,-1.565728,0.8666719999999999
331,0.391938,0.8312229999999999,-0.394255,-0.8382120000000001,-1.155243,0.82765
332,0.381143,0.859858,-0.3396409999999999,-0.816416,-1.013728,0.5849260000000001
333,0.376136,0.879984,-0.290052,-0.791618,-1.009608,0.246549
334,0.37311,0.892357,-0.253903,-1.032015,-0.776299,-0.107821
335,0.372953,0.897575,-0.2350429999999999,-1.2951629999999998,-0.48513,-0.702289
336,0.384372,0.894591,-0.227913,-1.797885,3.065553,1.934929
337,0.385996,0.8993620000000001,-0.205267,1.302343,1.616599,0.736395
338,0.401151,0.8860969999999999,-0.2321389999999999,0.64226,-0.737843,1.285164
339,0.410833,0.877441,-0.247574,0.794687,-1.99414,0.966843
340,0.398892,0.898807,-0.1816839999999999,0.8861120000000001,-0.978718,0.267728
341,0.361321,0.925169,-0.116124,-0.09089,-0.139037,-0.341213
342,0.310313,0.947631,-0.0753419999999999,0.1354119999999999,0.5387890000000001,-0.4257109999999999
343,0.251213,0.96766,-0.022349,0.320228,1.161994,-0.206304
344,0.18688,0.981518,0.040871,0.415522,0.431309,0.045845
345,0.1391109999999999,0.9849,0.1029099999999999,0.930454,0.621347,-0.190663
346,0.108307,0.983041,0.147887,0.317139,-0.029656,-0.719146
347,0.086156,0.983006,0.162009,-0.109838,0.149883,-0.466727
348,0.067726,0.985417,0.156004,-0.320732,0.343441,-0.311506
349,0.046366,0.989085,0.139759,-0.308848,-0.0855809999999999,-0.296192
350,0.0290649999999999,0.992836,0.115769,-0.190854,-0.876656,-0.174973
351,0.018841,0.996279,0.083933,0.092487,-1.370074,-0.192866
352,0.025095,0.998357,0.051251,0.072988,-0.881108,0.3038659999999999
353,0.050799,0.998573,0.015635,-0.062884,-0.708214,0.052252
354,0.091063,0.995269,-0.033506,0.078249,-0.43521,-0.439547
355,0.154006,0.980633,-0.1209,1.176667,1.961353,0.7799119999999999
356,0.26168,0.940603,-0.2162599999999999,-0.470909,1.357218,0.131314
357,0.338891,0.892516,-0.297571,-0.4200069999999999,1.566651,0.157801
358,0.358053,0.86075,-0.3617889999999999,-0.520559,1.01216,0.418704
359,0.375339,0.828393,-0.415777,-0.54874,0.5705020000000001,0.340841
360,0.393517,0.800597,-0.451856,0.074195,0.030045,-0.011309
361,0.4004769999999999,0.78369,-0.4748,-0.004557,-0.014998,-0.492424
362,0.401584,0.7786420000000001,-0.482113,0.6057859999999999,0.632017,-0.360569
363,0.41078,0.777089,-0.476843,0.875094,0.562755,-0.147593
364,0.414201,0.781507,-0.466551,0.465804,-0.418775,0.043012
365,0.420926,0.786752,-0.451474,-0.23016,-0.479226,-0.003665
366,0.424442,0.79172,-0.439333,-0.474491,-0.792788,0.142062
367,0.414605,0.800145,-0.4334229999999999,-0.902901,-1.7057240000000002,0.836622
368,0.406565,0.820629,-0.401568,-0.942026,-1.255368,0.902407
369,0.4007449999999999,0.846267,-0.351025,-0.8697389999999999,-1.158447,0.727826
370,0.396599,0.8662799999999999,-0.303726,-0.748436,-1.0873959999999998,0.273316
371,0.391291,0.879389,-0.2711949999999999,-1.229884,-0.708201,-0.096557
372,0.38974,0.8840129999999999,-0.258079,-1.1032110000000002,-0.492426,-0.979287
373,0.39494,0.887152,-0.238673,-0.456738,6.75857,0.2122139999999999
374,0.401438,0.888482,-0.222325,0.295965,0.771354,0.240956
375,0.406485,0.881517,-0.240164,-0.128027,-0.762498,0.793692
376,0.391965,0.889558,-0.234585,0.626742,-1.227678,0.594128
377,0.366365,0.913279,-0.177979,0.1151869999999999,-0.356959,0.1668089999999999
378,0.325902,0.93874,-0.111945,0.125224,-0.070195,-0.04133
379,0.277236,0.959746,-0.044757,0.7999890000000001,1.315675,-0.470059
380,0.223482,0.974461,0.02135,0.634779,1.4442549999999998,0.064541
381,0.172774,0.981582,0.081358,0.73401,0.6077279999999999,-0.303435
382,0.135177,0.982643,0.126929,0.872711,0.441475,-0.710258
383,0.111196,0.984175,0.137869,0.051051,-0.100096,-0.54978
384,0.091667,0.987987,0.124304,-0.2005849999999999,-0.011791,-0.234854
385,0.071168,0.991689,0.107056,-0.294221,-0.0626419999999999,-0.192475
386,0.052464,0.994888,0.08613,-0.211247,-0.466949,-0.029138
387,0.038948,0.997409,0.060265,-0.0580059999999999,-0.921802,-0.1577069999999999
388,0.035002,0.998964,0.028638,0.194276,-1.324816,-0.085371
389,0.050442,0.998703,-0.004762,0.155643,-1.079117,0.363038
390,0.081815,0.995363,-0.05036,-0.081464,-0.615083,-0.316233
391,0.1282,0.985949,-0.106989,0.85793,0.283582,-0.597997
392,0.209785,0.953254,-0.217433,0.150536,1.638985,0.278208
393,0.306259,0.9004610000000001,-0.308802,-0.0547169999999999,1.503378,-0.022115
394,0.355307,0.8576010000000001,-0.3718349999999999,-0.743628,2.091969,0.164819
395,0.378004,0.8292719999999999,-0.4115899999999999,-0.315336,0.089063,0.2449489999999999
396,0.398599,0.802543,-0.44388,0.060583,-0.1841799999999999,0.057634
397,0.4083489999999999,0.777432,-0.4783689999999999,0.065207,-0.169446,-0.179544
398,0.403136,0.764654,-0.502765,0.695634,-0.034216,-0.392743
399,0.393111,0.768022,-0.505563,1.271074,0.301726,-0.074713
400,0.391754,0.776119,-0.494121,0.4812619999999999,-0.457363,-0.036992
401,0.387442,0.783404,-0.485957,-0.368247,-0.641466,0.06985
402,0.377423,0.7898729999999999,-0.483362,-0.604154,-1.034792,0.279002
403,0.357326,0.804856,-0.473826,-0.885601,-1.523957,0.995264
404,0.345308,0.827867,-0.442022,-0.81299,-1.308916,1.092077
405,0.346837,0.852448,-0.39118,-0.676091,-0.945542,0.8917440000000001
406,0.351211,0.8695729999999999,-0.347096,-0.603225,-0.834081,0.206075
407,0.357653,0.8781180000000001,-0.317767,-1.16643,-0.435018,-0.198957
408,0.3738619999999999,0.8767870000000001,-0.302412,-0.77642,-0.525866,-2.039888
409,0.404382,0.874182,-0.268816,-0.126047,6.731714,0.257021
410,0.4176859999999999,0.8640770000000001,-0.280875,0.683754,1.452589,0.450827
411,0.432245,0.843776,-0.318101,-0.273539,-1.209956,0.922166
412,0.423888,0.8556549999999999,-0.29691,0.704286,-1.425601,0.626896
413,0.396336,0.886084,-0.240317,0.025844,-0.659247,0.544211
414,0.354521,0.918551,-0.174805,-0.105864,-0.363894,0.2386329999999999
415,0.305186,0.944668,-0.12017,0.28745,1.7473029999999998,0.183173
416,0.2413949999999999,0.969141,-0.049697,0.235305,0.619391,-0.155015
417,0.182588,0.983073,0.01428,0.537642,0.332418,-0.395262
418,0.140106,0.987469,0.072444,1.346283,0.3427469999999999,-0.652065
419,0.121427,0.98766,0.098764,-0.1066869999999999,0.211452,-0.364114
420,0.115605,0.988467,0.0976799999999999,-0.209263,0.4149609999999999,-0.08857
421,0.1000679999999999,0.990284,0.096415,-0.317766,0.172741,-0.075983
422,0.079266,0.992862,0.088958,-0.2181969999999999,-0.677692,-0.195922
423,0.061526,0.995615,0.070274,-0.110568,-0.8715459999999999,-0.159065
424,0.050691,0.997872,0.0406819999999999,0.144011,-1.237557,-0.175875
425,0.052139,0.998593,0.008267,0.251053,-1.172833,0.083301
426,0.070755,0.997165,-0.025135,-0.028229,-0.8287530000000001,0.098011
427,0.1052099999999999,0.992412,-0.063452,0.387161,-0.457545,-0.54693
428,0.163537,0.977037,-0.136499,1.420447,1.295683,0.1228119999999999
429,0.2580639999999999,0.937381,-0.23388,0.001335,1.96896,0.183542
430,0.33349,0.8882030000000001,-0.316012,-0.202585,1.823895,0.199892
431,0.358533,0.852017,-0.381452,-0.617688,1.031024,0.458356
432,0.381204,0.814914,-0.436561,-0.4588399999999999,0.971722,0.4552529999999999
433,0.403377,0.785622,-0.4691189999999999,0.160603,0.135368,-0.147672
434,0.416485,0.76759,-0.487168,0.238971,0.118045,-0.471434
435,0.415789,0.764374,-0.492788,0.63986,0.362121,-0.473963
436,0.419717,0.759942,-0.4963,0.955023,0.356132,-0.091926
437,0.418859,0.7610979999999999,-0.495252,0.514612,-0.380986,0.084119
438,0.416328,0.763304,-0.493989,-0.1055059999999999,-0.557066,0.181535
439,0.414272,0.766049,-0.491462,-0.655926,-1.028897,0.336417
440,0.402105,0.777384,-0.483707,-0.889791,-1.5293370000000002,1.000415
441,0.394466,0.803346,-0.446115,-0.870556,-1.275025,1.047525
442,0.392819,0.833557,-0.388408,-0.707684,-0.985458,0.654918
443,0.391259,0.8564870000000001,-0.336646,-0.697228,-1.005886,0.4525369999999999
444,0.386745,0.8712129999999999,-0.302321,-1.252437,-0.355115,-0.588334
445,0.38475,0.8724870000000001,-0.301192,-1.085968,2.278789,0.4427779999999999
446,0.399357,0.868505,-0.293591,-1.04549,5.62295,1.109234
447,0.4155939999999999,0.8630909999999999,-0.286948,0.296336,1.725761,0.4314489999999999
448,0.4312609999999999,0.84803,-0.3079659999999999,-0.105485,-1.043663,0.878217
449,0.425756,0.857361,-0.289215,0.917322,-1.470505,0.516617
450,0.400658,0.8884790000000001,-0.223737,0.708671,-0.898443,0.592939
451,0.360567,0.920547,-0.150214,0.038085,0.286774,-0.048684
452,0.314139,0.945185,-0.088986,0.506479,1.276952,-0.055728
453,0.263876,0.964112,-0.028847,0.478281,1.282164,0.085457
454,0.211582,0.976728,0.034774,0.723843,0.498171,-0.092223
455,0.174422,0.980452,0.090902,1.079454,0.587114,-0.5949300000000001
456,0.14905,0.981139,0.122972,0.917738,0.45369,-0.781007
457,0.132013,0.983262,0.125466,-0.311303,0.0249169999999999,-0.278039
458,0.105368,0.986937,0.1217589999999999,-0.4280609999999999,0.091539,-0.116006
459,0.075935,0.990497,0.114551,-0.344841,-0.174808,-0.180744
460,0.052432,0.993793,0.097977,-0.063632,-0.750262,-0.115784
461,0.037937,0.996553,0.073594,0.128094,-1.308412,-0.116852
462,0.039705,0.998012,0.048686,0.294051,-1.375941,-0.081645
463,0.062569,0.997848,0.018963,-0.05201,-0.848449,0.146152
464,0.096231,0.994974,-0.0272329999999999,0.546667,-0.144953,-1.04575
465,0.143889,0.984771,-0.09746,1.583634,1.19046,-0.475523
466,0.22689,0.950969,-0.210144,0.378243,1.994542,0.292328
467,0.307709,0.903295,-0.298925,-0.005035,1.7706400000000002,0.175298
468,0.341034,0.866318,-0.364929,-0.746537,1.803467,0.223892
469,0.362682,0.833788,-0.416228,-0.562145,1.057493,0.487486
470,0.381152,0.8012130000000001,-0.461267,0.344953,0.033656,0.06759
471,0.399383,0.771502,-0.495242,0.268463,-0.148272,-0.334851
472,0.40442,0.755441,-0.515502,0.59082,0.113685,-0.247896
473,0.410009,0.7489210000000001,-0.520576,0.770839,0.285335,-0.06437
474,0.414058,0.75351,-0.5106539999999999,0.690053,-0.33049,-0.351071
475,0.417075,0.757019,-0.502949,-0.19538,-0.55574,0.134694
476,0.4189,0.758851,-0.4986529999999999,-0.759812,-1.219438,0.655803
477,0.402977,0.766829,-0.4995699999999999,-0.794304,-1.6891009999999995,0.8554510000000001
478,0.386261,0.789671,-0.476664,-0.737839,-1.116133,1.095087
479,0.380344,0.8211129999999999,-0.425556,-0.725727,-1.059134,0.839298
480,0.380693,0.8451649999999999,-0.375171,-0.6523909999999999,-1.0314139999999998,0.423465
481,0.382535,0.860884,-0.335454,-1.310376,-0.541578,-0.1244
482,0.389276,0.8669020000000001,-0.3113329999999999,-0.683602,0.2270309999999999,-0.73455
483,0.411796,0.8659040000000001,-0.283929,-0.986564,4.67624,1.7167599999999998
484,0.418436,0.8673120000000001,-0.2695599999999999,0.324362,4.170819,0.514997
485,0.433532,0.8510059999999999,-0.296348,-0.234069,-1.167473,0.724068
486,0.430454,0.852305,-0.2971,0.404888,-1.975352,0.766781
487,0.4136979999999999,0.8763770000000001,-0.246574,0.478835,-0.585957,0.542579
488,0.378015,0.906563,-0.187691,0.022482,0.083336,-0.022164
489,0.334419,0.933221,-0.131303,0.3266679999999999,0.797003,-0.080565
490,0.287806,0.955719,-0.0612049999999999,0.253607,0.580292,-0.166883
491,0.237177,0.971453,-0.001073,0.748953,0.404188,0.087865
492,0.1948109999999999,0.978976,0.06023,1.120862,0.486677,-0.050388
493,0.166075,0.980324,0.106566,0.585527,0.519737,-0.775649
494,0.156783,0.979709,0.124745,-0.349258,0.694226,-0.2858469999999999
495,0.145457,0.98045,0.132406,-0.2908739999999999,0.7174560000000001,-0.175787
496,0.122466,0.983829,0.13059,-0.222579,-0.139667,-0.203329
497,0.0982919999999999,0.988752,0.1126089999999999,-0.1053569999999999,-0.59332,-0.201141
498,0.0797929999999999,0.993543,0.080496,0.020168,-1.056577,-0.091619
499,0.069785,0.99667,0.041868,0.187448,-1.327511,-0.039854
500,0.074069,0.997215,0.007181,0.174557,-1.1624370000000002,0.228384
501,0.094817,0.994974,-0.031837,-0.113067,-0.816995,0.011634
502,0.12952,0.98847,-0.0782809999999999,0.8155640000000001,0.276956,-0.5687989999999999
503,0.182802,0.969862,-0.161029,1.467542,1.213442,0.003192
504,0.275251,0.923308,-0.267809,0.677111,1.764802,0.179048
505,0.362001,0.8679459999999999,-0.340014,0.066695,2.49941,-0.229338
506,0.395412,0.825406,-0.402913,-0.730175,1.431002,0.431187
507,0.413774,0.793872,-0.445584,-0.5048239999999999,0.785367,0.373837
508,0.424043,0.7634850000000001,-0.487099,0.1837,-0.161145,-0.365425
509,0.415926,0.745202,-0.5212180000000001,0.387312,0.147529,-0.196174
510,0.4042969999999999,0.747214,-0.52745,0.735962,0.368738,-0.222504
511,0.413654,0.751374,-0.514116,0.7973140000000001,-0.012833,-0.076826
512,0.422439,0.75753,-0.497675,0.038575,-0.589852,0.1179289999999999
513,0.428228,0.7597430000000001,-0.4892829999999999,-0.276708,-0.734047,0.133494
514,0.4234,0.767062,-0.482012,-0.796828,-1.247683,0.402804
515,0.4116939999999999,0.7822100000000001,-0.467591,-0.976681,-1.613967,0.8555459999999999
516,0.409851,0.808294,-0.422691,-0.884109,-1.025168,0.941581
517,0.41323,0.835046,-0.363211,-0.7408359999999999,-0.881006,0.639197
518,0.4153439999999999,0.853253,-0.315327,-0.767257,-0.966001,0.237781
519,0.417087,0.863032,-0.2849489999999999,-1.307742,-0.500315,-0.179635
520,0.425588,0.8627950000000001,-0.272838,-0.776708,0.8480200000000001,-0.3904
521,0.4469869999999999,0.863952,-0.231883,-0.431774,6.997361,-0.122365
522,0.459583,0.859037,-0.225431,0.556561,0.084216,0.385588
523,0.466938,0.848767,-0.248084,0.028576,-1.038616,0.606162
524,0.450604,0.8627229999999999,-0.229448,0.759586,-1.060873,0.525804
525,0.4187369999999999,0.889483,-0.182918,0.3817239999999999,-0.611132,0.473629
526,0.37696,0.9168,-0.131747,0.242532,0.4452149999999999,-0.204907
527,0.3304829999999999,0.940364,-0.080454,0.716667,1.2913709999999998,0.1831
528,0.273715,0.961746,-0.010022,0.754132,1.094681,-0.076969
529,0.22123,0.973301,0.060958,0.8828959999999999,0.6309779999999999,-0.3199599999999999
530,0.179572,0.976482,0.119196,0.972192,0.521534,-0.552729
531,0.156805,0.976953,0.144721,0.311136,0.277365,-0.594321
532,0.144682,0.978399,0.147553,-0.448805,0.549021,-0.144364
533,0.1238099999999999,0.98178,0.144046,-0.44542,0.300996,-0.229007
534,0.101397,0.986483,0.128606,-0.323366,-0.316775,-0.329625
535,0.08308,0.991236,0.1025619999999999,-0.075161,-1.070658,-0.170021
536,0.072956,0.994955,0.0686539999999999,0.033474,-1.28266,-0.161595
537,0.080657,0.996193,0.032657,0.077759,-1.0371629999999998,0.1102869999999999
538,0.103873,0.994505,-0.011983,-0.103369,-0.830275,0.229848
539,0.13779,0.987741,-0.073194,0.114728,-0.434564,-0.775881
540,0.185777,0.969307,-0.160959,1.759795,1.37754,0.100641
541,0.270404,0.923444,-0.272236,0.078671,2.118548,0.539555
542,0.355392,0.869489,-0.343026,-0.2854,1.551119,0.22004
543,0.386691,0.8270200000000001,-0.408034,-0.468905,1.388464,-0.208726
544,0.405123,0.792751,-0.45542,0.012998,0.235859,0.170828
545,0.418975,0.763845,-0.490904,0.461503,-0.123968,-0.2415489999999999
546,0.4191899999999999,0.7465510000000001,-0.51665,0.347136,-0.096985,-0.340131
547,0.4163,0.741333,-0.526409,0.496069,0.279876,-0.2181739999999999
548,0.419226,0.7406189999999999,-0.52509,0.6225069999999999,-0.125919,0.084615
549,0.422722,0.748526,-0.510883,0.640465,-0.490897,-0.1074339999999999
550,0.4276649999999999,0.7573479999999999,-0.4934699999999999,-0.291267,-0.532235,-0.011871
551,0.416714,0.771109,-0.48138,-0.466626,-0.8272,0.246959
552,0.396236,0.788828,-0.469822,-0.8247030000000001,-1.669931,1.038822
553,0.389242,0.814806,-0.429613,-0.877295,-1.135149,0.941926
554,0.3906679999999999,0.8392620000000001,-0.378155,-0.84303,-0.93144,0.664242
555,0.393163,0.854507,-0.339445,-0.793523,-0.954178,0.427305
556,0.397458,0.861691,-0.315433,-1.3531,-0.464931,-0.03091
557,0.4100109999999999,0.859841,-0.304213,-0.848671,1.002922,-0.252046
558,0.426497,0.8644850000000001,-0.2659809999999999,-1.602965,4.994127,1.664327
559,0.4285279999999999,0.8651639999999999,-0.260451,0.70015,-0.360602,0.660399
560,0.4304689999999999,0.859973,-0.274084,0.3745239999999999,-1.096012,0.5322319999999999
561,0.414506,0.878983,-0.235694,0.94197,-1.842988,0.654776
562,0.382709,0.905482,-0.183337,0.178173,-0.597133,-0.041669
563,0.339389,0.931192,-0.132936,0.221494,-0.622842,-0.09207
564,0.2878469999999999,0.953989,-0.083807,0.958902,1.309515,0.092489
565,0.229041,0.973214,-0.0191819999999999,0.912591,1.006675,-0.029677
566,0.183679,0.981547,0.052897,1.058066,0.484227,-0.3426
567,0.150071,0.982774,0.107717,0.803466,0.4771109999999999,-0.6772060000000001
568,0.131321,0.983602,0.123489,-0.087971,0.000666,-0.676834
569,0.118393,0.986805,0.110305,-0.411484,0.069072,-0.203475
570,0.098684,0.990901,0.091362,-0.502904,0.093206,-0.140328
571,0.075744,0.994762,0.0684169999999999,-0.352035,-0.387264,0.070133
572,0.056116,0.997507,0.042457,-0.21235,-0.925867,-0.0215379999999999
573,0.044804,0.998905,0.012374,0.034206,-1.347797,1.6e-05
574,0.0542659999999999,0.998306,-0.020331,0.148203,-1.01918,0.347387
575,0.081283,0.994438,-0.066784,-0.060607,-0.71212,0.012661
576,0.125414,0.983635,-0.129266,0.470152,-0.075264,-0.495459
577,0.194573,0.950578,-0.24191,1.158378,1.618529,0.166044
578,0.298086,0.894021,-0.334443,1.054865,1.675086,0.258576
579,0.365168,0.840666,-0.399895,-0.061869,1.75107,-0.443168
580,0.3906199999999999,0.81228,-0.433129,-0.88531,1.113135,0.416543
581,0.4072989999999999,0.7883789999999999,-0.461032,0.285938,0.029355,-0.171719
582,0.410762,0.7661600000000001,-0.494226,0.380299,-0.073044,-0.308844
583,0.402746,0.756113,-0.515824,0.444392,0.2096,-0.22705
584,0.40258,0.754047,-0.518968,0.615608,0.223751,0.102357
585,0.411381,0.75859,-0.505265,0.798122,-0.630629,0.1843119999999999
586,0.420076,0.758595,-0.498052,-0.4565439999999999,-0.7965899999999999,-0.042949
587,0.410179,0.767696,-0.4923229999999999,-0.672523,-1.045848,0.205717
588,0.3875389999999999,0.785666,-0.48221,-0.811841,-1.594047,0.80974
589,0.377667,0.8104020000000001,-0.447884,-0.881726,-1.234123,1.052132
590,0.3733599999999999,0.837126,-0.399757,-0.74337,-0.943922,0.929069
591,0.365853,0.85821,-0.360011,-0.5630729999999999,-0.935252,0.526408
592,0.358357,0.8677819999999999,-0.344262,-1.137455,-0.333984,-0.156134
593,0.369691,0.866,-0.336682,-0.832673,2.53494,0.7568779999999999
594,0.400632,0.858143,-0.321038,-0.628125,6.339321,-0.090827
595,0.425101,0.8307040000000001,-0.359446,-0.514792,-1.220765,0.806086
596,0.421466,0.823285,-0.3801989999999999,-0.358752,-1.464673,0.979076
597,0.397109,0.851909,-0.341376,0.46068,-0.715206,1.084601
598,0.353023,0.897457,-0.264433,0.234578,0.044513,0.676619
599,0.297902,0.936996,-0.182401,0.355083,0.403534,0.113065
600,0.2482059999999999,0.962917,-0.105643,0.318445,1.4568219999999998,0.152259
601,0.192055,0.981046,-0.025228,0.974892,0.498003,-0.07786
602,0.147015,0.988105,0.044804,1.239444,0.379876,-0.376682
603,0.115764,0.989782,0.083076,0.619786,0.075038,-0.849434
604,0.100465,0.990912,0.089279,-0.524995,-0.19744,-0.2883449999999999
605,0.085966,0.992155,0.0906039999999999,-0.818754,0.192889,-0.063657
606,0.063835,0.993542,0.093648,-0.4863659999999999,0.210758,-0.106313
607,0.045825,0.995648,0.080972,-0.221606,-0.413037,-0.025583
608,0.032333,0.997958,0.054821,0.125168,-1.211017,-0.139919
609,0.032143,0.999174,0.024327,0.344398,-1.464002,-0.039006
610,0.0567429999999999,0.998345,-0.007842,0.210744,-0.634117,-0.123796
611,0.099746,0.993625,-0.0523039999999999,0.841996,0.17471,-0.491992
612,0.171933,0.974157,-0.146405,1.79465,0.943522,-0.198993
613,0.259978,0.931984,-0.252582,0.118272,1.527474,0.277134
614,0.306199,0.89056,-0.336345,0.07466,1.670537,0.186793
615,0.316317,0.869402,-0.379561,-1.023791,1.556638,0.5832510000000001
616,0.327664,0.843791,-0.425014,-0.366375,0.1925089999999999,0.32864
617,0.344969,0.822786,-0.4516699999999999,0.089022,0.038207,-0.052908
618,0.368848,0.801954,-0.4699,0.104952,0.091967,-0.2479039999999999
619,0.387977,0.782968,-0.486232,0.298699,-0.007653,-0.429906
620,0.40493,0.7724840000000001,-0.4891689999999999,0.636437,-0.401696,0.047122
621,0.41396,0.770967,-0.483976,0.379314,-0.528077,0.112166
622,0.4213949999999999,0.7718189999999999,-0.476138,-0.164391,-0.745162,0.113513
623,0.414585,0.7783260000000001,-0.471501,-0.7227819999999999,-1.508811,0.7262460000000001
624,0.398312,0.800674,-0.447497,-0.94566,-1.560943,0.931964
625,0.386141,0.8314020000000001,-0.399561,-0.738207,-1.194485,0.97761
626,0.383791,0.855611,-0.3473,-0.5807359999999999,-1.096883,0.617426
627,0.384393,0.8700030000000001,-0.308736,-0.552484,-1.024605,0.080282
628,0.386652,0.8762469999999999,-0.287528,-0.968027,-0.691174,-0.132393
629,0.402618,0.8725620000000001,-0.2766139999999999,-0.658508,-0.070377,-2.860594
630,0.42432,0.874664,-0.234298,-0.64127,7.089111999999999,1.347244
631,0.4482359999999999,0.862361,-0.235367,0.4343479999999999,-0.6567029999999999,0.689484
632,0.458621,0.84425,-0.277291,-0.752062,-2.119854,1.362069
633,0.4595479999999999,0.8573790000000001,-0.231725,0.5381779999999999,-1.849932,0.408422
634,0.423986,0.8908860000000001,-0.162898,0.435434,-0.3941969999999999,-0.078664
635,0.365954,0.922074,-0.125834,0.186964,0.430312,-0.053488
636,0.299513,0.951724,-0.066997,0.702257,1.678632,0.581936
637,0.232961,0.972453,-0.006184,0.426295,0.983053,-0.064296
638,0.190165,0.980083,0.056991,0.194357,0.341512,-0.122588
639,0.160604,0.981736,0.101839,1.450496,0.6365350000000001,-0.317553
640,0.143173,0.982188,0.121564,0.058976,-0.354976,-0.723341
641,0.130315,0.983687,0.123886,-0.151281,-0.19226,-0.603576
642,0.113053,0.986912,0.114865,-0.419068,0.201122,-0.363019
643,0.094325,0.99077,0.097202,-0.285944,-0.533846,-0.086903
644,0.080062,0.994224,0.071281,-0.212783,-0.763053,-0.162849
645,0.076456,0.996174,0.041995,0.227942,-1.325642,-0.043674
646,0.092679,0.995591,0.013516,0.151233,-0.906159,0.358691
647,0.1236039999999999,0.991893,-0.029053,-0.07914,-0.7252,0.171646
648,0.168591,0.982135,-0.083449,1.390995,0.659162,-0.614808
649,0.246139,0.950621,-0.188979,0.616075,1.908418,0.588302
650,0.333442,0.901219,-0.276769,-0.14875,1.772197,0.361669
651,0.372766,0.862361,-0.3425809999999999,-0.6370779999999999,2.129842,0.137045
652,0.389679,0.831752,-0.395378,-0.5489350000000001,1.1415,0.496147
653,0.409531,0.79887,-0.44054,-0.313263,0.321705,0.346043
654,0.429733,0.7689600000000001,-0.473304,0.224075,-0.074166,-0.257134
655,0.439455,0.745854,-0.500568,0.04286,0.175762,-0.2560389999999999
656,0.4412029999999999,0.7350300000000001,-0.514838,0.193868,0.232621,-0.253152
657,0.442705,0.736034,-0.5121060000000001,0.691908,0.103138,0.01177
658,0.443106,0.743653,-0.500624,0.31878,-0.347794,-0.023165
659,0.445084,0.750047,-0.4892,0.012085,-0.441804,0.0226169999999999
660,0.434778,0.7584270000000001,-0.485534,-0.518778,-1.026996,0.242675
661,0.4176539999999999,0.776225,-0.472256,-0.7710319999999999,-1.562571,1.035839
662,0.407094,0.806516,-0.4287069999999999,-0.8476610000000001,-1.383772,1.088482
663,0.398554,0.835225,-0.378861,-0.721934,-0.967275,0.566682
664,0.390783,0.8556860000000001,-0.339221,-0.770254,-0.929081,0.032519
665,0.384633,0.866194,-0.318977,-1.187993,-0.557081,-0.076454
666,0.391401,0.8652209999999999,-0.313335,-0.667524,0.032912,-1.355793
667,0.4139739999999999,0.8637040000000001,-0.287438,-0.360248,7.097996000000001,0.332574
668,0.443329,0.847778,-0.291052,0.172271,-0.149506,0.423193
669,0.455719,0.82889,-0.324412,-0.4403229999999999,-1.355791,1.146128
670,0.447185,0.846405,-0.289144,0.943303,-1.025284,0.369908
671,0.415134,0.8807659999999999,-0.227801,0.731731,-0.482145,0.326876
672,0.37238,0.911812,-0.172941,0.186305,-0.0208819999999999,-0.1462119999999999
673,0.320348,0.939535,-0.120939,0.533503,1.405008,0.209455
674,0.258007,0.964257,-0.060127,0.344578,0.0716929999999999,-0.021187
675,0.207877,0.978141,0.000397,0.276712,0.11503,0.101242
676,0.171638,0.983364,0.059203,1.013939,0.382175,-0.4784069999999999
677,0.151191,0.984288,0.091037,0.7930229999999999,0.1917829999999999,-0.687839
678,0.138958,0.985781,0.094315,-0.133663,0.025419,-0.567857
679,0.1206119999999999,0.988574,0.09024,-0.3064179999999999,0.1078,-0.16249
680,0.096164,0.992076,0.080674,-0.410175,-0.154933,-0.134339
681,0.073744,0.995398,0.060959,-0.255598,-0.563971,-0.133316
682,0.060333,0.997644,0.032232,-0.1267849999999999,-1.027123,-0.055334
683,0.06057,0.99815,7.8e-05,0.154869,-1.312619,0.010084
684,0.0806549999999999,0.996059,-0.036527,0.185,-0.993313,0.358869
685,0.116862,0.990052,-0.0782009999999999,-0.0543159999999999,-0.702882,-0.2413489999999999
686,0.1710539999999999,0.973718,-0.150304,1.0103879999999998,0.068107,-0.244975
687,0.261203,0.930293,-0.257503,0.696682,1.714452,0.275478
688,0.339652,0.876395,-0.341395,0.102639,1.7922759999999998,-0.060124
689,0.363384,0.84021,-0.402471,-0.643886,1.778503,-0.027247
690,0.384341,0.806433,-0.44937,-0.742496,1.26063,0.45407
691,0.403501,0.774005,-0.4879449999999999,-0.016782,0.339628,0.114074
692,0.420151,0.743831,-0.519785,0.239182,0.127584,-0.192557
693,0.4258109999999999,0.728437,-0.536704,0.637696,0.2446159999999999,-0.279901
694,0.435114,0.7301770000000001,-0.526787,0.792471,-0.119489,-0.215934
695,0.4431449999999999,0.7388680000000001,-0.507626,0.505784,-0.315436,-0.398853
696,0.4441449999999999,0.7437090000000001,-0.499619,0.009713,-0.669017,0.121567
697,0.4328979999999999,0.751818,-0.49735,-0.628179,-1.295214,0.553929
698,0.4125729999999999,0.7687609999999999,-0.4886479999999999,-0.722327,-1.662468,0.787506
699,0.4048219999999999,0.7984100000000001,-0.445697,-0.846915,-1.22651,1.095126
700,0.403414,0.829658,-0.385887,-0.749178,-0.924705,0.649269
701,0.402602,0.851477,-0.335977,-0.666975,-0.951071,0.194437
702,0.402839,0.8635860000000001,-0.303185,-1.1257549999999998,-0.61531,-0.103691
703,0.4096149999999999,0.864139,-0.292335,-0.7217640000000001,-0.431324,-1.34858
704,0.436945,0.8601260000000001,-0.263137,-1.383677,3.230694,1.953552
705,0.455427,0.8529629999999999,-0.2549889999999999,0.16054,6.210376,0.31076
706,0.476725,0.832284,-0.2828699999999999,-0.553446,-0.789011,0.8954799999999999
707,0.471459,0.8374209999999999,-0.276463,0.6742020000000001,-1.921466,0.654149
708,0.44232,0.868533,-0.223567,1.008105,-1.549517,0.307353
709,0.392761,0.904062,-0.168487,0.321777,-0.201898,0.225692
710,0.335411,0.934812,-0.116622,0.650704,1.307879,0.181472
711,0.269946,0.961232,-0.056004,0.685987,1.317592,0.0065349999999999
712,0.2148949999999999,0.976509,0.014922,0.215434,0.150383,-0.181166
713,0.178584,0.981087,0.0744659999999999,0.262578,0.191581,-0.291736
714,0.160123,0.980517,0.113644,0.979923,0.508634,-0.669094
715,0.153594,0.980437,0.1229619999999999,0.061265,-0.143478,-0.78466
716,0.146143,0.983335,0.107998,-0.434077,0.1208829999999999,-0.120144
717,0.127495,0.988067,0.086248,-0.492424,-0.1491839999999999,-0.1132109999999999
718,0.10527,0.992591,0.060427,-0.339294,-0.525245,-0.0289019999999999
719,0.086391,0.99577,0.0308029999999999,-0.2510949999999999,-1.020016,-0.036342
720,0.076719,0.997038,0.00065,0.035952,-1.363005,0.037558
721,0.087207,0.995668,-0.0318079999999999,0.18205,-1.062548,0.381662
722,0.113796,0.990482,-0.077257,-0.069607,-0.642994,-0.104949
723,0.158165,0.977141,-0.141964,0.7869189999999999,0.063569,-0.449924
724,0.2440119999999999,0.936834,-0.250557,1.27259,1.566325,0.393517
725,0.335608,0.8790190000000001,-0.338636,-0.280798,1.6577400000000002,0.081586
726,0.375844,0.833225,-0.405536,-0.515904,2.224407,-0.090436
727,0.3970619999999999,0.803233,-0.444008,-0.804045,1.424489,0.496559
728,0.411508,0.774509,-0.480397,0.14411,0.196667,0.111149
729,0.419137,0.747301,-0.515608,0.4234989999999999,0.083845,-0.3472
730,0.41272,0.733917,-0.539458,0.286575,0.273163,-0.201417
731,0.412559,0.736208,-0.536451,0.675621,0.097823,0.034727
732,0.41847,0.747066,-0.5164880000000001,0.5921960000000001,-0.290066,-0.068518
733,0.4252689999999999,0.755005,-0.4990989999999999,0.151514,-0.579361,-0.085557
734,0.426253,0.7622770000000001,-0.48706,-0.4777979999999999,-0.756997,0.131454
735,0.41617,0.775461,-0.474813,-0.7197439999999999,-1.232752,0.487142
736,0.4136,0.795983,-0.4419619999999999,-0.879481,-1.341271,0.944037
737,0.41402,0.822148,-0.3906949999999999,-0.832355,-1.161564,0.813577
738,0.409202,0.8441110000000001,-0.346427,-0.648185,-0.920969,0.374625
739,0.400159,0.858656,-0.320253,-0.658216,-0.8518819999999999,0.074144
740,0.395399,0.865676,-0.306994,-0.967863,-0.59619,0.042834
741,0.407917,0.867399,-0.284958,-0.988651,3.79233,2.827225
742,0.430849,0.8678469999999999,-0.247363,0.68579,5.488277,-0.043256
743,0.45407,0.8489180000000001,-0.270439,0.246797,0.310262,0.265876
744,0.456608,0.8392629999999999,-0.295171,0.179729,-1.7168419999999998,0.723745
745,0.4419729999999999,0.8596879999999999,-0.256078,0.730269,-1.418953,0.38149
746,0.406653,0.8904540000000001,-0.204211,0.36271,-0.614438,0.4859949999999999
747,0.361627,0.919438,-0.154384,0.091346,0.435191,-0.023808
748,0.308378,0.94669,-0.093026,0.875994,1.656108,0.2735829999999999
749,0.241257,0.970257,-0.0191789999999999,0.694351,1.516193,-0.004
750,0.193708,0.979865,0.048073,0.65932,0.557183,-0.368431
751,0.161777,0.982318,0.094058,0.996731,0.534115,-0.521746
752,0.144609,0.983166,0.111535,0.640104,0.148883,-0.72123
753,0.132119,0.985345,0.107744,-0.2299739999999999,0.076484,-0.2312179999999999
754,0.110855,0.98874,0.10036,-0.319275,-0.0186169999999999,-0.253894
755,0.0883559999999999,0.992258,0.087092,-0.263237,-0.270625,-0.253748
756,0.0722889999999999,0.995261,0.0648,-0.143715,-0.946128,-0.110348
757,0.06854,0.997056,0.033932,0.115863,-1.414857,-0.165173
758,0.084214,0.996433,-0.000153,0.13121,-0.938282,0.3437199999999999
759,0.113187,0.992352,-0.048984,-0.0268829999999999,-0.7840689999999999,0.134739
760,0.154589,0.981657,-0.111472,0.550581,-0.418653,-0.7925810000000001
761,0.219952,0.947962,-0.230143,0.972843,2.705175,0.319667
762,0.317042,0.8954690000000001,-0.3124099999999999,-0.270457,2.762902,0.205476
763,0.361937,0.8558680000000001,-0.369423,-1.083021,1.946287,0.270775
764,0.380598,0.8237760000000001,-0.4201439999999999,-0.873411,1.100754,0.750024
765,0.405744,0.783533,-0.470566,-0.143293,0.477209,0.247406
766,0.423434,0.749343,-0.509092,0.12718,-0.191527,-0.098574
767,0.422131,0.7365430000000001,-0.528485,0.011783,-0.139176,-0.4190399999999999
768,0.42528,0.737887,-0.524066,0.642103,0.151578,-0.519895
769,0.425112,0.743799,-0.51578,1.191083,-0.025384,-0.25192
770,0.41941,0.7512949999999999,-0.509546,0.692742,-0.615262,0.186518
771,0.420514,0.757128,-0.49991,-0.047559,-0.709612,0.268251
772,0.412041,0.767532,-0.491021,-0.661065,-1.342773,0.588006
773,0.404645,0.788305,-0.463488,-0.955869,-1.278936,1.049929
774,0.404869,0.816398,-0.411775,-0.992668,-1.068717,0.8678450000000001
775,0.4085519999999999,0.8392639999999999,-0.358751,-0.865202,-0.8917229999999999,0.5131399999999999
776,0.410164,0.8533350000000001,-0.321816,-0.853691,-0.947939,0.195122
777,0.4131399999999999,0.855,-0.313483,-1.323677,-0.368183,-0.652216
778,0.424081,0.848051,-0.317717,-1.602654,3.1073630000000003,1.43019
779,0.4483069999999999,0.8385299999999999,-0.309625,0.4201319999999999,6.340868,0.188058
780,0.454506,0.8228270000000001,-0.341115,0.270515,-0.3093079999999999,0.748296
781,0.430001,0.839298,-0.332653,1.095222,-1.57259,0.8988
782,0.397146,0.872719,-0.283929,1.15951,-1.7706990000000002,0.246423
783,0.367516,0.902839,-0.2231409999999999,-0.216881,-0.603171,0.4329189999999999
784,0.330026,0.930736,-0.157442,0.326148,0.600254,-0.4519479999999999
785,0.293955,0.951486,-0.090765,0.641897,0.89115,-0.261438
786,0.24778,0.968734,-0.011479,0.818489,0.586869,0.0850419999999999
787,0.210775,0.975898,0.056264,0.977915,0.805107,-0.5063979999999999
788,0.187744,0.977596,0.095008,0.7224729999999999,0.909901,-0.8378059999999999
789,0.171448,0.98061,0.094748,-0.093475,0.429195,-0.579505
790,0.145169,0.985936,0.082616,-0.293805,0.266704,0.239115
791,0.114623,0.991071,0.067894,-0.269301,0.022677,0.211586
792,0.088286,0.995003,0.046304,-0.0515429999999999,-0.734841,0.0055
793,0.071671,0.997241,0.018549,-0.025361,-1.240008,-0.100382
794,0.070611,0.997438,-0.010168,0.10282,-1.46866,-0.081171
795,0.090899,0.994763,-0.046442,0.2515699999999999,-1.3126799999999998,0.03007
796,0.123639,0.987215,-0.100466,-0.158246,-0.672426,-0.114652
797,0.170241,0.971022,-0.1676619999999999,0.1046,-0.6437970000000001,-0.365556
798,0.242157,0.927174,-0.28581,1.541519,1.835521,0.011656
799,0.332588,0.8678620000000001,-0.369029,-0.186622,2.85162,-0.186071
800,0.369667,0.821157,-0.434778,-0.223701,2.898326,-0.120321
801,0.3875639999999999,0.791061,-0.473287,-0.6597350000000001,0.5970310000000001,0.400152
802,0.402459,0.764314,-0.5038229999999999,0.219428,0.1195519999999999,0.086785
803,0.409358,0.742695,-0.529921,0.493519,0.041454,-0.273362
804,0.4110069999999999,0.732949,-0.542077,0.317417,0.0946419999999999,-0.145469
805,0.421604,0.7285020000000001,-0.539928,0.5531729999999999,0.090681,-0.009618
806,0.433381,0.732432,-0.525081,0.625685,-0.616359,-0.209111
807,0.440955,0.736663,-0.5127109999999999,0.241358,-0.5922689999999999,-0.141799
808,0.429414,0.749703,-0.503522,-0.411958,-1.199655,0.3230719999999999
809,0.4041349999999999,0.772505,-0.489792,-0.877569,-1.698332,0.94423
810,0.385571,0.803426,-0.453681,-1.002148,-1.015798,1.082847
811,0.375633,0.83015,-0.411989,-0.687339,-0.7951159999999999,0.807756
812,0.364825,0.847231,-0.386115,-0.6103689999999999,-0.852404,0.452903
813,0.357459,0.856283,-0.372808,-0.810294,-0.753408,0.221013
814,0.363404,0.8570040000000001,-0.365327,-1.366959,-0.2287239999999999,-0.7127220000000001
815,0.385126,0.8653430000000001,-0.320688,-1.478876,4.338941999999999,3.746149
816,0.397437,0.8647879999999999,-0.306865,0.241082,3.485447,-0.201299
817,0.437011,0.830081,-0.346365,-0.210204,-1.469913,0.908942
818,0.450899,0.8275809999999999,-0.334336,0.26544,-1.481466,0.581132
819,0.44047,0.8539530000000001,-0.277003,1.059698,-1.103327,0.275462
820,0.400122,0.88749,-0.228567,0.482431,-0.621422,-0.033411
821,0.351926,0.917022,-0.187606,0.224673,0.8868719999999999,0.070647
822,0.294164,0.947205,-0.127461,0.787058,1.6978,0.255436
823,0.24298,0.967773,-0.065958,0.193726,0.462418,0.070444
824,0.2035819999999999,0.979014,-0.007605,1.098893,0.4356279999999999,-0.111917
825,0.189106,0.981316,0.035068,1.180157,0.508858,-0.756626
826,0.180728,0.982102,0.052761,0.287167,-0.008301,-0.607159
827,0.164458,0.984681,0.0576919999999999,-0.341445,0.05461,-0.174009
828,0.1358089999999999,0.988897,0.06009,-0.5615439999999999,-0.00115,-0.112718
829,0.105276,0.993182,0.049787,-0.243902,-0.538683,-0.056211
830,0.081446,0.996455,0.020437,-0.089273,-0.8075359999999999,-0.084143
831,0.070408,0.997406,-0.014085,0.119229,-1.266418,-0.109572
832,0.08302,0.995627,-0.042532,0.2439599999999999,-1.051306,0.1108
833,0.1112359999999999,0.990299,-0.083123,0.030839,-0.904789,0.380562
834,0.1477359999999999,0.979249,-0.138647,-0.162446,-0.6129,-0.139276
835,0.204297,0.947156,-0.2472619999999999,1.86478,2.219974,0.4996569999999999
836,0.294921,0.892634,-0.340894,0.420228,2.572194,0.6461
837,0.348341,0.837836,-0.420326,-0.8680709999999999,2.065973,0.370903
838,0.363456,0.797165,-0.4820939999999999,-0.719123,0.674668,0.528252
839,0.3876219999999999,0.754528,-0.52955,-0.559116,0.609043,0.594934
840,0.406369,0.718681,-0.564226,0.428272,0.133568,0.138139
841,0.4096229999999999,0.699183,-0.585954,0.623367,-0.084727,-0.4801319999999999
842,0.40849,0.692658,-0.594433,0.586368,0.190215,-0.405186
843,0.408501,0.698295,-0.587792,0.734626,0.2661219999999999,-0.20954
844,0.398495,0.7143,-0.575296,0.442692,-0.36083,-0.084845
845,0.394023,0.72732,-0.5619069999999999,-0.217495,-0.6274810000000001,0.175768
846,0.38087,0.741028,-0.552996,-0.635997,-1.2686309999999998,0.520189
847,0.362713,0.761768,-0.536783,-0.78822,-1.667042,0.8266690000000001
848,0.360087,0.792094,-0.49286,-0.7474310000000001,-1.009715,0.8006300000000001
849,0.362266,0.820874,-0.4414899999999999,-0.654045,-0.956922,0.66169
850,0.360579,0.841601,-0.402089,-0.5937640000000001,-0.901125,0.3826489999999999
851,0.356885,0.854173,-0.37816,-0.677183,-0.754792,0.14406
852,0.36054,0.858978,-0.363525,-1.047643,-0.38591,-0.340027
853,0.3789119999999999,0.865374,-0.327924,-0.64057,3.020063,3.047025
854,0.3821449999999999,0.8721780000000001,-0.305372,0.402416,6.175048,0.022626
855,0.405212,0.849001,-0.339091,-0.282394,-1.003374,0.715892
856,0.407813,0.8365100000000001,-0.365953,-0.385322,-1.683816,0.6925060000000001
857,0.406384,0.857175,-0.31636,0.348773,-1.208738,0.656967
858,0.381449,0.888774,-0.254082,0.486044,-0.6808270000000001,0.231438
859,0.343715,0.918042,-0.197578,0.198903,0.303195,0.251426
860,0.293579,0.947344,-0.127778,0.8523860000000001,1.615294,0.116898
861,0.233846,0.970626,-0.056346,0.396082,0.8241430000000001,0.043605
862,0.188116,0.982081,0.010033,0.831568,0.641393,-0.259132
863,0.158103,0.986086,0.05107,1.3150879999999998,0.36041,-0.416411
864,0.142927,0.987602,0.064683,1.038667,0.2198099999999999,-0.558976
865,0.134034,0.988559,0.068964,-0.213364,0.093609,-0.351038
866,0.117543,0.990676,0.0686659999999999,-0.308415,-0.0694419999999999,-0.359178
867,0.0979049999999999,0.993395,0.059595,-0.2993969999999999,-0.248995,-0.2762239999999999
868,0.081193,0.995946,0.03834,-0.235948,-0.384343,-0.1044099999999999
869,0.073463,0.997266,0.00596,0.047341,-1.092298,-0.168436
870,0.082312,0.996204,-0.0278339999999999,0.29815,-1.353031,0.029772
871,0.109264,0.991799,-0.066104,-0.064663,-0.798852,0.188907
872,0.148307,0.982425,-0.113238,0.545892,-0.2369869999999999,-0.880109
873,0.202781,0.957077,-0.207028,1.604683,0.812667,-0.552021
874,0.292782,0.904069,-0.311318,-0.240032,1.957229,0.428322
875,0.348532,0.854252,-0.3856969999999999,-0.74552,2.46365,0.028977
876,0.3612599999999999,0.8245600000000001,-0.435403,-0.8790520000000001,1.454005,0.302194
877,0.378456,0.791067,-0.480593,-0.227119,0.1905619999999999,0.347201
878,0.393592,0.760463,-0.5164949999999999,0.1274809999999999,-0.032878,0.1913
879,0.401382,0.734454,-0.547227,0.266175,0.062268,-0.067901
880,0.40506,0.7223,-0.560533,0.442825,0.049932,-0.4577779999999999
881,0.411285,0.728889,-0.5473140000000001,0.838517,0.093697,-0.286778
882,0.415601,0.7463890000000001,-0.519774,0.838992,-0.402075,-0.15294
883,0.421759,0.754838,-0.502319,-0.19364,-0.641679,0.136214
884,0.420754,0.76039,-0.494731,-0.52018,-1.0246879999999998,0.3385869999999999
885,0.42025,0.7791319999999999,-0.46511,-0.881279,-1.849857,0.70745
886,0.419706,0.8094060000000001,-0.410722,-0.919965,-1.092105,0.882768
887,0.416064,0.834125,-0.362089,-0.526583,-0.8285549999999999,0.386259
888,0.409523,0.849719,-0.332039,-0.483803,-0.8526940000000001,0.229683
889,0.402654,0.858632,-0.317177,-0.7001850000000001,-0.7419020000000001,0.033027
890,0.402373,0.860416,-0.312666,-0.917144,-0.390491,-2.167573
891,0.424446,0.865041,-0.267446,-0.525734,6.314753,2.215657
892,0.436921,0.859432,-0.265436,0.614776,2.0752,-0.126776
893,0.459439,0.834407,-0.304404,-0.618024,-1.287455,1.113379
894,0.461875,0.830857,-0.310368,0.268822,-2.255219,0.561024
895,0.4436449999999999,0.8578969999999999,-0.259171,0.439213,-0.724642,0.5266109999999999
896,0.404184,0.8892690000000001,-0.214038,-0.001138,-0.585299,0.064029
897,0.359572,0.918012,-0.167142,0.099504,1.04761,0.223478
898,0.302011,0.949003,-0.090311,0.575583,1.891909,-0.05483
899,0.253245,0.967137,-0.02198,0.123525,0.192622,-0.004768
900,0.2115949999999999,0.976592,0.038266,1.436522,0.448884,-0.318723
901,0.188838,0.979173,0.074351,1.103215,-0.126527,-0.693934
902,0.182313,0.980103,0.078279,0.17697,-0.112778,-0.618654
903,0.175149,0.981668,0.074958,-0.405511,0.454215,-0.150321
904,0.157068,0.985243,0.067775,-0.412713,0.0028399999999999,-0.063639
905,0.1385829999999999,0.989089,0.049668,-0.325946,-0.498976,-0.198426
906,0.126279,0.991752,0.021235,-0.134091,-0.908363,-0.115229
907,0.123386,0.992288,-0.010567,0.0828059999999999,-1.236047,-0.099144
908,0.135673,0.98987,-0.041504,0.193261,-1.143968,0.098739
909,0.161986,0.983419,-0.081362,-0.0222,-0.780554,0.28084
910,0.199102,0.971439,-0.128987,-0.095327,-0.667316,-0.102474
911,0.258287,0.941358,-0.217047,1.478346,1.025729,-0.2509699999999999
912,0.345404,0.887566,-0.304799,0.115564,2.203758,0.3371929999999999
913,0.390442,0.8408329999999999,-0.37488,-0.465088,2.264452,0.472033
914,0.403088,0.808465,-0.42882,-0.438687,1.329795,0.4915029999999999
915,0.421551,0.775842,-0.469412,-0.382031,0.504065,0.381109
916,0.443907,0.746732,-0.4953,0.327806,0.068209,-0.123245
917,0.4561159999999999,0.722278,-0.519864,0.294128,0.2095,-0.247653
918,0.459043,0.712541,-0.530613,1.036914,-0.011598,-0.060939
919,0.463534,0.720915,-0.515173,0.7579020000000001,-0.081313,-0.455103
920,0.458553,0.73148,-0.50463,0.473088,-0.181889,-0.513787
921,0.4498939999999999,0.744318,-0.49353,-0.037785,-0.673273,0.154769
922,0.4319189999999999,0.759312,-0.486699,-0.5767100000000001,-1.069783,0.547719
923,0.404903,0.77965,-0.4776859999999999,-0.722301,-1.477785,0.8475290000000001
924,0.389063,0.807504,-0.4433399999999999,-0.778818,-1.379404,0.940136
925,0.383613,0.835404,-0.393603,-0.751243,-0.925049,0.607333
926,0.384254,0.854756,-0.348886,-0.652442,-0.897252,0.2466219999999999
927,0.386944,0.864641,-0.32039,-1.074551,-0.8267540000000001,0.0592049999999999
928,0.399348,0.8651629999999999,-0.303304,-0.951075,-0.486821,-1.018641
929,0.423579,0.863549,-0.273575,-1.1487379999999998,1.934181,0.8334969999999999
930,0.4374989999999999,0.8620469999999999,-0.255826,-0.205749,6.669035000000001,0.197644
931,0.462376,0.8435159999999999,-0.273255,-0.1097,-1.007212,0.900773
932,0.4629649999999999,0.846527,-0.262743,-0.168959,-1.3687280000000002,1.051378
933,0.4404229999999999,0.8746370000000001,-0.202519,0.627479,-0.717014,0.485722
934,0.399064,0.90516,-0.146311,-0.05092,-0.191675,-0.288122
935,0.346928,0.932584,-0.099505,0.17448,0.68706,-0.268873
936,0.285181,0.957831,-0.03469,0.52622,1.3263790000000002,-0.311181
937,0.232411,0.972311,0.023807,0.64384,0.227213,0.079846
938,0.191347,0.978277,0.079561,1.344435,0.485834,-0.3900619999999999
939,0.167839,0.979648,0.109947,0.5906600000000001,0.092145,-0.6101
940,0.153675,0.981527,0.113823,-0.318531,0.218104,-0.329018
941,0.134001,0.98486,0.109831,-0.492263,0.297611,-0.284529
942,0.107027,0.989714,0.094758,-0.299212,-0.2316119999999999,-0.266816
943,0.082562,0.99412,0.069838,-0.187695,-0.698314,-0.054198
944,0.067077,0.996941,0.03974,0.045747,-1.198708,-0.137823
945,0.069308,0.997522,0.0107549999999999,0.258359,-1.275293,-0.049375
946,0.090499,0.995662,-0.020918,0.065034,-1.014812,0.131803
947,0.121683,0.9899,-0.072551,-0.142801,-0.691515,0.066005
948,0.161482,0.977128,-0.138274,0.6961390000000001,-0.1945349999999999,-1.2697459999999998
949,0.23693,0.941041,-0.2414199999999999,1.6476529999999998,2.666762,0.910427
950,0.312634,0.8943190000000001,-0.320052,-0.367475,1.7178939999999998,0.4239489999999999
951,0.3371619999999999,0.858482,-0.38641,-0.886295,1.423485,0.299145
952,0.3608679999999999,0.8217200000000001,-0.44106,-0.513838,1.086162,0.5117079999999999
953,0.384603,0.786101,-0.483851,0.118647,0.293245,0.160654
954,0.404063,0.75812,-0.511833,0.49706,-0.112765,-0.283577
955,0.404125,0.738522,-0.5396810000000001,0.26894,0.1549869999999999,-0.447654
956,0.393099,0.733772,-0.554111,0.883848,0.117363,-0.096417
957,0.39229,0.743069,-0.542167,0.99124,-0.274395,-0.159005
958,0.396983,0.7521359999999999,-0.526007,0.178899,-0.576126,-0.080149
959,0.40543,0.762468,-0.5042369999999999,-0.472004,-0.759401,0.074351
960,0.398563,0.778439,-0.484939,-0.79964,-1.352048,0.552245
961,0.392989,0.801758,-0.450254,-0.904616,-1.119949,0.980344
962,0.393527,0.8261709999999999,-0.4031889999999999,-0.780032,-0.989318,0.791525
963,0.3926929999999999,0.843827,-0.365692,-0.678613,-0.851425,0.4398189999999999
964,0.390966,0.8530110000000001,-0.3456869999999999,-0.780721,-0.902861,0.302489
965,0.39543,0.8562540000000001,-0.332332,-1.254149,-0.475365,0.235073
966,0.408296,0.854807,-0.320282,-1.031419,1.260733,0.162461
967,0.414656,0.8721129999999999,-0.259728,-0.392714,7.09473,0.04879
968,0.43276,0.859334,-0.272477,1.359583,3.214046,0.3400579999999999
969,0.450405,0.842217,-0.2962889999999999,-0.021389,-1.558098,0.910471
970,0.449309,0.8570909999999999,-0.251984,1.007158,-1.414388,0.386444
971,0.423882,0.885727,-0.189183,1.0080639999999998,-0.8603360000000001,0.076771
972,0.377658,0.912944,-0.15455,0.2046329999999999,0.213323,0.021311
973,0.319671,0.942054,-0.101587,0.70012,1.544167,0.286325
974,0.245498,0.96874,-0.035338,0.559343,1.501933,-0.253175
975,0.190138,0.981118,0.0350399999999999,0.7997310000000001,0.535224,-0.149161
976,0.15839,0.983896,0.082659,1.262646,0.565603,-0.5879989999999999
977,0.143506,0.984379,0.101857,0.655764,0.234035,-0.958272
978,0.13568,0.986279,0.093894,-0.29193,-0.051357,-0.47013
979,0.119904,0.989853,0.076069,-0.4196319999999999,0.20726,-0.126255
980,0.098133,0.993615,0.055412,-0.230869,-0.495263,0.039208
981,0.080618,0.996278,0.030066,-0.146124,-0.99286,-0.118155
982,0.073859,0.997255,-0.0005679999999999,0.081841,-1.451723,-0.041531
983,0.088942,0.995566,-0.0302069999999999,0.307894,-1.202658,0.0577639999999999
984,0.1197839999999999,0.989843,-0.0764,0.032025,-0.8344020000000001,0.381027
985,0.161959,0.977922,-0.131967,0.545057,-0.4298109999999999,-0.694342
986,0.22925,0.946849,-0.2256099999999999,2.183027,1.621769,0.076669
987,0.325867,0.8905879999999999,-0.317246,-0.223176,2.099829,0.4336399999999999
988,0.37809,0.8414159999999999,-0.386071,-0.1067589999999999,2.454895,0.032311
989,0.401001,0.808291,-0.431102,-0.6279600000000001,1.535032,0.722164
990,0.419888,0.7712180000000001,-0.478439,-0.023388,0.269569,0.168319
991,0.431587,0.7428279999999999,-0.511787,0.399544,-0.074386,-0.0868
992,0.43832,0.721195,-0.536415,-0.036647,0.059735,-0.12603
993,0.450978,0.705719,-0.5464140000000001,0.59785,0.025315,0.059232
994,0.464446,0.709024,-0.530625,0.8834850000000001,-0.183526,0.010453
995,0.472052,0.71986,-0.508877,0.100763,-0.424328,-0.355808
996,0.473101,0.732532,-0.4894479999999999,-0.4664939999999999,-0.615741,-0.1615069999999999
997,0.452231,0.744035,-0.491818,-0.8118350000000001,-1.107194,0.505872
998,0.428439,0.764108,-0.48225,-0.922228,-1.521829,1.147091
999,0.41057,0.796821,-0.443276,-0.857713,-1.044044,1.158623
1000,0.399119,0.8267180000000001,-0.396517,-0.737925,-0.802502,0.839601
1001,0.393908,0.8455090000000001,-0.360464,-0.626207,-0.7719,0.352163
1002,0.395312,0.853183,-0.340279,-1.108126,-0.497989,-0.072669
1003,0.416883,0.8491709999999999,-0.324189,-0.473417,5.930477,1.822969
1004,0.4483859999999999,0.845717,-0.289298,0.374078,7.073075,0.125647
1005,0.480718,0.814407,-0.3250119999999999,-0.297261,-1.263809,0.489899
1006,0.480555,0.805081,-0.347698,0.421041,-2.052517,1.188945
1007,0.46697,0.834569,-0.292258,0.595866,-0.899144,1.204444
1008,0.435638,0.8749819999999999,-0.2111969999999999,-0.094482,-0.4763159999999999,0.359589
1009,0.391556,0.908441,-0.146271,0.246887,1.116766,-0.4393
1010,0.339537,0.937105,-0.080774,0.3059409999999999,1.808378,0.25834
1011,0.273839,0.96171,-0.009977,0.6253310000000001,0.2053429999999999,-0.484438
1012,0.233228,0.971345,0.045436,1.30945,0.57408,-0.275843
1013,0.2087449999999999,0.973618,0.09201,1.605373,0.662338,-0.553817
1014,0.199351,0.974021,0.107304,0.1168109999999999,0.097757,-0.399251
1015,0.184508,0.976685,0.109614,-0.325713,0.532379,-0.110347
1016,0.155253,0.982229,0.10533,-0.356471,0.289469,-0.168715
1017,0.125901,0.988133,0.0878289999999999,-0.220505,-0.570332,-0.251037
1018,0.105518,0.992693,0.058308,-0.020068,-1.068651,-0.186146
1019,0.098004,0.994855,0.025131,0.097949,-1.327939,-0.120407
1020,0.113064,0.993575,0.000391,0.264911,-1.188933,-0.074976
1021,0.14487,0.988765,-0.036478,-0.136005,-0.823314,0.321436
1022,0.185063,0.978815,-0.087453,0.292782,-0.538187,-0.80981
1023,0.243731,0.952189,-0.184147,2.176924,1.955724,0.0490149999999999
1024,0.341941,0.8966209999999999,-0.2812989999999999,-0.194205,2.519471,0.482303
1025,0.401658,0.841483,-0.36133,-0.356035,2.068398,0.353136
1026,0.418063,0.805918,-0.419171,-0.745501,1.491125,0.289609
1027,0.438689,0.769935,-0.463398,-0.383636,0.390389,0.391498
1028,0.452014,0.7383149999999999,-0.5005609999999999,0.251264,-0.040958,-0.045826
1029,0.4581689999999999,0.711204,-0.533158,0.056647,0.084511,-0.261856
1030,0.4561449999999999,0.69615,-0.554342,0.365189,0.160128,-0.128596
1031,0.462704,0.703751,-0.539099,0.757969,-0.082077,-0.345178
1032,0.461672,0.7190840000000001,-0.519389,0.382002,-0.4103529999999999,-0.2942099999999999
1033,0.4561979999999999,0.732604,-0.5051359999999999,-0.106924,-0.6607649999999999,-0.17742
1034,0.441592,0.741546,-0.505067,-0.487338,-1.060317,0.424303
1035,0.4200359999999999,0.753382,-0.505938,-0.734428,-1.63003,0.978029
1036,0.409786,0.778424,-0.4755189999999999,-0.918132,-1.313016,1.082071
1037,0.405528,0.803954,-0.43496,-0.736949,-0.972884,0.7342
1038,0.402856,0.8216110000000001,-0.4032949999999999,-0.663705,-0.8630389999999999,0.6026199999999999
1039,0.402165,0.8323379999999999,-0.381394,-0.71175,-0.892381,0.3133849999999999
1040,0.412417,0.837664,-0.358071,-1.174883,-0.270144,-0.671165
1041,0.438696,0.843616,-0.309579,-0.802176,4.458569000000001,2.375619
1042,0.452834,0.8416969999999999,-0.294057,0.200212,4.552789,0.087682
1043,0.476163,0.8180189999999999,-0.322637,-0.472577,-1.00082,0.92011
1044,0.472413,0.8212459999999999,-0.319943,-0.073807,-1.290102,0.947415
1045,0.4517569999999999,0.8489209999999999,-0.27428,0.755808,-1.340147,0.309116
1046,0.414355,0.88228,-0.223317,0.5406920000000001,-0.3266469999999999,0.320119
1047,0.372165,0.91344,-0.164618,0.171552,0.605542,0.125327
1048,0.321227,0.941658,-0.100351,0.58394,1.266533,-0.082663
1049,0.265644,0.963522,-0.032138,0.4614979999999999,0.6281979999999999,-0.066495
1050,0.222417,0.97434,0.034121,1.209193,0.563211,-0.182589
1051,0.194547,0.977886,0.076567,0.986986,0.10735,-0.8523850000000001
1052,0.177842,0.980035,0.08874,0.302764,-0.132959,-0.801142
1053,0.159491,0.983442,0.085879,-0.335486,-0.08119,-0.192599
1054,0.136043,0.987211,0.082932,-0.343029,-0.107389,-0.1984109999999999
1055,0.112482,0.991277,0.068477,-0.265207,-0.309438,-0.1200059999999999
1056,0.095387,0.994474,0.043523,-0.1502119999999999,-0.827039,-0.10645
1057,0.089525,0.995889,0.01277,0.196928,-1.40545,-0.089308
1058,0.105418,0.99425,-0.018081,0.2315719999999999,-1.214007,0.216995
1059,0.137991,0.988753,-0.0574519999999999,-0.07804,-0.5727220000000001,-0.505688
1060,0.186393,0.975164,-0.1195369999999999,1.68528,0.6412140000000001,-0.403885
1061,0.276763,0.932618,-0.23153,0.408113,1.982543,0.378976
1062,0.354257,0.8788520000000001,-0.319537,-0.1682519999999999,1.998056,0.509738
1063,0.379409,0.8423809999999999,-0.382657,-0.749633,1.176189,0.292005
1064,0.397525,0.807565,-0.435658,-0.421055,0.887336,0.512624
1065,0.417197,0.7723770000000001,-0.4789229999999999,0.1490109999999999,0.211342,0.139919
1066,0.435007,0.739755,-0.5133409999999999,0.068426,0.219901,-0.165843
1067,0.442359,0.720865,-0.533536,0.402199,0.1406619999999999,-0.381778
1068,0.449535,0.71343,-0.537516,0.851628,0.147791,-0.254201
1069,0.453529,0.712685,-0.535145,0.589531,0.003242,-0.183056
1070,0.4494649999999999,0.7199409999999999,-0.5288229999999999,0.181836,-0.523011,0.048171
1071,0.449693,0.726727,-0.519261,-0.328218,-0.785656,0.201573
1072,0.438871,0.737241,-0.5136689999999999,-0.833875,-1.514509,0.6654479999999999
1073,0.425363,0.761672,-0.488784,-0.964975,-1.550398,0.986404
1074,0.417303,0.7943140000000001,-0.441486,-0.7880149999999999,-1.031023,0.901066
1075,0.413108,0.818771,-0.398673,-0.670127,-0.920181,0.527335
1076,0.408891,0.8342790000000001,-0.369825,-0.611681,-0.92925,0.101743
1077,0.406625,0.840499,-0.358052,-1.133157,-0.345626,-0.17393
1078,0.419332,0.83875,-0.347338,-0.5354359999999999,1.20753,-0.316145
1079,0.438583,0.846641,-0.301374,0.725082,7.042961999999999,0.606306
1080,0.455819,0.829269,-0.323302,-0.435541,-0.894531,0.5816640000000001
1081,0.4565899999999999,0.820946,-0.342865,-0.640016,-1.402291,0.936036
1082,0.4571689999999999,0.8397,-0.293059,0.3715969999999999,-1.685128,0.580596
1083,0.428306,0.873301,-0.232121,0.295739,-0.496455,0.445942
1084,0.3833519999999999,0.9057,-0.18091,0.07429,0.047135,-0.013838
1085,0.335596,0.934148,-0.121334,0.332892,1.460292,0.347851
1086,0.276992,0.959416,-0.052663,0.248246,1.023189,-0.147533
1087,0.233935,0.972226,0.005203,0.255201,0.4042699999999999,-0.278564
1088,0.2006,0.978382,0.050019,1.27198,0.663876,-0.134797
1089,0.186021,0.979746,0.073935,0.7526079999999999,0.103124,-0.628181
1090,0.177444,0.980829,0.0803789999999999,-0.036239,-0.002634,-0.460246
1091,0.1595369999999999,0.983975,0.079462,-0.2898469999999999,0.244342,-0.271204
1092,0.135462,0.988353,0.069148,-0.31605,-0.0135909999999999,-0.1904549999999999
1093,0.1169369999999999,0.99218,0.043329,-0.086893,-0.85244,-0.121927
1094,0.107822,0.994128,0.007615,0.363842,-1.225405,0.061675
1095,0.11363,0.993177,-0.025749,0.352526,-1.109601,0.258903
1096,0.1353599999999999,0.988888,-0.061273,0.059647,-0.72192,-0.037695
1097,0.169509,0.980251,-0.101742,0.8537299999999999,-0.282588,-0.558246
1098,0.2259989999999999,0.956196,-0.185991,1.449645,1.55685,0.35222
1099,0.311958,0.905912,-0.286335,-0.199562,1.840533,0.094639
1100,0.363531,0.856612,-0.366122,-0.443105,2.034059,0.2236969999999999
1101,0.3770219999999999,0.825681,-0.41963,-0.644936,1.185076,0.558882
1102,0.4027699999999999,0.788258,-0.465202,-0.344756,0.693187,0.3794929999999999
1103,0.4215,0.76057,-0.4938189999999999,0.151635,-0.00198,0.016646
1104,0.4465729999999999,0.735194,-0.509951,0.290869,-0.125712,-0.5380689999999999
1105,0.455497,0.719362,-0.524432,0.801049,0.129653,-0.016202
1106,0.459727,0.7143,-0.52765,0.6769609999999999,-0.284201,-0.144866
1107,0.454309,0.720301,-0.524173,0.538825,-0.610911,-0.129864
1108,0.448559,0.727233,-0.519533,-0.377682,-0.841521,0.430483
1109,0.436747,0.737811,-0.51466,-0.625025,-1.261187,0.66682
1110,0.423885,0.757225,-0.496909,-0.792552,-1.505043,0.8472049999999999
1111,0.417868,0.7850159999999999,-0.4572989999999999,-0.8332579999999999,-1.03703,0.723214
1112,0.417993,0.810345,-0.4106189999999999,-0.8165520000000001,-0.996822,0.529211
1113,0.4188149999999999,0.8283969999999999,-0.371936,-0.943976,-0.672117,0.055133
1114,0.417784,0.833324,-0.361954,-0.619689,-0.376476,-1.761627
1115,0.4262229999999999,0.826515,-0.367682,-0.863525,3.358574,1.764822
1116,0.445325,0.822202,-0.354478,0.1078829999999999,5.988132,0.473145
1117,0.4726729999999999,0.793126,-0.384078,-0.799455,-1.038442,1.033217
1118,0.482085,0.7786850000000001,-0.401532,0.162995,-1.625533,0.873532
1119,0.4782479999999999,0.803573,-0.354307,0.39843,-0.8749540000000001,0.669691
1120,0.450716,0.845814,-0.285371,0.134413,0.356808,0.426179
1121,0.406835,0.886077,-0.2221119999999999,0.4783729999999999,0.880524,0.007268
1122,0.36063,0.918464,-0.162327,0.2636989999999999,1.331231,0.135731
1123,0.304102,0.947812,-0.0956679999999999,0.588674,0.112079,0.040325
1124,0.261058,0.964759,-0.032642,1.579015,0.365792,-0.209393
1125,0.233892,0.971969,0.023375,1.069743,0.398896,-0.8634780000000001
1126,0.219054,0.974624,0.045806,0.280106,0.136201,-0.650389
1127,0.2080929999999999,0.97671,0.05205,-0.4598939999999999,0.333776,0.0516789999999999
1128,0.181938,0.981554,0.058512,-0.247444,0.119627,0.0065049999999999
1129,0.149891,0.986983,0.058063,-0.206501,-0.439543,-0.3450809999999999
1130,0.120501,0.991739,0.043666,-0.107607,-0.788111,-0.184443
1131,0.101115,0.994682,0.018921,0.097387,-1.194099,-0.0806429999999999
1132,0.0946169999999999,0.995426,-0.012217,0.35216,-1.230595,0.047755
1133,0.106924,0.993362,-0.042127,0.065897,-0.8506319999999999,0.301298
1134,0.1345569999999999,0.987838,-0.077763,0.1483259999999999,-0.571533,-0.665798
1135,0.178367,0.975209,-0.130886,1.780587,0.981258,-0.110035
1136,0.264058,0.937031,-0.22853,0.1913099999999999,1.6980240000000002,0.195358
1137,0.341665,0.8859469999999999,-0.313601,-0.363012,1.923623,0.3896969999999999
1138,0.375059,0.843865,-0.383676,-0.741224,0.939262,0.34707
1139,0.39521,0.809628,-0.433932,-0.396675,0.939776,0.548632
1140,0.416126,0.776175,-0.4736859999999999,0.189435,0.2359099999999999,0.150383
1141,0.431313,0.746274,-0.506983,0.205986,0.124178,-0.306174
1142,0.4378479999999999,0.724249,-0.532673,0.213061,0.248163,-0.440533
1143,0.438816,0.711504,-0.548808,0.818233,0.269254,-0.050938
1144,0.444184,0.708545,-0.548319,0.651137,-0.098773,-0.042608
1145,0.445055,0.714023,-0.54045,0.152388,-0.463153,-0.040467
1146,0.446485,0.720993,-0.529914,-0.338606,-0.665222,0.1024849999999999
1147,0.440181,0.732661,-0.5190739999999999,-0.864909,-1.4301549999999998,0.794251
1148,0.42565,0.7515890000000001,-0.503908,-0.873648,-1.184222,1.154284
1149,0.417495,0.779879,-0.466341,-0.8356469999999999,-1.017855,0.996569
1150,0.413408,0.805651,-0.424272,-0.6499189999999999,-0.977312,0.4193739999999999
1151,0.411393,0.821631,-0.394542,-1.079148,-0.335944,0.017986
1152,0.4118449999999999,0.823627,-0.389881,-0.772365,-0.334888,-0.724697
1153,0.435588,0.818092,-0.3754639999999999,0.12911,6.8041160000000005,0.251105
1154,0.460103,0.814729,-0.352855,-0.285512,0.109252,0.229426
1155,0.479297,0.795879,-0.369913,-0.596119,-0.4960279999999999,0.558405
1156,0.477896,0.7955949999999999,-0.37233,0.37533,-1.764421,0.7755890000000001
1157,0.461904,0.825154,-0.325189,0.515955,-1.271077,0.753458
1158,0.42672,0.8664440000000001,-0.259164,0.415687,-0.041127,0.48739
1159,0.378846,0.903692,-0.199488,0.5558,1.1537879999999998,0.094157
1160,0.329206,0.933964,-0.138972,0.499987,1.266537,0.220881
1161,0.272504,0.959163,-0.075655,0.717699,-0.047588,-0.180403
1162,0.231532,0.972613,-0.019822,1.217885,0.379316,-0.162566
1163,0.203733,0.978682,0.025471,1.096468,0.186632,-0.618214
1164,0.189962,0.98056,0.048893,-0.067739,-0.115631,-0.52988
1165,0.176811,0.982597,0.0567029999999999,-0.251671,0.002892,-0.2640699999999999
1166,0.156031,0.985983,0.058871,-0.456934,-0.06307,-0.249927
1167,0.132347,0.989943,0.049701,-0.256569,-0.465163,-0.089206
1168,0.113825,0.9931,0.027768,-0.0380649999999999,-0.923596,-0.090542
1169,0.103471,0.994619,-0.001406,0.053068,-1.102743,-0.086896
1170,0.104368,0.994038,-0.03119,0.248934,-1.086216,0.393007
1171,0.122209,0.990501,-0.062852,-0.067658,-0.632102,-0.365935
1172,0.154918,0.983029,-0.098142,1.325917,0.133838,-0.22066
1173,0.2184019999999999,0.959729,-0.176639,0.6058319999999999,1.608905,0.336581
1174,0.305738,0.911689,-0.274462,-0.075071,1.7313310000000002,0.150026
1175,0.361104,0.861965,-0.3558139999999999,-0.650838,1.638081,0.162119
1176,0.381297,0.828334,-0.4104399999999999,-0.480143,1.366063,0.477991
1177,0.406413,0.792165,-0.455291,-0.129893,0.523188,0.266204
1178,0.429766,0.760522,-0.486718,0.196104,0.047339,-0.134299
1179,0.44706,0.73155,-0.5147430000000001,0.042274,0.245135,-0.398861
1180,0.447383,0.716454,-0.5352859999999999,0.715168,-0.062737,-0.107109
1181,0.454422,0.713174,-0.533734,0.8834069999999999,0.082343,-0.264362
1182,0.462793,0.71273,-0.527093,0.339605,-0.388313,-0.2166809999999999
1183,0.467522,0.714535,-0.5204340000000001,-0.087472,-0.561779,-0.04051
1184,0.46629,0.719478,-0.5146970000000001,-0.619717,-1.233516,0.6611819999999999
1185,0.4494189999999999,0.730905,-0.5136029999999999,-0.927599,-1.67898,1.320823
1186,0.435993,0.76184,-0.479059,-1.014774,-1.244948,1.152735
1187,0.426346,0.7978810000000001,-0.426147,-0.780854,-1.032241,0.659194
1188,0.4195359999999999,0.8225290000000001,-0.383954,-0.6503399999999999,-0.987965,0.2021609999999999
1189,0.417371,0.834526,-0.359657,-1.050458,-0.813331,-0.037651
1190,0.4238909999999999,0.835623,-0.349335,-1.024248,-0.4947109999999999,-1.88353
1191,0.448755,0.832974,-0.323664,0.0337279999999999,6.906986,0.933511
1192,0.4659819999999999,0.8265620000000001,-0.315658,0.594275,1.32865,0.371383
1193,0.489045,0.7972600000000001,-0.353831,-0.817841,-1.520816,1.370386
1194,0.497104,0.795098,-0.347408,0.26077,-1.819741,0.856929
1195,0.489076,0.826017,-0.280149,0.191527,-0.585508,0.24864
1196,0.458243,0.862129,-0.216166,-0.22283,-0.245308,-0.147878
1197,0.415006,0.8940600000000001,-0.168545,0.053347,1.32588,0.358105
1198,0.360036,0.927464,-0.100812,0.378184,0.4418899999999999,0.023877
1199,0.306818,0.950791,-0.04285,0.360266,0.08847,0.003375
1200,0.265502,0.963936,0.017643,1.721498,0.4854199999999999,-0.045124
1201,0.236303,0.969577,0.063675,0.816584,-0.0026739999999999,-0.724564
1202,0.2210489999999999,0.972061,0.078801,-0.201579,0.4020849999999999,-0.238911
1203,0.204623,0.974926,0.087309,-0.38344,0.3059429999999999,-0.19612
1204,0.176267,0.979822,0.094087,-0.279584,-0.1232849999999999,-0.324998
1205,0.146992,0.985359,0.086223,-0.180836,-0.628181,-0.386638
1206,0.126744,0.99006,0.060748,-0.0039109999999999,-1.086694,-0.105472
1207,0.118394,0.992613,0.026003,0.241088,-1.34033,-0.063219
1208,0.126202,0.99198,-0.004932,0.225315,-1.093878,0.145252
1209,0.149576,0.987983,-0.038624,-0.161188,-0.7590859999999999,0.115391
1210,0.18223,0.979736,-0.082982,0.5443939999999999,-0.4479979999999999,-1.0801040000000002
1211,0.228792,0.960992,-0.155326,1.60884,0.693701,-0.631921
1212,0.316907,0.913647,-0.254558,0.6614399999999999,2.138309,0.4766039999999999
1213,0.384854,0.863456,-0.326057,-0.718457,2.016579,0.226036
1214,0.403111,0.833406,-0.378048,-0.6791729999999999,1.329604,0.44711
1215,0.421602,0.801168,-0.424696,-0.102526,0.321208,0.246961
1216,0.438148,0.772051,-0.460381,0.185814,0.0134569999999999,-0.03405
1217,0.4497,0.746658,-0.490162,-0.014657,0.210495,-0.191937
1218,0.449409,0.72677,-0.519447,0.496163,0.221137,0.040076
1219,0.450055,0.72107,-0.526779,0.829578,0.062469,-0.2170409999999999
1220,0.454984,0.720896,-0.522768,0.5058010000000001,-0.3971659999999999,-0.366911
1221,0.45569,0.725083,-0.516323,0.05786,-0.572159,0.018718
1222,0.457001,0.732272,-0.504891,-0.5103449999999999,-0.966021,0.273492
1223,0.4483819999999999,0.742409,-0.497764,-0.863253,-1.592339,0.917503
1224,0.437576,0.7629630000000001,-0.475817,-1.0001520000000002,-1.259179,1.171694
1225,0.429796,0.792772,-0.432172,-0.855059,-1.048418,0.732953
1226,0.425591,0.815669,-0.391843,-0.63871,-1.031367,0.299299
1227,0.423971,0.827743,-0.367525,-0.854635,-0.960067,0.00612
1228,0.4276859999999999,0.830839,-0.356054,-1.225324,-0.3816969999999999,-0.914164
1229,0.446242,0.8296469999999999,-0.335466,-1.136153,4.023884,2.131715
1230,0.449931,0.837501,-0.310058,0.71996,5.512016,0.598754
1231,0.461267,0.823989,-0.329026,-0.098245,-0.7701560000000001,1.09485
1232,0.4651619999999999,0.8155439999999999,-0.344233,0.042635,-1.844459,1.122584
1233,0.4642159999999999,0.8365049999999999,-0.291111,0.731005,-1.104327,0.401859
1234,0.444925,0.867359,-0.222962,0.218375,-0.397449,-0.219634
1235,0.410678,0.895584,-0.171035,0.0293399999999999,0.605103,0.073623
1236,0.362461,0.926057,-0.10497,0.483822,1.7244099999999998,0.135518
1237,0.297567,0.953747,-0.0423819999999999,0.256663,0.360858,-0.070472
1238,0.248284,0.968592,0.012669,1.469765,0.64942,-0.17545
1239,0.214323,0.974838,0.061075,0.762713,-0.118652,-0.561213
1240,0.19824,0.976648,0.082656,0.124224,-0.153406,-0.591155
1241,0.185454,0.979127,0.083006,-0.31877,0.249129,-0.320951
1242,0.16296,0.983617,0.0769059999999999,-0.291302,-0.243719,-0.2711659999999999
1243,0.136929,0.988636,0.0618289999999999,-0.245052,-0.643788,-0.0974889999999999
1244,0.1169359999999999,0.992566,0.033354,-0.00074,-1.2065860000000002,-0.064711
1245,0.1084779999999999,0.994085,-0.0014199999999999,0.330365,-1.225012,0.258561
1246,0.120114,0.992171,-0.033857,0.061603,-0.761259,0.000181
1247,0.149528,0.986282,-0.06976,-0.004829,-0.68695,-0.437442
1248,0.19532,0.972492,-0.126841,1.722634,1.283673,-0.061285
1249,0.279391,0.930092,-0.238432,0.129727,1.738517,0.141371
1250,0.351073,0.8763219999999999,-0.329834,-0.043227,1.724371,0.24025
1251,0.375064,0.837391,-0.397604,-0.803592,1.5107540000000002,0.293325
1252,0.392036,0.802983,-0.4489,-0.435402,0.885173,0.567339
1253,0.416754,0.765934,-0.489539,-0.0784059999999999,0.273449,0.370856
1254,0.441775,0.7280310000000001,-0.524209,0.284528,0.127865,-0.183814
1255,0.461075,0.695753,-0.55075,0.113571,0.057832,-0.348694
1256,0.468688,0.683829,-0.559194,0.928925,-0.014549,-0.136439
1257,0.484921,0.683649,-0.545403,0.556888,-0.202951,-0.229057
1258,0.4863649999999999,0.691071,-0.534658,0.084863,-0.524094,0.0859429999999999
1259,0.4846789999999999,0.699752,-0.524807,-0.54547,-0.8863059999999999,0.411297
1260,0.468209,0.7147939999999999,-0.519459,-0.91906,-1.634487,0.806752
1261,0.446513,0.738995,-0.50448,-0.930277,-1.296078,1.209421
1262,0.435461,0.773293,-0.460845,-0.7873140000000001,-0.929818,0.8583059999999999
1263,0.430616,0.802245,-0.413472,-0.597075,-0.922163,0.3875619999999999
1264,0.4265279999999999,0.8207620000000001,-0.38001,-0.905105,-0.7035899999999999,0.01473
1265,0.423425,0.82532,-0.373555,-0.764001,-0.450076,-1.866939
1266,0.435395,0.819581,-0.372429,-0.512131,5.997619,1.428581
1267,0.462626,0.816719,-0.344866,0.02947,2.436532,0.384371
1268,0.493263,0.790193,-0.363691,-0.6825640000000001,-0.794298,1.089887
1269,0.4969409999999999,0.776838,-0.386727,-0.041359,-1.912946,1.125146
1270,0.4922289999999999,0.801014,-0.340692,0.596913,-1.059269,0.5175109999999999
1271,0.4637449999999999,0.8415379999999999,-0.277015,0.4848479999999999,-0.089051,0.177558
1272,0.418908,0.8819819999999999,-0.215884,0.483085,0.917945,0.0163759999999999
1273,0.3690469999999999,0.915969,-0.15743,0.799578,1.438065,0.151968
1274,0.310114,0.946073,-0.093565,0.505301,0.259524,-0.065722
1275,0.269389,0.962487,-0.03203,0.942495,0.260292,-0.182631
1276,0.241588,0.970193,0.018352,1.125752,0.248466,-0.6445270000000001
1277,0.229473,0.972392,0.042066,0.1523779999999999,-0.15829,-0.771192
1278,0.2212179999999999,0.974266,0.042937,-0.352703,0.085564,-0.147475
1279,0.202553,0.978431,0.040253,-0.565392,0.107019,-0.103729
1280,0.176458,0.983863,0.029186,-0.393881,-0.344031,-0.107388
1281,0.152962,0.988192,0.0074,-0.189201,-0.7537560000000001,-0.067184
1282,0.137521,0.990253,-0.021527,0.064612,-1.176013,-0.053196
1283,0.13708,0.989155,-0.052509,0.33373,-1.133137,0.264377
1284,0.155407,0.9838,-0.08924,0.074421,-0.693258,0.036506
1285,0.186808,0.97372,-0.130192,1.939962,0.4031869999999999,0.031284
1286,0.245965,0.9457,-0.2124469999999999,1.4612040000000002,1.406458,0.262892
1287,0.330056,0.889804,-0.315112,0.005927,1.588742,0.176639
1288,0.3816199999999999,0.8331620000000001,-0.40024,-0.8349129999999999,1.422438,0.34247
1289,0.39949,0.8008350000000001,-0.446158,-0.620102,1.185218,0.407202
1290,0.4198,0.764896,-0.488559,0.103974,0.206066,0.2439
1291,0.434536,0.735097,-0.520383,0.300861,0.138255,-0.058398
1292,0.446109,0.7077829999999999,-0.54774,0.180325,0.2717699999999999,-0.297246
1293,0.447602,0.691757,-0.566669,0.886214,-0.210114,-0.0583919999999999
1294,0.459652,0.687217,-0.562533,0.465763,-0.101401,0.058932
1295,0.46206,0.69358,-0.552664,0.145285,-0.565681,0.038747
1296,0.454912,0.7053560000000001,-0.543615,-0.348421,-0.7632479999999999,0.244986
1297,0.440576,0.7210409999999999,-0.5347729999999999,-0.795892,-1.249575,0.702391
1298,0.420442,0.742911,-0.5208649999999999,-0.8457959999999999,-1.363578,0.824591
1299,0.407938,0.7718,-0.487749,-0.793085,-0.949458,0.881869
1300,0.406902,0.798203,-0.444172,-0.668026,-0.901063,0.52599
1301,0.412278,0.8158810000000001,-0.405402,-0.593811,-0.93371,0.212348
1302,0.420702,0.8249920000000001,-0.377337,-1.011721,-0.499705,0.045321
1303,0.435034,0.8239,-0.363208,-0.684424,-0.262437,-2.215695
1304,0.460005,0.823944,-0.330901,-1.004225,3.737839,3.5218800000000003
1305,0.464446,0.831018,-0.306078,0.166963,0.77793,0.424257
1306,0.486497,0.8051590000000001,-0.339151,-0.545579,-0.935103,1.187983
1307,0.4849989999999999,0.798288,-0.357066,0.4839029999999999,-1.981852,0.794917
1308,0.473567,0.823887,-0.3113329999999999,0.505803,-0.475315,0.135094
1309,0.445247,0.8545969999999999,-0.267209,0.103123,-0.094054,0.103238
1310,0.413418,0.8830030000000001,-0.2221989999999999,0.106647,0.642586,0.296586
1311,0.373919,0.914104,-0.156773,0.749067,1.094807,-0.1201589999999999
1312,0.318738,0.943506,-0.090446,0.519946,0.5529689999999999,-0.018334
1313,0.272852,0.96169,-0.026104,1.541113,0.432933,-0.092472
1314,0.237331,0.97104,0.027049,1.301212,0.073745,-0.7478739999999999
1315,0.218701,0.974408,0.051711,0.250033,-0.021863,-0.784576
1316,0.205138,0.977668,0.0453779999999999,-0.090072,0.235131,-0.0029739999999999
1317,0.183023,0.982357,0.038118,-0.267999,-0.002315,0.0218639999999999
1318,0.1582569999999999,0.987046,0.0259019999999999,-0.259835,-0.415299,-0.107399
1319,0.139157,0.990247,0.004735,-0.156949,-0.875135,-0.024983
1320,0.128269,0.991441,-0.023821,0.014661,-1.2439129999999998,-0.043256
1321,0.131498,0.989779,-0.054986,0.1078359999999999,-1.199984,0.3244869999999999
1322,0.153128,0.984077,-0.090119,0.060404,-0.488167,-0.491851
1323,0.190495,0.972652,-0.1328109999999999,0.6522180000000001,-0.081706,-0.551042
1324,0.255996,0.940929,-0.221582,1.4252479999999998,0.490803,-0.196524
1325,0.3450809999999999,0.881209,-0.323067,0.1441309999999999,1.491883,0.4811939999999999
1326,0.408333,0.818578,-0.403955,-0.022224,1.7595619999999998,0.41485
1327,0.429878,0.778434,-0.457418,-0.449592,1.2075280000000002,0.378027
1328,0.44911,0.743337,-0.4957189999999999,0.204271,0.194224,0.192771
1329,0.462149,0.71141,-0.5294369999999999,0.316248,0.2253889999999999,-0.032194
1330,0.4634109999999999,0.68174,-0.5661010000000001,0.372267,0.162483,-0.378448
1331,0.453181,0.6662640000000001,-0.5922069999999999,0.5421189999999999,0.181179,-0.3473989999999999
1332,0.456358,0.666325,-0.589693,0.639208,0.255931,0.023409
1333,0.461839,0.678476,-0.571284,0.384094,-0.4828729999999999,-0.257864
1334,0.4631989999999999,0.68921,-0.557158,-0.0867179999999999,-0.6297159999999999,-0.0034649999999999
1335,0.455976,0.7004560000000001,-0.549032,-0.60011,-1.070131,0.4125109999999999
1336,0.437104,0.719242,-0.540018,-0.921052,-1.59267,0.8072
1337,0.429096,0.74748,-0.507088,-0.8490629999999999,-1.069425,1.082863
1338,0.429092,0.776971,-0.460632,-0.534714,-0.699136,0.815154
1339,0.428621,0.799534,-0.420732,-0.44005,-0.621235,0.323763
1340,0.427213,0.815048,-0.39137,-0.5614439999999999,-0.640015,0.164914
1341,0.429384,0.8233739999999999,-0.371036,-1.09006,-0.10203,-0.091153
1342,0.446223,0.8263360000000001,-0.343565,-0.432597,5.43755,0.8903790000000001
1343,0.463053,0.824975,-0.324008,0.365072,6.212745,0.121539
1344,0.4871149999999999,0.798676,-0.353298,-0.121148,-0.324036,0.435741
1345,0.4922729999999999,0.785057,-0.375947,0.289694,-1.320702,0.938371
1346,0.480756,0.805913,-0.345486,0.347339,-1.199102,0.552654
1347,0.455395,0.8398469999999999,-0.295389,0.035099,-0.280536,0.452601
1348,0.4198439999999999,0.8764379999999999,-0.235728,0.386415,0.976879,0.10052
1349,0.375919,0.911389,-0.167432,0.91235,1.475208,0.162396
1350,0.318811,0.943167,-0.093657,0.673788,1.004968,0.02223
1351,0.273776,0.961385,-0.027554,1.217786,0.357996,-0.122868
1352,0.2422099999999999,0.970027,0.018855,1.160683,0.28745,-0.672633
1353,0.225581,0.973308,0.041922,0.017583,-0.004527,-0.698675
1354,0.211651,0.976366,0.043435,-0.324002,0.216017,-0.117593
1355,0.186445,0.981478,0.043712,-0.484785,0.076047,-0.065852
1356,0.15685,0.986828,0.039251,-0.268392,-0.404751,-0.178473
1357,0.133377,0.990803,0.022212,-0.106491,-0.870366,-0.1305339999999999
1358,0.120249,0.992718,-0.004978,0.1545609999999999,-1.274197,-0.109188
1359,0.1226329999999999,0.991839,-0.034537,0.30646,-1.3255940000000002,-0.041437
1360,0.143709,0.987425,-0.065696,-0.065935,-0.933866,0.417625
1361,0.175546,0.978406,-0.109009,0.712348,-0.5195890000000001,-0.7140350000000001
1362,0.218592,0.962493,-0.160633,1.6993759999999998,0.637422,-0.254406
1363,0.300324,0.916468,-0.264333,0.655471,2.062292,0.293462
1364,0.3781199999999999,0.8534930000000001,-0.358551,0.368752,2.323936,0.005813
1365,0.398746,0.8089109999999999,-0.432031,-0.537281,1.549763,0.400079
1366,0.409556,0.772188,-0.485775,-0.487345,1.097884,0.534267
1367,0.420017,0.736319,-0.530479,0.10722,0.0124599999999999,0.128242
1368,0.429841,0.699701,-0.570653,0.1168049999999999,0.1556,-0.033336
1369,0.4353229999999999,0.667419,-0.604182,0.171534,0.17801,-0.296926
1370,0.448317,0.654569,-0.608721,0.958757,0.067874,-0.072905
1371,0.466113,0.661397,-0.587607,0.398359,-0.2453969999999999,-0.231897
1372,0.4693,0.672466,-0.572308,0.085204,-0.507366,-0.18819
1373,0.466567,0.68129,-0.564045,-0.458312,-0.8401649999999999,0.306538
1374,0.44897,0.695395,-0.561106,-0.8427690000000001,-1.330206,0.7398939999999999
1375,0.430271,0.720645,-0.543622,-0.92995,-1.486728,1.2065860000000002
1376,0.428399,0.7589600000000001,-0.4903479999999999,-0.867059,-0.8940459999999999,1.02558
1377,0.4288439999999999,0.793168,-0.4323909999999999,-0.707973,-0.7004859999999999,0.652728
1378,0.427214,0.8150689999999999,-0.391324,-0.6625810000000001,-0.725912,0.256879
1379,0.426839,0.824594,-0.371264,-1.192265,-0.213846,-0.49693
1380,0.4486199999999999,0.822449,-0.3497159999999999,-0.492413,3.4256290000000003,1.576736
1381,0.483749,0.815684,-0.31722,0.0540169999999999,5.597462999999999,0.421484
1382,0.514046,0.7894979999999999,-0.335309,-0.638252,-1.019677,0.471402
1383,0.522324,0.7757609999999999,-0.354057,-0.4819489999999999,-0.8945200000000001,1.158546
1384,0.512604,0.793525,-0.327928,0.4717399999999999,-1.566657,0.671663
1385,0.484772,0.830342,-0.274789,0.34053,-0.5503279999999999,0.856928
1386,0.444119,0.870685,-0.211296,0.177082,-0.022098,0.140144
1387,0.402337,0.902898,-0.151254,0.4810399999999999,1.162028,0.173943
1388,0.352596,0.93276,-0.074901,0.376789,0.91099,-0.05782
1389,0.310967,0.950364,-0.009086,0.850867,0.310684,-0.252755
1390,0.276331,0.960197,0.040442,1.360937,0.23124,-0.356925
1391,0.255254,0.964771,0.063513,0.045146,0.294506,-0.3246219999999999
1392,0.238941,0.968046,0.075928,-0.284336,0.6253380000000001,-0.076691
1393,0.2087239999999999,0.974293,0.084604,-0.232893,0.148143,-0.188288
1394,0.175899,0.98151,0.075286,-0.017086,-0.390308,-0.397918
1395,0.151924,0.98711,0.050047,0.143761,-0.925174,-0.1077859999999999
1396,0.140991,0.989805,0.019507,0.336594,-1.332441,-0.018133
1397,0.148779,0.988833,-0.006889,0.26536,-1.227465,-0.000909
1398,0.175016,0.983773,-0.039172,-0.201658,-0.8280879999999999,0.092562
1399,0.211608,0.973657,-0.084798,0.2046059999999999,-0.560937,-0.828837
1400,0.261074,0.952498,-0.156738,1.633595,1.721254,-0.171265
1401,0.340351,0.900726,-0.26988,0.614406,2.339738,0.303586
1402,0.40308,0.845794,-0.349488,-0.436512,2.193787,0.4506529999999999
1403,0.416973,0.806241,-0.4196359999999999,-0.306331,0.77428,0.457355
1404,0.425002,0.7660359999999999,-0.482232,-0.4216609999999999,0.697739,0.526986
1405,0.433901,0.732367,-0.5247430000000001,0.308134,0.027139,0.042184
1406,0.446322,0.705361,-0.550682,0.211439,0.2227239999999999,-0.285683
1407,0.4540949999999999,0.682344,-0.5728810000000001,0.164436,0.214003,-0.191386
1408,0.4647739999999999,0.672553,-0.575887,0.621667,-0.022071,-0.04481
1409,0.4720399999999999,0.678639,-0.5626869999999999,0.4068969999999999,-0.296421,-0.363827
1410,0.472509,0.69065,-0.5474720000000001,-0.094854,-0.600715,-0.351942
1411,0.4631189999999999,0.701658,-0.541466,-0.498702,-0.975431,0.3124929999999999
1412,0.434576,0.71507,-0.547546,-0.725896,-1.61778,1.073959
1413,0.409738,0.7402770000000001,-0.5330020000000001,-0.68963,-1.297498,1.369962
1414,0.398052,0.775225,-0.490476,-0.550624,-0.95328,0.922712
1415,0.391461,0.802412,-0.4504189999999999,-0.510526,-0.8610979999999999,0.643825
1416,0.387527,0.817662,-0.4257189999999999,-0.822433,-0.623219,0.344817
1417,0.394566,0.8196190000000001,-0.415362,-1.064183,-0.275522,-0.184034
1418,0.4326939999999999,0.809104,-0.397632,0.043029,6.955452999999999,0.615527
1419,0.4715319999999999,0.790665,-0.390499,-0.6258279999999999,5.941131,0.678616
1420,0.490737,0.760205,-0.425734,-0.780852,-0.731,1.020781
1421,0.480803,0.7667069999999999,-0.42541,0.16971,-1.6498700000000002,1.198985
1422,0.460143,0.805506,-0.373377,0.414567,-0.778529,0.8360700000000001
1423,0.423772,0.853857,-0.3022019999999999,0.3768869999999999,0.127329,0.37845
1424,0.3825409999999999,0.893732,-0.2342739999999999,0.407604,0.8729,-0.411645
1425,0.3362949999999999,0.926965,-0.166186,0.5757680000000001,1.2522950000000002,-0.018033
1426,0.280099,0.954598,-0.1013049999999999,0.8884489999999999,0.197181,-0.1333599999999999
1427,0.241495,0.969842,-0.032553,1.7638,0.271231,-0.114694
1428,0.218798,0.975705,0.009945,1.012587,0.315066,-0.934582
1429,0.20356,0.978796,0.022211,-0.025764,0.220255,-0.468958
1430,0.183478,0.982676,0.025601,-0.395438,0.331014,0.137546
1431,0.15638,0.987225,0.030029,-0.317925,0.1413299999999999,0.055282
1432,0.128949,0.9914,0.021661,-0.108777,-0.371801,-0.150476
1433,0.11047,0.993864,-0.00135,-0.031521,-0.873609,-0.079598
1434,0.104018,0.994011,-0.0330779999999999,0.185395,-1.364677,0.039899
1435,0.117569,0.990948,-0.064592,0.160157,-1.037899,0.2907119999999999
1436,0.144574,0.983489,-0.108731,-0.018338,-0.831252,0.280179
1437,0.181759,0.969762,-0.162789,0.513202,-0.0109,-0.818763
1438,0.232271,0.937769,-0.258105,1.491667,1.526724,0.491488
1439,0.319085,0.875293,-0.363356,0.364829,1.867794,0.60327
1440,0.389119,0.813476,-0.432234,-0.231176,2.117997,0.070509
1441,0.407623,0.77627,-0.480867,-0.679962,1.957677,0.323503
1442,0.423375,0.743434,-0.517731,0.1330059999999999,-0.2063699999999999,0.359177
1443,0.43043,0.7116439999999999,-0.555229,0.449773,-0.18662,-0.154808
1444,0.4346279999999999,0.688714,-0.58031,0.2406039999999999,-0.307519,-0.403271
1445,0.4347569999999999,0.683994,-0.58577,0.405911,-0.141757,-0.4421229999999999
1446,0.4488189999999999,0.689208,-0.568808,0.768405,-0.202132,-0.144541
1447,0.4550659999999999,0.696433,-0.554872,0.228192,-0.483375,0.234605
1448,0.460618,0.698918,-0.547113,-0.177613,-0.475697,0.214028
1449,0.456029,0.709225,-0.53761,-0.974401,-1.23167,0.49632
1450,0.446287,0.726962,-0.521863,-0.99719,-1.334048,0.97923
1451,0.449146,0.752356,-0.481885,-0.8109930000000001,-0.914252,0.946942
1452,0.456813,0.776844,-0.43338,-0.764858,-0.8331799999999999,0.581771
1453,0.458424,0.794329,-0.398586,-0.934407,-0.867358,0.24081
1454,0.457399,0.804718,-0.378415,-1.0050370000000002,-0.229675,-0.960987
1455,0.465201,0.809443,-0.3582889999999999,-1.2490139999999998,4.257329,2.2137580000000003
1456,0.480727,0.817177,-0.317968,0.632005,5.112328,0.1330319999999999
1457,0.495422,0.806687,-0.322169,-0.024871,-0.352326,0.5436810000000001
1458,0.490771,0.802103,-0.340228,0.220167,-1.385477,0.8884
1459,0.473422,0.82111,-0.318795,0.7998930000000001,-1.74503,0.291878
1460,0.440012,0.851941,-0.283839,0.201025,-0.444501,0.233408
1461,0.405829,0.879732,-0.247692,0.353952,0.3421,0.169414
1462,0.373488,0.907951,-0.190017,0.627976,0.927116,0.598892
1463,0.326739,0.938955,-0.107603,0.682996,0.467493,0.10037
1464,0.287994,0.957148,-0.02997,0.811646,0.79688,-0.312269
1465,0.2571199999999999,0.965903,0.029841,0.968664,0.685983,-0.8272809999999999
1466,0.23714,0.970082,0.051716,0.269055,0.239955,-0.703862
1467,0.214879,0.975619,0.04432,-0.226293,0.304731,0.015113
1468,0.182335,0.98266,0.033225,-0.3368,0.0288,-0.0586919999999999
1469,0.149048,0.988727,0.013162,-0.1981359999999999,-0.485309,-0.165643
1470,0.1232809999999999,0.992201,-0.017626,-0.06844,-1.005445,-0.031889
1471,0.109341,0.992558,-0.053344,0.176868,-1.561756,-0.008698
1472,0.118048,0.988996,-0.089021,0.238305,-1.27194,0.361635
1473,0.1441349999999999,0.979995,-0.137144,0.04045,-0.772415,-0.164995
1474,0.184827,0.962596,-0.198051,0.9182,-0.218501,-0.387856
1475,0.257604,0.914633,-0.311554,1.631449,1.625787,0.232239
1476,0.343442,0.847515,-0.404659,0.176669,2.0720110000000003,0.354748
1477,0.375863,0.792489,-0.480285,-0.4784779999999999,2.147513,0.156127
1478,0.381103,0.755649,-0.532674,-0.761718,1.237347,0.785481
1479,0.389866,0.718813,-0.575587,-0.0482519999999999,0.297315,0.49853
1480,0.392781,0.682009,-0.616908,0.439433,0.048688,-0.149923
1481,0.388315,0.6571899999999999,-0.645989,0.32575,0.1734369999999999,-0.196952
1482,0.395503,0.654346,-0.644514,0.776189,0.046109,-0.209978
1483,0.4176069999999999,0.667646,-0.616313,0.344341,-0.313749,-0.139638
1484,0.426399,0.680909,-0.595428,0.282433,-0.572755,-0.218598
1485,0.422379,0.685998,-0.592444,-0.524277,-0.929712,0.536643
1486,0.400526,0.696763,-0.595052,-0.907576,-1.590852,0.994589
1487,0.38081,0.719634,-0.5806020000000001,-0.92065,-1.607146,1.169866
1488,0.38126,0.754445,-0.534266,-0.696812,-0.64658,1.018046
1489,0.3902739999999999,0.78435,-0.482147,-0.575852,-0.775301,0.5989680000000001
1490,0.3971139999999999,0.805041,-0.440673,-0.645069,-0.799822,0.408065
1491,0.401593,0.8171109999999999,-0.413563,-1.189801,-0.165424,-0.947933
1492,0.418146,0.821362,-0.387942,-0.624841,4.473361,1.91022
1493,0.448277,0.8223450000000001,-0.3503949999999999,0.132762,7.048932000000001,0.1691349999999999
1494,0.476513,0.802018,-0.360116,-0.394574,-0.75615,0.5682
1495,0.481954,0.7931560000000001,-0.372297,0.136393,-1.109943,0.8462040000000001
1496,0.467016,0.8168479999999999,-0.338577,0.6713210000000001,-2.005157,0.6566310000000001
1497,0.430927,0.851771,-0.297935,0.253887,-0.3180949999999999,0.4697489999999999
1498,0.3881179999999999,0.887066,-0.249909,0.286977,0.711292,0.149247
1499,0.340851,0.920282,-0.1920339999999999,0.60765,1.295844,0.307406
1500,0.27708,0.953419,-0.119126,0.7262310000000001,0.610317,-0.171264
1501,0.230053,0.971952,-0.048525,1.010945,0.453951,-0.1095859999999999
1502,0.200968,0.979523,0.010697,1.492926,0.4643239999999999,-0.605897
1503,0.187946,0.981372,0.039408,0.230892,0.099545,-0.848719
1504,0.175876,0.983802,0.034196,-0.156604,0.163048,-0.4059
1505,0.151371,0.988174,0.0238479999999999,-0.4953649999999999,0.115784,-0.0147389999999999
1506,0.120817,0.992612,0.009674,-0.255033,-0.307294,0.039642
1507,0.095484,0.995328,-0.013202,-0.103083,-0.555616,0.043491
1508,0.080027,0.995803,-0.044085,0.097173,-1.422759,0.0145139999999999
1509,0.086382,0.993526,-0.073596,0.288206,-1.482601,0.093066
1510,0.115479,0.986751,-0.113838,0.009902,-0.953472,0.428703
1511,0.152842,0.973086,-0.172388,0.61588,-0.252917,-0.8986569999999999
1512,0.201707,0.945362,-0.25609,1.5811,0.750088,-0.7375470000000001
1513,0.283863,0.8832040000000001,-0.3733,0.997662,2.273412,0.660654
1514,0.35821,0.8168380000000001,-0.452154,0.089254,2.285655,-0.044123
1515,0.368735,0.7743439999999999,-0.514209,-0.656516,1.351892,0.3479489999999999
1516,0.381182,0.739321,-0.555059,-0.358324,0.538099,0.431036
1517,0.387839,0.704481,-0.59437,0.304758,0.119998,0.0329529999999999
1518,0.388151,0.6753399999999999,-0.627091,0.404986,0.078078,-0.195068
1519,0.386951,0.660801,-0.643117,0.5186270000000001,0.3194849999999999,-0.103739
1520,0.405819,0.663994,-0.6280220000000001,0.991718,-0.2291639999999999,0.013153
1521,0.4198149999999999,0.673551,-0.608336,0.5310819999999999,-0.591489,-0.0870679999999999
1522,0.427408,0.677513,-0.5985699999999999,-0.165048,-0.681053,-0.055025
1523,0.41313,0.688775,-0.595735,-0.8725870000000001,-1.169137,0.710023
1524,0.384805,0.713838,-0.585105,-0.998437,-1.630158,1.2112040000000002
1525,0.374762,0.7508699999999999,-0.543813,-0.725424,-0.736695,1.107717
1526,0.377949,0.7843439999999999,-0.491877,-0.6261939999999999,-0.738507,0.881922
1527,0.380683,0.807848,-0.449938,-0.6136699999999999,-0.716051,0.481402
1528,0.384888,0.8234739999999999,-0.416814,-1.130554,-0.207782,-0.048167
1529,0.395943,0.8286379999999999,-0.395688,-0.505363,1.62824,0.345502
1530,0.4327729999999999,0.830421,-0.350838,-0.173389,5.985664,1.356499
1531,0.44872,0.8232459999999999,-0.347702,-0.163442,-0.862614,0.35881
1532,0.46116,0.802292,-0.378998,-0.2115719999999999,-0.586105,0.8585510000000001
1533,0.4577529999999999,0.814641,-0.356092,0.417415,-1.506307,0.85359
1534,0.436689,0.845052,-0.308494,0.394518,-0.653859,0.585624
1535,0.392021,0.8827520000000001,-0.258929,0.307076,0.021728,0.075549
1536,0.34229,0.916124,-0.208639,0.5166729999999999,0.7726729999999999,-0.07432
1537,0.28445,0.949127,-0.134974,0.795079,1.200271,-0.068624
1538,0.2307239999999999,0.9713,-0.057562,0.869999,0.425429,-0.186289
1539,0.19334,0.981098,0.005845,1.681904,0.547558,-0.420747
1540,0.171463,0.984416,0.038631,0.353775,0.024831,-0.8007920000000001
1541,0.159239,0.98631,0.042456,-0.460005,0.1156799999999999,-0.161718
1542,0.137747,0.989683,0.038991,-0.513754,0.162844,-0.1819049999999999
1543,0.109092,0.9935,0.032008,-0.319816,-0.208755,-0.011103
1544,0.083631,0.996372,0.014755,-0.064298,-0.783313,-0.075195
1545,0.066575,0.997674,-0.013566,0.0945889999999999,-1.469949,-0.0612169999999999
1546,0.070681,0.996531,-0.043585,0.40437,-1.381846,0.171057
1547,0.100814,0.991598,-0.0808789999999999,0.054124,-0.763601,0.1279829999999999
1548,0.143337,0.981071,-0.130101,0.658253,-0.309181,-0.5835520000000001
1549,0.2100929999999999,0.951165,-0.226103,1.65122,1.390861,0.216978
1550,0.302072,0.8900379999999999,-0.341414,0.412832,1.924582,0.471968
1551,0.3579719999999999,0.831571,-0.424651,-0.081834,2.120578,0.525008
1552,0.363737,0.792975,-0.488743,-0.494536,1.280222,0.471867
1553,0.382843,0.752232,-0.53625,-0.447083,0.637722,0.455561
1554,0.399669,0.717136,-0.5709350000000001,0.3159679999999999,0.1111109999999999,-0.095218
1555,0.408425,0.6854819999999999,-0.6027359999999999,0.231712,0.170597,-0.195055
1556,0.416452,0.673659,-0.610524,0.632361,-0.035231,-0.426875
1557,0.439342,0.674473,-0.593341,0.916081,-0.050999,-0.1143319999999999
1558,0.4489,0.686992,-0.571418,0.40811,-0.68925,-0.337258
1559,0.449939,0.691858,-0.564689,-0.011309,-0.6847479999999999,0.137855
1560,0.433252,0.694163,-0.57482,-0.714288,-1.439844,0.792959
1561,0.413616,0.7123970000000001,-0.566921,-0.95512,-1.73974,1.202266
1562,0.407251,0.74847,-0.523378,-0.901224,-1.082409,1.099061
1563,0.408446,0.780227,-0.47371,-0.596251,-0.801543,0.7406020000000001
1564,0.407647,0.799453,-0.441227,-0.579431,-0.8377979999999999,0.4560439999999999
1565,0.408335,0.8108989999999999,-0.41915,-0.795313,-0.6794140000000001,0.2405449999999999
1566,0.419913,0.816199,-0.396829,-1.072364,-0.224555,-1.450461
1567,0.45816,0.819543,-0.344121,-0.309951,6.359321,1.061848
1568,0.481193,0.813836,-0.325735,0.6368189999999999,1.705314,0.18923
1569,0.498313,0.791932,-0.352855,-0.565467,-0.184342,0.8805200000000001
1570,0.492271,0.80248,-0.337155,0.376625,-2.016454,0.7518729999999999
1571,0.4638029999999999,0.834434,-0.297631,0.5733520000000001,-0.995704,0.582055
1572,0.419814,0.872458,-0.2500989999999999,0.130846,-0.260642,0.537879
1573,0.373092,0.908225,-0.1894839999999999,0.230561,0.868325,0.218079
1574,0.312566,0.942704,-0.1165539999999999,0.71963,1.141098,-0.003564
1575,0.258627,0.965202,-0.038294,0.546366,0.6011890000000001,-0.127386
1576,0.218793,0.975354,0.0279579999999999,1.530032,0.415774,-0.254673
1577,0.196657,0.978411,0.063285,1.224043,0.225523,-0.727775
1578,0.182834,0.980796,0.067646,0.011609,-0.038322,-0.51305
1579,0.1617019999999999,0.984647,0.065497,-0.480931,0.156573,-0.233878
1580,0.13245,0.989279,0.061252,-0.542484,-0.013616,-0.302066
1581,0.104853,0.993413,0.045866,-0.23739,-0.392049,0.017962
1582,0.085974,0.996123,0.017784,-0.044348,-1.241392,-0.131294
1583,0.0834299999999999,0.996371,-0.0159169999999999,0.112509,-1.364138,0.0596029999999999
1584,0.105839,0.993205,-0.048076,-0.023961,-0.873149,0.417858
1585,0.143395,0.985152,-0.094259,0.081764,-0.6078479999999999,-0.596964
1586,0.198034,0.966758,-0.161666,2.103785,0.903375,-0.288438
1587,0.297647,0.914548,-0.273835,1.4900719999999998,1.811145,0.613572
1588,0.380006,0.848462,-0.368358,-0.098786,2.004214,0.395885
1589,0.4022699999999999,0.7964100000000001,-0.451545,-0.524569,1.003028,0.378974
1590,0.412877,0.752437,-0.5131819999999999,-0.546941,0.915471,0.601119
1591,0.432062,0.7120340000000001,-0.553459,0.289083,0.173174,-0.146767
1592,0.44836,0.674996,-0.585953,0.385868,0.00344,-0.497314
1593,0.4513399999999999,0.650511,-0.6108319999999999,0.5782010000000001,0.263857,-0.379067
1594,0.466763,0.635763,-0.6147560000000001,0.913562,0.182077,0.094691
1595,0.476027,0.639622,-0.603548,0.4053199999999999,-0.358143,-0.150176
1596,0.480419,0.646994,-0.592101,0.0265839999999999,-0.563986,-0.242479
1597,0.4781109999999999,0.658406,-0.581291,-0.6174689999999999,-0.935826,0.442588
1598,0.457937,0.675669,-0.577713,-0.933507,-1.57725,0.854309
1599,0.444009,0.705767,-0.552028,-1.038018,-1.426913,1.131618
1600,0.443129,0.743065,-0.501473,-0.874785,-0.803825,0.919473
1601,0.4409409999999999,0.77176,-0.458193,-0.625679,-0.78441,0.519808
1602,0.434405,0.791028,-0.430755,-0.619143,-0.8036770000000001,0.49237
1603,0.433451,0.801737,-0.411484,-1.240152,-0.144923,-0.333755
1604,0.4552779999999999,0.8064180000000001,-0.377349,-0.262605,3.631997,2.091537
1605,0.476829,0.809896,-0.341588,0.026818,5.532786,0.202489
1606,0.502021,0.7886850000000001,-0.354867,-0.576804,-0.8373299999999999,0.510705
1607,0.502695,0.7844869999999999,-0.363123,0.1214809999999999,-1.934863,0.911524
1608,0.486969,0.810004,-0.326702,0.3064429999999999,-1.342993,0.8074
1609,0.442903,0.8544120000000001,-0.27165,0.534987,-0.645199,1.001127
1610,0.393273,0.8959799999999999,-0.206234,0.619376,0.943223,0.032375
1611,0.340213,0.930537,-0.135388,0.595166,1.167913,0.079923
1612,0.279317,0.958604,-0.055061,0.639232,0.424361,-0.1414109999999999
1613,0.234421,0.971901,0.0205979999999999,1.50206,0.305824,-0.190169
1614,0.202756,0.977226,0.062348,1.508731,0.4408189999999999,-0.705338
1615,0.189373,0.979328,0.070862,-0.15562,0.2086599999999999,-0.442184
1616,0.167477,0.982446,0.081966,-0.421963,0.492438,0.010197
1617,0.1381619999999999,0.986675,0.085742,-0.444192,0.233678,-0.363894
1618,0.1085,0.99188,0.06611,-0.089991,-0.316388,-0.06614
1619,0.086926,0.995714,0.031092,0.062503,-1.027925,-0.161402
1620,0.078605,0.996871,-0.006271,0.301248,-1.538619,0.048874
1621,0.095132,0.994885,-0.033544,0.5393899999999999,-1.328473,0.012013
1622,0.128381,0.989107,-0.0718179999999999,-0.190576,-0.918429,0.390895
1623,0.167696,0.977979,-0.124139,0.364836,-0.547254,-1.01023
1624,0.2178909999999999,0.954918,-0.201573,2.198705,1.7800060000000002,0.440205
1625,0.303217,0.904112,-0.301033,0.906225,2.478899,1.127633
1626,0.365952,0.8530770000000001,-0.3719139999999999,-0.301469,1.865047,0.310375
1627,0.38178,0.81472,-0.4364149999999999,-0.5870569999999999,1.382835,0.583677
1628,0.407746,0.778157,-0.477704,-0.136536,0.592449,0.194165
1629,0.428454,0.747423,-0.5077119999999999,0.569166,0.001204,-0.31437
1630,0.439799,0.71834,-0.539028,0.30869,0.165495,-0.308171
1631,0.45155,0.6929310000000001,-0.562083,0.2344389999999999,0.292421,-0.0506649999999999
1632,0.4703529999999999,0.686988,-0.553898,0.91249,-0.138877,-0.092174
1633,0.4811359999999999,0.689441,-0.5414479999999999,0.034733,-0.722842,-0.243007
1634,0.483295,0.6950149999999999,-0.5323220000000001,-0.206012,-0.747963,-0.248302
1635,0.4720359999999999,0.700559,-0.535149,-0.898184,-1.316984,0.666726
1636,0.4526479999999999,0.7157180000000001,-0.53183,-1.176922,-1.29189,1.217362
1637,0.434281,0.748491,-0.501146,-0.969254,-1.107972,1.083803
1638,0.423145,0.783121,-0.45569,-0.530933,-0.8650610000000001,0.896288
1639,0.422684,0.8044140000000001,-0.417418,-0.4964,-0.845857,0.348616
1640,0.427343,0.813657,-0.394109,-0.915029,-0.436139,0.121557
1641,0.446416,0.812203,-0.375526,-1.32459,0.320167,-1.443535
1642,0.4898979999999999,0.803824,-0.337412,1.499772,7.147697999999999,0.540995
1643,0.517861,0.787529,-0.3340639999999999,-0.893013,-0.8237690000000001,0.2207829999999999
1644,0.528029,0.7662399999999999,-0.366117,-1.093932,-0.689229,0.915159
1645,0.522084,0.780266,-0.3443739999999999,-0.039113,-2.237969,0.712828
1646,0.490544,0.819187,-0.297116,0.328106,-0.458012,0.8882110000000001
1647,0.439231,0.8650690000000001,-0.242298,0.385094,0.347669,0.10944
1648,0.382844,0.905644,-0.182249,0.749038,1.546641,0.590406
1649,0.316315,0.942644,-0.106494,0.507416,1.148589,-0.147977
1650,0.269759,0.961923,-0.043661,0.74016,0.178443,-0.052744
1651,0.237723,0.9712,0.01509,1.73855,0.142432,-0.228163
1652,0.220108,0.974254,0.04848,1.29596,-0.001552,-0.618807
1653,0.2089329999999999,0.976427,0.053914,-0.133875,0.049208,-0.268575
1654,0.1860619999999999,0.980631,0.0609309999999999,-0.432217,0.055288,-0.128695
1655,0.1540619999999999,0.985563,0.069993,-0.7298979999999999,0.083849,-0.469315
1656,0.11919,0.990797,0.0639049999999999,-0.5977210000000001,-0.100462,-0.288271
1657,0.093482,0.994757,0.041087,-0.048881,-0.8295049999999999,-0.162074
1658,0.081028,0.996659,0.008721,0.158169,-1.274842,-0.076058
1659,0.091944,0.995601,-0.017193,0.445471,-1.318202,0.105725
1660,0.124206,0.991021,-0.0492089999999999,-0.025085,-0.977654,0.2480619999999999
1661,0.167488,0.981212,-0.095619,-0.21711,-0.638652,-0.36036
1662,0.23109,0.95718,-0.174296,1.580464,0.8707010000000001,-1.024877
1663,0.330782,0.902704,-0.2751139999999999,0.458067,2.594428,0.74742
1664,0.401782,0.8471860000000001,-0.347601,-0.340366,2.224591,0.343099
1665,0.419464,0.806616,-0.416416,-0.5479890000000001,1.35679,0.477238
1666,0.44332,0.764241,-0.468388,-0.469366,0.6649430000000001,0.555592
1667,0.469335,0.730975,-0.495364,0.30955,-0.122652,-0.104306
1668,0.483768,0.700609,-0.5245,0.076107,0.003218,-0.272329
1669,0.489847,0.676124,-0.550357,0.347952,0.238351,-0.085965
1670,0.5018739999999999,0.662333,-0.5562590000000001,1.04407,0.067785,-0.14293
1671,0.508509,0.661277,-0.551469,0.388631,-0.4333869999999999,-0.131118
1672,0.513704,0.6672140000000001,-0.53937,-0.280778,-0.540658,-0.033232
1673,0.507848,0.674516,-0.535821,-0.544836,-0.8383950000000001,0.276406
1674,0.48476,0.686761,-0.541621,-0.973621,-1.622155,0.939677
1675,0.47391,0.719407,-0.507787,-1.06438,-1.111405,1.110906
1676,0.472312,0.754775,-0.455213,-0.794456,-0.920959,0.71324
1677,0.473106,0.777623,-0.414072,-0.721336,-0.859425,0.519205
1678,0.4745529999999999,0.789745,-0.3886949999999999,-0.8390700000000001,-0.814617,0.098366
1679,0.480951,0.794674,-0.370352,-1.144434,-0.211788,-1.617257
1680,0.505634,0.7950470000000001,-0.334983,-0.4521979999999999,6.262646,2.205299
1681,0.52194,0.79711,-0.303601,1.012743,2.840464,0.028561
1682,0.552666,0.769311,-0.320468,-0.6708609999999999,-0.88395,1.319507
1683,0.5616949999999999,0.759907,-0.32714,0.095013,-2.0042150000000003,0.719001
1684,0.5593060000000001,0.783501,-0.270703,0.564534,-0.912606,0.3992429999999999
1685,0.53217,0.818932,-0.214758,-0.009313,-0.200707,-0.434504
1686,0.491199,0.8525229999999999,-0.178611,0.177364,1.403229,0.621803
1687,0.433646,0.893611,-0.115685,0.401117,1.830342,0.016197
1688,0.373726,0.925308,-0.064064,-0.048317,-0.063248,0.346993
1689,0.323417,0.946205,-0.008197,1.149713,0.340446,-0.1988339999999999
1690,0.290536,0.956015,0.039908,1.389518,0.426569,-0.441688
1691,0.273328,0.959538,0.067416,0.301028,-0.0275769999999999,-0.6849689999999999
1692,0.256843,0.963522,0.07499,-0.350059,0.164102,-0.4107439999999999
1693,0.229103,0.970997,0.068143,-0.353187,-0.08202,-0.264859
1694,0.199524,0.978555,0.050871,-0.261642,-0.579186,-0.231016
1695,0.1783549999999999,0.983715,0.021485,-0.208506,-0.8124359999999999,-0.196274
1696,0.17165,0.985096,-0.009566,0.059109,-1.402134,-0.025255
1697,0.1862079999999999,0.982009,-0.030892,0.171122,-1.148895,-0.106101
1698,0.21633,0.974309,-0.0624059999999999,-0.135718,-0.969441,0.1603369999999999
1699,0.252208,0.960697,-0.115864,-0.193614,-0.600605,-0.066432
1700,0.295604,0.936441,-0.188867,1.2084549999999998,0.4853119999999999,-1.71897
1701,0.368476,0.885817,-0.282011,0.931695,3.123582,0.8984200000000001
1702,0.425025,0.829937,-0.361301,-0.484122,1.654606,0.516101
1703,0.436242,0.792437,-0.426284,-0.644219,1.152219,0.493728
1704,0.446514,0.750579,-0.4870739999999999,-0.485484,0.991273,0.5354899999999999
1705,0.46655,0.711693,-0.525175,0.327502,0.150856,0.0904679999999999
1706,0.4972399999999999,0.67519,-0.544846,0.39868,-0.042835,-0.309479
1707,0.511215,0.648943,-0.563487,0.412781,0.142729,-0.335133
1708,0.518187,0.636775,-0.570952,0.939882,-0.087459,-0.010561
1709,0.517101,0.641621,-0.5664939999999999,0.628422,-0.117833,-0.221119
1710,0.517316,0.651927,-0.5544020000000001,0.1216309999999999,-0.466731,-0.198818
1711,0.514907,0.664345,-0.541758,-0.559066,-0.620476,0.243769
1712,0.4964659999999999,0.683236,-0.535439,-0.92333,-1.178857,0.627862
1713,0.481466,0.711199,-0.512221,-0.860036,-1.320544,0.991622
1714,0.479604,0.74145,-0.4692699999999999,-0.64385,-0.827571,0.729737
1715,0.4802149999999999,0.764019,-0.430871,-0.606024,-0.7889520000000001,0.525033
1716,0.4783989999999999,0.777351,-0.408462,-0.612829,-0.802131,0.213164
1717,0.481358,0.779183,-0.401434,-0.893437,-0.370873,-1.1922700000000002
1718,0.509599,0.778892,-0.365535,-0.589861,2.262155,1.267528
1719,0.5273100000000001,0.777756,-0.342079,-0.073087,6.415557,0.399895
1720,0.5519970000000001,0.752522,-0.35915,-0.726726,-0.266759,0.8356969999999999
1721,0.551396,0.7518859999999999,-0.3614,-0.653935,-0.6922699999999999,1.039165
1722,0.537096,0.780135,-0.320774,0.236296,-1.702193,0.7980689999999999
1723,0.507655,0.818837,-0.267898,0.296697,0.065852,0.359039
1724,0.468456,0.859007,-0.206472,0.428883,0.465746,0.2664849999999999
1725,0.423502,0.8954469999999999,-0.137093,0.596869,1.134003,-0.0598519999999999
1726,0.371551,0.925783,-0.06961,0.543488,0.256468,-0.003128
1727,0.3345059999999999,0.942369,-0.003835,1.294492,0.212904,-0.179194
1728,0.30684,0.95065,0.045617,1.308593,0.386478,-0.737206
1729,0.289296,0.95507,0.064151,0.1801559999999999,0.071571,-0.6690699999999999
1730,0.273339,0.959644,0.06585,-0.333398,0.191693,-0.108041
1731,0.2473429999999999,0.966634,0.0663779999999999,-0.423048,0.056071,-0.101931
1732,0.216851,0.97436,0.059712,-0.334283,-0.289927,-0.264256
1733,0.191225,0.980655,0.041435,-0.192904,-0.6642939999999999,-0.2072369999999999
1734,0.175672,0.984352,0.01257,-0.025495,-1.099861,-0.114224
1735,0.175118,0.984325,-0.020181,0.238762,-1.273006,0.134377
1736,0.194866,0.979313,-0.054249,-0.017391,-0.8300059999999999,0.1938359999999999
1737,0.229655,0.968836,-0.092668,-0.101008,-0.6428159999999999,-0.380461
1738,0.294984,0.940715,-0.167374,1.14424,1.192525,0.224869
