,gravity.x,gravity.y,gravity.z,userAcceleration.x,userAcceleration.y,userAcceleration.z
0,0.481051,0.8604040000000001,-0.168201,1.511396,1.203607,-0.084652
1,0.467628,0.8790459999999999,-0.0927289999999999,1.691369,0.986676,-0.4534289999999999
2,0.45364,0.890315,-0.0393279999999999,0.79842,0.570637,-0.941431
3,0.4501739999999999,0.892926,0.004855,0.526541,0.125934,-0.169879
4,0.444238,0.895127,0.037366,0.207526,-0.1969,0.195574
5,0.441939,0.893841,0.075732,-0.650068,-0.684353,-0.380893
6,0.435975,0.892301,0.117132,-0.71454,-0.977842,-0.970114
7,0.431762,0.891735,0.135599,-0.417221,-0.967037,-0.480859
8,0.425485,0.8943059999999999,0.138478,-0.229165,-0.965748,-0.6241800000000001
9,0.426068,0.8961459999999999,0.124041,-0.366498,-0.970303,-0.367205
10,0.428918,0.8985200000000001,0.093208,-0.336877,-1.067221,-0.173698
11,0.431961,0.900565,0.048874,-0.300461,-1.035972,-0.119614
12,0.438004,0.898875,-0.01313,-0.156494,-0.6226,-0.219154
13,0.443556,0.892345,-0.083517,0.172075,-0.125469,0.126058
14,0.449813,0.8788870000000001,-0.158819,0.306978,0.153583,0.281317
15,0.4738279999999999,0.8501700000000001,-0.229557,0.746203,3.26241,0.45441
16,0.520285,0.817366,-0.247414,-0.0485899999999999,2.19864,-0.249336
17,0.532013,0.791238,-0.301501,-0.0783389999999999,1.54888,-0.025541
18,0.516832,0.771193,-0.371678,0.532576,0.915376,0.260472
19,0.5255350000000001,0.7402029999999999,-0.419417,1.111397,0.799317,-0.052965
20,0.5405310000000001,0.707146,-0.455818,0.855358,0.484795,0.110969
21,0.536211,0.688466,-0.488356,-0.038255,0.045451,0.325484
22,0.514744,0.688117,-0.511402,-0.8312120000000001,-0.4715189999999999,0.518756
23,0.493475,0.6992550000000001,-0.5172260000000001,-1.063299,-1.051978,0.952102
24,0.4822359999999999,0.721156,-0.497374,-0.978192,-1.310115,1.382811
25,0.48222,0.752178,-0.4490989999999999,-1.038724,-1.249233,1.328753
26,0.49786,0.777667,-0.383885,-1.024853,-1.11481,0.8699379999999999
27,0.516425,0.79419,-0.320257,-0.931144,-0.726258,-0.002344
28,0.518402,0.804434,-0.290075,-0.105621,-0.035009,-1.209223
29,0.504199,0.797032,-0.332448,0.7882359999999999,0.25645,-0.316905
30,0.527906,0.78056,-0.334723,0.570315,-0.527691,0.667014
31,0.565426,0.763518,-0.311979,-0.016003,0.7716689999999999,0.876661
32,0.601683,0.7198359999999999,-0.346137,-0.413603,0.547833,1.005973
33,0.620504,0.708813,-0.335494,-1.2767389999999998,-0.7910119999999999,-0.457093
34,0.617961,0.730468,-0.290753,-0.463146,0.712601,0.722012
35,0.582869,0.7740520000000001,-0.247193,0.1748819999999999,1.978314,0.74611
36,0.530007,0.8202860000000001,-0.214986,0.476691,1.354198,0.682546
37,0.483307,0.854088,-0.192209,1.46199,1.187141,0.174173
38,0.4560729999999999,0.880884,-0.126634,1.717023,0.911413,-0.4910569999999999
39,0.44813,0.891631,-0.064563,0.5732470000000001,0.714661,-0.175214
40,0.452359,0.891826,-0.003718,0.342121,0.6558579999999999,-0.161153
41,0.456829,0.8880680000000001,0.051368,-0.2471429999999999,-0.064032,-0.403357
42,0.459078,0.883394,0.094108,-0.752352,-0.8162560000000001,-0.751289
43,0.4565659999999999,0.880632,0.12661,-0.388603,-0.942094,-0.761559
44,0.445079,0.883799,0.144215,0.167485,-0.722072,-0.447056
45,0.4326819999999999,0.888957,0.150121,0.043636,-0.947124,-0.7412310000000001
46,0.428526,0.892408,0.14131,-0.188399,-1.037183,-0.561308
47,0.430492,0.89659,0.1039109999999999,-0.329448,-1.001265,-0.193754
48,0.429452,0.901356,0.055876,-0.201761,-0.913548,-0.1246319999999999
49,0.4341279999999999,0.900845,-0.002393,-0.206436,-0.913037,-0.066363
50,0.443922,0.8929809999999999,-0.074259,0.175799,0.0011539999999999,0.296778
51,0.4573149999999999,0.8760959999999999,-0.152694,0.276129,1.183246,0.574813
52,0.486088,0.8479200000000001,-0.211533,0.421642,3.566356,-0.313675
53,0.51117,0.821234,-0.253531,0.030624,3.56576,-1.02923
54,0.499272,0.803225,-0.324889,0.05778,1.469998,0.492614
55,0.47746,0.781288,-0.402017,0.758731,1.2463,0.251139
56,0.484073,0.742475,-0.4630359999999999,1.028424,1.114657,0.139656
57,0.500063,0.702547,-0.506322,0.604353,0.492598,0.012624
58,0.491616,0.682068,-0.5413819999999999,-0.026284,-0.148545,0.520141
59,0.462937,0.678149,-0.5707899999999999,-0.426529,-0.417407,0.7012520000000001
60,0.438779,0.684454,-0.582231,-1.025022,-1.197897,0.997133
61,0.427068,0.7021930000000001,-0.56968,-0.896352,-1.276443,1.381173
62,0.433791,0.72988,-0.528297,-1.018447,-1.296134,1.473274
63,0.461974,0.757208,-0.46175,-1.192473,-1.04682,0.8243290000000001
64,0.494204,0.773786,-0.396251,-0.20035,-0.309446,-0.563588
65,0.50759,0.778355,-0.369476,0.265314,-0.018071,-0.916046
66,0.5141359999999999,0.7669189999999999,-0.384052,0.968622,0.1009549999999999,-0.516674
67,0.534339,0.749412,-0.390974,0.488015,-0.414497,0.990263
68,0.573729,0.730942,-0.369533,-0.015364,0.97058,0.7536729999999999
69,0.601404,0.689585,-0.403462,-0.787714,-0.170664,0.708592
70,0.617274,0.6869529999999999,-0.38349,-1.453654,-0.599887,-0.068795
71,0.618639,0.706451,-0.343815,-0.417803,1.02324,1.094914
72,0.598092,0.748166,-0.28728,-0.18731,1.443439,0.878085
73,0.560379,0.798635,-0.219437,0.3880619999999999,1.579493,0.5633859999999999
74,0.516612,0.8342510000000001,-0.192696,1.378651,1.862419,0.2506489999999999
75,0.490767,0.860439,-0.137064,2.389726,1.358189,-0.461355
76,0.4727729999999999,0.877159,-0.084096,1.237036,0.386864,-0.853801
77,0.46728,0.8834690000000001,-0.033542,0.49207,0.446899,-0.286404
78,0.4645109999999999,0.885511,0.009724,-0.127139,-0.101438,0.432918
79,0.462914,0.8844770000000001,0.0583529999999999,-1.098427,-0.827516,-0.770968
80,0.4618239999999999,0.8806780000000001,0.1054529999999999,-1.024949,-0.724107,-0.988388
81,0.453881,0.8789170000000001,0.146595,-0.280984,-0.897503,-0.674412
82,0.4432439999999999,0.880654,0.167266,-0.022635,-0.924599,-0.655502
83,0.440432,0.8809469999999999,0.173047,-0.113772,-1.033749,-0.7074090000000001
84,0.448945,0.880459,0.152428,-0.270326,-0.931393,-0.551918
85,0.4578359999999999,0.883333,0.100513,-0.233563,-0.8401350000000001,-0.298144
86,0.465796,0.8835139999999999,0.049296,-0.165396,-0.531341,-0.25828
87,0.481242,0.876542,-0.008645,0.05747,-0.16417,0.2680599999999999
88,0.490749,0.867183,-0.0845799999999999,0.153142,0.19141,0.327454
89,0.50925,0.846361,-0.155991,0.716016,3.517408,0.734192
90,0.541126,0.819235,-0.189823,-0.016391,3.37449,-0.8936270000000001
91,0.532064,0.803914,-0.265755,-0.1699119999999999,1.568705,0.205559
92,0.5091760000000001,0.787457,-0.3473429999999999,0.336466,1.292957,0.182228
93,0.5098600000000001,0.756486,-0.409596,1.086194,1.059661,0.177526
94,0.526516,0.715711,-0.458843,1.15334,0.458117,0.167613
95,0.535274,0.679235,-0.502115,0.406422,-0.093023,0.364648
96,0.511211,0.668142,-0.5405989999999999,-0.6656,-0.710928,0.760936
97,0.473293,0.673862,-0.5673630000000001,-1.205868,-1.214237,1.070125
98,0.446671,0.688294,-0.5716060000000001,-0.900208,-1.401154,1.495023
99,0.443472,0.714638,-0.540946,-1.171286,-1.134666,1.362235
100,0.469379,0.7400399999999999,-0.481685,-1.298267,-1.010319,0.8744930000000001
101,0.5081859999999999,0.75546,-0.41355,-1.3048620000000002,-0.8579379999999999,0.2089909999999999
102,0.531626,0.760306,-0.373234,0.209478,-0.200248,-0.8621790000000001
103,0.545894,0.75095,-0.371577,0.7809189999999999,0.010997,-0.08991
104,0.564367,0.7370800000000001,-0.37175,0.1085599999999999,-0.611424,1.120347
105,0.590777,0.7242149999999999,-0.3556539999999999,-0.531466,0.641095,0.241763
106,0.605082,0.690655,-0.3960639999999999,-0.286402,0.567844,0.5121220000000001
107,0.6283479999999999,0.6939029999999999,-0.351671,-0.77082,-0.124964,0.936373
108,0.6203930000000001,0.713279,-0.3260989999999999,-0.311173,0.774941,0.8840979999999999
109,0.6004689999999999,0.748973,-0.280127,0.228785,1.394292,0.706167
110,0.5677949999999999,0.7933899999999999,-0.2193969999999999,0.4627229999999999,1.396093,0.614721
111,0.5221,0.833414,-0.1811819999999999,1.424784,1.914236,0.191771
112,0.489623,0.8634129999999999,-0.121575,1.831086,1.204717,-0.617668
113,0.470563,0.8799170000000001,-0.06565,0.966541,0.45892,-0.688776
114,0.4667479999999999,0.884266,-0.014594,0.4843479999999999,0.299114,0.027152
115,0.464409,0.8847860000000001,0.038345,-0.383415,-0.210286,-0.305679
116,0.464179,0.882225,0.078796,-0.898841,-0.8613200000000001,-0.402969
117,0.465035,0.877085,0.120229,-0.832528,-0.878992,-0.800405
118,0.453421,0.878217,0.152101,-0.125052,-0.99603,-0.6391
119,0.443781,0.8798520000000001,0.1700289999999999,0.10314,-0.857116,-0.6755979999999999
120,0.440061,0.880282,0.177313,-0.104001,-0.886965,-0.5855319999999999
121,0.442852,0.8824069999999999,0.1588369999999999,-0.336056,-0.996528,-0.556878
122,0.44991,0.8855879999999999,0.115346,-0.323705,-0.918089,-0.3208809999999999
123,0.459668,0.885461,0.068227,-0.2067989999999999,-0.7780090000000001,-0.190526
124,0.4744899999999999,0.880085,0.017338,-0.1998309999999999,-0.3411909999999999,0.00471
125,0.487864,0.871726,-0.045555,0.248663,0.0141229999999999,0.3009719999999999
126,0.495604,0.859642,-0.124036,0.526155,1.004982,0.471677
127,0.523519,0.832317,-0.182126,0.601283,3.958592,-0.136126
128,0.550571,0.80874,-0.206893,0.0707059999999999,2.6831270000000003,-1.510346
129,0.544847,0.7846989999999999,-0.295607,0.142988,1.395584,0.355406
130,0.534987,0.7613270000000001,-0.3662849999999999,0.3833789999999999,1.432993,0.344663
131,0.550661,0.724109,-0.41525,1.022581,0.765637,0.224042
132,0.566105,0.681621,-0.4635869999999999,0.554501,0.048374,0.322611
133,0.563634,0.655021,-0.503249,0.099086,-0.246238,0.4375449999999999
134,0.5381090000000001,0.653753,-0.5320159999999999,-1.120186,-1.185064,0.980121
135,0.512468,0.668401,-0.539085,-1.082704,-1.463125,1.470344
136,0.503789,0.698019,-0.508882,-1.181966,-1.326559,1.462068
137,0.520115,0.7290270000000001,-0.444966,-1.278935,-1.121422,0.8710979999999999
138,0.551496,0.7482880000000001,-0.368661,-1.245023,-0.735822,-0.094962
139,0.571498,0.759795,-0.30999,-0.8708299999999999,-0.400252,-0.816719
140,0.564826,0.761938,-0.316882,0.852456,0.236307,-1.022366
141,0.5608489999999999,0.747715,-0.355478,0.476337,-0.50507,1.189783
142,0.585867,0.733604,-0.344353,-0.082907,0.138176,1.298867
143,0.61132,0.698889,-0.371262,-0.1246869999999999,1.000635,1.163361
144,0.6398010000000001,0.673148,-0.370838,-1.465378,-0.6693479999999999,-0.7715569999999999
145,0.65022,0.683914,-0.330863,-0.5638850000000001,0.726182,1.118461
146,0.63113,0.72424,-0.2777489999999999,-0.3837239999999999,1.173678,0.929894
147,0.594597,0.777263,-0.2056909999999999,0.203178,1.5467110000000002,0.705646
148,0.551592,0.817276,-0.166732,0.699049,1.420014,0.655578
149,0.520188,0.8391280000000001,-0.158939,1.222519,1.502425,0.214665
150,0.510126,0.8552360000000001,-0.091289,1.328207,0.566166,-1.000066
151,0.497376,0.866827,-0.034921,0.946593,0.386469,-1.026663
152,0.487006,0.873389,0.002673,0.284341,-0.1114869999999999,0.1444369999999999
153,0.477232,0.8781110000000001,0.034082,-0.372542,-0.736189,0.224967
154,0.472153,0.8785729999999999,0.0719149999999999,-1.08223,-0.736803,-0.733765
155,0.466448,0.8772840000000001,0.113089,-0.645189,-0.7593489999999999,-0.570044
156,0.45726,0.8777379999999999,0.1431079999999999,0.031968,-0.728598,-0.5617479999999999
157,0.450528,0.8789049999999999,0.156651,-0.063413,-0.950469,-0.766789
158,0.453179,0.878091,0.153538,-0.213388,-1.1160219999999998,-0.394215
159,0.4549649999999999,0.8808739999999999,0.130605,-0.250482,-1.071456,-0.540257
160,0.454916,0.8866200000000001,0.083351,-0.318609,-0.8126760000000001,-0.310753
161,0.457647,0.888913,0.019589,0.09434,-0.46948,0.050983
162,0.4655899999999999,0.8831700000000001,-0.056825,0.2241679999999999,0.361215,0.204377
163,0.493022,0.859986,-0.131704,0.3700449999999999,1.7430259999999995,0.441382
164,0.531825,0.828675,-0.17451,0.422826,3.76419,-0.976781
165,0.534978,0.807608,-0.248117,0.002787,2.637888,0.136941
166,0.5197970000000001,0.794402,-0.314216,0.321787,1.161592,0.333625
167,0.501899,0.774203,-0.385621,0.8163239999999999,1.176527,0.2335219999999999
168,0.50462,0.739528,-0.44548,1.264728,0.791966,0.105544
169,0.513084,0.70738,-0.486164,0.1807339999999999,0.160662,0.325367
170,0.5019819999999999,0.6903600000000001,-0.5209729999999999,-0.1950049999999999,-0.091056,0.6086199999999999
171,0.4737409999999999,0.689611,-0.547725,-0.8558209999999999,-0.901663,0.894359
172,0.450518,0.699072,-0.5552739999999999,-1.085543,-1.719122,1.617178
173,0.447809,0.7229359999999999,-0.526143,-1.093393,-1.6323450000000002,1.869252
174,0.476685,0.751286,-0.4564399999999999,-1.21814,-1.10236,0.6803779999999999
175,0.517217,0.767363,-0.378992,-1.258672,-1.1184379999999998,0.60293
176,0.538149,0.771358,-0.339702,0.381284,0.061863,-1.393849
177,0.546655,0.758746,-0.354214,0.851706,0.2355469999999999,0.2807119999999999
178,0.563026,0.741,-0.365946,0.472802,-0.291476,1.326303
179,0.586856,0.734952,-0.339764,-0.630786,-0.6377390000000001,1.281216
180,0.594051,0.706969,-0.383789,-0.269572,0.817399,0.900757
181,0.626365,0.6966829999999999,-0.349705,-0.957496,-0.1200079999999999,1.0489540000000002
182,0.6243350000000001,0.715229,-0.314084,-0.7370359999999999,0.273175,0.99571
183,0.605356,0.751382,-0.26261,0.1139589999999999,1.525016,0.7552399999999999
184,0.570313,0.797495,-0.196822,0.727584,1.7336029999999998,0.8150930000000001
185,0.5239560000000001,0.8352229999999999,-0.166932,1.09343,1.7131009999999998,0.631104
186,0.502091,0.855777,-0.124672,1.491851,0.547207,-0.72039
187,0.49261,0.8687540000000001,-0.050947,0.723745,0.660528,-0.965929
188,0.489651,0.8719120000000001,0.002046,0.598194,0.576055,-0.785493
189,0.4848449999999999,0.8737870000000001,0.037618,-0.2282679999999999,-0.184105,0.102274
190,0.482779,0.872526,0.074932,-0.540076,-0.263136,-0.1542319999999999
191,0.478566,0.8705959999999999,0.114151,-0.946476,-0.716238,-0.86531
192,0.471146,0.871065,0.138782,-0.134125,-0.97632,-0.507419
193,0.459526,0.875389,0.150074,-0.168023,-0.910484,-0.774403
194,0.4548899999999999,0.8783200000000001,0.147041,-0.216166,-0.943689,-0.634666
195,0.453935,0.882724,0.12138,-0.3065199999999999,-1.047428,-0.210217
196,0.450349,0.889186,0.080788,-0.3386699999999999,-1.0466719999999998,-0.117089
197,0.452234,0.891474,0.027404,-0.382303,-0.952616,-0.150695
198,0.4578609999999999,0.8881180000000001,-0.04005,0.0875799999999999,-0.211329,0.093013
199,0.471441,0.8740049999999999,-0.117695,0.29777,1.154788,0.190129
200,0.507253,0.8411780000000001,-0.187373,0.4817,3.498177,0.105418
201,0.53381,0.8138270000000001,-0.229623,0.085163,3.177246,-0.357093
202,0.524113,0.796786,-0.30072,0.0705529999999999,1.8641330000000005,0.305145
203,0.507282,0.77793,-0.37079,0.738919,1.173653,0.3004159999999999
204,0.514367,0.743603,-0.4271729999999999,1.165305,0.851001,0.009982
205,0.529763,0.707505,-0.4677439999999999,0.783668,0.480621,0.070298
206,0.522879,0.6894640000000001,-0.5012310000000001,-0.014136,-0.042522,0.372798
207,0.496478,0.68892,-0.528105,-0.796329,-0.6440899999999999,0.7443529999999999
208,0.475029,0.69703,-0.537115,-1.209572,-1.456842,1.206838
209,0.468579,0.714641,-0.519345,-1.0856290000000002,-1.543742,1.446454
210,0.475405,0.7406689999999999,-0.474758,-1.151934,-1.382683,1.498775
211,0.4998039999999999,0.763249,-0.409442,-1.148394,-1.069203,0.770953
212,0.522733,0.779622,-0.344869,-0.939512,-0.5401050000000001,-0.218501
213,0.52641,0.788874,-0.317119,0.22539,-0.128977,-1.112309
214,0.529027,0.778409,-0.337943,1.069988,0.21413,-0.6753170000000001
215,0.548093,0.76321,-0.342197,0.461276,-0.786205,1.059879
216,0.57047,0.762562,-0.305056,-0.8443799999999999,-1.106113,1.324221
217,0.581914,0.7536010000000001,-0.305708,0.382808,3.38974,0.222929
218,0.605219,0.727003,-0.324303,-0.608667,1.616793,0.812767
219,0.5965010000000001,0.752252,-0.2798199999999999,-1.185093,0.275382,0.2421309999999999
220,0.5725560000000001,0.773465,-0.271892,-0.426484,0.57294,0.917461
221,0.5445949999999999,0.808828,-0.221826,0.452658,1.6672759999999998,0.787423
222,0.515066,0.840141,-0.169891,1.384897,1.880256,0.787887
223,0.5009,0.85731,-0.118795,1.956772,0.836247,-0.047098
224,0.488633,0.871927,-0.031222,1.105056,0.509467,-0.990461
225,0.4797729999999999,0.8767379999999999,0.033776,0.528741,0.523775,-1.220375
226,0.472381,0.8783920000000001,0.072625,-0.130706,-0.127736,0.221778
227,0.465576,0.878833,0.104316,-0.337158,-0.239963,0.2383969999999999
228,0.456581,0.877366,0.147491,-0.947884,-0.97519,-1.161193
229,0.447827,0.876599,0.17611,-0.417356,-1.115628,-0.7160880000000001
230,0.437551,0.879875,0.185362,-0.040563,-0.8622049999999999,-0.516874
231,0.4291,0.8841120000000001,0.1849559999999999,-0.17324,-1.046832,-0.696492
232,0.431758,0.8869229999999999,0.164139,-0.271052,-1.085074,-0.465012
233,0.437875,0.890674,0.122296,-0.266046,-1.013019,-0.308454
234,0.446033,0.8924190000000001,0.068079,-0.389178,-0.674813,-0.566812
235,0.459885,0.8879600000000001,0.004936,-0.3371429999999999,-0.503225,-0.254082
236,0.468613,0.8806299999999999,-0.069895,-0.0149539999999999,-0.377181,0.435266
237,0.469516,0.868433,-0.159289,1.013883,2.579154,0.8837450000000001
238,0.497017,0.836692,-0.230032,0.73838,4.483361,0.166555
239,0.5320060000000001,0.811238,-0.242606,0.0328139999999999,2.414836,-2.254433
240,0.524884,0.785339,-0.328228,-0.060224,1.242905,0.2147639999999999
241,0.514772,0.75765,-0.401213,0.48593,1.133265,0.446501
242,0.543081,0.719046,-0.433627,0.7188359999999999,0.949015,0.207553
243,0.562046,0.683008,-0.466475,0.510097,0.017584,0.226134
244,0.555786,0.6646340000000001,-0.49936,-0.447891,-0.563377,0.580429
245,0.53727,0.6674829999999999,-0.51556,-0.962945,-0.8772610000000001,0.790219
246,0.5282359999999999,0.684445,-0.502492,-1.196617,-1.61694,1.24358
247,0.523637,0.7192529999999999,-0.4565909999999999,-1.206849,-1.306793,1.3661370000000002
248,0.5267930000000001,0.756213,-0.388105,-1.268553,-1.154849,1.069792
249,0.53076,0.779555,-0.33254,-1.073485,-0.586501,-0.008723
250,0.527076,0.792239,-0.307478,-0.284339,-0.149859,-0.763079
251,0.52671,0.788876,-0.316614,1.043389,0.202075,-1.036291
252,0.543619,0.771582,-0.330352,0.888784,-0.503867,0.323547
253,0.568978,0.761781,-0.309755,-0.650841,-0.074525,1.6329209999999998
254,0.590201,0.751287,-0.295336,0.181588,2.851084,-2.367841
255,0.591626,0.7157020000000001,-0.371139,-0.574872,0.658718,1.241806
256,0.6080810000000001,0.727565,-0.317617,-1.286212,-1.299739,0.631154
257,0.600268,0.745356,-0.290027,-0.56145,0.687703,1.060856
258,0.576769,0.782281,-0.235303,0.009229,1.782447,0.875714
259,0.538671,0.824291,-0.174269,0.7009380000000001,1.931538,0.775038
260,0.504034,0.85011,-0.152495,1.664194,1.456759,0.056044
261,0.4921439999999999,0.866757,-0.080734,1.269636,0.5173979999999999,-0.95636
262,0.4772229999999999,0.878295,-0.029118,0.786846,0.456422,-1.000026
263,0.469317,0.883,0.0065349999999999,0.680036,0.2098489999999999,-0.345448
264,0.460376,0.886769,0.041041,-0.010608,-0.39887,0.442999
265,0.450922,0.888817,0.0816279999999999,-0.701563,-0.646142,-0.043862
266,0.436992,0.8896299999999999,0.132614,-0.855648,-0.936413,-0.982559
267,0.433135,0.887611,0.15662,-0.148269,-0.900322,-0.5394939999999999
268,0.432037,0.886099,0.167818,-0.221878,-0.997534,-0.825075
269,0.434058,0.886544,0.160071,-0.402549,-0.93847,-0.47341
270,0.43421,0.8914709999999999,0.129351,-0.395758,-0.910865,-0.394213
271,0.4361819999999999,0.895971,0.0835019999999999,-0.2093449999999999,-0.91924,-0.196814
272,0.4459899999999999,0.894474,0.031631,-0.162619,-0.651295,-0.488509
273,0.4592449999999999,0.8878459999999999,-0.0285589999999999,0.1127,-0.335615,0.530909
274,0.461852,0.8814700000000001,-0.098466,0.4125069999999999,-0.041947,0.594651
275,0.480893,0.86056,-0.167842,1.064517,4.495152,1.085795
276,0.53276,0.820041,-0.209028,-0.183227,3.607769,-1.495745
277,0.5256850000000001,0.803546,-0.2792199999999999,-0.570652,1.316388,0.394271
278,0.494739,0.790455,-0.361123,-0.1502869999999999,0.854901,-0.010581
279,0.490993,0.764079,-0.418454,0.4795109999999999,1.172765,0.192318
280,0.513729,0.732078,-0.44737,0.820881,1.107125,0.367032
281,0.533939,0.69707,-0.478539,0.606457,0.003446,0.185585
282,0.539609,0.677234,-0.5001720000000001,-0.5464600000000001,-0.617786,0.466939
283,0.527287,0.682687,-0.505869,-1.103046,-1.093301,0.642892
284,0.515753,0.700998,-0.492541,-0.939413,-1.280008,1.050341
285,0.506343,0.731853,-0.456075,-0.922374,-1.188411,1.239355
286,0.503275,0.761756,-0.407967,-0.982264,-1.059546,1.026253
287,0.5112369999999999,0.7790199999999999,-0.362987,-1.026785,-0.791669,0.2055929999999999
288,0.515299,0.788705,-0.335271,0.271307,-0.199883,-0.8001659999999999
289,0.517625,0.785517,-0.33915,0.760513,-0.06283,-0.8556590000000001
290,0.536107,0.766926,-0.352716,0.795711,-0.050542,-0.229834
291,0.561473,0.75513,-0.33841,-0.575481,-1.084796,1.582368
292,0.575874,0.7490359999999999,-0.32758,-0.73455,0.455279,0.533925
293,0.5943,0.71155,-0.3748309999999999,0.5775140000000001,3.053831,-1.318315
294,0.622995,0.718675,-0.308834,-1.342279,-0.660935,-0.316334
295,0.598337,0.737258,-0.31375,-1.13244,-0.510054,0.935179
296,0.570979,0.770085,-0.284511,0.207692,1.7131310000000002,0.739452
297,0.545148,0.802399,-0.2428239999999999,0.7483850000000001,1.524337,0.4627949999999999
298,0.526003,0.8281379999999999,-0.193655,1.384626,0.959505,0.174719
299,0.504887,0.8540030000000001,-0.125545,1.473949,0.723268,-0.277562
300,0.486425,0.8716659999999999,-0.059846,0.93899,0.733116,-0.732787
301,0.478837,0.87789,-0.004175,0.526473,0.626551,-0.610265
302,0.4692939999999999,0.882141,0.039771,0.121023,-0.009522,-0.013816
303,0.459689,0.8841319999999999,0.083597,-0.487658,-0.443946,-0.091425
304,0.4488609999999999,0.884066,0.130164,-1.009728,-0.8401360000000001,-1.14173
305,0.440503,0.8845629999999999,0.1532859999999999,-0.0384329999999999,-0.924922,-0.457608
306,0.430543,0.888008,0.161449,-0.0176699999999999,-0.8865280000000001,-0.6062420000000001
307,0.428931,0.8901959999999999,0.153494,-0.198295,-1.037443,-0.6792199999999999
308,0.436191,0.891891,0.1194089999999999,-0.357578,-0.93721,-0.3673639999999999
309,0.439183,0.895864,0.06736,-0.308598,-0.941076,-0.0535659999999999
310,0.44373,0.896114,0.008624,-0.229039,-0.8161430000000001,-0.139194
311,0.454764,0.888725,-0.0578659999999999,0.1219259999999999,-0.404579,0.132252
312,0.470512,0.8717239999999999,-0.136777,0.2423179999999999,0.213938,0.26283
313,0.503582,0.837792,-0.210955,0.4743229999999999,2.288871,0.572314
314,0.536682,0.808234,-0.242329,0.298355,4.170449,-1.020931
315,0.528216,0.787612,-0.317253,-0.227786,1.96399,0.086021
316,0.503674,0.7694380000000001,-0.392776,0.0792269999999999,1.200548,0.395553
317,0.503128,0.738599,-0.4486979999999999,0.814667,1.099795,0.203443
318,0.522774,0.6999340000000001,-0.486616,1.026451,0.756579,0.20294
319,0.5266489999999999,0.673769,-0.518336,0.299675,0.147429,0.303797
320,0.5093840000000001,0.668239,-0.5422,-0.950684,-0.7328600000000001,0.578104
321,0.48921,0.676257,-0.550769,-1.109144,-1.299243,0.720813
322,0.480919,0.6939569999999999,-0.5358510000000001,-0.975411,-1.404788,0.953515
323,0.4840029999999999,0.723541,-0.492164,-1.072443,-1.056381,1.422736
324,0.504419,0.7501909999999999,-0.427517,-1.048639,-1.007088,0.7699239999999999
325,0.527946,0.766356,-0.366013,-1.017525,-0.8401629999999999,0.27353
326,0.5392560000000001,0.771741,-0.337066,0.390859,0.118228,-1.00821
327,0.547766,0.758446,-0.353139,0.818674,-0.066216,-0.186366
328,0.566836,0.740332,-0.361387,0.466398,-0.5937560000000001,0.3634469999999999
329,0.588537,0.735635,-0.335351,-1.014501,-1.045953,1.355202
330,0.5968,0.734712,-0.322525,-0.075514,2.192534,-2.585373
331,0.598164,0.704116,-0.382642,0.434627,3.601319,1.032925
332,0.6023729999999999,0.734891,-0.3115699999999999,-1.269533,-1.085141,-0.0892179999999999
333,0.5883609999999999,0.753134,-0.294305,-0.356061,0.694773,1.002404
334,0.5714819999999999,0.779511,-0.256445,0.748983,2.038406,0.929633
335,0.5556840000000001,0.8024979999999999,-0.217269,1.425746,1.50988,0.6760390000000001
336,0.551235,0.8196979999999999,-0.155655,1.922932,0.634434,-0.2015839999999999
337,0.536672,0.8405959999999999,-0.0733019999999999,1.4263709999999998,0.443553,-0.811753
338,0.521892,0.852816,-0.018027,0.634998,0.606947,-1.122048
339,0.513468,0.857978,0.014675,0.338537,0.4910819999999999,-0.114223
340,0.506165,0.861432,0.041492,-0.131623,-0.263379,0.322277
341,0.495331,0.864884,0.081322,-0.9478,-0.685761,-0.55378
342,0.486539,0.8655079999999999,0.119022,-0.792905,-0.86711,-0.869403
343,0.477784,0.86826,0.133549,0.056731,-0.846318,-0.180638
344,0.47231,0.8714270000000001,0.132397,0.009105,-0.8457610000000001,-0.4688989999999999
345,0.477362,0.871035,0.115815,-0.2080139999999999,-1.1033959999999998,-0.611024
346,0.484768,0.87125,0.076902,-0.369671,-0.798618,-0.126126
347,0.486197,0.873532,0.023364,-0.310538,-0.7436189999999999,-0.125964
348,0.49398,0.8685450000000001,-0.040072,0.015236,-0.44255,-0.16493
349,0.5047520000000001,0.85551,-0.115418,0.189584,-0.035106,0.261811
350,0.52184,0.8300290000000001,-0.196797,0.164165,1.096958,0.473072
351,0.553085,0.797324,-0.241588,0.58426,4.133187,0.387493
352,0.563426,0.775647,-0.284459,-0.131693,1.72005,-0.026637
353,0.546133,0.7561140000000001,-0.360588,0.06225,1.351445,0.199074
354,0.536458,0.728655,-0.425759,0.852031,1.090285,0.0580679999999999
355,0.556584,0.6888479999999999,-0.464433,1.038417,0.972468,-0.065734
356,0.561175,0.6623180000000001,-0.4964,0.404065,0.347035,0.173036
357,0.547629,0.6535770000000001,-0.522432,-0.272773,-0.113294,0.5573899999999999
358,0.5294840000000001,0.656337,-0.537461,-0.982976,-0.5208689999999999,0.637971
359,0.518238,0.6680119999999999,-0.534028,-1.069157,-1.083982,0.707062
360,0.5106539999999999,0.691577,-0.510832,-0.926364,-1.3527559999999998,1.073485
361,0.508478,0.723893,-0.466289,-1.063623,-1.211182,1.319209
362,0.520208,0.75222,-0.404406,-1.041952,-1.078483,0.912981
363,0.5345880000000001,0.768089,-0.352489,-1.025219,-1.018547,0.460186
364,0.539736,0.771242,-0.33744,0.0926029999999999,0.020964,-0.83355
365,0.5443399999999999,0.756163,-0.363189,0.8706229999999999,0.26172,-0.733171
366,0.567244,0.7395149999999999,-0.3624179999999999,0.352464,-0.6288739999999999,0.495856
367,0.5989359999999999,0.735477,-0.316771,-0.6402260000000001,0.1371119999999999,1.590651
368,0.597654,0.701685,-0.38787,0.094774,2.300589,1.032691
369,0.6192,0.7031430000000001,-0.349537,-0.560591,0.333432,0.829167
370,0.6211979999999999,0.715318,-0.320044,-0.808454,-0.051499,1.072303
371,0.608915,0.7449279999999999,-0.27258,-0.290937,1.526145,0.76788
372,0.582054,0.7830590000000001,-0.2191469999999999,0.453193,1.529396,0.451981
373,0.5407529999999999,0.819122,-0.191358,1.18497,1.349243,0.1588109999999999
374,0.5029779999999999,0.852957,-0.139537,1.6793189999999998,1.065958,-0.445805
375,0.479204,0.873152,-0.089235,1.063002,0.427309,-0.731703
376,0.46945,0.8818969999999999,-0.04322,0.8287680000000001,0.32016,-0.646462
377,0.4624069999999999,0.886651,-0.004827,0.050624,-0.229027,0.317297
378,0.461031,0.8863620000000001,0.042503,-0.501024,-0.701959,-0.082634
379,0.458658,0.884325,0.087147,-0.680978,-0.938982,-0.299138
380,0.458077,0.879663,0.127873,-0.676399,-0.680032,-1.092518
381,0.453156,0.879598,0.144733,-0.0983899999999999,-0.913503,-0.693973
382,0.447929,0.882332,0.144363,-0.158684,-0.902092,-0.500458
383,0.448752,0.885175,0.122792,-0.284644,-0.936674,-0.447438
384,0.451162,0.8888590000000001,0.079837,-0.246419,-0.955998,-0.157718
385,0.455401,0.889858,0.0274629999999999,-0.258731,-0.933743,-0.0443089999999999
386,0.464134,0.884842,-0.040342,-0.080971,-0.649338,0.005689
387,0.4802359999999999,0.8691770000000001,-0.117888,0.044468,0.261773,0.239455
388,0.510472,0.8399190000000001,-0.184249,0.343028,2.038163,0.405959
389,0.542457,0.810765,-0.21999,0.5651930000000001,3.420009,0.2795
390,0.544075,0.789121,-0.285072,-0.0061119999999999,1.561755,0.301093
391,0.526921,0.773092,-0.3531,0.011043,1.577784,0.369122
392,0.529139,0.7403390000000001,-0.414617,0.93511,1.042376,0.063909
393,0.550038,0.6996680000000001,-0.455981,1.1212719999999998,0.656716,0.0122709999999999
394,0.555501,0.6704939999999999,-0.4917859999999999,0.4463609999999999,0.30587,0.215175
395,0.537475,0.660671,-0.524053,-0.338012,-0.118282,0.584753
396,0.51513,0.663014,-0.543186,-0.958871,-0.639698,0.684834
397,0.500214,0.675244,-0.54206,-1.190353,-1.113888,0.935691
398,0.494551,0.700214,-0.514896,-1.155409,-1.357425,1.412891
399,0.501054,0.7334,-0.45942,-1.166199,-1.218461,1.337807
400,0.522622,0.757674,-0.390887,-1.132882,-0.953414,0.493121
401,0.535909,0.769624,-0.347097,-0.4771319999999999,-0.423829,-0.577967
402,0.540618,0.7653220000000001,-0.3493,0.66948,0.038313,-1.263371
403,0.55847,0.7455609999999999,-0.363656,0.517458,-0.406068,1.217629
404,0.591424,0.738202,-0.324456,-0.183114,-0.170132,1.511147
405,0.614795,0.700783,-0.3618389999999999,-0.178424,1.793251,1.375236
406,0.6372270000000001,0.689737,-0.343803,-1.390416,-0.994287,-0.014718
407,0.632883,0.7067399999999999,-0.316185,-0.805369,0.132829,1.388817
408,0.6137560000000001,0.742135,-0.269321,-0.335955,1.351645,1.0537299999999998
409,0.586751,0.781929,-0.2104889999999999,0.26765,1.7225119999999998,0.647059
410,0.555354,0.811454,-0.181989,0.51827,1.170053,0.546918
411,0.529924,0.8347889999999999,-0.149341,0.952636,1.17574,0.241336
412,0.503883,0.8591799999999999,-0.088919,1.424889,0.902463,-0.819375
413,0.488438,0.87155,-0.042687,0.8735149999999999,0.418382,-0.777443
414,0.4775439999999999,0.878555,-0.009318,0.581569,0.181702,-0.091833
415,0.4720439999999999,0.880972,0.032507,-0.1625349999999999,-0.566641,0.216028
416,0.4669649999999999,0.8809629999999999,0.076432,-0.74733,-0.8580129999999999,-0.481568
417,0.463985,0.877863,0.1186059999999999,-0.227276,-0.784601,-0.5901489999999999
418,0.456692,0.8789790000000001,0.137188,-0.045224,-0.8592350000000001,-0.529644
419,0.45177,0.880971,0.140669,-0.008822,-0.93224,-0.784284
420,0.456375,0.8815569999999999,0.120716,-0.3950349999999999,-0.930415,-0.504825
421,0.4576119999999999,0.885652,0.078763,-0.36255,-0.8946860000000001,-0.092405
422,0.4574069999999999,0.888703,0.031297,-0.322366,-0.8884129999999999,-0.0289779999999999
423,0.46447,0.8851399999999999,-0.0280769999999999,-0.092278,-0.460213,-0.058334
424,0.477501,0.872841,-0.100675,0.080757,-0.153389,0.158216
425,0.502314,0.8469409999999999,-0.17426,0.146032,0.566038,0.340413
426,0.5378539999999999,0.812654,-0.224275,0.5632659999999999,2.973021,0.955568
427,0.567185,0.782029,-0.258314,0.315002,3.132095,-1.347704
428,0.559049,0.758494,-0.334884,0.188128,1.934469,-0.0223699999999999
429,0.560956,0.725841,-0.398094,0.8716299999999999,1.07256,-0.0879139999999999
430,0.5824199999999999,0.682081,-0.442209,1.053551,0.817355,-0.202719
431,0.581496,0.6534310000000001,-0.484651,0.877534,0.5684779999999999,0.057588
432,0.557702,0.6453770000000001,-0.521971,-0.346871,-0.032539,0.687621
433,0.529521,0.648234,-0.547171,-0.6897840000000001,-0.241633,0.7582760000000001
434,0.511104,0.66042,-0.5501050000000001,-1.214,-0.903645,0.8553879999999999
435,0.5055810000000001,0.6850970000000001,-0.5244300000000001,-1.214947,-1.336083,1.34494
436,0.510996,0.720669,-0.468524,-1.2391299999999998,-1.334103,1.338916
437,0.5273479999999999,0.749631,-0.399941,-1.107335,-0.977399,0.354454
438,0.538105,0.764969,-0.353921,-0.330463,-0.445633,-0.419562
439,0.538725,0.766885,-0.348794,0.566102,0.037192,-0.8840100000000001
440,0.548104,0.7522399999999999,-0.365666,0.894905,-0.142499,0.162526
441,0.571775,0.742472,-0.349004,-0.078718,-0.821375,1.158086
442,0.5934659999999999,0.741708,-0.31251,-0.626333,0.560813,0.421274
443,0.595043,0.711184,-0.374347,-0.123135,1.502118,1.017856
444,0.616254,0.7207279999999999,-0.317455,-1.099347,-0.582285,0.042614
445,0.6121979999999999,0.737169,-0.285989,-0.5826720000000001,0.460188,1.015115
446,0.595283,0.766464,-0.2411739999999999,-0.374015,1.042907,0.903481
447,0.566364,0.801894,-0.190244,0.437909,1.626817,0.686063
448,0.526737,0.833217,-0.168203,0.94328,1.148564,0.255605
449,0.497317,0.859439,-0.1184619999999999,1.592877,1.003003,-0.536461
450,0.477516,0.875792,-0.07042,0.926628,0.52318,-0.745482
451,0.4707659999999999,0.881741,-0.030068,0.7301770000000001,0.38422,-0.466377
452,0.462881,0.886396,0.005951,0.210367,-0.009351,0.415649
453,0.458435,0.8871209999999999,0.053336,-0.3476869999999999,-0.564443,-0.220038
454,0.455111,0.885383,0.094671,-0.913271,-0.751762,-0.86971
455,0.4514149999999999,0.8830969999999999,0.127887,-0.3563679999999999,-0.777231,-0.627078
456,0.442418,0.885742,0.14042,-0.030232,-0.807266,-0.357705
457,0.440884,0.8867430000000001,0.138923,-0.029644,-0.978387,-0.724739
458,0.4485649999999999,0.886076,0.1168369999999999,-0.269167,-1.055601,-0.598969
459,0.4498149999999999,0.890116,0.073158,-0.354906,-0.957712,-0.140983
460,0.44997,0.892824,0.01963,-0.23479,-0.855943,0.073769
461,0.456779,0.8881690000000001,-0.050031,0.109094,-0.332352,0.164502
462,0.4833689999999999,0.865309,-0.132625,0.114852,0.4502279999999999,0.174556
463,0.527327,0.8284879999999999,-0.188491,0.301439,2.153492,0.134628
464,0.5494760000000001,0.802335,-0.233085,0.2451559999999999,3.697695,-0.352181
465,0.532222,0.7870199999999999,-0.311984,-0.091579,2.159437,0.306003
466,0.52395,0.7635569999999999,-0.377429,0.410437,1.448327,0.482653
467,0.532155,0.727329,-0.4333579999999999,0.99911,1.131695,0.162744
468,0.545583,0.687303,-0.479531,1.099528,0.6535479999999999,0.091698
469,0.536888,0.665795,-0.518135,0.303612,0.168372,0.242546
470,0.512209,0.66147,-0.54781,-0.067095,-0.044054,0.546361
471,0.490143,0.667842,-0.560129,-1.134537,-1.057338,0.852167
472,0.479022,0.6853130000000001,-0.5485270000000001,-1.135317,-1.30131,1.031971
473,0.479327,0.715958,-0.5075890000000001,-1.013507,-1.498352,1.475988
474,0.497379,0.748238,-0.439034,-1.190891,-1.286812,1.165978
475,0.517232,0.768688,-0.376279,-0.895589,-0.4996609999999999,-0.171298
476,0.520426,0.777572,-0.352894,-0.331843,-0.280288,-0.670879
477,0.519338,0.768822,-0.37309,1.076701,0.266303,-0.77518
478,0.532197,0.753051,-0.38688,0.903822,-0.100051,0.204796
479,0.557284,0.750041,-0.356187,-0.681017,-0.233058,1.672029
480,0.562109,0.725853,-0.396443,0.430201,2.937202,-0.2176929999999999
481,0.585908,0.703647,-0.40198,-0.309129,1.01939,0.943697
482,0.5984510000000001,0.714026,-0.3633429999999999,-0.984484,-0.3799349999999999,1.2112889999999998
483,0.5947680000000001,0.735809,-0.323776,-0.31744,1.3060459999999998,0.903885
484,0.571743,0.7771779999999999,-0.262868,0.424701,1.757612,0.631795
485,0.540207,0.8112560000000001,-0.223684,0.731506,1.302177,0.709036
486,0.512093,0.837939,-0.188715,1.792609,1.099561,-0.068915
487,0.493334,0.8609680000000001,-0.123893,1.290129,0.6277550000000001,-0.7037439999999999
488,0.477236,0.8756639999999999,-0.073834,0.750395,0.461158,-0.6929810000000001
489,0.468452,0.8829809999999999,-0.029854,0.380608,0.234176,-0.134574
490,0.464042,0.885649,0.016858,-0.228812,-0.345213,-0.0508389999999999
491,0.460063,0.885962,0.058364,-0.675609,-0.648017,-0.272918
492,0.458289,0.882868,0.102506,-0.865226,-0.6980390000000001,-0.969342
493,0.448762,0.883804,0.132274,-0.147584,-0.8414,-0.54185
494,0.439559,0.887117,0.140728,-0.020003,-0.918107,-0.802471
495,0.4443569999999999,0.887165,0.124413,-0.247519,-1.015659,-0.433297
496,0.4494399999999999,0.889232,0.085222,-0.223717,-0.946468,-0.162462
497,0.449608,0.892625,0.032671,-0.208198,-0.901032,-0.082018
498,0.454768,0.8901309999999999,-0.029104,-0.16569,-0.651071,-0.252482
499,0.464456,0.8799899999999999,-0.099461,0.181952,-0.146957,0.192875
500,0.480879,0.858952,-0.17593,0.179201,0.562557,0.425747
501,0.5110640000000001,0.827367,-0.232961,0.297239,1.624155,0.711339
502,0.53576,0.799719,-0.270936,0.151603,3.259089,-1.113067
503,0.5305439999999999,0.775875,-0.3413739999999999,0.115452,1.809421,0.13741
504,0.517809,0.750783,-0.410116,0.582274,1.103602,0.351049
505,0.529208,0.712358,-0.4609569999999999,1.202023,0.891661,0.14362
506,0.54508,0.675929,-0.495989,1.103495,0.527593,0.00667
507,0.532081,0.660705,-0.529486,0.211007,0.072907,0.35813
508,0.502657,0.663276,-0.554435,-0.757784,-0.4503399999999999,0.7070529999999999
509,0.48111,0.6755680000000001,-0.5586939999999999,-1.138383,-1.089493,0.930169
510,0.475785,0.7014859999999999,-0.530606,-1.177964,-1.415887,1.285702
511,0.4837479999999999,0.736211,-0.473263,-1.225477,-1.234868,1.385769
512,0.4996649999999999,0.763443,-0.40925,-1.25087,-0.949295,0.710093
513,0.5092979999999999,0.779121,-0.365488,-1.085363,-0.728416,-0.021124
514,0.512066,0.78514,-0.348339,0.407551,-0.047438,-0.756413
515,0.514091,0.777892,-0.361373,0.8643569999999999,0.238283,-1.075883
516,0.525226,0.766143,-0.370348,0.990048,0.16626,-0.321974
517,0.555321,0.760714,-0.336046,-0.27781,-0.391223,1.5028549999999998
518,0.5732189999999999,0.71915,-0.392733,-0.121513,1.6479150000000002,1.142351
519,0.596932,0.7149439999999999,-0.364036,-1.510781,-1.07374,-0.687355
520,0.589267,0.734536,-0.3364769999999999,-0.4800899999999999,0.459053,1.30393
521,0.560053,0.773721,-0.296127,-0.011301,1.690543,0.989838
522,0.5165649999999999,0.8198799999999999,-0.246883,0.600668,1.628499,0.8291120000000001
523,0.489806,0.842355,-0.224771,1.305894,1.124518,0.090234
524,0.475775,0.8653190000000001,-0.157655,1.534983,0.760093,-0.463393
525,0.460084,0.8822,-0.100196,0.9523,0.627947,-0.69587
526,0.4540689999999999,0.889697,-0.047471,0.581286,0.569257,-0.509368
527,0.4457489999999999,0.8951459999999999,-0.003747,0.016363,-0.114369,0.42167
528,0.441901,0.895985,0.043899,-0.600989,-0.601475,-0.337676
529,0.43605,0.8959280000000001,0.084642,-0.954742,-0.849908,-0.984377
530,0.428117,0.89595,0.118238,-0.145036,-0.819092,-0.355802
531,0.415872,0.8992889999999999,0.135354,0.005362,-0.863874,-0.6198359999999999
532,0.414264,0.8997450000000001,0.137243,0.018887,-0.964015,-0.8216450000000001
533,0.421558,0.899252,0.11673,-0.314411,-1.048376,-0.42566
534,0.422092,0.903555,0.073613,-0.28899,-0.947118,-0.151402
535,0.424608,0.905216,0.016874,-0.265489,-0.811466,-0.048856
536,0.432408,0.9003709999999999,-0.048458,-0.221119,-0.647014,-0.095402
537,0.4472239999999999,0.8856280000000001,-0.12509,0.198955,0.190956,0.214659
538,0.480127,0.854175,-0.199645,0.503302,1.926908,0.493575
539,0.518224,0.8232079999999999,-0.231877,0.6779729999999999,3.991993,-0.339458
540,0.527288,0.7970520000000001,-0.2943989999999999,-0.03684,2.253043,-0.076313
541,0.513318,0.775551,-0.367453,0.219577,1.336922,0.385092
542,0.508288,0.74639,-0.429583,0.9577,1.061365,0.290194
543,0.5286810000000001,0.707929,-0.468325,1.079519,0.728457,0.055926
544,0.5322439999999999,0.683321,-0.499785,0.399992,0.1872839999999999,0.2513869999999999
545,0.512998,0.676593,-0.528253,-0.400723,-0.2802159999999999,0.609537
546,0.4906029999999999,0.682044,-0.542329,-1.140368,-0.834815,0.751451
547,0.47883,0.697006,-0.5337609999999999,-1.165506,-1.372208,1.004891
548,0.475394,0.726839,-0.495684,-0.983557,-1.342058,1.513735
549,0.48485,0.759968,-0.432857,-1.117327,-1.12656,1.239819
550,0.4988399999999999,0.7815949999999999,-0.3745179999999999,-1.1343530000000002,-0.790674,0.347495
551,0.500811,0.791767,-0.349698,-0.932665,-0.556477,-0.093067
552,0.504594,0.7835340000000001,-0.362566,0.715346,-0.002391,-1.07826
553,0.5229659999999999,0.762818,-0.380278,0.80345,-0.080582,0.734785
554,0.560869,0.744821,-0.361473,0.509871,0.567511,1.066445
555,0.5863430000000001,0.696566,-0.413513,0.664053,2.178541,1.222854
556,0.6036,0.691869,-0.396207,-1.823815,-1.432531,0.167996
557,0.612564,0.709635,-0.348108,-0.972657,0.1244869999999999,1.596429
558,0.590445,0.752261,-0.292359,-0.327582,1.6934790000000002,0.970017
559,0.548457,0.80516,-0.225625,0.402715,1.742127,0.564294
560,0.504131,0.837032,-0.21266,0.621708,1.535878,0.646529
561,0.471506,0.864557,-0.1738309999999999,1.986273,0.887487,-0.414075
562,0.4596119999999999,0.880603,-0.11528,1.556928,0.446439,-0.8326870000000001
563,0.45645,0.88765,-0.061023,0.598603,0.280227,-0.1262329999999999
564,0.452657,0.891597,-0.012248,-0.102102,-0.321818,0.369609
565,0.453351,0.890424,0.040139,-0.452313,-0.539121,-0.012368
566,0.4524359999999999,0.887217,0.090227,-0.919339,-0.685221,-0.895402
567,0.447511,0.885549,0.1246099999999999,-0.0340279999999999,-0.784338,-0.501761
568,0.4332319999999999,0.890092,0.141556,0.048198,-0.761613,-0.573761
569,0.4254489999999999,0.8928010000000001,0.147955,-0.019992,-0.973261,-0.756231
570,0.433433,0.8926270000000001,0.123873,-0.325996,-1.103701,-0.474993
571,0.436142,0.8969239999999999,0.072795,-0.282502,-0.929745,-0.110927
572,0.439513,0.898018,0.019588,-0.2549119999999999,-0.894661,-0.030239
573,0.451658,0.891251,-0.04085,-0.027433,-0.448746,-0.124601
574,0.467672,0.8758319999999999,-0.119141,0.217966,0.126503,0.270096
575,0.492703,0.847633,-0.196865,0.255634,0.718819,0.422008
576,0.529235,0.815846,-0.233021,0.823349,3.660625,0.901875
577,0.545602,0.787125,-0.287657,0.088721,3.195129,-1.280626
578,0.534939,0.762469,-0.3639739999999999,0.293842,1.464261,0.514181
579,0.541248,0.725984,-0.424257,0.952206,1.008421,0.1701369999999999
580,0.565081,0.681431,-0.465116,1.070005,0.691647,-0.125827
581,0.564063,0.655943,-0.501566,0.4359369999999999,0.108263,0.183008
582,0.5431050000000001,0.650432,-0.53101,-0.4096979999999999,-0.289394,0.570072
583,0.518207,0.657825,-0.546556,-1.028355,-0.777027,0.842226
584,0.501225,0.676309,-0.539792,-1.109364,-1.271829,1.093961
585,0.493677,0.711073,-0.500654,-1.1383299999999998,-1.349745,1.6446060000000002
586,0.50262,0.74875,-0.432137,-1.226482,-1.213685,1.304467
587,0.518915,0.769839,-0.371578,-1.2353610000000002,-0.771502,0.066783
588,0.5225029999999999,0.775846,-0.353622,-0.207302,-0.235426,-0.926835
589,0.5341600000000001,0.760735,-0.368716,0.99352,0.172172,-1.114072
590,0.560218,0.743057,-0.366084,0.708336,-0.137878,0.695597
591,0.5876239999999999,0.727224,-0.354736,-0.131768,0.4934489999999999,0.8566440000000001
592,0.6077140000000001,0.680185,-0.409912,-0.0456569999999999,0.989112,0.772201
593,0.622707,0.682244,-0.383111,-1.499371,-1.119774,0.173806
594,0.620449,0.70253,-0.348554,-0.6994130000000001,0.286178,1.44087
595,0.601484,0.748555,-0.279064,-0.233503,1.573451,0.866451
596,0.555743,0.805539,-0.2055489999999999,0.378675,2.084292,0.542158
597,0.506022,0.8409549999999999,-0.19165,0.651342,1.4187040000000002,0.650008
598,0.478387,0.8652,-0.150227,2.051627,1.012882,-0.292751
599,0.462819,0.8815799999999999,-0.092776,1.386836,0.364361,-0.8439760000000001
600,0.456255,0.888809,-0.0429279999999999,0.909879,0.370759,-0.588725
601,0.452643,0.8916709999999999,0.005452,0.163614,-0.271981,0.579295
602,0.4522319999999999,0.890191,0.055123,-0.623634,-0.53901,-0.113091
603,0.456142,0.883634,0.105433,-1.123409,-0.6157050000000001,-1.187937
604,0.453862,0.881316,0.131465,-0.071522,-0.8221879999999999,-0.464809
605,0.441385,0.885641,0.144254,-0.0884799999999999,-0.943045,-0.8553290000000001
606,0.43831,0.88741,0.142754,-0.272752,-1.036901,-0.6340560000000001
607,0.4454229999999999,0.8886879999999999,0.1087359999999999,-0.3241,-1.004746,-0.152575
608,0.445219,0.893293,0.0616429999999999,-0.266371,-1.006391,-0.024258
609,0.447242,0.8944040000000001,0.002962,-0.26377,-0.699641,-0.331133
610,0.455691,0.887589,-0.067263,0.058194,-0.289261,0.093112
611,0.468307,0.871383,-0.146202,0.334733,0.772721,0.354194
612,0.496271,0.840578,-0.2171139999999999,0.903876,3.872862000000001,0.983944
613,0.526145,0.813717,-0.247044,0.016472,3.298313,-1.339626
614,0.524313,0.789121,-0.319968,-0.140417,1.767718,0.069433
615,0.5070680000000001,0.767688,-0.391833,0.38989,1.170133,0.606174
616,0.5155390000000001,0.732793,-0.444106,1.1072030000000002,0.878459,0.174392
617,0.540921,0.69209,-0.477925,0.964435,0.442706,0.015355
618,0.540809,0.6709970000000001,-0.507232,0.154534,-0.185676,0.2787469999999999
619,0.519191,0.670503,-0.5299659999999999,-0.767497,-0.62645,0.715162
620,0.499851,0.68125,-0.53483,-1.114048,-1.19036,1.02447
621,0.491931,0.703472,-0.512959,-1.042682,-1.403546,1.359486
622,0.494714,0.738217,-0.458574,-1.160104,-1.27554,1.549455
623,0.512836,0.767319,-0.3849889999999999,-1.207798,-1.197525,1.214487
624,0.5211,0.784452,-0.33628,-1.106626,-0.43112,-0.5256430000000001
625,0.509353,0.787145,-0.347789,0.125718,0.0532789999999999,-1.195256
626,0.514979,0.7662979999999999,-0.38416,1.08759,0.176482,-0.691188
627,0.537395,0.753412,-0.3789099999999999,0.4735609999999999,-0.634637,1.11031
628,0.562142,0.739118,-0.371073,0.211738,1.349245,-0.007391
629,0.586753,0.695717,-0.414361,-0.440131,0.576378,1.051705
630,0.597916,0.698783,-0.392675,-1.7088020000000002,-1.436698,-0.315454
631,0.597641,0.721785,-0.349065,-0.552185,0.7066819999999999,1.272695
632,0.577487,0.766744,-0.280369,-0.2472099999999999,1.7643380000000002,0.94727
633,0.545474,0.810732,-0.212524,0.350339,1.7375169999999998,0.578079
634,0.507369,0.8409479999999999,-0.188084,1.332093,1.316416,0.1062819999999999
635,0.47973,0.864298,-0.151136,1.918036,1.010626,-0.082248
636,0.46747,0.879856,-0.0855409999999999,1.619093,0.737911,-0.588882
637,0.46168,0.886425,-0.033093,0.422475,0.2978099999999999,-0.260761
638,0.453918,0.8910309999999999,0.0038909999999999,0.126343,-0.008447,0.135055
639,0.450074,0.8919459999999999,0.0430829999999999,-0.355348,-0.646982,0.074776
640,0.44691,0.8893059999999999,0.096946,-0.782267,-0.8426899999999999,-0.807701
641,0.441626,0.8875870000000001,0.130944,-0.378821,-0.840132,-0.598306
642,0.430205,0.890626,0.147307,-0.003432,-0.885026,-0.654829
643,0.426512,0.892491,0.146761,-0.176115,-1.000355,-0.726884
644,0.426535,0.8960389999999999,0.123179,-0.405264,-0.948895,-0.354502
645,0.423709,0.902167,0.08097,-0.367083,-0.987632,-0.185172
646,0.4278079999999999,0.903534,0.024455,-0.302411,-0.8761450000000001,-0.113674
647,0.43859,0.897741,-0.0411459999999999,-0.101935,-0.46581,-0.03286
648,0.456137,0.88236,-0.115642,0.197596,0.130076,0.219935
649,0.491206,0.849987,-0.190344,0.5917560000000001,1.924106,0.531165
650,0.525772,0.820466,-0.224484,0.737518,3.960678,0.133038
651,0.534,0.795308,-0.2869219999999999,-0.042423,1.793651,0.061305
652,0.522371,0.7753800000000001,-0.354837,-0.011293,1.588649,0.4183739999999999
653,0.516722,0.748613,-0.415417,1.018343,0.988798,0.244305
654,0.535698,0.710787,-0.455856,0.829155,0.532453,0.1875
655,0.542233,0.6847979999999999,-0.486857,0.41141,0.263642,0.259623
656,0.526992,0.677074,-0.513659,-0.739776,-0.557948,0.6636989999999999
657,0.506318,0.68295,-0.526513,-1.137605,-1.265363,0.883783
658,0.496522,0.699156,-0.5144350000000001,-1.161439,-1.49539,1.123413
659,0.500375,0.730141,-0.46531,-1.134103,-1.296349,1.523355
660,0.516899,0.7582,-0.397419,-1.20475,-1.0750030000000002,0.5023380000000001
661,0.524058,0.7752859999999999,-0.352545,-0.971156,-0.498156,-0.464976
662,0.5200640000000001,0.777947,-0.352598,0.233507,-0.077371,-1.0572979999999998
663,0.527197,0.758333,-0.383392,1.094476,0.19403,-0.758667
664,0.548845,0.738542,-0.3915599999999999,0.255782,-0.8055899999999999,1.26569
665,0.572178,0.736719,-0.360349,-0.897526,-0.920832,1.542982
666,0.5767140000000001,0.717635,-0.390379,0.289573,2.735612,-2.401995
667,0.600251,0.701897,-0.38345,-0.75441,1.012184,0.986798
668,0.596539,0.726842,-0.340348,-0.975582,-0.551549,0.688752
669,0.583345,0.748425,-0.315536,-0.293092,0.924137,1.021362
670,0.5656359999999999,0.783996,-0.255734,0.569084,1.815339,0.7469600000000001
671,0.546419,0.810704,-0.210186,0.948256,1.469478,0.4790149999999999
672,0.527159,0.8347379999999999,-0.1590859999999999,1.80861,0.905451,-0.045443
673,0.509934,0.855391,-0.090919,0.762741,0.45421,-0.751778
674,0.495401,0.8678739999999999,-0.0369279999999999,0.549124,0.4508819999999999,-0.901396
675,0.486479,0.873684,-0.002419,0.253252,0.311222,-0.186684
676,0.480508,0.876449,0.030673,-0.720071,-0.518508,-0.052264
677,0.469905,0.879735,0.072432,-0.971324,-0.656254,-0.565779
678,0.459499,0.881541,0.1083269999999999,-0.936397,-0.7731279999999999,-1.071431
679,0.447233,0.886123,0.1214809999999999,0.067675,-0.9002379999999999,-0.6288050000000001
680,0.4405239999999999,0.8896809999999999,0.119978,-0.089298,-1.071566,-0.725783
681,0.4382399999999999,0.8933479999999999,0.099314,-0.232109,-1.061577,-0.398447
682,0.434655,0.898425,0.0624169999999999,-0.338448,-1.102359,-0.097375
683,0.440145,0.897897,0.006556,-0.319646,-0.856591,-0.259333
684,0.4495939999999999,0.890763,-0.0663049999999999,-0.305033,-0.652283,-0.381602
685,0.45355,0.879763,-0.142476,0.402758,0.372098,0.350286
686,0.464898,0.854842,-0.230448,0.469276,1.186845,0.518931
687,0.499975,0.8176,-0.285564,0.6359199999999999,2.603039,0.8806719999999999
688,0.5332899999999999,0.786719,-0.310913,-0.2356059999999999,2.023767,-0.165878
689,0.523511,0.757309,-0.3904019999999999,-0.049863,1.508332,0.185873
690,0.5151359999999999,0.727813,-0.452676,0.635926,1.053131,0.405954
691,0.536054,0.690367,-0.485833,0.969363,0.88051,0.000573
692,0.5410229999999999,0.665846,-0.513749,0.630364,0.405901,0.247605
693,0.527813,0.657671,-0.5374720000000001,-0.016903,-0.114916,0.569485
694,0.5069739999999999,0.6640659999999999,-0.549535,-0.973694,-0.540516,0.693593
695,0.497874,0.676721,-0.54237,-1.3326209999999998,-1.211572,0.722622
696,0.4992439999999999,0.7011470000000001,-0.509061,-0.991446,-1.233664,1.42439
697,0.507019,0.740075,-0.4418319999999999,-0.99205,-1.073632,1.408827
698,0.522063,0.766311,-0.374448,-0.906859,-0.8851610000000001,0.630109
699,0.530381,0.772934,-0.348227,-0.08014,-0.2496789999999999,-0.823449
700,0.540259,0.756216,-0.369122,0.4614649999999999,0.179835,-1.091983
701,0.55733,0.733416,-0.389201,0.7836890000000001,-0.0612059999999999,-0.086293
702,0.579401,0.73283,-0.356717,-0.872873,-0.72253,1.679303
703,0.58825,0.724097,-0.360053,-0.8732989999999999,0.078744,1.022742
704,0.595917,0.699646,-0.3941719999999999,-0.588394,0.2957909999999999,1.507667
705,0.597629,0.7140449999999999,-0.364653,-0.730182,-0.583232,0.987196
706,0.595479,0.73182,-0.331417,-0.286519,0.535224,0.8081020000000001
707,0.588608,0.7623409999999999,-0.269015,0.31926,1.6923560000000002,0.549044
708,0.56852,0.793637,-0.216603,0.72802,1.571994,0.436971
709,0.538898,0.822311,-0.182713,1.526227,1.149109,0.140355
710,0.511109,0.850758,-0.122344,1.320755,0.79301,-0.4876109999999999
711,0.489752,0.8691540000000001,-0.068575,0.715769,0.50725,-0.799925
712,0.48002,0.87679,-0.028431,0.6003029999999999,0.4356489999999999,-0.382275
713,0.466931,0.884272,0.005138,0.0016359999999999,-0.224787,0.325719
714,0.453322,0.890021,0.048468,-0.708448,-0.690329,-0.188987
715,0.4392029999999999,0.8936440000000001,0.092124,-0.96319,-1.021162,-1.089179
716,0.426943,0.8962,0.120547,-0.337924,-0.906896,-0.706759
717,0.413439,0.900862,0.132292,-0.012865,-0.906981,-0.7050609999999999
718,0.410938,0.902957,0.125635,-0.244846,-1.030566,-0.488871
719,0.417506,0.903185,0.0996539999999999,-0.31335,-1.225085,-0.3957969999999999
720,0.429963,0.901418,0.050634,-0.350754,-0.905584,-0.334676
721,0.4438649999999999,0.895933,-0.016592,-0.218554,-0.585249,-0.339518
722,0.456301,0.885007,-0.092415,-0.048052,-0.468167,0.002617
723,0.4707909999999999,0.864807,-0.174515,0.355961,0.7634890000000001,0.3411869999999999
724,0.503142,0.830757,-0.2380789999999999,0.823991,3.987541,0.1244619999999999
725,0.539285,0.798058,-0.268823,0.2284909999999999,3.269981,-0.806815
726,0.543407,0.766695,-0.341875,0.040089,2.245801,-0.4253979999999999
727,0.533604,0.739486,-0.410391,0.797787,0.997697,0.260824
728,0.550878,0.700908,-0.45305,0.894877,0.940327,0.072847
729,0.5601119999999999,0.67072,-0.486212,0.7909930000000001,0.810603,0.1565
730,0.547988,0.6570090000000001,-0.517728,-0.042662,-0.0578269999999999,0.494245
731,0.5244260000000001,0.6586029999999999,-0.539642,-0.950116,-0.585773,0.740966
732,0.5052300000000001,0.670682,-0.543067,-1.178967,-0.902829,0.865073
733,0.4988829999999999,0.698803,-0.512624,-1.077039,-1.486264,1.589559
734,0.510196,0.74045,-0.437522,-1.139682,-1.273104,1.6078709999999998
735,0.528992,0.768845,-0.359216,-1.195237,-1.192276,1.023644
736,0.526404,0.781939,-0.333859,0.0109959999999999,-0.226,-1.212848
737,0.5225,0.771724,-0.362529,0.708411,0.074925,-1.245549
738,0.54398,0.748253,-0.379729,1.167827,0.402519,-1.09723
739,0.566826,0.746316,-0.348873,-0.698448,-0.8086939999999999,1.6841540000000002
740,0.577457,0.7359359999999999,-0.353458,-0.7794369999999999,0.050303,1.090549
741,0.586971,0.698329,-0.409626,-0.665508,0.440831,1.265827
742,0.605775,0.711951,-0.3551809999999999,-0.889558,-0.456611,1.270586
743,0.603492,0.725594,-0.330608,-0.741188,0.029518,0.8334010000000001
744,0.5930340000000001,0.754683,-0.280631,0.258193,2.05391,0.362128
745,0.561738,0.792832,-0.236341,0.4433729999999999,1.900879,0.516309
746,0.519584,0.82811,-0.2103699999999999,0.801095,1.078201,0.394773
747,0.495296,0.8541030000000001,-0.158674,1.519505,0.780678,-0.4102189999999999
748,0.480625,0.871432,-0.0979429999999999,0.996258,0.612607,-0.694446
749,0.475624,0.878199,-0.050347,0.805076,0.463232,-0.666343
750,0.462726,0.8863110000000001,-0.017969,0.104916,-0.435292,0.140772
751,0.4530189999999999,0.8911870000000001,0.023341,-0.6057899999999999,-0.665189,-0.0797679999999999
752,0.440776,0.8949389999999999,0.0691809999999999,-0.786617,-0.7669779999999999,-0.5200170000000001
753,0.4289699999999999,0.897641,0.101048,-0.126861,-0.8459899999999999,-0.469654
754,0.415063,0.902627,0.113898,-0.012322,-1.047188,-0.918677
755,0.411806,0.904984,0.1067869999999999,-0.25638,-1.026353,-0.290808
756,0.4137,0.906548,0.083718,-0.287052,-1.196404,-0.174721
757,0.421842,0.905653,0.04276,-0.2491429999999999,-1.031767,-0.329031
758,0.4353579999999999,0.900025,-0.020106,-0.179544,-0.6925359999999999,-0.320836
759,0.446949,0.889558,-0.094394,0.171643,-0.297075,0.2009
760,0.454487,0.8726209999999999,-0.178781,0.366527,0.452086,0.390329
761,0.479485,0.839469,-0.255686,0.838081,3.078576,0.792551
762,0.524788,0.80653,-0.272205,0.16851,3.699146,-1.181652
763,0.532632,0.774145,-0.342044,-0.1869289999999999,1.820139,-0.153897
764,0.518158,0.749368,-0.412252,0.313492,1.024848,0.519568
765,0.5263369999999999,0.7129489999999999,-0.4633199999999999,1.027817,0.8514120000000001,0.110918
766,0.544312,0.677434,-0.494774,0.562652,0.337657,0.218574
767,0.539181,0.6615409999999999,-0.521192,0.170979,0.065647,0.381604
768,0.519894,0.6607970000000001,-0.541343,-0.23573,-0.210159,0.562415
769,0.502822,0.6698850000000001,-0.546277,-1.179458,-1.134164,0.883878
770,0.495088,0.688739,-0.529641,-1.171724,-1.153018,0.867242
771,0.489604,0.7239479999999999,-0.485983,-1.083568,-1.181239,1.64556
772,0.4966069999999999,0.757017,-0.4246149999999999,-1.103984,-0.902251,0.5046470000000001
773,0.505508,0.7725,-0.384315,-1.019317,-0.596276,-0.120125
774,0.509234,0.7703939999999999,-0.383623,-0.5288109999999999,-0.349388,-0.674925
775,0.532404,0.748153,-0.395986,0.946158,-0.214325,0.485692
776,0.5660729999999999,0.736506,-0.370288,0.175474,-0.183726,1.571673
777,0.5821689999999999,0.7030390000000001,-0.408422,-0.222031,1.566386,0.428335
778,0.604498,0.689711,-0.3985889999999999,-0.921469,-0.8378129999999999,1.129867
779,0.6015020000000001,0.7036720000000001,-0.378198,-0.543458,0.288256,1.446038
780,0.585119,0.736984,-0.338351,-0.165869,1.275482,0.8993559999999999
781,0.547035,0.793978,-0.265221,0.4944689999999999,1.782743,0.529763
782,0.5082300000000001,0.8322879999999999,-0.221336,0.621134,1.77103,0.419228
783,0.474933,0.858873,-0.191741,1.882763,1.124937,-0.123643
784,0.453127,0.881023,-0.13588,1.235335,0.442234,-0.776672
785,0.443597,0.892123,-0.085596,0.774985,0.468473,-0.404791
786,0.431889,0.900827,-0.04439,0.185711,0.031943,0.5214409999999999
787,0.4251279999999999,0.905121,0.002829,-0.533099,-0.500703,0.177575
788,0.419722,0.906339,0.04868,-1.101545,-0.902021,-0.946293
789,0.415013,0.905403,0.089416,-0.352635,-0.821892,-0.5105430000000001
790,0.403867,0.907811,0.112942,0.025409,-0.710194,-0.52792
791,0.3947179999999999,0.910421,0.12376,-0.083545,-0.95609,-0.833095
792,0.394792,0.911298,0.116877,-0.326494,-1.094006,-0.625987
793,0.3987699999999999,0.91332,0.082549,-0.421979,-1.083638,-0.145202
794,0.400657,0.91553,0.035547,-0.1096869999999999,-0.921451,0.074942
795,0.4078989999999999,0.912671,-0.025228,0.443389,-0.065579,0.053182
796,0.42993,0.8969950000000001,-0.102697,0.378206,0.192253,0.1602839999999999
797,0.466541,0.868483,-0.167524,0.6194270000000001,1.601274,0.300718
798,0.505021,0.836354,-0.213201,0.656142,3.598445,-0.308344
799,0.5202100000000001,0.807435,-0.278246,-0.007133,2.654098,0.015978
800,0.521475,0.78458,-0.335394,-0.056082,1.796566,0.4790859999999999
801,0.510332,0.756047,-0.409813,0.964598,0.989666,0.463127
802,0.530147,0.7070420000000001,-0.468005,0.972981,0.353215,-0.017972
803,0.538369,0.672774,-0.507472,0.128348,0.040804,0.3799079999999999
804,0.517388,0.6616270000000001,-0.542728,-0.730004,-0.34101,0.786029
805,0.49111,0.661741,-0.566484,-1.028661,-0.647642,0.874391
806,0.474282,0.670272,-0.5707770000000001,-1.2678459999999998,-1.364532,1.10195
807,0.469177,0.693267,-0.547036,-1.260467,-1.4417719999999998,1.834191
808,0.479439,0.728932,-0.48866,-1.378243,-1.142598,0.965695
809,0.499681,0.755632,-0.423475,-1.301439,-0.738283,0.349408
810,0.5006,0.7693369999999999,-0.396877,0.285334,-0.036107,-0.967488
811,0.4973939999999999,0.763684,-0.411556,0.938687,0.214481,-1.314991
812,0.515574,0.738176,-0.435055,1.157507,-0.080751,0.278362
813,0.547872,0.732689,-0.403725,-0.87821,-1.062218,1.852776
814,0.568692,0.731934,-0.375305,0.251209,2.746398,-2.762421
815,0.551114,0.694764,-0.462135,0.213717,2.968062,1.226508
816,0.5707800000000001,0.7189800000000001,-0.396572,-1.141932,-0.843873,0.6972619999999999
817,0.564883,0.738645,-0.3678349999999999,-0.3643369999999999,0.8144100000000001,0.8362040000000001
818,0.547016,0.772224,-0.323164,0.391003,1.828698,0.739821
819,0.51163,0.816127,-0.268626,1.059216,1.84145,0.630992
820,0.478558,0.843987,-0.242191,1.834995,1.01171,0.2414889999999999
821,0.4746729999999999,0.8650610000000001,-0.162305,1.180448,0.41451,-0.561984
822,0.471405,0.877266,-0.090377,0.504211,0.549125,-1.067307
823,0.4637529999999999,0.8852690000000001,-0.034901,0.301186,0.282333,-0.043651
824,0.45357,0.891194,-0.005679,-0.30086,-0.300755,0.298862
825,0.44513,0.8947450000000001,0.035724,-0.788941,-0.6708069999999999,-0.425784
826,0.4353859999999999,0.8967870000000001,0.078724,-0.324088,-0.928785,-0.5506939999999999
827,0.422438,0.901147,0.0972919999999999,-0.106001,-0.978783,-0.780428
828,0.410812,0.905372,0.1073349999999999,-0.2361599999999999,-1.109595,-0.560887
829,0.410074,0.907343,0.092482,-0.388071,-1.073801,-0.2120949999999999
830,0.409402,0.91051,0.057841,-0.339319,-1.112033,-0.351756
831,0.414193,0.910139,0.008762,-0.179177,-0.902296,-0.190495
832,0.42511,0.903513,-0.054148,-0.008637,-0.564188,0.112437
833,0.432591,0.891573,-0.13398,0.36816,0.0113049999999999,0.237038
834,0.450918,0.8659690000000001,-0.216236,0.7037899999999999,1.682111,0.513676
835,0.495081,0.828608,-0.261329,0.928793,3.835668,0.271522
836,0.525931,0.7935939999999999,-0.305933,-0.027106,2.611771,-0.431967
837,0.533339,0.760745,-0.369876,-0.155867,1.646909,0.357547
838,0.514605,0.741505,-0.430516,1.01756,0.57362,0.341633
839,0.524062,0.705334,-0.477342,1.192201,0.569691,0.204195
840,0.538633,0.673485,-0.506246,1.019442,0.540154,0.285589
841,0.530262,0.66175,-0.530001,-0.734608,-0.526512,0.755603
842,0.508013,0.668235,-0.5434869999999999,-1.0432,-0.8366309999999999,0.811797
843,0.493436,0.684337,-0.5368390000000001,-1.207273,-1.104686,0.8631030000000001
844,0.48918,0.714854,-0.499679,-1.098646,-1.108638,1.466415
845,0.495313,0.751046,-0.436563,-1.165952,-1.048867,0.948556
846,0.503247,0.7719779999999999,-0.388309,-1.213589,-0.901479,0.333316
847,0.502526,0.775772,-0.3816239999999999,0.637077,-0.228805,-0.801451
848,0.513763,0.75974,-0.398541,1.067643,0.121898,0.078167
849,0.537388,0.735224,-0.413101,0.046597,-1.007974,1.256393
850,0.567743,0.727601,-0.3850389999999999,-0.8594450000000001,-0.532518,1.357939
851,0.58682,0.715102,-0.379819,0.570315,2.968233,-0.185946
852,0.586584,0.676449,-0.4453399999999999,-0.724371,0.005573,1.468762
853,0.6062649999999999,0.689145,-0.396878,-1.010806,-0.4928869999999999,0.563901
854,0.605377,0.704531,-0.370331,-0.328919,0.907377,0.817917
855,0.591688,0.739954,-0.319945,0.3698599999999999,1.711936,0.6106550000000001
856,0.569509,0.775807,-0.2716119999999999,0.547129,1.717968,0.616201
857,0.538615,0.807067,-0.2419219999999999,1.201909,1.281541,0.295404
858,0.515944,0.836478,-0.18465,1.41205,0.802805,-0.3118869999999999
859,0.499301,0.8573059999999999,-0.125347,0.7339140000000001,0.629785,-0.7265199999999999
860,0.490985,0.8678959999999999,-0.075349,0.552121,0.662713,-0.4673449999999999
861,0.473752,0.8796209999999999,-0.042563,-0.031476,-0.11241,0.397986
862,0.4577569999999999,0.8890629999999999,-0.0034,-0.643548,-0.742563,0.065854
863,0.442367,0.895681,0.045308,-0.886992,-0.924398,-0.976094
864,0.427965,0.9003469999999999,0.078774,0.04138,-0.830462,-0.332467
865,0.414204,0.905262,0.094446,-0.0162539999999999,-1.085209,-0.854044
866,0.4109649999999999,0.906503,0.096665,-0.261062,-1.121988,-0.389344
867,0.413917,0.907057,0.0768409999999999,-0.383506,-1.122801,-0.275221
868,0.417579,0.908083,0.0315709999999999,-0.287407,-0.900149,-0.159302
869,0.424753,0.90488,-0.02761,-0.087671,-0.705142,-0.028405
870,0.433228,0.8955219999999999,-0.101688,0.355163,-0.025511,0.182041
871,0.4494729999999999,0.8735719999999999,-0.18664,0.748418,2.261286,0.610651
872,0.4882939999999999,0.838251,-0.24268,0.7899649999999999,3.4515290000000003,0.560872
873,0.523357,0.80725,-0.272827,0.242573,3.726853,-0.6247560000000001
874,0.520097,0.782162,-0.343092,-0.373796,1.502979,0.385587
875,0.5050520000000001,0.761423,-0.406385,0.032622,1.139959,0.77107
876,0.5051100000000001,0.73226,-0.456784,0.95598,0.749781,0.306775
877,0.5191640000000001,0.6994739999999999,-0.4911189999999999,0.615907,0.535191,0.315704
878,0.52836,0.677267,-0.511994,-0.205973,0.026072,0.341401
879,0.523383,0.670108,-0.526325,-0.806571,-0.549182,0.555012
880,0.517332,0.67438,-0.5268510000000001,-0.93643,-1.100863,0.717479
881,0.519771,0.6906479999999999,-0.5028279999999999,-0.8378709999999999,-1.369573,0.8488969999999999
882,0.524684,0.722337,-0.450475,-1.0032,-1.154542,1.165639
883,0.531111,0.751085,-0.392153,-1.0229629999999998,-0.960969,0.451555
884,0.530741,0.765153,-0.364479,-0.935389,-0.726228,-0.046608
885,0.527674,0.762628,-0.374098,0.4254819999999999,-0.10972,-0.799975
886,0.539221,0.73956,-0.402844,0.7689,-0.122968,-0.1024809999999999
887,0.5662189999999999,0.72109,-0.3992699999999999,-0.2478139999999999,-0.758993,1.48385
888,0.5909939999999999,0.7152109999999999,-0.373083,-0.380666,1.335784,-0.935648
889,0.588899,0.680194,-0.436492,-0.287278,1.203335,1.425078
890,0.6134729999999999,0.685238,-0.392543,-1.367944,-0.907071,-0.013081
891,0.6157590000000001,0.70253,-0.356765,-0.541953,0.810028,1.159546
892,0.600788,0.7404350000000001,-0.30133,0.036618,1.505613,0.616622
893,0.578298,0.774922,-0.255063,0.452205,1.407787,0.61247
894,0.547934,0.805892,-0.224264,1.0927209999999998,1.097993,0.250585
895,0.5219199999999999,0.8357399999999999,-0.170663,1.479621,0.85234,-0.326163
896,0.502448,0.856215,-0.120121,1.1749969999999998,0.490922,-0.6576960000000001
897,0.490612,0.8682059999999999,-0.074192,0.8187909999999999,0.345294,-0.787899
898,0.47796,0.877266,-0.0441,-0.051614,-0.342553,0.42113
899,0.467675,0.883868,-0.006615,-0.417489,-0.4508689999999999,0.0559159999999999
900,0.4535659999999999,0.890682,0.030797,-0.735625,-0.528149,-0.291142
901,0.439821,0.8959010000000001,0.0624799999999999,-0.392549,-0.923916,-0.439921
902,0.4258109999999999,0.901323,0.079286,0.021592,-0.922808,-0.479951
903,0.417047,0.904864,0.085313,-0.258218,-1.093707,-0.409914
904,0.4138729999999999,0.906921,0.078667,-0.350213,-1.20372,-0.310646
905,0.415914,0.907884,0.0524139999999999,-0.2817739999999999,-0.965135,-0.2173
906,0.424854,0.905216,0.008314,-0.201664,-0.730259,-0.239119
907,0.437067,0.897692,-0.0557559999999999,0.218801,-0.257418,0.095856
908,0.449614,0.883711,-0.129961,0.446809,0.079226,0.287249
909,0.47515,0.8554430000000001,-0.206004,0.8605280000000001,2.522639,0.610987
910,0.522159,0.8188949999999999,-0.238223,0.326398,3.71382,-0.446409
911,0.550187,0.786375,-0.280887,-0.216248,2.640489,-0.595028
912,0.547713,0.7627,-0.343934,-0.122771,1.291881,0.559266
913,0.5304800000000001,0.747323,-0.4001139999999999,0.3176489999999999,0.953773,0.658796
914,0.550709,0.7098399999999999,-0.439134,1.092892,0.8818959999999999,0.163972
915,0.570357,0.676211,-0.466287,0.349367,0.321027,0.2103969999999999
916,0.568806,0.661676,-0.488505,-0.4985239999999999,-0.293085,0.561793
917,0.556776,0.6636380000000001,-0.4995779999999999,-1.132642,-0.81438,0.654149
918,0.5493859999999999,0.676506,-0.490415,-1.130197,-1.212151,1.018064
919,0.547428,0.703344,-0.453454,-1.113468,-1.168051,1.247445
920,0.5503,0.734592,-0.396908,-1.16352,-1.024799,0.794354
921,0.5550189999999999,0.757818,-0.34301,-1.163158,-0.819112,-0.1067119999999999
922,0.5487850000000001,0.770915,-0.323288,-0.2397639999999999,-0.404109,-0.508789
923,0.547113,0.768691,-0.331318,0.8967809999999999,0.0528419999999999,-0.765881
924,0.564345,0.749743,-0.345528,0.705873,-0.322329,0.270882
925,0.588958,0.731304,-0.343967,-0.500533,-0.91032,1.424655
926,0.6071310000000001,0.719646,-0.336886,-0.825133,-0.505001,1.583788
927,0.613838,0.687761,-0.387528,-0.0597309999999999,2.150968,1.422211
928,0.638368,0.69099,-0.339129,-1.4649219999999998,-0.452281,-0.381635
929,0.6335350000000001,0.703723,-0.321555,-0.7375689999999999,0.617002,1.258262
930,0.618373,0.73966,-0.265532,-0.2037,1.312083,0.843642
931,0.593009,0.777172,-0.210553,0.397271,1.523365,0.598172
932,0.564665,0.804527,-0.184059,0.955096,1.021355,0.362205
933,0.5387609999999999,0.8319139999999999,-0.132826,1.50697,0.81782,0.139494
934,0.516378,0.853462,-0.070302,0.735758,0.5748979999999999,-0.8125720000000001
935,0.505785,0.86259,-0.01026,0.5405260000000001,0.487309,-1.000879
936,0.499934,0.8657879999999999,0.021511,0.462896,0.386257,-0.8865770000000001
937,0.493447,0.868455,0.047747,-0.660928,-0.46753,-0.311587
938,0.484509,0.8712260000000001,0.078737,-0.784939,-0.672053,-0.766985
939,0.4756859999999999,0.874632,0.0934,-0.574166,-0.899275,-0.793244
940,0.466533,0.8794649999999999,0.094187,-0.130245,-0.962305,-0.530528
941,0.463826,0.881496,0.088391,-0.247258,-1.0606950000000002,-0.592969
942,0.466293,0.8818819999999999,0.069551,-0.338928,-1.170075,-0.46338
943,0.471588,0.8809239999999999,0.039517,-0.399154,-1.006809,-0.131528
944,0.479826,0.877324,-0.007388,-0.339064,-0.8595010000000001,-0.166593
945,0.489067,0.8684870000000001,-0.080801,0.163795,-0.016299,0.125479
946,0.499561,0.8506389999999999,-0.163823,0.35397,1.098244,0.320363
947,0.532313,0.8165600000000001,-0.223295,0.6457729999999999,3.4268019999999995,-0.067675
948,0.5733,0.779262,-0.253113,-0.275464,2.95847,-0.315719
949,0.576533,0.7528199999999999,-0.317585,-0.3218789999999999,1.660479,0.089848
950,0.5576180000000001,0.738278,-0.379471,0.560866,0.8859889999999999,0.451721
951,0.5503520000000001,0.711395,-0.43706,1.168535,0.934571,0.061785
952,0.562329,0.678287,-0.472974,1.049899,0.922009,0.010664
953,0.561642,0.656725,-0.503252,0.3100469999999999,0.5725680000000001,0.2231929999999999
954,0.544516,0.646588,-0.534246,-0.665213,-0.276319,0.615682
955,0.5221859999999999,0.64788,-0.5545869999999999,-1.029373,-0.907951,0.746054
956,0.5113449999999999,0.6580550000000001,-0.552706,-0.968987,-1.394352,1.092653
957,0.518121,0.679938,-0.518871,-1.05314,-1.219794,1.37611
958,0.5336850000000001,0.710465,-0.458706,-1.1065459999999998,-1.008927,0.961559
959,0.554504,0.733835,-0.392432,-0.941543,-0.773324,0.12519
960,0.565628,0.743833,-0.356045,-0.115296,-0.274198,-0.32732
961,0.571358,0.741738,-0.351234,0.635582,0.2629309999999999,-0.8499530000000001
962,0.580334,0.7246779999999999,-0.371542,0.491626,-0.2091599999999999,0.2872679999999999
963,0.6120760000000001,0.707043,-0.354179,-0.081848,0.05318,0.895057
964,0.629033,0.671998,-0.390802,0.332957,2.402618,1.607508
965,0.654542,0.647199,-0.390766,-1.491182,-0.887876,-0.0272329999999999
966,0.664263,0.6490319999999999,-0.370814,-1.087587,-0.063598,1.690348
967,0.657551,0.677185,-0.330207,-0.360477,1.294708,0.8591840000000001
968,0.6287020000000001,0.729273,-0.269968,0.196723,1.620885,0.57345
969,0.601255,0.769422,-0.215567,0.34981,1.414492,0.518621
970,0.5752550000000001,0.7972819999999999,-0.182785,1.458985,1.04862,0.108597
971,0.54971,0.825974,-0.124789,1.66373,1.0524440000000002,-0.173123
972,0.531338,0.8441270000000001,-0.071515,1.653476,0.854512,-0.422763
973,0.520953,0.8532790000000001,-0.022504,0.454739,0.313728,-0.943255
974,0.508959,0.860766,0.005106,0.140959,-0.092807,0.099645
975,0.496208,0.867555,0.033305,-0.12928,-0.37787,0.185781
976,0.480329,0.874052,0.072812,-0.626508,-0.971006,-0.8715950000000001
977,0.464346,0.8790110000000001,0.108189,-0.230673,-0.909575,-0.595204
978,0.453943,0.883257,0.117367,-0.044855,-0.8615139999999999,-0.538021
979,0.4513069999999999,0.885237,0.112518,-0.30351,-1.0128,-0.225708
980,0.452032,0.887034,0.09392,-0.281881,-1.066279,-0.170488
981,0.4579689999999999,0.886957,0.05962,-0.262504,-1.109293,-0.188298
982,0.471313,0.88195,0.003449,-0.166915,-0.561348,-0.187119
983,0.4854239999999999,0.871469,-0.0699299999999999,0.033726,-0.320169,0.114821
984,0.4977899999999999,0.8545149999999999,-0.148306,0.252668,0.028221,0.3028619999999999
985,0.5229199999999999,0.821483,-0.227394,0.8705430000000001,3.651128,0.7287060000000001
986,0.565318,0.785542,-0.251648,0.351522,3.5560110000000003,-0.412033
987,0.58201,0.751581,-0.310449,-0.1514069999999999,2.573248,-0.93418
988,0.5643100000000001,0.731627,-0.382447,0.488608,0.954744,0.664933
989,0.5613670000000001,0.702624,-0.437239,0.8797950000000001,0.959348,0.215864
990,0.578903,0.664216,-0.472947,0.567367,0.5584859999999999,0.198395
991,0.580309,0.642066,-0.500984,-0.186846,-0.079703,0.421821
992,0.567042,0.636517,-0.522782,-0.584956,-0.355877,0.579911
993,0.554303,0.643217,-0.528216,-1.214093,-1.173765,0.7587
994,0.5520470000000001,0.6601279999999999,-0.509378,-1.067443,-1.305773,1.118158
995,0.553267,0.6962189999999999,-0.457346,-1.086272,-1.226126,1.263986
996,0.55771,0.735762,-0.384191,-1.065141,-0.8628379999999999,0.464788
997,0.557411,0.761905,-0.329821,-0.794258,-0.496067,-0.308591
998,0.5486340000000001,0.7724989999999999,-0.319741,-0.309864,-0.220863,-0.5993109999999999
999,0.548301,0.760789,-0.347211,1.03312,0.127013,-0.45505
1000,0.5665359999999999,0.740455,-0.361596,0.217689,-0.841834,0.628564
1001,0.59396,0.733467,-0.330495,-0.426662,-0.680198,1.547124
1002,0.609735,0.7156319999999999,-0.340707,-0.106852,2.05988,1.047998
1003,0.630267,0.682716,-0.369664,-1.479617,-0.4258949999999999,-1.51762
1004,0.642292,0.6948489999999999,-0.32347,-0.7658119999999999,0.081899,1.472075
1005,0.629171,0.7254470000000001,-0.2790289999999999,-0.329855,1.406755,1.040275
1006,0.5999869999999999,0.7691319999999999,-0.220085,0.3084449999999999,1.761004,0.641319
1007,0.570596,0.798582,-0.191504,0.6611090000000001,1.142886,0.3287719999999999
1008,0.5467489999999999,0.821343,-0.162624,1.566227,1.065803,-0.176838
1009,0.5276609999999999,0.8440479999999999,-0.095612,1.219165,0.762458,-0.635529
1010,0.511466,0.85836,-0.040054,0.60241,0.60627,-0.801697
1011,0.503418,0.8640200000000001,-0.004824,0.5613859999999999,0.281183,-0.394559
1012,0.491756,0.870519,0.018867,-0.09692,-0.411595,0.319024
1013,0.477852,0.876666,0.055652,-0.835426,-0.698321,-0.492435
1014,0.462546,0.881604,0.093849,-0.697485,-0.914456,-0.51281
1015,0.447388,0.887134,0.113213,-0.019624,-0.8903690000000001,-0.5650109999999999
1016,0.435702,0.891925,0.120892,0.003019,-0.960956,-0.759579
1017,0.432317,0.894717,0.112093,-0.299307,-1.06441,-0.296114
1018,0.430903,0.8980290000000001,0.088591,-0.306223,-1.1716959999999998,-0.29753
1019,0.435011,0.899241,0.045969,-0.258772,-0.956828,-0.343256
1020,0.4453729999999999,0.8951469999999999,-0.018409,-0.032241,-0.618459,-0.132699
1021,0.455788,0.8855370000000001,-0.089811,0.309669,-0.141335,0.314344
1022,0.471985,0.865749,-0.166416,0.4545899999999999,0.761128,0.427647
1023,0.512393,0.830059,-0.220094,0.924481,3.542163,0.416887
1024,0.5523520000000001,0.794768,-0.251472,-0.1856529999999999,2.317537,-0.21946
1025,0.553556,0.7691479999999999,-0.319335,-0.245694,1.686296,0.1035609999999999
1026,0.5404260000000001,0.749228,-0.382867,-0.128683,1.287027,0.551705
1027,0.550296,0.71425,-0.4324479999999999,1.068555,0.6629010000000001,0.196669
1028,0.5658920000000001,0.679239,-0.4673229999999999,0.781505,0.523886,0.300713
1029,0.559211,0.663722,-0.4967359999999999,0.383859,0.280492,0.384783
1030,0.537786,0.664489,-0.518875,-0.966589,-0.478851,0.600662
1031,0.5182100000000001,0.674959,-0.5252439999999999,-1.220648,-1.183076,0.687002
1032,0.511496,0.6965899999999999,-0.503115,-1.135993,-1.4130969999999998,0.856066
1033,0.511794,0.732855,-0.448309,-1.024199,-1.042166,1.077474
1034,0.5232289999999999,0.761675,-0.382193,-1.085515,-0.968874,0.586447
1035,0.529463,0.777568,-0.339184,-0.335066,-0.3104969999999999,-0.448078
1036,0.5317729999999999,0.776758,-0.337423,0.789791,0.506232,-1.315119
1037,0.535722,0.756121,-0.375862,0.730544,-0.337908,0.265129
1038,0.5562520000000001,0.739745,-0.378616,-0.427209,-0.799437,1.799866
1039,0.584616,0.730437,-0.353094,0.171075,2.705827,-2.009837
1040,0.576527,0.693206,-0.4325199999999999,-0.696217,0.427339,1.417093
1041,0.604535,0.698414,-0.383075,-1.015576,-1.196354,0.768115
1042,0.606971,0.713949,-0.349074,-0.490867,0.584559,0.8911889999999999
1043,0.592544,0.7462439999999999,-0.303315,-0.229263,1.305041,0.757401
1044,0.562095,0.7878350000000001,-0.2516989999999999,0.775353,1.86727,0.503835
1045,0.526829,0.82094,-0.220216,1.537853,1.294874,-0.019316
1046,0.505508,0.848358,-0.157278,1.360214,0.5332640000000001,-0.603266
1047,0.490415,0.865032,-0.105822,0.683871,0.5833020000000001,-0.479062
1048,0.484431,0.872878,-0.058261,0.334248,0.355302,0.108279
1049,0.477548,0.878467,-0.015058,-0.291894,-0.306446,0.0593389999999999
1050,0.4739279999999999,0.880027,0.0304569999999999,-0.924825,-0.7146520000000001,-0.5008859999999999
1051,0.467802,0.8805639999999999,0.075826,-0.8404520000000001,-0.8525950000000001,-0.749365
1052,0.456,0.884281,0.100458,-0.1099769999999999,-0.889484,-0.529261
1053,0.439052,0.8916270000000001,0.110527,-0.133846,-0.974497,-0.582924
1054,0.4293,0.8967959999999999,0.106958,-0.236551,-1.019354,-0.539316
1055,0.428193,0.9004340000000001,0.07649,-0.160295,-0.982526,-0.193922
1056,0.429852,0.90226,0.0337279999999999,-0.06596,-1.019463,-0.19039
1057,0.438221,0.89865,-0.019367,-0.0584289999999999,-0.739104,-0.367275
1058,0.449457,0.889402,-0.083286,0.1495109999999999,-0.4348579999999999,0.358463
1059,0.455428,0.875859,-0.159503,0.43773,0.227061,0.511904
1060,0.472868,0.8494379999999999,-0.234177,0.928072,2.833622,0.850281
1061,0.522727,0.814207,-0.252607,0.299203,3.898119,-1.745318
1062,0.533183,0.784998,-0.315407,-0.344264,1.783559,0.051095
1063,0.514935,0.764722,-0.387339,0.075321,1.139987,0.4938149999999999
1064,0.516862,0.732467,-0.4430989999999999,0.5696399999999999,1.050905,0.4500729999999999
1065,0.5401739999999999,0.691941,-0.47898,1.039538,0.7848350000000001,0.117819
1066,0.548608,0.661718,-0.511029,0.350135,0.294108,0.344144
1067,0.5347109999999999,0.651169,-0.538567,-0.375303,-0.410218,0.595147
1068,0.513491,0.6548430000000001,-0.5545260000000001,-1.008532,-0.790326,0.70127
1069,0.498808,0.670552,-0.549128,-1.155211,-1.265599,0.971797
1070,0.487716,0.703631,-0.516748,-1.016906,-1.211336,1.414957
1071,0.485022,0.74098,-0.464429,-1.038015,-0.960493,1.0349549999999998
1072,0.493011,0.763083,-0.417894,-1.052047,-0.7078300000000001,0.164385
1073,0.49533,0.768465,-0.405091,-0.359405,-0.273821,-0.28546
1074,0.503446,0.757533,-0.4155439999999999,0.744464,-0.021021,-0.688231
1075,0.5263,0.7357779999999999,-0.42618,0.111792,-0.925643,0.761782
1076,0.555541,0.72463,-0.407769,-0.5962970000000001,-0.899893,1.5027700000000002
1077,0.5830890000000001,0.711721,-0.391728,-0.901326,-0.402914,1.5472
1078,0.5803659999999999,0.668275,-0.465377,0.105471,1.519255,1.6868580000000002
1079,0.603392,0.685407,-0.407587,-1.006575,-1.023831,0.8444309999999999
1080,0.605798,0.702114,-0.374211,-0.266626,0.969822,0.8705639999999999
1081,0.59104,0.739671,-0.321788,0.373422,2.134047,0.567348
1082,0.561526,0.7817689999999999,-0.271133,0.664639,1.609359,0.66159
1083,0.525701,0.816817,-0.237565,1.372935,1.265733,0.054886
1084,0.504073,0.845707,-0.175148,1.366594,0.853511,-0.6222310000000001
1085,0.48313,0.867458,-0.118694,0.517008,0.541691,-0.709522
1086,0.476182,0.876548,-0.069996,0.595244,0.463784,-0.225719
1087,0.464401,0.884689,-0.04053,-0.107376,-0.3305349999999999,0.591921
1088,0.453545,0.891224,0.000713,-0.825433,-0.873967,-0.4755359999999999
1089,0.440209,0.8967620000000001,0.04492,-0.8027880000000001,-1.10245,-0.69882
1090,0.429203,0.9001809999999999,0.073772,-0.13126,-1.023411,-0.467265
1091,0.417602,0.904114,0.09038,-0.049758,-0.994889,-0.663103
1092,0.412535,0.90645,0.090254,-0.141555,-0.978945,-0.4531689999999999
1093,0.4145859999999999,0.907557,0.066645,-0.193394,-0.871028,-0.352457
1094,0.4192079999999999,0.907556,0.024299,-0.184742,-0.8982479999999999,-0.122429
1095,0.427409,0.903667,-0.026298,-0.135767,-0.704174,-0.15995
1096,0.439162,0.894756,-0.080827,-0.074157,-0.35133,0.112474
1097,0.450535,0.8804299999999999,-0.147811,0.207058,0.042513,0.329559
1098,0.470231,0.85455,-0.220489,0.7405079999999999,2.002094,0.665084
1099,0.507779,0.8203959999999999,-0.262868,0.937671,3.824059,0.243932
1100,0.536629,0.792385,-0.290076,0.115349,2.070789,-0.355691
1101,0.528516,0.766842,-0.364164,0.21799,1.313236,0.3925599999999999
1102,0.5250729999999999,0.741794,-0.417172,0.7605569999999999,0.946347,0.259838
1103,0.550145,0.703501,-0.44991,1.071819,0.718939,0.053914
1104,0.566682,0.67072,-0.478537,0.876342,0.5982310000000001,0.148398
1105,0.555507,0.6585880000000001,-0.5076069999999999,-0.816997,-0.440586,0.756738
1106,0.5322060000000001,0.661378,-0.528515,-0.7936949999999999,-0.443376,0.777646
1107,0.513458,0.6738029999999999,-0.53136,-1.302032,-1.277196,0.852557
1108,0.501192,0.6990069999999999,-0.5100859999999999,-1.1555799999999998,-1.282565,1.403214
1109,0.498772,0.731963,-0.464164,-1.216943,-1.208861,1.356681
1110,0.508441,0.755884,-0.412454,-1.225116,-0.6961149999999999,0.13479
1111,0.5153810000000001,0.765389,-0.385427,-0.3653099999999999,-0.386452,-0.399837
1112,0.524175,0.7585350000000001,-0.387111,0.738429,0.223154,-0.920659
1113,0.531922,0.73855,-0.414238,0.819152,-0.336115,0.5299149999999999
1114,0.550776,0.7247100000000001,-0.414045,-0.443125,-0.973199,1.3315709999999998
1115,0.57817,0.705892,-0.409178,0.40091,2.759409,-3.174043
1116,0.585959,0.656524,-0.474996,-0.3196469999999999,0.453889,2.153325
1117,0.609284,0.662292,-0.436044,-1.809174,-1.613723,-0.311682
1118,0.617174,0.685539,-0.386166,-0.6057140000000001,0.934029,1.374996
1119,0.600093,0.734404,-0.317062,-0.256175,1.697328,1.026398
1120,0.56776,0.781946,-0.257289,0.4142189999999999,1.589102,0.666759
1121,0.529219,0.8110649999999999,-0.2491789999999999,0.8772139999999999,1.365983,0.5102270000000001
1122,0.509299,0.836266,-0.2031329999999999,1.765436,1.186394,-0.205986
1123,0.496863,0.856281,-0.14106,1.355219,0.577816,-0.699669
1124,0.488021,0.868698,-0.084762,0.631898,0.458847,-0.648575
1125,0.4795319999999999,0.876141,-0.049108,-0.048456,-0.1792109999999999,0.091832
1126,0.471084,0.8819540000000001,-0.014887,-0.41156,-0.419079,0.049509
1127,0.4646189999999999,0.8850020000000001,0.029736,-1.027074,-0.922188,-0.8865629999999999
1128,0.457157,0.8868540000000001,0.066932,-0.391895,-1.024107,-0.4573279999999999
1129,0.4421529999999999,0.892475,0.08929,-0.017485,-0.947391,-0.61674
1130,0.427504,0.898062,0.103475,-0.132918,-1.0625209999999998,-0.455297
1131,0.423927,0.900784,0.094111,-0.193672,-1.042111,-0.381617
1132,0.424797,0.903194,0.06142,-0.102836,-0.937083,-0.20734
1133,0.4288479999999999,0.903202,0.017311,-0.119125,-0.730503,-0.4087139999999999
1134,0.440639,0.897073,-0.0329029999999999,-0.007061,-0.486275,0.195104
1135,0.453755,0.8861,-0.09444,0.318553,-0.070411,0.483829
1136,0.470247,0.867353,-0.162953,0.649779,1.423739,0.614262
1137,0.518871,0.827672,-0.2138199999999999,0.946598,4.015482,-0.2081469999999999
1138,0.5530930000000001,0.795894,-0.24623,-0.034767,2.671803,0.0036
1139,0.537662,0.778812,-0.32305,-0.321704,1.602902,0.39411
1140,0.516736,0.764718,-0.384942,0.501529,1.156958,0.440438
1141,0.5297149999999999,0.726263,-0.438105,1.071222,0.80633,0.182383
1142,0.556329,0.681048,-0.476092,0.913169,0.301755,0.2147239999999999
1143,0.551517,0.6556109999999999,-0.515748,0.085232,-0.2696699999999999,0.5542
1144,0.521083,0.653614,-0.548867,-0.974574,-0.59946,0.710137
1145,0.4947229999999999,0.663593,-0.5611470000000001,-1.112735,-1.132663,1.0746209999999998
1146,0.480485,0.688516,-0.543205,-1.032564,-1.3061459999999998,1.541008
1147,0.477771,0.7232649999999999,-0.498612,-1.264453,-0.930037,0.788972
1148,0.490776,0.748099,-0.4466279999999999,-1.28637,-0.780112,0.400364
1149,0.50398,0.760484,-0.40946,-1.176496,-0.681932,0.052344
1150,0.51094,0.7634989999999999,-0.394968,0.39119,-0.094065,-0.655127
1151,0.5147,0.751963,-0.411858,0.942835,0.08988,-0.129707
1152,0.5333600000000001,0.7349100000000001,-0.418837,0.6305189999999999,-0.383058,0.650251
1153,0.565492,0.722789,-0.3972219999999999,0.102736,2.306721,-2.343455
1154,0.55834,0.685384,-0.4674359999999999,0.109888,2.344126,-2.273241
1155,0.586875,0.677477,-0.443388,-0.825675,-0.567355,1.211867
1156,0.5956140000000001,0.692221,-0.40751,-0.4448569999999999,0.843485,1.103601
1157,0.589497,0.7246670000000001,-0.3568489999999999,-0.23003,1.472599,0.865592
1158,0.5626869999999999,0.7705420000000001,-0.2993949999999999,0.381771,1.793682,0.6824060000000001
1159,0.529392,0.804826,-0.268303,0.693615,1.344343,0.620263
1160,0.5083270000000001,0.83331,-0.2172219999999999,1.591847,1.049289,-0.064044
1161,0.4942979999999999,0.855174,-0.155989,1.327006,0.641347,-0.699281
1162,0.485783,0.8679979999999999,-0.1028589999999999,0.63441,0.416548,-0.314865
1163,0.475577,0.877393,-0.063202,0.3820739999999999,0.200122,0.206742
1164,0.466246,0.8842969999999999,-0.024843,-0.010024,-0.133657,0.202486
1165,0.45857,0.888451,0.018746,-1.094984,-0.841241,-0.8588790000000001
1166,0.448657,0.891918,0.056323,-0.630358,-0.939052,-0.579639
1167,0.4319189999999999,0.898442,0.078938,-0.106876,-0.888539,-0.321736
1168,0.4166109999999999,0.904369,0.0923799999999999,-0.171692,-1.067074,-0.5402560000000001
1169,0.412256,0.907403,0.0815299999999999,-0.2512,-1.050866,-0.343294
1170,0.4105979999999999,0.91047,0.049364,-0.20935,-1.020058,-0.095842
1171,0.4105939999999999,0.911793,0.005462,-0.0953779999999999,-0.898228,-0.334198
1172,0.418566,0.906512,-0.0549799999999999,-0.03229,-0.5781729999999999,-0.016278
1173,0.431289,0.8940739999999999,-0.120865,0.192399,-0.182755,0.445053
1174,0.444613,0.875467,-0.189377,0.48663,1.289725,0.57312
1175,0.475659,0.84344,-0.249689,0.825931,4.204061,-0.047201
1176,0.509091,0.813621,-0.280778,-0.1403319999999999,2.828225,-0.100341
1177,0.4990489999999999,0.79303,-0.349348,-0.094371,1.663544,0.434126
1178,0.486548,0.7702600000000001,-0.412263,0.679742,1.2485389999999998,0.203096
1179,0.503784,0.732165,-0.458397,1.153228,0.6956760000000001,0.179359
1180,0.523547,0.695589,-0.491983,0.8755780000000001,0.207869,0.157907
1181,0.516601,0.679075,-0.52151,-0.083602,-0.2317789999999999,0.490413
1182,0.491126,0.681357,-0.542716,-0.97959,-0.66062,0.6120369999999999
1183,0.469354,0.693896,-0.546085,-1.0777370000000002,-1.242938,0.879871
1184,0.450418,0.718515,-0.5299550000000001,-0.994439,-1.324335,1.455248
1185,0.4401319999999999,0.752004,-0.49068,-1.036537,-1.237126,1.313601
1186,0.450351,0.7787470000000001,-0.436725,-1.100344,-1.075485,0.597553
1187,0.465883,0.7927390000000001,-0.393076,-0.737276,-0.470657,-0.248938
1188,0.467145,0.795821,-0.385272,0.512637,0.180116,-0.966062
1189,0.471272,0.77741,-0.416566,0.960338,0.2427929999999999,0.006715
1190,0.494563,0.757521,-0.426099,0.040563,-1.164519,0.610273
1191,0.52552,0.744413,-0.411908,-0.6924359999999999,-0.006437,1.765469
1192,0.522745,0.7115670000000001,-0.46947,-0.380044,0.701839,1.809543
1193,0.554485,0.6962619999999999,-0.455805,-1.078823,-0.669238,1.191614
1194,0.5631470000000001,0.7086600000000001,-0.425039,-1.473196,-1.502514,-0.133479
1195,0.560258,0.736178,-0.379662,-0.013627,1.602842,0.850915
1196,0.538622,0.7818930000000001,-0.313878,0.008009,1.557127,0.785131
1197,0.510908,0.8182229999999999,-0.263578,0.690005,1.401687,0.650633
1198,0.475416,0.848981,-0.230648,1.567186,1.356814,0.116298
1199,0.4547,0.8752120000000001,-0.16504,1.360531,0.7995770000000001,-0.573501
1200,0.442677,0.8899809999999999,-0.1093529999999999,0.7820090000000001,0.399448,-0.7453529999999999
1201,0.4354119999999999,0.898231,-0.059862,0.348127,0.197366,-0.145948
1202,0.427617,0.903775,-0.017872,-0.242559,-0.314389,0.109195
1203,0.42636,0.904378,0.017363,-0.5862569999999999,-0.8682610000000001,-0.063613
1204,0.426402,0.902347,0.062726,-0.6997329999999999,-0.982883,-1.138288
1205,0.421075,0.903406,0.080845,0.009314,-0.840982,-0.428928
1206,0.409929,0.907524,0.09133,-0.073487,-0.935112,-0.6717890000000001
1207,0.410008,0.908316,0.082697,-0.264561,-0.9784,-0.294032
1208,0.417776,0.907338,0.046744,-0.256232,-0.98087,-0.09281
1209,0.425195,0.905092,0.001668,-0.243356,-1.003511,0.040171
1210,0.43656,0.8979,-0.056369,-0.247107,-0.5154529999999999,-0.318738
1211,0.448139,0.885293,-0.1241589999999999,-0.062259,-0.3770989999999999,0.240995
1212,0.4535,0.869382,-0.196218,0.126349,-0.190091,0.5433100000000001
1213,0.4680899999999999,0.8425959999999999,-0.266297,0.941975,3.880122,0.757142
1214,0.5058560000000001,0.810778,-0.294513,0.191806,2.937208,-1.059308
1215,0.519324,0.77832,-0.352861,0.088846,1.636887,0.350313
1216,0.506818,0.751731,-0.421933,0.536379,1.133523,0.300046
1217,0.5158659999999999,0.7152310000000001,-0.471506,0.845615,1.082651,0.180139
1218,0.5379470000000001,0.675348,-0.504491,0.894075,0.563635,0.0517629999999999
1219,0.534315,0.653827,-0.535734,0.058688,-0.051029,0.489972
1220,0.508983,0.652794,-0.5610609999999999,-0.444331,-0.286202,0.623577
1221,0.486372,0.6627609999999999,-0.569371,-1.145536,-1.200588,0.792363
1222,0.477446,0.682026,-0.553967,-0.957426,-1.413227,1.278058
1223,0.4720479999999999,0.718128,-0.5113270000000001,-1.016115,-1.329197,1.433416
1224,0.477529,0.755325,-0.4488229999999999,-1.139669,-0.953414,0.721101
1225,0.486306,0.777195,-0.399332,-0.958718,-0.573673,-0.099142
1226,0.482901,0.785676,-0.386665,0.188242,0.025069,-0.640892
1227,0.479641,0.7760520000000001,-0.409486,1.09496,0.389048,-0.8850389999999999
1228,0.490206,0.753313,-0.4384149999999999,0.533979,-0.8205129999999999,0.627304
1229,0.520468,0.743842,-0.4192899999999999,-0.575705,-0.34455,1.899698
1230,0.538419,0.721398,-0.4355229999999999,0.300692,2.940818,0.982047
1231,0.55781,0.691315,-0.459264,-0.755869,-0.530503,1.289662
1232,0.580924,0.6949,-0.423832,-1.035071,-0.627379,0.944217
1233,0.5907,0.713019,-0.377714,-0.438463,1.272302,0.81587
1234,0.578888,0.750254,-0.31937,0.093796,1.879827,0.6343880000000001
1235,0.5524359999999999,0.788117,-0.271432,0.459984,1.435165,0.641595
1236,0.519775,0.819413,-0.2416289999999999,1.356965,1.520049,0.172156
1237,0.502341,0.844822,-0.184165,1.620981,0.925686,-0.58294
1238,0.482108,0.865999,-0.132682,1.234552,0.637007,-0.808114
1239,0.470513,0.8780129999999999,-0.087734,0.695335,0.33323,-0.18845
1240,0.458929,0.886921,-0.0523559999999999,-0.047415,-0.20113,0.198063
1241,0.448221,0.893854,-0.0103489999999999,-0.626566,-0.8552649999999999,-0.2207449999999999
1242,0.440665,0.8970299999999999,0.033694,-0.60456,-1.024517,-0.5871609999999999
1243,0.431789,0.8989469999999999,0.073733,-0.069683,-0.8586030000000001,-0.576403
1244,0.418751,0.903033,0.095715,-0.092488,-1.035922,-1.013379
1245,0.413578,0.905334,0.096465,-0.333134,-0.996475,-0.140716
1246,0.4115029999999999,0.908257,0.0756179999999999,-0.361881,-1.03344,-0.296031
1247,0.411851,0.910651,0.032823,-0.287812,-0.975028,-0.243669
1248,0.419433,0.907536,-0.020957,-0.2061909999999999,-0.696599,-0.39753
1249,0.432672,0.8976430000000001,-0.083775,-0.093133,-0.4551229999999999,0.178623
1250,0.441791,0.8836219999999999,-0.1549869999999999,0.216092,0.02037,0.4348479999999999
1251,0.4595689999999999,0.858833,-0.226252,0.548823,2.039421,0.565271
1252,0.499974,0.8257110000000001,-0.261182,0.1507069999999999,3.033481,-1.23183
1253,0.506584,0.800689,-0.319781,-0.1030349999999999,2.170014,0.074054
1254,0.481538,0.780029,-0.399582,0.0286699999999999,1.433609,0.385178
1255,0.4775819999999999,0.750193,-0.457294,1.08269,0.8749600000000001,0.231678
1256,0.498843,0.712514,-0.493428,1.135037,0.749003,0.233006
1257,0.504885,0.685009,-0.5252100000000001,1.009519,0.576709,0.20676
1258,0.4822329999999999,0.67881,-0.55377,-0.837976,-0.497231,0.687895
1259,0.459084,0.683854,-0.567079,-1.0059280000000002,-0.836946,0.734697
1260,0.445092,0.697771,-0.56125,-0.978173,-1.256426,1.5691389999999998
1261,0.4472399999999999,0.7273229999999999,-0.520547,-1.062185,-1.171827,1.541879
1262,0.46918,0.757426,-0.454056,-1.111621,-1.104502,1.101716
1263,0.491712,0.774235,-0.398459,-0.975416,-0.4902689999999999,-0.382257
1264,0.493118,0.780075,-0.385109,0.169998,-0.131225,-0.715843
1265,0.4908229999999999,0.7710239999999999,-0.405717,0.777366,0.131244,-0.797087
1266,0.51227,0.749151,-0.419933,0.441862,-0.862677,1.040462
1267,0.542974,0.738347,-0.400017,-0.718542,-1.14124,1.131248
1268,0.5597810000000001,0.727626,-0.39648,-0.938336,-0.955607,1.075863
1269,0.5536800000000001,0.6912550000000001,-0.464325,-0.0316,3.135741,1.624756
1270,0.586972,0.706188,-0.39592,-0.747555,1.25539,1.102463
1271,0.570002,0.7301,-0.3768849999999999,-0.572932,0.231479,1.117058
1272,0.542624,0.7585930000000001,-0.360675,0.424936,1.866331,0.997836
1273,0.52585,0.787561,-0.321277,1.246565,1.6973790000000002,0.809757
1274,0.521554,0.8095600000000001,-0.269412,1.7293009999999998,0.937571,0.270403
1275,0.51735,0.834893,-0.187854,1.0980370000000002,0.686713,-0.655041
1276,0.504146,0.85524,-0.119948,0.453176,0.637085,-0.736269
1277,0.493927,0.866819,-0.068159,0.4144899999999999,0.397494,-0.393236
1278,0.4788739999999999,0.877152,-0.035615,0.028786,-0.1200869999999999,0.2357949999999999
1279,0.469618,0.8828600000000001,0.001086,-0.658827,-0.616106,-0.237979
1280,0.465786,0.8836870000000001,0.046074,-0.909573,-0.8603559999999999,-1.047325
1281,0.4565689999999999,0.8870319999999999,0.0685679999999999,-0.1197309999999999,-0.841332,-0.308223
1282,0.441759,0.894126,0.07329,-0.107988,-0.997595,-0.700427
1283,0.4382029999999999,0.8967510000000001,0.061634,-0.236757,-1.00608,-0.41956
1284,0.437199,0.8989219999999999,0.027916,-0.302144,-1.039029,-0.114784
1285,0.43393,0.900753,-0.018264,-0.264099,-1.099499,-0.09372
1286,0.435458,0.897174,-0.073755,-0.24985,-0.94936,-0.193014
1287,0.439267,0.886898,-0.142976,0.100207,-0.510342,0.2412429999999999
1288,0.439827,0.8713799999999999,-0.21734,0.295281,0.153553,0.384241
1289,0.458974,0.841707,-0.28436,0.657145,2.372923,0.558668
1290,0.508508,0.805508,-0.304245,0.525473,3.898609,-0.649613
1291,0.526135,0.770436,-0.360001,-0.085598,1.508709,0.254319
1292,0.5119239999999999,0.746887,-0.424363,0.141793,1.206223,0.360383
1293,0.51945,0.715599,-0.466991,0.521138,1.094506,0.158413
1294,0.542225,0.679315,-0.494485,0.860302,0.3321909999999999,0.146996
1295,0.540922,0.660062,-0.521262,0.4852619999999999,0.030872,0.322272
1296,0.514173,0.662853,-0.544283,-0.04733,-0.222698,0.472643
1297,0.4862329999999999,0.676258,-0.5533939999999999,-1.021573,-1.0676,0.6469
1298,0.463276,0.6980569999999999,-0.545972,-0.878574,-1.13281,0.961224
1299,0.4443319999999999,0.734165,-0.5133840000000001,-0.777782,-1.095615,1.436098
1300,0.444588,0.771805,-0.4545869999999999,-0.951119,-1.010956,1.054822
1301,0.465189,0.7926890000000001,-0.393997,-0.993296,-0.935831,0.432022
1302,0.478408,0.798063,-0.366348,-0.995163,-0.65727,-0.410401
1303,0.4777939999999999,0.7814989999999999,-0.401202,0.950246,0.125468,-0.042112
1304,0.500153,0.7584,-0.417931,0.7054279999999999,-0.393608,0.8379139999999999
1305,0.530961,0.750875,-0.392756,-0.504029,0.4761149999999999,0.6868850000000001
1306,0.539417,0.7083699999999999,-0.4552279999999999,0.400677,1.388402,1.336561
1307,0.5796439999999999,0.683527,-0.443615,-1.294732,-1.0484719999999998,0.216411
1308,0.580778,0.6940729999999999,-0.425382,-0.6623060000000001,0.306476,1.363691
1309,0.5717869999999999,0.723789,-0.386237,-0.101694,1.689571,0.8837799999999999
1310,0.548774,0.766759,-0.333042,0.315057,2.025675,0.604694
1311,0.521319,0.798018,-0.302295,1.078656,1.293489,0.186007
1312,0.498251,0.8288969999999999,-0.254293,1.445978,1.019629,-0.1631109999999999
1313,0.473201,0.857258,-0.202924,1.398198,0.755596,-0.54523
1314,0.451433,0.8777450000000001,-0.160496,0.918837,0.508287,-0.103282
1315,0.437026,0.8913129999999999,-0.120651,0.312775,0.042602,0.303528
1316,0.428305,0.900974,-0.0691929999999999,0.003824,-0.141361,0.108866
1317,0.424807,0.905019,-0.021541,-0.755297,-0.815511,-0.373357
1318,0.426372,0.904267,0.022202,-0.6075550000000001,-0.903961,-0.661576
1319,0.426563,0.902741,0.055562,-0.118275,-0.8748020000000001,-0.5458270000000001
1320,0.418531,0.905324,0.072142,-0.209684,-0.92072,-0.560133
1321,0.413458,0.907832,0.069842,-0.3406889999999999,-0.972163,-0.410967
1322,0.412226,0.910139,0.041236,-0.281702,-0.980742,-0.282508
1323,0.414417,0.910062,-0.005568,-0.221484,-0.995496,-0.050249
1324,0.4188479999999999,0.906436,-0.054097,-0.129374,-0.766818,-0.254725
1325,0.4245239999999999,0.8981450000000001,-0.114463,0.170248,-0.4000829999999999,0.36666
1326,0.4268479999999999,0.885415,-0.183926,0.259141,-0.149545,0.4160279999999999
1327,0.444871,0.860101,-0.249611,1.058196,3.334799,0.861504
1328,0.4858439999999999,0.827844,-0.280393,1.0259049999999998,4.109457,0.818891
1329,0.493935,0.7987270000000001,-0.34359,-0.174584,2.066751,0.187401
1330,0.478638,0.776829,-0.4091869999999999,0.2064659999999999,1.405025,0.512519
1331,0.490831,0.739379,-0.460864,0.443816,1.117234,0.371707
1332,0.518312,0.696206,-0.4966319999999999,0.957884,0.315391,0.222081
1333,0.529035,0.666952,-0.5246810000000001,0.488299,-0.2263239999999999,0.294807
1334,0.506092,0.66523,-0.5489390000000001,0.035031,-0.475121,0.546955
1335,0.477308,0.679579,-0.557086,-0.9942,-0.925794,0.948809
1336,0.453422,0.704842,-0.545528,-0.975929,-1.282158,1.385875
1337,0.438093,0.743362,-0.505452,-1.008527,-1.325042,1.532017
1338,0.444309,0.777107,-0.445744,-1.202838,-1.1366040000000002,0.7235
1339,0.456902,0.793883,-0.401227,-1.09771,-0.5756819999999999,-0.2462489999999999
1340,0.459063,0.798246,-0.389945,-0.034365,-0.2438489999999999,-0.63862
1341,0.465308,0.783984,-0.410913,1.043649,0.442426,-0.992804
1342,0.484969,0.760057,-0.432564,0.591905,-0.57657,0.681496
1343,0.516854,0.747903,-0.4165279999999999,-0.264581,0.262381,1.181619
1344,0.514705,0.699707,-0.495463,0.377019,2.148102,1.458353
1345,0.539235,0.69417,-0.47681,-1.301961,-1.54854,0.303882
1346,0.563026,0.703318,-0.433981,-0.926262,-0.238611,1.240774
1347,0.563161,0.729729,-0.387736,-0.62592,0.63456,0.942713
1348,0.541191,0.776157,-0.323551,0.384331,1.835431,0.7245060000000001
1349,0.50397,0.816964,-0.280315,0.817152,1.498039,0.515254
1350,0.462281,0.850224,-0.251805,1.618041,1.183543,0.134725
1351,0.4488319999999999,0.874149,-0.1854849999999999,1.098897,0.553387,-0.805528
1352,0.450499,0.884592,-0.120576,0.849138,0.49111,-0.33113
1353,0.451155,0.889503,-0.072338,0.323503,0.077232,-0.000462
1354,0.448389,0.8934290000000001,-0.026871,-0.44198,-0.554974,-0.352691
1355,0.446906,0.894402,0.017575,-0.7682720000000001,-0.903557,-0.4756899999999999
1356,0.445209,0.8938219999999999,0.053479,-0.38689,-0.8957139999999999,-0.397901
1357,0.433563,0.8978010000000001,0.077238,-0.09349,-0.941364,-0.946577
1358,0.4248689999999999,0.900863,0.088994,-0.193317,-0.957763,-0.402943
1359,0.423318,0.902461,0.079718,-0.300454,-0.943324,-0.358161
1360,0.420243,0.906311,0.044563,-0.183259,-0.931869,-0.285453
1361,0.42139,0.906872,-0.0017239999999999,-0.032124,-0.928662,-0.024918
1362,0.428083,0.902029,-0.055497,0.247744,-0.557241,0.366273
1363,0.4424119999999999,0.888808,-0.1195089999999999,0.175127,0.026231,0.334277
1364,0.474767,0.8632709999999999,-0.171318,0.338053,1.311213,0.106575
1365,0.51977,0.8289030000000001,-0.206763,0.538076,3.086167,-0.401605
1366,0.5269159999999999,0.803203,-0.277879,0.171723,3.077947,0.21573
1367,0.515074,0.7894800000000001,-0.333785,-0.129988,1.819162,0.437896
1368,0.498496,0.770887,-0.396521,0.518502,1.082446,0.307867
1369,0.487893,0.737974,-0.466207,1.25434,0.615129,0.267949
1370,0.502867,0.7037909999999999,-0.501795,1.06801,0.3109639999999999,0.054956
1371,0.500045,0.685135,-0.52966,0.066468,0.118195,0.449155
1372,0.471895,0.683964,-0.55633,-0.623873,-0.605549,0.823282
1373,0.439509,0.694311,-0.5698770000000001,-0.853907,-0.901403,0.937018
1374,0.416597,0.715825,-0.5603899999999999,-1.020937,-1.589024,1.7084
1375,0.4144029999999999,0.745409,-0.5221399999999999,-1.2413530000000002,-1.397127,1.460846
1376,0.439613,0.768712,-0.46456,-1.297081,-0.96401,0.533834
1377,0.462964,0.779784,-0.421421,-0.732007,-0.416533,-0.635998
1378,0.468373,0.779141,-0.416605,0.790157,0.062564,-1.257315
1379,0.479975,0.7568189999999999,-0.443669,1.205281,0.1585099999999999,0.2324119999999999
1380,0.505105,0.7422300000000001,-0.440405,-0.044076,-1.130277,1.184332
1381,0.535497,0.734701,-0.4164739999999999,-0.496755,2.033411,-2.541915
1382,0.520482,0.695655,-0.495133,0.442226,3.618157,-0.189391
1383,0.557647,0.696916,-0.450924,-0.407912,0.890975,2.161861
1384,0.570867,0.706151,-0.4188729999999999,-0.68894,0.626872,1.033467
1385,0.582544,0.728738,-0.359968,-0.314767,1.587973,0.608457
1386,0.56477,0.7670819999999999,-0.304324,0.055164,1.958825,0.52489
1387,0.534596,0.805508,-0.2556489999999999,1.551784,1.482182,0.265445
1388,0.516101,0.833096,-0.198953,2.000623,1.161426,0.1311119999999999
1389,0.502612,0.854273,-0.132625,1.879041,0.796438,-0.344288
1390,0.493571,0.866648,-0.0727889999999999,0.4836319999999999,0.510335,-0.277172
1391,0.486828,0.873009,-0.029044,0.079685,0.293709,0.14994
1392,0.486595,0.8735860000000001,0.007864,-0.173591,-0.076833,0.184077
1393,0.492681,0.86839,0.0561539999999999,-0.791891,-0.735883,-0.890458
1394,0.492897,0.865416,0.089982,-0.120582,-0.8673690000000001,-0.380998
1395,0.4813729999999999,0.869547,0.110253,-0.051777,-0.971797,-0.783776
1396,0.4725229999999999,0.873128,0.119826,-0.254735,-1.08524,-0.601179
1397,0.471542,0.875748,0.103452,-0.404586,-0.995362,-0.448896
1398,0.474038,0.878743,0.05557,-0.286721,-0.877858,-0.192395
1399,0.478527,0.878056,0.004328,-0.244549,-0.61678,-0.3392429999999999
1400,0.488927,0.871006,-0.047845,-0.345265,-0.479709,-0.441733
1401,0.497004,0.8604440000000001,-0.1123069999999999,0.051275,-0.175874,0.529513
1402,0.4952789999999999,0.8492959999999999,-0.182717,0.440787,1.245796,0.573998
1403,0.514621,0.820385,-0.249248,0.854641,2.947101,0.818492
1404,0.541007,0.78773,-0.294591,0.2119219999999999,2.787358,-1.288386
1405,0.525439,0.762917,-0.3766489999999999,0.159055,1.363364,0.21721
1406,0.50535,0.733479,-0.454559,0.479879,1.189465,0.1461329999999999
1407,0.5125,0.696851,-0.501734,0.877041,0.993182,0.201959
1408,0.524867,0.6591279999999999,-0.538572,0.868917,0.326254,0.2934239999999999
1409,0.516147,0.635674,-0.574026,0.132321,-0.366006,0.527517
1410,0.4841689999999999,0.636247,-0.600638,-0.906105,-0.896135,0.978507
1411,0.457715,0.648833,-0.6078720000000001,-1.177457,-1.348998,1.326851
1412,0.443208,0.676868,-0.5877180000000001,-0.997056,-1.436206,1.999721
1413,0.451383,0.7153930000000001,-0.53335,-1.17323,-0.994171,1.541162
1414,0.480761,0.741208,-0.46848,-1.277483,-0.595075,0.081884
1415,0.492201,0.749583,-0.442558,-0.668135,-0.278804,-0.694435
1416,0.4982479999999999,0.7419319999999999,-0.448641,0.590711,0.086711,-1.074994
1417,0.510756,0.723174,-0.46491,0.929002,-0.01187,0.25823
1418,0.5310699999999999,0.711617,-0.4599569999999999,0.565778,-0.636055,1.222668
1419,0.55207,0.706595,-0.442647,-0.625663,0.400308,0.967
1420,0.5474939999999999,0.661772,-0.512155,-0.776315,0.298937,1.494607
1421,0.586002,0.670725,-0.454668,-1.171024,-0.932078,1.074541
1422,0.59713,0.68963,-0.409682,-1.104103,-0.842676,0.828124
1423,0.588655,0.722294,-0.363001,0.422835,1.847897,0.698328
1424,0.565001,0.768083,-0.301355,0.794725,1.901397,0.641245
1425,0.528134,0.808257,-0.260359,1.107608,1.705141,0.565611
1426,0.5086149999999999,0.838656,-0.194824,1.155112,0.55409,-0.641464
1427,0.495105,0.860641,-0.118985,0.666623,0.501404,-0.941913
1428,0.48548,0.8721909999999999,-0.059834,0.499825,0.4554,-1.114589
1429,0.475605,0.879245,-0.0267649999999999,-0.291935,-0.473697,0.300218
1430,0.469817,0.882661,0.013035,-0.554183,-0.679581,-0.077625
1431,0.468429,0.880993,0.066434,-0.893661,-0.822765,-0.907987
1432,0.4622989999999999,0.882015,0.091184,0.028775,-0.8668790000000001,-0.467146
1433,0.450995,0.8865799999999999,0.1027849999999999,-0.046515,-0.94876,-0.61841
1434,0.447392,0.8895719999999999,0.092139,-0.161884,-1.055419,-0.669592
1435,0.451554,0.8908299999999999,0.050068,-0.284288,-0.940925,-0.153202
1436,0.452452,0.891767,-0.0051259999999999,-0.233244,-0.927839,-0.114915
1437,0.45661,0.886865,-0.070474,0.1965579999999999,-0.357629,0.134042
1438,0.462869,0.8733209999999999,-0.151831,0.093664,0.281419,0.2501739999999999
1439,0.486762,0.8452440000000001,-0.220488,0.146386,0.933183,0.4707479999999999
1440,0.522271,0.813706,-0.255159,0.4874949999999999,3.991912,-0.4888439999999999
1441,0.5161720000000001,0.7903279999999999,-0.3300599999999999,-0.162168,2.493364,0.353452
1442,0.497714,0.773663,-0.392069,-0.111026,1.726657,0.332178
1443,0.481214,0.744989,-0.461971,1.229571,0.7936310000000001,0.186214
1444,0.48821,0.703443,-0.5165390000000001,1.399943,0.405703,-0.168946
1445,0.490714,0.670712,-0.556183,1.111978,0.351566,-0.034546
1446,0.454112,0.665045,-0.5928680000000001,-0.429072,-0.354315,0.825565
1447,0.409213,0.672721,-0.61643,-0.974414,-1.124427,1.080359
1448,0.377805,0.686865,-0.6208670000000001,-0.955427,-1.528036,1.745302
1449,0.372973,0.7129479999999999,-0.593793,-1.087832,-1.555325,2.11984
1450,0.407729,0.745693,-0.5269659999999999,-1.341292,-1.088924,1.073551
1451,0.456864,0.767141,-0.450293,-1.244919,-0.253698,-0.6905
1452,0.465708,0.776474,-0.424496,0.168722,0.156052,-1.250492
1453,0.459118,0.769178,-0.444488,0.7301979999999999,0.38283,-1.294114
1454,0.469325,0.754927,-0.458052,0.579716,-0.715621,1.208815
1455,0.490127,0.754659,-0.4361859999999999,-0.34407,0.239482,1.363341
1456,0.494913,0.7081810000000001,-0.5035229999999999,0.427435,1.639582,0.934187
1457,0.5353439999999999,0.685389,-0.493601,-0.8473860000000001,-1.182506,0.498576
1458,0.564855,0.696466,-0.442568,-0.675313,-0.067346,1.384524
1459,0.560331,0.727586,-0.395779,-0.304731,1.652053,0.930477
1460,0.524788,0.785291,-0.328491,0.28408,2.02051,0.628067
1461,0.4736109999999999,0.8305610000000001,-0.293007,0.55828,1.835333,0.585411
1462,0.44346,0.86014,-0.251978,1.7026580000000002,1.071226,-0.3644469999999999
1463,0.429567,0.88346,-0.186975,1.59445,0.6197590000000001,-0.7280800000000001
1464,0.425518,0.8960239999999999,-0.126742,0.775425,0.239886,-0.0515269999999999
1465,0.430304,0.8996930000000001,-0.0733429999999999,-0.274573,-0.636158,0.07435
1466,0.454428,0.8907149999999999,-0.010431,-0.7554529999999999,-0.6405930000000001,-0.782263
1467,0.47808,0.8774959999999999,0.037768,-1.017524,-0.323953,-1.035463
1468,0.478699,0.8753049999999999,0.068359,-0.196824,-0.839783,-0.662994
1469,0.4667229999999999,0.880293,0.085082,-0.211871,-0.848891,-0.655547
1470,0.456021,0.8853840000000001,0.090144,-0.379117,-1.057167,-0.752437
1471,0.453172,0.889445,0.0592419999999999,-0.328996,-1.00651,-0.035042
1472,0.449742,0.893116,0.0079709999999999,-0.1406599999999999,-1.092884,0.0536289999999999
1473,0.4447689999999999,0.89443,-0.04651,0.061304,-1.00321,0.14528
1474,0.437906,0.891752,-0.1140359999999999,0.428152,0.336244,0.424217
1475,0.446318,0.876791,-0.1789609999999999,0.501101,0.866052,0.56011
1476,0.48913,0.8447530000000001,-0.217101,0.37383,2.943683,-0.731354
1477,0.494046,0.822471,-0.28187,0.337833,3.855416,0.4490909999999999
1478,0.448127,0.8159770000000001,-0.36518,-0.16648,2.050768,0.653342
1479,0.425602,0.797533,-0.427548,-0.103459,1.304075,0.372906
1480,0.411948,0.7712600000000001,-0.4852329999999999,0.509332,0.892818,0.392352
1481,0.440525,0.729859,-0.522722,1.263485,0.398025,0.279116
1482,0.459696,0.697116,-0.550185,0.991812,-0.1759369999999999,0.144683
1483,0.4312359999999999,0.693192,-0.577508,-0.359032,-0.538331,0.736092
1484,0.400399,0.701611,-0.589421,-0.92228,-1.323315,0.930242
1485,0.379537,0.722438,-0.577954,-1.075337,-1.698604,1.8810240000000005
1486,0.377152,0.7536,-0.538366,-1.208923,-1.553939,1.853918
1487,0.404737,0.777173,-0.481854,-1.294722,-1.093823,0.83099
1488,0.418925,0.79327,-0.441834,-0.403879,-0.016811,-0.886901
1489,0.410885,0.798044,-0.4407859999999999,0.347385,0.102255,-1.147608
1490,0.416384,0.7758470000000001,-0.474004,1.151548,0.6734479999999999,-0.827541
1491,0.42552,0.759478,-0.4920569999999999,0.161821,-1.507891,0.8738319999999999
1492,0.446862,0.748711,-0.489631,-0.325311,-1.210198,1.842506
1493,0.44737,0.708726,-0.545492,0.756655,3.821089,0.729879
1494,0.463556,0.689971,-0.555923,-1.350595,-1.026916,1.528976
1495,0.47861,0.708719,-0.518309,-0.861865,-0.2644289999999999,1.682249
1496,0.4911399999999999,0.729223,-0.4764529999999999,-0.275076,1.629389,1.167402
1497,0.485546,0.7775380000000001,-0.39959,0.479832,1.787007,0.720314
1498,0.462153,0.816651,-0.345668,0.924978,1.809859,0.697109
1499,0.444802,0.835233,-0.323308,2.0603860000000003,1.237948,-0.370052
1500,0.4533399999999999,0.857866,-0.241946,1.351057,0.351515,-0.894742
1501,0.452431,0.8725620000000001,-0.1842059999999999,0.761772,0.172574,-0.582869
1502,0.4505409999999999,0.8832899999999999,-0.129615,0.037679,-0.055409,0.1338869999999999
1503,0.454622,0.886214,-0.089063,-0.408617,-0.737135,0.412946
1504,0.471984,0.8810379999999999,-0.031477,-0.917922,-0.715175,-0.851366
1505,0.484822,0.8744620000000001,0.015815,-0.697682,-0.6549649999999999,-0.486808
1506,0.478789,0.876958,0.0411329999999999,-0.338408,-0.846807,-0.68162
1507,0.466571,0.882691,0.0561669999999999,-0.356204,-0.945435,-0.415114
1508,0.458702,0.88761,0.041573,-0.383735,-1.048575,-0.497292
1509,0.45543,0.8902530000000001,-0.004441,-0.204224,-0.960917,-0.079482
1510,0.453729,0.889717,-0.050216,-0.002389,-0.822411,0.081573
1511,0.4541779999999999,0.884548,-0.106238,0.063705,-0.615383,0.28121
1512,0.456205,0.87371,-0.168817,0.165622,-0.322135,0.509225
1513,0.46896,0.854461,-0.223527,0.664921,2.696839,-0.024092
1514,0.5048060000000001,0.823099,-0.260137,0.562058,3.929007,-1.171427
1515,0.4972359999999999,0.80319,-0.328076,0.390536,3.693926,0.072949
1516,0.471331,0.787097,-0.397893,0.139646,1.164777,0.219029
1517,0.4716939999999999,0.754622,-0.456118,0.386583,1.200792,0.206271
1518,0.4653069999999999,0.728711,-0.5024569999999999,0.698267,1.013782,0.347351
1519,0.47495,0.6988310000000001,-0.534838,0.760127,0.1100829999999999,0.11722
1520,0.480637,0.678241,-0.555852,0.205276,-0.030918,0.198079
1521,0.464584,0.6769270000000001,-0.5709,-0.214508,-0.223848,0.42675
1522,0.449824,0.686333,-0.571489,-0.790171,-1.284035,1.031267
1523,0.4369619999999999,0.711647,-0.550107,-0.778347,-1.414131,1.43028
1524,0.43395,0.746168,-0.50489,-0.893926,-1.427397,1.6666490000000005
1525,0.447771,0.769897,-0.454702,-1.337236,-0.8717030000000001,0.2462219999999999
1526,0.458193,0.780337,-0.4255899999999999,-1.166735,-0.612917,-0.1627279999999999
1527,0.457492,0.782358,-0.4226229999999999,-0.028033,-0.172998,-0.6556850000000001
1528,0.457734,0.7692439999999999,-0.445799,0.763595,0.312742,-0.621446
1529,0.471985,0.751757,-0.460526,0.616775,-0.726687,0.625641
1530,0.498291,0.736634,-0.457242,-0.164749,1.126632,0.288342
1531,0.507065,0.685975,-0.521841,0.426117,1.553908,1.99471
1532,0.53396,0.6691159999999999,-0.51688,-0.7436159999999999,-0.343188,1.730091
1533,0.547086,0.680595,-0.48732,-0.822736,0.325905,1.79898
1534,0.5458149999999999,0.707221,-0.449352,-0.229424,1.752938,1.184947
1535,0.526008,0.760368,-0.380983,0.11834,1.863075,0.8245870000000001
1536,0.5049319999999999,0.796778,-0.331933,0.75903,1.432287,0.579858
1537,0.485232,0.823462,-0.2940239999999999,1.724851,1.088693,0.04732
1538,0.478085,0.849518,-0.223032,1.489155,0.627792,-0.7282310000000001
1539,0.469252,0.8670959999999999,-0.16714,1.015458,0.521439,-0.5356489999999999
1540,0.46752,0.876085,-0.117851,0.232935,0.089262,0.2088539999999999
1541,0.469335,0.8800100000000001,-0.072761,-0.401631,-0.555044,0.3261179999999999
1542,0.483138,0.875258,-0.022109,-0.813552,-0.82173,-0.59311
1543,0.497577,0.867072,0.024291,-0.975711,-0.587424,-0.910415
1544,0.4988899999999999,0.8652059999999999,0.050129,-0.643315,-0.741472,-0.481434
1545,0.488403,0.8699790000000001,0.067714,-0.373733,-0.95146,-0.609721
1546,0.4774359999999999,0.875959,0.0688179999999999,-0.331241,-1.0473,-0.505677
1547,0.474768,0.879374,0.035813,-0.145209,-1.012675,-0.290055
1548,0.4751149999999999,0.8798309999999999,-0.012216,-0.12575,-0.954065,-0.142295
1549,0.476467,0.876927,-0.06297,-0.083294,-0.598989,-0.0463439999999999
1550,0.479522,0.869397,-0.119144,-0.061294,-0.27052,0.307239
1551,0.4781579999999999,0.858966,-0.183115,0.271552,0.312268,0.5663699999999999
1552,0.4907939999999999,0.8376600000000001,-0.239657,0.67072,2.363481,0.5978720000000001
1553,0.5268579999999999,0.80415,-0.275234,0.687055,4.157337,-0.980457
1554,0.515633,0.7823260000000001,-0.3493989999999999,0.051048,2.053627,0.578388
1555,0.49605,0.757003,-0.425291,0.08357,1.28035,0.124753
1556,0.482776,0.730341,-0.483242,0.741482,1.102179,0.312038
1557,0.48665,0.696511,-0.527292,1.0841809999999998,0.8479979999999999,0.280939
1558,0.491505,0.666955,-0.5599890000000001,0.624462,0.2336489999999999,0.3558409999999999
1559,0.476204,0.656089,-0.585467,-0.2180869999999999,-0.255759,0.668917
1560,0.4489439999999999,0.660212,-0.602133,-0.697738,-0.504892,0.713233
1561,0.426591,0.6745260000000001,-0.602518,-0.912614,-1.617337,1.5242870000000002
1562,0.412355,0.7083079999999999,-0.572937,-0.8983780000000001,-1.6511189999999998,1.494705
1563,0.4268979999999999,0.744388,-0.513456,-1.099399,-1.171497,1.090315
1564,0.447517,0.763157,-0.466167,-0.695304,-0.45461,-0.3201179999999999
1565,0.4593239999999999,0.766205,-0.449381,-0.141529,-0.2792969999999999,-0.616689
1566,0.468422,0.756509,-0.456363,0.5813520000000001,0.232199,-0.846677
1567,0.4758409999999999,0.740962,-0.47386,0.542637,-0.125316,0.517836
1568,0.497021,0.731888,-0.466158,0.521458,-0.116241,0.510134
1569,0.508786,0.676913,-0.5319010000000001,1.028094,2.548078,0.781855
1570,0.536507,0.659127,-0.526977,-1.6771169999999995,-1.948098,-0.505402
1571,0.555192,0.6653279999999999,-0.499093,-1.38353,-1.157958,1.050851
1572,0.558579,0.6930850000000001,-0.455647,-0.404389,1.269424,1.162739
1573,0.540743,0.749432,-0.3820199999999999,0.097684,2.317295,0.7474069999999999
1574,0.510081,0.791636,-0.336336,0.5562189999999999,1.782873,0.6517350000000001
1575,0.487067,0.815697,-0.312081,1.316582,1.331352,0.078622
1576,0.482296,0.840932,-0.245383,1.538166,0.66479,-0.510095
1577,0.4608109999999999,0.864216,-0.201923,1.042881,0.458111,-0.662304
1578,0.45346,0.877015,-0.158767,0.81952,0.2293239999999999,0.05365
1579,0.4472859999999999,0.887785,-0.108449,-0.046178,-0.35272,0.375432
1580,0.456881,0.887589,-0.058587,-0.492831,-0.8154,-0.135321
1581,0.476145,0.879339,-0.005951,-0.452113,-0.6118979999999999,-0.614045
1582,0.484393,0.873969,0.039087,-0.221377,-0.666449,-0.4844
1583,0.484647,0.8724729999999999,0.062399,-0.286176,-0.907172,-0.967352
1584,0.490242,0.869812,0.055448,-0.523354,-0.900543,-0.373457
1585,0.4965239999999999,0.867775,0.020381,-0.565204,-0.905144,-0.146662
1586,0.495041,0.86835,-0.029823,-0.333557,-0.970492,-0.031776
1587,0.491854,0.8664709999999999,-0.085404,-0.2289909999999999,-0.635972,-0.346801
1588,0.48494,0.860366,-0.156818,0.050308,-0.234557,0.353977
1589,0.4720109999999999,0.8495719999999999,-0.235421,0.305653,0.7475350000000001,0.417672
1590,0.482142,0.820351,-0.3074949999999999,1.161428,3.858497,0.95845
1591,0.5188649999999999,0.7836930000000001,-0.34146,0.281764,2.8962380000000003,-1.2881479999999998
1592,0.520108,0.748791,-0.410842,0.028736,1.643543,0.176543
1593,0.501744,0.7165020000000001,-0.484634,0.617275,1.207234,0.609008
1594,0.50278,0.6768029999999999,-0.53772,1.08601,1.097413,0.1904
1595,0.515579,0.634135,-0.576234,0.88382,0.623464,0.228654
1596,0.511351,0.607516,-0.607815,0.145189,0.09741,0.397167
1597,0.487609,0.603666,-0.630729,-0.725463,-0.4848,0.789405
1598,0.471541,0.614221,-0.6327520000000001,-1.163482,-1.193292,0.958222
1599,0.46907,0.640884,-0.607647,-1.044799,-1.500992,1.374111
1600,0.474835,0.685136,-0.5523710000000001,-1.273053,-1.117173,1.345904
1601,0.490135,0.723716,-0.485792,-1.26899,-0.7893899999999999,0.54489
1602,0.487831,0.745057,-0.454866,-0.890754,-0.322754,-0.144148
1603,0.478492,0.746019,-0.463134,0.323266,0.17845,-0.7193
1604,0.482258,0.724935,-0.491821,1.063122,0.133433,-0.634369
1605,0.5010899999999999,0.706617,-0.499594,0.8427209999999999,-0.416196,0.470022
1606,0.528786,0.707624,-0.468664,-0.689537,-0.029447,1.35459
1607,0.543013,0.688103,-0.4812939999999999,-0.413253,1.103035,-0.016433
1608,0.56904,0.6528619999999999,-0.499957,0.222509,2.029603,0.167147
1609,0.588847,0.6731600000000001,-0.4473319999999999,-0.618006,0.276379,1.382437
1610,0.582803,0.696993,-0.417771,-0.611962,0.252546,1.352876
1611,0.56511,0.7403310000000001,-0.364076,0.221572,1.6667740000000002,0.812135
1612,0.533554,0.783198,-0.319235,0.77089,1.662755,0.583364
1613,0.503232,0.811925,-0.2958469999999999,1.6858240000000002,1.26057,0.05076
1614,0.490947,0.8400610000000001,-0.230777,1.535527,0.6663020000000001,-0.594647
1615,0.4736229999999999,0.863008,-0.175745,0.808665,0.494535,-0.7143149999999999
1616,0.46052,0.878279,-0.128589,0.716939,0.341173,-0.072751
1617,0.453072,0.887539,-0.083597,-0.016106,-0.474865,0.657129
1618,0.461643,0.8867229999999999,-0.024388,-0.631,-0.816335,-0.598598
1619,0.470695,0.881999,0.022601,-0.7621680000000001,-0.4462689999999999,-0.926043
1620,0.462046,0.885445,0.049877,-0.1109869999999999,-0.731789,-0.254284
1621,0.445495,0.893159,0.061537,-0.272994,-0.983903,-0.601851
1622,0.431861,0.9005299999999999,0.050291,-0.302085,-1.101625,-0.541258
1623,0.426676,0.90437,0.0069879999999999,-0.3418219999999999,-1.122556,-0.347487
1624,0.4205279999999999,0.906128,-0.0455589999999999,-0.2139239999999999,-1.000748,-0.17078
1625,0.418753,0.901704,-0.1075329999999999,-0.05004,-0.861101,-0.041805
1626,0.41527,0.8912959999999999,-0.182023,0.373823,0.129746,0.30954
1627,0.426936,0.867144,-0.256473,0.627401,1.883757,0.510135
1628,0.466738,0.833651,-0.295253,0.781798,3.87158,-0.452184
1629,0.479988,0.80276,-0.353809,-0.05912,2.303304,0.2189829999999999
1630,0.467972,0.774932,-0.424825,-0.061233,1.531602,0.383839
1631,0.445071,0.749888,-0.489462,0.8403139999999999,1.140035,0.3760429999999999
1632,0.451741,0.7107289999999999,-0.539249,1.126247,0.8072,0.101657
1633,0.462268,0.678534,-0.570872,0.577771,0.226175,0.3365579999999999
1634,0.451795,0.663999,-0.595803,-0.204145,-0.212567,0.605813
1635,0.4262,0.666488,-0.611672,-0.945609,-0.901794,0.7856069999999999
1636,0.408018,0.680435,-0.608707,-0.893919,-1.637512,1.185856
1637,0.397147,0.711801,-0.579317,-1.050773,-1.41868,1.68474
1638,0.401232,0.752325,-0.5225069999999999,-1.198046,-1.073553,1.315842
1639,0.416239,0.781749,-0.464335,-1.163523,-0.652614,0.2954199999999999
1640,0.415602,0.7973319999999999,-0.437641,-0.591399,-0.0585929999999999,-0.660397
1641,0.409063,0.7910659999999999,-0.454834,0.7241,0.493327,-1.122497
1642,0.418317,0.7605109999999999,-0.496616,0.993594,-0.183621,0.374302
1643,0.4483359999999999,0.745555,-0.493088,-0.00899,-1.121989,1.7412729999999998
1644,0.482054,0.734985,-0.476879,-0.521071,0.413071,1.5445209999999998
1645,0.49593,0.69257,-0.523827,-0.028141,2.204205,1.139473
1646,0.531253,0.695867,-0.483252,-1.221424,-0.8569540000000001,-0.380166
1647,0.520879,0.714914,-0.466451,-0.513402,0.292456,1.298665
1648,0.504804,0.750438,-0.426623,0.40967,1.7535900000000002,0.7737609999999999
1649,0.480801,0.792978,-0.374178,0.745426,1.896018,0.614596
1650,0.453689,0.82106,-0.346435,1.130265,1.795044,0.331329
1651,0.438638,0.851493,-0.287309,1.341895,0.597268,-0.68112
1652,0.422462,0.876229,-0.231813,1.3580709999999998,0.5725319999999999,-0.736617
1653,0.411197,0.894395,-0.1759619999999999,0.701321,0.4581739999999999,-0.0464199999999999
1654,0.400611,0.907818,-0.1239609999999999,-0.200889,-0.449596,0.403563
1655,0.407228,0.910393,-0.073058,-0.4480449999999999,-0.8513870000000001,-0.123261
1656,0.422338,0.906222,-0.01949,-0.7866569999999999,-0.830095,-0.8756209999999999
1657,0.4217609999999999,0.906636,0.010686,-0.092309,-0.7942100000000001,-0.453634
1658,0.40602,0.913387,0.0292769999999999,-0.094848,-0.856274,-0.704417
1659,0.392106,0.919484,0.028056,-0.239075,-1.036336,-0.611995
1660,0.38726,0.921914,-0.009515,-0.32386,-1.062218,-0.202002
1661,0.38039,0.922947,-0.058819,-0.260731,-1.072971,0.068325
1662,0.373316,0.920697,-0.113757,-0.096339,-0.969158,-0.033414
1663,0.364752,0.912853,-0.183421,0.321436,-0.38168,0.210505
1664,0.365065,0.8937809999999999,-0.260523,0.54799,0.480838,0.44073
1665,0.3935619999999999,0.863604,-0.3150989999999999,0.912759,2.7255990000000003,0.648656
1666,0.421988,0.834939,-0.3532619999999999,0.4635859999999999,3.4931400000000004,-0.5040979999999999
1667,0.414516,0.8027,-0.428768,-0.131313,1.910648,0.3912
1668,0.399569,0.773012,-0.492737,0.243894,1.340589,0.5005189999999999
1669,0.391377,0.739258,-0.5480109999999999,0.928737,1.0569309999999998,0.2665929999999999
1670,0.402086,0.705976,-0.583026,1.093611,0.5917680000000001,0.3457969999999999
1671,0.401152,0.688707,-0.60395,-0.052809,-0.125764,0.52761
1672,0.384288,0.68909,-0.614387,-0.462978,-0.3846469999999999,0.719947
1673,0.367632,0.6988800000000001,-0.613521,-0.954943,-0.974774,0.740367
1674,0.357241,0.719387,-0.595697,-0.647296,-1.603191,1.454859
1675,0.35508,0.76105,-0.542876,-0.8334280000000001,-1.360111,1.746093
1676,0.371529,0.798006,-0.474495,-1.096962,-0.6926439999999999,0.359429
1677,0.374843,0.8130539999999999,-0.445454,-0.6053270000000001,-0.141087,-0.623805
1678,0.374621,0.8048270000000001,-0.4603319999999999,0.4896979999999999,0.356458,-0.970683
1679,0.383115,0.777204,-0.49917,0.666415,-0.1262339999999999,0.090387
1680,0.406953,0.756313,-0.512225,0.075057,-1.125896,1.743075
1681,0.443977,0.7487050000000001,-0.492259,-0.115517,1.036268,0.123301
1682,0.446918,0.700921,-0.55585,-0.106754,1.065299,1.571063
1683,0.478608,0.6990810000000001,-0.531239,-1.145646,-1.1793049999999998,-0.05534
1684,0.488626,0.716539,-0.497805,-0.496148,0.355452,1.319964
1685,0.478912,0.751115,-0.454383,-0.149642,1.411666,1.075523
1686,0.454913,0.797863,-0.395552,0.596249,2.016194,0.6100909999999999
1687,0.428764,0.824784,-0.368627,1.329521,1.54721,0.198217
1688,0.415103,0.8542959999999999,-0.312826,1.809247,0.7784399999999999,-0.22349
1689,0.395594,0.88182,-0.256692,1.008032,0.66591,-0.7322609999999999
1690,0.384481,0.901163,-0.200176,0.8220620000000001,0.627676,-0.068363
1691,0.372482,0.91639,-0.146551,0.2473909999999999,-0.153145,0.43836
1692,0.371787,0.923349,-0.095869,-0.381476,-0.804346,-0.1799339999999999
1693,0.380892,0.923402,-0.047317,-0.5784779999999999,-0.680894,-0.656037
1694,0.3820389999999999,0.924119,-0.006288,-0.212773,-0.822572,-0.452849
1695,0.37395,0.927257,0.018546,-0.005069,-0.897716,-0.537192
1696,0.3704,0.928419,0.0288259999999999,-0.340966,-1.065016,-0.347032
1697,0.37094,0.928604,0.009329,-0.3175949999999999,-1.058517,-0.371329
1698,0.3675199999999999,0.929222,-0.03828,-0.210477,-1.065086,-0.167073
1699,0.3618889999999999,0.927933,-0.08926,0.112446,-0.861145,-0.071018
1700,0.35918,0.921583,-0.147188,0.337063,-0.524504,0.1738299999999999
1701,0.356205,0.908415,-0.218842,0.416668,-0.169676,0.416046
1702,0.374556,0.8824719999999999,-0.284504,0.827592,3.192326,0.397343
1703,0.4165899999999999,0.8527530000000001,-0.315052,0.67632,3.855484,-0.71336
1704,0.415492,0.822606,-0.388175,0.266911,3.355983,-0.369989
1705,0.404301,0.7936270000000001,-0.454632,0.342433,1.327817,0.5205350000000001
1706,0.387619,0.762813,-0.517555,0.7922060000000001,1.061177,0.475029
