,gravity.x,gravity.y,gravity.z,userAcceleration.x,userAcceleration.y,userAcceleration.z
0,0.02592,0.82581,0.563351,0.293599,-2.194584,-0.506436
1,0.030766,0.8537899999999999,0.519705,-0.002431,-1.86853,-0.787756
2,0.020213,0.888949,0.457557,-0.132671,-1.482181,-0.968559
3,-0.003682,0.916682,0.399596,-0.0666,-0.511333,-0.264586
4,-0.0307449999999999,0.926239,0.375678,-0.118166,0.070023,0.201593
5,-0.048911,0.916095,0.397964,-0.076684,0.2358219999999999,0.579728
6,-0.084086,0.906571,0.413588,0.3353219999999999,-0.188492,-0.125441
7,-0.129799,0.91662,0.3780949999999999,1.646736,0.5532739999999999,-1.421293
8,-0.092081,0.923152,0.373238,2.136927,2.268498,0.741309
9,-0.082468,0.938097,0.336406,-0.020102,-0.482912,-0.795375
10,-0.079305,0.957194,0.278364,-0.111689,-0.690516,-1.506452
11,-0.064541,0.976099,0.207513,0.322552,-0.574503,-1.911096
12,0.00467,0.991745,0.128124,0.524642,1.734619,-1.7085689999999998
13,0.1242849999999999,0.991322,0.042786,0.454236,4.477825,-1.136719
14,0.145387,0.985497,-0.087502,-1.472337,1.118294,3.242287
15,0.142138,0.979226,-0.144602,0.090482,1.330557,1.564188
16,0.144847,0.970513,-0.192671,0.922383,0.438393,1.737975
17,0.162443,0.964171,-0.209726,0.098406,0.112673,0.634759
18,0.181172,0.95982,-0.2142869999999999,-0.768147,-0.534604,-0.004646
19,0.1996089999999999,0.953033,-0.227777,-0.8474360000000001,-1.470169,0.228052
20,0.21325,0.94824,-0.235294,-1.21444,-1.02194,0.8917879999999999
21,0.208977,0.94958,-0.2337179999999999,-1.068169,-0.422114,0.751449
22,0.187783,0.958175,-0.215953,-0.539452,-0.780975,0.442104
23,0.157652,0.968368,-0.193408,-0.381254,-0.801605,0.359394
24,0.12917,0.97969,-0.153359,0.207667,-0.701401,0.0844039999999999
25,0.1175609999999999,0.98872,-0.092791,0.3226699999999999,0.043507,0.005114
26,0.103626,0.994261,-0.0265079999999999,0.291332,0.297105,0.244403
27,0.089305,0.994557,0.053651,-0.026728,0.7983210000000001,0.418456
28,0.082856,0.986788,0.139217,0.399963,2.4158,0.755193
29,0.063519,0.974581,0.214836,0.8680610000000001,2.293898,0.654854
30,0.0267019999999999,0.963414,0.266677,0.228852,1.750041,-1.522003
31,-0.0045899999999999,0.943338,0.3317969999999999,-0.770938,2.201789,-0.495952
32,-0.0327519999999999,0.910034,0.413234,-0.682077,1.6860970000000002,-0.441326
33,-0.03092,0.869647,0.492701,0.074545,0.530881,-0.69639
34,0.003331,0.831542,0.5554479999999999,0.589611,-0.208465,-0.920896
35,0.0530519999999999,0.807325,0.587715,0.935306,-0.960737,-0.622688
36,0.094253,0.801259,0.590845,0.725358,-1.388249,-0.460108
37,0.1110049999999999,0.811233,0.574087,0.0636019999999999,-1.672698,-0.735464
38,0.107717,0.832678,0.5431779999999999,-0.218084,-1.386877,-0.813334
39,0.081107,0.860585,0.502804,-0.3445809999999999,-1.30225,-0.963299
40,0.037281,0.8879469999999999,0.458429,0.041027,-0.8898389999999999,-0.148996
41,0.004739,0.905804,0.423667,0.029349,-0.757214,0.157739
42,-0.0146259999999999,0.911949,0.410039,0.023873,-0.5845100000000001,0.353633
43,-0.050989,0.914643,0.40103,-0.159384,-0.7705390000000001,-0.650893
44,-0.1071049999999999,0.932008,0.346244,0.391834,-0.957796,-1.414909
45,-0.098184,0.934379,0.342479,1.078454,-0.703407,-1.697048
46,-0.030023,0.938383,0.344286,-0.250021,1.285464,-1.392656
47,-0.038058,0.965854,0.256268,-0.601132,-0.59,-0.921902
48,-0.058072,0.984784,0.1637819999999999,-0.657718,-1.13226,-0.939814
49,-0.04043,0.996206,0.077039,0.175653,-0.874899,-1.866041
50,0.069458,0.996941,0.035785,0.383453,2.558952,-2.066348
51,0.130749,0.987463,-0.088423,-0.916623,1.393305,2.504012
52,0.118002,0.980093,-0.159655,-0.761007,1.117548,2.554476
53,0.132132,0.967409,-0.216007,0.775385,1.153288,2.078342
54,0.15628,0.957215,-0.243542,0.183563,0.372222,0.663434
55,0.183649,0.95119,-0.248006,-0.572871,0.113598,0.071859
56,0.213774,0.942772,-0.255887,-1.0485520000000002,-1.409264,0.072599
57,0.2298369999999999,0.935836,-0.267176,-1.399606,-0.7797390000000001,1.145076
58,0.225817,0.935155,-0.272927,-1.392001,-0.352254,0.696908
59,0.198985,0.943361,-0.265469,-0.667536,-0.750566,0.458477
60,0.158107,0.955805,-0.247864,-0.300777,-0.74885,0.513016
61,0.112704,0.970917,-0.211227,0.468259,-0.750625,0.604232
62,0.096451,0.983198,-0.154977,0.789475,-0.461835,0.681145
63,0.086757,0.993194,-0.077698,0.234975,0.2646489999999999,0.049378
64,0.078676,0.996829,0.011857,-0.411287,1.427549,-0.4874739999999999
65,0.081993,0.990315,0.112034,-0.175255,3.537471,0.449627
66,0.066107,0.976715,0.204095,0.789514,2.402252,1.397574
67,0.00088,0.960336,0.278839,0.769842,1.688116,-0.530365
68,-0.047049,0.936374,0.347835,0.306296,2.018613,-1.09315
69,-0.079889,0.902314,0.423608,-0.0626429999999999,1.6782830000000002,-0.991098
70,-0.095172,0.8632129999999999,0.4957859999999999,0.013003,0.274482,-0.644055
71,-0.085909,0.8292219999999999,0.552275,0.475252,-0.596495,-0.791671
72,-0.0557309999999999,0.807212,0.5876239999999999,1.01882,-1.1919620000000002,-1.026222
73,-0.014214,0.800834,0.598716,0.435295,-2.429664,-0.4685899999999999
74,0.012522,0.811513,0.584198,0.2815,-2.539022,-0.474381
75,0.008832,0.8412649999999999,0.54055,0.042697,-2.3462240000000003,-0.672142
76,-0.010621,0.881978,0.47117,0.323319,-1.164784,-1.041666
77,-0.034905,0.915409,0.401007,0.352303,-0.838261,-0.828634
78,-0.060113,0.93614,0.346447,0.07792,-0.5182479999999999,0.0219919999999999
79,-0.082289,0.93874,0.334654,-0.063127,0.442409,1.076891
80,-0.106137,0.928755,0.355171,-0.200367,0.4977279999999999,1.043007
81,-0.1534299999999999,0.931494,0.32981,-0.135923,0.190881,0.501794
82,-0.1527079999999999,0.940711,0.3028889999999999,2.0595830000000004,3.738214,-0.168749
83,-0.131235,0.939061,0.317712,0.790949,1.2817040000000002,-0.758813
84,-0.127323,0.954433,0.269898,-0.003948,-0.541255,-0.480179
85,-0.1287049999999999,0.976542,0.172625,0.3200199999999999,-1.199076,-2.198992
86,-0.07756,0.995602,0.052536,0.6914060000000001,-0.473232,-1.756531
87,0.038854,0.9992,-0.009372,0.759532,1.188132,-1.858288
88,0.0893279999999999,0.989807,-0.110909,-1.442188,1.543671,3.671669
89,0.076513,0.979721,-0.185178,-1.123449,1.3548129999999998,3.141309
90,0.090148,0.966389,-0.240759,-0.095565,1.539669,2.443304
91,0.116319,0.959266,-0.257441,0.36473,-0.024925,0.223567
92,0.141499,0.956208,-0.256209,-0.197651,-0.403321,-0.1945059999999999
93,0.166547,0.950704,-0.261575,-0.782316,-1.25086,0.0063409999999999
94,0.18268,0.94603,-0.26768,-1.43033,-1.170762,0.891856
95,0.1791819999999999,0.94597,-0.270246,-1.402113,-0.223207,0.968106
96,0.1521279999999999,0.954106,-0.257944,-0.511091,-0.8355610000000001,0.308268
97,0.111746,0.966646,-0.230446,-0.195547,-0.715517,0.617866
98,0.072696,0.980473,-0.182717,0.175366,-0.682972,0.621834
99,0.060163,0.990824,-0.121018,0.569217,-0.392557,0.349213
100,0.05504,0.997746,-0.038339,0.018553,0.374218,0.0646299999999999
101,0.053744,0.997219,0.051591,-0.224764,0.766209,-0.134767
102,0.053096,0.987372,0.149239,0.3587849999999999,3.313684,0.983878
103,0.026888,0.973266,0.228091,0.974409,2.224762,0.968747
104,-0.030047,0.957896,0.285529,1.000201,1.879613,-0.0981669999999999
105,-0.070926,0.931985,0.355482,-0.023495,1.875724,-1.086256
106,-0.099857,0.898193,0.4281029999999999,-0.201733,1.624711,-0.5090359999999999
107,-0.109472,0.860815,0.4969979999999999,-0.020548,0.100107,-0.554234
108,-0.093711,0.8303790000000001,0.5492560000000001,0.672309,-0.565914,-0.7271890000000001
109,-0.0642809999999999,0.814516,0.5765640000000001,0.946834,-1.268999,-0.74998
110,-0.030641,0.817052,0.575743,0.5748449999999999,-2.14092,-0.612013
111,-0.009205,0.835493,0.549417,0.302266,-2.412077,-0.425379
112,-0.013181,0.8682850000000001,0.495884,-0.077502,-2.204284,-0.97588
113,-0.025944,0.909063,0.415843,0.140736,-1.70603,-1.062296
114,-0.044244,0.943891,0.327271,0.2402429999999999,-0.800535,-0.8122560000000001
115,-0.05857,0.964242,0.258461,0.055045,-0.224053,0.066247
116,-0.073018,0.962643,0.260733,-0.020595,0.8791389999999999,0.24891
117,-0.085632,0.946951,0.30975,-0.153717,0.915002,1.261081
118,-0.125752,0.942587,0.309371,-0.197993,-0.28739,0.006333
119,-0.190041,0.955133,0.227159,0.152855,-1.038186,-1.099504
120,-0.184909,0.955232,0.2309469999999999,3.118136,2.106566,0.742244
121,-0.142931,0.966368,0.213774,0.766497,1.457308,-0.930052
122,-0.12157,0.984794,0.1240839999999999,-0.53117,-0.591789,-0.421768
123,-0.118576,0.992413,0.032428,-0.032211,-1.1909459999999998,-1.6696349999999998
124,-0.057927,0.996948,-0.052297,0.034413,1.67955,-2.260036
125,0.026606,0.994867,-0.097616,-0.395335,3.849646,-2.091867
126,0.0283529999999999,0.977879,-0.207234,-1.526582,1.6484029999999998,4.277394
127,0.02165,0.964247,-0.2641139999999999,1.054537,0.979113,1.586273
128,0.038138,0.951231,-0.306109,1.350961,0.470522,1.639117
129,0.076807,0.946094,-0.314648,1.330786,0.150967,1.153744
130,0.1117099999999999,0.940853,-0.319865,-0.570786,-1.281963,0.043574
131,0.135798,0.934594,-0.3287719999999999,-1.04394,-1.371361,0.261587
132,0.145709,0.930871,-0.3350309999999999,-1.528613,-1.147149,0.813806
133,0.126957,0.937809,-0.3230989999999999,-0.7150920000000001,-0.851658,0.619364
134,0.081535,0.952266,-0.294176,-0.470039,-0.942439,0.490083
135,0.034669,0.96704,-0.252247,-0.349732,-0.8684219999999999,0.555775
136,0.016026,0.981057,-0.193045,0.667446,-0.606332,0.839957
137,0.018325,0.992756,-0.118723,0.631989,-0.5112800000000001,0.647409
138,0.0273899999999999,0.999431,-0.019587,0.449325,-0.389003,0.22027
139,0.04006,0.995417,0.086809,-0.1854299999999999,3.963583,-0.627184
140,0.036752,0.98335,0.177952,0.1376099999999999,3.030688,1.184139
141,-0.000704,0.968291,0.2498139999999999,0.997424,1.922243,0.151217
142,-0.065539,0.950077,0.305044,0.524142,1.656582,-0.379537
143,-0.110795,0.92673,0.359013,0.086701,1.559522,-0.700321
144,-0.135207,0.8979389999999999,0.41883,-0.052736,0.964823,-0.8206700000000001
145,-0.141497,0.8670059999999999,0.47778,0.053286,-0.569566,-0.683117
146,-0.126165,0.8437530000000001,0.521687,0.498327,-0.8912690000000001,-0.741398
147,-0.101768,0.8326049999999999,0.544433,0.822792,-1.700418,-0.5129239999999999
148,-0.067643,0.838575,0.540565,0.321747,-2.188902,-0.399955
149,-0.036438,0.8602780000000001,0.508517,0.031159,-2.079699,-0.587619
150,-0.01734,0.894668,0.4463899999999999,0.160315,-1.867141,-0.975336
151,-0.016743,0.925379,0.378666,0.067723,-1.301325,-0.847218
152,-0.0388839999999999,0.942637,0.331539,-0.006725,-0.444316,-0.056484
153,-0.072653,0.937848,0.33935,-0.016505,-0.03764,0.460165
154,-0.1141609999999999,0.922897,0.367728,0.209589,-0.313247,0.407022
155,-0.151315,0.928343,0.339526,0.925439,0.213701,-0.538454
156,-0.132635,0.929601,0.343866,0.8674370000000001,4.716791000000001,-0.687555
157,-0.134967,0.93802,0.319215,0.139499,-0.627351,-0.747209
158,-0.144825,0.950905,0.273497,-0.003536,-1.2616040000000002,-1.4919870000000002
159,-0.1444599999999999,0.971467,0.188093,0.315618,-1.347001,-1.800489
160,-0.077071,0.994119,0.076046,0.8340290000000001,0.596549,-1.207454
161,0.062707,0.997948,-0.012783,0.984595,5.39077,-1.854099
162,0.078174,0.988915,-0.126223,-1.821384,2.1435310000000003,3.309542
163,0.068296,0.979588,-0.189046,-0.409589,1.32751,2.082494
164,0.078304,0.966358,-0.244984,0.906773,0.438366,1.651921
165,0.10505,0.95969,-0.260683,0.767189,-0.149479,0.426699
166,0.133482,0.954305,-0.267357,-0.197767,-0.83605,0.0269699999999999
167,0.161383,0.94688,-0.278156,-0.769827,-1.2966719999999998,0.294254
168,0.180808,0.941562,-0.284194,-1.431632,-0.777591,1.360519
169,0.182266,0.941561,-0.283265,-0.897797,-0.6569689999999999,0.383164
170,0.160579,0.950265,-0.266847,-0.608897,-0.830758,0.21808
171,0.1232569999999999,0.963508,-0.2376059999999999,-0.400234,-0.938499,0.2298079999999999
172,0.093088,0.976857,-0.192563,0.328543,-0.94666,0.5442779999999999
173,0.0878289999999999,0.986864,-0.135577,0.49437,-0.8569200000000001,0.591601
174,0.086172,0.99441,-0.060975,0.376764,-0.7500859999999999,0.472153
175,0.085199,0.995883,0.030868,-0.493021,0.820966,-0.111526
176,0.0866379999999999,0.988744,0.1219609999999999,-0.49446,0.828105,-0.202619
177,0.063205,0.976934,0.2039619999999999,-0.204318,3.898646,1.266161
178,-0.010854,0.965074,0.261741,1.192693,1.869993,-0.244194
179,-0.087765,0.950291,0.298729,0.889278,1.918712,-0.902382
180,-0.134684,0.919594,0.369055,0.396571,2.190055,-1.021215
181,-0.158871,0.879417,0.4487529999999999,-0.303455,0.36776,-0.8690559999999999
182,-0.134894,0.838607,0.527764,-0.28512,-0.151732,-0.909783
183,-0.088849,0.810389,0.579109,0.173322,-0.435939,-0.817329
184,-0.042281,0.801546,0.59643,0.940398,-1.329286,-0.544138
185,-0.01169,0.814769,0.579662,0.818361,-1.6710919999999998,-0.460063
186,0.001447,0.842934,0.538008,0.594042,-1.951439,-0.4261609999999999
187,0.004895,0.877473,0.4795939999999999,-0.014722,-1.746415,-0.7685489999999999
188,0.002424,0.912274,0.409564,0.0310839999999999,-1.52139,-0.7883020000000001
189,-0.0134389999999999,0.938955,0.343767,0.096294,-0.982992,-0.63965
190,-0.034755,0.949786,0.310954,0.015957,-0.3730489999999999,-0.22639
191,-0.05125,0.942841,0.329267,0.042675,0.379241,0.026919
192,-0.0724,0.930638,0.358697,-0.0282779999999999,0.154826,0.973014
193,-0.1169839999999999,0.934931,0.334983,0.856547,0.6406,-0.867713
194,-0.108943,0.940043,0.323179,1.7580060000000002,2.357137,-0.780104
195,-0.121243,0.946244,0.29986,0.221264,-0.618714,-0.589457
196,-0.137163,0.963848,0.228424,0.121446,-1.338894,-1.584305
197,-0.120798,0.984592,0.12641,0.304544,-1.416004,-2.093177
198,-0.034979,0.998603,0.039525,0.755071,1.445275,-1.809819
199,0.088207,0.996094,-0.0032229999999999,0.127614,4.4731440000000005,-1.134869
200,0.11174,0.987889,-0.107634,-1.763748,1.610561,3.203261
201,0.1083619999999999,0.97834,-0.176366,-0.30134,1.374672,1.205648
202,0.11772,0.965024,-0.234238,0.778246,0.535358,1.619309
203,0.142984,0.956751,-0.253338,0.506446,0.156225,0.970669
204,0.174575,0.951116,-0.254752,-0.619659,-0.355031,0.171103
205,0.202097,0.944068,-0.260557,-0.8740180000000001,-1.20838,0.15315
206,0.216563,0.938787,-0.267912,-0.970347,-1.50414,0.725188
207,0.217404,0.936985,-0.273481,-1.234875,-0.253528,0.725004
208,0.193132,0.945371,-0.262623,-0.856615,-0.745572,0.577412
209,0.150007,0.960931,-0.232607,-0.466352,-0.833001,0.636995
210,0.111799,0.975087,-0.19158,0.188433,-0.92603,0.382497
211,0.0981399999999999,0.985953,-0.1351369999999999,0.3563429999999999,-0.6524409999999999,-0.285853
212,0.09446,0.993827,-0.058141,-0.068521,0.382821,-0.131984
213,0.09391,0.995272,0.024687,-0.289146,1.610395,0.355471
214,0.083211,0.990505,0.109414,0.0627549999999999,2.245732,1.245048
215,0.0561399999999999,0.979488,0.19351,0.975644,2.409031,0.7261529999999999
216,0.01686,0.965519,0.259776,1.103883,2.103329,0.195408
217,-0.01049,0.94795,0.318237,-0.818566,2.2162490000000004,-0.172638
218,-0.049058,0.916739,0.396455,-0.779998,2.247461,-0.2508559999999999
219,-0.062917,0.879252,0.472178,-0.228846,0.53185,-0.957331
220,-0.0297029999999999,0.8407309999999999,0.540632,0.911829,-0.4312609999999999,-1.066511
221,0.021136,0.812421,0.5826819999999999,0.958051,-0.867658,-0.936716
222,0.065881,0.805104,0.589458,0.850714,-1.231602,-0.623455
223,0.0879679999999999,0.81714,0.569681,0.361907,-2.111757,-0.609049
224,0.095757,0.8413280000000001,0.5319689999999999,0.050498,-1.816716,-0.6465770000000001
225,0.091524,0.874006,0.47721,-0.329134,-1.528791,-1.0198120000000002
226,0.075262,0.906619,0.415174,-0.0606279999999999,-1.180911,-0.787428
227,0.046379,0.928421,0.368614,-0.032691,-0.5872649999999999,-0.195015
228,0.01664,0.930862,0.364984,-0.078576,0.111802,0.292639
229,-0.012451,0.914164,0.405145,-0.060791,0.624471,1.4473790000000002
230,-0.060657,0.8962399999999999,0.439395,0.271076,2.6481630000000003,1.265653
231,-0.077015,0.901743,0.425349,1.115666,1.272558,-2.390376
232,-0.0769919999999999,0.909241,0.40908,1.2287709999999998,-1.492127,0.0306019999999999
233,-0.081902,0.936477,0.341023,0.223992,-1.662246,-1.3005719999999998
234,-0.074635,0.967155,0.242969,0.171376,-1.29052,-2.521656
235,0.014662,0.98993,0.140776,0.577212,0.427687,-1.6521130000000002
236,0.152391,0.985255,0.0777539999999999,1.038833,4.68221,-2.362422
237,0.182223,0.982593,-0.036078,-1.6384,1.350629,3.329566
238,0.175067,0.978456,-0.109412,-1.063815,1.63539,1.809516
239,0.164126,0.96966,-0.181159,-0.104556,0.8554280000000001,1.015067
240,0.177568,0.962171,-0.206623,0.683455,-0.111509,1.321827
241,0.205203,0.954316,-0.217185,0.071897,-0.128999,1.058692
242,0.234609,0.945701,-0.224956,-0.860952,-0.674415,0.139415
243,0.25275,0.938402,-0.235616,-0.92049,-1.243166,0.5879270000000001
244,0.258874,0.935634,-0.2399369999999999,-1.319344,-0.305706,0.7408520000000001
245,0.240776,0.942817,-0.230476,-1.024544,-0.612693,0.612801
246,0.199151,0.958694,-0.203078,-0.518319,-0.848358,0.4485159999999999
247,0.154159,0.973862,-0.166803,-0.119842,-0.892808,0.399942
248,0.133606,0.984375,-0.1146799999999999,0.433335,-0.8988950000000001,0.11404
249,0.130935,0.990389,-0.044521,0.1511839999999999,-0.12314,-0.022252
250,0.134634,0.990372,0.032139,-0.3225,0.781036,0.205975
251,0.137826,0.983627,0.116092,-0.314278,2.034043,0.632184
252,0.125445,0.972078,0.198301,0.58737,3.261199,1.108569
253,0.075871,0.963088,0.258264,0.6234850000000001,2.06421,-0.174066
254,0.026993,0.949096,0.313818,-0.079361,1.7128759999999998,-1.649084
255,0.0032119999999999,0.920819,0.389969,-0.552559,1.5766790000000002,-0.312027
256,-0.012183,0.889683,0.456409,-0.196771,0.9006299999999999,-0.919391
257,0.003991,0.855259,0.51818,0.387,0.351589,-1.010123
258,0.031782,0.8290129999999999,0.5583199999999999,0.973299,-0.681613,-0.798463
259,0.0634049999999999,0.822024,0.565906,1.000026,-1.872302,-0.421116
260,0.083533,0.829478,0.552251,0.732644,-2.233881,-0.433934
261,0.085576,0.849671,0.520316,0.528651,-2.318299,-0.4754859999999999
262,0.075306,0.881167,0.466761,-0.126072,-1.474307,-1.166972
263,0.055111,0.913924,0.40212,0.017796,-1.202361,-0.923223
264,0.029958,0.938098,0.345064,0.051188,-0.687487,-0.334505
265,0.009572,0.944269,0.329027,-0.0311329999999999,-0.050241,0.347838
266,-0.000329,0.930777,0.365581,-0.085258,0.576716,1.160817
267,-0.041431,0.910897,0.410541,-0.079907,1.434501,1.788007
268,-0.058043,0.924331,0.377144,0.952116,2.00438,-2.741127
269,-0.070602,0.935135,0.347178,0.94522,-0.8988799999999999,-0.830058
270,-0.062734,0.95218,0.29902,0.6008359999999999,-1.458405,-0.121316
271,-0.046091,0.973803,0.222659,0.25088,-1.275347,-1.979785
272,0.025282,0.991964,0.123947,0.673372,0.2245889999999999,-1.915558
273,0.136927,0.988325,0.066774,1.074209,4.310182,-2.238115
274,0.180568,0.980817,-0.073409,-1.16299,2.987201,1.317214
275,0.168034,0.974712,-0.147303,-1.479954,1.7506,1.831354
276,0.162147,0.964735,-0.2073429999999999,0.001275,0.991106,1.603202
277,0.176823,0.957846,-0.226411,0.904827,0.175333,1.391343
278,0.2013,0.953183,-0.225648,0.016046,-0.181592,0.377427
279,0.227715,0.945957,-0.2308849999999999,-0.5232020000000001,-0.777958,0.084462
280,0.242932,0.939967,-0.239671,-1.0732540000000002,-1.086208,0.587618
281,0.244587,0.938626,-0.243216,-1.411518,-0.2626469999999999,0.7805850000000001
282,0.2196159999999999,0.94805,-0.230145,-0.957516,-0.71987,0.6009800000000001
283,0.170294,0.96439,-0.2023589999999999,-0.468313,-0.8352700000000001,0.413601
284,0.12505,0.978177,-0.165917,0.27093,-0.94505,0.440194
285,0.108527,0.987757,-0.112045,0.533578,-0.8048810000000001,0.592635
286,0.1048359999999999,0.993805,-0.03683,0.137123,-0.064362,0.1556809999999999
287,0.113173,0.992596,0.044054,-0.330931,1.008014,-0.079775
288,0.127382,0.982491,0.135947,-0.569384,3.695168,0.130517
289,0.109126,0.968616,0.223315,0.15566,2.838665,0.994733
290,0.045166,0.95749,0.2848989999999999,0.3173829999999999,1.755736,-0.55089
291,-0.001496,0.9387,0.344724,-0.0051719999999999,1.583395,-0.751203
292,-0.030585,0.913476,0.405734,-0.041681,1.547477,-0.919147
293,-0.045786,0.887442,0.458633,0.149454,0.650018,-1.118362
294,-0.036532,0.8599709999999999,0.5090279999999999,0.656664,-0.2320719999999999,-0.748606
295,-0.019137,0.844158,0.535747,1.335986,-1.263408,-0.7769119999999999
296,0.0014759999999999,0.8416110000000001,0.540077,0.943638,-2.047284,-0.665978
297,0.021562,0.851866,0.523311,0.334411,-2.333281,-0.289698
298,0.028627,0.8782969999999999,0.477253,-0.243409,-2.270463,-0.760532
299,0.02385,0.914795,0.403208,-0.016221,-1.729797,-0.942514
300,0.005027,0.944922,0.327251,0.380792,-0.904577,-0.720073
301,-0.010665,0.960813,0.276983,0.172713,-0.19383,0.004649
302,-0.031566,0.957323,0.287285,0.093638,0.5635819999999999,0.484825
303,-0.054298,0.942481,0.329813,-0.058434,0.7171109999999999,1.0076200000000002
304,-0.090513,0.939658,0.329919,0.460829,0.250604,-1.49064
305,-0.107017,0.955381,0.275303,1.043067,1.881686,-1.521321
306,-0.116994,0.957224,0.264633,1.094167,2.283148,-1.348084
307,-0.109246,0.96794,0.226173,0.283501,-0.960463,-1.129265
308,-0.0919789999999999,0.982132,0.164177,0.266234,-0.974655,-1.067269
309,-0.038869,0.995641,0.084765,0.740743,-0.103154,-1.827746
310,0.053774,0.998456,0.013833,0.318785,4.121402,-1.366158
311,0.087271,0.988839,-0.12074,0.285288,4.131019,-1.231586
312,0.076701,0.977803,-0.194976,-1.572276,1.44189,2.263366
313,0.084086,0.964447,-0.250537,0.708608,0.482422,1.398776
314,0.1092609999999999,0.957278,-0.267727,0.754097,0.17677,1.304348
315,0.138415,0.95447,-0.264248,0.448331,0.038282,0.72723
316,0.163438,0.950773,-0.263282,-0.602891,-0.907667,0.2256989999999999
317,0.181545,0.947556,-0.2630159999999999,-0.914287,-1.24939,0.495422
318,0.185079,0.946915,-0.26286,-1.164937,-0.487656,0.714612
319,0.163567,0.952772,-0.255872,-1.119637,-0.795026,0.453931
320,0.120403,0.966584,-0.2263099999999999,-0.5568649999999999,-0.8809520000000001,0.618552
321,0.076171,0.978808,-0.190079,-0.191329,-0.796222,0.666734
322,0.051528,0.988551,-0.1418039999999999,0.410096,-0.820995,0.390781
323,0.041526,0.996431,-0.073478,0.386605,-0.538118,0.12194
324,0.043937,0.998982,0.010112,-0.046256,0.308056,0.112965
325,0.054572,0.993295,0.101903,-0.505744,2.227576,-0.0985159999999999
326,0.0392529999999999,0.98205,0.1844849999999999,-0.098503,3.9018,1.248056
327,-0.011913,0.969095,0.2463929999999999,0.7541760000000001,1.6933349999999998,-0.342935
328,-0.0596169999999999,0.950272,0.305654,0.4813699999999999,1.684341,-1.032721
329,-0.079412,0.918962,0.386262,-0.0077,1.6752,-0.774674
330,-0.085709,0.8857950000000001,0.4560869999999999,0.0174409999999999,0.985161,-0.844515
331,-0.075373,0.854143,0.514542,0.147532,0.5544720000000001,-0.750626
332,-0.051446,0.8326959999999999,0.55133,0.721551,-0.495614,-0.835586
333,-0.031677,0.827674,0.5603090000000001,1.170181,-1.824562,-0.608939
334,-0.019704,0.837369,0.5462779999999999,0.972813,-2.288205,-0.5210100000000001
335,-0.019349,0.863132,0.504603,0.145921,-2.340488,-0.5908909999999999
336,-0.020831,0.90111,0.433085,-0.058683,-1.909975,-0.972025
337,-0.022283,0.93283,0.35962,0.107518,-1.16722,-0.834184
338,-0.030855,0.953306,0.3004199999999999,0.08272,-0.550046,-0.4538319999999999
339,-0.048036,0.959904,0.276175,-0.047439,0.052562,0.201715
340,-0.058954,0.952886,0.297537,0.131296,0.611583,0.406854
341,-0.06825,0.941473,0.330101,0.169874,0.6716260000000001,1.133278
342,-0.089778,0.942406,0.322188,0.573054,1.570869,-0.981932
343,-0.091469,0.953164,0.288283,0.972924,1.205925,-1.7105400000000002
344,-0.104941,0.958871,0.2637199999999999,0.493094,-0.83996,-0.1874559999999999
345,-0.105497,0.975695,0.192055,0.273008,-1.203035,-1.55642
346,-0.079922,0.990897,0.108305,0.484356,-0.8113319999999999,-1.873243
347,0.005221,0.999009,0.044159,0.724317,1.64952,-1.821701
348,0.114546,0.99239,-0.045138,0.258303,4.779552,-0.918607
349,0.10845,0.984517,-0.137695,-1.979391,1.260157,3.185363
350,0.102175,0.973326,-0.2054099999999999,-1.39844,1.393816,1.43391
351,0.10727,0.96064,-0.256244,0.45906,0.497429,1.343342
352,0.127952,0.953735,-0.272054,0.009988,-0.152756,0.750157
353,0.15607,0.949751,-0.271313,-0.40993,-0.329985,0.402615
354,0.175767,0.944285,-0.278258,-0.7415470000000001,-0.525187,0.151137
355,0.184279,0.940985,-0.283875,-0.94583,-0.8312440000000001,0.793778
356,0.177921,0.942028,-0.284471,-1.062885,-0.40736,0.8899549999999999
357,0.145446,0.952781,-0.266553,-0.993774,-0.594962,0.784619
358,0.095412,0.968407,-0.230392,-0.276427,-0.8184739999999999,0.671798
359,0.0561399999999999,0.981497,-0.183051,0.100629,-0.8223020000000001,0.63459
360,0.042668,0.991476,-0.1230869999999999,0.459576,-0.8298700000000001,0.504115
361,0.04981,0.997845,-0.042644,-0.056569,0.6879609999999999,-0.012929
362,0.071825,0.996273,0.047701,-0.3709739999999999,1.566639,-0.237078
363,0.071598,0.987471,0.140595,-0.343998,2.980729,-0.019074
364,0.033591,0.976866,0.211182,0.489313,1.927279,-0.056885
365,-0.019027,0.962657,0.27004,0.485732,1.825169,-0.652471
366,-0.046986,0.936916,0.3463719999999999,0.2533,1.751271,-0.8564430000000001
367,-0.05895,0.90875,0.413146,-0.024546,1.00104,-0.776701
368,-0.057849,0.880296,0.470876,0.078327,0.563811,-0.552816
369,-0.0462399999999999,0.857217,0.512867,0.8788969999999999,-0.625772,-0.633792
370,-0.033279,0.8453229999999999,0.5332100000000001,0.8827510000000001,-1.133974,-0.714302
371,-0.016382,0.8458870000000001,0.533103,0.675912,-1.446747,-0.694465
372,-0.003415,0.857806,0.513954,0.262936,-2.180606,-0.531166
373,-0.003386,0.8790549999999999,0.4767,0.294463,-2.19009,-0.825226
374,-0.012894,0.909122,0.416321,0.279007,-2.10712,-1.07045
375,-0.028923,0.936068,0.350618,0.311257,-0.796038,-0.8286
376,-0.047324,0.946933,0.317917,-0.07972,-0.06824,0.358993
377,-0.0650309999999999,0.938638,0.338708,-0.100543,0.320502,0.5577
378,-0.078419,0.924904,0.372015,-0.107235,0.383156,0.960489
379,-0.1067869999999999,0.930677,0.3498989999999999,0.413778,-0.783139,-1.180191
380,-0.125381,0.944527,0.303546,0.774734,-0.856057,-1.764362
381,-0.1162349999999999,0.95192,0.283425,0.401315,2.257873,-1.748741
382,-0.115942,0.967816,0.223342,-0.156107,-0.6893130000000001,-0.288833
383,-0.113975,0.983018,0.143801,-0.206826,-0.780748,-0.957628
384,-0.0878029999999999,0.995563,0.033755,0.559193,-0.323917,-1.594028
385,0.0135509999999999,0.999146,-0.038957,0.400572,3.235168,-2.137602
386,0.079437,0.987942,-0.132873,-0.788391,2.8908270000000003,0.6860649999999999
387,0.067465,0.977548,-0.1996079999999999,-0.901221,1.258002,2.184425
388,0.07644,0.965594,-0.248558,0.6042850000000001,0.938169,1.675041
389,0.099672,0.954857,-0.279839,0.902891,0.091347,1.5515219999999998
390,0.130074,0.952835,-0.274196,-0.035363,-0.257217,0.202922
391,0.159108,0.950287,-0.2676469999999999,-0.561239,-1.053192,0.221291
392,0.184925,0.945638,-0.267521,-1.074192,-1.317891,0.4387859999999999
393,0.198138,0.942579,-0.268854,-1.477328,-0.434446,0.621927
394,0.181992,0.947886,-0.261509,-1.050614,-0.577128,0.592946
395,0.137202,0.963855,-0.2283739999999999,-0.8333229999999999,-0.734927,0.673229
396,0.091487,0.976735,-0.193945,-0.184886,-0.904591,0.510275
397,0.073434,0.986036,-0.149451,0.462775,-1.018125,0.380225
398,0.072931,0.993645,-0.085703,0.468772,-0.847817,0.333415
399,0.078722,0.996885,-0.003971,-0.172274,0.119326,-0.093471
400,0.0908669999999999,0.992516,0.081534,-0.6029220000000001,3.909812,0.323526
401,0.076899,0.984288,0.158921,-0.588954,3.91804,0.246138
402,0.024061,0.972936,0.229802,0.5375840000000001,1.971934,0.536968
403,-0.0278529999999999,0.95823,0.284625,0.352758,1.630332,-0.77312
404,-0.061502,0.938198,0.34058,0.145761,1.779713,-0.772129
405,-0.089774,0.91496,0.393421,0.063651,1.771777,-0.904941
406,-0.099033,0.8861899999999999,0.452603,0.202579,0.121973,-0.604001
407,-0.088063,0.863115,0.49726,0.539616,-0.253725,-0.769965
408,-0.069114,0.851454,0.5198470000000001,1.102943,-0.908552,-0.77032
409,-0.049706,0.8543069999999999,0.517379,1.0180280000000002,-1.885404,-0.339461
410,-0.0422779999999999,0.8708049999999999,0.489799,0.587521,-2.411134,-0.175713
411,-0.043131,0.901268,0.431101,0.179972,-2.285667,-0.672067
412,-0.049707,0.934307,0.352975,0.124689,-1.900967,-0.91021
413,-0.0595399999999999,0.95626,0.286384,0.2751159999999999,-0.933478,-0.750876
414,-0.071612,0.963467,0.258062,0.024539,-0.261532,-0.091986
415,-0.082004,0.951586,0.29623,-0.059872,0.569913,0.56493
416,-0.099415,0.938498,0.330652,-0.114849,0.646569,1.300634
417,-0.120517,0.943412,0.3089369999999999,0.8026310000000001,1.44381,-1.761543
418,-0.106225,0.950069,0.2933929999999999,1.114892,1.087788,-1.722836
419,-0.103195,0.954344,0.280306,0.673599,-0.323638,-1.054476
420,-0.09608,0.969512,0.225406,0.020076,-1.135665,-1.631961
421,-0.075489,0.986529,0.1451039999999999,0.121571,-1.0590700000000002,-1.685571
422,0.006248,0.9969,0.078389,0.318123,3.064943,-2.145131
423,0.1086599999999999,0.994062,-0.0052439999999999,0.146543,3.4642660000000003,-0.569295
424,0.1038109999999999,0.986895,-0.123519,-1.236105,1.548948,2.709853
425,0.096252,0.977517,-0.187594,0.118591,1.1709200000000002,1.028933
426,0.102525,0.966396,-0.235719,0.8574200000000001,0.332432,1.23607
427,0.124292,0.960629,-0.248475,0.315344,-0.172039,0.8969729999999999
428,0.15165,0.955605,-0.2526199999999999,-0.713875,-0.467263,0.191966
429,0.174835,0.949153,-0.261795,-0.803375,-1.0087540000000002,0.2337949999999999
430,0.189629,0.944533,-0.268133,-0.983056,-0.8571,0.935155
431,0.190418,0.944838,-0.266493,-1.22826,-0.4345989999999999,0.5420050000000001
432,0.164408,0.953144,-0.253933,-0.700418,-0.803379,0.2344929999999999
433,0.1178599999999999,0.965737,-0.23121,-0.388184,-0.844399,0.41816
434,0.079124,0.977221,-0.196914,0.142326,-0.812975,0.608504
435,0.064978,0.986935,-0.147423,0.428751,-0.8383290000000001,0.574929
436,0.06055,0.995597,-0.071521,0.0800299999999999,-0.255638,0.017444
437,0.061555,0.998008,0.0136479999999999,-0.3885969999999999,0.7801899999999999,-0.1999119999999999
438,0.065084,0.993047,0.098067,-0.238515,3.087245,0.180345
439,0.045401,0.983603,0.174523,0.455881,2.597833,0.92385
440,-0.006134,0.972062,0.23463,0.861649,2.031172,0.446309
441,-0.047657,0.956504,0.2877889999999999,0.334644,1.497643,-0.932519
442,-0.078489,0.935604,0.344207,-0.346407,1.456242,-0.629287
443,-0.1099869999999999,0.911331,0.396702,-0.354613,0.8701780000000001,-0.686863
444,-0.115092,0.887575,0.4460479999999999,-0.194647,0.453215,-0.561298
445,-0.102387,0.8710389999999999,0.480418,1.005403,-1.087607,-0.592005
446,-0.0823179999999999,0.86724,0.4910319999999999,1.064389,-1.614386,-0.3815659999999999
447,-0.066261,0.877267,0.4754,1.094063,-2.038202,-0.1172309999999999
448,-0.052672,0.899233,0.434281,0.113249,-2.04143,-0.705094
449,-0.046632,0.926014,0.374591,-0.009734,-1.827595,-0.7323029999999999
450,-0.055774,0.948343,0.312298,-0.155239,-1.440439,-0.73019
451,-0.074882,0.961268,0.265239,0.051658,-0.679941,-0.224345
452,-0.093628,0.961135,0.259707,0.064895,-0.073562,0.1764349999999999
453,-0.1111289999999999,0.951,0.288519,0.072127,0.207523,0.579645
454,-0.138053,0.947066,0.289831,0.1041319999999999,-0.081557,0.293207
455,-0.136996,0.958599,0.249629,0.985782,0.355412,-0.96342
456,-0.098005,0.961624,0.256259,1.038389,3.489212,-0.592807
457,-0.103019,0.972192,0.2102949999999999,-0.072061,-0.25425,-0.911193
458,-0.110193,0.982184,0.152203,-0.037558,-1.13819,-1.033383
459,-0.088248,0.992473,0.084874,0.333792,-1.204189,-1.630864
460,0.006059,0.999361,0.035125,0.4802079999999999,1.529173,-1.742248
461,0.088219,0.993391,-0.073391,0.418251,3.943575,-0.925815
462,0.0730649999999999,0.98301,-0.168365,-1.254507,1.13697,2.421753
463,0.079549,0.97074,-0.226563,0.5880989999999999,0.976526,1.500184
464,0.094956,0.959352,-0.2657489999999999,0.672301,0.326995,1.211885
465,0.12614,0.953955,-0.272129,-0.199703,-0.117987,0.377338
466,0.155057,0.94818,-0.277323,-0.755033,-0.6877270000000001,0.081934
467,0.172642,0.941259,-0.290211,-0.908665,-1.381139,0.6340520000000001
468,0.182525,0.939435,-0.290073,-1.134475,-0.42291,0.902836
469,0.172265,0.943401,-0.2833989999999999,-0.8448260000000001,-0.68304,0.444226
470,0.133384,0.957039,-0.257448,-0.5317149999999999,-0.7689600000000001,0.457414
471,0.087536,0.971391,-0.220751,-0.087872,-0.7939930000000001,0.635424
472,0.061609,0.983259,-0.171468,0.382254,-0.78964,0.534155
473,0.051528,0.99331,-0.103321,0.192598,-0.303658,-0.022671
474,0.048414,0.998614,-0.020521,-0.267546,0.400678,0.007963
475,0.050133,0.996508,0.066722,-0.389367,2.316037,0.007573
476,0.045259,0.98777,0.149181,0.1072829999999999,2.864418,1.176732
477,0.014376,0.975853,0.217938,0.742475,1.846245,0.4296609999999999
478,-0.033385,0.962231,0.2701659999999999,0.355437,1.557285,-0.586206
479,-0.060341,0.939907,0.336044,-0.1059799999999999,1.978687,-0.855468
480,-0.095876,0.914281,0.393559,-0.131693,1.29391,-0.629704
481,-0.107899,0.887391,0.448202,0.210255,0.149566,-0.768179
482,-0.088027,0.864482,0.494886,0.767653,-0.4174449999999999,-0.794248
483,-0.062559,0.8536889999999999,0.517003,0.901656,-0.877416,-0.719685
484,-0.03657,0.856849,0.514259,0.6533909999999999,-2.125312,-0.331306
485,-0.017444,0.873166,0.487101,0.440646,-2.226193,-0.28654
486,-0.012721,0.901072,0.4334729999999999,0.206416,-2.236597,-0.332536
487,-0.014593,0.932666,0.360433,0.1185809999999999,-1.323352,-0.907399
488,-0.027241,0.956646,0.289961,0.1312299999999999,-1.347332,-0.8369280000000001
489,-0.043918,0.967803,0.247833,0.058719,-0.347976,-0.076614
490,-0.061741,0.960577,0.271055,-0.140697,0.811747,1.374803
491,-0.083406,0.943325,0.321204,-0.096114,1.121097,2.205316
492,-0.111552,0.943078,0.313293,-0.005101,2.2529060000000003,2.44513
493,-0.124344,0.950257,0.285557,0.858109,-0.962967,-1.028248
494,-0.1469349999999999,0.955737,0.254893,0.816872,-1.625643,0.121832
495,-0.157957,0.9713,0.17782,0.713773,-1.753755,0.1391359999999999
496,-0.132872,0.987072,0.089594,0.934538,-0.5358390000000001,-1.570139
497,-0.023953,0.999458,0.022435,1.064175,0.910316,-1.441639
498,0.105779,0.993674,-0.037651,1.056071,4.933846,-1.914482
499,0.109124,0.980611,-0.1627549999999999,-1.269631,1.808497,1.837162
500,0.109003,0.969018,-0.221626,-1.358027,1.646552,1.898078
501,0.116502,0.954761,-0.273596,-0.092027,0.968182,1.283788
502,0.136131,0.948089,-0.287386,0.331078,0.093415,1.091967
503,0.157493,0.945368,-0.285432,-0.354805,-0.217157,0.360826
504,0.176365,0.93982,-0.2926269999999999,-0.7472260000000001,-0.973359,0.6883640000000001
505,0.191477,0.93619,-0.294755,-0.92547,-0.915805,0.654618
506,0.192445,0.93699,-0.291566,-1.119111,-0.606073,0.540208
507,0.165519,0.948603,-0.269726,-0.815513,-0.717249,0.8465229999999999
508,0.116888,0.965162,-0.234084,-0.373221,-0.75569,0.610884
509,0.0781289999999999,0.978164,-0.192579,0.00436,-0.750458,0.54608
510,0.060144,0.989551,-0.13103,0.340476,-0.39339,0.194995
511,0.057189,0.997171,-0.04874,0.034974,0.446921,0.250507
512,0.063801,0.997079,0.041947,-0.279972,1.919212,-0.133652
513,0.066076,0.988544,0.135684,0.1889279999999999,3.470212,1.113721
514,0.0308629999999999,0.977708,0.2076739999999999,0.433127,2.048186,0.276594
515,-0.021956,0.964294,0.263912,-0.053224,1.546067,-0.615963
516,-0.0578659999999999,0.939557,0.337459,-0.005367,1.466113,-0.498714
517,-0.082708,0.911752,0.402321,0.002355,1.156379,-1.068459
518,-0.08043,0.881805,0.4646979999999999,0.261567,0.366654,-0.745567
519,-0.065691,0.8576799999999999,0.509965,0.8611620000000001,-0.6196729999999999,-0.734879
520,-0.046826,0.8487459999999999,0.526717,1.127514,-1.465095,-0.647475
521,-0.023968,0.854778,0.518433,0.721859,-2.097607,-0.43251
522,-0.008482,0.872445,0.488633,0.259214,-2.292244,-0.337509
523,-0.006536,0.902049,0.431577,-0.065623,-2.12118,-0.912976
524,-0.017318,0.934753,0.3548659999999999,0.146148,-1.476745,-0.998878
525,-0.035521,0.95721,0.287196,0.171523,-0.627131,-0.438197
526,-0.054262,0.963624,0.261683,-0.061354,0.035644,0.398946
527,-0.07035,0.952543,0.296153,-0.014107,0.730105,1.057943
528,-0.101289,0.942156,0.3194929999999999,0.292802,0.8432440000000001,0.905376
529,-0.1033589999999999,0.951707,0.289074,1.321315,2.585784,-1.433636
530,-0.106769,0.957209,0.268969,1.152179,2.427389,-0.7555569999999999
531,-0.110167,0.969107,0.220657,0.19702,-1.372976,-0.396133
532,-0.10111,0.984772,0.141403,0.113988,-1.248566,-1.754257
533,-0.049336,0.997882,0.042335,0.615987,-0.381716,-1.808967
534,0.062683,0.997918,-0.014995,0.63475,3.0094220000000003,-1.934986
535,0.117897,0.984484,-0.129951,-1.588325,1.7375470000000002,3.2382880000000003
536,0.104156,0.971436,-0.213213,-1.603195,1.361191,3.068849
537,0.102938,0.95707,-0.270953,-0.83388,1.5443790000000002,1.31
538,0.119675,0.946767,-0.2988409999999999,0.648406,-0.014348,1.105757
539,0.148939,0.941887,-0.301102,0.212695,-0.289909,0.591355
540,0.176942,0.936273,-0.3034469999999999,-0.236695,-0.482919,0.281398
541,0.193552,0.930531,-0.310879,-0.991785,-1.25861,0.575879
542,0.198453,0.928715,-0.313209,-1.312192,-0.419606,0.940284
543,0.178481,0.937334,-0.299242,-1.36827,-0.296617,0.982989
544,0.137366,0.950509,-0.278674,-0.433142,-0.826882,0.365146
545,0.089457,0.965214,-0.2456739999999999,-0.274256,-0.689625,0.601219
546,0.061087,0.980516,-0.186686,0.1041359999999999,-0.6507890000000001,0.779673
547,0.049878,0.992925,-0.1077359999999999,-0.026761,0.244182,0.047022
548,0.046532,0.998717,-0.019802,-0.222038,0.608201,-0.089252
549,0.045973,0.996196,0.073982,0.064455,3.250539,0.65345
550,0.032556,0.98769,0.152974,0.722846,2.451458,0.791774
551,-0.018931,0.978715,0.2043309999999999,0.747736,1.6515490000000002,-0.648591
552,-0.073409,0.962165,0.262378,0.205398,1.636056,-0.977115
553,-0.104543,0.934002,0.341617,0.0137069999999999,1.442448,-0.57555
554,-0.125048,0.903105,0.4107979999999999,-0.002363,1.0589,-0.856476
555,-0.117057,0.873916,0.471761,0.310768,-0.543502,-0.557454
556,-0.097979,0.8567309999999999,0.50636,0.96239,-1.120113,-0.514279
557,-0.0715529999999999,0.855798,0.512328,0.856816,-1.859612,-0.488081
558,-0.048293,0.869899,0.490849,0.434874,-2.2888900000000003,-0.40038
559,-0.0357269999999999,0.895983,0.442638,0.141699,-2.231646,-0.726985
560,-0.032125,0.92446,0.379911,0.083639,-1.611853,-0.7961560000000001
561,-0.049866,0.943925,0.326359,0.136627,-0.6978770000000001,-0.476018
562,-0.073729,0.950345,0.302325,0.209502,-0.273542,0.035093
563,-0.0855,0.946294,0.311784,0.174764,0.157191,0.4258409999999999
564,-0.100309,0.930075,0.353398,0.100949,0.768091,2.120677
565,-0.122345,0.926626,0.355509,0.388245,3.778605,-2.406168
566,-0.135702,0.934384,0.329399,0.451635,-0.100476,-1.837745
567,-0.1549569999999999,0.942621,0.295713,0.8359110000000001,-1.674722,0.381823
568,-0.162327,0.966098,0.20074,0.291706,-1.664157,-2.132625
569,-0.135291,0.988187,0.071938,0.707435,-1.02522,-1.729134
570,-0.017454,0.999518,-0.025537,1.144911,1.5464870000000002,-1.835989
571,0.1138869999999999,0.99132,-0.065639,0.465764,5.996519,-2.074085
572,0.115367,0.978597,-0.1703869999999999,-1.921871,1.636088,4.052467
573,0.107899,0.967154,-0.230143,-0.5820810000000001,1.503839,1.364008
574,0.1129329999999999,0.952563,-0.282605,0.441388,0.370695,1.475644
575,0.136973,0.942761,-0.304032,0.821355,-0.092877,1.65854
576,0.1706369999999999,0.937996,-0.301732,-0.348905,-0.474068,0.383824
577,0.199514,0.929765,-0.309396,-0.771688,-1.142839,0.041192
578,0.21531,0.923766,-0.31669,-0.959085,-1.459991,0.1421599999999999
579,0.215106,0.924939,-0.31339,-1.3434469999999998,-0.216046,1.003529
580,0.188412,0.938939,-0.287904,-0.878216,-0.662389,0.6542979999999999
581,0.142619,0.954706,-0.261133,-0.478724,-0.7589819999999999,0.315652
582,0.103779,0.970263,-0.218663,0.141292,-0.799365,0.5662729999999999
583,0.088972,0.984434,-0.151549,0.4337789999999999,-0.6274850000000001,0.4213399999999999
584,0.091033,0.993411,-0.06957,0.163133,0.30293,0.2372639999999999
585,0.095316,0.995295,0.01722,-0.217112,1.31745,0.04615
586,0.09487,0.989217,0.111543,-0.0245729999999999,3.075404,0.57048
587,0.063658,0.981061,0.182917,0.620271,2.705173,0.70165
588,0.0063409999999999,0.972646,0.232188,0.50643,1.6499580000000005,-0.595332
589,-0.0350899999999999,0.952508,0.3024699999999999,-0.014974,1.541404,-0.7480720000000001
590,-0.063731,0.92624,0.371494,-0.002828,1.382399,-0.744587
591,-0.077855,0.8984030000000001,0.432206,-0.02891,1.102437,-0.921418
592,-0.066311,0.873966,0.481431,0.590069,-0.642216,-0.690904
593,-0.044293,0.861447,0.505901,0.866833,-1.076825,-0.521816
594,-0.01683,0.861719,0.507096,0.626205,-2.194742,-0.5630350000000001
595,0.004721,0.8738290000000001,0.486199,0.307261,-2.482396,-0.4596949999999999
596,0.011344,0.8993129999999999,0.437147,0.002694,-2.0815330000000003,-0.8466469999999999
597,0.001791,0.92851,0.371289,0.122141,-1.105588,-0.76283
598,-0.025375,0.947637,0.318324,0.200989,-0.467458,-0.158778
599,-0.0532429999999999,0.950877,0.30494,0.207037,0.073384,0.381965
600,-0.072179,0.939223,0.33562,0.267415,0.734193,1.609967
601,-0.100199,0.914516,0.391932,0.104609,3.980931,0.915762
602,-0.1207859999999999,0.920801,0.370845,0.4340029999999999,0.186147,-2.825527
603,-0.143506,0.929149,0.340703,1.157743,-1.578639,0.0581309999999999
604,-0.157541,0.953503,0.256912,0.399713,-1.7990080000000002,-1.86821
605,-0.145792,0.980023,0.135241,0.514307,-1.144498,-2.014025
606,-0.064657,0.997903,-0.0010119999999999,0.983313,0.7089449999999999,-1.490931
607,0.0728299999999999,0.996429,-0.042643,0.8705299999999999,5.117784,-2.450323
608,0.122392,0.985231,-0.119722,-1.3641219999999998,2.684493,2.065859
609,0.11573,0.975071,-0.189306,-1.113762,1.63818,1.746435
610,0.110544,0.962133,-0.249146,-0.069437,0.731485,1.223435
611,0.126239,0.950217,-0.284863,0.77905,-0.222479,1.419247
612,0.1527339999999999,0.94404,-0.292326,0.105628,-0.445322,0.582594
613,0.185797,0.936327,-0.297935,-0.622641,-0.8951899999999999,0.05326
614,0.206666,0.927745,-0.310762,-1.0145879999999998,-1.202754,0.378465
615,0.216,0.922542,-0.319774,-1.409146,-0.273845,1.050243
616,0.202981,0.928785,-0.310083,-0.784219,-0.7264079999999999,0.576929
617,0.165163,0.944028,-0.285529,-0.5397350000000001,-0.8070039999999999,0.366126
618,0.118202,0.959727,-0.254846,-0.389473,-0.827448,0.43876
619,0.09302,0.974767,-0.202904,0.43936,-0.570455,0.671578
620,0.085325,0.988256,-0.126742,0.264788,-0.2131699999999999,0.288225
621,0.085874,0.995686,-0.035049,-0.270124,0.819896,-0.007126
622,0.085395,0.994438,0.061586,-0.573523,2.941734,-0.074938
623,0.067131,0.987248,0.144317,0.28492,3.176204,0.937806
624,0.016209,0.978896,0.203693,0.972316,1.775941,0.078915
625,-0.037818,0.964252,0.262259,0.587379,1.442868,-0.768393
626,-0.066742,0.939135,0.336987,0.1465,1.692334,-0.7610439999999999
627,-0.093501,0.910931,0.40181,0.049678,1.163761,-0.892228
628,-0.096256,0.882452,0.460438,0.141453,0.029475,-0.608372
629,-0.080153,0.863108,0.4986069999999999,0.741896,-0.6587770000000001,-0.766505
630,-0.056835,0.8558819999999999,0.5140279999999999,0.993084,-1.668794,-0.668813
631,-0.031648,0.8616159999999999,0.506563,0.606812,-2.299055,-0.491929
632,-0.012586,0.883793,0.467697,0.587751,-2.321232,-0.453064
633,0.000864,0.918604,0.3951659999999999,0.0151729999999999,-2.255869,-0.856668
634,-0.006925,0.946649,0.322178,0.127256,-1.219674,-0.772496
635,-0.029379,0.959692,0.2795,0.219198,-0.7407739999999999,-0.54482
636,-0.0551539999999999,0.956053,0.287943,0.1625,0.4678819999999999,0.4503689999999999
637,-0.075291,0.943117,0.323809,0.197301,0.510466,0.739591
638,-0.101771,0.93889,0.328815,0.333079,-0.160494,-0.321277
639,-0.1031609999999999,0.952012,0.288136,1.700955,2.852035,-0.128788
640,-0.093967,0.957226,0.273644,-0.06683,0.548908,-1.590631
641,-0.097606,0.9672,0.234501,-0.090443,-1.25852,-0.3634679999999999
642,-0.093267,0.982679,0.160111,0.145559,-1.192228,-1.402619
643,-0.068025,0.995113,0.071534,0.555085,-0.312328,-1.799378
644,0.03183,0.99923,0.022799,0.548141,3.333884,-2.118029
645,0.106302,0.990683,-0.085094,-0.4552239999999999,2.878869,0.6841079999999999
646,0.088998,0.981837,-0.167539,-1.258905,1.25092,2.5089240000000004
647,0.097603,0.969061,-0.2266929999999999,-0.415307,1.341715,1.711648
648,0.113277,0.958021,-0.263363,0.864079,0.123492,1.315243
649,0.147035,0.953211,-0.264129,-0.088091,-0.360163,0.152373
650,0.180703,0.946478,-0.267433,-0.49862,-0.65203,0.05001
651,0.207179,0.938711,-0.275487,-0.909892,-1.256415,0.779378
652,0.224046,0.934362,-0.277067,-1.1797959999999998,-0.5815939999999999,0.78784
653,0.217977,0.937066,-0.272741,-1.18363,-0.483804,0.540381
654,0.188122,0.946472,-0.262293,-0.57571,-0.861923,0.365931
655,0.144834,0.959044,-0.243419,-0.25163,-0.709029,0.516063
656,0.115159,0.971569,-0.206853,0.346313,-0.7396050000000001,0.675222
657,0.1037609999999999,0.983129,-0.150622,0.297851,-0.617406,0.597858
658,0.095258,0.992992,-0.069923,-0.183561,0.09731,-0.152382
659,0.08503,0.996169,0.020299,-0.6274489999999999,1.875306,-0.355458
660,0.0719559999999999,0.992492,0.098872,-0.46516,3.3262940000000003,0.8181970000000001
661,0.0349649999999999,0.984579,0.171393,0.455818,2.0053650000000003,0.4047179999999999
662,-0.01403,0.973011,0.230314,0.790565,1.615123,0.056459
663,-0.051334,0.95607,0.288594,0.299793,1.5316459999999998,-0.8900950000000001
664,-0.085499,0.933637,0.347858,-0.243313,1.87363,-0.500659
665,-0.118978,0.906798,0.404417,-0.2513829999999999,1.428865,-0.74066
666,-0.123038,0.8792209999999999,0.460242,0.1211309999999999,-0.213053,-0.747534
667,-0.096348,0.859477,0.502004,1.021275,-0.949305,-0.879476
668,-0.062026,0.856664,0.512124,1.29315,-1.344594,-0.611657
669,-0.033711,0.8700180000000001,0.491857,0.6685369999999999,-2.364815,-0.436696
670,-0.020675,0.8950299999999999,0.4455159999999999,0.118438,-2.0383560000000003,-0.659841
671,-0.029581,0.923752,0.381835,0.07345,-1.66008,-0.7561180000000001
672,-0.0569039999999999,0.947179,0.315603,0.271321,-1.043996,-0.696417
673,-0.079382,0.959623,0.269842,0.328329,-0.6227239999999999,-0.297568
674,-0.09169,0.957735,0.272632,0.2808219999999999,-0.260592,-0.021274
675,-0.10642,0.948189,0.29934,0.028524,0.422691,0.777533
676,-0.126854,0.953078,0.2748489999999999,0.2722699999999999,0.034959,-0.255852
677,-0.108722,0.961217,0.253445,1.084582,2.992229,0.348224
678,-0.114936,0.965951,0.231775,0.302253,0.522284,-1.753336
679,-0.11679,0.977597,0.175093,0.1666099999999999,-1.157956,-1.089002
680,-0.1091869999999999,0.989323,0.096498,0.392879,-1.205891,-1.232118
681,-0.05093,0.998545,0.0175199999999999,0.570751,-1.01443,-1.33028
682,0.060328,0.997466,-0.037627,0.3904019999999999,4.150498000000001,-1.621629
683,0.084894,0.982032,-0.168523,-0.387812,2.783104,-0.242625
684,0.081704,0.969326,-0.231791,-1.61094,1.283894,4.232966
685,0.09675,0.955242,-0.279549,0.658636,0.558079,1.1102379999999998
686,0.128365,0.948134,-0.2907909999999999,0.673072,0.114946,1.018254
687,0.16236,0.943874,-0.28764,0.3169949999999999,-0.1220509999999999,0.7479210000000001
688,0.198515,0.938587,-0.282208,-0.757918,-0.910434,0.265332
689,0.221338,0.933423,-0.282359,-0.875818,-1.201718,0.461741
690,0.23123,0.931207,-0.281746,-1.061628,-1.255289,0.605797
691,0.2114849999999999,0.937508,-0.276309,-1.106901,-0.722039,0.6383850000000001
692,0.171618,0.94961,-0.262266,-0.5074029999999999,-0.834558,0.429563
693,0.130097,0.962877,-0.236512,-0.09079,-0.5655680000000001,0.5423439999999999
694,0.103023,0.976565,-0.18895,0.158558,-0.50693,0.170945
695,0.086604,0.989118,-0.118904,-0.188502,0.273409,0.174904
696,0.0742039999999999,0.996161,-0.046372,-0.4143529999999999,1.288934,0.152161
697,0.065352,0.997066,0.039771,-0.084136,2.829488,0.6932
698,0.052946,0.991825,0.116074,0.339113,3.311551,0.8351290000000001
699,0.005893,0.985782,0.167902,0.665235,1.485699,-0.188395
700,-0.03643,0.973568,0.225453,0.1106029999999999,1.7505990000000002,-1.441105
701,-0.068149,0.949174,0.30727,-0.048916,1.735122,-1.022083
702,-0.096402,0.921881,0.375274,-0.104526,0.70318,-0.566467
703,-0.098148,0.8943180000000001,0.4365229999999999,0.3677559999999999,-0.072083,-0.733016
704,-0.075661,0.874195,0.4796319999999999,1.042961,-0.862477,-0.709719
705,-0.04962,0.868087,0.493914,1.11798,-2.070709,-0.4741689999999999
706,-0.032583,0.8775790000000001,0.478312,0.610083,-2.607422,-0.4152479999999999
707,-0.024967,0.9005280000000001,0.434069,0.076069,-2.220382,-0.743959
708,-0.026394,0.926973,0.374184,0.01817,-1.695391,-0.8993760000000001
709,-0.042554,0.947904,0.315687,0.240278,-0.974469,-0.523329
710,-0.057858,0.95582,0.288186,0.1577579999999999,-0.309,0.214103
711,-0.065773,0.954864,0.289653,0.1549299999999999,0.076294,0.465535
712,-0.077606,0.949319,0.304566,0.040679,0.133643,0.707733
713,-0.101811,0.949065,0.298163,0.201344,-0.014952,0.268839
714,-0.098322,0.954918,0.280097,1.650995,2.826286,-0.7297739999999999
715,-0.1069809999999999,0.959625,0.260128,0.138734,1.053849,-1.492931
716,-0.120077,0.97215,0.201237,0.0902309999999999,-0.402616,-0.223775
717,-0.12691,0.986051,0.107652,0.265506,-1.514204,-1.712129
718,-0.081579,0.996604,0.010869,0.95397,1.088403,-1.815694
719,0.039958,0.998779,-0.028923,0.71021,3.1018830000000004,-2.19767
720,0.089569,0.983212,-0.1589549999999999,0.6526489999999999,4.842167,-1.798641
721,0.072022,0.968521,-0.238275,-0.756653,1.430588,1.987802
722,0.085088,0.952159,-0.293512,0.198801,1.263479,1.54815
723,0.117663,0.940722,-0.318108,0.532179,0.684552,1.469002
724,0.150414,0.936621,-0.316404,-0.362099,-0.531424,0.10658
725,0.176978,0.930238,-0.321453,-0.600699,-0.837464,0.2468989999999999
726,0.198814,0.924687,-0.324686,-0.745689,-1.113149,0.540125
727,0.204459,0.924905,-0.320535,-1.317191,-0.621514,0.765741
728,0.18172,0.934721,-0.305402,-1.037891,-0.783384,0.651303
729,0.137513,0.948185,-0.286411,-0.672226,-0.922641,0.402881
730,0.092864,0.964659,-0.246586,0.251969,-0.811461,0.700855
731,0.071253,0.980457,-0.183366,0.350592,-0.6977869999999999,0.635026
732,0.06227,0.992911,-0.101215,0.217225,-0.399756,0.208653
733,0.0579379999999999,0.998249,-0.011679,-0.550812,2.226834,-0.039896
734,0.050137,0.99501,0.0862179999999999,-0.336759,3.110596,0.549326
735,0.02611,0.987325,0.156523,0.70085,3.040492,1.128694
736,-0.042262,0.978497,0.201863,1.2494,1.884052,-0.193425
737,-0.097734,0.957181,0.272478,0.331301,1.827381,-1.502337
738,-0.134851,0.923373,0.359427,-0.153601,0.95799,-0.8797209999999999
739,-0.140492,0.8853409999999999,0.443195,-0.175975,-0.017437,-0.614475
740,-0.1116019999999999,0.855932,0.504891,0.16632,-0.38677,-0.657403
741,-0.073643,0.8425159999999999,0.533604,1.156758,-1.333315,-0.6414529999999999
742,-0.042519,0.8476100000000001,0.528904,0.95678,-2.384261,-0.368381
743,-0.030982,0.8698629999999999,0.4923079999999999,0.63256,-2.598989,-0.396681
744,-0.033289,0.903872,0.426493,-0.007818,-2.070529,-1.069209
745,-0.04597,0.932663,0.357796,0.044505,-1.219055,-0.893013
746,-0.069695,0.947821,0.311076,0.112374,-0.802512,-0.564738
747,-0.088973,0.949132,0.30203,0.006667,0.031764,0.315264
748,-0.095062,0.944599,0.314142,0.099747,0.253307,0.5015930000000001
749,-0.102551,0.934385,0.341171,0.077588,0.371737,0.8969729999999999
750,-0.120554,0.927544,0.35372,0.374644,3.990897,-2.499975
751,-0.1315059999999999,0.930329,0.342323,0.92069,0.2066489999999999,-1.772529
752,-0.16007,0.937236,0.309767,1.03304,-1.990871,0.6460739999999999
753,-0.176914,0.965941,0.1888119999999999,0.535786,-2.069823,-2.493286
754,-0.127572,0.990785,0.045422,0.65838,-1.748384,-2.326291
755,0.018765,0.999472,-0.026376,1.172336,2.234567,-2.473502
756,0.13949,0.988985,-0.049429,0.242666,5.239286,-1.984567
757,0.142683,0.974687,-0.172104,-1.98979,1.597975,5.093704
758,0.139945,0.962594,-0.231994,-0.721594,1.748114,1.712234
759,0.156001,0.948013,-0.27736,0.438802,0.38945,1.669648
760,0.184199,0.94127,-0.282976,0.306462,-0.183015,0.8553940000000001
761,0.211138,0.935049,-0.284776,-0.283236,-0.3013369999999999,0.394975
762,0.227985,0.927268,-0.296969,-0.89333,-1.02851,0.062228
763,0.237215,0.922625,-0.304117,-1.033174,-0.99721,0.962626
764,0.2277719999999999,0.927963,-0.294957,-1.411152,-0.4106899999999999,1.05637
765,0.196294,0.941297,-0.274632,-0.796651,-0.8057989999999999,0.496953
766,0.149723,0.956366,-0.250882,-0.4583319999999999,-0.69953,0.379575
767,0.115282,0.973005,-0.19991,0.2375929999999999,-0.8090649999999999,0.364659
768,0.098099,0.987308,-0.12487,0.134582,-0.03284,-0.007958
769,0.084544,0.99529,-0.047367,-0.344508,1.036586,0.153522
770,0.073761,0.996343,0.0430339999999999,-0.274811,1.6831459999999998,0.338237
771,0.066985,0.98954,0.127724,0.008637,2.616646,0.665535
772,0.013046,0.984211,0.176488,0.602585,1.503155,-0.4209489999999999
773,-0.0451279999999999,0.973941,0.222242,0.370704,1.5308959999999998,-1.248243
774,-0.08637,0.949474,0.301707,0.0580039999999999,1.74564,-1.944666
775,-0.1202029999999999,0.920961,0.370634,-0.237249,0.389036,-0.97711
776,-0.109481,0.8915649999999999,0.4394479999999999,-0.051087,-0.040964,-1.015009
777,-0.075986,0.8699120000000001,0.487305,0.2962619999999999,-0.335702,-0.929765
778,-0.042272,0.8633270000000001,0.502858,1.013142,-2.069977,-0.439733
779,-0.020266,0.872444,0.48828,0.8697379999999999,-2.565864,-0.3170159999999999
780,-0.015262,0.8988790000000001,0.4379149999999999,0.094562,-2.390746,-0.905826
781,-0.026465,0.931564,0.362596,-0.036081,-1.409332,-0.98784
782,-0.060307,0.954684,0.291427,0.173817,-0.668017,-0.429031
783,-0.092436,0.960786,0.261407,0.09799,0.011962,0.343406
784,-0.107875,0.954991,0.276303,0.218257,0.4643199999999999,0.547473
785,-0.117939,0.944835,0.305558,0.121616,0.360127,1.06514
786,-0.139828,0.936952,0.320247,0.558408,1.0546870000000002,-0.309397
787,-0.1295079999999999,0.944398,0.302207,1.553885,2.955306,-0.795417
788,-0.145925,0.951797,0.2697719999999999,0.379888,0.47638,-1.6746029999999998
789,-0.1542859999999999,0.969159,0.192137,0.175923,-1.278348,-1.173277
790,-0.136712,0.987042,0.083958,0.579965,-1.17651,-1.935749
791,-0.056147,0.998377,-0.009078,0.632319,-0.667383,-1.776841
792,0.06309,0.997406,-0.034526,0.677602,4.000808,-2.289753
793,0.090352,0.982797,-0.161057,-0.919225,2.248511,2.943726
794,0.086569,0.970747,-0.223942,-0.620077,1.718233,1.93401
795,0.098715,0.955068,-0.279453,0.307825,0.706568,1.693332
796,0.128876,0.946005,-0.297421,0.351425,0.041391,0.60954
797,0.155661,0.940185,-0.303012,-0.493292,-0.5274340000000001,0.0478699999999999
798,0.181171,0.931543,-0.315275,-0.775135,-1.148126,0.500624
799,0.203477,0.925002,-0.3208789999999999,-1.196763,-0.671797,1.107668
800,0.2087,0.925093,-0.317241,-1.454168,-0.4106579999999999,0.814509
801,0.188505,0.934335,-0.302452,-1.013578,-0.768777,0.406456
802,0.144796,0.948716,-0.281008,-0.549475,-0.7376560000000001,0.548876
803,0.1017899999999999,0.964406,-0.244035,-0.0183389999999999,-0.749028,0.539979
804,0.076576,0.978989,-0.188971,0.284035,-0.7505189999999999,0.371405
805,0.059785,0.992042,-0.110769,-0.004807,0.063485,-0.014231
806,0.048818,0.9985,-0.0246289999999999,-0.2212579999999999,0.502996,0.167223
807,0.037965,0.996834,0.069788,-0.171373,3.201881,0.756308
808,0.0047009999999999,0.989661,0.143314,0.742583,2.922662,1.173886
809,-0.060105,0.979115,0.194192,1.096543,2.104518,0.559638
810,-0.106852,0.958559,0.264074,0.530848,1.7534919999999998,-1.940893
811,-0.139706,0.926407,0.349628,0.046245,1.592376,-0.661243
812,-0.158197,0.889099,0.429493,0.036218,0.776856,-0.967823
813,-0.142407,0.8559629999999999,0.497025,0.4711579999999999,-0.26618,-0.737275
814,-0.114674,0.8413930000000001,0.528104,1.374333,-1.400964,-0.598554
815,-0.087008,0.845347,0.5270729999999999,1.123964,-2.317988,-0.492787
816,-0.0666809999999999,0.866975,0.493858,0.421189,-2.645723,-0.454918
817,-0.051907,0.904185,0.423962,-0.154636,-2.58137,-1.023571
818,-0.055963,0.936658,0.345729,-0.15058,-2.613843,-0.945338
819,-0.072432,0.957817,0.278084,0.268583,-0.730445,-0.5398029999999999
820,-0.090135,0.961952,0.257901,0.1981369999999999,0.091652,0.259738
821,-0.098355,0.951279,0.292203,0.302869,1.023727,0.605593
822,-0.1221869999999999,0.92826,0.351273,0.5099739999999999,3.508889,3.201843
823,-0.155757,0.924633,0.347536,0.307109,0.087909,-3.077562
824,-0.201205,0.921627,0.331827,0.801806,-1.535228,-1.919947
825,-0.256314,0.940606,0.222606,1.042752,-2.599068,-0.997722
826,-0.262957,0.962823,0.061776,1.213885,-1.78695,-1.682625
827,-0.150415,0.985969,-0.07234,1.551996,0.657983,-1.133974
828,0.019688,0.997643,-0.065669,1.620922,5.866325,-2.903905
829,0.06562,0.989929,-0.125405,-0.811821,2.886993,-0.296012
830,0.054573,0.97134,-0.231332,-2.180962,1.616963,5.4333730000000005
831,0.065967,0.955853,-0.286335,-0.363849,0.946003,1.009922
832,0.087557,0.944654,-0.31616,0.347365,-0.106458,1.30377
833,0.125218,0.94053,-0.315781,0.092693,-0.274103,0.778671
834,0.150642,0.934391,-0.322823,-0.496009,-1.078099,0.042336
835,0.172235,0.927259,-0.332445,-0.8995299999999999,-0.916899,0.887483
836,0.181609,0.926147,-0.33055,-1.250945,-0.218994,0.981032
837,0.168796,0.935844,-0.309352,-0.927081,-0.807059,0.660579
838,0.138429,0.948418,-0.285192,-0.430085,-0.929757,0.36144
839,0.102844,0.962846,-0.249687,-0.265366,-0.8218549999999999,0.455375
840,0.081443,0.976585,-0.199102,0.032266,-0.776313,0.545721
841,0.065381,0.989901,-0.125749,-0.155987,-0.086596,-0.118239
842,0.051312,0.997791,-0.042099,-0.562771,0.8749809999999999,0.020493
843,0.035642,0.998433,0.0430399999999999,-0.453855,2.514186,0.581395
844,0.01558,0.99259,0.120471,0.4635149999999999,3.028101,0.7758
845,-0.0243199999999999,0.984037,0.176265,1.058683,1.606905,0.218022
846,-0.0714809999999999,0.971464,0.2261369999999999,0.5827720000000001,1.3932209999999998,-1.102205
847,-0.101648,0.94929,0.2975,-0.214468,1.361181,-0.476181
848,-0.133797,0.920059,0.368209,-0.251747,0.995849,-0.750488
849,-0.134699,0.8917379999999999,0.432029,-0.230734,0.45363,-0.683387
850,-0.109521,0.870527,0.479768,1.257897,-1.002744,-0.661027
851,-0.082427,0.864452,0.4959,1.230804,-0.996669,-0.6771590000000001
852,-0.0600259999999999,0.875085,0.48022,0.85887,-2.464577,-0.270793
853,-0.042707,0.899681,0.4344399999999999,0.031843,-2.1996990000000003,-0.687293
854,-0.032628,0.928503,0.369874,-0.083873,-1.920995,-0.756394
855,-0.0478209999999999,0.950471,0.307093,0.048798,-1.047884,-0.67132
856,-0.071677,0.96036,0.269369,0.293631,-0.487368,-0.283132
857,-0.0868159999999999,0.957714,0.274292,0.340463,0.175114,0.1036069999999999
858,-0.095929,0.948069,0.303233,0.20326,0.478627,0.770559
859,-0.115667,0.941244,0.317286,0.489309,1.7885380000000002,-0.407572
860,-0.1098809999999999,0.946751,0.302617,0.991472,3.127361,-1.355031
861,-0.125976,0.946387,0.297438,0.869231,2.81463,-1.650481
862,-0.150637,0.960078,0.2356849999999999,0.299151,-1.7756610000000002,-1.171674
863,-0.156918,0.979807,0.123873,0.348461,-1.769404,-1.80086
864,-0.087713,0.996039,0.0142889999999999,0.541876,-1.479117,-1.641548
865,0.060991,0.998009,-0.015762,0.705138,4.830176,-2.449188
866,0.119195,0.986189,-0.114962,0.252891,4.051043,-0.884748
867,0.106797,0.975202,-0.193825,-1.055299,2.232897,1.91584
868,0.113355,0.960057,-0.255801,0.2530699999999999,0.930217,1.325518
869,0.133991,0.94935,-0.28421,0.565991,-0.024209,1.043167
870,0.1642549999999999,0.944106,-0.2857929999999999,-0.241968,-0.464126,0.365703
871,0.189925,0.936462,-0.2948929999999999,-0.619841,-1.118194,0.0907159999999999
872,0.211166,0.930416,-0.2995489999999999,-1.062546,-1.165355,1.12122
873,0.221102,0.930191,-0.293005,-1.473071,-0.414566,0.8271700000000001
874,0.2038589999999999,0.938656,-0.2781369999999999,-1.082155,-0.7367819999999999,0.387588
875,0.161608,0.953218,-0.255444,-0.5427569999999999,-0.7967390000000001,0.424542
876,0.1186319999999999,0.967961,-0.221297,-0.056575,-0.76041,0.419799
877,0.092773,0.98164,-0.166642,-0.048492,-0.203991,-0.510833
878,0.072909,0.99282,-0.094788,-0.302661,0.298043,-0.486037
879,0.04752,0.998699,-0.018307,-0.090169,1.270314,0.555524
880,0.037116,0.996948,0.068615,0.374902,2.553955,1.225803
881,0.016096,0.989336,0.14473,0.791018,2.47177,0.890548
882,-0.038928,0.981023,0.18992,0.72475,1.446819,-0.407984
883,-0.0919519999999999,0.968498,0.231403,0.170733,1.843453,-1.824283
884,-0.153754,0.941424,0.300116,-0.5150239999999999,1.662168,-0.170569
885,-0.192657,0.909083,0.369378,-0.253892,0.471211,-0.654122
886,-0.1829839999999999,0.8789870000000001,0.440326,0.070114,0.138255,-0.854007
887,-0.15504,0.858715,0.488427,0.967876,-0.767208,-0.940911
888,-0.122103,0.856094,0.502178,1.2271450000000002,-2.241867,-0.3446619999999999
889,-0.10249,0.872086,0.478487,0.680692,-2.564576,-0.3725449999999999
890,-0.099984,0.9003979999999999,0.42341,0.199853,-2.203957,-0.965234
891,-0.106617,0.928101,0.356725,0.049839,-1.448044,-1.166112
892,-0.128831,0.948436,0.289591,0.063523,-0.459484,-0.184442
893,-0.155763,0.954659,0.253684,-0.008727,-0.2301409999999999,0.380685
894,-0.176824,0.947922,0.264891,-0.0545289999999999,0.320312,0.758455
895,-0.211775,0.935418,0.28308,-0.220782,0.494452,1.1831969999999998
896,-0.249162,0.934002,0.256025,0.077653,0.5425449999999999,1.002917
897,-0.245834,0.931499,0.268075,1.848053,4.261966999999999,-0.609262
898,-0.260403,0.929598,0.260824,0.853115,-1.104341,0.247477
899,-0.274081,0.94588,0.173729,0.740939,-1.821246,-1.294731
900,-0.251673,0.966922,0.041401,0.8530979999999999,-1.535388,-1.964802
901,-0.12312,0.989586,-0.074531,1.246899,0.621437,-1.216485
902,0.003788,0.991291,-0.131613,1.445309,4.44125,-2.002908
903,-0.0065739999999999,0.976595,-0.2149739999999999,-1.294787,2.581953,0.299355
904,-0.00588,0.959683,-0.281014,-0.964777,1.553562,1.244713
905,0.013686,0.940256,-0.340185,-0.228728,1.316442,1.225195
906,0.041235,0.930518,-0.36391,0.184244,0.659875,1.565799
907,0.076946,0.929488,-0.36073,-0.483181,-0.302672,0.375959
908,0.103327,0.92602,-0.36305,-0.695933,-0.5836439999999999,0.327421
909,0.123819,0.921412,-0.368327,-0.776406,-0.998759,0.485835
910,0.1350039999999999,0.917495,-0.374129,-1.095988,-0.6181939999999999,0.714476
911,0.12308,0.919833,-0.3724989999999999,-1.130892,-0.574206,0.6453260000000001
912,0.0879679999999999,0.933164,-0.348516,-0.938722,-0.713102,0.718145
913,0.047796,0.947027,-0.317571,0.01449,-0.700689,0.569967
914,0.021147,0.961523,-0.2739,0.349809,-0.7619229999999999,0.475896
915,0.00465,0.978119,-0.207981,0.486652,-0.53447,0.6770970000000001
916,-0.004206,0.992912,-0.118753,0.143152,0.2310719999999999,0.337945
917,-0.007762,0.999704,-0.022932,-0.089146,0.686545,0.114881
918,-0.018412,0.997411,0.069465,-0.057638,3.592021,0.453392
919,-0.053633,0.989264,0.135914,0.522307,2.00483,0.531307
920,-0.108413,0.977023,0.18348,0.634994,1.638455,-0.198525
921,-0.160469,0.954768,0.250321,0.108269,1.827001,-0.703202
922,-0.201547,0.920299,0.33529,-0.1379,1.4121290000000002,-0.370584
923,-0.222903,0.887265,0.403813,-0.080121,0.961657,-0.523778
924,-0.213023,0.863675,0.456812,0.476786,-0.354886,-0.5748840000000001
925,-0.193719,0.8531569999999999,0.484342,0.959787,-1.085121,-0.408887
926,-0.171707,0.8594569999999999,0.481498,1.067627,-1.3635469999999998,-0.376105
927,-0.149288,0.877814,0.455133,0.616329,-2.141501,-0.2847989999999999
928,-0.127269,0.905554,0.404678,0.271389,-2.284568,-0.615402
929,-0.110314,0.936561,0.332677,0.140938,-1.733284,-0.8674360000000001
930,-0.114406,0.958164,0.262344,0.201427,-0.882175,-0.773345
931,-0.126917,0.968789,0.212909,0.294535,-0.660882,-0.581546
932,-0.142505,0.960248,0.2400159999999999,0.17403,0.065769,0.032262
933,-0.170267,0.929047,0.328436,0.243921,2.879592,3.5201510000000003
934,-0.2075159999999999,0.927664,0.310429,-0.11391,2.153314,-2.640079
935,-0.239161,0.93307,0.2686489999999999,1.16743,-1.082469,-1.357745
936,-0.262005,0.943982,0.200606,1.5707209999999998,-2.068311,0.144701
937,-0.240763,0.966618,0.087602,0.721354,-1.639562,-1.58066
938,-0.142333,0.988991,-0.040386,0.811629,-1.33358,-1.602726
939,0.022081,0.997443,-0.067914,1.034956,3.377785,-2.256427
940,0.092735,0.989052,-0.1147589999999999,-0.183647,4.096977,-0.906039
941,0.078124,0.975964,-0.20343,-1.441909,2.398089,2.143036
942,0.084196,0.960278,-0.266029,-0.790006,1.466541,1.22805
943,0.098454,0.948398,-0.301401,0.37138,0.283627,1.528559
944,0.132079,0.942928,-0.305675,0.5419930000000001,-0.046901,1.409282
945,0.169236,0.935846,-0.309106,-0.388688,-0.583612,0.159921
946,0.195622,0.928062,-0.316905,-0.642583,-1.183448,0.3065449999999999
947,0.214321,0.92162,-0.3235409999999999,-1.21986,-0.855275,0.859658
948,0.2121429999999999,0.925304,-0.3143289999999999,-1.46109,-0.347378,0.877287
949,0.1854309999999999,0.938344,-0.291757,-0.559286,-0.900883,0.3326659999999999
950,0.150127,0.952241,-0.265884,-0.4188189999999999,-0.80745,0.264877
951,0.12047,0.967402,-0.222744,-0.189958,-0.715495,0.320324
952,0.102498,0.981015,-0.164614,0.207378,-0.618344,0.5184350000000001
953,0.089754,0.992566,-0.082164,-0.010683,-0.342129,0.1146799999999999
954,0.082601,0.996518,0.011016,-0.2397969999999999,0.111301,-0.050979
955,0.078509,0.992288,0.095882,-0.6221949999999999,3.636298000000001,0.570714
956,0.056257,0.982737,0.176223,-0.166395,3.155797,0.67299
957,0.005588,0.97145,0.2371599999999999,0.655698,1.631577,-0.088646
958,-0.032992,0.954275,0.297089,-0.037778,1.66955,-0.697098
959,-0.065713,0.932818,0.354292,-0.271887,1.730954,-0.644407
960,-0.088229,0.910413,0.404171,-0.233579,0.5760069999999999,-0.739804
961,-0.083426,0.888875,0.450481,0.6158819999999999,-0.147923,-0.728542
962,-0.069604,0.8755370000000001,0.478102,1.455056,-1.252948,-0.703657
963,-0.056039,0.8767790000000001,0.4776069999999999,1.189798,-2.345132,-0.2677989999999999
964,-0.044611,0.8934219999999999,0.4469869999999999,0.470468,-2.408329,-0.429242
965,-0.0294779999999999,0.920933,0.3885929999999999,0.190977,-2.265613,-0.5569430000000001
966,-0.0224,0.946347,0.322359,0.072174,-1.421887,-0.642245
967,-0.025426,0.963596,0.266136,0.297154,-0.806995,-0.43116
968,-0.032537,0.968935,0.24515,0.2664849999999999,-0.1199359999999999,0.005598
969,-0.045748,0.964421,0.260364,0.189531,0.248912,0.269497
970,-0.063282,0.957638,0.28092,0.042241,0.152394,0.564218
971,-0.085524,0.958227,0.272904,-0.066087,-0.073309,0.810577
972,-0.072702,0.962625,0.260881,0.690591,4.2253940000000005,0.018157
973,-0.07864,0.958591,0.273696,0.476009,0.275922,-1.516708
974,-0.0836679999999999,0.970071,0.22793,0.288593,-1.465738,-0.042124
975,-0.106609,0.982545,0.152418,0.242367,-1.777681,-1.467954
976,-0.071583,0.995683,0.059013,0.93697,-0.801195,-1.609458
977,0.055866,0.99839,0.009448,0.976177,3.938195,-2.091998
978,0.110349,0.990152,-0.086112,-0.3750429999999999,2.546561,-0.540795
979,0.089573,0.980703,-0.173758,-1.987812,1.141672,3.817069
980,0.1027319999999999,0.967097,-0.232732,-1.348734,1.186315,2.085271
981,0.1170869999999999,0.956776,-0.266205,0.5319149999999999,0.33369,0.987778
982,0.14356,0.949772,-0.27806,0.037912,-0.126256,0.759612
983,0.1690809999999999,0.941556,-0.291339,-0.38423,-0.314084,0.482227
984,0.18524,0.934314,-0.30453,-0.801908,-1.152942,0.5801029999999999
985,0.191178,0.932053,-0.307772,-1.128877,-0.673141,0.954303
986,0.175801,0.937875,-0.29913,-1.076283,-0.603403,0.46275
987,0.136225,0.95208,-0.273828,-0.824365,-0.780449,0.4240819999999999
988,0.092801,0.966954,-0.2374489999999999,0.022326,-0.681401,0.639671
989,0.064108,0.979713,-0.189859,0.3085429999999999,-0.729835,0.554208
990,0.045425,0.990927,-0.12647,0.375733,-0.701284,0.481542
991,0.036023,0.998522,-0.040618,-0.257275,0.342314,0.172347
992,0.0360399999999999,0.998253,0.046745,-0.516356,1.322624,-0.133522
993,0.038162,0.99076,0.130116,-0.52742,2.70646,-0.2441449999999999
994,0.014258,0.980338,0.196791,0.581246,1.891229,0.33275
995,-0.04035,0.969169,0.243053,0.45574,1.567284,-0.287624
996,-0.076814,0.948746,0.3065469999999999,0.064729,1.498611,-0.801756
997,-0.118052,0.92665,0.3568949999999999,-0.298772,1.1750040000000002,-0.914604
998,-0.136235,0.903283,0.406828,-0.128581,0.696631,-0.942289
999,-0.135477,0.884675,0.446079,0.114603,0.202407,-0.8542209999999999
1000,-0.127254,0.877849,0.461712,1.480785,-1.617671,-0.484066
1001,-0.114988,0.88544,0.450292,1.385115,-1.803867,-0.170842
1002,-0.103371,0.905066,0.412504,0.581871,-2.266044,-0.381803
1003,-0.0836799999999999,0.932425,0.351527,0.082322,-1.904593,-0.872157
1004,-0.07226,0.956386,0.283011,-0.010351,-1.550288,-0.734763
1005,-0.072182,0.971713,0.224845,0.110954,-0.560046,-0.228934
1006,-0.079941,0.975398,0.205425,0.083328,0.065114,0.264287
1007,-0.094561,0.966509,0.238559,0.053133,0.289244,0.775174
1008,-0.124055,0.9557,0.266908,-0.052322,0.0362279999999999,0.7854140000000001
1009,-0.152785,0.96327,0.220813,0.729216,0.76703,-1.491214
1010,-0.125515,0.968439,0.215321,1.265911,2.917379,-1.16248
1011,-0.1321109999999999,0.970388,0.202203,0.0939639999999999,-0.643346,-0.034585
1012,-0.133863,0.981574,0.136326,0.040006,-1.304527,-1.483326
1013,-0.110499,0.993059,0.040212,0.146876,-1.485216,-1.651555
1014,-0.019195,0.999174,-0.035725,0.696441,1.430407,-1.7243
1015,0.085501,0.992979,-0.081703,0.297983,4.077013,-1.561669
1016,0.079344,0.974988,-0.207598,-0.406156,2.891055,0.088961
1017,0.074116,0.960942,-0.266631,-0.59116,1.431987,1.303832
1018,0.0804,0.946586,-0.312259,0.605223,0.73217,1.436267
1019,0.103689,0.939994,-0.325045,0.53396,0.086388,0.87334
1020,0.130378,0.935719,-0.32776,-0.293143,-0.630757,0.351961
1021,0.151701,0.929537,-0.336071,-0.7211890000000001,-1.008806,0.399105
1022,0.164371,0.924766,-0.343199,-1.060077,-1.038352,0.793501
1023,0.1640329999999999,0.925314,-0.341881,-1.250505,-0.443335,0.8311850000000001
1024,0.140812,0.936122,-0.322247,-0.767872,-0.790721,0.6047939999999999
1025,0.10114,0.951124,-0.291769,-0.367054,-0.810682,0.5029359999999999
1026,0.06462,0.966143,-0.2497739999999999,0.140977,-0.669558,0.637073
1027,0.042947,0.980649,-0.190992,0.410285,-0.699155,0.591657
1028,0.03669,0.993401,-0.10864,0.2396469999999999,-0.3084949999999999,0.192075
1029,0.035217,0.999128,-0.022284,-0.473495,1.715853,-0.173745
1030,0.030523,0.997395,0.065291,-0.025763,3.362331,0.690797
1031,0.005079,0.991009,0.133663,0.3921989999999999,2.970676,1.167561
1032,-0.041963,0.981712,0.185665,0.6060810000000001,1.333321,-0.3004719999999999
1033,-0.076621,0.964847,0.251377,0.118308,1.6922119999999998,-1.040592
1034,-0.114789,0.94095,0.318476,-0.1621119999999999,1.473021,-0.624765
1035,-0.139888,0.913391,0.382281,0.010433,0.612564,-0.709398
1036,-0.140941,0.8892770000000001,0.435101,0.4500689999999999,-0.396967,-0.689281
1037,-0.125828,0.8746799999999999,0.468072,1.118885,-1.04863,-0.737237
1038,-0.103702,0.875281,0.472354,0.95322,-1.85665,-0.464496
1039,-0.081558,0.889964,0.448665,0.3917239999999999,-2.476635,-0.407314
1040,-0.065395,0.916391,0.394893,0.170345,-2.407251,-0.67242
1041,-0.056311,0.945317,0.321239,-0.043924,-2.272618,-0.936595
1042,-0.062278,0.965488,0.252872,0.148948,-0.6958810000000001,-0.306735
1043,-0.075961,0.972522,0.220047,-0.004666,-0.351993,0.045196
1044,-0.087929,0.965241,0.246107,-0.036568,-0.040787,0.377917
1045,-0.1168119999999999,0.948967,0.292926,0.208029,1.232292,2.049283
1046,-0.14606,0.949285,0.278413,0.479739,3.796656,-2.279252
1047,-0.16782,0.951725,0.256994,0.760792,-0.668751,-1.137579
1048,-0.200149,0.955561,0.216411,0.771698,-1.753077,-0.029506
1049,-0.202628,0.970967,0.127106,0.513053,-1.765279,-2.052429
1050,-0.150229,0.988543,0.0143729999999999,0.787848,-0.784273,-1.216842
1051,-0.010816,0.998145,-0.0598429999999999,0.736692,2.904122,-1.378939
1052,0.088347,0.991168,-0.09886,0.8281879999999999,5.126873000000001,-2.113344
1053,0.069319,0.976969,-0.201792,-1.857786,1.218862,3.659418
1054,0.0661,0.962078,-0.264633,-0.292952,1.42815,1.123077
1055,0.070506,0.946109,-0.3160719999999999,0.176137,0.974683,1.214602
1056,0.09626,0.935903,-0.338842,0.5920489999999999,-0.15473,1.284017
1057,0.130439,0.928544,-0.347542,-0.251838,-0.546937,0.408729
1058,0.155667,0.920281,-0.3589489999999999,-0.453259,-0.765145,0.053362
1059,0.168139,0.913255,-0.371066,-0.953341,-0.997331,0.994617
1060,0.171173,0.912049,-0.372641,-1.228317,-0.3322449999999999,0.747321
1061,0.1434099999999999,0.926117,-0.348906,-1.007393,-0.520126,0.806944
1062,0.096937,0.943559,-0.316692,-0.486585,-0.845613,0.587902
1063,0.0593669999999999,0.960488,-0.271905,0.2264,-1.0079280000000002,0.672433
1064,0.038908,0.977971,-0.2050679999999999,0.379121,-0.933598,0.623448
1065,0.037771,0.992926,-0.112535,0.042109,0.202188,0.092851
1066,0.050699,0.998635,-0.012228,-0.26008,2.235084,-0.19874
1067,0.0560149999999999,0.995502,0.076349,0.186935,3.713146,0.887808
1068,0.04054,0.988384,0.14644,0.982211,1.998951,0.722456
1069,-0.016463,0.980372,0.196444,0.9019,1.819616,-0.719316
1070,-0.062586,0.966296,0.24969,0.490855,1.693799,-0.830226
1071,-0.114054,0.947674,0.298153,-0.204473,1.411335,-0.744777
1072,-0.152747,0.924145,0.350162,-0.306237,-0.009717,-0.6008789999999999
1073,-0.156564,0.905291,0.394875,0.386453,-1.11307,-0.8289120000000001
1074,-0.136907,0.8932129999999999,0.428271,0.933004,-1.331019,-0.921389
1075,-0.102966,0.8936709999999999,0.436738,0.562775,-2.440881,-0.405962
1076,-0.0728029999999999,0.91008,0.407976,0.300266,-2.480117,-0.504229
1077,-0.0581519999999999,0.939522,0.337499,0.015122,-2.441933,-0.8140470000000001
1078,-0.063497,0.96392,0.2584889999999999,0.216696,-0.81707,-0.4309739999999999
1079,-0.076128,0.976313,0.202506,0.1825119999999999,-0.481272,0.0266199999999999
1080,-0.104021,0.972517,0.208281,-0.051695,-0.1302309999999999,0.563142
1081,-0.140341,0.958363,0.248667,-0.225153,0.692379,2.0210630000000003
1082,-0.191781,0.943903,0.268807,-0.12992,2.056769,1.544761
1083,-0.19165,0.93891,0.2858449999999999,0.047088,4.415078,-2.991762
1084,-0.188175,0.934871,0.300993,1.174015,-2.098979,0.502871
1085,-0.158878,0.955442,0.248755,0.586673,-1.8005650000000002,-1.761496
1086,-0.123358,0.984244,0.126642,0.201681,-1.399756,-2.025583
1087,-0.002031,0.999902,0.0135819999999999,0.916505,3.844275,-2.187349
1088,0.089952,0.993599,-0.068281,0.724013,5.659217,-1.96683
1089,0.068719,0.985672,-0.154023,-0.610635,4.31276,-0.228378
1090,0.049492,0.971359,-0.232394,0.15139,1.256699,1.25191
1091,0.045402,0.955968,-0.28993,0.15548,1.27209,1.309447
1092,0.0700409999999999,0.949088,-0.307118,0.827451,-0.251899,0.8462879999999999
1093,0.098914,0.942671,-0.31872,-0.303091,-0.629347,0.589182
1094,0.124878,0.933849,-0.335152,-0.5352020000000001,-0.935772,0.330163
1095,0.14143,0.927916,-0.344911,-0.941418,-1.034148,1.050874
1096,0.142125,0.927395,-0.346027,-1.00916,-0.301555,1.015949
1097,0.119362,0.937708,-0.32627,-0.8194959999999999,-0.560632,0.8626159999999999
1098,0.088811,0.949904,-0.299649,-0.3029989999999999,-0.8254379999999999,0.390866
1099,0.059565,0.963947,-0.259331,0.321234,-0.862491,0.5195850000000001
1100,0.042025,0.978909,-0.1999119999999999,0.448499,-0.849133,0.515555
1101,0.032338,0.99261,-0.1169299999999999,-0.064321,0.45931,0.137819
1102,0.022295,0.999373,-0.027356,-0.448,2.024309,-0.000796
1103,0.010114,0.998321,0.0569649999999999,-0.484418,2.813065,0.288082
1104,-0.016901,0.991767,0.126902,0.8293709999999999,2.098077,0.644674
1105,-0.0602929999999999,0.981521,0.181583,0.660512,1.339341,-0.430408
1106,-0.088102,0.967675,0.2362909999999999,0.398329,1.352974,-0.8609559999999999
1107,-0.126144,0.94676,0.29618,-0.352173,1.565111,-0.6087560000000001
1108,-0.157683,0.921282,0.355477,-0.283601,0.4443029999999999,-0.560921
1109,-0.160956,0.899985,0.405103,-0.127405,-0.056968,-0.542874
1110,-0.145626,0.885659,0.440896,0.997189,-1.115029,-0.644998
1111,-0.119122,0.884805,0.450464,0.94035,-1.843881,-0.364863
1112,-0.0921559999999999,0.898574,0.4290229999999999,0.571022,-2.493423,-0.256324
1113,-0.067586,0.923667,0.377175,0.08489,-2.199103,-0.5569390000000001
1114,-0.053674,0.9484,0.312484,-0.248832,-1.107748,-0.512053
1115,-0.063823,0.964429,0.256502,-0.137562,-0.826765,-0.262056
1116,-0.086086,0.968163,0.235035,-0.0075879999999999,-0.582069,-0.045429
1117,-0.105609,0.960245,0.258391,0.188433,0.2851619999999999,0.924012
1118,-0.133262,0.943691,0.3027849999999999,0.33033,0.520267,1.362499
1119,-0.1479089999999999,0.940873,0.30475,0.5611010000000001,1.344985,1.642958
1120,-0.146823,0.945613,0.29026,1.0221129999999998,-0.5908,-0.53785
1121,-0.164401,0.95094,0.262063,1.03969,-0.596128,-0.509652
1122,-0.160567,0.971908,0.172061,0.393935,-1.441971,-2.3699220000000003
1123,-0.108996,0.992224,0.0600309999999999,0.688647,-0.469962,-1.624927
1124,0.013541,0.999622,-0.023788,0.7659229999999999,0.963787,-1.258957
1125,0.118797,0.989653,-0.080424,0.450798,5.579851000000001,-2.075231
1126,0.110417,0.975299,-0.191299,-1.6835369999999998,1.382902,3.164337
1127,0.107305,0.960499,-0.256751,-1.6804259999999998,1.397701,3.229789
1128,0.113435,0.946081,-0.303411,0.159392,0.6393220000000001,1.309026
1129,0.141967,0.939168,-0.312737,0.420807,-0.0844309999999999,1.192253
1130,0.171144,0.933503,-0.315081,-0.374102,-0.206773,0.618747
1131,0.190265,0.92622,-0.325441,-0.7370329999999999,-0.8636739999999999,-0.017928
1132,0.1976,0.921168,-0.335261,-0.890532,-0.732416,0.8175
1133,0.191633,0.923269,-0.332935,-1.145064,-0.484335,0.838367
1134,0.162473,0.936775,-0.30992,-0.8705879999999999,-0.7095100000000001,0.7422479999999999
1135,0.118048,0.953311,-0.277952,-0.337134,-0.707919,0.6708350000000001
1136,0.082661,0.969107,-0.232368,0.451397,-0.800604,0.665809
1137,0.070156,0.98251,-0.172472,0.4478029999999999,-0.71626,0.653917
1138,0.0685559999999999,0.993563,-0.090154,-0.0329879999999999,-0.053103,0.050939
1139,0.071857,0.997374,0.008744,-0.352176,0.593202,-0.169876
1140,0.069754,0.992557,0.099802,-0.8617610000000001,4.062161,0.5638479999999999
1141,0.043952,0.983323,0.1764619999999999,0.330514,2.154586,0.739691
1142,-0.009949,0.972037,0.234607,0.791352,1.635492,-0.075671
1143,-0.054498,0.955021,0.291478,0.157068,1.402935,-0.46462
1144,-0.09511,0.935931,0.339089,-0.07147,1.596128,-0.909051
1145,-0.1242549999999999,0.914939,0.383982,-0.040723,1.154809,-0.919199
1146,-0.1249339999999999,0.894633,0.428971,0.4216109999999999,-0.492152,-0.6446850000000001
1147,-0.1112099999999999,0.881353,0.459176,1.210454,-1.351232,-0.673974
1148,-0.093206,0.8795120000000001,0.466654,0.976599,-1.910686,-0.414667
1149,-0.075642,0.891552,0.44655,0.4913369999999999,-2.466244,-0.342622
1150,-0.057049,0.919461,0.389011,0.131482,-2.344464,-0.751499
1151,-0.04543,0.948593,0.31321,0.02213,-2.046585,-0.776055
1152,-0.053886,0.966563,0.250692,0.153099,-0.6327619999999999,-0.393499
1153,-0.076934,0.969604,0.232259,0.128417,0.053498,0.106959
1154,-0.099138,0.958036,0.268948,0.2491929999999999,0.523516,0.535999
1155,-0.128829,0.939842,0.316376,0.406432,0.634025,1.678436
1156,-0.148574,0.93986,0.307544,0.596877,2.371694,-1.002933
1157,-0.156551,0.94725,0.279648,0.699322,2.325959,-1.848725
1158,-0.175522,0.953999,0.2430469999999999,0.638672,-1.171605,0.193889
1159,-0.173953,0.972374,0.155638,0.294985,-1.342324,-1.738845
1160,-0.126024,0.990548,0.0541179999999999,0.36461,-1.333672,-1.852076
1161,-0.00238,0.999962,0.008045,0.748047,4.001243,-2.048451
1162,0.098339,0.993296,-0.060738,-0.802899,2.941519,0.515221
1163,0.082659,0.983576,-0.160441,-0.7872180000000001,2.951238,0.614924
1164,0.082328,0.969538,-0.230682,-0.8908149999999999,1.334203,1.165573
1165,0.090826,0.955367,-0.2811099999999999,0.707087,0.344316,1.625745
1166,0.114748,0.948412,-0.295543,0.5929399999999999,0.071425,1.3308209999999998
1167,0.142229,0.943652,-0.2988119999999999,0.041685,-0.09479,0.865661
1168,0.1651369999999999,0.937428,-0.306523,-0.607352,-1.336338,0.355732
1169,0.1807079999999999,0.93198,-0.314253,-0.684584,-1.314991,0.758757
1170,0.1836,0.931601,-0.313701,-1.161734,-0.358572,0.8839520000000001
1171,0.165722,0.939417,-0.3000489999999999,-0.973812,-0.651483,0.5999
1172,0.132367,0.951814,-0.2766349999999999,-0.483914,-0.837922,0.3855369999999999
1173,0.0996399999999999,0.964704,-0.243751,-0.152969,-0.79907,0.412101
1174,0.0793789999999999,0.977283,-0.196501,0.354535,-0.914554,0.506437
1175,0.067494,0.989802,-0.125425,0.013683,-0.41862,0.0293399999999999
1176,0.054049,0.997572,-0.043872,-0.5245989999999999,0.6947810000000001,0.034686
1177,0.033088,0.998708,0.03851,-0.732398,2.501521,0.154514
1178,0.0034409999999999,0.994009,0.10922,0.142525,2.841456,0.872866
1179,-0.034392,0.984968,0.16926,0.817397,1.851412,0.238562
1180,-0.068433,0.971856,0.225402,0.171918,1.530646,-0.919646
1181,-0.098024,0.951566,0.291388,0.012147,1.836078,-0.972723
1182,-0.1389109999999999,0.925583,0.352126,-0.265203,1.093994,-0.473387
1183,-0.157682,0.8998,0.406804,0.196592,0.193523,-0.65952
1184,-0.141165,0.881634,0.450317,0.5775359999999999,-0.21272,-0.865051
1185,-0.114688,0.871951,0.475963,1.24103,-1.7583950000000002,-0.417979
1186,-0.092002,0.8753639999999999,0.474621,0.8926459999999999,-2.420713,-0.304745
1187,-0.077647,0.8940239999999999,0.441231,0.6509189999999999,-2.4823880000000003,-0.397011
1188,-0.067333,0.92312,0.378559,0.008205,-2.0386900000000003,-0.8999520000000001
1189,-0.071474,0.949315,0.306079,0.106218,-1.342382,-0.782749
1190,-0.085661,0.964274,0.250661,0.225371,-0.608057,-0.287939
1191,-0.101852,0.965322,0.240356,0.125976,0.023417,0.239869
1192,-0.113113,0.9596,0.257615,0.188033,0.35612,0.559737
1193,-0.127347,0.95245,0.276793,0.189725,0.365711,0.82625
1194,-0.143762,0.957178,0.251265,0.516686,1.015661,-0.308775
1195,-0.1373339999999999,0.962033,0.235846,0.7987569999999999,3.596896,-1.394187
1196,-0.161793,0.962741,0.216669,0.507694,0.577527,-1.731714
1197,-0.181704,0.971361,0.153082,0.490206,-1.522539,-0.589025
1198,-0.177322,0.982438,0.058013,0.822998,-1.569215,-1.6818689999999998
1199,-0.098713,0.994705,-0.028467,0.949528,-1.033432,-1.547262
1200,0.030133,0.996777,-0.074312,0.842426,4.370411,-2.159529
1201,0.047704,0.980025,-0.193055,-0.873433,2.439302,0.464296
1202,0.033081,0.966034,-0.256279,-1.978973,1.239471,4.317863
1203,0.051008,0.950142,-0.307611,0.1225609999999999,1.241478,1.430017
1204,0.079411,0.941187,-0.328414,0.130306,-0.080195,0.777312
1205,0.108037,0.937521,-0.3307219999999999,0.1016799999999999,-0.076529,0.77962
1206,0.129588,0.932382,-0.337441,-0.843791,-0.928323,0.2041099999999999
1207,0.142364,0.928134,-0.343939,-0.907074,-0.838932,0.918005
1208,0.141088,0.928669,-0.343022,-0.905797,-0.8394659999999999,0.917089
1209,0.117943,0.937442,-0.327546,-0.878365,-0.761417,0.705308
1210,0.079567,0.949943,-0.302114,-0.348122,-0.717978,0.560888
1211,0.037395,0.963392,-0.265466,-0.30595,-0.731428,0.5242399999999999
1212,0.008473,0.977425,-0.211098,0.4541739999999999,-0.732644,0.676293
1213,-0.006003,0.99112,-0.1328079999999999,-0.074365,0.513915,0.156154
1214,-0.013323,0.998881,-0.045313,-0.3022289999999999,1.121984,-0.074255
1215,-0.022962,0.998644,0.0466339999999999,-0.3710199999999999,3.075178,0.4740109999999999
1216,-0.048707,0.991321,0.122077,0.583436,1.681668,0.47712
1217,-0.0915919999999999,0.978758,0.183402,0.631616,1.359957,-0.064597
1218,-0.126708,0.961933,0.2421219999999999,0.259032,1.5158200000000002,-0.745799
1219,-0.17021,0.938545,0.300254,-0.171175,1.417442,-0.864311
1220,-0.194672,0.909,0.368527,-0.224121,0.906368,-0.994641
1221,-0.1886789999999999,0.8833780000000001,0.42899,0.631916,-0.18712,-0.925817
1222,-0.160554,0.8676959999999999,0.470442,0.96132,-0.60323,-0.865599
1223,-0.134966,0.867391,0.478963,1.2238790000000002,-1.760732,-0.303701
1224,-0.118896,0.883821,0.452454,0.565719,-2.525911,-0.348618
1225,-0.111444,0.914113,0.389832,0.294916,-2.440693,-0.548447
1226,-0.114148,0.944377,0.308404,0.071988,-1.961116,-0.694299
1227,-0.1262339999999999,0.964425,0.23225,0.288832,-0.860833,-0.577404
1228,-0.136623,0.971967,0.19133,0.31306,-0.182141,-0.049912
1229,-0.145059,0.968231,0.2036619999999999,0.350625,0.251923,0.1194269999999999
1230,-0.159115,0.957566,0.240294,0.480664,1.140624,1.568025
1231,-0.165315,0.953092,0.253532,0.706437,3.551821,-0.3276139999999999
1232,-0.168506,0.957119,0.23563,0.8853639999999999,3.235096,-1.302906
1233,-0.196803,0.955282,0.220673,0.71458,-1.802999,-0.164948
1234,-0.204953,0.96838,0.142223,0.5455899999999999,-1.836224,-1.614681
1235,-0.159101,0.985911,0.051565,0.566999,-1.642573,-1.878256
1236,-0.035337,0.99934,-0.008019,0.765027,2.052982,-1.919029
1237,0.087131,0.993972,-0.0665,0.1758839999999999,5.065492,-1.056547
1238,0.079327,0.9815,-0.174241,-1.20068,2.949957,1.109452
1239,0.072328,0.968111,-0.2398449999999999,-0.806001,1.35417,1.126671
1240,0.081714,0.952393,-0.293712,0.491696,0.485763,1.135082
1241,0.1123849999999999,0.944879,-0.307521,0.7453270000000001,0.04122,1.260463
1242,0.147266,0.939583,-0.309019,-0.355686,-0.113518,0.55824
1243,0.175422,0.931827,-0.31768,-0.8960030000000001,-0.621479,-0.0259019999999999
1244,0.193537,0.92596,-0.32425,-0.834986,-1.104762,0.363129
1245,0.201928,0.926378,-0.317875,-1.456551,-0.242418,0.878727
1246,0.185543,0.936969,-0.296073,-1.003384,-0.73218,0.4569
1247,0.148519,0.952855,-0.264585,-0.47698,-0.929524,0.441862
1248,0.114024,0.968278,-0.22233,-0.075404,-0.903612,0.6556489999999999
1249,0.094928,0.980982,-0.169286,0.320386,-0.913035,0.552999
1250,0.083149,0.992204,-0.092796,0.0293079999999999,-0.422929,-0.076623
1251,0.07926,0.99684,-0.004721,-0.519277,0.797502,0.015905
1252,0.069848,0.994587,0.076885,-0.7179949999999999,2.88728,0.321171
1253,0.046794,0.98702,0.153605,-0.652079,2.93365,0.63474
1254,-0.0062619999999999,0.978209,0.207511,0.50405,1.78647,-0.073692
1255,-0.049892,0.964173,0.260526,0.227473,1.43547,-0.717771
1256,-0.080475,0.941748,0.326536,-0.04567,1.673517,-1.144407
1257,-0.110286,0.919587,0.377077,-0.188465,0.988677,-0.724321
1258,-0.112622,0.8993899999999999,0.422379,0.688046,-0.0287079999999999,-0.777787
1259,-0.097483,0.885209,0.454855,1.017833,-0.4148409999999999,-0.7356010000000001
1260,-0.07981,0.881848,0.464721,1.058616,-1.679882,-0.406143
1261,-0.063301,0.8913459999999999,0.4488729999999999,0.4914779999999999,-2.198002,-0.200627
1262,-0.048904,0.913436,0.404023,0.352492,-2.110122,-0.324937
1263,-0.034929,0.940146,0.338966,0.109422,-1.650809,-0.6107100000000001
1264,-0.0313769999999999,0.960878,0.275175,0.155187,-0.667253,-0.251219
1265,-0.045852,0.970275,0.2376059999999999,0.1696609999999999,-0.67665,-0.2136489999999999
1266,-0.070933,0.967016,0.2446239999999999,0.430536,0.276698,0.2229809999999999
1267,-0.096916,0.956819,0.274039,0.056602,-0.051957,0.952646
1268,-0.121858,0.952667,0.278512,0.168977,-0.2043299999999999,0.432075
1269,-0.118658,0.968945,0.2169289999999999,1.112936,1.840396,-1.389918
1270,-0.106859,0.96923,0.221739,0.064225,-0.068885,-0.261702
1271,-0.107287,0.972724,0.205648,0.137225,-0.940589,0.555567
1272,-0.114309,0.980867,0.157568,0.207433,-1.3306440000000002,-0.608953
1273,-0.09858,0.992472,0.072638,0.922875,0.595464,-1.791953
1274,-0.008157,0.999964,0.001172,0.662149,2.769857,-2.139997
1275,0.0783399999999999,0.991958,-0.099387,0.40724,4.421769,-1.744287
1276,0.060814,0.97818,-0.198651,-1.443199,1.01474,1.271665
1277,0.0587559999999999,0.96392,-0.2596199999999999,-1.441141,1.029,1.332633
1278,0.068825,0.953475,-0.293505,0.69262,0.157685,1.2630629999999998
1279,0.102851,0.949052,-0.297856,0.094216,-0.135804,0.4928939999999999
1280,0.125657,0.946227,-0.298096,-0.342835,-0.489471,0.360123
1281,0.146197,0.942959,-0.299083,-0.787723,-1.239895,0.622447
1282,0.158838,0.942578,-0.293792,-1.160424,-0.724316,0.717345
1283,0.153185,0.946976,-0.282431,-1.06267,-0.638809,0.699469
1284,0.122054,0.958722,-0.25681,-0.371978,-0.778088,0.5387770000000001
1285,0.079055,0.97071,-0.226869,-0.115829,-0.683249,0.623247
1286,0.048227,0.982265,-0.1811819999999999,0.153662,-0.734279,0.522338
1287,0.033183,0.992996,-0.113371,-0.18777,0.257279,0.076521
1288,0.0258029999999999,0.998816,-0.041188,-0.4255069999999999,1.554575,0.094807
1289,0.016271,0.999065,0.0400019999999999,-0.4136399999999999,1.942128,0.385596
1290,0.002788,0.993185,0.116488,0.267903,2.22857,0.5474829999999999
1291,-0.031798,0.98451,0.172406,0.412078,1.568377,-0.154828
1292,-0.085172,0.974561,0.207294,0.092802,1.636431,-0.870914
1293,-0.1402779999999999,0.956683,0.2550949999999999,-0.371548,1.492474,-0.603102
1294,-0.19263,0.933657,0.301946,-0.225171,0.413984,-0.771062
1295,-0.2139989999999999,0.910334,0.354244,0.073908,0.0836539999999999,-0.727947
1296,-0.203538,0.89285,0.401726,1.238312,-0.8799100000000001,-0.647179
1297,-0.185516,0.8849879999999999,0.42705,1.332519,-1.86091,-0.06975
1298,-0.174227,0.893133,0.4146689999999999,1.134798,-2.212087,-0.086819
1299,-0.162249,0.914467,0.370699,0.3165159999999999,-2.099601,-0.529817
1300,-0.147056,0.939655,0.308893,0.201881,-1.675617,-0.6911109999999999
1301,-0.138413,0.95992,0.243694,0.435456,-1.064291,-0.459529
1302,-0.1372519999999999,0.970762,0.196914,0.401275,-0.4630869999999999,-0.02597
1303,-0.145001,0.969113,0.199466,0.350339,0.439792,0.4117399999999999
1304,-0.169243,0.953987,0.247501,0.393471,0.726097,1.000927
1305,-0.202881,0.932311,0.299376,-0.280685,4.374696,-1.220153
1306,-0.226996,0.938565,0.259923,0.192694,-1.102292,-2.582112
1307,-0.257028,0.941119,0.219598,0.8816309999999999,-1.526873,-1.246331
1308,-0.278155,0.953327,0.1174289999999999,0.85831,-1.5526,-1.467115
1309,-0.237833,0.970991,-0.024571,1.305231,0.3109449999999999,-1.316234
1310,-0.0982799999999999,0.989754,-0.103539,1.175398,2.363777,-1.561698
1311,0.032304,0.995683,-0.086974,-0.664399,2.694869,-0.289094
1312,0.023412,0.981974,-0.187545,-1.8747,0.95635,3.217712
1313,0.016784,0.965115,-0.261277,-1.868072,0.973209,3.2914440000000003
1314,0.026996,0.948231,-0.316424,0.037152,0.823101,1.332171
1315,0.039517,0.939749,-0.339564,0.16965,0.010202,1.104457
1316,0.066394,0.936123,-0.345341,-0.220019,-0.346539,0.580875
1317,0.088387,0.930242,-0.356134,-0.5248189999999999,-0.940786,0.208841
1318,0.10338,0.923978,-0.368201,-0.5937819999999999,-1.138974,0.772162
1319,0.1098529999999999,0.92155,-0.372388,-0.811604,-0.816982,0.893918
1320,0.098525,0.928771,-0.3573139999999999,-0.8029310000000001,-0.728529,0.853743
1321,0.067875,0.942139,-0.328271,-0.2728,-0.754776,0.507058
1322,0.031337,0.956072,-0.291441,0.039097,-0.7079340000000001,0.4539319999999999
1323,0.004291,0.971612,-0.236528,0.176678,0.102729,-0.088362
1324,-0.013865,0.986812,-0.161252,-0.057165,1.047596,0.359571
1325,-0.032171,0.996447,-0.077788,-0.038782,1.46269,0.45645
1326,-0.041241,0.99913,0.005471,0.554455,2.549744,0.844276
1327,-0.046898,0.99614,0.074145,0.6848069999999999,1.810211,0.145948
1328,-0.067587,0.988761,0.133319,0.514288,1.416619,-0.441424
1329,-0.090766,0.978191,0.186796,-0.213357,1.892994,-0.5940989999999999
1330,-0.140001,0.960618,0.240005,-0.4266649999999999,1.039016,-0.595581
1331,-0.178759,0.93661,0.301323,-0.295118,0.57224,-0.556892
1332,-0.187446,0.914258,0.359145,0.668235,-0.4844779999999999,-0.8666219999999999
1333,-0.170548,0.8983040000000001,0.404909,1.205949,-1.466083,-0.440539
1334,-0.146898,0.8954850000000001,0.4201359999999999,0.956087,-2.392525,-0.127152
1335,-0.127907,0.907223,0.4007159999999999,0.5090720000000001,-2.44476,-0.373647
1336,-0.114288,0.930204,0.348778,0.117767,-2.082044,-0.6941609999999999
1337,-0.107716,0.954304,0.278727,0.050434,-1.795018,-0.64036
1338,-0.116584,0.970025,0.213188,0.139213,-0.669137,-0.200614
1339,-0.131385,0.973907,0.185019,0.14701,-0.278839,0.20524
1340,-0.1502079999999999,0.965657,0.211973,0.227128,0.535212,0.6435569999999999
1341,-0.1804599999999999,0.941843,0.283467,-0.023107,4.180562,1.798137
1342,-0.2161739999999999,0.936079,0.277514,0.297199,0.307757,-2.934969
1343,-0.247862,0.937068,0.245876,0.812437,-1.051799,-1.879527
1344,-0.2770849999999999,0.944708,0.175326,0.963547,-2.088278,-0.788515
1345,-0.2621989999999999,0.963311,0.057208,0.827216,-1.309839,-1.70209
1346,-0.17293,0.982354,-0.07118,1.092699,0.471916,-1.336275
1347,-0.01626,0.993518,-0.112464,0.95727,4.940656,-2.633554
1348,0.047909,0.988602,-0.142693,-0.85696,2.863769,0.424782
1349,0.017931,0.972423,-0.232517,-1.74721,1.211583,3.863941000000001
1350,0.017421,0.95752,-0.287828,-0.023403,1.021927,1.118623
1351,0.023334,0.9422,-0.334228,0.4943359999999999,-0.241348,1.050155
1352,0.046553,0.936541,-0.347443,0.221162,-0.385836,0.7661600000000001
1353,0.074602,0.932548,-0.353246,-0.328371,-0.826743,0.3506829999999999
1354,0.096225,0.925044,-0.367461,-0.7542300000000001,-1.106608,0.742675
1355,0.109079,0.919009,-0.378837,-0.924387,-0.652255,1.078834
1356,0.112015,0.917854,-0.380777,-1.018922,-0.5428229999999999,0.754999
1357,0.0925,0.927069,-0.363291,-0.44951,-0.8397889999999999,0.591303
1358,0.0554,0.939831,-0.337109,-0.320063,-0.749676,0.521099
1359,0.019556,0.952407,-0.304188,0.205344,-0.644821,0.59438
1360,-0.006567,0.968719,-0.248056,0.295813,-0.5080720000000001,0.466913
1361,-0.022989,0.985527,-0.167925,0.312235,-0.52488,0.386782
1362,-0.036183,0.996081,-0.0806419999999999,-0.429424,2.103009,-0.036926
1363,-0.052122,0.998606,0.007675,0.1479619999999999,2.866766,0.953995
1364,-0.06975,0.994783,0.074371,0.5707260000000001,2.5437,0.902771
1365,-0.103319,0.985638,0.133535,0.830217,1.406162,-0.427618
1366,-0.1355319999999999,0.971655,0.193662,0.063846,1.796579,-0.390256
1367,-0.178874,0.95172,0.249442,-0.1365549999999999,1.676713,-0.893012
1368,-0.213256,0.923622,0.318482,0.1738569999999999,0.179954,-0.532593
1369,-0.21713,0.8992760000000001,0.379661,0.804914,-0.635391,-0.7243569999999999
1370,-0.195279,0.882685,0.427457,0.986035,-1.013605,-0.68002
1371,-0.168432,0.880459,0.443179,0.905813,-2.275005,-0.2459739999999999
1372,-0.148383,0.894282,0.42217,0.552711,-2.482264,-0.46047
1373,-0.136414,0.922041,0.362238,0.334489,-2.398528,-0.690683
1374,-0.12935,0.95009,0.283873,-0.018508,-1.281541,-0.593932
1375,-0.138714,0.966508,0.215886,-0.012073,-0.5044109999999999,-0.046926
1376,-0.157103,0.969648,0.187317,-0.046113,0.132082,0.428162
1377,-0.175766,0.96164,0.210575,0.035858,0.335677,0.983456
1378,-0.197047,0.952947,0.230328,0.271372,-0.123602,0.017368
1379,-0.2197849999999999,0.958104,0.183629,0.727705,-0.388997,-0.939946
1380,-0.176288,0.966476,0.18664,1.584491,4.455643,0.513784
1381,-0.1622849999999999,0.974785,0.153124,-0.163673,-0.065025,-1.1179370000000002
1382,-0.1819069999999999,0.979864,0.0822519999999999,-0.137673,-0.912252,-0.508262
1383,-0.179587,0.983711,0.0071569999999999,0.361228,-1.286537,-1.5700690000000002
1384,-0.123815,0.989501,-0.0744799999999999,0.652776,1.273682,-1.492246
1385,-0.005748,0.993393,-0.1145819999999999,0.299815,3.124726,-1.962002
1386,0.024171,0.97418,-0.224457,-1.7495889999999998,1.4183370000000002,3.037919
1387,0.004464,0.960255,-0.279074,-0.7817310000000001,1.128047,1.351187
1388,0.009214,0.943641,-0.330831,0.113116,1.134346,1.503439
1389,0.026364,0.933292,-0.35814,0.507953,0.008694,1.2830979999999998
1390,0.0612529999999999,0.930742,-0.360501,-0.025425,-0.3481,0.514203
1391,0.084937,0.92894,-0.360347,-0.3652559999999999,-0.706055,0.271266
1392,0.1025599999999999,0.925762,-0.3639219999999999,-0.918951,-0.770138,0.918762
1393,0.114099,0.924541,-0.363593,-1.12861,-0.499766,0.835685
1394,0.107416,0.927799,-0.357273,-1.044138,-0.642994,0.609119
1395,0.0706059999999999,0.941412,-0.329776,-0.409671,-0.7202970000000001,0.6692229999999999
1396,0.0254789999999999,0.953292,-0.300964,0.023166,-0.623351,0.78395
1397,-0.007098,0.966144,-0.257892,0.0557429999999999,-0.636203,0.740879
1398,-0.026309,0.981547,-0.189382,-0.000882,0.229482,0.114675
1399,-0.027485,0.994571,-0.1003179999999999,-0.364894,2.439129,-0.139688
1400,-0.0228,0.999707,-0.007554,-0.244717,3.952655000000001,0.076173
1401,-0.034076,0.996667,0.07406,0.59119,1.658973,0.5376810000000001
1402,-0.072741,0.988746,0.130686,0.4762439999999999,1.209374,-0.335948
1403,-0.115829,0.976442,0.182028,0.265945,1.330885,-0.4647729999999999
1404,-0.151284,0.957521,0.24547,-0.246742,1.38156,-0.731539
1405,-0.187023,0.933893,0.30472,-0.049915,0.690557,-0.624102
1406,-0.201166,0.910328,0.361694,0.174906,0.116252,-0.576995
1407,-0.189921,0.8934049999999999,0.407119,0.990992,-0.630038,-0.718597
1408,-0.1706069999999999,0.886066,0.431006,1.299726,-1.635761,-0.381537
1409,-0.155075,0.8941319999999999,0.420079,1.011871,-2.450742,-0.09995
1410,-0.1415819999999999,0.916794,0.373403,0.1642559999999999,-2.115021,-0.679082
1411,-0.130388,0.945153,0.299455,-0.001081,-1.505212,-0.643205
1412,-0.130788,0.96685,0.21928,0.042654,-1.237129,-0.4939689999999999
1413,-0.137614,0.978712,0.152231,0.140819,-0.430601,0.056311
1414,-0.147981,0.979814,0.134374,0.2105719999999999,0.304076,0.551585
1415,-0.16238,0.970145,0.180115,0.246502,0.617425,1.195938
1416,-0.187491,0.953319,0.236681,0.2433989999999999,5.10416,-1.230227
1417,-0.205426,0.955684,0.2108469999999999,0.285169,1.460728,-2.384202
1418,-0.238709,0.951385,0.194609,0.785691,-1.831283,-0.581603
1419,-0.254394,0.958965,0.125136,0.767059,-1.599117,-1.853392
1420,-0.223761,0.974503,0.01628,1.002844,-0.8336040000000001,-1.584731
1421,-0.112419,0.990734,-0.076151,1.195397,0.743275,-1.449255
1422,0.028236,0.995802,-0.087021,0.362435,4.015032,-0.695633
1423,0.03712,0.983449,-0.177322,-1.790935,0.8632,3.493209
1424,0.02348,0.968617,-0.247434,-0.716687,1.302364,0.966505
1425,0.023158,0.949216,-0.313763,0.351948,0.599826,1.003445
1426,0.037603,0.939243,-0.341179,0.608759,0.062314,1.408562
1427,0.0662789999999999,0.934764,-0.349023,0.17304,-0.134029,1.213647
1428,0.092312,0.931381,-0.352139,-0.811429,-0.811569,0.11575
1429,0.108163,0.926402,-0.360659,-0.512491,-1.240412,0.739885
1430,0.11844,0.92298,-0.366162,-0.622804,-0.999442,0.986782
1431,0.117214,0.924808,-0.361919,-0.926602,-0.666446,0.659863
1432,0.090963,0.935584,-0.341178,-0.578054,-0.840583,0.704765
1433,0.048465,0.950356,-0.307355,-0.2355989999999999,-0.722283,0.73126
1434,0.016558,0.964483,-0.263611,0.254697,-0.712378,0.4404149999999999
1435,-0.001242,0.980706,-0.195463,0.140845,0.163306,0.114424
1436,-0.011108,0.992588,-0.120986,0.039673,0.6918,0.266494
1437,-0.024092,0.999046,-0.0362899999999999,0.074781,2.598427,0.582356
1438,-0.033818,0.998563,0.04145,0.6602210000000001,2.098452,0.8852780000000001
1439,-0.059385,0.993816,0.093765,0.942853,1.642673,0.490738
1440,-0.0894679999999999,0.98572,0.142622,0.191289,1.147581,-0.568754
1441,-0.115064,0.973128,0.199427,-0.350344,1.327424,-0.449106
1442,-0.156361,0.954921,0.252319,-0.355006,0.932575,-0.68161
1443,-0.176719,0.933349,0.3124389999999999,-0.008355,0.263901,-0.499313
1444,-0.166752,0.914985,0.367401,0.984852,-1.047035,-0.565186
1445,-0.143377,0.904298,0.402089,1.103963,-1.4955,-0.395665
1446,-0.117751,0.908128,0.401778,1.011793,-2.369309,-0.094084
1447,-0.098371,0.925228,0.366421,0.290006,-2.153912,-0.596585
1448,-0.086028,0.949087,0.303021,0.277663,-2.17777,-0.533185
1449,-0.088798,0.969216,0.229618,0.006309,-0.8286209999999999,-0.462772
1450,-0.103118,0.980354,0.1681109999999999,0.097594,-0.3511579999999999,0.107219
1451,-0.1195529999999999,0.981006,0.152721,0.154801,0.031918,0.372212
1452,-0.137665,0.972025,0.190276,0.350968,1.3236139999999998,2.287416
1453,-0.160947,0.958133,0.236782,0.5159130000000001,2.9143950000000003,1.001026
1454,-0.163177,0.960669,0.2246699999999999,0.701019,1.503381,-1.7956849999999998
1455,-0.181617,0.960767,0.209598,0.935142,-1.528073,0.425427
1456,-0.1930339999999999,0.969375,0.151791,0.418925,-1.593322,-2.045773
1457,-0.1685849999999999,0.983854,0.060002,0.511191,-1.312666,-1.839802
1458,-0.084727,0.99535,-0.045722,0.891124,2.151333,-1.7389150000000002
1459,0.041226,0.996161,-0.077169,0.082538,4.180276,-0.640422
1460,0.071111,0.98439,-0.160969,-1.148183,2.253159,1.10468
1461,0.057485,0.971869,-0.228382,-0.2583519999999999,1.156839,0.634815
1462,0.058292,0.953328,-0.296247,0.200772,0.787349,0.999524
1463,0.06667,0.941286,-0.330952,0.43713,0.304258,1.443562
1464,0.093605,0.935041,-0.341951,-0.338783,-0.054014,0.916169
1465,0.121713,0.930435,-0.345645,-0.7949,-0.540496,0.340869
1466,0.142794,0.924137,-0.354365,-0.663912,-0.996403,0.431513
1467,0.1603349999999999,0.918868,-0.360511,-0.67387,-0.8956290000000001,0.8710540000000001
1468,0.16882,0.918064,-0.358682,-0.976834,-0.5486479999999999,0.716592
1469,0.157316,0.925448,-0.344661,-0.8430610000000001,-0.654269,0.730571
1470,0.123267,0.940693,-0.316062,-0.442511,-0.7234229999999999,0.6336729999999999
1471,0.088335,0.956158,-0.279198,0.1025369999999999,-0.734478,0.668435
1472,0.063334,0.972285,-0.22504,0.273946,-0.8265030000000001,0.5333439999999999
1473,0.050194,0.987917,-0.146597,-0.078576,0.198102,0.182547
1474,0.044284,0.996937,-0.064396,-0.53635,2.07391,-0.126247
1475,0.03209,0.999279,0.020059,-0.130143,3.131657,0.904379
1476,0.006029,0.99553,0.094198,0.521605,1.800353,0.48913
1477,-0.042267,0.989107,0.140963,0.371399,1.159514,-0.4405229999999999
1478,-0.085246,0.97849,0.187825,0.027385,1.572993,-0.494847
1479,-0.133253,0.962492,0.236305,-0.263506,1.404253,-0.551018
1480,-0.173087,0.942419,0.286138,-0.096734,0.5615640000000001,-0.585562
1481,-0.184494,0.923672,0.335825,0.10878,0.09502,-0.541483
1482,-0.1736349999999999,0.910312,0.375727,1.047048,-1.095553,-0.405909
1483,-0.152295,0.908766,0.388506,1.164227,-1.781081,-0.010607
1484,-0.131804,0.922211,0.363513,0.816298,-2.244324,-0.159442
1485,-0.1056869999999999,0.944727,0.310336,0.3538719999999999,-1.923776,-0.513782
1486,-0.085621,0.965595,0.245526,0.141026,-1.4337799999999998,-0.470822
1487,-0.081865,0.978934,0.187017,0.257356,-0.961981,-0.3454489999999999
1488,-0.087686,0.984291,0.153205,0.277277,-0.381614,-0.078483
1489,-0.100293,0.980198,0.170713,0.125393,0.188366,0.521822
1490,-0.122017,0.970439,0.208202,-0.01194,0.368276,1.347446
1491,-0.134979,0.971899,0.192826,0.51979,2.689127,-0.931306
1492,-0.132122,0.974292,0.182451,0.265026,0.8335389999999999,-1.592058
1493,-0.15152,0.972956,0.174322,0.309158,-1.1785370000000002,0.157251
1494,-0.151327,0.980293,0.126942,0.316626,-1.436531,-1.383732
1495,-0.116423,0.992159,0.04535,0.864836,0.172407,-1.490128
1496,-0.011252,0.999812,-0.015487,0.768988,1.833379,-1.671372
1497,0.101057,0.993191,-0.057878,0.842501,4.0361970000000005,-0.832533
1498,0.101258,0.980779,-0.166767,-1.375321,0.866816,2.591511
1499,0.101339,0.968239,-0.228551,-0.855917,1.253196,1.131246
1500,0.108379,0.951809,-0.28689,0.396992,0.233875,1.202982
1501,0.126694,0.942679,-0.308703,0.039917,-0.159461,1.157351
1502,0.152123,0.937467,-0.313061,-0.450966,-0.2314119999999999,0.812237
1503,0.176038,0.932301,-0.3159409999999999,-0.824781,-0.907124,0.447578
1504,0.189171,0.92598,-0.326756,-0.686012,-1.110764,0.756733
1505,0.1952839999999999,0.923964,-0.328859,-1.0096459999999998,-0.609877,0.855836
1506,0.185631,0.92869,-0.3210449999999999,-0.8245620000000001,-0.71911,0.6257020000000001
1507,0.150497,0.944074,-0.293373,-0.470229,-0.815565,0.631629
1508,0.107073,0.961677,-0.252399,-0.248797,-0.811454,0.649295
1509,0.080456,0.976675,-0.19906,0.248585,-0.747503,0.211954
1510,0.070778,0.989345,-0.127192,-0.067772,0.114399,0.131754
1511,0.069209,0.996104,-0.054553,-0.347407,0.8272450000000001,0.127673
1512,0.065277,0.997399,0.030374,-0.365769,3.212623,1.178397
1513,0.045535,0.99341,0.105128,0.3543679999999999,2.158904,0.4695789999999999
1514,-0.007906,0.989039,0.147401,0.538698,1.628729,-0.001862
1515,-0.052007,0.97909,0.196634,-0.013652,1.470083,-0.684335
1516,-0.087517,0.963682,0.252278,-0.056007,1.100863,-0.4907729999999999
1517,-0.118613,0.946582,0.299832,-0.02601,0.7789729999999999,-0.8050350000000001
1518,-0.130013,0.929195,0.345947,0.5356529999999999,-0.0760909999999999,-0.584075
1519,-0.12389,0.917563,0.377778,1.003101,-0.957449,-0.567597
1520,-0.106925,0.914873,0.389308,1.122199,-1.359514,-0.372554
1521,-0.092528,0.922813,0.373954,0.6049329999999999,-2.128059,-0.186423
1522,-0.078829,0.940109,0.331615,0.2019369999999999,-1.844818,-0.712078
1523,-0.068322,0.961219,0.2671679999999999,0.19143,-1.865928,-0.64763
1524,-0.070472,0.977286,0.1998339999999999,0.042106,-1.021186,-0.427602
1525,-0.0845419999999999,0.985076,0.149889,0.010033,-0.372268,0.1493809999999999
1526,-0.1066579999999999,0.980137,0.167163,0.032683,0.461376,0.800397
1527,-0.13706,0.96697,0.214876,-0.082987,0.342387,1.293837
1528,-0.167821,0.966017,0.1965609999999999,0.657048,1.223635,-1.521451
1529,-0.159868,0.972574,0.1689109999999999,0.558305,1.33631,-1.029919
1530,-0.169786,0.973137,0.1554569999999999,0.240175,-0.674049,0.088165
1531,-0.155978,0.980907,0.1161119999999999,0.241443,-0.98756,-1.441414
1532,-0.122719,0.991081,0.051845,0.566307,-0.689461,-1.227947
1533,-0.043716,0.998863,-0.018762,0.719681,1.470573,-1.364767
1534,0.053309,0.995239,-0.0815309999999999,0.456059,3.794616,-1.157498
1535,0.0585169999999999,0.978247,-0.199,-1.489471,1.207392,2.765162
1536,0.0548679999999999,0.964455,-0.258474,-0.8633860000000001,1.078529,0.8533219999999999
1537,0.061832,0.948674,-0.310142,0.312954,0.6758069999999999,1.12104
1538,0.0816539999999999,0.940761,-0.329081,0.53442,0.225056,1.204112
1539,0.1139839999999999,0.936496,-0.331626,-0.185349,0.050961,0.893516
1540,0.146842,0.932109,-0.331065,-0.859534,-0.649119,0.493984
1541,0.176762,0.9262,-0.33302,-0.803471,-0.952506,0.539547
1542,0.193528,0.921163,-0.3376369999999999,-1.027543,-1.044469,0.4562279999999999
1543,0.186174,0.924602,-0.332331,-0.93947,-0.787258,0.8977299999999999
1544,0.153833,0.941033,-0.301305,-0.750696,-0.867303,0.7356
1545,0.114341,0.956049,-0.2699789999999999,-0.114066,-0.7560520000000001,0.546194
1546,0.087362,0.96998,-0.226933,0.200541,-0.7127479999999999,0.4947859999999999
1547,0.069195,0.984577,-0.16066,0.1519049999999999,-0.482502,0.156937
1548,0.061676,0.994856,-0.080297,-0.333939,1.028016,-0.0027719999999999
1549,0.056094,0.998421,0.00059,-0.350283,2.863198,0.3625239999999999
1550,0.04142,0.99588,0.080608,0.222038,2.493439,0.879857
1551,0.0032119999999999,0.990891,0.1345839999999999,0.356743,1.362166,-0.269915
1552,-0.047504,0.984334,0.169759,0.0516549999999999,1.396189,-0.149862
1553,-0.095617,0.971337,0.217601,-0.18722,1.379158,-0.293864
1554,-0.143217,0.955719,0.257057,-0.096148,0.709976,-0.689735
1555,-0.169248,0.939337,0.298309,0.277021,0.011621,-0.770416
1556,-0.169372,0.925049,0.339976,0.901169,-0.757019,-0.5468850000000001
1557,-0.155337,0.916286,0.369158,1.273516,-1.472407,-0.110857
1558,-0.137209,0.920463,0.365933,0.996172,-2.10363,-0.057248
1559,-0.1146099999999999,0.936454,0.331518,0.7449359999999999,-2.192787,-0.188131
1560,-0.086497,0.957402,0.275476,0.01266,-1.412556,-0.552896
1561,-0.064881,0.973679,0.218467,0.018693,-1.147431,-0.379981
1562,-0.062856,0.983504,0.1695839999999999,0.034017,-0.939833,-0.245008
1563,-0.071486,0.985048,0.156715,-0.0749679999999999,0.018157,0.53637
1564,-0.08839,0.977283,0.192597,-0.215718,0.40878,1.611984
1565,-0.122717,0.968954,0.214608,0.186407,2.183252,-0.653984
1566,-0.130732,0.971361,0.198379,0.463068,2.190702,-1.210205
1567,-0.143619,0.970702,0.19261,0.501727,-0.905166,0.271776
1568,-0.151309,0.974826,0.163731,0.403735,-1.465808,-1.359379
1569,-0.13276,0.987049,0.08999,0.428475,-1.169742,-1.635767
1570,-0.071403,0.997437,-0.003371,0.656303,0.488479,-1.578538
1571,0.046523,0.998,-0.042684,0.490708,3.875352,-1.863611
1572,0.099146,0.986139,-0.1330049999999999,-0.781626,2.1627560000000003,1.226556
1573,0.078319,0.974273,-0.211304,-0.834636,1.123658,2.013779
1574,0.078428,0.959488,-0.270601,0.2284409999999999,0.947632,0.814317
1575,0.0874549999999999,0.946769,-0.309795,0.5496300000000001,0.117821,1.118862
1576,0.114728,0.939489,-0.322786,0.0524769999999999,-0.097875,0.954866
1577,0.146861,0.932723,-0.329322,-0.812617,-0.26628,0.378089
1578,0.1762099999999999,0.923264,-0.34136,-0.7684340000000001,-1.054383,0.364034
1579,0.191857,0.91498,-0.354958,-0.851281,-1.1528040000000002,0.867318
1580,0.193991,0.913426,-0.3577909999999999,-1.003576,-0.519734,0.66585
1581,0.171685,0.923661,-0.34259,-0.714303,-0.79448,0.712921
1582,0.129448,0.94202,-0.3095719999999999,-0.16201,-0.748051,0.7553880000000001
1583,0.094947,0.959302,-0.265927,0.1423579999999999,-0.817975,0.550473
1584,0.076973,0.976297,-0.202264,0.139061,-0.329737,-0.022452
1585,0.064843,0.989482,-0.129275,-0.337609,1.355199,0.0066549999999999
1586,0.049173,0.99746,-0.051438,-0.4732,2.006263,0.175675
1587,0.0302899999999999,0.999125,0.028674,0.070281,2.74439,1.1664709999999998
1588,0.004372,0.995302,0.096671,0.568443,1.346846,-0.0287389999999999
1589,-0.035133,0.988133,0.149493,0.315345,1.2309370000000002,-0.705813
1590,-0.070847,0.977044,0.200882,-0.2606199999999999,1.654181,-0.484116
1591,-0.12137,0.960687,0.249676,-0.313811,1.226218,-0.6142850000000001
1592,-0.150259,0.939433,0.3080199999999999,-0.166743,0.307897,-0.545126
1593,-0.146852,0.922551,0.356822,0.7727069999999999,-0.52364,-0.788157
1594,-0.1223119999999999,0.909898,0.396374,0.973585,-0.964799,-0.6647310000000001
1595,-0.0971419999999999,0.90815,0.407202,0.927327,-1.721032,-0.128576
1596,-0.080502,0.920303,0.382817,0.568646,-2.264969,-0.2156409999999999
1597,-0.0685549999999999,0.941266,0.3306139999999999,0.133451,-2.0713470000000003,-0.582155
1598,-0.059684,0.964904,0.255708,0.0177219999999999,-1.879272,-0.739808
1599,-0.059604,0.981452,0.182178,0.043079,-0.533515,-0.0526919999999999
1600,-0.068438,0.988532,0.134578,0.0309319999999999,-0.097876,0.33669
1601,-0.08503,0.983578,0.159165,0.14872,0.958805,1.451263
1602,-0.110832,0.965539,0.235453,0.370949,2.827918,2.203725
1603,-0.120678,0.960585,0.250403,0.156948,3.337435,-1.37789
1604,-0.128486,0.965597,0.226055,0.431221,-0.44927,-1.793911
1605,-0.143305,0.971355,0.189529,0.608545,-1.405758,-0.357131
1606,-0.134499,0.983942,0.1172869999999999,0.2807699999999999,-1.095377,-2.053551
1607,-0.083308,0.996495,0.006855,0.349528,-0.690526,-1.779408
1608,0.034945,0.997248,-0.065315,0.361173,3.838735,-1.461724
1609,0.121089,0.988513,-0.090387,-0.587917,2.437726,0.5631189999999999
1610,0.116767,0.973231,-0.197935,-0.8423069999999999,1.126409,2.474287
1611,0.113201,0.960441,-0.254422,-0.234265,1.248238,0.659939
1612,0.108036,0.945444,-0.307336,0.2076219999999999,0.2891289999999999,1.149835
1613,0.1205059999999999,0.935436,-0.332309,0.239968,-0.050305,1.265659
1614,0.146799,0.9275,-0.343783,-0.502832,-0.330271,0.539813
1615,0.166523,0.919796,-0.3553,-0.791111,-0.860516,0.34941
1616,0.175655,0.910029,-0.37548,-0.618694,-1.178477,1.039878
1617,0.180718,0.905363,-0.384256,-1.09269,-0.410581,0.779733
1618,0.165302,0.910729,-0.378472,-0.806431,-0.71328,0.761529
1619,0.123568,0.928508,-0.350138,-0.484622,-0.792629,0.874811
1620,0.084255,0.945823,-0.3135469999999999,0.189579,-0.826744,0.626474
1621,0.061291,0.963657,-0.260002,0.2715639999999999,-0.503772,0.261451
1622,0.04937,0.981833,-0.183188,0.040046,0.509988,0.117514
1623,0.037381,0.994006,-0.1026869999999999,-0.449109,2.112119,-0.065175
1624,0.0222729999999999,0.999631,-0.0151569999999999,0.4872329999999999,2.354067,1.06667
1625,0.000606,0.998317,0.057888,0.5089,2.355382,0.993626
1626,-0.040026,0.992907,0.111892,0.701235,1.152341,-0.078002
1627,-0.070511,0.983637,0.165748,-0.039825,1.550039,-0.427803
1628,-0.11158,0.970413,0.214088,0.0012439999999999,1.5632629999999998,-0.476142
1629,-0.156662,0.950611,0.267919,-0.318954,0.6327020000000001,-0.491384
1630,-0.177277,0.931607,0.317278,0.5882569999999999,-0.388241,-0.8463309999999999
1631,-0.165857,0.917229,0.362167,0.89686,-0.787575,-0.773895
1632,-0.145163,0.910629,0.386865,1.007743,-1.998245,-0.146127
1633,-0.1255619999999999,0.917601,0.377128,0.709348,-2.3808580000000004,-0.078361
1634,-0.105463,0.938135,0.329794,0.474985,-2.293192,-0.260702
1635,-0.084576,0.964706,0.24935,0.165127,-1.95761,-0.523138
1636,-0.072839,0.982313,0.172457,0.016885,-0.718016,-0.301882
1637,-0.076863,0.989213,0.124644,-0.071483,-0.389833,-0.039393
1638,-0.095349,0.985546,0.139979,-0.0691259999999999,0.328373,0.5038199999999999
1639,-0.1231589999999999,0.973732,0.1914799999999999,0.333486,0.23333,1.042453
1640,-0.143216,0.970149,0.195668,0.353543,0.236913,1.038264
1641,-0.119789,0.977328,0.174545,0.380271,0.808988,-1.1393879999999998
1642,-0.136793,0.978294,0.15561,0.048994,-0.948936,0.333221
1643,-0.136392,0.984438,0.110748,0.2124869999999999,-1.016924,-0.893539
1644,-0.10752,0.993527,0.036493,0.513937,-0.659878,-1.483835
1645,-0.0290339999999999,0.998515,-0.045961,0.482022,1.809468,-1.463454
1646,0.085565,0.993545,-0.074397,0.4027469999999999,3.472977,-1.7590990000000002
1647,0.103048,0.978172,-0.18042,-1.36112,1.017449,1.96341
1648,0.090896,0.964073,-0.249584,-0.77275,1.377053,0.783443
1649,0.085451,0.947022,-0.309579,-0.176164,1.2178950000000002,0.879663
1650,0.093994,0.934844,-0.342379,0.39943,0.173798,1.383089
1651,0.114743,0.927759,-0.355092,-0.407422,-0.186807,0.780888
1652,0.135461,0.921067,-0.365073,-0.739862,-0.310792,0.411597
1653,0.14876,0.914652,-0.375865,-0.414064,-1.196208,0.792201
1654,0.1580609999999999,0.90987,-0.3835969999999999,-0.759455,-0.5077699999999999,0.8338540000000001
1655,0.1540359999999999,0.911255,-0.381942,-0.966399,-0.598847,0.728133
1656,0.129254,0.923157,-0.362033,-0.620358,-0.840973,0.790179
1657,0.089136,0.940426,-0.3280949999999999,-0.203669,-0.752483,0.705475
1658,0.055704,0.956067,-0.287792,0.16889,-0.787503,0.544964
1659,0.036154,0.973799,-0.2244989999999999,0.185296,-0.011488,-0.021137
1660,0.025682,0.98912,-0.144819,-0.215547,1.0760809999999998,0.005613
1661,0.013331,0.998294,-0.056748,-0.1238809999999999,2.655774,0.408265
1662,-0.001592,0.999741,0.022434,0.579549,2.691711,1.309444
1663,-0.0310899999999999,0.996348,0.079453,1.017281,1.5232139999999998,0.5221859999999999
1664,-0.077184,0.988914,0.126806,0.476506,1.213448,-1.037969
1665,-0.116452,0.976734,0.180045,-0.077884,1.688534,-0.601142
1666,-0.174756,0.956059,0.235368,-0.408755,1.064845,-0.462602
1667,-0.214079,0.932072,0.29223,-0.1019,0.092907,-0.537866
1668,-0.210676,0.914449,0.34552,0.6181770000000001,-0.504888,-0.976425
1669,-0.185112,0.903058,0.3875639999999999,1.074532,-1.472043,-0.444708
1670,-0.158892,0.905651,0.393109,1.039294,-2.2016720000000003,-0.055844
1671,-0.138928,0.92335,0.357923,0.677411,-2.481684,-0.246457
1672,-0.120875,0.95042,0.286491,0.133433,-2.139705,-0.604866
1673,-0.110048,0.972806,0.203776,-0.0148,-1.451612,-0.662837
1674,-0.1107359999999999,0.984938,0.132749,0.028781,-0.668959,-0.2575199999999999
1675,-0.121796,0.986512,0.109306,-0.055038,0.040481,0.418252
1676,-0.14328,0.976453,0.161236,-0.011017,0.901827,1.507862
1677,-0.174955,0.960303,0.217246,0.127958,3.159418,1.137749
1678,-0.182311,0.963002,0.198434,0.803649,-0.323339,-1.398141
1679,-0.207137,0.961981,0.177972,0.904739,-1.174673,-0.5624779999999999
1680,-0.223072,0.96621,0.129091,0.926502,-1.481164,-0.377413
1681,-0.196203,0.978971,0.055753,0.810811,-0.909971,-1.674406
1682,-0.1090039999999999,0.99324,-0.039779,0.882717,0.062195,-1.244339
1683,0.026123,0.997289,-0.068719,0.897309,3.333064,-1.93537
1684,0.079113,0.988216,-0.131,-1.020489,1.634632,1.412769
1685,0.0620799999999999,0.968043,-0.242963,-1.7004009999999998,0.8165939999999999,3.898358
1686,0.064173,0.952914,-0.296359,-0.849131,1.408276,0.551211
1687,0.0623289999999999,0.936456,-0.345192,0.207553,0.087683,1.487388
1688,0.0827789999999999,0.929493,-0.359421,-0.2268219999999999,-0.005161,0.93097
1689,0.108348,0.925843,-0.362033,-0.685863,-0.369843,0.361774
1690,0.124768,0.919382,-0.373046,-0.5949979999999999,-0.774942,0.601851
1691,0.140328,0.914135,-0.380339,-0.642755,-0.970471,0.726576
1692,0.146325,0.912291,-0.382501,-0.978799,-0.625533,0.548929
1693,0.129063,0.91996,-0.370147,-0.742222,-0.8241200000000001,0.971221
1694,0.0900059999999999,0.938257,-0.334014,-0.383921,-0.753305,0.801589
1695,0.0523559999999999,0.95478,-0.292652,0.3734099999999999,-0.742012,0.5565829999999999
1696,0.032559,0.971498,-0.234782,0.3260679999999999,-0.5322279999999999,0.274882
1697,0.025371,0.987709,-0.1542,0.243245,-0.097969,0.047984
1698,0.022111,0.997461,-0.067613,-0.306107,2.080527,-0.173491
1699,0.010787,0.999668,0.023129,-0.110488,3.108135,1.112674
1700,-0.0136169999999999,0.995789,0.090588,0.224371,2.59024,1.023761
1701,-0.062578,0.98882,0.135297,0.230607,1.238154,-0.237073
1702,-0.106725,0.975373,0.192987,-0.063792,1.562042,-0.6293270000000001
1703,-0.150739,0.955814,0.252355,-0.204348,1.453473,-0.499227
1704,-0.175327,0.933479,0.312829,-0.035092,0.31823,-0.606683
1705,-0.171381,0.915529,0.3638949999999999,0.587885,-0.387651,-0.626529
1706,-0.151973,0.9042,0.3991369999999999,1.013332,-0.720561,-0.6439189999999999
1707,-0.134352,0.904302,0.405181,1.077681,-1.801824,-0.053908
1708,-0.125525,0.917843,0.376553,0.749747,-2.240063,-0.08067
1709,-0.117996,0.941603,0.315351,0.277115,-2.022643,-0.338681
1710,-0.107298,0.965951,0.2353969999999999,0.007047,-1.522806,-0.428345
1711,-0.100521,0.981322,0.163983,0.0552029999999999,-1.0039049999999998,-0.358609
1712,-0.101988,0.988064,0.115395,0.077315,-0.464092,-0.03811
1713,-0.115489,0.985497,0.124279,0.1124069999999999,0.286628,0.4231
1714,-0.139956,0.975043,0.172312,0.213228,0.364068,0.94985
1715,-0.149326,0.973971,0.170497,0.902438,1.448865,-0.345302
1716,-0.114318,0.982304,0.148317,0.754409,1.685863,-1.158999
1717,-0.12078,0.984713,0.125459,0.287421,-0.621173,-0.173585
1718,-0.116772,0.990042,0.078552,0.2444889999999999,-0.972509,-1.339417
1719,-0.084301,0.996213,0.021049,0.320583,-0.796384,-1.388527
1720,-0.008167,0.998656,-0.051086,0.403553,3.001482,-1.614686
1721,0.086476,0.99115,-0.100665,0.205379,3.734039,-0.933393
1722,0.090958,0.971806,-0.217513,-1.522507,1.1844290000000002,2.6637720000000003
1723,0.086171,0.956695,-0.278033,-0.321141,1.159974,0.419832
1724,0.088487,0.937373,-0.336892,0.118773,0.900274,0.8416370000000001
1725,0.104971,0.926748,-0.360712,0.178445,0.27598,1.4932040000000002
1726,0.137455,0.918395,-0.371012,-0.793934,0.090638,0.562739
1727,0.16838,0.9114,-0.375488,-0.980026,-0.376534,0.251618
1728,0.19087,0.904092,-0.382336,-0.475126,-1.261208,0.575955
1729,0.19807,0.8983549999999999,-0.392073,-1.026226,-0.474725,0.8903030000000001
1730,0.193071,0.901496,-0.387329,-1.008653,-0.589179,0.7749020000000001
1731,0.165238,0.917434,-0.3619449999999999,-0.63057,-0.7992090000000001,0.76995
1732,0.120264,0.939063,-0.322011,-0.114221,-0.732993,0.735722
1733,0.085111,0.958293,-0.272805,0.2939179999999999,-0.836284,0.650918
1734,0.070147,0.975941,-0.2064239999999999,0.298719,-0.61063,0.352344
1735,0.067881,0.989972,-0.123851,-0.2777969999999999,1.0747870000000002,-0.0624889999999999
1736,0.063675,0.997352,-0.034986,-0.430054,2.122994,-0.113513
1737,0.053096,0.997709,0.041798,-0.163569,3.296938,1.188763
1738,0.02159,0.994077,0.106458,0.34456,1.568652,-0.064816
1739,-0.0261449999999999,0.98643,0.162053,0.111488,1.259786,-0.324407
1740,-0.066482,0.972272,0.224176,-0.0547799999999999,1.669497,-0.6469060000000001
1741,-0.107946,0.95434,0.278515,-0.220438,0.717429,-0.726833
1742,-0.123885,0.934747,0.332997,0.041563,0.4563359999999999,-0.5794729999999999
1743,-0.118604,0.918506,0.377181,1.0212370000000002,-0.772189,-0.67102
1744,-0.101029,0.909233,0.403823,1.152452,-1.116005,-0.646316
1745,-0.0829309999999999,0.912572,0.4004,1.041793,-1.944326,-0.177439
1746,-0.06799,0.928116,0.36601,0.184521,-2.256928,-0.655546
1747,-0.05483,0.951833,0.301654,0.0402579999999999,-2.096623,-0.809513
1748,-0.0469819999999999,0.973103,0.225502,0.024598,-1.701039,-0.7638159999999999
1749,-0.049466,0.985754,0.160716,0.082379,-0.60314,-0.307902
1750,-0.058592,0.98897,0.135992,-0.0148639999999999,-0.374529,0.114038
1751,-0.070484,0.980881,0.181365,-0.060558,0.5782619999999999,0.747163
1752,-0.093578,0.972421,0.213609,0.526393,0.384101,-0.582063
1753,-0.101922,0.97896,0.176744,0.98916,2.029356,-0.596055
1754,-0.083478,0.976658,0.1978849999999999,0.495343,1.127239,-1.297754
1755,-0.095137,0.979376,0.1782089999999999,0.152403,-1.201086,-0.154619
1756,-0.101639,0.98846,0.112267,0.0376899999999999,-1.401394,-1.7003099999999998
1757,-0.081612,0.996446,0.0205729999999999,0.48185,-0.7231770000000001,-1.422246
1758,0.012575,0.998648,-0.050344,0.402373,2.499857,-1.693491
1759,0.112746,0.988319,-0.10249,-0.016356,3.693917,-0.771915
1760,0.09871,0.972973,-0.20874,-1.650133,0.757771,3.4608760000000003
1761,0.095911,0.960059,-0.262831,0.272375,0.96885,0.996367
1762,0.103003,0.944491,-0.3119619999999999,0.5532159999999999,0.466017,1.045208
1763,0.127884,0.935041,-0.330662,0.6440279999999999,0.145617,1.18488
1764,0.163143,0.926767,-0.3383489999999999,-0.308895,-0.326532,0.627838
1765,0.195035,0.917808,-0.345807,-0.692578,-1.285118,0.200711
1766,0.21368,0.907517,-0.36159,-0.555096,-1.338517,0.828356
1767,0.226505,0.901185,-0.369532,-1.133304,-0.485917,0.661082
1768,0.219979,0.905695,-0.362379,-0.782967,-0.812296,0.510328
1769,0.182818,0.921103,-0.343715,-0.745807,-0.8277040000000001,0.491664
1770,0.13859,0.939778,-0.3124139999999999,0.045827,-0.785054,0.733862
1771,0.113994,0.956228,-0.269492,0.084218,-0.615103,0.218619
1772,0.098413,0.973352,-0.207103,0.099799,-0.6322270000000001,0.1562309999999999
1773,0.081861,0.98804,-0.13064,-0.515409,0.8456389999999999,0.009348
1774,0.0567809999999999,0.996922,-0.053961,-0.35384,2.49615,0.666983
1775,0.025656,0.9996,0.0114349999999999,-0.322714,2.493473,0.601587
1776,-0.007461,0.997464,0.070689,0.748474,1.554568,0.533666
1777,-0.0295709999999999,0.992118,0.121714,0.8918,1.440987,-0.855692
1778,-0.054996,0.985046,0.163239,0.617831,1.673264,-0.951554
1779,-0.108828,0.97326,0.202258,-0.210096,1.6783669999999995,-0.23099
