,gravity.x,gravity.y,gravity.z,userAcceleration.x,userAcceleration.y,userAcceleration.z
0,-0.1446609999999999,0.987564,-0.0615559999999999,0.080208,2.94838,0.295321
1,-0.0927289999999999,0.982558,-0.161184,-1.149901,3.217439,0.614629
2,-0.051722,0.971931,-0.229506,-1.2801870000000002,1.148094,-0.130296
3,-0.01207,0.959765,-0.280543,0.1112829999999999,0.976377,0.771845
4,-0.005342,0.942283,-0.334775,1.332597,0.690438,1.03822
5,-0.030871,0.907393,-0.419147,-0.073834,-0.042464,0.950001
6,-0.055651,0.879626,-0.4723989999999999,-0.979215,-0.971453,1.164004
7,-0.088328,0.866029,-0.492129,-0.54601,-1.619569,1.500369
8,-0.111176,0.8661399999999999,-0.48728,-0.2075489999999999,-2.600026,2.086401
9,-0.097422,0.88125,-0.462501,-0.351171,-2.559335,2.0399700000000003
10,-0.060757,0.904991,-0.421068,-0.592761,-1.605843,1.053621
11,-0.0358519999999999,0.934722,-0.353566,-0.212576,-0.681228,0.187016
12,-0.015281,0.961715,-0.273622,0.529578,0.3322449999999999,-1.347304
13,0.024062,0.970873,-0.2383809999999999,2.039185,2.364729,-2.366188
14,0.032835,0.975043,-0.219571,0.1085839999999999,-1.057334,1.204465
15,0.052898,0.971402,-0.2314699999999999,-0.561153,-0.691281,1.340143
16,0.089151,0.96351,-0.252386,-1.375818,2.046926,1.193624
17,0.042225,0.977765,-0.205404,-1.820728,0.710681,1.242727
18,-0.019551,0.986436,-0.162974,-1.468883,-0.440202,0.866145
19,-0.090816,0.988126,-0.123932,-0.835636,0.056613,1.262879
20,-0.14952,0.98657,-0.065748,-0.221421,1.293765,1.5439120000000002
21,-0.196535,0.980494,0.001957,0.887774,4.26093,-0.936985
22,-0.2155119999999999,0.957294,0.19272,1.061368,4.067623,-1.076906
23,-0.193905,0.928747,0.315959,0.084744,1.280406,-3.017543
24,-0.155737,0.932914,0.32468,-0.178049,0.154076,-0.4559359999999999
25,-0.139645,0.921852,0.361509,-0.544193,-0.960609,-0.379454
26,-0.139279,0.898792,0.4156609999999999,0.171643,-1.465244,-1.850887
27,-0.11534,0.896767,0.427206,0.825683,-0.810098,-1.851293
28,-0.122678,0.903479,0.410702,0.505933,-0.589666,-0.643475
29,-0.159295,0.915482,0.369482,0.313195,-0.796021,-0.601477
30,-0.179031,0.928612,0.325003,-0.076233,-0.669991,-1.064093
31,-0.167375,0.941248,0.293321,-0.002226,-0.416041,-1.107759
32,-0.162079,0.959336,0.231093,0.1665039999999999,-0.268845,-0.818129
33,-0.173192,0.975527,0.135467,0.216786,-0.064608,-0.566635
34,-0.18374,0.982019,0.043329,0.293375,0.5341090000000001,-0.030725
35,-0.186571,0.980826,-0.056316,0.271394,2.996515,0.202296
36,-0.156844,0.973191,-0.168222,-0.589128,3.850631,0.148477
37,-0.102358,0.961694,-0.254299,-0.482512,2.037528,0.064785
38,-0.030243,0.948786,-0.3144679999999999,-0.214767,1.745443,-0.115952
39,0.02431,0.930347,-0.365873,0.7114689999999999,1.057507,0.626188
40,-0.005536,0.8817290000000001,-0.471724,1.701398,1.227097,1.006637
41,-0.082187,0.8209540000000001,-0.565049,-0.611172,-0.41655,1.200226
42,-0.1509589999999999,0.781826,-0.604945,-0.816952,-0.98016,1.588832
43,-0.20368,0.764368,-0.611765,-0.5436949999999999,-1.802576,1.848078
44,-0.2227239999999999,0.769586,-0.598441,-0.23948,-2.234887,2.231528
45,-0.197714,0.802471,-0.562983,-0.359705,-1.926815,1.755472
46,-0.145469,0.846699,-0.5118,0.109489,-1.195042,1.303152
47,-0.08373,0.888368,-0.451433,0.464056,-0.493272,0.399522
48,-0.031451,0.922971,-0.383581,0.4808989999999999,0.210482,-1.381129
49,0.012431,0.936498,-0.350452,1.575948,1.832698,-2.087643
50,0.033317,0.947484,-0.318063,0.144066,-0.616963,1.349222
51,0.061887,0.949442,-0.30778,-0.1910069999999999,-1.927866,2.021831
52,0.105601,0.948357,-0.299112,-1.314082,0.275124,-1.109579
53,0.071897,0.975991,-0.205603,-1.413542,1.338813,1.392935
54,-0.00886,0.996754,-0.080019,-1.834371,0.342953,0.738314
55,-0.0594639999999999,0.99788,-0.026422,-0.336303,0.175368,0.7493989999999999
56,-0.120624,0.992657,-0.009061,0.008747,0.700642,0.901623
57,-0.184118,0.982686,0.020708,0.743978,2.490749,1.62216
58,-0.192173,0.967754,0.162852,1.255344,3.650578,-0.474421
59,-0.190791,0.922192,0.336393,-0.782537,1.432819,-4.184431
60,-0.162253,0.915931,0.367076,-0.218423,0.292871,-0.3628949999999999
61,-0.166224,0.906577,0.387927,0.002955,-0.843864,-0.666171
62,-0.187556,0.886658,0.422683,0.762324,-1.287659,-1.451156
63,-0.18987,0.8837379999999999,0.427733,1.08637,-0.986857,-1.555312
64,-0.183706,0.888533,0.42043,1.109823,-0.770171,-1.314915
65,-0.17574,0.903313,0.391333,0.510411,-0.545235,-0.687322
66,-0.158361,0.923062,0.35054,-0.274958,-0.6125149999999999,-0.8079529999999999
67,-0.128247,0.942575,0.308392,-0.587893,-0.507363,-0.981717
68,-0.105566,0.962384,0.250346,-0.451105,-0.0545779999999999,-0.706919
69,-0.112454,0.97914,0.16923,0.158246,0.765382,-0.235926
70,-0.133173,0.988655,0.0694679999999999,0.3435,1.429924,-0.2081239999999999
71,-0.1228099999999999,0.991924,-0.031677,-0.024346,2.870045,0.344207
72,-0.097998,0.98609,-0.134248,-1.182886,3.253778,0.4727939999999999
73,-0.073044,0.976069,-0.204827,-1.419159,2.07572,0.168816
74,-0.034009,0.965489,-0.258213,0.082548,0.930767,0.139606
75,-0.0222039999999999,0.948466,-0.316098,1.086611,0.775655,0.8734559999999999
76,-0.050192,0.916612,-0.396613,0.849142,0.374785,0.780234
77,-0.087873,0.8833270000000001,-0.460446,-0.554537,-0.542369,1.091748
78,-0.1206309999999999,0.86377,-0.4892319999999999,-0.500997,-1.248749,1.492558
79,-0.148233,0.8582540000000001,-0.491352,-0.161292,-2.125648,2.000278
80,-0.154806,0.8660389999999999,-0.475405,-0.222025,-2.702709,2.127168
81,-0.129712,0.8863,-0.4445729999999999,-0.349825,-2.307199,1.873268
82,-0.0917419999999999,0.916828,-0.3885969999999999,-0.196115,-1.451191,1.123369
83,-0.064624,0.949382,-0.307402,0.30437,-0.284923,-0.002825
84,-0.03471,0.973238,-0.227158,1.386639,2.06793,-2.735107
85,-0.008137,0.978712,-0.2050719999999999,1.360065,2.062456,-2.757193
86,0.007042,0.984094,-0.177503,0.4769819999999999,-0.887033,1.27989
87,0.047382,0.982433,-0.180492,-0.29288,-1.592327,1.489223
88,0.10469,0.975312,-0.194432,-0.928528,-0.322999,0.914158
89,0.067864,0.988183,-0.137424,-2.1041950000000003,1.619605,1.413196
90,0.018522,0.996502,-0.081467,-1.408354,-0.110821,0.652512
91,-0.039217,0.998701,-0.032476,-0.662138,-0.47006,1.022192
92,-0.09484,0.99546,0.007831,-0.078927,0.78399,1.7943080000000002
93,-0.141179,0.989203,0.039267,0.31934,3.366525,2.089181
94,-0.153705,0.973644,0.16849,0.7157020000000001,3.68932,-2.259677
95,-0.134779,0.913495,0.383871,-0.7634449999999999,2.122668,-4.929296
96,-0.129582,0.914451,0.383386,-0.2288469999999999,0.4936,-1.170526
97,-0.148833,0.8979379999999999,0.414189,0.173644,-0.575062,-0.404301
98,-0.172464,0.871626,0.458825,0.5704899999999999,-1.373961,-1.874321
99,-0.1537619999999999,0.874086,0.460788,1.03839,-0.861773,-1.474949
100,-0.1477109999999999,0.884861,0.441813,0.929739,-0.644062,-1.041254
101,-0.157095,0.901539,0.4031679999999999,0.133429,-0.823124,-0.726166
102,-0.149331,0.922827,0.355085,-0.370154,-0.442938,-1.002104
103,-0.1240339999999999,0.94485,0.303101,-0.535008,-0.257228,-1.143006
104,-0.1050849999999999,0.966836,0.2327719999999999,-0.130664,0.2444219999999999,-0.378646
105,-0.124296,0.981908,0.142846,0.338163,1.334956,-0.282494
106,-0.140227,0.988992,0.047211,0.505171,2.113287,-0.26799
107,-0.125243,0.990532,-0.0561929999999999,-0.295548,3.582313,0.211223
108,-0.10336,0.981955,-0.158367,-0.80405,3.229517,0.382106
109,-0.066732,0.970141,-0.233177,-1.096125,1.537611,0.112312
110,-0.02332,0.95917,-0.281865,0.324833,0.831617,0.7671560000000001
111,-0.019533,0.94061,-0.338924,1.354967,0.680606,0.8816790000000001
112,-0.061233,0.900384,-0.4307649999999999,0.986953,0.406242,0.967935
113,-0.092843,0.870243,-0.483793,-0.560752,-1.124394,1.446272
114,-0.1219119999999999,0.856292,-0.501897,-0.4207359999999999,-1.865783,1.742879
115,-0.136232,0.858037,-0.495189,-0.2563,-2.456014,2.242854
116,-0.122787,0.87472,-0.468816,-0.380952,-2.34411,1.863103
117,-0.0876779999999999,0.901152,-0.424542,-0.425185,-1.583815,1.251553
118,-0.060626,0.932781,-0.355306,-0.2172369999999999,-0.69862,0.555669
119,-0.055552,0.962974,-0.263805,0.288722,-0.101677,0.010525
120,-0.039577,0.982052,-0.1844039999999999,1.551937,2.324085,-3.096877
121,-0.011842,0.985001,-0.1721349999999999,0.915055,0.8728790000000001,-1.138549
122,-0.004171,0.98689,-0.161332,0.379766,-0.984067,1.26732
123,0.040967,0.980629,-0.1915339999999999,-0.4302189999999999,-0.240838,0.962942
124,0.079572,0.973328,-0.2151719999999999,-1.420056,1.442978,1.04113
125,0.056614,0.982653,-0.176597,-1.666675,0.040541,1.077964
126,-0.000304,0.994085,-0.108593,-1.495561,-0.451711,1.219891
127,-0.0670419999999999,0.996762,-0.04437,-0.774297,0.13013,1.482434
128,-0.128053,0.991697,0.011752,-0.171737,1.351428,1.7551849999999998
129,-0.171542,0.983232,0.0618509999999999,0.185031,4.20172,0.451684
130,-0.181213,0.950331,0.2530429999999999,0.864898,3.230486,-2.719153
131,-0.188265,0.901157,0.390473,-0.022947,1.140958,-3.659654
132,-0.17198,0.90966,0.378071,-0.132952,0.334389,0.036052
133,-0.206669,0.890232,0.405919,-0.023174,-0.8552139999999999,-0.370137
134,-0.2349949999999999,0.863502,0.446248,0.6357520000000001,-1.7545389999999998,-2.113744
135,-0.201217,0.854331,0.479192,1.392547,-0.763694,-2.094152
136,-0.197539,0.865693,0.459946,0.8722219999999999,-0.52884,-0.767654
137,-0.222914,0.8859610000000001,0.406667,0.340437,-0.7604420000000001,-0.942205
138,-0.209352,0.905759,0.3684699999999999,-0.171767,-0.572522,-0.819565
139,-0.183127,0.927521,0.325833,-0.2185909999999999,-0.23822,-0.8371860000000001
140,-0.173869,0.950927,0.255938,0.050303,-0.016266,-0.319033
141,-0.187169,0.96884,0.162217,0.497899,0.850816,-0.046922
142,-0.177857,0.981557,0.070084,0.752533,2.227641,-0.393982
143,-0.143735,0.989474,-0.016747,0.411542,2.296567,0.116158
144,-0.106767,0.98738,-0.116963,-1.088011,3.534928,0.1647539999999999
145,-0.083597,0.977338,-0.1944779999999999,-1.509786,1.822116,0.034947
146,-0.04706,0.965808,-0.254948,0.197008,0.712414,0.748829
147,-0.027912,0.953336,-0.300617,1.416187,0.755893,1.039111
148,-0.055677,0.921791,-0.383667,-0.056933,-0.274238,0.997436
149,-0.0845539999999999,0.891666,-0.444726,-0.7529859999999999,-1.074833,1.1746450000000002
150,-0.114213,0.8777280000000001,-0.465347,-0.437179,-1.818707,1.644225
151,-0.14414,0.8785790000000001,-0.455326,-0.169184,-2.262628,1.961215
152,-0.153258,0.890041,-0.429346,-0.202516,-2.550442,2.111002
153,-0.130138,0.909081,-0.395771,-0.313801,-1.728478,1.02306
154,-0.1028289999999999,0.936507,-0.335232,-0.295807,-1.108947,0.616512
155,-0.09029,0.965136,-0.245684,0.601154,0.579328,-2.004011
156,-0.0596429999999999,0.979571,-0.192052,1.577679,2.233747,-3.3789620000000005
157,-0.042372,0.983438,-0.176222,0.8562299999999999,0.082663,-0.093477
158,-0.027937,0.983456,-0.178978,0.316816,-1.594586,1.7583080000000002
159,0.004769,0.976218,-0.216736,-0.55967,-0.682395,1.394257
160,0.0503459999999999,0.970594,-0.2353969999999999,-1.0966870000000002,1.385012,0.620621
161,0.0066319999999999,0.981259,-0.192576,-2.238734,0.557605,0.5328470000000001
162,-0.056473,0.989106,-0.13594,-1.013794,-0.535752,1.069931
163,-0.118616,0.990874,-0.064016,-0.303198,-0.0152419999999999,1.552358
164,-0.172214,0.985058,-0.001267,-0.083325,1.936969,2.013443
165,-0.198875,0.977849,0.0652539999999999,0.5933149999999999,5.45315,-1.58152
166,-0.195463,0.936693,0.290516,-0.350893,2.467909,-4.762257
167,-0.1872589999999999,0.907165,0.376809,-0.043088,1.059907,-2.0388580000000003
168,-0.187348,0.910486,0.368666,0.236253,-0.1392,0.326448
169,-0.231692,0.8857450000000001,0.40221,0.184527,-1.36745,-1.13509
170,-0.235348,0.8664370000000001,0.440337,0.818386,-1.656797,-1.895522
171,-0.183253,0.86829,0.4609649999999999,1.0606950000000002,-0.860768,-1.702084
172,-0.153846,0.8822049999999999,0.445022,1.007209,-0.617633,-1.586273
173,-0.166924,0.897566,0.408056,-0.2370679999999999,-0.881713,-0.617895
174,-0.185801,0.915587,0.356619,-0.172933,-0.46524,-0.6856899999999999
175,-0.184363,0.93724,0.295958,-0.093988,0.006455,-0.655302
176,-0.193844,0.957417,0.213956,0.511425,0.571087,-0.2768989999999999
177,-0.230054,0.967175,0.107923,0.6500819999999999,1.7424650000000002,-0.539273
178,-0.222411,0.97486,0.0134919999999999,0.8545969999999999,2.131555,-0.3685489999999999
179,-0.1890349999999999,0.978024,-0.087945,-0.289511,3.238818,0.284249
180,-0.158408,0.968208,-0.193598,-1.621316,3.247368,0.077769
181,-0.120277,0.956409,-0.266112,-0.83831,1.154767,0.15222
182,-0.074064,0.946305,-0.314678,0.20738,0.8243860000000001,0.914059
183,-0.07287,0.920771,-0.383236,1.6655369999999998,0.695562,0.906887
184,-0.119113,0.873899,-0.471288,-0.0552039999999999,-0.177747,1.203603
185,-0.154325,0.841251,-0.518151,-0.710497,-1.067066,1.39869
186,-0.185053,0.829018,-0.527716,-0.442617,-1.837731,1.763693
187,-0.204454,0.833651,-0.513054,-0.144011,-2.576235,2.412865
188,-0.192117,0.8561780000000001,-0.4796359999999999,-0.291434,-2.111243,1.841758
189,-0.158804,0.886699,-0.43422,-0.045694,-0.935405,1.058808
190,-0.130288,0.924511,-0.358196,0.100121,-0.560116,0.631679
191,-0.099545,0.959687,-0.262854,1.509503,2.312957,-3.950052
192,-0.050897,0.966453,-0.25175,1.837106,3.091988,-3.417851
193,-0.035073,0.970152,-0.239946,0.545479,-1.1575,1.475816
194,0.007095,0.966561,-0.256337,-0.6598970000000001,-0.380136,0.644139
195,0.054349,0.956379,-0.287028,-1.440015,1.225124,1.516139
196,0.038568,0.964373,-0.26172,-1.614862,0.449766,1.741929
197,-0.001411,0.978124,-0.2080159999999999,-1.598,-0.3315329999999999,1.7575310000000002
198,-0.060853,0.990881,-0.1202119999999999,-0.743896,0.530084,1.865512
199,-0.120056,0.991423,-0.051625,-0.182587,1.682222,1.989797
200,-0.174476,0.984654,0.0037619999999999,0.1216339999999999,4.657299,0.693367
201,-0.191406,0.965478,0.176677,0.367996,3.492652,-4.661021
202,-0.192069,0.921274,0.338175,-0.352716,1.941794,-5.140421
203,-0.174055,0.929782,0.324359,0.049681,0.027097,0.1531799999999999
204,-0.196832,0.914799,0.352702,0.205789,-1.162434,-0.643245
205,-0.219794,0.8950600000000001,0.388015,0.4290529999999999,-1.604945,-1.432174
206,-0.185033,0.8883719999999999,0.4201859999999999,1.22759,-1.067998,-1.956074
207,-0.132908,0.897123,0.421311,0.613789,-0.460203,-1.1105969999999998
208,-0.131991,0.915912,0.379053,0.0361509999999999,-0.622851,-0.647471
209,-0.153226,0.933292,0.324786,-0.373538,-0.6534909999999999,-0.833575
210,-0.160028,0.951089,0.264232,-0.421912,-0.198419,-0.7025710000000001
211,-0.156214,0.968928,0.191764,-0.0902309999999999,-0.059047,-0.4491489999999999
212,-0.165535,0.979775,0.112409,0.213463,0.382896,-0.40373
213,-0.194175,0.980664,0.024311,0.524894,1.600863,-0.176471
214,-0.205271,0.975389,-0.080483,0.355296,3.405501,-0.240058
215,-0.184953,0.963887,-0.191606,-0.7455890000000001,3.517864,0.413774
216,-0.1554559999999999,0.943746,-0.291846,-1.065903,1.796625,0.31124
217,-0.111641,0.924228,-0.365152,-0.465156,0.926785,0.231485
218,-0.081969,0.909002,-0.408649,1.18994,0.98881,1.021946
219,-0.120098,0.867239,-0.483188,1.30386,0.5388890000000001,0.941944
220,-0.159383,0.826743,-0.539529,-0.631587,-0.93737,1.210091
221,-0.198408,0.804461,-0.5598890000000001,-0.489199,-1.286776,1.509062
222,-0.227489,0.802458,-0.551642,-0.164189,-2.182204,1.789953
223,-0.238251,0.819765,-0.520788,0.055115,-2.382082,2.251089
224,-0.216719,0.853142,-0.474531,-0.095399,-2.069726,1.904981
225,-0.172704,0.890094,-0.421786,0.07462,-0.728122,1.0488
226,-0.1290099999999999,0.928389,-0.348493,0.232709,-0.025176,-0.022601
227,-0.081227,0.954127,-0.288169,1.126652,2.070119,-4.195992
228,-0.054352,0.956504,-0.2866059999999999,1.22374,1.053277,-1.206298
229,-0.030644,0.963247,-0.266859,0.4343609999999999,-1.274389,1.713148
230,0.026416,0.953089,-0.301531,-0.641971,-0.213038,1.31328
231,0.029216,0.957753,-0.286097,-1.3365280000000002,0.355143,1.5970719999999998
232,-0.0084689999999999,0.976535,-0.215187,-1.298843,0.336362,1.526161
233,-0.047284,0.990908,-0.125943,-1.050235,0.043302,1.410916
234,-0.094093,0.994099,-0.0539409999999999,-0.5072409999999999,0.8377030000000001,1.57364
235,-0.155468,0.987836,0.002078,-0.230778,1.421999,1.659101
236,-0.196016,0.978206,0.068455,0.157564,4.342839,1.070294
237,-0.200797,0.933181,0.298074,0.611105,3.560761,-3.884973000000001
238,-0.217731,0.909122,0.355083,0.123691,1.038006,-3.504756
239,-0.191345,0.920395,0.340962,0.273986,-0.5432130000000001,0.273723
240,-0.218451,0.903786,0.368028,0.2721929999999999,-1.575218,-1.174928
241,-0.224025,0.88708,0.403605,0.594294,-1.6677349999999995,-1.6829169999999998
242,-0.180077,0.885963,0.427361,1.114342,-0.611213,-1.760323
243,-0.146671,0.896653,0.417728,0.54987,-0.505692,-0.7548560000000001
244,-0.153507,0.915088,0.372888,-0.15054,-0.799212,-0.980142
245,-0.147445,0.934375,0.324346,-0.298021,-0.434222,-0.539632
246,-0.132366,0.95699,0.25816,-0.439793,-0.124501,-0.869778
247,-0.1205519999999999,0.975893,0.181924,-0.211143,0.199476,-0.407114
248,-0.141076,0.985209,0.097246,0.257424,1.207769,-0.370501
249,-0.162097,0.986746,0.007365,0.531558,3.325678,-0.144786
250,-0.159596,0.982009,-0.10092,-0.617534,3.4666910000000004,0.216338
251,-0.141375,0.968278,-0.206026,-0.976468,2.321532,0.298678
252,-0.115874,0.950703,-0.287635,-0.3664409999999999,1.074626,0.414618
253,-0.081076,0.933327,-0.349749,-0.196985,0.839958,0.662982
254,-0.0824889999999999,0.907503,-0.411863,1.443039,0.684431,1.208066
255,-0.125726,0.8614629999999999,-0.492008,-0.065116,-0.4689609999999999,1.039311
256,-0.159201,0.831557,-0.532134,-0.645181,-0.997389,1.209915
257,-0.191883,0.8221639999999999,-0.535934,-0.391094,-1.951559,1.781448
258,-0.2081849999999999,0.8307479999999999,-0.516251,-0.112417,-2.536391,2.223206
259,-0.189123,0.85788,-0.477779,-0.086237,-2.528046,2.136852
260,-0.151841,0.8934469999999999,-0.4227229999999999,0.008011,-1.137725,1.322351
261,-0.122119,0.931108,-0.343688,0.173816,-0.2932599999999999,0.351257
262,-0.095024,0.96267,-0.253445,0.331993,0.037575,-0.303561
263,-0.059235,0.970518,-0.233628,1.060623,0.835909,-1.106093
264,-0.045185,0.974959,-0.217738,0.427738,-1.11006,1.517833
265,-0.0062369999999999,0.971233,-0.2380409999999999,-0.297138,-0.8248559999999999,2.145771
266,0.032333,0.957728,-0.2858469999999999,-1.333206,0.8838860000000001,1.512379
267,0.019709,0.967687,-0.251376,-1.724939,-0.575659,1.855837
268,-0.01433,0.985799,-0.1673059999999999,-1.7433299999999998,-0.334157,1.749399
269,-0.06773,0.99416,-0.084,-0.804096,0.6602140000000001,1.412293
270,-0.130394,0.991124,-0.025825,-0.299293,1.898769,1.489372
271,-0.181457,0.982755,0.035528,-0.169373,3.26163,1.361186
272,-0.1912039999999999,0.963349,0.188135,-0.0114019999999999,2.598388,-3.793512
273,-0.19865,0.910337,0.363071,-0.065083,0.955386,-2.408298
274,-0.188309,0.915475,0.355582,0.141343,-0.062494,0.1693349999999999
275,-0.210799,0.904721,0.370187,0.20346,-1.235486,-0.649026
276,-0.242069,0.8829940000000001,0.402142,0.937701,-1.657714,-1.79208
277,-0.215952,0.8746940000000001,0.433902,1.199564,-0.803633,-1.681888
278,-0.180071,0.878409,0.442681,0.8255020000000001,-0.55123,-1.1255110000000002
279,-0.1736069999999999,0.8944,0.4121939999999999,-0.0469889999999999,-0.815649,-0.940453
280,-0.181789,0.912457,0.366564,-0.3109929999999999,-0.5920380000000001,-0.65967
281,-0.178367,0.931731,0.316318,-0.256249,-0.192045,-0.557056
282,-0.169726,0.952631,0.252353,0.115282,0.156851,-0.151142
283,-0.1706,0.971071,0.167068,0.1837079999999999,0.636824,0.023408
284,-0.159619,0.98346,0.085577,0.2128719999999999,1.761611,-0.546194
285,-0.1418869999999999,0.98985,0.007814,-0.5945630000000001,3.048541,-0.057451
286,-0.134479,0.987351,-0.083961,-1.216015,4.061126,0.093909
287,-0.124541,0.976842,-0.173971,-1.037568,1.385143,0.166021
288,-0.07466,0.966521,-0.245481,0.0537399999999999,0.90616,0.8868530000000001
289,-0.0350139999999999,0.955504,-0.292887,1.439174,1.189912,0.999537
290,-0.0292029999999999,0.924532,-0.379981,1.077513,0.4163189999999999,0.7309479999999999
291,-0.074938,0.8768549999999999,-0.474877,-0.453916,-0.755898,1.192116
292,-0.128317,0.8421549999999999,-0.523745,-0.504831,-1.01995,1.336977
293,-0.178189,0.827032,-0.533166,-0.0813789999999999,-2.258001,2.174203
294,-0.195204,0.8364280000000001,-0.512135,-0.083772,-2.578738,2.13216
295,-0.176574,0.865607,-0.468555,-0.147889,-2.241279,1.765705
296,-0.138001,0.901419,-0.410363,0.21666,-0.72785,0.944985
297,-0.094873,0.938647,-0.33157,0.220575,-0.17702,-0.031467
298,-0.047163,0.966301,-0.253055,0.918134,1.616677,-3.37428
299,-0.01614,0.968729,-0.247592,0.909863,1.114294,-1.714429
300,-0.007656,0.973556,-0.228317,0.448681,-0.784148,1.348083
301,0.036107,0.970022,-0.240314,-0.962331,0.088419,0.228794
302,0.054482,0.969052,-0.240765,-1.241967,0.2062719999999999,1.848324
303,0.0427899999999999,0.978537,-0.201575,-1.6402169999999998,-0.244223,1.520316
304,0.008563,0.990416,-0.137842,-1.508716,-0.100371,1.497522
305,-0.045604,0.99743,-0.0552419999999999,-0.453297,0.435645,1.591452
306,-0.106531,0.99429,-0.0060149999999999,0.023356,1.941211,1.55437
307,-0.1697779999999999,0.985125,0.02646,0.1867,3.791791,-0.204927
308,-0.180928,0.960027,0.213565,-0.0251419999999999,2.5111950000000003,-3.978778
309,-0.178727,0.926957,0.329853,-0.338042,1.030471,-1.554477
310,-0.14698,0.933558,0.326897,-0.08329,0.387044,-0.4911729999999999
311,-0.149547,0.921928,0.357323,-0.092488,-1.25579,-0.982353
312,-0.177014,0.8875370000000001,0.425368,0.802503,-1.610255,-2.342086
313,-0.137956,0.875807,0.4625189999999999,1.078554,-1.107451,-2.352473
314,-0.0870799999999999,0.8865209999999999,0.4544149999999999,0.282026,-0.5512699999999999,-0.700448
315,-0.101885,0.901483,0.4206439999999999,-0.288114,-0.767145,-0.671986
316,-0.127885,0.92057,0.369041,-0.486114,-0.6550819999999999,-1.013587
317,-0.119147,0.939908,0.319956,-0.604913,-0.342892,-0.601969
318,-0.109871,0.961786,0.250781,-0.013909,0.2647,-0.114962
319,-0.124126,0.978199,0.166475,0.2244679999999999,0.8821829999999999,-0.022935
320,-0.143193,0.986921,0.07402,0.450047,3.245593,-0.80519
321,-0.143574,0.98942,-0.020752,-0.6066699999999999,3.2017580000000003,0.183334
322,-0.135926,0.982383,-0.128238,-1.11116,3.496972,0.2292969999999999
323,-0.126496,0.965134,-0.229155,-1.168197,0.917114,0.508162
324,-0.079941,0.949396,-0.303732,-0.023925,0.404287,1.133642
325,-0.067789,0.931635,-0.357014,0.813409,0.497931,1.363392
326,-0.092189,0.898193,-0.429822,0.714382,0.002442,0.920194
327,-0.125443,0.860089,-0.494478,-0.540695,-1.360745,1.380281
328,-0.159923,0.8393209999999999,-0.519579,-0.337636,-1.831951,1.547732
329,-0.198069,0.834835,-0.51363,-0.008596,-2.5673790000000003,2.125737
330,-0.210167,0.849642,-0.4836689999999999,-0.00782,-2.615785,2.143398
331,-0.186495,0.8764870000000001,-0.443833,-0.127669,-2.341422,1.801133
332,-0.144701,0.910127,-0.388237,0.030107,-0.653809,0.633888
333,-0.1082119999999999,0.945892,-0.305899,0.219952,0.2575679999999999,-0.634774
334,-0.065112,0.968887,-0.238778,1.125033,2.452851,-3.022254
335,-0.043711,0.972055,-0.230636,0.805796,0.505713,-1.005478
336,-0.035862,0.973133,-0.227425,0.269596,-1.049335,1.849954
337,0.012234,0.963388,-0.267825,-1.083432,0.8817969999999999,-0.48985
338,0.032067,0.963021,-0.267503,-1.198418,0.528037,1.830613
339,0.034767,0.972408,-0.230674,-1.090767,-0.153224,1.558585
340,-0.0065969999999999,0.990907,-0.134367,-1.147441,0.133696,2.232497
341,-0.062777,0.996411,-0.056728,-0.307859,0.159198,1.597698
342,-0.124663,0.992066,-0.016045,-0.098756,1.225509,1.605538
343,-0.171983,0.984684,0.028491,-0.093566,4.101314,0.461591
344,-0.170034,0.960997,0.2180929999999999,-0.557322,1.90561,-4.445434
345,-0.1724089999999999,0.930571,0.3229619999999999,-0.255951,1.265489,-2.364573
346,-0.157183,0.936809,0.312529,0.104372,-0.026317,-0.0026079999999999
347,-0.179463,0.920677,0.34661,0.258915,-1.501091,-0.940589
348,-0.208085,0.8983270000000001,0.386912,0.904877,-1.486934,-1.83639
349,-0.1814309999999999,0.8899520000000001,0.418401,1.262638,-0.669737,-2.146291
350,-0.1162329999999999,0.892912,0.434958,0.152732,-0.410642,-0.896216
351,-0.099333,0.911601,0.398881,-0.4235399999999999,-0.825725,-0.710145
352,-0.123015,0.930639,0.344629,-0.658144,-0.359197,-0.956156
353,-0.134779,0.950969,0.278358,-0.283236,0.062138,-0.4684359999999999
354,-0.140463,0.971353,0.191661,0.218603,0.725622,-0.4015309999999999
355,-0.165525,0.982218,0.088545,0.40933,1.155095,-0.483076
356,-0.181445,0.983275,-0.015496,0.435306,2.289384,-0.290702
357,-0.165622,0.978964,-0.1191329999999999,-1.003552,3.865381,0.206779
358,-0.138005,0.962754,-0.232496,-1.031169,3.881592,0.320142
359,-0.09202,0.944739,-0.314634,-0.22788,1.00631,0.313963
360,-0.055598,0.925438,-0.37479,0.931545,0.921821,1.200047
361,-0.052671,0.902218,-0.428047,1.291883,0.925328,1.134758
362,-0.103427,0.8525950000000001,-0.512232,-0.379224,-0.596827,1.115045
363,-0.158356,0.8106770000000001,-0.563669,-0.6863239999999999,-1.27372,1.349954
364,-0.199049,0.7945949999999999,-0.57358,-0.490252,-1.625025,1.5657370000000002
365,-0.219976,0.8025220000000001,-0.554585,0.064336,-2.487825,2.259953
366,-0.2159739999999999,0.8316209999999999,-0.511622,-0.0068189999999999,-2.248247,2.008082
367,-0.186728,0.871876,-0.452725,-0.022547,-1.770863,1.750668
368,-0.145432,0.912741,-0.381769,0.19046,0.084939,0.350534
369,-0.096926,0.949371,-0.298823,0.697237,1.971802,-3.575308
370,-0.0420269999999999,0.955571,-0.291741,1.042729,2.8652610000000003,-3.651985
371,-0.032934,0.959571,-0.279524,0.60317,-1.163672,1.572859
372,-0.000408,0.962527,-0.271175,-0.197804,-1.704272,2.158214
373,0.065954,0.955193,-0.288531,-0.8141689999999999,-0.412331,1.010974
374,0.064296,0.969,-0.238538,-2.20898,0.777766,1.416074
375,0.041649,0.98754,-0.1517369999999999,-1.17376,-0.013052,0.778584
376,0.000124,0.997378,-0.072325,-0.87546,-0.119341,1.11621
377,-0.063443,0.997703,-0.023565,0.036541,1.268364,1.798604
378,-0.122563,0.99222,0.021659,0.345418,3.01782,1.455163
379,-0.134184,0.985088,0.107642,0.72238,4.200092,0.366327
380,-0.141735,0.937017,0.319217,-0.975956,1.551844,-5.419635
381,-0.145149,0.926319,0.347638,-0.175637,0.640087,-0.8703280000000001
382,-0.138798,0.929462,0.3417949999999999,0.0084879999999999,-0.729862,0.012407
383,-0.175116,0.907014,0.382946,0.35015,-1.632844,-1.313244
384,-0.176727,0.8907950000000001,0.418616,1.145386,-1.218523,-1.9443580000000005
385,-0.15257,0.8909040000000001,0.4277859999999999,1.259549,-0.5569649999999999,-1.475469
386,-0.149767,0.906953,0.393692,0.610445,-0.631624,-0.8257909999999999
387,-0.145842,0.926275,0.347467,-0.130449,-0.813207,-0.72172
388,-0.1265349999999999,0.947862,0.292466,-0.26766,-0.563859,-0.711747
389,-0.107168,0.968096,0.226485,-0.479701,-0.014483,-0.429672
390,-0.1060359999999999,0.982726,0.151645,0.191775,0.852677,-0.300067
391,-0.129648,0.989321,0.066534,0.68104,2.753157,-0.1943869999999999
392,-0.148787,0.988316,-0.032949,-0.010957,3.261348,0.148321
393,-0.131544,0.980687,-0.144716,-0.4859489999999999,3.542842,0.2162639999999999
394,-0.105702,0.964425,-0.2422889999999999,-1.054485,1.998816,0.487437
395,-0.064345,0.950176,-0.304992,-0.55835,0.7471810000000001,0.429625
396,-0.018759,0.938015,-0.346078,1.077795,0.7352479999999999,1.33033
397,-0.032129,0.912023,-0.4088719999999999,1.6993349999999998,0.773478,1.344511
398,-0.075866,0.8721049999999999,-0.4833979999999999,-0.692033,-1.184132,1.063705
399,-0.100437,0.8490209999999999,-0.518721,-0.5898100000000001,-1.773857,1.471586
400,-0.1263099999999999,0.8469780000000001,-0.516401,-0.371142,-2.105523,1.596311
401,-0.141772,0.862038,-0.4866069999999999,-0.048475,-2.41787,2.026311
402,-0.131271,0.8891040000000001,-0.438472,-0.32753,-2.052709,1.422023
403,-0.104521,0.917528,-0.383683,-0.4158949999999999,-1.358431,0.971802
404,-0.084368,0.945878,-0.313357,0.181505,-0.022812,-0.314054
405,-0.056638,0.969575,-0.238141,1.397825,2.653152,-3.429339
406,-0.014206,0.971076,-0.238335,1.274307,1.873742,-2.140708
407,0.002208,0.976447,-0.215734,0.35767,-1.603293,1.792531
408,0.041513,0.973764,-0.223726,-0.612451,0.0316829999999999,0.795794
409,0.082744,0.968255,-0.235861,-1.189159,1.227088,-0.115396
410,0.062386,0.979181,-0.193146,-1.534203,-0.12887,1.096268
411,0.015372,0.989826,-0.141424,-1.212668,0.060909,1.467718
412,-0.046517,0.995837,-0.078346,-0.407539,0.4375439999999999,1.619576
413,-0.103288,0.994325,-0.025345,-0.041274,1.636352,1.515351
414,-0.148822,0.988322,0.032603,0.102694,3.79038,0.647237
415,-0.150222,0.973712,0.171197,0.817153,4.076428,-2.666055
416,-0.162664,0.925271,0.342641,-0.412943,1.059043,-2.921911
417,-0.149881,0.927977,0.341149,-0.006384,0.164643,-0.2328719999999999
418,-0.155477,0.921139,0.3568179999999999,0.150045,-0.39529,0.0747159999999999
419,-0.193522,0.892709,0.406951,0.5450689999999999,-1.548196,-1.4120629999999998
420,-0.192904,0.877511,0.439033,1.2076129999999998,-0.780618,-1.90728
421,-0.15615,0.875393,0.457484,1.170859,-0.7785,-1.925731
422,-0.125154,0.890975,0.436449,0.188615,-0.556823,-1.017275
423,-0.130171,0.911329,0.390542,-0.322694,-0.449872,-0.705773
424,-0.134149,0.93314,0.333529,-0.318717,-0.471684,-0.64876
425,-0.1232289999999999,0.956398,0.264777,-0.387422,0.044945,-0.341514
426,-0.124799,0.97503,0.183661,0.440442,1.622214,-0.489676
427,-0.154158,0.983787,0.091597,0.6581560000000001,2.260643,-0.484633
428,-0.173246,0.984853,-0.006469,0.240446,2.523158,0.122101
429,-0.157134,0.980565,-0.117446,-1.066484,4.052714,0.171828
430,-0.1402779999999999,0.966006,-0.217138,-1.443936,1.668729,0.274526
431,-0.1109609999999999,0.945266,-0.306846,-0.564743,0.734712,0.485695
432,-0.103709,0.92405,-0.367929,1.97114,0.898552,1.125345
433,-0.132805,0.8946709999999999,-0.4265229999999999,0.178856,-0.185412,1.09907
434,-0.171903,0.85457,-0.4900569999999999,-0.478243,-0.979692,1.421224
435,-0.196025,0.832943,-0.517471,-0.295491,-1.823239,1.615707
436,-0.214959,0.831284,-0.5125970000000001,-0.046622,-2.222336,1.917123
437,-0.2197619999999999,0.847758,-0.4827079999999999,-0.00178,-2.327982,2.138653
438,-0.19801,0.874491,-0.442779,0.034619,-1.950998,1.380447
439,-0.159199,0.905034,-0.394417,-0.1056329999999999,-1.263264,0.96
440,-0.127387,0.940006,-0.316474,0.1135019999999999,0.312054,-1.1988299999999998
441,-0.096252,0.968312,-0.2304389999999999,1.4194790000000002,2.724895,-3.016403
442,-0.0599429999999999,0.973451,-0.2208929999999999,1.146933,1.407958,-1.626778
443,-0.037317,0.977106,-0.209442,0.254968,-1.7209560000000002,2.159012
444,0.01062,0.970864,-0.2393829999999999,-0.8676,0.6225350000000001,0.7597689999999999
445,0.051689,0.966179,-0.252629,-1.363105,1.7192,0.596638
446,0.030062,0.978271,-0.205127,-1.620958,-0.102904,0.887576
447,-0.013188,0.990359,-0.137872,-0.8604700000000001,-0.180804,1.680932
448,-0.0771039999999999,0.994242,-0.074374,-0.357451,-0.04751,1.676349
449,-0.135603,0.990456,-0.024507,-0.072328,1.982841,1.745057
450,-0.172653,0.984432,0.032819,0.428054,4.595204,-1.616025
451,-0.1718829999999999,0.963771,0.20394,0.537346,3.5437510000000003,-3.160819
452,-0.173229,0.92162,0.3472699999999999,-0.162465,0.977336,-1.887035
453,-0.165663,0.925372,0.340928,0.163268,-0.152102,0.095016
454,-0.189649,0.908382,0.372646,0.1691109999999999,-0.64294,-0.451854
455,-0.21286,0.886864,0.410063,0.930908,-1.404899,-1.879774
456,-0.186953,0.883251,0.430004,1.265155,-0.780941,-1.788204
457,-0.161746,0.892725,0.420556,1.177523,-0.649683,-1.373071
458,-0.1706339999999999,0.910246,0.377258,-0.022191,-0.818068,-0.762207
459,-0.171702,0.926588,0.334575,-0.2225849999999999,-0.51599,-0.784968
460,-0.162445,0.946221,0.279759,-0.278732,-0.34707,-0.640476
461,-0.154608,0.965654,0.208796,-0.1160829999999999,0.0214819999999999,-0.445216
462,-0.168216,0.977357,0.128313,0.301105,0.830992,-0.3362449999999999
463,-0.1935,0.980528,0.033354,0.516849,1.497866,-0.147337
464,-0.1925319999999999,0.978126,-0.078689,0.229977,2.84269,-0.0689549999999999
465,-0.159187,0.96821,-0.192929,-0.8992690000000001,3.460746,0.162717
466,-0.128031,0.94879,-0.288788,-1.436544,2.634737,0.38028
467,-0.088962,0.928496,-0.36052,-0.43208,0.8468180000000001,0.536453
468,-0.0733559999999999,0.908435,-0.411531,1.942649,1.092419,1.350634
469,-0.113544,0.863207,-0.491911,1.742816,0.835752,0.908278
470,-0.159262,0.8205969999999999,-0.548863,-0.557611,-0.8787790000000001,1.304219
471,-0.202491,0.798913,-0.566332,-0.448114,-1.609597,1.547899
472,-0.2288489999999999,0.799552,-0.555284,-0.239413,-2.080664,1.7110919999999998
473,-0.236566,0.81863,-0.523332,-0.09101,-2.399197,2.151978
474,-0.212112,0.8516299999999999,-0.479301,-0.20102,-1.454901,1.323387
475,-0.172234,0.887716,-0.426955,-0.025795,-0.8684129999999999,0.945097
476,-0.143368,0.92476,-0.352503,0.5812039999999999,0.638931,-0.712515
477,-0.1020269999999999,0.955655,-0.276236,1.462516,2.728107,-3.330347
478,-0.056963,0.962274,-0.2660349999999999,1.084704,1.335226,-1.282014
479,-0.0296899999999999,0.968499,-0.247223,0.125241,0.408515,1.081406
480,0.022875,0.95651,-0.290788,-1.106127,0.952807,1.946352
481,0.042931,0.943058,-0.329834,-1.042794,-0.249363,1.362534
482,0.0413,0.958938,-0.280577,-1.525736,-1.057647,1.576262
483,-0.005409,0.985604,-0.168958,-1.225442,-0.696144,1.639325
484,-0.055495,0.992907,-0.105093,-0.95308,-0.145327,1.128058
485,-0.138284,0.987643,-0.073669,-0.6751010000000001,3.796353,1.580627
486,-0.204227,0.978581,-0.0256779999999999,0.701176,5.520763,-1.920047
487,-0.206136,0.946958,0.246502,1.148809,3.352175,-3.585277
488,-0.2142639999999999,0.932316,0.291311,0.0921169999999999,0.386501,-0.641958
489,-0.174469,0.944482,0.278389,-0.051376,-0.749764,-0.010231
490,-0.185547,0.931092,0.314046,-0.2384949999999999,-1.393189,-0.379781
491,-0.196723,0.912124,0.359603,0.790504,-1.375457,-1.472152
492,-0.164177,0.907624,0.386328,1.009072,-0.671555,-1.96015
493,-0.109563,0.91057,0.39855,0.887258,-0.377092,-1.381246
494,-0.106081,0.921477,0.373645,-0.296491,-0.8992760000000001,-0.686145
495,-0.126577,0.935699,0.329286,-0.366481,-0.648514,-0.625963
496,-0.1374,0.949829,0.280946,-0.304586,-0.437485,-0.6299
497,-0.1431599999999999,0.966131,0.214665,0.061175,0.149164,-0.1675309999999999
498,-0.168494,0.977212,0.129047,0.383414,1.285606,-0.303867
499,-0.197704,0.9796,0.03583,0.591808,2.205367,-0.273211
500,-0.198145,0.978662,-0.054291,0.2595159999999999,2.413764,0.4115609999999999
501,-0.176256,0.9714,-0.159079,-1.057081,3.451192,0.306539
502,-0.155769,0.954208,-0.255369,-1.4645,2.621201,0.272382
503,-0.130405,0.936574,-0.325292,-0.454129,0.7461800000000001,0.531896
504,-0.104619,0.918601,-0.381078,0.857548,0.80285,1.330617
505,-0.116388,0.894927,-0.430758,1.619836,0.646027,1.295687
506,-0.145663,0.859352,-0.4901939999999999,-0.553663,-0.877281,1.088675
507,-0.169985,0.839936,-0.515371,-0.397947,-1.43979,1.445607
508,-0.1976349999999999,0.8366290000000001,-0.510868,-0.1703,-1.868185,1.6409029999999998
509,-0.209191,0.849567,-0.48422,-0.039466,-2.159869,2.026289
510,-0.190726,0.874,-0.446924,-0.093179,-2.03826,1.642786
511,-0.151418,0.903921,-0.399991,-0.121806,-1.6702169999999998,1.075787
512,-0.120901,0.935683,-0.331469,0.0576529999999999,-0.3899829999999999,0.187518
513,-0.09279,0.965129,-0.244759,1.334016,1.902943,-4.001396
514,-0.048968,0.972671,-0.2269449999999999,1.531726,2.386155,-3.064849
515,-0.022956,0.979007,-0.202505,0.35752,-1.1110719999999998,1.233038
516,0.021049,0.973618,-0.22719,-0.612983,-0.437974,1.471849
517,0.0635429999999999,0.964965,-0.254553,-1.572866,1.961732,0.573843
518,0.036637,0.974543,-0.221167,-1.689713,0.221441,1.257529
519,0.003268,0.9844,-0.175886,-1.053333,-0.4599859999999999,1.425627
520,-0.049762,0.992903,-0.107972,-0.596997,0.353075,1.714066
521,-0.109501,0.992546,-0.053388,-0.263408,1.384239,1.647138
522,-0.1542589999999999,0.988015,0.004217,-0.177955,3.5016540000000003,1.207117
523,-0.160873,0.975679,0.148854,0.6327050000000001,3.0299970000000003,-3.89594
524,-0.169206,0.940998,0.293048,-0.100325,1.035686,-3.090106
525,-0.159622,0.947752,0.276176,0.402984,-0.438764,0.1706619999999999
526,-0.164792,0.946093,0.278813,0.433652,-0.8839440000000001,0.205577
527,-0.195431,0.928865,0.314646,0.337658,-1.480928,-0.981912
528,-0.198339,0.910121,0.363766,0.929922,-1.106517,-1.367718
529,-0.159109,0.901796,0.401785,0.890692,-1.098192,-1.405737
530,-0.11659,0.915001,0.386217,-0.074145,-0.6522899999999999,-1.139086
531,-0.109316,0.93495,0.337494,-0.306562,-0.6225569999999999,-0.497345
532,-0.119974,0.953373,0.276898,-0.3639429999999999,-0.195286,-0.413372
533,-0.129242,0.9698,0.206813,-0.127625,0.258029,-0.226985
534,-0.135433,0.982535,0.127556,0.170009,1.131631,-0.439293
535,-0.155817,0.986994,0.039409,0.375925,1.616232,-0.399959
536,-0.173496,0.983549,-0.05021,-0.399914,2.862917,0.313302
537,-0.156184,0.976018,-0.151611,-1.519887,3.3167980000000004,0.103835
538,-0.126146,0.964089,-0.2336909999999999,-1.444472,1.836997,-0.034299
539,-0.081299,0.950863,-0.298737,-0.303299,0.6015659999999999,0.6166229999999999
540,-0.059173,0.931668,-0.358451,1.022735,0.7453029999999999,1.156806
541,-0.073057,0.902635,-0.424154,1.421369,0.8796219999999999,0.991415
542,-0.1181089999999999,0.8569100000000001,-0.501748,-0.432947,-0.8224100000000001,0.954964
543,-0.159437,0.824292,-0.543248,-0.463412,-1.225156,1.32198
544,-0.190447,0.8130109999999999,-0.550216,-0.231229,-1.7248,1.543868
545,-0.204879,0.822997,-0.529808,0.066314,-2.470519,2.032188
546,-0.191433,0.8534440000000001,-0.484749,0.0279959999999999,-2.313313,2.006523
547,-0.1577319999999999,0.892436,-0.422697,0.175692,-1.598277,1.526015
548,-0.123388,0.932434,-0.339609,0.211233,-0.154923,0.1723579999999999
549,-0.082616,0.964248,-0.251779,1.250325,2.136842,-4.194022
550,-0.034647,0.968049,-0.24834,1.281442,2.711226,-3.3077660000000004
551,-0.014452,0.971316,-0.237337,-0.292463,0.5988439999999999,0.62079
552,0.032849,0.95762,-0.286144,-1.031613,-0.071755,1.416835
553,0.069095,0.936878,-0.342752,-1.067859,-0.051014,1.473443
554,0.065035,0.949636,-0.306521,-1.949679,-0.868993,2.038332
555,0.028606,0.986173,-0.163206,-1.386089,0.386493,1.2904799999999998
556,-0.012386,0.998688,-0.049593,-1.005742,0.7186739999999999,1.0653860000000002
557,-0.0740789999999999,0.997243,-0.002963,-0.442065,1.800532,1.486255
558,-0.138551,0.990141,0.02033,-0.274581,3.047792,1.2512450000000002
559,-0.164999,0.967708,0.1905369999999999,1.819707,4.64156,-4.049546
560,-0.206166,0.927637,0.311404,0.210942,0.869345,-3.343264
561,-0.181491,0.938982,0.292165,0.421328,-0.025149,0.22491
562,-0.180456,0.939946,0.289696,0.358877,-0.7844140000000001,0.216454
563,-0.213059,0.92151,0.324673,0.434922,-1.488801,-1.18237
564,-0.2148989999999999,0.8990799999999999,0.381393,1.092249,-1.1485610000000002,-2.226058
565,-0.167409,0.893808,0.416014,1.200078,-0.8481540000000001,-2.136275
566,-0.152732,0.911238,0.382498,0.210837,-0.579924,-0.655783
567,-0.161247,0.927676,0.336755,-0.2001119999999999,-0.700976,-0.696862
568,-0.154689,0.945692,0.285876,-0.293507,-0.423506,-0.985659
569,-0.1510369999999999,0.96592,0.210179,0.055669,0.139915,0.233532
570,-0.168166,0.979914,0.107136,0.2416829999999999,2.068121,-0.513173
571,-0.164581,0.986249,0.014641,0.238098,2.061785,-0.420678
572,-0.141994,0.988046,-0.059935,-0.308873,2.043845,0.25601
573,-0.112463,0.982854,-0.146083,-1.563028,3.513224,0.128994
574,-0.10132,0.968714,-0.226536,-1.439802,1.197561,0.2687719999999999
575,-0.062938,0.95326,-0.295513,0.108622,0.5862609999999999,0.984722
576,-0.0406819999999999,0.940352,-0.337752,1.361377,0.930635,1.15811
577,-0.044853,0.915917,-0.398846,1.219933,0.679603,0.911053
578,-0.084516,0.874949,-0.476777,-0.626925,-1.024943,1.05127
579,-0.122955,0.84778,-0.515893,-0.482651,-1.742357,1.346352
580,-0.155105,0.840001,-0.519937,-0.159104,-2.038076,1.502283
581,-0.173016,0.8517809999999999,-0.4944989999999999,0.1143,-2.47701,2.062218
582,-0.160793,0.8776360000000001,-0.451546,0.0568039999999999,-1.996991,1.506966
583,-0.12899,0.909248,-0.395756,-0.019951,-1.257545,1.078389
584,-0.098955,0.943776,-0.315416,-0.070997,0.0458019999999999,-0.593123
585,-0.065626,0.97141,-0.2281389999999999,1.214658,2.608912,-3.39802
586,-0.028788,0.977385,-0.209476,1.053614,1.703401,-2.025632
587,-0.015358,0.978528,-0.2055179999999999,-0.307427,-0.948682,2.203214
588,0.037203,0.965624,-0.257249,-1.505449,1.479749,-0.39131
589,0.049207,0.967095,-0.249592,-1.362958,1.356498,1.4708450000000002
590,0.042358,0.97807,-0.203902,-1.017822,-0.329525,1.506377
591,0.006331,0.992739,-0.1200789999999999,-0.730192,0.015486,1.7353740000000002
592,-0.04252,0.996168,-0.076353,-0.429908,0.20656,1.429716
593,-0.100944,0.994009,-0.041755,-0.314156,1.60676,1.156944
594,-0.147234,0.989017,0.012447,0.091616,3.787701,-1.298198
595,-0.161264,0.968683,0.188768,0.727197,3.543478,-3.229768
596,-0.178046,0.942029,0.284368,-0.180322,0.8930389999999999,-1.7197779999999998
597,-0.168071,0.948014,0.2701949999999999,0.370769,-0.78885,0.248435
598,-0.165486,0.946786,0.276032,0.368184,-0.787622,0.2425989999999999
599,-0.188473,0.929743,0.31629,0.466626,-1.428415,-1.252722
600,-0.195472,0.909,0.368094,0.94886,-1.090152,-1.519522
601,-0.1582309999999999,0.903091,0.399214,0.911618,-1.084244,-1.550642
602,-0.1238339999999999,0.920433,0.370745,-0.0043549999999999,-0.615379,-1.150698
603,-0.121235,0.940163,0.318402,-0.272045,-0.529091,-0.638714
604,-0.135145,0.956693,0.257795,-0.258135,-0.545622,-0.5781069999999999
605,-0.144208,0.971466,0.188265,-0.357852,-0.082763,-0.2989679999999999
606,-0.15821,0.981365,0.108991,0.324607,1.369404,-0.2099739999999999
607,-0.18135,0.983197,0.0206,0.528411,2.549579,-0.33429
608,-0.187094,0.97958,-0.073538,0.323248,3.041004,0.04215
609,-0.166382,0.970396,-0.17504,-0.698731,2.785784,0.212439
610,-0.145858,0.954391,-0.260488,-1.0795290000000002,2.122163,0.390554
611,-0.112715,0.937573,-0.329003,-0.8373430000000001,0.665957,0.355675
612,-0.092798,0.916721,-0.388592,0.607492,0.841519,1.242291
613,-0.130825,0.8878860000000001,-0.441063,1.173931,1.017632,1.362846
614,-0.169941,0.851416,-0.496189,0.1080059999999999,-0.258673,0.803532
615,-0.1910099999999999,0.828153,-0.526946,-0.479034,-1.644422,1.390151
616,-0.208965,0.824631,-0.525654,-0.182514,-1.980423,1.538471
617,-0.212692,0.8412299999999999,-0.497079,0.264633,-2.398939,2.058892
618,-0.203291,0.868042,-0.452955,0.118193,-2.117951,1.389875
619,-0.1877079999999999,0.896904,-0.400401,0.031442,-1.596337,0.908397
620,-0.1703859999999999,0.927549,-0.332586,0.881934,1.147433,-3.331385
621,-0.149366,0.957397,-0.2471269999999999,1.200925,2.470597,-3.77863
622,-0.10214,0.969056,-0.224694,0.970152,2.0403740000000004,-2.114142
623,-0.087986,0.973944,-0.209001,0.251102,1.017297,1.277116
624,-0.036014,0.965247,-0.258828,-0.777096,0.937188,1.692131
625,0.010145,0.947948,-0.318249,-0.859876,0.3820989999999999,1.179088
626,0.037551,0.946648,-0.32006,-1.518859,-1.069878,1.802222
627,0.004906,0.972772,-0.2316889999999999,-1.5323870000000002,-0.104975,1.91397
628,-0.04761,0.985366,-0.163632,-1.048306,0.169922,1.558743
629,-0.109179,0.985886,-0.126877,-0.420942,0.933304,1.238785
630,-0.167287,0.982472,-0.08217,-0.1961619999999999,2.779736,0.38727
631,-0.196921,0.979657,0.038468,0.925681,3.837069,-2.4597330000000004
632,-0.200913,0.951135,0.234435,-0.021285,1.257941,-3.190291
633,-0.187777,0.953054,0.237508,0.019854,0.491571,-0.490896
634,-0.176483,0.955281,0.237221,0.2264409999999999,-0.275762,-0.120156
635,-0.189217,0.944395,0.268881,0.182976,-1.4107040000000002,-0.733755
636,-0.207681,0.929755,0.303985,0.615167,-1.475119,-1.65245
637,-0.185284,0.919841,0.345751,0.798687,-1.0243790000000002,-1.6600669999999995
638,-0.143692,0.921071,0.361885,0.769943,-0.606328,-1.342475
639,-0.12531,0.933397,0.336228,-0.218486,-0.6875319999999999,-0.71634
640,-0.128002,0.952378,0.276721,-0.347813,-0.733582,-0.512896
641,-0.137309,0.968861,0.206002,-0.364004,-0.016057,-0.236153
642,-0.150798,0.980897,0.122825,0.224177,2.034301,-0.1695019999999999
643,-0.160772,0.986524,0.03013,0.234152,2.028674,-0.076807
644,-0.161474,0.985115,-0.058836,0.083426,2.453591,0.2083559999999999
645,-0.151455,0.977141,-0.149147,-0.985309,2.866457,0.169121
646,-0.140191,0.961829,-0.234988,-1.286383,1.945672,0.254535
647,-0.096395,0.941363,-0.323317,-0.54838,0.6993229999999999,0.603193
648,-0.077878,0.92257,-0.377875,1.384107,0.851706,1.154441
649,-0.093532,0.896546,-0.432953,1.39976,0.8777299999999999,1.209519
650,-0.137372,0.853001,-0.503498,-0.143725,-0.490437,0.952885
651,-0.1773269999999999,0.824358,-0.537571,-0.499813,-1.654482,1.385151
652,-0.211119,0.81845,-0.53438,-0.466021,-1.6485740000000002,1.38196
653,-0.222928,0.832619,-0.506993,0.270444,-2.262474,2.18871
654,-0.211869,0.8622879999999999,-0.45996,0.153061,-1.9598830000000005,1.366332
655,-0.182053,0.8955569999999999,-0.405988,0.123246,-1.993152,1.31236
656,-0.141132,0.930909,-0.336869,-0.155621,-0.50232,0.202698
657,-0.098498,0.962642,-0.252207,0.9002100000000001,2.582341,-2.865988
658,-0.066518,0.967455,-0.2441219999999999,0.86823,2.577528,-2.874073
659,-0.050762,0.970348,-0.2363,-0.259434,0.153981,2.179278
660,0.004767,0.959126,-0.282922,-1.068899,1.123378,1.29815
661,0.035716,0.94906,-0.3130489999999999,-0.866374,-0.509043,1.123993
662,0.043325,0.95403,-0.2965489999999999,-1.285406,-0.690968,1.907282
663,0.001022,0.981262,-0.192646,-0.895523,0.117188,2.044377
664,-0.042866,0.991161,-0.125504,-0.480724,0.245594,1.567307
665,-0.100463,0.99057,-0.0930899999999999,-0.008531,1.474243,1.36668
666,-0.152799,0.986961,-0.050493,0.613202,3.74981,-0.652174
667,-0.163626,0.982469,0.089263,1.11817,3.903456,-2.134551
668,-0.159956,0.944286,0.287616,-0.367419,1.164479,-2.854709
669,-0.138103,0.947999,0.286721,-0.0045969999999999,0.237929,-0.035958
670,-0.134469,0.944258,0.300466,0.060464,-0.367597,-0.300939
671,-0.160908,0.924543,0.345415,0.405171,-1.452696,-1.336336
672,-0.166326,0.913225,0.3719389999999999,0.8643700000000001,-1.260363,-1.683172
673,-0.138022,0.913787,0.382003,0.903952,-0.948592,-1.495437
674,-0.119519,0.923451,0.364605,0.2123989999999999,-0.7502479999999999,-0.763195
675,-0.1193289999999999,0.937616,0.326528,-0.3124639999999999,-0.7958770000000001,-0.614614
676,-0.123856,0.953308,0.275402,-0.481964,-0.659928,-0.668713
677,-0.129397,0.969074,0.210086,-0.399457,-0.003116,-0.233294
678,-0.1416599999999999,0.980607,0.135381,0.072431,0.847534,-0.332189
679,-0.1671619999999999,0.984646,0.050154,0.3382739999999999,1.528049,-0.270201
680,-0.185963,0.981587,-0.043503,0.232136,2.202968,0.2093809999999999
681,-0.179128,0.973639,-0.141172,-0.5998180000000001,3.056817,0.327833
682,-0.164019,0.958,-0.2352139999999999,-0.950193,2.305581,0.422409
683,-0.13557,0.938223,-0.318356,-0.40009,0.640161,0.23814
684,-0.114804,0.91688,-0.382286,0.427426,0.761541,0.790047
685,-0.128252,0.8950540000000001,-0.42711,1.196382,1.046017,0.957292
686,-0.1736369999999999,0.855524,-0.4877729999999999,-0.020821,-0.328745,0.985347
687,-0.210811,0.8242079999999999,-0.52558,-0.4969979999999999,-1.041813,1.074027
688,-0.2394119999999999,0.810381,-0.534751,-0.435439,-1.305758,1.162574
689,-0.252202,0.815396,-0.5210739999999999,0.2252239999999999,-2.261425,1.629335
690,-0.250259,0.8404780000000001,-0.480585,0.163009,-1.965966,1.698725
691,-0.230915,0.870281,-0.435066,0.055195,-1.505184,1.256126
692,-0.192753,0.90012,-0.3906719999999999,0.011372,-0.225025,-0.05046
693,-0.15206,0.932046,-0.328878,1.049643,2.125266,-4.252955
694,-0.102348,0.947107,-0.304146,0.999931,2.110205,-4.277687
695,-0.083237,0.951672,-0.295607,0.132904,-1.056149,2.278014
696,-0.0471139999999999,0.942095,-0.3320099999999999,-0.8998309999999999,1.178511,0.362711
697,-0.001777,0.933345,-0.358965,-0.945168,1.18726,0.389666
698,-0.000309,0.945663,-0.325135,-0.832867,-0.2372739999999999,1.185182
699,-0.007811,0.964767,-0.262974,-0.975969,-0.101364,1.927449
700,-0.037448,0.984893,-0.16904,-0.946332,-0.12149,1.833514
701,-0.088399,0.98822,-0.12489,-0.305766,0.887467,1.255948
702,-0.15039,0.984905,-0.085646,-0.143129,2.826618,0.963759
703,-0.1845089999999999,0.982786,-0.008758,-0.109009,2.828737,0.886871
704,-0.192664,0.957476,0.214726,-0.131219,1.566724,-4.3666730000000005
705,-0.183267,0.945029,0.270776,0.004602,0.576455,-0.957299
706,-0.144891,0.956261,0.254083,-0.0041259999999999,-0.097023,-0.125253
707,-0.135176,0.945887,0.294975,-0.041918,-1.399577,-0.84925
708,-0.133875,0.928704,0.345789,0.436518,-1.408608,-1.630671
709,-0.1107119999999999,0.925084,0.363244,0.622583,-1.193669,-1.545327
710,-0.098178,0.933503,0.344844,0.444217,-0.782121,-0.605021
711,-0.1094509999999999,0.941511,0.318685,-0.0549169999999999,-0.58058,-0.8134819999999999
712,-0.114467,0.951327,0.286108,-0.271077,-0.460025,-0.960867
713,-0.114872,0.967332,0.225961,-0.433803,-0.378511,-0.604607
714,-0.1275109999999999,0.981359,0.143744,0.153588,0.333293,-0.199393
715,-0.149095,0.98691,0.06137,0.399201,0.751111,-0.225845
716,-0.1662,0.985751,-0.025712,0.592897,2.209561,-0.246718
717,-0.169468,0.978139,-0.1204799999999999,-0.372417,2.966746,0.2444579999999999
718,-0.153935,0.961767,-0.2264949999999999,-0.842556,2.917719,0.420556
719,-0.116612,0.938464,-0.325084,-0.6983600000000001,1.047803,-0.173116
720,-0.079976,0.913698,-0.39844,0.5550579999999999,1.058867,0.480547
721,-0.08031,0.885544,-0.457555,1.008197,1.117294,0.8389340000000001
722,-0.110502,0.846641,-0.5205609999999999,0.19966,-0.167548,0.923561
723,-0.160171,0.812708,-0.5602199999999999,-0.5793,-0.791147,0.962075
724,-0.19807,0.796061,-0.5718840000000001,-0.551991,-1.071711,1.059555
725,-0.220545,0.797242,-0.561926,0.115976,-2.314393,1.795339
726,-0.2341909999999999,0.814444,-0.530878,0.177932,-2.346502,2.049616
727,-0.224429,0.8446629999999999,-0.4859739999999999,0.093753,-2.186567,1.915036
728,-0.179581,0.8798040000000001,-0.440102,0.11084,-0.295728,0.2054679999999999
729,-0.128609,0.913141,-0.386816,0.158883,0.1206869999999999,-0.906672
730,-0.080414,0.935358,-0.344431,0.747009,1.045355,-3.074377
731,-0.049915,0.943543,-0.327459,0.690708,0.374405,-0.078563
732,-0.018381,0.942846,-0.332713,-0.801611,1.499384,0.741801
733,-0.006138,0.93034,-0.366639,-1.0135610000000002,0.7215159999999999,1.7899330000000002
734,0.01132,0.91977,-0.392287,-0.7630140000000001,-1.031754,1.148924
735,0.0042439999999999,0.942823,-0.333257,-1.492052,-0.311536,1.756368
736,-0.037208,0.976022,-0.214453,-1.391914,-0.119897,1.90653
737,-0.086283,0.985967,-0.1428839999999999,-0.27474,0.73173,1.511018
738,-0.154354,0.982148,-0.107474,0.048275,2.132704,1.7097080000000002
739,-0.185338,0.981723,-0.043139,0.230931,3.271497,1.169741
740,-0.156215,0.968064,0.196053,0.140178,2.989425,-3.443353
741,-0.166178,0.937348,0.306189,-0.200232,1.014541,-3.1193150000000003
742,-0.135851,0.94617,0.293761,-0.098295,0.694181,-1.158965
743,-0.132874,0.94012,0.3138579999999999,0.211121,-1.287288,-0.752945
744,-0.147704,0.921927,0.358081,0.724486,-1.559973,-2.205036
745,-0.120045,0.909171,0.39873,0.696828,-1.547217,-2.245684
746,-0.086172,0.923791,0.373058,0.304648,-0.677255,-0.747311
747,-0.091649,0.943268,0.319117,-0.1223099999999999,-0.741577,-0.503672
748,-0.091204,0.958668,0.269492,-0.445051,-0.4194529999999999,-0.778235
749,-0.0792409999999999,0.972926,0.217082,-0.471235,-0.242625,-0.4176439999999999
750,-0.075771,0.987637,0.137192,-0.035283,0.33443,-0.032776
751,-0.0937,0.994266,0.051433,0.116496,1.053189,-0.14207
752,-0.118397,0.992595,-0.026971,0.04865,2.4595990000000003,-0.008948
753,-0.125926,0.985461,-0.114022,-0.5118149999999999,2.916364,0.249276
754,-0.113638,0.971689,-0.207121,-0.8144319999999999,2.435507,0.439528
755,-0.08635,0.951744,-0.294484,-0.529113,0.810448,0.343785
756,-0.0705399999999999,0.927446,-0.367235,0.617186,0.943129,0.8910379999999999
757,-0.090326,0.901269,-0.423732,1.401193,1.085227,0.963115
758,-0.124652,0.8628469999999999,-0.48985,-0.185361,-0.323342,0.8455010000000001
759,-0.156844,0.83339,-0.529958,-0.642259,-1.128312,1.0300200000000002
760,-0.183062,0.820946,-0.540862,-0.475889,-1.390862,1.179031
761,-0.200666,0.8259040000000001,-0.526888,0.122297,-2.350425,1.7360400000000002
762,-0.199985,0.848208,-0.490453,0.1213559999999999,-2.235553,1.777593
763,-0.183798,0.878403,-0.441158,0.130713,-1.802872,1.462124
764,-0.154219,0.911567,-0.381125,0.2684,-0.268775,0.31948
765,-0.112471,0.943262,-0.3124119999999999,0.760756,1.140875,-3.515072
766,-0.053011,0.955344,-0.290691,1.224458,1.910135,-3.303303
767,-0.021712,0.962484,-0.270456,0.217605,0.53686,0.519861
768,0.0153879999999999,0.95514,-0.295742,-0.912315,0.4892109999999999,1.857769
769,0.029743,0.934729,-0.354106,-1.053501,0.235773,1.609081
770,0.041264,0.932728,-0.358202,-1.563206,-0.643208,1.6553220000000002
771,0.009942,0.970485,-0.240942,-1.6673209999999998,-0.368373,1.654379
772,-0.0299329999999999,0.993865,-0.1064349999999999,-1.627446,-0.391753,1.519871
773,-0.079508,0.996307,-0.03226,-0.5557,1.98111,1.572116
774,-0.151894,0.988284,-0.014591,-0.182807,3.805417,1.849476
775,-0.201456,0.978037,0.053373,0.694391,5.224157,-0.701108
776,-0.192824,0.923093,0.332723,0.242888,2.113376,-5.500036
777,-0.188028,0.917519,0.350414,0.2881869999999999,0.451942,-1.176998
778,-0.16189,0.919949,0.357031,0.334375,0.036426,0.141824
779,-0.175896,0.896515,0.406578,0.545327,-1.593934,-1.683266
780,-0.1482609999999999,0.890749,0.429616,0.791327,-0.707537,-1.742589
781,-0.1124839999999999,0.8989510000000001,0.423343,0.679149,-0.478785,-1.300251
782,-0.1128069999999999,0.910793,0.397134,0.341063,-0.6207090000000001,-0.617792
783,-0.123204,0.927246,0.353584,-0.167125,-0.5179590000000001,-1.127769
784,-0.112739,0.944323,0.309081,-0.331735,-0.45392,-0.979384
785,-0.1084329999999999,0.964846,0.239377,-0.234264,-0.0961019999999999,-0.338086
786,-0.124503,0.98049,0.152075,0.204947,1.406961,-0.592566
787,-0.1467089999999999,0.987551,0.0566559999999999,0.40768,2.001066,-0.576615
788,-0.149282,0.988355,-0.02932,0.169225,1.872622,-0.0960309999999999
789,-0.134352,0.982863,-0.126184,-0.734392,3.100969,0.348383
790,-0.108029,0.969256,-0.221058,-1.13039,2.822371,0.308719
791,-0.065901,0.949565,-0.306557,0.5966319999999999,0.901265,0.742821
792,-0.057388,0.928721,-0.366302,1.524246,1.083272,0.8458100000000001
793,-0.074679,0.8888729999999999,-0.452021,1.33594,0.952664,0.549723
794,-0.142014,0.828609,-0.541512,-0.676467,-0.542797,1.5757370000000002
795,-0.202817,0.7831520000000001,-0.587821,-0.4179859999999999,-1.593791,1.90969
796,-0.240521,0.7615350000000001,-0.6018399999999999,-0.250889,-2.068954,2.328982
797,-0.230551,0.770939,-0.5937140000000001,-0.078928,-2.465855,2.132654
798,-0.18745,0.80725,-0.5596479999999999,0.345927,-1.396743,1.609498
799,-0.13199,0.854833,-0.501832,0.451235,-0.8197530000000001,1.127824
800,-0.074994,0.902147,-0.424856,0.1591769999999999,0.181411,-0.743418
801,-0.02605,0.937281,-0.347592,1.453068,1.82044,-3.213214
802,0.0071,0.949474,-0.313754,1.013393,1.250874,-1.320767
803,0.0399,0.953661,-0.298214,-1.055052,1.056883,0.035794
804,0.055291,0.940634,-0.33488,-1.0633780000000002,0.388376,1.636088
805,0.0513799999999999,0.93149,-0.360111,-0.905506,0.097868,1.241474
806,0.041502,0.953714,-0.297825,-1.538709,-0.5971770000000001,1.917424
807,0.013594,0.987191,-0.158938,-1.09796,-0.084588,1.757815
808,-0.027353,0.997717,-0.06168,-0.8304809999999999,0.185099,1.414158
809,-0.086091,0.996169,-0.015038,-0.460296,2.512269,1.676537
810,-0.127079,0.99125,0.035557,0.658237,5.302665,-1.247594
811,-0.1308099999999999,0.961834,0.240319,1.713711,3.928242,-4.566628
812,-0.166759,0.930217,0.326918,0.0740919999999999,0.580647,-1.622206
813,-0.15182,0.936213,0.316927,0.211436,-1.022837,-0.132098
814,-0.178097,0.917802,0.354835,0.2377139999999999,-1.004426,-0.170005
815,-0.18791,0.897433,0.399111,1.008879,-1.335147,-1.99956
816,-0.142452,0.8921389999999999,0.428699,1.027828,-0.3531829999999999,-1.392429
817,-0.106359,0.910292,0.400054,0.991735,-0.371336,-1.363783
818,-0.105452,0.932079,0.346547,-0.1610579999999999,-0.835384,-0.217412
819,-0.09981,0.954777,0.280047,-0.719724,-0.1635319999999999,-1.232378
820,-0.076374,0.974056,0.213002,-0.74316,-0.182811,-1.165334
821,-0.075812,0.989093,0.126239,0.048529,0.367231,-0.15372
822,-0.105265,0.993774,0.036372,0.438776,1.841752,-0.2300829999999999
823,-0.124704,0.990774,-0.052973,0.545862,2.818537,-0.118215
824,-0.106946,0.981699,-0.157547,-0.4630609999999999,3.2846580000000003,0.315216
825,-0.071478,0.963596,-0.257617,-0.8398680000000001,2.919034,0.453692
826,-0.033082,0.941131,-0.336411,-0.5951069999999999,0.8335889999999999,0.171296
827,-0.016521,0.916437,-0.399831,1.563854,0.789007,1.061528
828,-0.061799,0.8799,-0.471118,0.050736,-0.220217,1.254946
829,-0.108844,0.836793,-0.5365880000000001,-0.6096159999999999,-0.790864,1.287122
830,-0.142117,0.8116260000000001,-0.566624,-0.6802560000000001,-1.446452,1.689396
831,-0.170321,0.807515,-0.564718,-0.139219,-2.396901,2.169347
832,-0.170064,0.8285110000000001,-0.533519,-0.184444,-2.454396,2.098385
833,-0.140943,0.864232,-0.482942,-0.147708,-1.2747389999999998,1.274324
834,-0.105861,0.901891,-0.418784,0.1197309999999999,-0.468679,0.645713
835,-0.074141,0.940577,-0.331379,0.183806,-0.151529,0.15897
836,-0.033907,0.96762,-0.25011,1.1293959999999998,2.454637,-2.715711
837,-0.0047909999999999,0.970295,-0.24186,0.648087,0.242366,-0.285346
838,0.006465,0.972417,-0.233145,0.485601,-0.484807,0.843756
839,0.058669,0.96134,-0.269028,-1.23268,1.210322,0.589188
840,0.090555,0.948524,-0.3034719999999999,-1.033976,0.013024,0.965795
841,0.091468,0.951411,-0.294014,-1.162803,-0.759364,1.032814
842,0.042573,0.978786,-0.200393,-1.631257,-0.482281,2.084151
843,-0.011806,0.993715,-0.111279,-0.8573040000000001,0.186919,1.538007
844,-0.080731,0.994864,-0.060983,-0.576678,0.653726,1.775522
845,-0.142084,0.989658,-0.019471,0.214137,5.119823,1.042573
846,-0.15223,0.980346,0.125447,0.588128,3.321015,-4.4436230000000005
847,-0.171844,0.919477,0.353582,-0.230973,2.089083,-6.273503
848,-0.164159,0.92411,0.345052,0.2356619999999999,-0.021308,0.2681989999999999
849,-0.188674,0.904458,0.382551,0.231155,-1.472741,-0.958524
850,-0.193707,0.885067,0.423228,0.479489,-1.699642,-1.742945
851,-0.147357,0.886451,0.438722,1.092257,-0.494804,-1.871018
852,-0.131961,0.8954110000000001,0.42522,0.522357,-0.606485,-0.724155
853,-0.153354,0.913069,0.377855,0.22095,-0.715635,-0.7871560000000001
854,-0.149697,0.93064,0.333895,-0.250739,-0.500571,-1.0118280000000002
855,-0.131214,0.950616,0.2812449999999999,0.0440399999999999,-0.168465,-0.788936
856,-0.130737,0.971263,0.198855,0.201995,0.007024,-0.300799
857,-0.159531,0.982329,0.097823,0.5176850000000001,1.6825279999999998,-0.298644
858,-0.162077,0.986773,-0.0004849999999999,0.677275,2.441877,-0.295306
859,-0.140639,0.985438,-0.095515,0.253478,2.41245,0.211665
860,-0.110056,0.97181,-0.20848,-1.417486,3.086127,0.482634
861,-0.080758,0.953643,-0.289888,-0.961647,1.336121,0.05388
862,-0.0308089999999999,0.938452,-0.344022,-0.000472,0.909463,0.855512
863,-0.014121,0.914102,-0.40523,1.6527169999999998,0.6543939999999999,1.161486
864,-0.059536,0.86726,-0.494277,-0.647877,-0.900692,1.30934
865,-0.105491,0.828421,-0.550077,-0.6019220000000001,-0.8618530000000001,1.365141
866,-0.1496849999999999,0.809188,-0.56816,-0.223942,-2.314559,2.264815
867,-0.172339,0.812521,-0.55687,-0.271188,-2.370657,2.192933
868,-0.153283,0.8367700000000001,-0.525658,-0.36251,-2.311974,2.023156
869,-0.110695,0.871482,-0.4777659999999999,0.037315,-0.7140569999999999,0.999296
870,-0.075668,0.911755,-0.403698,0.212112,0.052265,0.080364
871,-0.046507,0.949177,-0.311276,0.509001,0.79568,-1.583056
872,-0.0057929999999999,0.960421,-0.27848,1.550058,2.494565,-2.655358
873,0.012272,0.965694,-0.259378,0.133663,-1.038357,1.495263
874,0.049305,0.963728,-0.26228,-0.385319,-0.8211950000000001,1.962979
875,0.095439,0.951103,-0.293748,-1.401423,1.267723,0.107759
876,0.080932,0.959241,-0.27074,-1.511001,-0.496121,1.296757
877,0.040217,0.976732,-0.21064,-1.535182,-0.562258,1.494576
878,-0.015624,0.992465,-0.121494,-0.713075,0.5640390000000001,1.7954599999999998
879,-0.078968,0.995343,-0.055191,-0.31654,1.68616,1.948014
880,-0.131162,0.991319,0.00855,-0.16582,3.021361,1.870143
881,-0.154566,0.979774,0.127049,0.026422,3.060127,-4.804677
882,-0.168851,0.928266,0.331361,0.054486,0.867511,-2.472413
883,-0.159606,0.934901,0.316976,0.151427,0.507314,-0.389531
884,-0.182923,0.921446,0.34273,0.292955,-1.48416,-0.8619399999999999
885,-0.2080719999999999,0.899374,0.384474,1.118701,-1.498525,-1.6768169999999998
886,-0.179924,0.8952030000000001,0.407709,1.24186,-1.1922,-1.839716
887,-0.143544,0.902167,0.406789,0.806706,-0.428747,-0.862233
888,-0.135341,0.919113,0.370002,-0.076741,-0.742004,-0.460472
889,-0.134872,0.936487,0.323712,-0.274735,-0.768945,-0.635998
890,-0.123432,0.956034,0.26599,-0.520718,-0.139796,-0.862685
891,-0.116439,0.97479,0.190301,-0.055741,0.180163,-0.1993339999999999
892,-0.138845,0.985157,0.100882,0.184622,0.633434,-0.161459
893,-0.160768,0.986965,0.006682,0.803193,3.25333,-0.340468
894,-0.157004,0.983224,-0.092806,-0.107675,2.807609,0.314135
895,-0.124681,0.971083,-0.2035819999999999,-0.56053,3.3199940000000003,0.365615
896,-0.095214,0.949867,-0.297794,-1.1835639999999998,1.241006,0.368884
897,-0.055146,0.926826,-0.3714119999999999,-0.255249,0.898217,1.023008
898,-0.0524009999999999,0.90126,-0.430092,0.587618,0.8459629999999999,1.361107
899,-0.082657,0.8664139999999999,-0.492432,0.026856,-0.419271,0.950196
900,-0.105618,0.8341139999999999,-0.541383,-0.787662,-1.257423,1.303636
901,-0.133929,0.8198209999999999,-0.5567340000000001,-0.6370359999999999,-1.56802,1.458528
902,-0.165855,0.825573,-0.539367,-0.080177,-2.3566700000000003,2.173187
903,-0.171935,0.8467110000000001,-0.503501,-0.104722,-2.326417,2.106575
904,-0.148241,0.873999,-0.462759,-0.2417429999999999,-2.150717,1.823385
905,-0.111993,0.908309,-0.403021,-0.1050789999999999,-0.506179,0.6614899999999999
906,-0.076703,0.946888,-0.312272,0.409436,0.978878,-2.216369
907,-0.0287709999999999,0.964227,-0.263497,1.351128,2.581473,-3.8162
908,-0.011752,0.970195,-0.242025,0.7383149999999999,-0.380946,0.82157
909,0.023013,0.967821,-0.2505719999999999,-0.8520989999999999,1.174422,0.324653
910,0.0827779999999999,0.954765,-0.285596,-1.399306,1.85299,0.4496279999999999
911,0.078546,0.958386,-0.274445,-1.433267,-0.590558,1.25647
912,0.043681,0.975641,-0.214962,-1.445079,-0.613169,2.438183
913,-0.007026,0.99174,-0.128041,-0.985726,-0.196253,1.839513
914,-0.070715,0.994303,-0.079704,-0.694162,1.7888240000000002,1.680779
915,-0.134811,0.990105,-0.03885,-0.709946,3.192146,1.519456
916,-0.169882,0.981527,0.087949,0.120398,5.098307,-2.197202
917,-0.174933,0.942972,0.283179,-0.024835,1.5427,-3.843543
918,-0.165949,0.946446,0.276926,0.441218,-0.333028,0.516882
919,-0.176663,0.937578,0.299542,0.4519319999999999,-0.324159,0.494266
920,-0.206906,0.914631,0.347313,0.6003850000000001,-1.547245,-1.312904
921,-0.186637,0.903231,0.386427,1.226142,-0.877337,-1.988234
922,-0.127686,0.903814,0.408414,1.231064,-0.606649,-1.865018
923,-0.095045,0.919132,0.382294,-0.386736,-0.932147,-0.526932
924,-0.115218,0.936035,0.332489,-0.377931,-0.729477,-0.835067
925,-0.1373069999999999,0.951798,0.274251,-0.331702,-0.3729099999999999,-0.957998
926,-0.1434349999999999,0.968391,0.204037,0.2349119999999999,0.192986,-0.0687059999999999
927,-0.1649779999999999,0.979814,0.112845,0.432587,1.32617,-0.551916
928,-0.190965,0.981504,0.013031,0.584809,2.1887380000000003,-0.51503
929,-0.182997,0.98003,-0.07773,-0.0226759999999999,2.547344,0.385469
930,-0.155968,0.970246,-0.185165,-1.452277,3.496688,0.207092
931,-0.13175,0.950041,-0.282938,-1.6983130000000002,2.348711,0.12475
932,-0.097037,0.928374,-0.358744,-0.265878,0.709703,0.655909
933,-0.080899,0.902099,-0.4238689999999999,1.395627,0.79451,1.1473799999999998
934,-0.119918,0.86419,-0.4886609999999999,2.017668,0.764472,1.092207
935,-0.1580119999999999,0.8260040000000001,-0.541057,-0.45382,-0.80896,1.452907
936,-0.191722,0.80355,-0.563511,-0.436406,-1.6378549999999998,1.721745
937,-0.216153,0.800509,-0.558979,-0.210055,-1.997225,1.908481
938,-0.218962,0.816667,-0.5339520000000001,0.068694,-2.567689,2.170731
939,-0.193992,0.848427,-0.4924739999999999,0.1340559999999999,-1.858392,1.556027
940,-0.1518779999999999,0.8876799999999999,-0.434683,0.036537,-1.048035,1.070928
941,-0.117866,0.929108,-0.350509,0.220923,0.25296,-0.56897
942,-0.073097,0.956495,-0.282427,0.992637,2.890017,-3.730009
943,-0.049382,0.959311,-0.277982,0.7528739999999999,1.824304,-2.079104
944,-0.030218,0.960505,-0.2766,-0.259882,-0.033091,1.367542
945,0.046868,0.944463,-0.325245,-1.32589,1.568034,0.04108
946,0.070814,0.943063,-0.324973,-1.38725,0.326208,1.112327
947,0.0617259999999999,0.96064,-0.270831,-1.634861,-0.736123,2.330921
948,0.0183669999999999,0.986193,-0.164543,-1.045818,-0.357455,1.824776
949,-0.043564,0.994199,-0.098274,-0.552048,0.605029,1.77079
950,-0.118497,0.991333,-0.056613,-0.3432489999999999,2.632142,1.822741
951,-0.166869,0.985971,-0.001144,0.929976,5.415426999999999,-3.247696
952,-0.1623,0.951539,0.261178,1.015236,3.655883,-3.807916000000001
953,-0.169986,0.935733,0.309013,0.000247,0.764538,-1.463676
954,-0.161588,0.934574,0.316926,0.250394,-0.42696,0.052932
955,-0.192165,0.913309,0.359053,0.3377179999999999,-1.549387,-1.130049
956,-0.186712,0.902759,0.387486,1.055883,-1.403919,-1.618031
957,-0.141751,0.902785,0.406036,1.065686,-0.667602,-1.835387
958,-0.1103089999999999,0.912041,0.394959,0.754092,-0.353569,-1.259995
959,-0.125794,0.928062,0.350509,-0.353454,-0.769508,-0.722305
960,-0.140732,0.943782,0.299083,-0.181488,-0.234096,-0.688121
961,-0.142854,0.960276,0.239675,-0.029356,-0.183451,-0.523489
962,-0.151165,0.975393,0.160437,0.365795,0.63003,-0.312567
963,-0.180006,0.981579,0.063908,0.660384,2.210499,-0.3574719999999999
964,-0.1827869999999999,0.982599,-0.032748,0.6631640000000001,2.209478,-0.260816
965,-0.161179,0.97809,-0.131711,-0.060196,2.739073,0.296003
966,-0.134174,0.960467,-0.243903,-1.462628,2.2566040000000003,0.251731
967,-0.12185,0.936364,-0.329188,-1.474952,2.280707,0.337015
968,-0.0851659999999999,0.914193,-0.396217,0.690268,0.607947,1.157814
969,-0.083114,0.8922950000000001,-0.443727,1.810897,0.747628,1.14258
970,-0.132971,0.8494120000000001,-0.5106970000000001,0.367315,-0.175873,1.284409
971,-0.161197,0.818716,-0.5511010000000001,-0.523053,-1.345618,1.577361
972,-0.191695,0.806487,-0.559308,-0.352723,-1.777068,1.688092
973,-0.209909,0.813898,-0.5417569999999999,-0.143515,-2.431834,2.065286
974,-0.207211,0.838576,-0.503831,-0.088352,-2.156539,1.907335
975,-0.178793,0.869253,-0.4608939999999999,-0.039286,-1.201269,1.094546
976,-0.140376,0.904083,-0.403633,-0.022924,-0.343109,0.393883
977,-0.1055519999999999,0.941407,-0.320313,1.32418,3.043868,-3.578444
978,-0.057457,0.954216,-0.293527,1.049752,2.059318,-2.099753
979,-0.040806,0.957736,-0.284721,0.822514,0.7828189999999999,-0.384347
980,0.009627,0.946066,-0.323813,-0.664,0.5626770000000001,1.147223
981,0.057676,0.925598,-0.374076,-1.0857370000000002,-0.070815,1.337882
982,0.090196,0.930209,-0.3557599999999999,-1.169007,-0.600162,1.452379
983,0.06386,0.968876,-0.239142,-1.520174,-0.107456,1.7996740000000002
984,0.023648,0.993389,-0.112269,-1.167416,0.417576,1.368739
985,-0.040669,0.997875,-0.050746,-0.8553569999999999,0.6771119999999999,1.201869
986,-0.125728,0.991695,-0.026801,-0.4414869999999999,3.983647,1.454917
987,-0.186922,0.980846,0.05463,1.728243,4.355534,-3.137546
988,-0.193158,0.933156,0.303133,0.147534,2.481761,-3.875398
989,-0.19129,0.93031,0.312906,0.158728,0.193042,-0.600244
990,-0.177081,0.929242,0.324237,0.1056849999999999,-1.62109,-0.8677549999999999
991,-0.19444,0.910509,0.3648869999999999,0.123044,-1.602358,-0.908405
992,-0.18912,0.905139,0.3807,1.018664,-1.048618,-1.584389
993,-0.166447,0.909227,0.3815449999999999,0.875798,-0.458117,-1.125792
994,-0.147201,0.920754,0.361276,0.390472,-0.662361,-0.83114
995,-0.145927,0.935461,0.321861,-0.235954,-0.7248140000000001,-0.778221
996,-0.141164,0.951342,0.273861,-0.231868,-0.373125,-0.783184
997,-0.133483,0.968593,0.2097369999999999,-0.174943,-0.189097,-0.648366
998,-0.141525,0.981736,0.1270609999999999,0.293717,1.142455,-0.42711
999,-0.167591,0.98524,0.034612,0.542942,2.126516,-0.318746
1000,-0.181719,0.981062,-0.066926,0.7066060000000001,3.081408,-0.295852
1001,-0.1623609999999999,0.970047,-0.180649,-0.5696939999999999,3.634995,0.250397
1002,-0.134747,0.946499,-0.293207,-1.343281,2.301319,0.425882
1003,-0.09457,0.919891,-0.380588,-1.404957,1.5221870000000002,0.458133
1004,-0.075917,0.88889,-0.451776,0.744084,0.915584,1.51272
1005,-0.117279,0.848151,-0.516602,0.389389,-0.004584,1.153595
1006,-0.167771,0.802581,-0.572459,-0.4832149999999999,-0.711669,1.245234
1007,-0.21241,0.775993,-0.593895,-0.512261,-1.994666,1.905982
1008,-0.239761,0.774782,-0.584996,-0.043549,-2.379198,2.2290240000000003
1009,-0.23984,0.800049,-0.549901,0.027179,-2.427261,2.169636
1010,-0.219004,0.835648,-0.503708,-0.1203359999999999,-1.295319,1.40152
1011,-0.178707,0.8718030000000001,-0.456086,-0.0513799999999999,-0.288749,0.659135
1012,-0.137138,0.911347,-0.38811,0.1133339999999999,-0.0067909999999999,0.140308
1013,-0.083877,0.93847,-0.335005,1.455856,2.19654,-2.641542
1014,-0.05123,0.944156,-0.325476,0.5411590000000001,-0.668384,1.283087
1015,-0.0165909999999999,0.947021,-0.320725,0.2938739999999999,-1.47023,1.993058
1016,0.050775,0.937954,-0.343007,-1.396433,1.692188,-0.2404889999999999
1017,0.060785,0.946954,-0.315552,-1.465311,0.640601,1.090577
1018,0.044973,0.96556,-0.25624,-1.356161,-0.510284,1.01091
1019,-0.0009449999999999,0.98265,-0.185434,-0.7741560000000001,-0.133803,1.6896759999999995
1020,-0.072737,0.988992,-0.1288,-0.221742,1.136862,1.898209
1021,-0.144395,0.987126,-0.068684,0.0404519999999999,2.071804,1.897297
1022,-0.174234,0.984562,0.016278,1.524256,4.096524,-3.341061
1023,-0.182481,0.952572,0.243492,-0.484817,1.413975,-4.985954
1024,-0.178196,0.945476,0.272584,-0.227688,0.802708,-2.361283
1025,-0.166298,0.9463,0.277204,-0.175041,-0.906596,-0.116468
1026,-0.196235,0.924756,0.326034,0.283286,-1.799161,-1.562469
1027,-0.198981,0.911008,0.361177,0.8940030000000001,-1.352933,-1.928621
1028,-0.182349,0.911445,0.368774,1.292243,-0.482429,-1.345962
1029,-0.192958,0.92251,0.3342449999999999,0.529903,-0.767786,-0.607438
1030,-0.207315,0.938292,0.276782,0.266061,-0.965834,-0.549716
1031,-0.199148,0.952306,0.231158,-0.1411079999999999,-0.37885,-0.91553
1032,-0.188291,0.965758,0.178438,0.118376,0.0197919999999999,-0.173891
1033,-0.192348,0.976094,0.101118,0.122432,0.009456,-0.096571
1034,-0.206761,0.978266,0.0151569999999999,0.541218,1.509619,-0.186711
1035,-0.197995,0.977507,-0.072546,0.726422,2.6676040000000003,-0.204401
1036,-0.174567,0.969198,-0.17369,0.223288,2.673075,0.166076
1037,-0.138606,0.94966,-0.280933,-1.062001,2.61252,0.49805
1038,-0.098408,0.928535,-0.35795,-0.5550039999999999,1.019845,0.160654
1039,-0.051565,0.911883,-0.4071869999999999,-0.239496,0.940992,0.481268
1040,-0.0571,0.8870290000000001,-0.458159,1.339556,0.357661,0.8516530000000001
1041,-0.125965,0.8432799999999999,-0.5224979999999999,-0.7606470000000001,-0.955951,1.24053
1042,-0.167841,0.816244,-0.552782,-0.718771,-0.928915,1.270815
1043,-0.199174,0.809959,-0.551624,-0.292418,-2.067771,2.009205
1044,-0.208892,0.824735,-0.525517,-0.298676,-2.150952,2.097524
1045,-0.191046,0.8548530000000001,-0.482409,-0.194406,-2.009822,2.054537
1046,-0.170075,0.8875069999999999,-0.428247,0.441559,-0.5780890000000001,1.089609
1047,-0.1396339999999999,0.92301,-0.358531,0.647278,0.2471409999999999,-0.38004
1048,-0.100008,0.954432,-0.281152,1.401446,1.70957,-3.959174
1049,-0.042445,0.960283,-0.275758,1.342708,1.803145,-2.231032
1050,-0.02129,0.964759,-0.262248,-0.440746,-0.664542,2.045451
1051,0.032066,0.948869,-0.314017,-0.811134,0.265883,0.650153
1052,0.047452,0.94063,-0.336082,-1.036726,-0.0637539999999999,1.425209
1053,0.038491,0.94946,-0.3115,-1.261025,-0.8714870000000001,1.997474
1054,0.012594,0.972543,-0.23235,-1.45931,-0.307688,2.1324970000000003
1055,-0.039896,0.98739,-0.153149,-0.462408,0.818213,1.983151
1056,-0.098699,0.991056,-0.089724,-0.182505,2.471331,1.817477
1057,-0.1499319999999999,0.988232,-0.030023,0.143219,3.743488,1.496225
1058,-0.158517,0.977592,0.138441,-1.3355629999999998,2.128029,-4.730467
1059,-0.143599,0.944418,0.295687,-0.334764,0.734399,-1.638628
1060,-0.13469,0.94718,0.291007,-0.111647,0.154596,-0.26081
1061,-0.159425,0.929737,0.331886,0.327287,-1.58437,-0.996208
1062,-0.182967,0.910627,0.370482,1.0597219999999998,-1.382535,-1.831359
1063,-0.160524,0.908667,0.385396,1.065782,-0.8648290000000001,-1.7379810000000002
1064,-0.129478,0.917233,0.376688,0.671455,-0.609448,-0.730326
1065,-0.127293,0.930424,0.343631,-0.1627,-0.729283,-0.903064
1066,-0.126013,0.942945,0.308141,-0.335351,-0.709897,-0.7968649999999999
1067,-0.122018,0.959232,0.254876,-0.210944,-0.366901,-0.543237
1068,-0.122655,0.975031,0.1850619999999999,0.241078,0.260382,-0.110522
1069,-0.139472,0.985319,0.09835,0.387717,0.676821,-0.090537
1070,-0.154666,0.987947,0.00441,0.7053560000000001,2.31819,-0.6010439999999999
1071,-0.148901,0.985181,-0.085025,-0.0572299999999999,2.594226,0.158175
1072,-0.121398,0.972102,-0.2006619999999999,-0.683014,3.5866300000000004,0.186594
1073,-0.099973,0.948217,-0.301458,-1.322207,1.253703,0.392965
1074,-0.055172,0.926507,-0.372193,0.927822,0.921149,1.070145
1075,-0.029093,0.903629,-0.427313,1.310022,0.8663139999999999,1.1131799999999998
1076,-0.079634,0.848867,-0.522565,0.801924,0.398707,1.27432
1077,-0.14806,0.799451,-0.5821930000000001,-0.606853,-1.2518129999999998,1.497507
1078,-0.192986,0.773903,-0.6031770000000001,-0.446113,-1.789497,1.720166
1079,-0.208064,0.77268,-0.599722,-0.174443,-2.495062,2.198905
1080,-0.196938,0.796901,-0.571101,-0.067864,-2.267314,2.015421
1081,-0.162263,0.837644,-0.52155,-0.102538,-2.308057,1.965871
1082,-0.114504,0.8819110000000001,-0.4572859999999999,0.249484,-0.024367,0.168803
1083,-0.070763,0.923872,-0.376085,1.0732959999999998,2.231157,-4.258513
1084,-0.018975,0.938611,-0.344436,1.089898,2.639834,-3.445725
1085,-0.008092,0.937859,-0.346905,0.688863,-0.039986,0.6124229999999999
1086,0.036167,0.937619,-0.34576,-1.021839,0.620624,1.1031
1087,0.068719,0.922573,-0.379637,-1.054391,0.63567,1.136977
1088,0.080528,0.924461,-0.372659,-1.323891,-0.770134,1.494378
1089,0.064607,0.961416,-0.267379,-1.579072,-0.267309,2.215194
1090,0.028359,0.990894,-0.1315609999999999,-1.074273,0.110378,1.696823
1091,-0.026943,0.997918,-0.058439,-0.228077,1.830084,1.699537
1092,-0.093895,0.9953,-0.0233069999999999,-0.016227,3.374207,1.5166540000000002
1093,-0.137233,0.987493,0.077486,0.595119,4.95991,0.02574
1094,-0.1476829999999999,0.94582,0.289119,0.06727,1.760921,-4.971584
1095,-0.124676,0.946262,0.2983639999999999,0.134762,-0.096256,0.117438
1096,-0.119294,0.939004,0.3225159999999999,0.075059,-0.8413930000000001,0.077874
1097,-0.145648,0.917447,0.370205,0.8979520000000001,-1.445188,-2.049252
1098,-0.1229609999999999,0.904476,0.408386,1.286093,-0.797145,-2.053207
1099,-0.074157,0.908721,0.410732,1.065368,-0.517532,-1.507182
1100,-0.068879,0.924302,0.375362,-0.322631,-0.7740640000000001,-0.7507739999999999
1101,-0.075364,0.941242,0.32918,-0.532058,-0.6301,-0.7458670000000001
1102,-0.0748559999999999,0.957896,0.277143,-0.5499149999999999,-0.45843,-0.639066
1103,-0.074429,0.976964,0.199945,0.066953,0.1840619999999999,-0.130609
1104,-0.095666,0.989424,0.1089369999999999,0.359124,1.229067,-0.2458389999999999
1105,-0.123598,0.992289,0.008186,0.56067,2.072515,-0.27555
1106,-0.117742,0.988756,-0.092092,-0.124369,2.214415,0.217443
1107,-0.09291,0.97489,-0.202343,-1.380433,3.470377,0.332302
1108,-0.070314,0.951702,-0.2988389999999999,-1.6703169999999998,2.571338,0.388546
1109,-0.0295269999999999,0.926334,-0.375528,-0.06877,0.767285,0.709451
1110,0.001051,0.902299,-0.431096,1.776857,1.288008,1.137456
1111,-0.022625,0.860086,-0.509638,2.236904,1.147117,0.918452
1112,-0.09091,0.807335,-0.5830420000000001,-0.734255,-0.8265459999999999,1.363132
1113,-0.1470769999999999,0.775388,-0.614113,-0.6231869999999999,-1.654721,1.636452
1114,-0.1822119999999999,0.76817,-0.6137630000000001,-0.379587,-2.099957,1.882074
1115,-0.187828,0.788099,-0.5861850000000001,-0.169533,-2.480756,2.296085
1116,-0.156177,0.826601,-0.540676,-0.204006,-1.708162,1.726376
1117,-0.1031079999999999,0.8707280000000001,-0.480824,-0.022639,-0.933213,1.22884
1118,-0.05389,0.912953,-0.404478,0.445979,0.4918479999999999,-1.011111
1119,0.00116,0.934634,-0.355591,1.748154,2.596387,-3.221374
1120,0.04102,0.940405,-0.337554,1.295375,1.567132,-1.377503
1121,0.090645,0.937503,-0.335944,-1.064781,0.406918,1.718925
1122,0.109926,0.916479,-0.3846719999999999,-1.048189,-0.3684739999999999,1.476804
1123,0.128723,0.916977,-0.377588,-1.221771,-0.914154,1.460504
1124,0.106622,0.960607,-0.256616,-2.1049130000000003,-0.275366,2.316857
1125,0.077611,0.990847,-0.110371,-1.280782,0.376508,1.269444
1126,0.018254,0.999241,-0.0341459999999999,-1.001256,0.6856949999999999,1.143215
1127,-0.0616669999999999,0.997837,-0.022363,-0.2267239999999999,4.151867,1.479135
1128,-0.110974,0.991786,0.063453,2.454358,4.740651000000001,-2.941047
1129,-0.138713,0.938604,0.315843,1.138591,2.932444,-3.082246
1130,-0.1357529999999999,0.933593,0.3315889999999999,0.34962,0.492204,-1.013885
1131,-0.115395,0.936354,0.331513,0.159538,-1.211333,-0.766633
1132,-0.134849,0.914634,0.381096,0.178993,-1.1896129999999998,-0.8162159999999999
1133,-0.094749,0.901051,0.423208,0.97779,-0.960636,-2.190359
1134,-0.043367,0.914686,0.4018,0.020021,-0.688124,-0.540304
1135,-0.059421,0.931413,0.359048,0.036075,-0.70485,-0.497552
1136,-0.074709,0.946184,0.314852,-0.166655,-0.6785899999999999,-0.811038
1137,-0.067389,0.961354,0.266899,0.2605949999999999,-0.322011,-0.7329479999999999
1138,-0.061764,0.980053,0.188841,0.25497,-0.34071,-0.65489
1139,-0.0691809999999999,0.993416,0.091209,0.321745,0.2302469999999999,-0.023521
1140,-0.086958,0.996184,-0.006187,0.544844,2.411317,-0.1162339999999999
1141,-0.0937679999999999,0.989599,-0.109021,0.551653,2.417902,-0.0134
1142,-0.0694299999999999,0.974444,-0.213602,-0.626829,3.066694,0.073694
1143,-0.036513,0.950317,-0.309116,-1.383211,2.633652,0.331119
1144,0.014347,0.923164,-0.3841239999999999,-0.935642,1.235955,0.217819
1145,0.049739,0.8956350000000001,-0.441989,1.070195,0.671794,1.17908
1146,0.024962,0.853457,-0.520558,1.016771,0.2188699999999999,0.99915
1147,-0.043078,0.802829,-0.594644,-0.493589,-0.5195960000000001,1.316751
1148,-0.101298,0.7725270000000001,-0.626845,-0.700521,-1.550893,1.6448349999999998
1149,-0.137656,0.765737,-0.6282449999999999,-0.242181,-2.270284,2.085154
1150,-0.140018,0.7854760000000001,-0.602839,-0.119396,-2.350891,2.203104
1151,-0.114628,0.826383,-0.551311,-0.250377,-1.50427,1.778621
1152,-0.069894,0.8727280000000001,-0.4831689999999999,0.108972,-0.4235239999999999,0.925979
1153,-0.017893,0.915033,-0.402969,0.1557869999999999,-0.0971009999999999,0.318878
1154,0.03406,0.939284,-0.34143,1.461042,2.367372,-3.861222
1155,0.069846,0.939682,-0.334826,0.398782,-0.116943,0.67055
1156,0.106679,0.942145,-0.317758,-0.246801,-0.786094,1.114755
1157,0.144609,0.930793,-0.335709,-1.34224,0.808571,1.850052
1158,0.147241,0.934697,-0.323496,-1.04899,-0.319753,1.409892
1159,0.127157,0.958669,-0.254504,-1.176107,-0.4869739999999999,1.618213
1160,0.074543,0.989806,-0.121299,-0.888325,0.562318,2.218299
1161,0.014361,0.998218,-0.057782,-0.1952539999999999,0.91615,1.651258
1162,-0.0505829999999999,0.998309,-0.028341,0.044617,1.563107,1.745459
1163,-0.0874549999999999,0.995911,0.022268,0.8539959999999999,4.432861,-1.235937
1164,-0.068387,0.967854,0.2419909999999999,-0.929096,2.494442,-5.438921
1165,-0.101133,0.933873,0.342972,-0.396792,1.423869,-4.825806
1166,-0.085307,0.943258,0.3208809999999999,0.326472,-0.4822439999999999,0.3148
1167,-0.114969,0.928027,0.3542929999999999,0.486093,-1.495898,-1.092468
1168,-0.12343,0.912396,0.390223,0.7480640000000001,-1.705075,-1.707773
1169,-0.10035,0.911641,0.398516,1.079171,-0.7043510000000001,-1.4458030000000002
1170,-0.092884,0.923545,0.37204,0.537144,-0.573997,-0.744171
1171,-0.097055,0.938747,0.330623,0.21795,-0.720653,-0.8377190000000001
1172,-0.0899,0.953201,0.288624,-0.192082,-0.533203,-0.885548
1173,-0.08196,0.970669,0.225971,0.001943,-0.123944,-0.8236879999999999
1174,-0.087397,0.986612,0.137616,0.132761,-0.066782,-0.437818
1175,-0.1043569999999999,0.993664,0.041497,0.5676899999999999,1.549289,0.140098
1176,-0.095885,0.993806,-0.056013,0.712264,2.698668,-0.338503
1177,-0.0626429999999999,0.985635,-0.156792,0.244359,2.395041,0.102257
1178,-0.018449,0.966554,-0.255771,-1.4411459999999998,3.435454,0.584445
1179,0.01109,0.948943,-0.315232,-1.1523709999999998,1.213334,0.389527
1180,0.058963,0.929695,-0.363565,-0.077899,0.5757680000000001,0.769388
1181,0.076376,0.906338,-0.41558,1.296991,0.381992,1.1620549999999998
1182,0.037432,0.86964,-0.492256,-0.8028890000000001,-0.8607440000000001,1.028343
1183,0.0053159999999999,0.841799,-0.5397569999999999,-0.8522860000000001,-0.994707,1.22683
1184,-0.0341949999999999,0.8300059999999999,-0.5566979999999999,-0.6386569999999999,-1.735371,1.5923120000000002
1185,-0.064925,0.83652,-0.544068,-0.345827,-2.368198,2.143495
1186,-0.071963,0.857247,-0.509844,-0.354811,-2.371254,2.0432
1187,-0.053103,0.8884049999999999,-0.455968,-0.207426,-1.7230759999999998,1.390141
1188,-0.02089,0.92575,-0.3775429999999999,0.118958,-0.099899,0.157648
1189,0.020065,0.96154,-0.273909,0.468949,0.757058,-1.74724
1190,0.075085,0.970263,-0.230082,1.497394,2.575361,-2.441503
1191,0.101112,0.973461,-0.2052719999999999,0.3713,-0.017314,1.143123
1192,0.142252,0.963523,-0.226658,-0.511896,0.891244,0.766407
1193,0.173956,0.948031,-0.266389,-1.115027,-0.126101,0.8365030000000001
1194,0.178767,0.945439,-0.27235,-1.708217,-0.779179,1.277935
1195,0.112572,0.972273,-0.2049369999999999,-2.111825,-0.175474,2.073376
1196,0.048917,0.990438,-0.128937,-0.798048,0.2294409999999999,1.63852
1197,-0.007736,0.996946,-0.077607,-0.550797,0.53528,1.677659
1198,-0.051737,0.998305,-0.026355,-0.4322569999999999,2.704164,1.654483
1199,-0.067182,0.993682,0.089803,0.789151,3.34485,-4.214971
1200,-0.082687,0.946587,0.31163,-0.075898,2.251136,-4.942245
1201,-0.086328,0.949616,0.3012559999999999,0.231561,0.635879,-0.6784680000000001
1202,-0.10346,0.934896,0.339476,0.284017,-1.1667530000000002,-0.690673
1203,-0.113173,0.914695,0.387946,0.933562,-1.389411,-2.1455610000000003
1204,-0.0628789999999999,0.908326,0.4134819999999999,1.15286,-1.077256,-2.214507
1205,-0.029675,0.920991,0.388424,0.611691,-0.576066,-1.203152
1206,-0.034069,0.937413,0.346518,-0.192417,-0.68134,-0.40531
1207,-0.0250349999999999,0.956969,0.289074,-0.286443,-0.592665,-0.477688
1208,-0.00758,0.97482,0.222819,-0.488804,-0.125409,-0.8284860000000001
1209,-0.005069,0.990883,0.134568,0.0423,0.403679,0.068465
1210,-0.0236639999999999,0.998896,0.040373,0.307829,1.043035,0.098482
1211,-0.032514,0.997673,-0.059802,0.29672,2.841835,-0.1774869999999999
1212,-0.0138789999999999,0.98505,-0.171672,-0.866584,3.596035,0.3311409999999999
1213,0.005497,0.962331,-0.271803,-1.476429,3.49177,0.352675
1214,0.0279959999999999,0.935777,-0.351464,-1.043393,0.909041,0.338739
1215,0.059921,0.910018,-0.410205,0.653198,0.974244,1.329929
1216,0.042704,0.870676,-0.489992,1.328131,0.771216,1.336778
1217,-0.026162,0.815368,-0.578347,-0.289863,-0.631957,1.22596
1218,-0.080494,0.781459,-0.618738,-0.6194109999999999,-1.328395,1.588983
1219,-0.121205,0.7708229999999999,-0.625409,-0.410365,-1.836161,1.7595490000000005
1220,-0.126519,0.788662,-0.6016640000000001,0.007561,-2.446362,2.177683
1221,-0.104048,0.8309280000000001,-0.546558,-0.07564,-2.134105,2.000629
1222,-0.05987,0.8776430000000001,-0.4755529999999999,-0.006185,-1.469684,1.616315
1223,-0.013453,0.920959,-0.389415,0.1892039999999999,-0.0693049999999999,0.14001
1224,0.030699,0.949268,-0.31295,0.737031,1.674694,-4.022652
1225,0.05966,0.947736,-0.3134119999999999,0.858873,2.39989,-3.192539
1226,0.066245,0.95302,-0.295557,0.473122,-0.864275,1.19694
1227,0.10804,0.947925,-0.299593,-0.924462,0.401944,0.991411
1228,0.151138,0.935874,-0.318256,-1.731689,1.92878,-0.773999
1229,0.121151,0.959786,-0.253221,-1.6763880000000002,-0.174035,1.179017
1230,0.106357,0.979549,-0.17076,-1.066013,-0.204601,1.442641
1231,0.06081,0.993606,-0.095059,-0.744175,-0.0382529999999999,1.290402
1232,-0.006494,0.998986,-0.044382,-0.138404,0.970389,1.775797
1233,-0.061734,0.998068,0.005789,0.377866,3.192514,1.78193
1234,-0.074985,0.988283,0.1328859999999999,1.119815,4.706358,-0.278394
1235,-0.087899,0.940541,0.328081,-0.4906689999999999,1.673778,-5.249406
1236,-0.064105,0.943439,0.325259,-0.078473,-0.11681,0.073789
1237,-0.075464,0.930953,0.357229,-0.1910609999999999,-0.802657,-0.2097369999999999
1238,-0.087973,0.911886,0.40088,0.883841,-1.364584,-1.87018
1239,-0.0591549999999999,0.913776,0.401864,0.993024,-0.743717,-1.593393
1240,-0.0474459999999999,0.924062,0.379261,0.880606,-0.6039479999999999,-1.188327
1241,-0.050462,0.938316,0.34205,-0.05432,-0.719062,-0.516504
1242,-0.04127,0.954221,0.296211,-0.414876,-0.492475,-1.173546
1243,-0.025004,0.97371,0.226377,-0.4528399999999999,-0.269883,-1.210187
1244,-0.021092,0.990623,0.134926,0.021443,0.175667,-0.033531
1245,-0.040491,0.998113,0.046002,0.427302,1.428019,0.095752
1246,-0.062211,0.99692,-0.047622,0.553864,2.442961,0.040923
1247,-0.057936,0.986801,-0.15118,-0.356173,3.120514,0.332989
1248,-0.031528,0.967056,-0.252583,-1.162823,2.522599,0.49471
1249,-0.000592,0.941922,-0.335819,-1.263125,1.610202,0.5182829999999999
1250,0.043547,0.919514,-0.390627,0.020586,0.686855,0.988802
1251,0.059598,0.8976709999999999,-0.436609,1.446887,0.554661,1.0777219999999998
1252,0.015279,0.854381,-0.519417,1.067149,0.360967,0.995903
1253,-0.023796,0.8204809999999999,-0.5711729999999999,-0.7887350000000001,-1.072007,1.2847959999999998
1254,-0.058063,0.807158,-0.5874689999999999,-0.5234340000000001,-1.833189,1.581091
1255,-0.082035,0.816488,-0.5715,-0.303066,-2.168371,1.808972
1256,-0.0892049999999999,0.8412430000000001,-0.533241,-0.276991,-2.322551,2.117592
1257,-0.074793,0.871817,-0.484081,-0.350393,-1.331076,1.30801
1258,-0.0530799999999999,0.905941,-0.420055,-0.246359,-0.736065,0.8930469999999999
1259,-0.022993,0.938653,-0.344082,0.447431,1.0338040000000002,-2.67548
1260,0.030483,0.946692,-0.32068,1.300922,1.920251,-2.225234
1261,0.054053,0.951216,-0.303739,0.706796,-0.7407060000000001,0.8497899999999999
1262,0.081227,0.948191,-0.307127,-0.785466,0.300878,1.178175
1263,0.1227819999999999,0.934377,-0.334449,-1.407892,1.6884259999999998,-1.055276
1264,0.114901,0.953427,-0.278865,-1.20273,0.470767,1.525814
1265,0.112923,0.96876,-0.220775,-0.628395,-0.230052,1.256145
1266,0.0697179999999999,0.984776,-0.1592029999999999,-0.510301,0.1223559999999999,1.328911
1267,0.007462,0.992219,-0.124241,-0.264832,0.268417,1.30048
1268,-0.043745,0.9957,-0.081584,0.06819,1.7000240000000002,1.536143
1269,-0.046903,0.998871,0.006608,1.073408,4.085952,-0.4712689999999999
1270,-0.0538639999999999,0.973726,0.221226,0.8509530000000001,3.628523,-1.711323
1271,-0.043967,0.956753,0.28753,-0.1470119999999999,1.148547,-1.47294
1272,-0.0201,0.961786,0.2730349999999999,-0.06065,-0.747796,-0.35351
1273,-0.029873,0.947853,0.317278,-0.044452,-1.196617,-0.678423
1274,-0.03525,0.932441,0.359574,0.186144,-1.712074,-1.795395
1275,-0.009325,0.93015,0.367039,0.838,-0.704152,-1.422825
1276,0.00044,0.943066,0.33258,0.611849,-0.72073,-0.83052
1277,-0.0100489999999999,0.958662,0.28434,-0.1933359999999999,-0.613112,-0.685463
1278,-0.002101,0.972631,0.232314,-0.315251,-0.021016,-0.703734
1279,0.006367,0.986773,0.16194,-0.156163,0.258634,-0.199202
1280,-0.0060009999999999,0.997488,0.070485,0.189793,1.196283,0.002254
1281,-0.023707,0.999561,-0.017381,0.171808,1.494244,-0.4096359999999999
1282,-0.024953,0.994657,-0.100117,-0.055095,1.409045,-0.0053219999999999
1283,-0.010467,0.979384,-0.201707,-1.47284,3.38437,0.190645
1284,0.00108,0.955811,-0.293963,-1.186962,1.395263,0.249544
1285,0.014496,0.927084,-0.374562,-0.35434,1.199106,0.452611
1286,-7.099999999999999e-05,0.89695,-0.4421229999999999,1.270792,0.758308,0.954269
1287,-0.015974,0.8645430000000001,-0.5022979999999999,0.953566,0.335179,0.8185520000000001
1288,-0.069622,0.819943,-0.568191,-0.202442,-0.254345,1.326827
1289,-0.112686,0.793184,-0.5984619999999999,-0.3985599999999999,-1.505907,1.473935
1290,-0.134022,0.790942,-0.597029,0.1230049999999999,-2.03287,1.840315
1291,-0.143266,0.807815,-0.571755,0.27318,-2.234802,2.029671
1292,-0.137986,0.8341729999999999,-0.533956,0.002977,-2.208318,1.841696
1293,-0.10185,0.870099,-0.4822329999999999,-0.02727,-0.845959,0.983499
1294,-0.061297,0.910211,-0.409574,-0.038419,-0.48118,0.509351
1295,-0.017879,0.940236,-0.340041,1.030116,2.661677,-4.258241
1296,0.019923,0.941259,-0.3370849999999999,0.551702,1.637431,-1.516644
1297,0.054221,0.93615,-0.347382,-0.375037,1.19213,0.3144079999999999
1298,0.077795,0.902498,-0.423601,-0.768179,-0.129854,1.940798
1299,0.10222,0.891008,-0.442321,-1.1475229999999998,-0.770464,1.703048
1300,0.082072,0.924909,-0.371214,-1.248011,-0.8945280000000001,1.79608
1301,0.0288839999999999,0.967002,-0.253107,-0.998535,0.309091,1.932063
1302,-0.021328,0.982804,-0.183386,-0.430775,1.162627,1.6834169999999995
1303,-0.08428,0.984056,-0.156584,-0.196115,1.85977,1.826887
1304,-0.12334,0.988036,-0.092524,1.38724,4.422594,-1.2138870000000002
1305,-0.113825,0.977449,0.177822,-0.42246,3.047362,-6.393475
1306,-0.12577,0.96,0.250129,-0.453438,1.650275,-6.075522
1307,-0.098174,0.970219,0.221406,0.252013,-0.242176,0.528929
1308,-0.1157599999999999,0.96293,0.243617,0.327446,-1.49598,-0.632655
1309,-0.151815,0.947345,0.281909,0.3635,-1.480395,-0.6709470000000001
1310,-0.1547059999999999,0.9307,0.331428,1.17175,-1.105672,-2.220161
1311,-0.142977,0.930864,0.336201,0.949236,-0.731721,-1.065129
1312,-0.154111,0.946607,0.2831369999999999,0.154462,-0.565275,-0.678355
1313,-0.14639,0.963809,0.222768,-0.317843,-0.352435,-0.786626
1314,-0.131345,0.978431,0.159386,-0.384631,-0.214119,-0.820946
1315,-0.13398,0.987446,0.083569,-0.091499,-0.110508,-0.217892
1316,-0.151719,0.988397,-0.006218,0.714631,1.52053,0.385139
1317,-0.1517869999999999,0.98263,-0.106706,0.768257,2.49729,0.037187
1318,-0.115203,0.971967,-0.20493,0.587615,3.013476,-0.23756
1319,-0.055058,0.957065,-0.2845789999999999,-1.041882,2.965664,0.29967
1320,-0.014908,0.937783,-0.346888,-0.906387,1.335914,0.060465
1321,0.011783,0.912628,-0.40861,0.25755,0.7759699999999999,0.7073619999999999
1322,0.015169,0.8869379999999999,-0.461631,0.86392,0.472391,0.980292
1323,-0.0207949999999999,0.851923,-0.5232479999999999,-0.367892,-0.331522,0.927194
1324,-0.060783,0.8250549999999999,-0.561768,-0.759346,-0.544507,1.231522
1325,-0.098225,0.814802,-0.571353,-0.481548,-1.7854439999999998,1.53461
1326,-0.122029,0.822666,-0.555269,-0.054698,-2.477802,2.057039
1327,-0.126779,0.844943,-0.5196069999999999,0.023874,-2.648807,2.191375
1328,-0.10479,0.877447,-0.468079,-0.177849,-1.177359,1.121339
1329,-0.077092,0.914271,-0.397688,-0.044505,-0.249217,0.2727489999999999
1330,-0.048921,0.947557,-0.315804,0.210511,0.219572,-0.762717
1331,0.00301,0.956066,-0.29312,0.80093,1.689457,-1.84073
1332,0.014618,0.960655,-0.277341,0.394684,-0.832375,1.458508
1333,0.03796,0.956628,-0.288812,0.08556,-1.513299,2.293984
1334,0.079111,0.937362,-0.339242,-1.328546,1.782807,-0.364813
1335,0.068127,0.943,-0.325731,-1.531842,0.549859,1.0863200000000002
1336,0.0340899999999999,0.959242,-0.280504,-1.221422,-0.438246,0.96515
1337,-0.00887,0.975941,-0.217829,-0.8781690000000001,-0.095585,1.390711
1338,-0.062193,0.986139,-0.15379,-0.561571,1.059287,1.394193
1339,-0.117815,0.987104,-0.108319,-0.363905,1.702227,1.29582
1340,-0.158855,0.987209,-0.013037,1.6697650000000002,3.558628,0.0536409999999999
1341,-0.177916,0.968012,0.176873,-0.005403,1.952108,-4.386680999999999
1342,-0.166284,0.953986,0.249488,-0.3018099999999999,1.271997,-4.027275
1343,-0.1341119999999999,0.963783,0.23048,0.06444,-0.336586,0.318455
1344,-0.1554309999999999,0.951225,0.26645,0.16509,-1.02964,-0.5496840000000001
1345,-0.18285,0.931543,0.314289,0.4374119999999999,-1.366739,-1.216358
1346,-0.175136,0.919844,0.350994,1.340435,-0.754927,-1.947872
1347,-0.162947,0.925499,0.341881,0.8664379999999999,-0.570549,-0.953819
1348,-0.161677,0.942597,0.2921539999999999,0.41038,-0.718156,-0.67309
1349,-0.153064,0.959678,0.2357389999999999,-0.392056,-0.7086859999999999,-0.673895
1350,-0.1378609999999999,0.973911,0.1802099999999999,-0.292391,0.038891,-0.5058020000000001
1351,-0.134013,0.984254,0.11519,-0.296239,0.028548,-0.440783
1352,-0.151279,0.988034,0.0298279999999999,0.552188,1.919727,0.030948
1353,-0.141171,0.987802,-0.065609,0.536725,2.119666,-0.320835
1354,-0.110018,0.981083,-0.159248,0.073626,1.947887,0.193519
1355,-0.06865,0.965203,-0.252307,-1.487121,2.729362,0.584399
1356,-0.032546,0.948432,-0.31529,-1.127046,1.051309,0.2496929999999999
1357,0.009678,0.928328,-0.3716239999999999,0.049725,0.741853,0.700634
1358,0.008295,0.90356,-0.428372,1.031531,0.6202439999999999,0.91969
1359,-0.0278899999999999,0.865677,-0.499818,-0.692325,-0.532791,0.993882
1360,-0.064799,0.832254,-0.550588,-0.655416,-0.499368,1.044653
1361,-0.097286,0.816878,-0.568541,-0.332875,-2.062239,1.599318
1362,-0.114866,0.824775,-0.553665,0.091657,-2.541251,2.013733
1363,-0.115448,0.850751,-0.512725,0.096557,-2.535398,1.972014
1364,-0.10157,0.8820309999999999,-0.460105,0.061561,-0.964871,0.984397
1365,-0.077387,0.917743,-0.389551,0.158595,-0.101275,-0.169744
1366,-0.040929,0.94863,-0.313712,0.526784,0.724404,-2.343286
1367,0.010074,0.954731,-0.29728,0.827435,0.7233539999999999,-0.38494
1368,0.02767,0.959882,-0.279015,-0.169699,-0.834577,1.862939
1369,0.054073,0.949661,-0.30856,-0.728481,-0.422027,1.854047
1370,0.057034,0.941276,-0.3327699999999999,-1.37341,0.97303,1.710425
1371,0.0297089999999999,0.953675,-0.299352,-1.0186,-0.4499359999999999,1.464375
1372,0.0151759999999999,0.967245,-0.253368,-0.8937309999999999,-0.5120600000000001,1.244624
1373,-0.035737,0.982288,-0.183906,-0.62007,0.481839,1.720893
1374,-0.094059,0.986651,-0.132891,-0.229656,1.502714,1.6631790000000002
1375,-0.132852,0.988572,-0.071147,-0.046423,2.373443,1.286052
1376,-0.139319,0.986973,0.080364,1.056921,3.5073199999999995,-1.856502
1377,-0.178522,0.94742,0.265532,0.087229,1.235121,-4.546202
1378,-0.148424,0.95273,0.2650619999999999,0.276704,0.686629,-1.418917
1379,-0.126321,0.956736,0.262073,0.107431,-0.597178,0.144834
1380,-0.1559299999999999,0.938821,0.307055,0.32074,-1.511026,-1.5764790000000002
1381,-0.158574,0.921805,0.353711,0.7623340000000001,-1.538916,-2.127011
1382,-0.140765,0.926312,0.349448,0.530551,-0.765835,-1.178916
1383,-0.145173,0.942499,0.301003,-0.032562,-0.818384,-0.532143
1384,-0.156697,0.957844,0.240758,-0.113338,-0.8491709999999999,-0.45577
1385,-0.157326,0.969517,0.187803,-0.031212,-0.414951,-0.549589
1386,-0.155074,0.978376,0.136815,0.221068,-0.0052159999999999,-0.266866
1387,-0.164681,0.984534,0.059659,0.36863,0.374353,-0.007504
1388,-0.155318,0.987432,-0.0290199999999999,0.625059,1.695048,-0.302554
1389,-0.122245,0.985562,-0.117103,-0.1049119999999999,1.596576,0.0607679999999999
1390,-0.0766039999999999,0.973869,-0.213782,-0.690928,2.55523,0.213309
1391,-0.042967,0.958311,-0.282465,-1.5241870000000002,1.7001369999999998,-0.0276089999999999
1392,-0.001215,0.942013,-0.3355619999999999,-0.112783,0.8731260000000001,0.310552
1393,0.01611,0.919131,-0.393615,0.353534,0.640333,0.567153
1394,-0.024578,0.8910950000000001,-0.453143,1.7010610000000002,0.60335,0.89281
1395,-0.069349,0.8575809999999999,-0.509646,-0.8781760000000001,-0.8818729999999999,1.241519
1396,-0.101709,0.83814,-0.535883,-0.880194,-1.157919,1.46815
1397,-0.115972,0.8408950000000001,-0.528621,-0.5758770000000001,-1.749007,1.75938
1398,-0.109873,0.860993,-0.496602,-0.566335,-2.047623,1.956318
1399,-0.079913,0.8910319999999999,-0.4468439999999999,-0.533216,-1.988139,1.767843
1400,-0.050516,0.920021,-0.38859,-0.25379,-1.130425,0.931803
1401,-0.035319,0.950252,-0.309461,0.7901560000000001,0.446507,-1.692279
1402,-0.017942,0.968959,-0.246552,1.615094,1.594167,-2.492217
1403,0.018601,0.971607,-0.23585,1.05487,1.107449,-1.371923
1404,0.0470379999999999,0.971919,-0.230548,-0.965206,0.586583,1.095736
1405,0.081758,0.955284,-0.284146,-1.155413,0.787223,0.87576
1406,0.089926,0.944488,-0.3159889999999999,-1.062918,-0.532363,1.133586
1407,0.066981,0.954442,-0.290769,-1.4126379999999998,-0.596196,2.535994
1408,0.011975,0.980195,-0.197654,-1.163342,-0.5081939999999999,2.400901
1409,-0.034427,0.990434,-0.133588,-0.610211,0.015974,1.3682219999999998
1410,-0.0826269999999999,0.992804,-0.086624,-0.269683,2.6626830000000004,1.792114
1411,-0.128875,0.991036,-0.035044,0.1146539999999999,4.120108999999999,1.483531
1412,-0.140434,0.977842,0.155216,0.437492,2.72954,-5.031162
1413,-0.197171,0.934995,0.294781,0.30827,1.4108459999999998,-5.643093
1414,-0.166802,0.953368,0.251503,0.712715,0.038606,0.5530930000000001
1415,-0.177196,0.945938,0.2716449999999999,0.0931039999999999,-1.445984,-0.875374
1416,-0.185003,0.925923,0.329285,0.939809,-0.8372229999999999,-2.360932
1417,-0.150274,0.918501,0.365731,1.07163,-0.468947,-2.220605
1418,-0.142472,0.931943,0.333421,0.387742,-0.720197,-0.614701
1419,-0.154031,0.948336,0.277343,0.153192,-0.8460719999999999,-0.7015979999999999
1420,-0.147239,0.9619,0.230339,0.094245,-0.661103,-0.910134
1421,-0.12911,0.975587,0.177616,0.1098529999999999,0.018157,-0.217793
1422,-0.121124,0.988451,0.091003,0.375625,0.750517,0.1124579999999999
1423,-0.111783,0.993626,-0.0141419999999999,0.405958,1.322459,-0.000384
1424,-0.084638,0.990591,-0.107495,-0.032687,1.551248,0.030743
1425,-0.043954,0.978858,-0.199741,-1.063071,3.543038,0.12511
1426,-0.0037159999999999,0.963438,-0.267891,-1.6423259999999995,3.649645,0.381981
1427,0.033891,0.946829,-0.3199349999999999,-0.3851179999999999,1.143457,0.39098
1428,0.063724,0.923454,-0.378371,0.339063,0.711113,0.8391709999999999
1429,0.067472,0.900813,-0.428926,0.78142,0.5962729999999999,0.984041
1430,0.013871,0.864575,-0.502307,-0.003785,-0.329937,0.927463
1431,-0.034813,0.830536,-0.555872,-0.8399280000000001,-0.869751,1.22407
1432,-0.064843,0.814425,-0.57663,-0.7917390000000001,-1.29053,1.314255
1433,-0.075679,0.819702,-0.567764,-0.210133,-2.252716,1.956818
1434,-0.068702,0.846332,-0.5282020000000001,-0.0615929999999999,-2.385166,1.955845
1435,-0.0520539999999999,0.8836700000000001,-0.465201,-0.119226,-2.199191,1.697958
1436,-0.032371,0.920262,-0.389953,0.124305,-0.68134,0.767471
1437,-0.001721,0.953408,-0.301668,0.268856,0.457664,-1.345091
1438,0.046112,0.962501,-0.267317,1.115189,2.570428,-3.128709
1439,0.06308,0.964952,-0.254718,0.516342,0.137801,0.071536
1440,0.090161,0.964034,-0.250004,-0.575513,-0.724043,1.98473
1441,0.135876,0.947764,-0.28857,-0.908658,0.0503589999999999,1.005642
1442,0.141085,0.946817,-0.28918,-1.083255,-0.1054619999999999,1.120464
1443,0.112894,0.961167,-0.251804,-1.356379,-0.049088,2.344822
1444,0.055365,0.983007,-0.174994,-1.137152,0.309793,2.339148
1445,-0.0003399999999999,0.990905,-0.1345309999999999,-0.4827689999999999,0.747682,1.590082
1446,-0.0612789999999999,0.993065,-0.100284,-0.196152,1.816734,1.615375
1447,-0.098438,0.994774,-0.026929,-0.124081,2.645409,1.370694
1448,-0.105889,0.979953,0.168726,0.229332,3.51286,-3.4879550000000004
1449,-0.135867,0.945438,0.296098,-0.2504699999999999,1.40614,-3.408052
1450,-0.116242,0.956784,0.26653,0.207719,0.1142609999999999,0.1489359999999999
1451,-0.1323089999999999,0.948464,0.287918,0.385682,-1.048531,-0.149078
1452,-0.1593369999999999,0.929,0.334001,1.129094,-1.616149,-2.332933
1453,-0.154597,0.916497,0.368942,1.292231,-1.160622,-2.124359
1454,-0.1518,0.925411,0.3472119999999999,0.387777,-0.707256,-0.4213699999999999
1455,-0.161428,0.939833,0.301064,0.019475,-0.81433,-0.753395
1456,-0.155916,0.952228,0.262561,-0.07797,-0.669284,-1.021152
1457,-0.143011,0.964767,0.220815,0.029455,-0.30519,-0.8661700000000001
1458,-0.136756,0.979393,0.148575,0.222861,0.224984,0.194168
1459,-0.129814,0.99,0.0551,0.309654,0.5633600000000001,0.39389
1460,-0.108411,0.993309,-0.039661,0.030957,2.448189,-0.3871429999999999
1461,-0.078661,0.988702,-0.127556,-0.825041,2.529731,0.16233
1462,-0.0463579999999999,0.97474,-0.218454,-1.279768,2.953604,0.269755
1463,-0.039281,0.952054,-0.303384,-1.105037,1.03252,0.523309
1464,-0.021638,0.922671,-0.38497,0.051072,0.772596,0.7318020000000001
1465,-0.020458,0.8945559999999999,-0.44648,0.8666799999999999,0.859533,1.088844
1466,-0.029613,0.872423,-0.487847,0.654644,0.177397,0.732201
1467,-0.065812,0.834414,-0.547189,-0.51805,-0.598834,1.176888
1468,-0.1055359999999999,0.807712,-0.580051,-0.621256,-0.969668,1.307452
1469,-0.1230079999999999,0.802744,-0.583495,-0.177971,-2.281641,1.6566150000000002
1470,-0.124397,0.819283,-0.5597270000000001,0.008705,-2.401605,1.796345
1471,-0.112693,0.854274,-0.507455,0.093482,-2.449168,1.773675
1472,-0.088045,0.8939459999999999,-0.439434,0.133104,-0.7136020000000001,0.811916
1473,-0.0575409999999999,0.930713,-0.361185,0.086594,-0.33884,0.203226
1474,-0.0070069999999999,0.947199,-0.320555,0.810657,1.610952,-3.49492
1475,0.032048,0.951525,-0.305883,0.199794,0.01695,0.387457
1476,0.070627,0.943586,-0.323494,-0.947488,-0.090406,1.595345
1477,0.091889,0.926964,-0.363712,-1.526779,0.922508,-0.687527
1478,0.077585,0.932407,-0.3529719999999999,-0.7770020000000001,-0.206668,1.363409
1479,0.0595309999999999,0.950125,-0.306123,-0.762809,-0.388021,1.3154
1480,0.011112,0.977296,-0.211565,-0.8856850000000001,-0.022218,1.7565939999999998
1481,-0.0432699999999999,0.986222,-0.159634,-0.178592,0.892791,1.579159
1482,-0.096737,0.988533,-0.115907,0.006344,1.32119,1.573808
1483,-0.124166,0.991666,-0.034206,0.184164,2.692339,0.8136399999999999
1484,-0.121015,0.975441,0.184004,0.166914,3.119271,-3.239882
1485,-0.154868,0.950172,0.2705079999999999,-0.346215,1.811577,-6.506088
1486,-0.117878,0.963028,0.2422139999999999,0.312992,-0.007889,0.270298
1487,-0.123654,0.959358,0.253631,0.323163,-1.078574,0.239228
1488,-0.1595099999999999,0.944429,0.2873969999999999,0.458659,-1.538682,-0.990507
1489,-0.177173,0.929195,0.324334,0.7504,-1.630153,-1.871819
1490,-0.168877,0.927707,0.332904,0.89991,-0.906986,-1.178485
1491,-0.166711,0.944829,0.281944,0.168282,-0.716054,-0.609352
1492,-0.155862,0.962426,0.222329,-0.151252,-0.756265,-0.708947
1493,-0.13719,0.975819,0.170129,-0.411729,-0.18781,-0.607949
1494,-0.131853,0.985603,0.1057849999999999,-0.018156,0.267007,0.144246
1495,-0.140001,0.990037,0.0146629999999999,0.266069,0.699233,0.379273
1496,-0.135221,0.987329,-0.082986,0.3337219999999999,2.175803,-0.348304
1497,-0.1127,0.979113,-0.169198,-0.452165,1.769484,0.33439
1498,-0.080752,0.962824,-0.257762,-1.124159,2.824896,0.522929
1499,-0.0706929999999999,0.946685,-0.314297,-1.525468,1.062989,0.320278
1500,-0.036657,0.925653,-0.376584,-0.1031589999999999,0.588873,0.823117
1501,-0.019053,0.904692,-0.425633,0.36024,0.588396,1.022145
1502,-0.0305839999999999,0.886843,-0.461051,1.268468,0.482954,1.067984
1503,-0.051169,0.858351,-0.5105,-0.650857,-0.802397,1.060961
1504,-0.082063,0.8340870000000001,-0.5454899999999999,-0.619963,-0.778133,1.095951
1505,-0.115089,0.826362,-0.551249,-0.071739,-1.989722,1.556422
1506,-0.138431,0.836311,-0.530487,0.186587,-2.279014,1.822692
1507,-0.139712,0.862374,-0.4866069999999999,0.241152,-2.234078,1.6477389999999998
1508,-0.1216329999999999,0.894716,-0.429746,0.3104909999999999,-0.727984,0.7519359999999999
1509,-0.086951,0.928708,-0.360464,0.430335,0.193134,-1.235529
1510,-0.019694,0.943198,-0.331636,1.004008,1.495294,-3.854155
1511,0.0292079999999999,0.949456,-0.312526,0.155531,0.021064,0.334758
1512,0.072974,0.947938,-0.3099679999999999,-1.381003,0.112914,0.684403
1513,0.0926169999999999,0.928745,-0.358955,-1.816021,0.810437,-0.786233
1514,0.0911059999999999,0.925187,-0.368404,-0.8758809999999999,0.114822,1.570965
1515,0.074832,0.936712,-0.341999,-0.985705,-0.228857,1.518772
1516,0.024886,0.962473,-0.2702179999999999,-1.01715,0.22138,1.785629
1517,-0.022484,0.977896,-0.20786,-0.521964,1.151697,1.855321
1518,-0.079321,0.98244,-0.168852,-0.138285,1.342099,1.253966
1519,-0.128206,0.987162,-0.095213,0.204423,2.117697,0.0668769999999999
1520,-0.144174,0.985773,0.086329,0.443887,2.770117,-2.005946
1521,-0.146763,0.96917,0.197879,-0.466595,1.0664129999999998,-2.963062
1522,-0.117665,0.969364,0.21558,-0.342937,0.690121,-1.634189
1523,-0.114118,0.966696,0.229044,0.014967,-0.711966,-0.39303
1524,-0.136269,0.958835,0.249101,0.454552,-1.276661,-0.690537
1525,-0.15936,0.951367,0.263612,0.522443,-1.5052299999999998,-1.280107
1526,-0.17567,0.94619,0.271752,0.755,-0.889702,-0.780632
1527,-0.19093,0.950729,0.244227,0.649792,-0.790176,-0.569468
1528,-0.186268,0.959352,0.211979,0.541004,-0.794496,-0.593388
1529,-0.1718849999999999,0.968001,0.182801,-0.006384,-0.5120680000000001,-0.987977
1530,-0.1655039999999999,0.978404,0.123774,-0.065423,-0.350856,-0.402201
1531,-0.166655,0.985032,0.043872,0.1063829999999999,-0.144823,0.002072
1532,-0.164903,0.985675,-0.035217,0.465639,1.937024,0.361114
1533,-0.149729,0.981568,-0.118721,-0.167684,2.243637,-0.203971
1534,-0.119985,0.975244,-0.185723,-0.607813,2.155112,0.313286
1535,-0.1028579999999999,0.96231,-0.251734,-1.406633,1.770752,0.416239
1536,-0.081059,0.948916,-0.304924,-0.798076,0.535459,0.468163
1537,-0.033854,0.940593,-0.337834,-0.22228,0.6888479999999999,0.49886
1538,-0.000346,0.932969,-0.3599469999999999,0.618114,0.765243,0.764458
1539,0.004078,0.915156,-0.40307,0.419048,0.190648,0.583765
1540,-0.008476,0.895652,-0.444667,-0.389885,-0.411445,0.573589
1541,-0.0274089999999999,0.8836790000000001,-0.467283,-0.614742,-1.412564,0.899641
1542,-0.043794,0.8845200000000001,-0.464437,-0.25804,-1.986128,1.25324
1543,-0.0558139999999999,0.8947709999999999,-0.443017,0.0553559999999999,-2.466945,1.677743
1544,-0.0572429999999999,0.91407,-0.401489,0.136513,-1.833702,1.189636
1545,-0.041037,0.938069,-0.343999,0.168356,-0.738804,0.3170219999999999
1546,-0.009989,0.956852,-0.290391,0.3487639999999999,0.353482,-1.733885
1547,0.0280209999999999,0.9638,-0.265134,1.129434,0.848517,-1.199175
1548,0.053408,0.967651,-0.246558,0.389509,-0.315521,0.221625
1549,0.075257,0.96137,-0.264755,-0.876541,-0.395117,1.659714
1550,0.072194,0.963355,-0.258315,-1.386144,2.151544,-1.356263
1551,0.068135,0.968864,-0.238017,-0.2541239999999999,-0.1659769999999999,1.1142530000000002
1552,0.070813,0.966425,-0.246982,-0.170499,-0.296473,0.987827
1553,0.028222,0.973626,-0.22638,-0.526239,0.2057409999999999,1.048172
1554,-0.032747,0.979375,-0.1993579999999999,-0.250364,0.74287,1.509844
1555,-0.086909,0.982863,-0.1625349999999999,-0.223531,0.921861,1.274245
1556,-0.121415,0.986985,-0.105402,0.320375,2.724349,-1.884099
1557,-0.132575,0.990056,0.046919,-0.109048,2.185054,-1.67523
1558,-0.135459,0.985463,0.102479,-0.0414519999999999,1.278194,-3.166811
1559,-0.122543,0.988261,0.091165,0.105271,0.536992,-0.668862
1560,-0.113019,0.990206,0.081899,0.182401,-0.922731,0.153452
1561,-0.120293,0.990322,0.069137,0.310555,-1.320126,0.12082
1562,-0.136444,0.989,0.057012,0.345978,-1.410417,-0.092641
1563,-0.156993,0.985418,0.065523,0.402675,-1.360891,-0.523149
1564,-0.17825,0.97839,0.104726,0.443234,-1.37431,-0.483693
1565,-0.1872349999999999,0.972525,0.138296,-0.289251,-0.919119,-1.238424
1566,-0.183293,0.977938,0.100141,-0.299388,-0.4956689999999999,-0.479764
1567,-0.182808,0.982893,0.022165,-0.299659,-0.39253,-0.27038
1568,-0.187672,0.981203,-0.044829,0.31165,0.009139,0.576095
1569,-0.195245,0.974381,-0.1115839999999999,0.211465,3.768569,-0.282505
1570,-0.170737,0.971722,-0.163081,0.028144,4.055423,-0.633641
1571,-0.1270359999999999,0.970243,-0.206109,-1.283472,2.380297,0.220086
1572,-0.108956,0.957662,-0.266466,-1.657462,0.7334390000000001,0.468203
1573,-0.083012,0.939142,-0.333337,-1.509792,0.396948,0.586023
1574,-0.041932,0.934701,-0.352944,-0.608535,0.268302,1.100289
1575,0.003685,0.940266,-0.340411,-0.034217,0.146801,1.289874
1576,0.043474,0.940409,-0.337246,0.064619,-0.011774,1.070629
1577,0.069861,0.934589,-0.3487929999999999,-0.371023,-0.801304,0.6856760000000001
1578,0.0691519999999999,0.925716,-0.3718349999999999,-0.340255,-1.443767,0.923883
1579,0.065856,0.922023,-0.381484,-0.297378,-1.57928,0.932205
1580,0.071784,0.920724,-0.3835469999999999,-0.196998,-1.664209,1.087114
1581,0.072306,0.927204,-0.367503,-0.1547339999999999,-1.686954,1.020319
1582,0.066348,0.941597,-0.330131,-0.121646,-1.587669,0.841728
1583,0.0581,0.957874,-0.281238,1.004217,-0.4586369999999999,-2.447094
1584,0.1078349999999999,0.952904,-0.28344,1.459197,1.252876,-2.761482
1585,0.191228,0.951508,-0.2409489999999999,0.912944,1.431182,-1.816149
1586,0.249451,0.916836,-0.311736,-0.878266,1.933765,3.345077
1587,0.2788469999999999,0.87951,-0.385617,-2.004265,1.260245,0.284024
1588,0.250279,0.892918,-0.374235,-1.929952,-0.024143,1.959669
1589,0.1955579999999999,0.906519,-0.374131,-1.468843,0.1041619999999999,1.2021190000000002
1590,0.128727,0.917248,-0.376933,-1.214512,0.4099609999999999,0.799586
1591,0.06292,0.927914,-0.367437,-0.985772,0.488727,0.065862
1592,0.00464,0.943119,-0.332413,-0.037339,0.493954,0.359543
1593,-0.0145449999999999,0.95506,-0.296043,0.282627,0.544864,0.186149
1594,-0.003987,0.96669,-0.255905,0.3683659999999999,0.486496,-0.048737
1595,-0.000655,0.977411,-0.211329,0.090941,0.187522,-0.4461729999999999
1596,-0.004488,0.982872,-0.184212,-0.072416,-0.150444,-0.569084
1597,-0.014122,0.984744,-0.1734099999999999,-0.113777,-0.36188,-0.5626439999999999
1598,-0.026312,0.985731,-0.166235,-0.236093,-0.758497,-0.306207
1599,-0.041582,0.985926,-0.1619,-0.062025,-0.924006,0.150578
1600,-0.0615519999999999,0.985225,-0.159795,0.100798,-0.8734850000000001,0.238576
1601,-0.083907,0.982636,-0.165465,0.3105159999999999,-0.715958,0.20761
1602,-0.103167,0.978842,-0.1766829999999999,0.089571,-0.467947,-0.151899
1603,-0.126967,0.970312,-0.205832,0.178175,-0.374182,0.042898
1604,-0.151026,0.957328,-0.246388,-0.041724,-0.188911,0.366459
1605,-0.149457,0.948664,-0.278734,-1.39426,0.946859,0.175218
1606,-0.117088,0.950332,-0.288364,-1.564522,1.144456,0.238696
1607,-0.083323,0.957507,-0.2761,-0.7377520000000001,0.800702,-0.080101
1608,-0.052407,0.964288,-0.259607,-0.39965,0.693808,-0.082526
1609,-0.023333,0.968427,-0.24819,-0.4710979999999999,0.624637,-0.125864
1610,0.001348,0.971071,-0.2387699999999999,-0.688161,0.399259,-0.012802
1611,0.019436,0.974254,-0.224596,-0.6296350000000001,0.208363,0.040148
1612,0.028555,0.977303,-0.209893,-0.527776,0.125831,0.0299149999999999
1613,0.0303339999999999,0.980821,-0.192515,-0.372436,-0.192918,0.164179
1614,0.028637,0.984696,-0.1718859999999999,-0.392605,-0.2462929999999999,0.197246
1615,0.024934,0.988464,-0.149361,-0.389313,-0.281371,0.173943
1616,0.019115,0.99214,-0.123622,-0.306285,-0.629058,0.144938
1617,0.012668,0.995664,-0.092097,-0.213244,-0.805189,0.322337
1618,0.006839,0.998744,-0.049533,-0.138232,-0.8277690000000001,0.326069
1619,0.001161,0.999993,0.001355,0.30641,-0.588326,0.328281
1620,-4.5e-05,0.998388,0.0566669999999999,0.5558770000000001,-0.382558,0.097386
1621,0.0033909999999999,0.994149,0.107913,0.601193,-0.287651,-0.069095
1622,0.006811,0.989555,0.143955,0.595301,-0.157081,-0.437839
1623,0.017036,0.984774,0.17297,0.638482,0.0082069999999999,-0.6892510000000001
1624,0.030801,0.978728,0.202809,0.605857,0.083833,-0.669255
1625,0.03931,0.974612,0.2203949999999999,0.20776,0.034925,-0.506375
1626,0.0520789999999999,0.97167,0.230506,-0.26529,0.6581819999999999,-1.145972
1627,0.084843,0.961425,0.261632,-0.572087,2.436936,-2.575933
1628,0.096499,0.964749,0.244815,-0.40671,0.301166,0.093915
1629,0.098513,0.976126,0.193549,-1.0309469999999998,-0.518728,0.05755
1630,0.09626,0.982369,0.1602289999999999,-1.028695,-0.524972,0.09087
1631,0.086016,0.987211,0.134177,-0.8959370000000001,-0.032347,0.5675140000000001
1632,0.073629,0.987946,0.136124,-0.814077,0.315109,0.525192
1633,0.0603919999999999,0.986403,0.152807,-0.677168,0.450563,0.4856819999999999
1634,0.045202,0.984756,0.167929,-0.4106649999999999,0.544266,0.3009739999999999
1635,0.032112,0.981943,0.186396,-0.05355,0.201788,-0.282755
1636,0.0220919999999999,0.969469,0.244188,0.33237,-0.04938,-0.38608
1637,0.0005809999999999,0.952536,0.304402,0.3886409999999999,0.069604,-0.181095
1638,-0.020493,0.944492,0.327873,0.452576,-0.0692779999999999,-0.522042
1639,-0.025412,0.94198,0.334687,0.4879819999999999,-0.159082,-0.5793010000000001
1640,-0.030562,0.937611,0.346321,0.506087,-0.2459599999999999,-0.448372
1641,-0.042481,0.932062,0.35978,0.40596,-0.257898,-0.2863239999999999
1642,-0.050925,0.926436,0.3729719999999999,0.398948,-0.142379,-0.31183
1643,-0.056599,0.918112,0.39224,0.22469,0.028223,-0.411283
1644,-0.0573929999999999,0.90742,0.41627,-0.098384,0.105413,-0.414881
1645,-0.050739,0.8955120000000001,0.442118,-0.2299159999999999,0.0961409999999999,-0.489268
1646,-0.0398009999999999,0.885357,0.463189,-0.198297,0.131504,-0.576547
1647,-0.034355,0.878022,0.4773689999999999,-0.128014,0.157378,-0.510877
1648,-0.041817,0.874658,0.482916,-0.141823,0.168601,-0.515204
1649,-0.0541059999999999,0.8751190000000001,0.480855,-0.105989,0.272525,-0.52004
1650,-0.064288,0.8750899999999999,0.479655,0.07265,0.429338,-0.548701
1651,-0.072152,0.875876,0.477095,0.1206589999999999,0.393625,-0.681608
1652,-0.07777,0.8773719999999999,0.4734489999999999,0.090999,0.33886,-0.954559
1653,-0.083848,0.880492,0.46657,0.055894,0.255739,-1.070986
1654,-0.096804,0.8924290000000001,0.440662,0.004488,0.207546,-1.27904
1655,-0.119022,0.917136,0.380368,-0.077206,0.8468870000000001,-0.423886
1656,-0.137372,0.948719,0.2846869999999999,-0.132083,0.770413,-0.145008
1657,-0.12974,0.974922,0.180777,-0.442755,0.772758,0.446893
1658,-0.118246,0.987398,0.105124,-0.452631,0.764891,0.397546
1659,-0.123276,0.991502,0.041407,-0.6038060000000001,0.772261,0.2484489999999999
1660,-0.126997,0.991897,-0.000718,-0.6463180000000001,0.502884,-0.024047
1661,-0.127252,0.991023,-0.040855,-0.178717,0.151753,-0.1044539999999999
1662,-0.132473,0.986634,-0.094837,0.20219,0.003921,0.124973
1663,-0.1368599999999999,0.97909,-0.150473,0.238972,-0.069971,0.404929
1664,-0.132904,0.970412,-0.201562,0.062912,-0.336379,0.322137
1665,-0.126074,0.961711,-0.243327,0.115164,-0.4482069999999999,0.275035
1666,-0.120958,0.952072,-0.280928,0.2720349999999999,-0.460601,0.321867
1667,-0.125938,0.93781,-0.3234889999999999,0.1124039999999999,-0.918935,0.520403
1668,-0.142008,0.920779,-0.363308,0.116999,-0.949893,0.624782
1669,-0.155054,0.906075,-0.3936739999999999,0.162317,-0.981499,0.6161479999999999
1670,-0.15098,0.8973959999999999,-0.414584,0.395746,-0.648647,0.076663
1671,-0.123294,0.895048,-0.42858,0.312671,-0.39311,-0.867043
1672,-0.091459,0.893026,-0.440605,0.220365,-0.2071889999999999,-1.161354
1673,-0.073639,0.8880819999999999,-0.453742,0.239441,0.2545719999999999,-0.998926
1674,-0.072976,0.8815780000000001,-0.466356,-0.192726,-0.241259,-0.564131
1675,-0.078666,0.875743,-0.4763189999999999,-0.115625,-0.465846,-0.564026
1676,-0.080894,0.8775930000000001,-0.472526,-0.880608,-1.609206,0.915291
1677,-0.07495,0.8961469999999999,-0.437374,-1.72545,0.435838,-0.768559
1678,-0.049188,0.917648,-0.394329,-1.712653,2.214157,-1.481678
1679,-0.040736,0.933604,-0.355973,-0.411001,-0.52386,1.028565
1680,-0.025903,0.953554,-0.300093,-0.331473,-0.489137,0.8783709999999999
1681,-0.0114489999999999,0.977558,-0.210334,-0.345927,-0.513141,0.788612
1682,-0.020776,0.994056,-0.106819,-0.174018,0.704354,1.226646
1683,-0.057365,0.998347,-0.000655,-0.295982,1.047384,0.8694139999999999
1684,-0.089911,0.992767,0.07948,0.094336,0.814408,0.678638
1685,-0.112513,0.982992,0.1451049999999999,0.739329,0.496928,0.173102
1686,-0.143799,0.968676,0.202424,1.136811,0.44055,-0.949647
1687,-0.191822,0.947032,0.257528,0.368763,-0.1075079999999999,-1.017996
1688,-0.209249,0.935593,0.284368,0.337804,-0.0697639999999999,-0.933157
1689,-0.201506,0.929292,0.309511,0.433531,-0.263703,-0.311525
1690,-0.1955619999999999,0.920919,0.337117,0.514273,-0.253515,-0.620946
1691,-0.188599,0.90566,0.37973,0.408325,-0.554952,-0.4767149999999999
1692,-0.19734,0.8883840000000001,0.414505,0.108076,-0.612109,-0.483902
1693,-0.232229,0.873944,0.426937,0.257177,-0.369382,-0.440899
1694,-0.270175,0.8680690000000001,0.416467,0.075107,0.455707,-0.363122
1695,-0.295452,0.851339,0.433489,0.150997,0.3342989999999999,-0.270204
1696,-0.292333,0.8214379999999999,0.489655,0.082876,0.235843,-0.424912
1697,-0.267237,0.7933600000000001,0.546942,0.051203,0.651098,-0.6460779999999999
1698,-0.269111,0.779037,0.5662699999999999,0.292716,0.779664,-0.775605
1699,-0.280776,0.7688659999999999,0.574448,0.417174,0.927118,-0.57312
1700,-0.279201,0.76289,0.583118,0.231471,0.806385,-0.734333
1701,-0.272723,0.768543,0.578743,0.342928,0.719036,-1.140724
1702,-0.262563,0.7862,0.5594020000000001,0.718388,0.603495,-1.277725
1703,-0.251213,0.81685,0.519257,0.78196,0.3245989999999999,-1.162338
1704,-0.239848,0.854035,0.461605,0.6713359999999999,0.231186,-1.168468
1705,-0.219134,0.89064,0.3984,0.576952,0.607468,-0.457543
1706,-0.202892,0.923579,0.325298,0.24377,0.8350420000000001,0.145878
1707,-0.186137,0.951537,0.244775,-0.151296,1.286729,-0.071084
1708,-0.176497,0.968829,0.173789,-0.304124,1.531323,-0.266867
1709,-0.18045,0.975785,0.1235589999999999,-0.638992,1.731643,-0.118569
1710,-0.193171,0.978773,0.068378,-0.507466,1.290347,0.0823639999999999
1711,-0.184763,0.982661,-0.0150509999999999,-0.505987,1.15717,0.250326
1712,-0.163731,0.983275,-0.079697,0.4291729999999999,1.117235,0.336426
1713,-0.141479,0.981928,-0.125662,0.957565,0.847616,0.338965
1714,-0.1292299999999999,0.972648,-0.192992,0.393436,0.425241,0.351607
1715,-0.155084,0.950008,-0.270969,-0.354255,-0.8916280000000001,0.745273
1716,-0.176902,0.930093,-0.3219079999999999,-0.3985829999999999,-1.325982,0.946847
1717,-0.19674,0.91682,-0.347456,-0.378745,-1.312709,0.972395
1718,-0.214134,0.911177,-0.351986,-0.306267,-2.102187,1.329846
1719,-0.21531,0.918134,-0.332661,-0.165198,-2.234739,1.242741
1720,-0.205339,0.933573,-0.293715,0.05269,-1.844797,0.970275
1721,-0.191045,0.95081,-0.243826,0.3012289999999999,-0.828053,-0.025827
1722,-0.177499,0.965882,-0.1885599999999999,0.521691,-0.543794,-0.51513
1723,-0.1577869999999999,0.975537,-0.153035,1.593471,0.759402,-2.151653
1724,-0.132511,0.981384,-0.138979,0.27451,-0.273468,0.221178
1725,-0.110722,0.981361,-0.157039,-0.5868800000000001,-1.105918,1.034191
1726,-0.084255,0.976755,-0.19708,-1.12305,-0.650614,-1.636569
1727,-0.091544,0.983349,-0.156951,-1.067086,1.2150610000000002,1.481079
1728,-0.144866,0.984183,-0.1019149999999999,-1.328446,1.350336,1.404954
1729,-0.187687,0.978316,-0.087523,-0.983867,0.477724,0.836318
1730,-0.2298469999999999,0.969866,-0.0807399999999999,-0.538219,0.807158,0.764288
1731,-0.282801,0.95794,-0.048595,-0.037038,2.094474,0.217831
1732,-0.313837,0.946412,0.07614,0.417764,2.632156,0.049531
1733,-0.2925239999999999,0.914878,0.278228,1.32652,2.933251,-0.512008
1734,-0.278787,0.855792,0.435751,-0.709266,1.582624,-3.625448
1735,-0.288465,0.8518479999999999,0.437176,-0.234362,0.98351,-2.3362700000000003
1736,-0.296092,0.84395,0.4472779999999999,0.412318,-0.664797,-0.10243
1737,-0.333665,0.823032,0.4596369999999999,0.765076,-1.431675,-1.563412
1738,-0.339094,0.811175,0.476433,1.150755,-1.434268,-2.09005
1739,-0.342498,0.812553,0.471626,0.8637229999999999,-0.428551,-0.5167470000000001
1740,-0.355555,0.8244790000000001,0.440221,0.688685,-0.536439,-0.637365
1741,-0.350684,0.842084,0.409751,0.6208560000000001,-0.637219,-0.837669
1742,-0.320442,0.861084,0.394755,-0.006691,-0.421601,-1.442698
1743,-0.290807,0.890215,0.350612,0.000479,-0.267687,-0.521113
1744,-0.280252,0.920751,0.2714,0.117899,-0.032003,-0.171211
1745,-0.26875,0.945856,0.181975,0.472455,1.345206,-0.269865
1746,-0.244983,0.964291,0.10056,0.268619,2.450077,-0.1147349999999999
1747,-0.218413,0.975754,0.013626,-0.270326,3.072525,0.342911
1748,-0.198512,0.976904,-0.078989,-0.8904770000000001,1.968165,-0.07604
1749,-0.163996,0.975248,-0.148273,0.065027,1.174563,-0.2125369999999999
1750,-0.126252,0.970602,-0.204895,0.466645,1.215296,0.101852
1751,-0.126722,0.950512,-0.28365,1.638014,1.342731,0.3678329999999999
1752,-0.17214,0.91302,-0.369802,-0.587091,-0.250666,1.287496
1753,-0.211859,0.8809600000000001,-0.423106,-0.615885,-0.604363,1.385233
1754,-0.239756,0.8627549999999999,-0.445155,-0.149206,-2.209648,1.897578
1755,-0.246106,0.864296,-0.4386529999999999,-0.174288,-2.527763,2.024316
1756,-0.231544,0.8829370000000001,-0.408413,-0.29612,-2.401019,1.777127
1757,-0.204027,0.910782,-0.3589449999999999,0.092958,-1.2140799999999998,0.8711979999999999
1758,-0.173612,0.940119,-0.293302,0.419004,-0.579752,0.154615
1759,-0.145371,0.964025,-0.222513,0.4758449999999999,-0.2095389999999999,-0.534079
