,gravity.x,gravity.y,gravity.z,userAcceleration.x,userAcceleration.y,userAcceleration.z
0,-0.148049,0.916982,0.370435,-0.0393899999999999,-0.886007,-0.266325
1,-0.1421,0.92506,0.352234,0.326686,-1.304454,-0.555725
2,-0.1390839999999999,0.92905,0.342809,0.557678,-1.6744880000000002,-0.362355
3,-0.138413,0.929149,0.342812,0.602738,-1.375697,-0.360085
4,-0.150598,0.928779,0.338652,0.428903,-0.8985209999999999,-0.2223949999999999
5,-0.169167,0.930766,0.324119,0.209313,-0.093897,-0.364494
6,-0.1817349999999999,0.925415,0.332528,-0.199246,0.117951,-0.340097
7,-0.192927,0.913684,0.3577079999999999,-0.361913,-0.944828,-0.30122
8,-0.215926,0.908041,0.358934,0.6619550000000001,-0.763342,-1.349779
9,-0.232818,0.905861,0.353846,0.679656,-0.309563,0.132741
10,-0.222667,0.907816,0.3553679999999999,0.567958,0.9354,0.554193
11,-0.214348,0.907897,0.360241,-0.5444260000000001,2.468415,-0.848232
12,-0.225386,0.922991,0.311907,-0.40973,0.002897,0.057325
13,-0.209326,0.944409,0.2535199999999999,-0.276713,0.373813,0.141896
14,-0.169123,0.96832,0.183719,-0.377477,0.99776,0.426541
15,-0.13069,0.987002,0.0935179999999999,-0.455339,1.470899,0.735034
16,-0.111196,0.993759,-0.008744,-0.550974,1.427383,0.540208
17,-0.099878,0.990018,-0.099439,-0.331808,0.568149,0.3820929999999999
18,-0.081283,0.983667,-0.160599,0.040085,0.2008579999999999,0.351257
19,-0.056039,0.979365,-0.194173,0.181344,-0.646022,0.138769
20,-0.031018,0.977628,-0.2080389999999999,-0.022541,-0.861906,0.378617
21,-0.0179229999999999,0.977241,-0.2113739999999999,-0.123511,-0.8170390000000001,0.298166
22,-0.023611,0.976996,-0.2119469999999999,-0.288736,-1.118033,0.080752
23,-0.04935,0.97583,-0.212885,-0.192044,-1.114471,0.043315
24,-0.078331,0.975246,-0.206784,0.197045,-0.8969530000000001,0.1113099999999999
25,-0.101759,0.976687,-0.189014,0.566206,-0.721835,0.176532
26,-0.117878,0.980364,-0.158082,0.597019,-0.656283,0.269151
27,-0.123245,0.98566,-0.1152589999999999,0.186111,-0.455127,-0.322714
28,-0.122002,0.990567,-0.06238,-0.215522,1.228992,-0.173308
29,-0.13022,0.991449,0.008309,-0.469908,1.60465,-0.575112
30,-0.135019,0.985463,0.1031089999999999,-0.324331,1.644023,-0.6083270000000001
31,-0.144742,0.972935,0.1801289999999999,0.929075,1.51054,0.647127
32,-0.146594,0.963784,0.222777,0.423327,1.2981790000000002,0.524171
33,-0.13312,0.955159,0.26448,-0.41725,0.970088,0.369935
34,-0.123646,0.945213,0.302133,-0.813976,0.696327,0.2761139999999999
35,-0.127352,0.935887,0.328476,-0.595518,0.354518,0.142929
36,-0.129075,0.933386,0.334859,0.0301829999999999,-0.919897,-0.178273
37,-0.122763,0.939167,0.320769,0.246862,-1.144795,-0.531432
38,-0.111643,0.946216,0.303661,0.324778,-1.186023,-0.397288
39,-0.100963,0.948698,0.299629,0.4473069999999999,-1.745482,-0.250145
40,-0.098157,0.946152,0.308484,0.258329,-1.331299,-0.2797659999999999
41,-0.109465,0.944699,0.309129,0.309401,-1.125149,-0.2816329999999999
42,-0.1300349999999999,0.945103,0.299784,0.132736,-0.210896,-0.419001
43,-0.148389,0.935345,0.321109,-0.377749,-0.275341,0.083707
44,-0.168491,0.920113,0.353558,0.3633,-0.514595,-1.58627
45,-0.194134,0.903698,0.38163,0.4983329999999999,-0.432034,-0.593132
46,-0.20293,0.898482,0.389294,0.2367739999999999,0.537004,0.507861
47,-0.212939,0.89943,0.381684,-0.260847,1.424942,-0.570543
48,-0.193765,0.915768,0.351888,-0.302253,1.031269,-0.570195
49,-0.158002,0.940508,0.3008,-0.015567,0.849043,0.421017
50,-0.124297,0.966259,0.225595,-0.297853,1.4427219999999998,0.416404
51,-0.093053,0.986575,0.134206,-1.2667190000000002,2.127607,0.922297
52,-0.08572,0.995581,0.038336,-0.508991,0.502084,0.569055
53,-0.075519,0.996197,-0.043446,-0.174359,-0.144482,-0.068172
54,-0.051582,0.993285,-0.103551,-0.13575,-0.50592,0.044881
55,-0.032914,0.988263,-0.149172,0.390397,-0.902204,0.158083
56,-0.021937,0.984333,-0.174947,0.412608,-0.584446,0.240011
57,-0.020111,0.982891,-0.183083,0.211135,-0.594754,0.283517
58,-0.029555,0.982391,-0.184482,-0.193864,-0.964004,-0.096707
59,-0.048447,0.982016,-0.182473,-0.097335,-1.050208,-0.04586
60,-0.067928,0.982938,-0.170931,0.318157,-0.894575,0.0611289999999999
61,-0.084144,0.985636,-0.146424,0.417442,-0.756266,0.021684
62,-0.095333,0.989392,-0.1096099999999999,0.4805859999999999,-0.751584,0.127326
63,-0.0974049999999999,0.99343,-0.060078,-0.080237,-0.316153,-0.576839
64,-0.101237,0.994841,-0.006523,0.059276,1.156236,-0.119225
65,-0.117467,0.990199,0.075549,0.077214,1.545461,-0.519183
66,-0.121525,0.979662,0.15967,0.252796,1.141432,-0.195299
67,-0.123493,0.967278,0.2216389999999999,0.524464,1.303749,0.60583
68,-0.117583,0.957191,0.264498,-0.550767,1.435524,0.323133
69,-0.094968,0.946294,0.309044,-0.74483,1.118846,0.581138
70,-0.086838,0.936333,0.340203,-0.550766,1.011726,0.392448
71,-0.1012179999999999,0.929145,0.355589,-0.23092,-0.236244,0.321748
72,-0.111296,0.930556,0.348825,0.085783,-1.149276,-0.091806
73,-0.110552,0.938371,0.327473,0.093279,-1.228303,-0.452748
74,-0.104869,0.944846,0.310272,0.076014,-1.574775,-0.469283
75,-0.098134,0.945245,0.311257,0.169118,-1.496912,-0.291039
76,-0.102907,0.941217,0.321745,0.293581,-0.90983,-0.120069
77,-0.1169089999999999,0.938933,0.32363,0.309201,-0.599791,-0.02027
78,-0.138525,0.935888,0.323922,0.163518,-0.007039,-0.219597
79,-0.164453,0.926469,0.338543,0.163767,-0.686234,-0.4490159999999999
80,-0.188552,0.91548,0.355451,0.437575,-0.4511239999999999,-1.27696
81,-0.206929,0.900644,0.382125,0.259419,-0.012369,0.242753
82,-0.2100909999999999,0.898041,0.386501,0.105965,0.724853,0.228794
83,-0.220442,0.902018,0.371172,-0.08388,0.790197,-0.524325
84,-0.20001,0.921097,0.334029,-0.228381,0.485962,-0.165724
85,-0.157048,0.947626,0.2781,-0.172649,1.521139,0.252814
86,-0.117423,0.972282,0.202188,-0.499566,1.637231,0.475989
87,-0.096299,0.988918,0.112994,-0.791488,1.576573,0.863553
88,-0.085873,0.995946,0.02678,-0.334125,0.3593699999999999,0.522048
89,-0.064744,0.996803,-0.046825,-0.298293,0.073281,0.39439
90,-0.0402649999999999,0.993563,-0.1058819999999999,-0.292346,-0.26697,0.355653
91,-0.021281,0.988916,-0.146943,-0.0175069999999999,-0.942468,0.154267
92,-0.011078,0.984269,-0.176331,-0.039886,-0.751999,0.220657
93,-0.016893,0.982135,-0.187415,-0.014372,-0.464985,-0.0028309999999999
94,-0.038186,0.981155,-0.189409,-0.066825,-1.01619,-0.1198559999999999
95,-0.062734,0.981521,-0.180781,0.139943,-1.046965,-0.096746
96,-0.081925,0.984317,-0.156228,0.519425,-0.8456450000000001,0.139458
97,-0.100145,0.987932,-0.118158,0.509599,-0.732225,0.0483339999999999
98,-0.117074,0.991085,-0.063585,0.189569,-0.612942,-0.5343760000000001
99,-0.1267619999999999,0.991916,0.0058909999999999,-0.063881,0.487256,-0.0512559999999999
100,-0.141734,0.986108,0.086618,-0.264424,1.864585,-0.506876
101,-0.151019,0.972027,0.179882,0.259479,1.546376,-0.157604
102,-0.154993,0.952766,0.261177,0.7360329999999999,1.139122,0.5924149999999999
103,-0.153774,0.937769,0.311356,-0.0474589999999999,1.269323,0.4564819999999999
104,-0.140965,0.923554,0.356618,-0.711009,1.276748,0.5080060000000001
105,-0.133891,0.909583,0.39336,-1.0972030000000002,1.087167,0.454327
106,-0.1354119999999999,0.901947,0.410067,-0.413554,0.087997,0.444242
107,-0.1368,0.903035,0.407203,0.144795,-0.850514,-0.0298529999999999
108,-0.128609,0.910716,0.3925,0.08059,-1.132456,-0.375838
109,-0.114341,0.921414,0.371378,0.155432,-1.246793,-0.42515
110,-0.1061869999999999,0.927398,0.35869,0.29535,-1.695327,-0.35193
111,-0.112698,0.926696,0.358515,0.270702,-1.294036,-0.401987
112,-0.136236,0.92292,0.360082,0.271917,-0.804038,-0.250936
113,-0.1635339999999999,0.917639,0.362209,0.061834,-0.0660309999999999,-0.088939
114,-0.186223,0.907129,0.377409,-0.296626,0.156805,-0.295606
115,-0.207011,0.888498,0.409531,0.17509,0.151739,-1.070649
116,-0.228167,0.8761190000000001,0.424681,0.020235,0.131358,0.1241319999999999
117,-0.227275,0.881166,0.4145979999999999,0.509761,-0.508637,0.0036149999999999
118,-0.219646,0.8870629999999999,0.406046,0.337932,0.0326,-0.575113
119,-0.201933,0.897539,0.391974,-0.026797,0.993452,0.049203
120,-0.15816,0.92845,0.336101,0.033038,2.166018,0.663975
121,-0.114417,0.958015,0.262894,-1.187478,0.942955,0.771683
122,-0.097365,0.981587,0.164329,-1.158922,0.720942,0.680459
123,-0.082948,0.994136,0.069355,-0.723143,0.936238,0.251553
124,-0.063323,0.997893,-0.014038,-0.043962,0.389924,0.322128
125,-0.047035,0.995717,-0.079586,0.0332709999999999,0.079814,0.398144
126,-0.033269,0.99206,-0.121277,0.114156,-0.580897,0.10759
127,-0.02228,0.988857,-0.1471849999999999,0.261187,-0.610775,0.2341
128,-0.017419,0.986855,-0.160659,0.243752,-0.525201,0.1190329999999999
129,-0.020863,0.986203,-0.164214,-0.038173,-0.682813,0.021834
130,-0.035489,0.98608,-0.162435,-0.33768,-0.989421,-0.079737
131,-0.063887,0.98666,-0.149727,0.0789779999999999,-0.931011,0.014077
132,-0.093334,0.988207,-0.1213849999999999,0.2800559999999999,-0.902467,-0.007689
133,-0.116879,0.989998,-0.079003,0.415112,-0.446022,-0.211432
134,-0.136192,0.990495,-0.019186,0.405738,-0.115648,-0.2149449999999999
135,-0.155807,0.985812,0.062414,0.353302,0.903714,-0.2075409999999999
136,-0.167698,0.973911,0.15288,0.506916,1.706616,0.154402
137,-0.172122,0.958659,0.2265889999999999,0.286929,1.9262740000000005,0.292698
138,-0.169347,0.943807,0.283806,-0.442835,1.808741,0.325051
139,-0.165927,0.926495,0.337742,-0.977261,0.8750030000000001,0.679805
140,-0.169207,0.909195,0.380431,-0.729444,0.348754,0.380021
141,-0.165538,0.8986219999999999,0.406289,-0.040135,-0.160905,0.2393559999999999
142,-0.157043,0.9000360000000001,0.406532,0.1212,-0.651455,-0.102089
143,-0.144688,0.910699,0.386895,0.243778,-1.150521,-0.4843989999999999
144,-0.135192,0.919352,0.3694719999999999,0.560409,-1.927806,-0.5549729999999999
145,-0.134189,0.921588,0.3642309999999999,0.6124149999999999,-1.7546259999999998,-0.5443
146,-0.151376,0.921043,0.35883,0.393808,-1.1899030000000002,-0.560582
147,-0.179766,0.921515,0.344224,0.305788,-0.6351220000000001,-0.082109
148,-0.2064639999999999,0.919901,0.333391,0.000791,0.123815,0.075514
149,-0.221498,0.912656,0.343503,-0.363921,-0.0053219999999999,-0.031018
150,-0.231123,0.900489,0.368372,0.198241,-0.305884,-1.329875
151,-0.246758,0.889733,0.384034,0.263329,-0.199364,-0.2404639999999999
152,-0.251293,0.88699,0.387424,0.36256,0.093952,0.152539
153,-0.259261,0.8925,0.369087,0.281599,0.187212,-0.4520939999999999
154,-0.244267,0.911468,0.330993,-0.13972,0.777405,-0.396163
155,-0.208559,0.941296,0.265447,-0.135176,0.636905,0.33816
156,-0.178058,0.967199,0.18116,-0.4351319999999999,1.4452459999999998,0.5775680000000001
157,-0.149319,0.985243,0.083656,-0.809558,1.486361,0.663628
158,-0.128936,0.99149,-0.017891,-0.459885,1.100917,0.380958
159,-0.106965,0.988571,-0.106221,-0.09558,0.354233,0.422383
160,-0.0802799999999999,0.982153,-0.170086,-0.097363,-0.053533,0.29295
161,-0.05753,0.976398,-0.208171,-0.036236,-0.542759,0.165767
162,-0.04668,0.972175,-0.229553,0.149326,-0.598182,0.22824
163,-0.04804,0.972181,-0.2292489999999999,0.078954,-0.780927,0.111466
164,-0.065073,0.972789,-0.222363,-0.074789,-0.945781,0.065427
165,-0.097827,0.973084,-0.208651,-0.137876,-0.994233,0.115099
166,-0.1293359999999999,0.975327,-0.178905,0.266833,-0.831528,0.250224
167,-0.158318,0.977788,-0.137346,0.415261,-0.747777,0.325654
168,-0.178804,0.980886,-0.076736,0.303666,-0.517798,-0.436356
169,-0.188276,0.982112,-0.002212,0.179746,1.419331,-0.239975
170,-0.20301,0.974915,0.091235,0.2331619999999999,1.661132,-0.181247
171,-0.2067429999999999,0.961011,0.183611,0.487855,1.367618,-0.234697
172,-0.207367,0.944917,0.253233,0.439163,1.242415,0.5089279999999999
173,-0.2146539999999999,0.929237,0.3007309999999999,-0.0462259999999999,1.361459,0.5161479999999999
174,-0.217351,0.911865,0.34822,-0.729106,1.125168,0.605043
175,-0.218215,0.896975,0.384466,-0.839249,0.215315,0.291101
176,-0.213035,0.890066,0.402982,0.014228,-0.366491,0.160128
177,-0.202878,0.894368,0.398676,0.183545,-0.561589,-0.2260989999999999
178,-0.18782,0.907248,0.376327,0.308975,-0.986639,-0.413054
179,-0.179305,0.918265,0.353037,0.583052,-1.657614,-0.394663
180,-0.174075,0.922112,0.345547,0.488467,-1.687234,-0.358105
181,-0.180569,0.920743,0.345868,0.374036,-1.186749,-0.4850279999999999
182,-0.200598,0.920085,0.336452,0.370871,-0.623332,-0.089061
183,-0.2258119999999999,0.919834,0.320797,-0.04906,0.264965,-0.34898
184,-0.244115,0.911063,0.3322199999999999,-0.154307,-0.03385,-0.252981
185,-0.261823,0.89865,0.351957,0.5678989999999999,-0.462097,-0.074475
186,-0.278855,0.889848,0.361119,0.6029979999999999,-0.4951029999999999,-0.127385
187,-0.285191,0.890709,0.353978,0.38622,0.237785,0.032406
188,-0.293082,0.901514,0.31839,-0.235116,1.186377,-0.2070159999999999
189,-0.264818,0.924387,0.274548,-0.551558,0.527364,-0.09895
190,-0.226301,0.951094,0.210253,-0.4140189999999999,1.021791,0.4250319999999999
191,-0.1905349999999999,0.97376,0.124442,-0.782305,1.539958,0.7538239999999999
192,-0.162714,0.986225,0.029691,-0.727438,1.27029,0.525988
193,-0.14215,0.987888,-0.062202,-0.197572,0.613263,0.42298
194,-0.117648,0.983565,-0.136956,-0.1768009999999999,0.319963,0.429879
195,-0.091464,0.977797,-0.1885369999999999,0.2543829999999999,-0.4891189999999999,0.1897579999999999
196,-0.072226,0.972584,-0.221047,0.3327239999999999,-0.773335,0.178689
197,-0.0591299999999999,0.969291,-0.2387,0.144671,-0.5843119999999999,0.295295
198,-0.0584289999999999,0.96891,-0.240415,-0.081052,-0.687843,0.086728
199,-0.075997,0.969155,-0.234442,-0.270439,-0.916344,-0.054163
200,-0.103968,0.970866,-0.2158909999999999,0.065485,-0.87382,0.126566
201,-0.1333609999999999,0.974576,-0.180044,0.358413,-0.784177,0.186041
202,-0.161242,0.978907,-0.12546,0.397005,-0.538783,-0.210157
203,-0.184602,0.981608,-0.048655,0.566438,0.2382409999999999,0.0790049999999999
204,-0.202535,0.978343,0.042692,0.363546,1.08791,-0.202559
205,-0.206765,0.969327,0.1328599999999999,0.202218,1.482867,0.216367
206,-0.202821,0.955571,0.213883,0.035646,1.844127,0.3059989999999999
207,-0.199494,0.937606,0.284773,-0.619293,1.863343,0.335206
208,-0.193909,0.917416,0.347483,-1.061736,0.405429,0.565099
209,-0.187094,0.900835,0.391778,-0.995371,0.037077,0.413535
210,-0.165185,0.893444,0.417697,-0.2015289999999999,0.172062,0.235593
211,-0.145793,0.895883,0.419685,0.265438,-0.422861,-0.306297
212,-0.126289,0.906098,0.403776,0.2530739999999999,-0.7035680000000001,-0.4837619999999999
213,-0.110383,0.912491,0.393922,0.599763,-1.931686,-0.540834
214,-0.100342,0.911443,0.399,0.631668,-1.622182,-0.529875
215,-0.1127079999999999,0.907133,0.405467,0.493033,-1.392485,-0.622645
216,-0.146747,0.908617,0.390998,0.321872,-0.42946,0.05671
217,-0.186971,0.909234,0.371932,-0.331721,0.410468,0.094773
218,-0.210108,0.896021,0.391151,-0.569342,-0.106349,0.2998429999999999
219,-0.224622,0.890617,0.395404,0.441846,-0.619102,-0.889515
220,-0.2344139999999999,0.8834799999999999,0.4056,0.451409,-0.199673,-0.416052
221,-0.2405449999999999,0.889443,0.3886239999999999,0.4191029999999999,0.920631,0.414385
222,-0.247998,0.906588,0.341458,-0.429278,2.542066,0.291538
223,-0.225408,0.930032,0.290224,-0.6275270000000001,-0.753366,-0.332704
224,-0.1826839999999999,0.959321,0.21524,-0.669977,-0.247086,0.324632
225,-0.126085,0.983213,0.131879,-0.638471,2.71393,0.2490409999999999
226,-0.084171,0.995761,0.037061,-0.10545,1.236783,0.655307
227,-0.071685,0.995729,-0.058169,-0.121171,-0.057481,0.185305
228,-0.047886,0.990758,-0.126907,-0.491192,-0.245869,0.138641
229,-0.0257029999999999,0.984467,-0.173677,0.157555,-0.7654569999999999,0.081926
230,-0.010951,0.979456,-0.2013579999999999,0.17689,-0.438334,0.163974
231,-0.006263,0.977501,-0.210834,0.073997,-0.565987,0.190647
232,-0.018986,0.977627,-0.209483,-0.2182579999999999,-0.940777,0.018962
233,-0.048708,0.978711,-0.199377,0.040057,-0.990368,0.129492
234,-0.079096,0.981178,-0.1761579999999999,0.24615,-0.936806,0.261836
235,-0.104959,0.985106,-0.136193,0.576257,-0.726637,0.247277
236,-0.120891,0.989543,-0.078664,0.458385,-0.6295270000000001,-0.200892
237,-0.119709,0.992752,-0.0105469999999999,-0.039455,0.05191,-0.175778
238,-0.1138059999999999,0.991417,0.064332,-0.357996,1.587547,-0.369721
239,-0.106549,0.980336,0.166093,0.005002,2.280437,-0.2502
240,-0.099704,0.962916,0.2507,0.773547,1.662679,0.584688
241,-0.101934,0.949084,0.298072,0.1721859999999999,1.08682,0.6317229999999999
242,-0.092275,0.939152,0.330872,-0.742533,0.744167,0.5224300000000001
243,-0.090081,0.927922,0.361723,-1.248069,0.365275,0.4279189999999999
244,-0.089488,0.920511,0.380328,-0.299901,0.123389,0.0277529999999999
245,-0.085299,0.918986,0.384949,0.131075,-0.690455,-0.304902
246,-0.077843,0.924149,0.3740159999999999,0.290489,-1.065842,-0.7351
247,-0.074187,0.928397,0.364107,0.4782399999999999,-1.537512,-0.587801
248,-0.07412,0.92837,0.364188,0.402565,-1.799983,-0.530234
249,-0.081186,0.930414,0.357404,0.131555,-1.334283,-0.413327
250,-0.10339,0.935845,0.336901,0.230328,-0.623071,0.276746
251,-0.130349,0.935634,0.328021,-0.365333,0.136922,-0.240146
252,-0.139204,0.923928,0.35634,-0.4494649999999999,-0.57026,-0.169786
253,-0.1549849999999999,0.916787,0.368077,0.584184,-0.285363,-1.66953
254,-0.175629,0.906551,0.383823,0.762879,0.305104,0.363675
255,-0.167954,0.908364,0.382972,0.519623,1.150093,1.199059
256,-0.173755,0.912364,0.370676,-0.661176,0.044057,-0.658319
257,-0.1663319999999999,0.931768,0.322708,-0.677967,-0.262426,-0.480255
258,-0.1226309999999999,0.959557,0.253401,-0.246342,1.710243,0.291978
259,-0.069809,0.982167,0.174569,-0.970414,2.058346,0.336173
260,-0.049644,0.995641,0.078953,-1.011391,1.464167,0.475369
261,-0.055889,0.998278,-0.017815,0.261898,-0.0109579999999999,0.291298
262,-0.046679,0.995008,-0.088198,0.417224,-0.212904,0.276277
263,-0.023516,0.990085,-0.138481,0.148043,-0.6931039999999999,0.077232
264,0.003095,0.984522,-0.175232,-0.017301,-0.870508,0.142975
265,0.019268,0.978484,-0.20542,-0.324978,-0.55638,0.141531
266,0.015826,0.976407,-0.215359,-0.216082,-0.823742,-0.061664
267,-0.007964,0.975846,-0.2183139999999999,0.048461,-0.971878,0.034049
268,-0.0341529999999999,0.977202,-0.209546,0.194569,-0.7812939999999999,-0.020831
269,-0.0528789999999999,0.981182,-0.1857,0.2937079999999999,-0.7093470000000001,0.1761329999999999
270,-0.069236,0.986614,-0.147646,0.421241,-0.763469,0.120317
271,-0.0799909999999999,0.992501,-0.092428,0.0489389999999999,0.036704,-0.111124
272,-0.092375,0.995309,-0.028745,0.016981,0.955848,-0.101687
273,-0.1128319999999999,0.99187,0.058832,-0.12017,2.034451,-0.578134
274,-0.1198829999999999,0.982503,0.142534,0.533991,1.404705,0.218183
275,-0.124449,0.971804,0.200273,0.259108,1.483366,0.610503
276,-0.120653,0.962293,0.243792,-0.69676,1.327807,0.289671
277,-0.103604,0.95272,0.285641,-1.020938,0.663293,0.390933
278,-0.087542,0.946192,0.311538,-0.21713,-0.105921,0.235184
279,-0.075071,0.94467,0.319317,0.169248,-0.422377,0.080662
280,-0.066599,0.948786,0.308819,0.33726,-0.987757,-0.389202
281,-0.054185,0.956933,0.285208,0.314988,-1.461464,-0.594717
282,-0.043432,0.962546,0.2676159999999999,0.2326869999999999,-1.847938,-0.46801
283,-0.043646,0.962531,0.267638,0.2450159999999999,-1.407202,-0.4222399999999999
284,-0.061336,0.960881,0.270086,0.190075,-1.101902,-0.18482
285,-0.08096,0.960101,0.267677,0.0845149999999999,-0.152942,-0.034523
286,-0.094678,0.953931,0.284695,-0.283892,0.321475,0.086322
287,-0.102268,0.94125,0.321853,-0.330318,-0.67477,0.02533
288,-0.119741,0.93522,0.333205,-0.145915,-1.694009,-0.622221
289,-0.140671,0.933397,0.330123,0.679154,-0.555315,-1.626586
290,-0.150039,0.924227,0.35113,1.022476,1.355803,0.163396
291,-0.129868,0.916675,0.377944,-0.31932,3.02023,0.279313
292,-0.1473,0.928484,0.340909,-0.6469050000000001,-0.412539,-0.676068
293,-0.131973,0.953664,0.270383,-0.459839,-0.256337,0.5645319999999999
294,-0.084731,0.977487,0.1932299999999999,-0.5066390000000001,1.493948,-0.020943
295,-0.039255,0.994557,0.096508,-0.836935,1.490031,0.73679
296,-0.042384,0.999025,-0.012333,-0.132818,0.657241,0.5311319999999999
297,-0.031404,0.994318,-0.10171,0.11017,-0.048181,0.4622449999999999
298,-0.003825,0.986331,-0.1647279999999999,-0.059988,-0.4604979999999999,0.190912
299,0.022712,0.978637,-0.204333,0.09945,-0.662399,0.3316679999999999
300,0.038672,0.97362,-0.224872,0.039545,-0.4574609999999999,0.26363
301,0.039159,0.97332,-0.2260849999999999,-0.156468,-0.864341,0.096034
302,0.0188729999999999,0.975101,-0.220953,-0.271132,-1.0610540000000002,-0.050867
303,-0.01616,0.977116,-0.212088,-0.003722,-1.051564,0.1481839999999999
304,-0.0476829999999999,0.980466,-0.190816,0.196471,-0.837888,0.051275
305,-0.071386,0.98557,-0.153475,0.138708,-0.761556,-0.240355
306,-0.086375,0.991379,-0.0985149999999999,0.08488,-0.1149599999999999,-0.226238
307,-0.100508,0.994388,-0.0329879999999999,0.437758,1.623257,0.169737
308,-0.121265,0.990668,0.062212,0.570209,1.774209,0.068647
309,-0.122097,0.980928,0.15123,0.370907,1.001188,-0.349746
310,-0.1196619999999999,0.966677,0.226306,-0.142988,1.923765,0.38635
311,-0.125398,0.950091,0.2856579999999999,-0.813841,2.0202,0.264055
312,-0.121122,0.931609,0.342684,-0.9182,0.716585,0.677503
313,-0.120647,0.916386,0.38168,-0.4816939999999999,0.29829,0.392231
314,-0.118167,0.90874,0.400283,0.170916,-0.271929,0.132935
315,-0.112322,0.912234,0.393967,0.117556,-0.8268770000000001,-0.33139
316,-0.101841,0.921897,0.373807,0.165501,-1.356757,-0.623364
317,-0.092556,0.926708,0.364202,0.395092,-1.832638,-0.602666
318,-0.094025,0.925881,0.3659239999999999,0.423356,-1.521737,-0.640063
319,-0.112667,0.924236,0.364818,0.476955,-1.000408,-0.190196
320,-0.1366099999999999,0.925318,0.353725,0.160673,-0.199946,0.059849
321,-0.163144,0.920533,0.354966,-0.47568,0.131118,-0.322388
322,-0.180143,0.909335,0.3750409999999999,-0.081041,-0.37073,-1.0587719999999998
323,-0.21063,0.8962120000000001,0.390431,0.556974,-0.011477,-0.649983
324,-0.226786,0.8915280000000001,0.392101,0.752115,-0.0476399999999999,0.514409
325,-0.218834,0.895942,0.386519,-0.289253,0.492272,0.403185
326,-0.224238,0.90864,0.3522619999999999,-0.571401,0.476477,-0.50842
327,-0.184161,0.935545,0.301394,-0.4967319999999999,0.43854,0.315702
328,-0.129865,0.965177,0.227079,-0.396471,1.989596,0.248919
329,-0.086781,0.98721,0.1337269999999999,-0.930492,2.016773,0.785173
330,-0.083894,0.995897,0.033912,-0.1297289999999999,0.7178939999999999,0.372796
331,-0.076785,0.995516,-0.055222,0.269793,-0.1193109999999999,0.32898
332,-0.049208,0.991019,-0.1243339999999999,-0.109591,-0.312918,0.216146
333,-0.0241,0.984226,-0.17526,-0.127252,-0.650196,0.222501
334,-0.005559,0.97792,-0.208903,0.084752,-0.471252,0.278498
335,-0.0017109999999999,0.975567,-0.2196949999999999,0.025575,-0.575924,0.2061909999999999
336,-0.015472,0.975744,-0.218363,-0.281479,-0.8846799999999999,-0.12029
337,-0.0411459999999999,0.976722,-0.210523,-0.014808,-1.019386,-0.062884
338,-0.066038,0.979763,-0.18895,0.228071,-0.85577,0.2162329999999999
339,-0.0887559999999999,0.984284,-0.152669,0.408062,-0.720154,0.306782
340,-0.107289,0.989076,-0.1010809999999999,0.143559,-0.614518,-0.5018239999999999
341,-0.1151619999999999,0.99273,-0.035004,0.037495,0.357032,-0.137054
342,-0.124025,0.991643,0.035501,-0.12718,1.193781,-0.0738
343,-0.132841,0.982814,0.128173,0.203916,1.992375,-0.2035819999999999
344,-0.141233,0.966214,0.215601,0.512159,1.546146,0.397238
345,-0.150974,0.951802,0.2669829999999999,0.459628,1.234477,0.635544
346,-0.145017,0.940668,0.306778,-0.8488190000000001,0.8318840000000001,0.427459
347,-0.1453809999999999,0.927504,0.344383,-1.214269,0.460984,0.446572
348,-0.1426049999999999,0.917735,0.370708,-0.8519469999999999,0.370106,0.320668
349,-0.137693,0.914449,0.380557,0.289625,-0.512212,0.023786
350,-0.127365,0.917791,0.376082,0.2280579999999999,-0.8427020000000001,-0.212553
351,-0.114606,0.923892,0.365088,0.161344,-1.28522,-0.756292
352,-0.10114,0.924858,0.366618,0.307119,-1.689598,-0.533473
353,-0.09484,0.920304,0.379534,0.275825,-1.229752,-0.552279
354,-0.113588,0.921534,0.371311,0.438433,-0.596308,0.158718
355,-0.152054,0.925582,0.3466639999999999,-0.131653,0.237809,-0.085189
356,-0.183596,0.913188,0.363838,-0.366209,-0.647197,-0.448509
357,-0.20845,0.8997709999999999,0.383353,0.583541,-0.716971,-1.025824
358,-0.2139889999999999,0.8923989999999999,0.397281,0.467728,-0.405918,-0.169665
359,-0.203079,0.895366,0.39633,0.430984,0.309407,0.543428
360,-0.197693,0.905101,0.376442,-0.393113,1.372609,-0.589225
361,-0.161049,0.929289,0.332392,-0.302788,0.4637779999999999,-0.065042
362,-0.125598,0.957095,0.261139,-0.200284,0.431302,0.115173
363,-0.084272,0.981882,0.169721,-0.726458,1.83663,0.3871489999999999
364,-0.054732,0.996031,0.0701779999999999,-0.5532090000000001,1.498262,0.554013
365,-0.041775,0.998779,-0.026379,-0.016346,0.3074199999999999,0.431638
366,-0.0199139999999999,0.994707,-0.100801,-0.2126,0.152143,0.321733
367,0.009549,0.98851,-0.1508519999999999,-0.174405,-0.659424,0.0497019999999999
368,0.033658,0.982337,-0.184067,-0.122693,-0.8464879999999999,0.273453
369,0.046026,0.978122,-0.202875,-0.030233,-0.628742,0.35029
370,0.042694,0.977503,-0.206557,-0.160645,-0.839075,0.033644
371,0.022494,0.97802,-0.207296,-0.124988,-0.992454,-0.072825
372,-0.0057979999999999,0.979642,-0.200667,0.013428,-0.93852,0.01953
373,-0.032573,0.983167,-0.179779,0.3316909999999999,-0.8202950000000001,0.162216
374,-0.057543,0.987762,-0.144964,0.290026,-0.7666310000000001,-0.15896
375,-0.077124,0.992271,-0.09721,0.231696,-0.103721,-0.139866
376,-0.101712,0.994284,-0.03247,0.398816,1.479288,-0.179154
377,-0.126694,0.990599,0.051591,0.349366,1.255632,-0.241334
378,-0.1305349999999999,0.983257,0.127143,0.286938,1.211476,0.147317
379,-0.129491,0.973966,0.186071,-0.403453,2.052127,0.391413
380,-0.118568,0.964039,0.237844,-1.0479969999999998,1.469021,0.366007
381,-0.104272,0.953238,0.283661,-0.812919,0.788629,0.397796
382,-0.102339,0.942517,0.318101,-0.341021,0.4356109999999999,0.188598
383,-0.103907,0.936376,0.335265,0.114298,-0.399267,0.168977
384,-0.100406,0.93825,0.331065,0.172992,-1.017901,-0.094615
385,-0.089393,0.944776,0.315287,0.117927,-1.220044,-0.5015970000000001
386,-0.080462,0.948204,0.307299,0.253573,-1.775322,-0.4153159999999999
387,-0.085882,0.946413,0.311329,0.530401,-1.821031,-0.5128520000000001
388,-0.105199,0.944799,0.3103,0.468099,-1.35581,-0.227627
389,-0.128272,0.946322,0.296683,0.084021,-0.372225,-0.042395
390,-0.153463,0.941527,0.299958,-0.342997,0.2269449999999999,-0.021546
391,-0.168213,0.928394,0.331343,-0.236816,-0.302082,-0.299803
392,-0.187098,0.915942,0.355029,0.4309489999999999,-0.452364,-1.282107
393,-0.200253,0.909034,0.365453,0.346523,-0.481681,-0.06249
394,-0.208121,0.908238,0.363029,0.1462,0.672573,-0.428825
395,-0.204778,0.919287,0.336122,0.012655,1.40426,-0.470018
396,-0.159691,0.945388,0.284148,-0.044792,0.633286,-0.168975
397,-0.120003,0.971878,0.202613,-0.53585,1.754822,0.483407
398,-0.079395,0.990822,0.109398,-0.8917200000000001,2.012245,0.5272140000000001
399,-0.056301,0.998396,0.006004,-0.761463,1.448366,0.7368859999999999
400,-0.038256,0.995598,-0.08556,0.053622,0.210472,0.214405
401,-0.0084459999999999,0.988285,-0.152383,-0.104896,0.131496,0.086328
402,0.016742,0.980891,-0.193838,-0.190265,-0.56428,0.206197
403,0.02988,0.975889,-0.2162099999999999,-0.003849,-0.747343,0.427407
404,0.02913,0.974842,-0.2209829999999999,0.024199,-0.699589,0.357869
405,0.016729,0.974907,-0.22198,-0.283071,-0.8716510000000001,0.046382
406,-0.005619,0.976321,-0.216255,-0.263775,-0.8901540000000001,-0.094948
407,-0.030985,0.979381,-0.199633,-0.0736909999999999,-0.8870040000000001,0.009066
408,-0.054521,0.984144,-0.168781,0.495027,-0.859907,0.2401469999999999
409,-0.071502,0.98973,-0.12378,0.173644,-0.700836,-0.219757
410,-0.080944,0.994603,-0.0649,0.003109,0.31544,-0.1844589999999999
411,-0.100446,0.994868,0.0121739999999999,-0.0567509999999999,1.772771,-0.3053869999999999
412,-0.121299,0.98692,0.106183,0.422752,1.627353,-0.154584
413,-0.1288369999999999,0.974646,0.18294,0.62516,1.6940099999999998,0.0208719999999999
414,-0.131372,0.963223,0.2343989999999999,0.235284,1.728961,0.38195
415,-0.121589,0.950183,0.286996,-1.13395,1.05322,0.479438
416,-0.11678,0.936673,0.330158,-1.024974,0.5175810000000001,0.443524
417,-0.118183,0.926069,0.358367,-0.256405,0.0916309999999999,0.175217
418,-0.121983,0.922711,0.365681,0.204273,-0.604459,-0.080006
419,-0.123672,0.9291,0.348535,0.312057,-1.076714,-0.641992
420,-0.114078,0.937999,0.327327,0.359012,-1.4809219999999998,-0.481731
421,-0.102487,0.941053,0.322355,0.339792,-1.785551,-0.342237
422,-0.1079589999999999,0.940242,0.3229349999999999,0.423282,-1.611507,-0.339643
423,-0.124768,0.94226,0.310768,0.357342,-1.024657,-0.060265
424,-0.142951,0.943364,0.299378,-0.257318,0.032558,-0.100999
425,-0.164776,0.936295,0.310159,-0.5211060000000001,0.220169,-0.322488
426,-0.181225,0.923789,0.337296,-0.155995,-1.04409,-0.396927
427,-0.2011599999999999,0.919264,0.338357,0.720386,-0.607008,-1.694741
428,-0.208409,0.912554,0.351862,0.710332,0.018705,0.3119719999999999
429,-0.207252,0.916264,0.342787,0.276786,0.8953959999999999,1.06064
430,-0.224041,0.917703,0.328061,-0.283039,1.100501,-0.909665
431,-0.201569,0.938414,0.280619,-0.611297,0.29143,-0.2792
432,-0.154463,0.96208,0.2248119999999999,-0.233812,0.887301,0.11938
433,-0.105221,0.983546,0.14684,-0.581227,1.44846,0.481639
434,-0.080716,0.995321,0.053085,-0.5552699999999999,1.484888,0.74939
435,-0.06627,0.997022,-0.039404,-0.339873,0.643496,0.4032949999999999
436,-0.043762,0.991974,-0.118614,-0.358719,0.075744,0.2727739999999999
437,-0.0189669999999999,0.984208,-0.175994,-0.16835,-0.324906,0.236754
438,-0.000728,0.976389,-0.2160159999999999,0.2379869999999999,-0.790628,0.261472
439,0.009894,0.97089,-0.239317,0.086572,-0.4317359999999999,0.237013
440,0.006717,0.970008,-0.242976,0.067258,-0.614799,0.255916
441,-0.01189,0.970501,-0.2407989999999999,-0.17149,-0.972759,-0.053711
442,-0.041466,0.971803,-0.232116,0.079185,-0.949601,0.094787
443,-0.071042,0.97545,-0.208443,0.409802,-0.818651,0.292901
444,-0.097947,0.980807,-0.168588,0.5688479999999999,-0.7335689999999999,0.16218
445,-0.115488,0.987122,-0.110688,0.084848,-0.329895,-0.461059
446,-0.123467,0.991366,-0.044135,-0.048317,0.949552,-0.113747
447,-0.132052,0.990357,0.041854,-0.188093,1.6806020000000002,-0.0530389999999999
448,-0.1297029999999999,0.982422,0.134242,0.069507,2.212768,-0.30743
449,-0.136196,0.969537,0.203583,0.711361,1.47251,0.544983
450,-0.139812,0.958776,0.247382,0.0284379999999999,1.236552,0.206643
451,-0.13409,0.948197,0.287989,-1.056416,0.7040390000000001,0.466711
452,-0.130588,0.939597,0.316387,-0.844967,0.197854,0.4859819999999999
453,-0.126405,0.937988,0.322795,0.052675,-0.161545,0.217228
454,-0.124969,0.943562,0.306709,0.213561,-0.777303,-0.195457
455,-0.118907,0.953554,0.276756,0.187908,-1.225557,-0.547615
456,-0.110498,0.959993,0.257296,0.452371,-1.879335,-0.355441
457,-0.102294,0.960479,0.258869,0.558944,-1.768004,-0.34029
458,-0.108136,0.957259,0.268251,0.388471,-1.367141,-0.365159
459,-0.123524,0.956144,0.265569,0.3592869999999999,-1.091734,-0.094121
460,-0.149088,0.954131,0.259621,-0.395498,0.337617,-0.089562
461,-0.183053,0.942641,0.279134,-0.448783,0.011018,-0.1342819999999999
462,-0.226018,0.926974,0.299387,0.316289,-0.4311239999999999,-1.384699
463,-0.253833,0.916375,0.309551,0.688083,-0.3618699999999999,0.178654
464,-0.245965,0.915682,0.317843,0.034493,0.334654,0.595228
465,-0.245272,0.923994,0.293381,-0.404188,0.9153,-0.685501
466,-0.202539,0.94699,0.2493679999999999,-0.384192,0.561128,-0.088159
467,-0.1471869999999999,0.970576,0.190564,-0.0303029999999999,1.002156,0.345493
468,-0.093744,0.989755,0.107676,-0.402411,1.195823,0.666768
469,-0.062068,0.997998,0.012003,-0.585789,1.550815,0.5687
470,-0.051717,0.995019,-0.085211,0.028249,0.4727699999999999,0.466894
471,-0.031441,0.98565,-0.165839,-0.302619,0.1035369999999999,0.282553
472,-0.01007,0.975617,-0.219242,-0.34549,-0.519349,0.144032
473,0.000388,0.966473,-0.256765,0.190668,-0.931866,0.297751
474,-8.3e-05,0.960546,-0.278116,0.300773,-0.559683,0.308573
475,-0.008341,0.959472,-0.281678,0.14477,-0.6295,0.191941
476,-0.031919,0.958675,-0.282704,-0.1454339999999999,-0.834835,0.035939
477,-0.061408,0.960972,-0.269741,0.115409,-0.8417549999999999,0.07626
478,-0.08646,0.966494,-0.2416869999999999,0.418796,-0.727861,0.292163
479,-0.1070319999999999,0.974722,-0.1961099999999999,0.27259,-0.5545100000000001,-0.36578
480,-0.11967,0.983776,-0.133646,0.242121,0.423527,-0.0223289999999999
481,-0.136064,0.989535,-0.048,-0.097425,1.845105,-0.351155
482,-0.144045,0.988796,0.0391139999999999,0.1403829999999999,1.14539,-0.249822
483,-0.145067,0.982964,0.112849,0.543154,1.279777,0.306234
484,-0.141755,0.974867,0.171864,-0.295348,1.603823,0.295376
485,-0.129199,0.964029,0.2322789999999999,-0.845884,1.215308,0.257955
486,-0.1246869999999999,0.951937,0.279762,-0.718163,0.60182,0.284844
487,-0.132542,0.942596,0.306501,-0.2355,0.186021,0.255374
488,-0.144581,0.938971,0.312131,0.228794,-0.5581729999999999,0.089129
489,-0.145309,0.94338,0.298186,0.269485,-1.099371,-0.397765
490,-0.136758,0.948931,0.284296,0.1607289999999999,-1.962526,-0.502329
491,-0.129494,0.950748,0.281612,0.3270349999999999,-2.020405,-0.338009
492,-0.139592,0.950176,0.278704,0.498342,-1.446209,0.001905
493,-0.154593,0.950439,0.269746,0.2746639999999999,-0.536514,0.304214
494,-0.17093,0.948136,0.267989,0.005189,-0.077667,0.055559
495,-0.185657,0.938106,0.292379,-0.28233,-0.240749,-0.232457
496,-0.205201,0.926818,0.314478,0.37201,-0.158294,-1.47883
497,-0.2342199999999999,0.91519,0.327971,0.541196,0.017534,-0.088957
498,-0.240463,0.912889,0.329859,0.022659,0.4166399999999999,0.511709
499,-0.246522,0.916155,0.316044,-0.19815,0.353911,-0.954594
500,-0.215213,0.937308,0.274104,-0.37576,0.315392,-0.58285
501,-0.162504,0.963069,0.21468,0.09683,1.40508,0.126659
502,-0.1093869999999999,0.985273,0.13141,-0.7236819999999999,1.766787,0.794539
503,-0.083164,0.996084,0.029955,-0.981213,1.555109,0.815855
504,-0.072104,0.99507,-0.068069,-0.112374,0.467484,0.565459
505,-0.046567,0.987739,-0.149001,-0.2345,0.29612,0.4977399999999999
506,-0.019455,0.978394,-0.205828,-0.27713,-0.471039,0.2486139999999999
507,-0.002874,0.970253,-0.242073,0.155783,-0.838142,0.2342
508,0.00492,0.965326,-0.260998,0.112466,-0.511239,0.33685
509,0.000249,0.965088,-0.261921,-0.016149,-0.766709,0.094959
510,-0.021351,0.965999,-0.257658,-0.211056,-0.938274,-0.043779
511,-0.053996,0.968384,-0.2435469999999999,0.137324,-0.959656,0.117128
512,-0.0846659999999999,0.973116,-0.214182,0.41891,-0.784945,0.182916
513,-0.112348,0.97924,-0.168714,0.433363,-0.641013,0.03378
514,-0.129957,0.985915,-0.1052579999999999,0.22804,0.000474,-0.247327
515,-0.145668,0.98885,-0.030858,-0.062111,1.488353,-0.157969
516,-0.153201,0.986554,0.056897,-0.141355,1.636859,-0.383862
517,-0.149818,0.97932,0.135948,0.459022,1.360386,0.450676
518,-0.148505,0.970416,0.190353,-0.081979,1.469434,0.488724
519,-0.135365,0.961164,0.2404869999999999,-0.728664,1.217242,0.380652
520,-0.126657,0.951114,0.281665,-0.7388060000000001,0.762586,0.492184
521,-0.1275369999999999,0.944322,0.303289,-0.313548,0.302031,0.316691
522,-0.130464,0.9429,0.306453,0.311525,-0.443434,0.0587049999999999
523,-0.133842,0.948335,0.287648,0.510551,-1.4227610000000002,-0.319295
524,-0.131128,0.956513,0.2605429999999999,0.435877,-1.437013,-0.687301
525,-0.126101,0.960313,0.248783,0.214938,-1.850327,-0.485843
526,-0.128653,0.9618,0.241628,0.258673,-1.598091,-0.243734
527,-0.13268,0.963751,0.23146,0.339071,-0.796454,0.163742
528,-0.140195,0.959612,0.2438929999999999,-0.115649,0.514646,0.437046
529,-0.167575,0.948409,0.269134,-0.264981,0.094956,-0.10173
530,-0.207331,0.931403,0.299158,0.421808,-0.512672,-1.071482
531,-0.245185,0.916103,0.317228,0.38288,-0.6437189999999999,0.024691
532,-0.249414,0.914919,0.31735,0.515664,-0.132189,0.305377
533,-0.25779,0.918324,0.300367,-0.261481,0.432643,-0.664686
534,-0.227596,0.937226,0.264204,0.049983,0.797226,-0.035826
535,-0.180297,0.961946,0.205303,0.250502,0.996215,0.071812
536,-0.140008,0.982867,0.11986,-0.1345589999999999,1.442014,0.36604
537,-0.114178,0.993237,0.020988,-0.883884,1.812519,0.815438
538,-0.1057109999999999,0.99151,-0.075701,-0.060122,0.282752,0.457766
539,-0.085271,0.984226,-0.155,-4.1e-05,0.21101,0.466279
540,-0.0536419999999999,0.97547,-0.21349,-0.193246,-0.4429079999999999,0.376531
541,-0.026962,0.965959,-0.257283,0.054763,-0.696717,0.473225
542,-0.008445,0.958564,-0.284746,0.069129,-0.474479,0.4774489999999999
543,-0.006453,0.956192,-0.292665,-0.116106,-0.634598,0.284746
544,-0.023206,0.956025,-0.292362,-0.335345,-0.939377,-0.053326
545,-0.053755,0.957276,-0.284132,0.056837,-0.97966,0.145201
546,-0.082622,0.962086,-0.259926,0.272563,-0.853382,0.293434
547,-0.106897,0.969846,-0.219017,0.270471,-0.621045,-0.160148
548,-0.124791,0.979313,-0.159282,0.285619,0.133053,-0.010304
549,-0.14448,0.986135,-0.081611,0.24325,1.711604,-0.199212
550,-0.1574,0.987454,0.0124879999999999,0.290075,1.336978,-0.365989
551,-0.151506,0.983692,0.0969179999999999,0.69388,1.3713799999999998,0.257636
552,-0.151608,0.975571,0.158975,0.507672,1.6601560000000002,0.312658
553,-0.1443299999999999,0.966338,0.212967,-0.8683049999999999,1.413377,0.4294739999999999
554,-0.14247,0.954694,0.261261,-0.983521,0.699725,0.377548
555,-0.141722,0.946033,0.291433,-0.525667,-0.003116,0.275294
556,-0.137369,0.944218,0.299294,0.080362,-0.5317729999999999,0.088844
557,-0.128913,0.948901,0.288035,0.239127,-1.174945,-0.196894
558,-0.117221,0.956232,0.268097,0.268817,-1.362589,-0.467041
559,-0.107988,0.958511,0.263802,0.344102,-1.955185,-0.342598
560,-0.11049,0.955145,0.2747469999999999,0.50702,-1.664176,-0.2756619999999999
561,-0.122325,0.952674,0.278292,0.2285719999999999,-0.8911049999999999,-0.086382
562,-0.137718,0.949148,0.2831059999999999,-0.243538,0.215128,0.1237849999999999
563,-0.161492,0.938892,0.3039719999999999,-0.3609989999999999,0.017972,0.023482
564,-0.187701,0.925871,0.327913,0.257815,-0.533262,-1.580248
565,-0.2157239999999999,0.914087,0.343371,0.500269,-0.376703,0.356992
566,-0.21706,0.914514,0.341386,0.545383,0.156103,0.4051349999999999
567,-0.225977,0.917844,0.326334,-0.171148,0.697742,-0.450464
568,-0.202933,0.93907,0.277421,-0.503015,0.86046,-0.5315409999999999
569,-0.154295,0.963345,0.219448,-0.046755,0.926395,0.420018
570,-0.110426,0.984341,0.1373869999999999,-0.4229449999999999,0.966175,0.436312
571,-0.081802,0.995827,0.040416,-0.674622,1.491142,0.819157
572,-0.06507,0.996471,-0.052992,-0.26304,1.094868,0.475599
573,-0.0459,0.989893,-0.134173,-0.187971,0.07604,0.481128
574,-0.020069,0.981131,-0.192293,-0.512798,-0.28884,0.202837
575,-0.001872,0.972041,-0.2348,-0.145787,-0.8571719999999999,0.177747
576,0.004548,0.965111,-0.261795,0.186629,-0.613915,0.356811
577,-0.001277,0.963078,-0.269214,0.174602,-0.521641,0.2375219999999999
578,-0.023108,0.962593,-0.269959,-0.113397,-0.8971030000000001,0.000947
579,-0.056675,0.963755,-0.260693,-0.051708,-0.983485,0.0601779999999999
580,-0.086704,0.967948,-0.235704,0.302356,-0.90969,0.144472
581,-0.113079,0.974219,-0.195212,0.494137,-0.743171,0.258719
582,-0.130146,0.981926,-0.137409,0.429538,-0.700066,-0.1375849999999999
583,-0.13457,0.988566,-0.068008,0.25313,0.241857,-0.157013
584,-0.145367,0.989124,0.022338,0.153301,1.695187,-0.161528
585,-0.142866,0.982645,0.118306,0.2686139999999999,1.865851,-0.425511
586,-0.146507,0.970167,0.193156,0.64289,1.18918,0.678442
587,-0.154008,0.958522,0.239823,-0.084411,1.403356,0.478988
588,-0.153219,0.945122,0.288558,-1.027308,1.015052,0.466676
589,-0.149635,0.933153,0.326851,-0.99334,0.2762429999999999,0.2964239999999999
590,-0.144485,0.927318,0.345259,0.0951679999999999,-0.012508,0.335801
591,-0.138566,0.929722,0.341197,0.499223,-0.636509,-0.057994
592,-0.126095,0.93936,0.318904,0.220822,-1.020018,-0.5845600000000001
593,-0.111669,0.947793,0.298691,0.188192,-1.7046290000000002,-0.483643
594,-0.102028,0.950114,0.29474,0.330056,-1.696391,-0.360246
595,-0.114191,0.948178,0.29651,0.293833,-1.143048,-0.176316
596,-0.138467,0.945849,0.293591,0.230844,-0.8552420000000001,0.06673
597,-0.166176,0.939921,0.298215,-0.401451,0.092199,-0.151792
598,-0.190636,0.928078,0.319886,-0.114754,-0.307763,-0.7017680000000001
599,-0.2202869999999999,0.917783,0.330374,0.530849,-0.59953,-0.4108949999999999
600,-0.2273599999999999,0.917549,0.326205,0.861592,-0.332207,0.019055
601,-0.2320739999999999,0.921373,0.311787,0.202549,0.625746,-0.108952
602,-0.2293199999999999,0.93663,0.264832,-0.287175,1.106049,-0.632096
603,-0.180967,0.960516,0.211326,-0.662569,0.4362279999999999,0.0589679999999999
604,-0.129217,0.983095,0.129712,-0.787592,1.410108,0.635837
605,-0.0897299999999999,0.995298,0.036452,-0.914879,1.909563,0.8473370000000001
606,-0.069485,0.995665,-0.0618149999999999,-0.678959,1.630632,0.8460409999999999
607,-0.042062,0.988032,-0.1484,-0.296592,0.20075,0.442406
608,-0.006124,0.977226,-0.212113,-0.627604,-0.148338,0.43216
609,0.011367,0.96608,-0.257992,0.14943,-0.903122,0.186642
610,0.014561,0.958159,-0.285864,0.331921,-0.68405,0.226904
611,0.007243,0.955365,-0.2953389999999999,0.2273909999999999,-0.604657,0.368917
612,-0.011131,0.956014,-0.293108,-0.050087,-0.798513,0.117647
613,-0.038765,0.958423,-0.282706,-0.0298839999999999,-0.902224,0.0745919999999999
614,-0.06724,0.963768,-0.258128,0.255289,-0.8523780000000001,0.228053
615,-0.09326,0.972025,-0.215567,0.442274,-0.785868,0.320349
616,-0.111592,0.98186,-0.1532859999999999,0.310933,-0.625659,-0.223545
617,-0.11882,0.989846,-0.078014,-0.037491,0.332817,-0.162037
618,-0.133147,0.991004,0.0135009999999999,-0.159089,1.805124,-0.1465119999999999
619,-0.135623,0.98405,0.1151079999999999,0.2842739999999999,1.923375,-0.428188
620,-0.1332279999999999,0.971441,0.196344,0.7023050000000001,1.2012120000000002,0.80448
621,-0.135568,0.959858,0.245544,0.1988,1.194485,0.618333
622,-0.128221,0.947622,0.292522,-0.919615,0.8901469999999999,0.503895
623,-0.1246319999999999,0.936326,0.328264,-1.286013,0.480025,0.274839
624,-0.118104,0.93051,0.346699,-0.415236,0.149782,0.151226
625,-0.110266,0.931473,0.346693,0.383337,-0.456467,-0.016279
626,-0.100131,0.939529,0.327499,0.416979,-0.882141,-0.4482569999999999
627,-0.0909919999999999,0.947155,0.307593,0.295749,-1.322338,-0.552909
628,-0.088469,0.949797,0.300093,0.324278,-1.96623,-0.370375
629,-0.101832,0.949818,0.295755,0.260843,-1.601826,-0.5204409999999999
630,-0.125634,0.952203,0.278426,0.4182979999999999,-1.109994,-0.009673
631,-0.145642,0.951752,0.270098,-0.251025,0.16301,-0.060076
632,-0.155886,0.941923,0.29745,-0.411757,0.116229,-0.098063
633,-0.175453,0.930301,0.322103,0.062324,-0.45969,-0.739629
634,-0.201446,0.917402,0.3432,0.40654,0.076387,0.2559369999999999
635,-0.197156,0.915632,0.3503429999999999,0.499493,0.401628,0.778166
636,-0.201175,0.927365,0.3154619999999999,-0.733136,0.217944,-0.627627
637,-0.187371,0.946909,0.261244,-0.676078,0.636724,-0.580763
638,-0.13012,0.973178,0.189708,-0.369819,1.222913,-0.046382
639,-0.087687,0.99138,0.097319,-0.316976,1.546492,0.5931109999999999
640,-0.074923,0.997156,-0.00785,-0.174924,1.27323,0.8589399999999999
641,-0.064483,0.992189,-0.106768,0.280609,0.334258,0.432818
642,-0.035273,0.982249,-0.184225,-0.434927,0.256444,0.299383
643,0.001772,0.971227,-0.238141,-0.682375,-0.372137,0.189863
644,0.028423,0.961229,-0.274278,0.009617,-0.675218,0.226579
645,0.038393,0.957124,-0.287119,0.12187,-0.522874,0.235498
646,0.032797,0.958856,-0.281987,-0.044683,-0.825677,0.222294
647,0.0095909999999999,0.962603,-0.270741,-0.186532,-1.011278,0.132099
648,-0.018635,0.968151,-0.249667,-0.017345,-0.907604,0.31769
649,-0.04074,0.975576,-0.215842,0.005339,-0.737386,0.164328
650,-0.060002,0.98407,-0.167338,0.129857,-0.598618,0.042185
651,-0.071663,0.992272,-0.101281,0.062095,-0.129875,-0.2186199999999999
652,-0.086404,0.995975,-0.023733,0.298151,1.419186,-0.152399
653,-0.101982,0.991915,0.075491,0.328987,1.742536,-0.2284
654,-0.10639,0.981512,0.159095,0.621725,1.332926,0.494958
655,-0.114465,0.970211,0.213505,-0.05561,1.587025,0.625057
656,-0.112918,0.957791,0.264352,-0.965161,1.306415,0.4579229999999999
657,-0.1180109999999999,0.944451,0.3067269999999999,-1.324585,0.555091,0.398808
658,-0.1236109999999999,0.936429,0.328355,-0.4247899999999999,0.198535,0.284224
659,-0.122319,0.937002,0.3272,0.329335,-0.357992,0.045862
660,-0.109698,0.943676,0.31215,0.2444329999999999,-0.921886,-0.39618
661,-0.095486,0.949872,0.29769,0.265225,-1.203443,-0.487937
662,-0.089413,0.950456,0.297715,0.345943,-1.823579,-0.352326
663,-0.097597,0.947353,0.304944,0.404894,-1.618572,-0.39671
664,-0.11689,0.947761,0.2967849999999999,0.40908,-1.172507,-0.238405
665,-0.139335,0.948486,0.284527,0.023185,-0.204498,0.072147
666,-0.160338,0.942011,0.2947909999999999,-0.5124529999999999,0.0689289999999999,-0.1318119999999999
667,-0.173992,0.930087,0.3235139999999999,-0.041981,-0.367755,-0.721173
668,-0.191911,0.91652,0.350936,0.6559010000000001,-0.144319,-0.8879540000000001
669,-0.192275,0.917077,0.349279,0.7389060000000001,0.0537789999999999,0.412775
670,-0.200003,0.91642,0.346654,-0.09762,0.452553,0.085841
671,-0.194656,0.932176,0.305211,-0.5524140000000001,0.633483,-0.42928
672,-0.15328,0.955539,0.2518849999999999,-0.514582,0.327954,0.095313
673,-0.1051859999999999,0.979068,0.1742369999999999,-0.18966,1.070554,0.296665
674,-0.075021,0.994151,0.077665,-0.5741649999999999,1.512593,0.811068
675,-0.0646,0.997629,-0.023669,-0.34606,1.360998,0.6116659999999999
676,-0.049294,0.991985,-0.116337,-0.2304909999999999,0.170979,0.457631
677,-0.027035,0.981576,-0.189144,-0.236667,-0.197015,0.391323
678,-0.00869,0.970705,-0.240115,0.035774,-0.750765,0.256182
679,0.003315,0.960856,-0.277026,0.103817,-0.530772,0.267443
680,0.005044,0.956785,-0.290751,-0.023781,-0.5659609999999999,0.15272
681,-0.010324,0.956019,-0.29312,-0.193777,-0.8116399999999999,-0.092027
682,-0.041524,0.957363,-0.285886,0.0520679999999999,-0.943737,0.0286079999999999
683,-0.070325,0.963386,-0.258728,0.217298,-0.893546,0.197571
684,-0.095994,0.971636,-0.2161179999999999,0.4106149999999999,-0.669573,0.30555
685,-0.115058,0.980959,-0.15646,0.151252,-0.270403,-0.343586
686,-0.128697,0.988321,-0.081585,0.153294,1.198065,-0.1322819999999999
687,-0.149593,0.988693,0.010333,0.106044,1.569413,-0.5082270000000001
688,-0.155077,0.982654,0.101686,0.4248369999999999,0.8352780000000001,-0.055406
689,-0.151636,0.973173,0.173031,0.480158,1.625247,0.780049
690,-0.152031,0.962506,0.224648,-0.042778,1.7223689999999998,0.5778270000000001
691,-0.148384,0.95026,0.273837,-1.047111,0.946194,0.3705719999999999
692,-0.14514,0.939438,0.310463,-0.8306899999999999,0.39859,0.240013
693,-0.13828,0.936201,0.3231179999999999,-0.112193,-0.090437,0.261401
694,-0.1295069999999999,0.941905,0.309907,0.043982,-0.8845930000000001,0.205749
695,-0.111392,0.952986,0.281794,-0.025892,-1.188658,-0.385752
696,-0.0915179999999999,0.95934,0.267002,0.166301,-1.600758,-0.3798559999999999
697,-0.084066,0.957977,0.274248,0.685888,-1.979309,-0.361971
698,-0.097415,0.953407,0.285524,0.6509119999999999,-1.45948,-0.515932
699,-0.116959,0.952485,0.281233,0.111954,-0.383836,0.039842
700,-0.145453,0.947701,0.284087,-0.518731,0.325279,0.0140539999999999
701,-0.174801,0.934272,0.310774,-0.538288,-0.116126,-0.1605349999999999
702,-0.208311,0.917222,0.339571,0.295195,-0.387223,-1.272402
703,-0.214769,0.912275,0.348752,0.512651,-0.311735,0.023821
704,-0.206029,0.912581,0.353195,0.347813,-0.051131,0.56662
705,-0.209179,0.921229,0.327994,0.205746,0.8823290000000001,-0.3917449999999999
706,-0.1657,0.944971,0.282086,-0.129832,0.722083,-0.272916
707,-0.121139,0.970192,0.209887,-0.072571,1.038353,0.245542
708,-0.083565,0.989506,0.117869,-0.781883,1.5571700000000002,0.7969109999999999
709,-0.064097,0.997726,0.020847,-0.726018,1.408067,0.669186
710,-0.04675,0.996427,-0.070339,-0.335147,0.5095390000000001,0.648555
711,-0.017534,0.989248,-0.145191,-0.579543,0.295161,0.517994
712,0.005039,0.980292,-0.197489,-0.347202,-0.440985,0.269617
713,0.016728,0.971711,-0.2355789999999999,0.067531,-0.826829,0.244398
714,0.018336,0.966275,-0.256857,0.229986,-0.510846,0.256415
715,0.009379,0.96515,-0.261527,0.1295059999999999,-0.604692,0.185629
716,-0.009473,0.965813,-0.259065,-0.085772,-0.913231,0.0371709999999999
717,-0.034724,0.968863,-0.24515,0.013255,-0.966314,0.024324
718,-0.061363,0.974234,-0.21703,0.2375409999999999,-0.847555,0.19701
719,-0.088038,0.981039,-0.172654,0.277567,-0.740775,0.015732
720,-0.108615,0.98783,-0.111324,0.092746,-0.222983,-0.172535
721,-0.131764,0.990759,-0.0321399999999999,0.005695,1.657663,-0.331202
722,-0.147464,0.987169,0.0612429999999999,0.078097,1.562895,-0.423014
723,-0.145444,0.979639,0.1383869999999999,0.496717,1.019887,0.285731
724,-0.142708,0.969796,0.197811,-0.38076,1.774543,0.274937
725,-0.139568,0.956147,0.2574909999999999,-0.746404,1.69728,0.069734
726,-0.1446579999999999,0.941748,0.303615,-0.611338,0.371393,0.3890119999999999
727,-0.151337,0.934148,0.323207,-0.035156,-0.114598,0.340412
728,-0.1481569999999999,0.935193,0.321654,0.11207,-0.5631079999999999,0.1500109999999999
729,-0.13632,0.94222,0.306002,0.044126,-1.042424,-0.310626
730,-0.120956,0.950634,0.285769,0.164718,-1.407222,-0.3679219999999999
731,-0.109675,0.953658,0.2801909999999999,0.468257,-1.896101,-0.217721
732,-0.115794,0.952566,0.281441,0.487529,-1.699178,-0.383797
733,-0.13371,0.953311,0.270773,0.282728,-1.112033,-0.181371
734,-0.14644,0.955387,0.256495,-0.18141,0.021344,0.061987
735,-0.162156,0.951773,0.260442,-0.554046,0.348931,-0.145025
736,-0.178593,0.942035,0.284026,-0.017909,-0.380848,-0.52394
737,-0.203698,0.930415,0.304682,0.787683,-0.048366,-1.244059
738,-0.207453,0.924076,0.321003,0.486872,-0.101017,0.303936
739,-0.205308,0.922175,0.327778,0.166673,-0.386408,0.332958
740,-0.215254,0.929214,0.300372,0.1953869999999999,0.201767,-0.7726930000000001
741,-0.191978,0.948903,0.25045,-0.2432639999999999,1.147686,0.0423199999999999
742,-0.13161,0.973854,0.185157,-0.363828,1.853538,0.065072
743,-0.0950429999999999,0.990921,0.095075,-0.88799,1.602249,0.7437159999999999
744,-0.078498,0.996913,0.000519,-0.64547,1.098638,0.625747
745,-0.055375,0.994434,-0.089626,-0.242828,0.535504,0.593349
746,-0.0258259999999999,0.985525,-0.167544,-0.289329,0.41984,0.597002
747,-0.000623,0.974183,-0.225754,-0.248263,-0.426316,0.399338
748,0.016567,0.963452,-0.267365,0.0178569999999999,-0.848675,0.336518
749,0.025559,0.957223,-0.2882159999999999,0.109786,-0.4149569999999999,0.223855
750,0.021682,0.957064,-0.289061,-0.0514059999999999,-0.5194880000000001,0.239715
751,0.001859,0.958996,-0.28341,-0.180921,-0.820767,-0.0153419999999999
752,-0.028549,0.962704,-0.269045,0.130066,-0.964077,0.12012
753,-0.0577769999999999,0.969383,-0.238659,0.328971,-0.8207620000000001,0.223858
754,-0.083366,0.978202,-0.190182,0.310401,-0.7310399999999999,-0.07764
755,-0.10121,0.987013,-0.124744,0.218794,-0.0554029999999999,-0.181805
756,-0.121666,0.991499,-0.046103,0.007668,1.33925,-0.123819
757,-0.133132,0.989966,0.04735,-0.203508,1.532861,-0.613467
758,-0.129275,0.983203,0.128834,0.382708,1.258542,0.457333
759,-0.123064,0.976025,0.179526,0.4951649999999999,1.570606,0.639932
760,-0.11127,0.96878,0.221545,-0.501996,1.320283,0.47363
761,-0.10859,0.959759,0.258975,-0.731712,0.837253,0.475156
762,-0.1126359999999999,0.952899,0.281594,-0.674901,0.2415139999999999,0.221381
763,-0.116739,0.95219,0.282319,0.094095,-0.449077,0.076659
764,-0.1152789999999999,0.957682,0.263729,0.312056,-1.036661,-0.144482
765,-0.109638,0.963118,0.2457239999999999,0.306538,-1.32263,-0.376339
766,-0.103217,0.9631,0.248561,0.281699,-1.978023,-0.355083
767,-0.104173,0.961148,0.2556179999999999,0.316744,-1.756665,-0.291674
768,-0.1105609999999999,0.960792,0.25427,-0.070683,-0.447166,0.15581
769,-0.125801,0.958148,0.2571469999999999,-0.287728,0.220319,-0.229971
770,-0.152228,0.947676,0.280595,-0.284464,-0.654692,-0.17537
771,-0.177557,0.94086,0.288535,-0.159281,-1.284611,-0.450888
772,-0.19257,0.941417,0.276854,0.783939,-0.682613,-1.934996
773,-0.1859289999999999,0.937073,0.295503,1.360886,1.038238,0.53659
774,-0.15957,0.941026,0.298338,1.224679,2.927962,2.079118
775,-0.183572,0.949099,0.255952,-1.008231,-0.557253,-1.87906
776,-0.1761619999999999,0.96673,0.185468,-0.8088529999999999,0.081091,0.912386
777,-0.119797,0.984631,0.127075,-0.629898,1.26102,-0.202317
778,-0.060549,0.997348,0.040351,-0.770155,2.004467,0.950783
779,-0.054147,0.996763,-0.059424,-0.046255,0.7877069999999999,0.7002619999999999
780,-0.044763,0.987991,-0.1478819999999999,-0.034766,0.060822,0.257394
781,-0.01485,0.97636,-0.215636,-0.642133,-0.017147,0.227752
782,0.008555,0.962933,-0.269603,-0.04275,-0.599438,0.392788
783,0.019916,0.952352,-0.304348,0.542157,-0.463217,0.461681
784,0.02029,0.948358,-0.316553,0.252202,-0.279489,0.401895
785,0.009566,0.948637,-0.316222,-0.121459,-0.907148,0.202193
786,-0.017837,0.949412,-0.313526,-0.5062260000000001,-1.148569,-0.065121
787,-0.053024,0.952805,-0.2989159999999999,0.097992,-0.896683,0.206951
788,-0.0878309999999999,0.959858,-0.266377,0.35634,-0.8659399999999999,0.3221179999999999
789,-0.114542,0.96935,-0.217346,0.568521,-0.7145279999999999,0.432846
790,-0.125595,0.98042,-0.151657,0.262863,-0.59625,-0.38765
791,-0.1201339999999999,0.989225,-0.083664,0.048662,0.5807359999999999,0.0490569999999999
792,-0.124022,0.992246,0.008065,-0.561525,2.559024,-0.170067
793,-0.126088,0.986186,0.107406,0.034962,2.5904130000000003,-0.087432
794,-0.141205,0.973988,0.177219,1.006043,1.190212,0.8221860000000001
795,-0.146174,0.964028,0.2219949999999999,0.310221,0.984611,0.6048180000000001
796,-0.147441,0.952255,0.267336,-0.809575,0.643753,0.203566
797,-0.145,0.941934,0.302872,-1.342839,0.189444,0.645309
798,-0.142979,0.937059,0.318548,-0.330501,-0.039263,0.125727
799,-0.1386359999999999,0.939581,0.3129929999999999,0.262125,-0.908651,-0.169819
800,-0.130199,0.94695,0.2938219999999999,0.403392,-1.240376,-0.602767
801,-0.1157,0.95087,0.287152,0.502235,-1.915043,-0.472409
802,-0.107843,0.951424,0.288373,0.10386,-1.529198,-0.60655
803,-0.126362,0.953294,0.274333,0.18549,-1.223009,-0.047649
804,-0.151521,0.956184,0.250501,0.44536,-0.276389,0.094028
805,-0.166255,0.948773,0.268675,-0.330769,0.338825,-0.0202919999999999
806,-0.181322,0.937111,0.2982309999999999,-0.362348,-0.777443,-0.40045
807,-0.2005839999999999,0.932732,0.299623,0.594962,-0.657189,-1.576875
808,-0.200592,0.928524,0.312415,0.984253,0.0563549999999999,0.18467
809,-0.195164,0.927061,0.320101,0.6787,1.256441,1.514447
810,-0.203739,0.939435,0.2755869999999999,-0.5075649999999999,0.8223290000000001,-1.16165
811,-0.169794,0.958654,0.228359,-0.709296,0.249964,0.485432
812,-0.1207859999999999,0.979346,0.162141,-0.488375,0.2943969999999999,0.407622
813,-0.077382,0.994179,0.074952,-0.880641,0.848289,1.125441
814,-0.052132,0.998559,-0.012648,-0.800834,1.848151,0.565016
815,-0.039218,0.993985,-0.102244,-0.341107,0.146991,0.418009
816,-0.020655,0.984979,-0.171431,-0.204183,-0.360574,0.113143
817,-0.008987,0.975502,-0.219806,0.471329,-0.8276290000000001,0.007479
818,-0.002926,0.967371,-0.253347,0.697049,-0.903513,0.082448
819,0.002306,0.963098,-0.2691389999999999,0.284284,-0.440088,0.3306469999999999
820,0.0011359999999999,0.962835,-0.270088,-0.1881779999999999,-0.744924,0.100715
821,-0.011984,0.964756,-0.262871,-0.2213679999999999,-0.97945,-0.1121289999999999
822,-0.033448,0.969108,-0.244356,0.04564,-0.934211,0.2066219999999999
823,-0.057495,0.975693,-0.211465,0.283004,-0.839859,0.455254
824,-0.077983,0.98377,-0.161601,0.2842969999999999,-0.763174,0.101528
825,-0.086633,0.991699,-0.095007,0.006585,-0.632721,-0.626627
826,-0.093445,0.99534,-0.0237819999999999,-0.391677,1.334997,-0.109824
827,-0.098923,0.992199,0.075869,-0.460083,2.107929,-0.25046
828,-0.099837,0.980764,0.16773,0.34413,2.588465,-0.1078089999999999
829,-0.107924,0.969385,0.220553,0.841567,1.092794,0.764462
830,-0.1046579999999999,0.961041,0.2558269999999999,-0.3430809999999999,0.749577,0.40468
831,-0.105455,0.952293,0.286386,-1.295241,0.287987,0.411459
832,-0.104671,0.947339,0.302642,-0.8332709999999999,0.223605,0.286775
833,-0.105581,0.949624,0.295071,0.04035,-0.4458399999999999,0.108875
834,-0.10683,0.957599,0.267563,0.306125,-0.8900790000000001,-0.4782409999999999
835,-0.104549,0.963447,0.2466539999999999,0.408244,-1.605308,-0.3350329999999999
836,-0.099877,0.964306,0.245231,0.273049,-1.851086,-0.313102
837,-0.101711,0.961659,0.254688,0.122066,-1.25797,-0.409122
838,-0.11652,0.960514,0.252657,0.088627,-0.6379279999999999,0.003355
839,-0.137128,0.9591,0.247634,-0.050357,0.151435,-0.216979
840,-0.152247,0.950046,0.272457,-0.197988,-0.485904,0.175404
841,-0.170949,0.942283,0.287888,0.507741,-0.523383,-1.390961
842,-0.183604,0.93399,0.306514,0.477992,-0.187439,0.227742
843,-0.178207,0.934805,0.307215,0.434326,0.8991030000000001,0.982168
844,-0.1827,0.943655,0.275927,-0.296487,1.33018,-0.314288
845,-0.147356,0.961886,0.2303489999999999,-0.627822,0.036069,-0.323626
846,-0.0959309999999999,0.982465,0.159868,-0.461701,0.277606,0.146757
847,-0.049911,0.99623,0.07095,-0.444626,1.537264,0.809863
848,-0.0256269999999999,0.999317,-0.0266019999999999,-0.718911,1.624279,0.726126
849,-0.011629,0.992592,-0.120931,-0.367354,0.585975,0.551046
850,0.009476,0.98039,-0.1968369999999999,-0.366456,0.016909,0.331221
851,0.025123,0.966702,-0.254669,0.031564,-0.624096,0.361434
852,0.03521,0.95474,-0.295348,0.205558,-0.527036,0.114989
853,0.035114,0.948163,-0.315837,0.1042589999999999,-0.271313,0.33633
854,0.020921,0.947544,-0.318939,-0.038316,-0.671085,0.146194
855,-0.006049,0.948743,-0.31599,-0.232232,-1.018445,0.019145
856,-0.037506,0.952932,-0.300855,0.196473,-0.7130029999999999,0.311139
857,-0.0690149999999999,0.960877,-0.268239,0.360717,-0.67685,0.388463
858,-0.095461,0.971565,-0.216676,0.330843,-0.686546,-0.247954
859,-0.1064329999999999,0.983057,-0.149229,0.142459,0.294729,0.0567299999999999
860,-0.117163,0.990748,-0.068487,-0.372019,1.820196,-0.431376
861,-0.1177069999999999,0.992474,0.033743,-0.3714739999999999,1.818469,-0.533606
862,-0.115478,0.986323,0.117603,0.7632899999999999,1.636785,0.8161579999999999
863,-0.114089,0.979513,0.16594,0.51863,1.474848,0.611266
864,-0.108816,0.971637,0.209952,-0.017145,1.3625459999999998,0.5573670000000001
865,-0.1113869999999999,0.961465,0.251349,-1.209474,0.4228119999999999,0.31759
866,-0.111895,0.953224,0.28079,-0.312482,-0.164253,-0.020002
867,-0.108964,0.95046,0.291121,0.422288,-0.839773,-0.288786
868,-0.106012,0.954798,0.277707,0.453821,-0.938623,-0.600156
869,-0.106378,0.959181,0.262019,0.399301,-1.860243,-0.4495949999999999
870,-0.1098109999999999,0.959612,0.259009,0.525979,-1.992525,-0.5140600000000001
871,-0.1194359999999999,0.958613,0.258445,0.424017,-1.475535,-0.309822
872,-0.138906,0.958726,0.248088,0.259832,-0.437745,0.172337
873,-0.163162,0.952972,0.255384,-0.366073,0.122818,0.127901
874,-0.180488,0.941804,0.283601,-0.431801,-0.654694,-0.268098
875,-0.199677,0.935032,0.29299,0.601197,-0.623768,-1.541434
876,-0.2109869999999999,0.927106,0.309772,0.630466,-0.318143,0.485654
877,-0.212288,0.927952,0.306332,0.315484,1.530545,1.022159
878,-0.2053309999999999,0.940976,0.269078,-0.637107,1.156223,-0.420735
879,-0.169947,0.962255,0.2125639999999999,-0.5259,-0.2868239999999999,0.124045
880,-0.1204869999999999,0.983516,0.134825,-0.378201,0.3322489999999999,0.523073
881,-0.06652,0.996911,0.0417439999999999,-0.521813,2.176399,0.5369
882,-0.036489,0.99731,-0.063558,-0.520366,1.83727,0.662573
883,-0.02412,0.986485,-0.162063,-0.205967,0.002117,0.447647
884,-0.001795,0.971941,-0.235215,-0.407644,-0.0199449999999999,0.348008
885,0.014803,0.9583,-0.285379,0.242231,-0.719713,0.15661
886,0.025945,0.948635,-0.315306,0.401652,-0.567134,0.307921
887,0.0301399999999999,0.944664,-0.32665,0.095486,-0.3730699999999999,0.420797
888,0.0229699999999999,0.945096,-0.325982,-0.23792,-0.7609229999999999,0.172158
889,0.001978,0.947335,-0.320237,-0.419199,-0.981835,-0.024841
890,-0.027249,0.952572,-0.303087,0.038708,-0.881833,0.253405
891,-0.059039,0.961105,-0.2697969999999999,0.406085,-0.715988,0.465171
892,-0.085592,0.972094,-0.218415,0.260213,-0.672686,-0.153823
893,-0.103548,0.983123,-0.150812,0.208498,0.1579289999999999,0.027735
894,-0.125164,0.99034,-0.059654,0.012004,1.760575,-0.353203
895,-0.133791,0.990128,0.041772,0.189623,1.764007,-0.203958
896,-0.145064,0.982821,0.114091,0.701628,1.523526,0.566375
897,-0.149968,0.974096,0.169248,-0.2293199999999999,1.614146,0.4584069999999999
898,-0.150675,0.96125,0.230851,-1.094915,1.2753370000000002,0.455291
899,-0.156613,0.947778,0.277826,-1.29906,0.547904,0.588583
900,-0.161228,0.940659,0.298602,-0.224667,0.069244,0.373716
901,-0.154703,0.941911,0.298107,0.2323239999999999,-0.931566,-0.40034
902,-0.142898,0.948867,0.281475,0.160629,-0.926544,-0.65646
903,-0.13025,0.952109,0.276625,0.521333,-2.28147,-0.366316
904,-0.130966,0.95245,0.275107,0.682938,-1.859585,-0.361914
905,-0.147619,0.95385,0.2614869999999999,0.696767,-1.620903,-0.373594
906,-0.159488,0.957116,0.2418469999999999,0.313266,-0.277734,-0.0121409999999999
907,-0.166118,0.956531,0.23969,-0.126164,0.616757,-0.224065
908,-0.167079,0.948348,0.269663,-0.43076,0.2082369999999999,-0.0395149999999999
909,-0.1748019999999999,0.939091,0.29589,0.311276,-0.531163,-0.892402
910,-0.201188,0.926555,0.317835,0.8550270000000001,-0.368693,-0.406886
911,-0.2120909999999999,0.923372,0.320001,0.882181,0.222609,1.093069
912,-0.219244,0.917962,0.330569,0.268713,0.568671,1.658979
913,-0.222578,0.933812,0.280094,-0.834749,0.147929,-0.090153
914,-0.188662,0.956761,0.2213909999999999,-0.957548,0.026866,0.385405
915,-0.140426,0.979841,0.142099,-0.2059639999999999,1.81383,0.624732
916,-0.105636,0.993451,0.043538,-0.965485,1.58591,0.88
917,-0.096086,0.993411,-0.062462,-0.646254,0.979688,0.556725
918,-0.081973,0.984074,-0.157726,-0.139539,0.2964429999999999,0.380245
919,-0.060932,0.971459,-0.229246,0.174854,-0.056512,0.278028
920,-0.042229,0.959189,-0.279595,0.4952319999999999,-0.700491,0.185448
921,-0.022732,0.949478,-0.313009,0.260235,-0.537887,0.405721
922,-0.012577,0.946948,-0.321138,-0.024319,-0.42818,0.2231
923,-0.022813,0.94687,-0.320805,-0.245299,-0.8386549999999999,0.1190529999999999
924,-0.047332,0.949412,-0.3104429999999999,0.04663,-1.031245,0.106998
925,-0.072416,0.955875,-0.284707,0.064039,-0.8230620000000001,0.224847
926,-0.097382,0.964972,-0.243607,0.2888489999999999,-0.6645260000000001,0.379807
927,-0.115414,0.976296,-0.183098,0.06892,-0.449226,-0.426231
928,-0.127926,0.985429,-0.1120819999999999,0.304958,0.859664,0.254294
929,-0.1423829999999999,0.989489,-0.025219,0.114032,1.565396,-0.489353
930,-0.143463,0.98705,0.071751,0.188446,1.132136,-0.114704
931,-0.144035,0.977796,0.152205,0.713646,1.5900299999999998,1.060395
932,-0.143623,0.967464,0.208286,-0.403511,1.7120099999999998,0.238034
933,-0.149785,0.954775,0.256838,-1.09228,0.950926,0.157209
934,-0.154338,0.946724,0.282648,-1.088033,-0.354485,0.285101
935,-0.13906,0.948222,0.285541,-0.037057,-0.122554,0.274395
936,-0.120109,0.955104,0.270827,0.255684,-0.519755,0.199784
937,-0.105347,0.964059,0.243903,0.22049,-0.913949,-0.241828
938,-0.096565,0.969186,0.226606,0.404411,-1.520532,-0.178388
939,-0.099004,0.967765,0.231573,0.586828,-2.020728,-0.320761
940,-0.116746,0.965064,0.234559,0.429353,-1.422569,-0.779374
941,-0.140549,0.96542,0.2195619999999999,0.284851,-0.452221,-0.2
942,-0.161139,0.961364,0.223184,-0.102915,0.339372,0.304648
943,-0.174756,0.950681,0.256247,-0.5628380000000001,-0.116529,0.053598
944,-0.199525,0.935047,0.293043,0.2842719999999999,-0.296467,-1.482343
945,-0.216981,0.923023,0.317716,0.329942,-0.4660229999999999,0.201845
946,-0.21066,0.920151,0.3300619999999999,-0.075641,0.261459,0.1799319999999999
947,-0.214534,0.928512,0.3030489999999999,-0.235967,0.672669,-0.672144
948,-0.177379,0.948949,0.260823,-0.307607,0.4385779999999999,-0.173192
949,-0.136482,0.972129,0.190617,0.0085069999999999,0.990625,0.441188
950,-0.100123,0.989285,0.106241,-0.151159,1.327838,0.69097
951,-0.074963,0.997151,0.0082469999999999,-0.3607059999999999,1.433971,0.878792
952,-0.0557789999999999,0.994514,-0.088478,-0.108314,0.702233,0.813988
953,-0.027939,0.984632,-0.1723849999999999,-0.4223479999999999,0.227816,0.54978
954,0.002667,0.972801,-0.231623,-0.576962,-0.2320019999999999,0.338404
955,0.020319,0.960673,-0.276932,0.0610559999999999,-0.896174,0.126191
956,0.024628,0.951996,-0.305114,0.12918,-0.402008,0.337692
957,0.016929,0.949677,-0.312769,0.089196,-0.380189,0.327006
958,-0.00199,0.95003,-0.312151,-0.096108,-0.8452780000000001,0.140306
959,-0.023796,0.954136,-0.298423,0.039024,-0.8229860000000001,0.1426619999999999
960,-0.042515,0.962071,-0.269462,0.1472359999999999,-0.7885939999999999,0.197623
961,-0.060976,0.972384,-0.225277,0.29503,-0.785921,0.255078
962,-0.0719809999999999,0.983866,-0.163779,-0.043604,-0.269877,-0.279138
963,-0.084676,0.992339,-0.089952,0.007131,1.274278,-0.072493
964,-0.103252,0.99459,0.011306,0.041775,1.82084,-0.3291159999999999
965,-0.1108789999999999,0.988042,0.107125,0.616021,1.467631,0.320853
966,-0.11997,0.977341,0.1743829999999999,0.306631,1.39476,0.358576
967,-0.11805,0.965895,0.230454,-0.722038,1.251665,0.528411
968,-0.1154119999999999,0.953979,0.276769,-1.062886,0.511826,0.610744
969,-0.1097359999999999,0.946922,0.302147,-0.668981,0.258781,0.426399
970,-0.103364,0.948077,0.30077,0.045869,-0.322024,0.265576
971,-0.0935169999999999,0.956894,0.274965,0.187313,-0.6490779999999999,-0.41147
972,-0.08383,0.96521,0.2476679999999999,0.264449,-1.282928,-0.4325739999999999
973,-0.073354,0.968275,0.238869,0.40595,-2.025252,-0.220238
974,-0.072646,0.966293,0.246975,0.3813,-1.56604,-0.298459
975,-0.08778,0.963922,0.251286,0.248607,-1.0433290000000002,-0.313527
976,-0.111971,0.962411,0.247436,0.044588,-0.149926,0.16182
977,-0.141075,0.956378,0.255805,-0.248009,0.197156,-0.351157
978,-0.1618089999999999,0.944531,0.2857889999999999,-0.05656,-0.5442020000000001,-0.560661
979,-0.188188,0.934103,0.303369,0.587266,-0.476126,-1.264474
980,-0.197363,0.930332,0.3090739999999999,0.8016260000000001,-0.173939,0.1619809999999999
981,-0.1998849999999999,0.932695,0.300206,0.4539439999999999,0.522368,0.446636
982,-0.201016,0.944845,0.258567,-0.100345,0.815958,-0.4314189999999999
983,-0.166474,0.964822,0.203474,-0.390411,0.1439119999999999,0.323305
984,-0.115099,0.983971,0.136197,-0.398726,0.938209,0.35245
985,-0.0623049999999999,0.996901,0.047992,-1.317014,1.6383530000000002,1.309598
986,-0.038133,0.99809,-0.048567,-1.460875,1.541094,0.598906
987,-0.0223,0.989428,-0.143292,-0.968865,0.273527,0.5142329999999999
988,-0.0066549999999999,0.974812,-0.222925,-0.455366,0.050045,0.409021
989,0.007642,0.958108,-0.2863,0.0557429999999999,-0.502206,0.259964
990,0.017781,0.94334,-0.331348,0.330455,-0.6554220000000001,0.155246
991,0.015599,0.93577,-0.3522619999999999,0.117701,-0.390558,0.226438
992,0.001697,0.934902,-0.354898,0.17709,-0.765255,0.137354
993,-0.017584,0.937636,-0.347171,0.181509,-0.901412,0.083866
994,-0.034739,0.945046,-0.325085,0.2786349999999999,-0.8373799999999999,0.380001
995,-0.0538059999999999,0.955549,-0.289877,0.3427159999999999,-0.762861,0.4427239999999999
996,-0.073675,0.969175,-0.2350969999999999,0.13674,-0.638776,0.067494
997,-0.082713,0.983009,-0.1638599999999999,-0.304311,0.0548639999999999,-0.101399
998,-0.092705,0.991948,-0.086274,-0.521858,1.5433,-0.295898
999,-0.103476,0.994426,0.02014,-0.5743199999999999,2.054295,-0.716933
1000,-0.109964,0.986728,0.119467,0.8827149999999999,1.516659,0.700113
1001,-0.113801,0.977691,0.17654,0.8889319999999999,1.283387,0.666112
1002,-0.112624,0.968961,0.2200619999999999,-0.073686,1.007022,0.653076
1003,-0.118344,0.957883,0.261629,-1.132922,0.264315,0.481001
1004,-0.122496,0.949532,0.288756,-0.852633,0.276924,0.423677
1005,-0.1242549999999999,0.948301,0.29203,0.007403,-0.0621009999999999,0.213631
1006,-0.1166599999999999,0.954331,0.275024,0.09426,-1.001755,-0.4067989999999999
1007,-0.103422,0.960538,0.258198,0.032774,-1.627209,-0.762867
1008,-0.082527,0.960415,0.266057,0.2118449999999999,-1.763134,-0.5527850000000001
1009,-0.077521,0.956763,0.280338,0.398215,-1.521796,-0.28371
1010,-0.09656,0.958306,0.268923,0.726321,-1.032479,0.1851789999999999
1011,-0.121164,0.958042,0.2597489999999999,0.443827,0.215771,-0.154952
1012,-0.144601,0.943616,0.297782,-0.521842,0.217441,-0.446875
1013,-0.177548,0.923333,0.340481,0.298611,0.245292,-1.828777
1014,-0.1918349999999999,0.913855,0.357858,-0.001952,0.68107,0.662558
1015,-0.198475,0.915812,0.349128,0.216221,-1.387171,0.8698819999999999
1016,-0.2158389999999999,0.920805,0.324846,0.311329,-0.4669319999999999,-0.555437
1017,-0.1920619999999999,0.939406,0.283942,-0.351639,0.850252,-0.7803260000000001
1018,-0.132139,0.966675,0.219256,-0.071337,2.008331,0.711728
1019,-0.099582,0.985523,0.137195,-0.458097,1.176495,0.632962
1020,-0.097372,0.99451,0.038265,-0.060114,0.652997,1.02486
1021,-0.0830809999999999,0.995068,-0.054153,-0.309146,0.852771,0.407928
1022,-0.052175,0.989113,-0.1375829999999999,-0.614085,0.310661,0.158183
1023,-0.01711,0.977909,-0.208321,-0.889567,-0.033924,0.291283
1024,0.00854,0.963857,-0.266276,-0.4856979999999999,-0.508566,0.3388469999999999
1025,0.014428,0.951567,-0.3070989999999999,0.148734,-0.413435,0.493302
1026,0.007499,0.945414,-0.325781,0.033989,-0.34051,0.255438
1027,-0.010478,0.943947,-0.329925,0.018763,-0.800515,0.267242
1028,-0.034117,0.947176,-0.318889,-0.023195,-1.029711,0.044887
1029,-0.056669,0.954149,-0.293914,0.116423,-0.949419,0.26625
1030,-0.0776159999999999,0.963174,-0.257427,0.291941,-0.776345,0.259915
1031,-0.0957659999999999,0.974214,-0.204285,0.27524,-0.770174,0.089523
1032,-0.104887,0.985079,-0.136434,-0.051485,0.040525,-0.073375
1033,-0.124767,0.990824,-0.0519409999999999,-0.020725,1.704718,-0.377365
1034,-0.146154,0.988277,0.044097,0.047704,1.905644,-0.693129
1035,-0.154859,0.979609,0.127986,0.55705,0.972386,0.322026
1036,-0.153609,0.971543,0.180289,-0.1147619999999999,1.2685540000000002,0.8262120000000001
1037,-0.148084,0.962299,0.228142,-0.687198,0.907147,0.608116
1038,-0.15179,0.950771,0.270167,-0.999288,0.72411,0.542196
1039,-0.1576779999999999,0.942133,0.295837,-0.100409,0.0075739999999999,0.2163699999999999
1040,-0.159741,0.941299,0.29738,0.30505,-0.843566,0.051894
1041,-0.150785,0.949588,0.274848,0.1184359999999999,-1.060901,-0.580421
1042,-0.133511,0.958099,0.253411,0.291485,-1.447631,-0.253976
1043,-0.119998,0.960917,0.249466,0.421573,-1.42422,-0.268219
1044,-0.126382,0.95878,0.254485,0.416742,-1.358973,-0.358
1045,-0.149091,0.959515,0.238953,0.60774,-0.7477689999999999,-0.229553
1046,-0.168842,0.956486,0.237954,-0.149899,-0.07349,-0.41288
1047,-0.1836819999999999,0.944227,0.2732949999999999,-0.370349,-0.082091,-0.259563
1048,-0.205738,0.934805,0.289493,0.5100899999999999,-0.306784,-1.717761
1049,-0.2255849999999999,0.921813,0.315223,0.612228,0.495011,0.318612
1050,-0.226321,0.921924,0.314371,0.008761,1.655026,1.492575
1051,-0.241907,0.928771,0.280821,-0.4943149999999999,-0.011946,-0.980574
1052,-0.223267,0.946095,0.234632,-0.575546,-0.191853,-0.162259
1053,-0.181199,0.965373,0.187664,0.031693,0.285253,0.575458
1054,-0.131169,0.984586,0.115678,0.0637409999999999,1.765033,0.834045
1055,-0.098934,0.994811,0.02362,-0.421985,1.724168,0.933228
1056,-0.078609,0.994447,-0.0699419999999999,-0.699681,0.485839,0.441647
1057,-0.050463,0.987404,-0.149944,-0.798704,0.131752,0.339778
1058,-0.023291,0.976527,-0.214123,-0.09022,-0.4402109999999999,0.363979
1059,-0.003931,0.963355,-0.268194,0.163813,-0.837744,0.381598
1060,0.008705,0.951578,-0.307277,0.025277,-0.423105,0.298442
1061,0.0039829999999999,0.945985,-0.32418,-0.125214,-0.513444,0.1537089999999999
1062,-0.0145669999999999,0.945049,-0.326599,0.017512,-0.860332,0.05661
1063,-0.038869,0.947746,-0.316644,0.010961,-0.933494,-0.025199
1064,-0.066085,0.954431,-0.291016,0.364257,-0.7302029999999999,0.405304
1065,-0.093804,0.964375,-0.2473409999999999,0.3729179999999999,-0.63477,0.1774099999999999
1066,-0.116438,0.976037,-0.183821,0.20825,-0.509759,-0.297716
1067,-0.144023,0.983997,-0.104892,0.1811019999999999,1.6756099999999998,-0.29646
1068,-0.167934,0.98577,-0.007123,0.208477,1.560678,-0.526492
1069,-0.173129,0.981661,0.079766,0.564654,1.07028,0.266975
1070,-0.172288,0.974515,0.143638,0.24051,1.453723,0.4469229999999999
1071,-0.161789,0.965965,0.201817,-0.71402,1.278374,0.523617
1072,-0.1595099999999999,0.954573,0.251675,-0.896399,0.778185,0.659931
1073,-0.164745,0.94568,0.280252,-0.59441,0.394423,0.487997
1074,-0.17074,0.943289,0.284686,0.055796,-0.227942,0.246625
1075,-0.163675,0.94894,0.269662,0.154032,-0.983714,-0.038445
1076,-0.148575,0.956728,0.250182,0.040573,-0.942614,-0.428313
1077,-0.133949,0.960431,0.244178,0.15229,-1.599271,-0.277503
1078,-0.126472,0.959459,0.251865,0.314659,-1.674837,-0.310718
1079,-0.134408,0.958164,0.252686,0.448968,-1.328571,-0.29303
1080,-0.148106,0.958547,0.243407,0.23505,-0.485112,0.012178
1081,-0.168842,0.953415,0.249971,-0.2409639999999999,-0.273133,-0.153322
1082,-0.18995,0.943557,0.271317,0.362191,-0.4896689999999999,-1.267991
1083,-0.208276,0.932454,0.2952,0.6185689999999999,-0.188115,-1.197636
1084,-0.205867,0.931453,0.300011,0.462154,0.523472,0.6854319999999999
1085,-0.210327,0.933395,0.290738,-0.093124,0.649536,-0.467435
1086,-0.205955,0.945595,0.251845,-0.377282,0.43705,-0.495009
1087,-0.163109,0.96584,0.201349,-0.281532,0.917171,0.500372
1088,-0.1144579999999999,0.984765,0.130884,-0.428145,1.377051,0.491506
1089,-0.080456,0.995811,0.043367,-0.712864,1.569664,0.8952319999999999
1090,-0.054786,0.997158,-0.051647,-0.451134,0.688999,0.545208
1091,-0.017902,0.990074,-0.13938,-0.589703,0.548927,0.58631
1092,0.011893,0.977022,-0.212794,-0.549628,0.457731,0.55511
1093,0.031465,0.963779,-0.26483,0.019851,-0.8407629999999999,0.216704
1094,0.044648,0.951524,-0.304309,0.0555559999999999,-0.725541,0.404315
1095,0.044876,0.94642,-0.319797,0.018082,-0.395822,0.212161
1096,0.032345,0.946818,-0.320133,6.500000000000001e-05,-0.8328190000000001,0.169391
1097,0.014091,0.949893,-0.31225,0.0557169999999999,-1.014727,-0.001181
1098,-0.004333,0.956886,-0.290421,0.125244,-1.016152,0.078125
1099,-0.022418,0.966588,-0.255339,0.229144,-0.810171,0.371794
1100,-0.040017,0.977936,-0.2050219999999999,0.313668,-0.79953,0.456883
1101,-0.048161,0.98884,-0.140956,-0.249492,-0.615717,-0.5570729999999999
1102,-0.048886,0.996038,-0.0742289999999999,-0.471667,0.6390779999999999,-0.015019
1103,-0.0637139999999999,0.997726,0.021817,-0.650077,2.39351,-0.590176
1104,-0.084009,0.988197,0.1280599999999999,-0.252707,2.420113,-0.522744
1105,-0.096714,0.974536,0.202276,0.994282,1.543713,0.875009
1106,-0.100107,0.963791,0.247134,0.045633,1.017548,0.839505
1107,-0.108833,0.952456,0.284556,-1.10476,0.4233989999999999,0.773763
1108,-0.1079369999999999,0.944453,0.310398,-0.952534,0.40125,0.403576
1109,-0.10095,0.944756,0.311826,-0.007205,-0.088783,0.221728
1110,-0.090669,0.952094,0.292036,0.270295,-0.805045,-0.177427
1111,-0.075177,0.959297,0.272188,0.3210719999999999,-1.385674,-0.423662
1112,-0.0624399999999999,0.962639,0.26347,0.362169,-1.981545,-0.355694
1113,-0.068339,0.962907,0.261017,0.276148,-1.715089,-0.372635
1114,-0.093327,0.963722,0.250038,0.393849,-1.047951,-0.021797
1115,-0.117215,0.964232,0.2377119999999999,0.159024,-0.096373,0.208165
1116,-0.134939,0.958049,0.2528289999999999,-0.579966,0.150776,-0.272803
1117,-0.14617,0.947767,0.283483,-0.0592139999999999,-0.154721,-0.851216
1118,-0.170652,0.935175,0.310345,0.385114,0.033331,-0.231778
1119,-0.170794,0.939213,0.297821,0.845949,-0.279682,0.30133
1120,-0.171717,0.941573,0.289728,0.18374,-0.22824,0.236303
1121,-0.176494,0.952203,0.249295,-0.095815,0.326712,-0.590588
1122,-0.126334,0.973527,0.190459,-0.532678,1.217544,0.0568549999999999
1123,-0.076749,0.990044,0.117952,-0.467135,1.487633,0.310591
1124,-0.056365,0.998165,0.021932,-0.941498,1.039982,1.075739
1125,-0.047614,0.996138,-0.073715,-0.463495,0.964891,0.787338
1126,-0.02258,0.986455,-0.162447,-0.21648,0.500178,0.7190880000000001
1127,0.0142289999999999,0.971383,-0.237078,-0.676491,0.376273,0.611254
1128,0.037619,0.955635,-0.292132,-0.401465,-0.6015699999999999,0.305408
1129,0.041849,0.942309,-0.33211,0.053594,-0.825731,0.2127409999999999
1130,0.03042,0.936464,-0.349433,0.062583,-0.4221819999999999,0.2860789999999999
1131,0.005407,0.936636,-0.350253,0.066828,-0.559866,0.344379
1132,-0.025712,0.939108,-0.34265,-0.0844559999999999,-0.8613190000000001,0.069334
1133,-0.0562429999999999,0.945861,-0.319651,0.0604539999999999,-0.8953549999999999,0.0754799999999999
1134,-0.084506,0.955708,-0.281911,0.571414,-0.754383,0.427129
1135,-0.103478,0.968796,-0.22521,0.265053,-0.303223,-0.118021
1136,-0.116129,0.980921,-0.155885,0.1244599999999999,1.00234,-0.111892
1137,-0.1353079999999999,0.988785,-0.0631429999999999,-0.0543279999999999,1.577454,-0.27876
1138,-0.14968,0.988132,0.0343529999999999,0.368095,1.617184,0.16485
1139,-0.162365,0.980613,0.10966,0.421475,1.742501,0.555471
1140,-0.163739,0.972079,0.168053,0.094799,1.4569379999999998,0.4629439999999999
1141,-0.16742,0.959901,0.224829,-0.935515,0.670088,0.678796
1142,-0.174076,0.948974,0.262932,-0.691311,0.094498,0.540611
1143,-0.179422,0.945188,0.272792,-0.221793,-0.020307,0.335194
1144,-0.174753,0.949258,0.261456,0.223398,-0.913354,-0.112393
1145,-0.164038,0.957119,0.238751,0.137488,-1.196179,-0.472301
1146,-0.154752,0.961807,0.225758,0.288327,-2.022308,-0.323246
1147,-0.155437,0.963032,0.21999,0.549984,-1.916173,-0.304036
1148,-0.171845,0.963749,0.20407,0.709,-1.463291,-0.273604
1149,-0.180542,0.965891,0.185602,0.436417,-0.375925,0.032874
1150,-0.1852359999999999,0.963827,0.191608,-0.0990809999999999,0.3811739999999999,-0.081455
1151,-0.191101,0.955368,0.2252559999999999,-0.1375279999999999,-0.007248,-0.141714
1152,-0.207999,0.942125,0.262913,0.555701,0.137312,-1.295399
1153,-0.222031,0.933797,0.280558,0.808625,0.198451,0.2142389999999999
1154,-0.2297539999999999,0.931237,0.282839,0.299136,0.028541,0.7255229999999999
1155,-0.245523,0.938535,0.242609,-0.357886,0.435183,-0.616831
1156,-0.2092,0.957931,0.19645,-0.872755,0.46074,-0.068733
1157,-0.160137,0.978847,0.127292,-0.259205,1.193211,0.433605
1158,-0.120873,0.991846,0.040267,-0.404487,1.455878,0.8559120000000001
1159,-0.095826,0.993697,-0.0580929999999999,-0.621795,1.163713,0.7883479999999999
1160,-0.06946,0.986086,-0.151001,-0.4933909999999999,0.757154,0.589646
1161,-0.0469889999999999,0.971979,-0.230307,-0.328835,0.255179,0.612662
1162,-0.0295709999999999,0.957537,-0.286778,-0.014374,-0.559344,0.346562
1163,-0.016544,0.944607,-0.327776,0.183842,-0.8472559999999999,0.308809
1164,-0.01224,0.937181,-0.348621,0.171862,-0.464997,0.215534
1165,-0.021344,0.936041,-0.351233,-0.021762,-0.65267,0.142493
1166,-0.041591,0.93732,-0.34597,-0.035588,-0.87836,0.010795
1167,-0.066626,0.943405,-0.324872,0.256079,-0.909011,0.166104
1168,-0.089189,0.953725,-0.287136,0.316911,-0.791524,0.366405
1169,-0.106028,0.966817,-0.2324099999999999,0.028636,-0.715383,-0.42352
1170,-0.125331,0.978405,-0.1643369999999999,0.196849,0.3167,0.09552
1171,-0.159495,0.984438,-0.073707,0.2043559999999999,1.733457,-0.079415
1172,-0.174736,0.984513,0.013787,0.514732,0.836226,-0.329492
1173,-0.168125,0.981876,0.087417,0.552372,0.7782859999999999,0.240814
1174,-0.159956,0.975994,0.147777,-0.155047,1.890583,0.63326
1175,-0.1492619999999999,0.967259,0.205232,-0.965469,1.428219,0.4133739999999999
1176,-0.1449359999999999,0.959034,0.243382,-0.818855,0.573055,0.566371
1177,-0.148223,0.954469,0.258856,-0.323304,0.305342,0.348078
1178,-0.143679,0.957649,0.249505,0.126513,-0.530067,0.37371
1179,-0.125913,0.965638,0.227323,0.1612829999999999,-0.740693,-0.084195
1180,-0.108742,0.971989,0.208323,-0.078422,-1.656956,-0.408244
1181,-0.098608,0.974163,0.20315,0.349248,-2.173992,-0.020609
1182,-0.112491,0.972702,0.2029359999999999,0.77074,-1.650757,-0.434595
1183,-0.133117,0.97205,0.19335,0.597823,-0.960637,-0.132925
1184,-0.142557,0.97295,0.181748,0.086084,0.140225,0.008834
1185,-0.145979,0.968204,0.203118,-0.5554520000000001,0.534772,-0.1386349999999999
1186,-0.152789,0.955325,0.252973,0.008289,0.192869,-0.98657
1187,-0.180648,0.938767,0.293371,0.185226,-0.1738289999999999,0.212717
1188,-0.190514,0.939236,0.285524,0.398415,-0.4991109999999999,0.157225
1189,-0.197866,0.940457,0.276358,-0.080256,-0.188962,-0.597372
1190,-0.188682,0.949293,0.251449,-0.388467,0.63193,-0.5428609999999999
1191,-0.138474,0.969348,0.2029119999999999,-0.313217,0.8213469999999999,-0.528169
1192,-0.105609,0.985986,0.12909,-0.18678,1.251822,0.618438
1193,-0.085673,0.995701,0.035031,-0.373647,0.8538319999999999,0.982623
1194,-0.0626299999999999,0.996128,-0.061599,-0.396583,1.109509,0.49472
1195,-0.0280029999999999,0.98769,-0.153863,-0.54205,0.80177,0.600824
1196,0.00655,0.972031,-0.23474,-0.688968,0.225219,0.574232
1197,0.034481,0.955569,-0.292728,-0.5161859999999999,-0.4241359999999999,0.387531
1198,0.048106,0.941647,-0.333134,0.0544179999999999,-0.49725,0.5847060000000001
1199,0.050491,0.935124,-0.350694,0.1416319999999999,-0.348134,0.291932
1200,0.041774,0.934909,-0.35241,-0.005245,-0.7771020000000001,0.26835
1201,0.0205139999999999,0.937603,-0.347092,-0.275092,-1.102535,-0.048324
1202,-0.011886,0.94367,-0.330662,-0.091218,-1.039343,0.144306
1203,-0.047845,0.953318,-0.298139,0.329782,-0.910365,0.206281
1204,-0.079528,0.965393,-0.248361,0.3777,-0.768951,-0.22753
1205,-0.1060849999999999,0.977049,-0.184694,0.572012,0.242327,0.077287
1206,-0.140447,0.985547,-0.094666,0.562261,1.770725,0.1141819999999999
1207,-0.158666,0.98731,-0.005667,0.289434,1.330454,-0.44697
1208,-0.163629,0.983929,0.071392,0.20849,1.110569,0.475147
1209,-0.163711,0.977432,0.133461,-0.374603,1.811523,0.583123
1210,-0.164366,0.966993,0.194667,-1.102083,1.230395,0.735158
1211,-0.168097,0.955254,0.2433519999999999,-0.79162,0.688377,0.734187
1212,-0.1757369999999999,0.946678,0.270005,-0.1975849999999999,0.2524949999999999,0.339477
1213,-0.1779369999999999,0.943774,0.278596,0.11713,-0.521365,0.15959
1214,-0.168847,0.947885,0.2701659999999999,0.260491,-1.303659,-0.214105
1215,-0.152894,0.953505,0.259686,0.18483,-1.432158,-0.627102
1216,-0.141654,0.956757,0.254039,0.441841,-1.722,-0.587947
1217,-0.14394,0.959193,0.2433449999999999,0.620899,-1.594431,-0.509672
1218,-0.149529,0.964376,0.218188,0.563713,-1.0107780000000002,0.10603
1219,-0.157559,0.962846,0.219294,-0.1832609999999999,0.182937,0.122167
1220,-0.1701069999999999,0.951964,0.254586,-0.621351,-0.091902,-0.039788
1221,-0.194941,0.946213,0.258193,-0.029241,-1.349259,-0.871993
1222,-0.214817,0.937418,0.27402,0.956363,-0.439554,-1.238589
1223,-0.1973089999999999,0.94213,0.2710079999999999,1.388578,0.768716,0.3825719999999999
1224,-0.1970589999999999,0.944311,0.263494,0.125145,2.264185,0.799006
1225,-0.207271,0.963315,0.170435,-1.057942,-0.016828,1.304037
1226,-0.176769,0.978204,0.10889,-0.538303,0.939811,-0.62633
1227,-0.1171799999999999,0.992633,0.030583,-0.707099,1.445553,0.714214
1228,-0.095354,0.993694,-0.0588929999999999,-0.098738,1.438892,0.697565
1229,-0.083254,0.985295,-0.14917,0.619188,0.470775,0.746903
1230,-0.049085,0.973168,-0.224778,-0.26964,0.267921,0.400453
1231,-0.007741,0.95943,-0.281827,-0.873714,-0.3659699999999999,0.394879
1232,0.015985,0.946827,-0.321333,-0.117013,-1.122898,0.294294
1233,0.023281,0.93869,-0.343964,0.184971,-0.610901,0.362671
1234,0.016855,0.935836,-0.352021,-0.110757,-0.5766439999999999,0.388901
1235,-0.001104,0.934811,-0.355134,-0.25764,-0.901165,0.082429
1236,-0.023606,0.937687,-0.346668,0.107651,-0.948567,0.007053
1237,-0.045641,0.945206,-0.323258,0.297029,-0.758469,0.306656
1238,-0.064659,0.956684,-0.283844,0.367134,-0.670215,0.262756
1239,-0.074277,0.971207,-0.226344,0.003446,-0.2681119999999999,-0.4108479999999999
1240,-0.093748,0.983032,-0.157641,0.180143,1.44986,0.072252
1241,-0.125379,0.989972,-0.064995,0.3492409999999999,1.658953,-0.269264
1242,-0.135506,0.990465,0.024616,0.586098,0.697554,-0.025302
1243,-0.135513,0.986427,0.092662,0.212707,1.558632,0.798604
1244,-0.129954,0.979792,0.152013,-0.847677,1.806967,0.199702
1245,-0.129297,0.969473,0.208309,-1.077811,0.8272959999999999,0.364139
1246,-0.132667,0.961154,0.2420139999999999,-0.4671869999999999,0.1969119999999999,0.333135
1247,-0.128831,0.959849,0.249158,0.144273,-0.067546,0.411166
1248,-0.112692,0.965227,0.235851,0.226354,-0.791429,0.2226139999999999
1249,-0.089254,0.972994,0.2128469999999999,-0.067607,-1.139788,-0.164279
1250,-0.071513,0.977783,0.197014,-0.038854,-1.707382,-0.115166
1251,-0.075414,0.978119,0.193867,0.314015,-2.038742,-0.271534
1252,-0.094462,0.977085,0.190708,0.506724,-1.524555,-0.472034
1253,-0.104084,0.977583,0.18299,0.207234,-0.6397689999999999,0.015375
1254,-0.1086039999999999,0.974876,0.194446,-0.0223319999999999,0.277856,0.1772119999999999
1255,-0.113131,0.966783,0.229171,-0.286756,0.064574,-0.10385
1256,-0.129576,0.95545,0.265163,0.222792,-0.106924,-1.053997
1257,-0.15077,0.941672,0.300845,0.38098,0.029031,0.0458649999999999
1258,-0.152372,0.938127,0.3109429999999999,0.305113,0.055907,1.046845
1259,-0.1663319999999999,0.940478,0.296344,-0.495015,-0.244524,-0.7389560000000001
1260,-0.154725,0.952686,0.261601,-0.525848,0.6003689999999999,-0.58611
1261,-0.109846,0.971763,0.2087969999999999,0.073424,1.087532,0.239521
1262,-0.073129,0.988731,0.130576,0.281641,1.27372,0.469522
1263,-0.052913,0.997953,0.035762,-0.180897,1.053073,0.720799
1264,-0.039251,0.997492,-0.0588169999999999,-0.222956,0.964315,0.673181
1265,-0.019076,0.989549,-0.142901,-0.536909,0.456939,0.526339
1266,0.00724,0.978032,-0.208308,-0.938393,0.205485,0.420191
1267,0.02766,0.966248,-0.256107,-0.5871390000000001,-0.448395,0.287571
1268,0.035586,0.95602,-0.291122,0.149457,-0.78915,0.441451
1269,0.03639,0.951745,-0.304713,0.2772239999999999,-0.45768,0.350153
1270,0.025096,0.951306,-0.307211,-0.1468,-0.861524,0.020986
1271,-0.001126,0.953329,-0.301919,-0.029254,-1.006414,-0.057334
1272,-0.03061,0.959102,-0.281385,0.249268,-0.950924,0.191907
1273,-0.054834,0.968411,-0.243236,0.328394,-0.7409939999999999,0.250469
1274,-0.070667,0.979693,-0.187612,0.023716,-0.461535,-0.194316
1275,-0.079904,0.989461,-0.120713,0.037301,-0.0716909999999999,0.206331
1276,-0.092526,0.995067,-0.035616,0.132916,1.849293,-0.234694
1277,-0.097341,0.994243,0.044648,0.656148,1.367116,0.0927419999999999
1278,-0.094815,0.989557,0.1085069999999999,0.739392,1.277289,0.264189
1279,-0.0902429999999999,0.983814,0.154763,-0.5392279999999999,1.497112,0.4920569999999999
1280,-0.0871,0.976816,0.195524,-1.000898,0.980551,0.481005
1281,-0.090155,0.969613,0.2273909999999999,-0.988107,0.5787260000000001,0.362926
1282,-0.092398,0.96588,0.241915,-0.208871,-0.0596149999999999,0.185804
1283,-0.091306,0.966618,0.239366,0.169782,-0.495458,0.1211839999999999
1284,-0.084968,0.970006,0.227714,-0.004906,-1.061635,-0.138954
1285,-0.071177,0.974026,0.2149219999999999,0.070064,-1.325192,-0.391848
1286,-0.060235,0.974886,0.214369,0.210229,-1.610231,-0.236602
1287,-0.062628,0.974759,0.214258,0.596685,-1.592969,-0.276621
1288,-0.070576,0.977853,0.196996,0.612324,-1.067239,-0.276876
1289,-0.074891,0.976677,0.20119,-0.012893,0.018333,0.00134
1290,-0.084522,0.96697,0.240438,-0.478863,-0.184819,-0.131094
1291,-0.104093,0.957913,0.267492,-0.276003,-0.986188,-0.521231
1292,-0.130188,0.948717,0.288046,0.427231,-0.515795,-1.7885490000000002
1293,-0.13313,0.941416,0.30983,0.596372,1.2887620000000002,1.363189
1294,-0.127609,0.939871,0.316769,-1.055069,1.220774,0.126895
1295,-0.133495,0.951214,0.27813,-0.44733,0.064152,-0.617424
1296,-0.1067549999999999,0.96729,0.2300829999999999,0.040059,0.655162,0.12299
1297,-0.056174,0.984658,0.165158,0.015906,1.538306,0.636356
1298,-0.018866,0.99654,0.080854,-0.109857,1.1942549999999998,0.751376
1299,-0.00947,0.999857,-0.0135039999999999,-0.012976,0.632894,0.47496
1300,0.001281,0.995906,-0.090323,-0.4604029999999999,0.2269489999999999,0.137991
1301,0.022789,0.989151,-0.145087,-0.4885779999999999,-0.201752,0.09635
1302,0.044653,0.981631,-0.1854589999999999,-0.2136289999999999,-0.729648,0.416797
1303,0.060388,0.976012,-0.2091489999999999,-0.038034,-0.688384,0.529217
1304,0.069936,0.974197,-0.2145659999999999,-0.1844829999999999,-0.557968,0.280713
1305,0.068944,0.974753,-0.2123489999999999,-0.266789,-0.928885,0.040428
1306,0.0570279999999999,0.97683,-0.206252,-0.171759,-1.12098,-0.105744
1307,0.038873,0.980272,-0.193763,-0.04867,-1.024446,0.096137
1308,0.019733,0.985395,-0.169103,0.187726,-0.902891,0.138921
1309,0.001959,0.991156,-0.132644,0.148554,-0.830786,-0.251038
1310,-0.009987,0.996363,-0.08455,-0.089287,-0.379801,0.131776
1311,-0.019814,0.999253,-0.03296,-0.1174849999999999,1.119918,-0.037429
1312,-0.038018,0.998482,0.039677,0.3441099999999999,2.677162,0.151729
1313,-0.067162,0.9927,0.100102,0.847817,1.417212,0.361934
1314,-0.083104,0.985703,0.146517,-0.088222,0.661148,0.4857
1315,-0.08232,0.97993,0.181503,-1.021958,0.924245,0.360367
1316,-0.08108,0.973585,0.213403,-1.312673,0.670656,0.338782
1317,-0.075528,0.96939,0.233582,-0.7971520000000001,0.370683,0.257171
1318,-0.067992,0.968769,0.238425,-0.073304,0.062985,0.009363
1319,-0.056902,0.970727,0.233309,0.224657,-0.479577,0.010893
1320,-0.040724,0.974331,0.221367,0.12805,-0.985104,-0.2475349999999999
1321,-0.019103,0.976615,0.214107,0.049071,-1.178962,-0.314083
1322,-9.5e-05,0.976099,0.2172849999999999,-0.002927,-1.2969,-0.389374
1323,0.002999,0.974072,0.226178,0.257575,-1.368558,-0.414533
1324,-0.0057909999999999,0.973564,0.228303,0.60746,-0.464302,-0.140657
1325,-0.022035,0.971969,0.234036,0.193849,-0.2964469999999999,0.151248
1326,-0.039233,0.962282,0.269177,-0.008512,-0.373201,0.27924
1327,-0.066144,0.942883,0.326462,-0.2475619999999999,0.425418,-0.586716
1328,-0.0904929999999999,0.916746,0.38906,-0.65641,1.582201,-0.075431
1329,-0.096185,0.904258,0.415987,-0.813529,1.009698,-0.407045
1330,-0.084229,0.91066,0.404453,-0.1997519999999999,0.198013,-0.504475
1331,-0.053547,0.926082,0.373475,0.396549,0.676182,0.365661
1332,-0.022976,0.944913,0.3264829999999999,-0.1132089999999999,1.492404,0.4375239999999999
1333,-0.007908,0.96518,0.26143,-0.6226149999999999,1.003371,0.630309
1334,-0.009543,0.982801,0.184373,-0.627587,0.700091,0.430861
1335,-0.013258,0.993682,0.1113619999999999,-0.672854,0.456086,0.380398
1336,-0.007566,0.998601,0.0521649999999999,-0.486605,-0.104238,-0.151576
1337,0.006055,0.999918,0.010545,-0.05293,-0.602259,-0.133851
1338,0.018958,0.999505,-0.024804,0.209146,-0.8543930000000001,0.040184
1339,0.031842,0.998078,-0.053014,0.280368,-0.970307,0.26589
1340,0.043679,0.996697,-0.068357,-0.045739,-0.502846,-0.055269
1341,0.045842,0.996117,-0.0750649999999999,-0.155842,-0.5891649999999999,-0.084832
1342,0.036142,0.996786,-0.071386,0.155371,-0.988409,-0.16241
1343,0.030147,0.998129,-0.0530559999999999,0.173405,-0.967062,-0.261397
1344,0.031535,0.999178,-0.02514,0.10378,-0.846575,-0.289222
1345,0.036648,0.999241,0.01257,-0.282711,0.440181,-0.4617729999999999
1346,0.033469,0.99692,0.070801,-0.4794069999999999,2.340024,0.076141
1347,0.016837,0.992032,0.12479,0.506448,1.355548,0.053585
1348,-0.008338,0.986438,0.163868,0.110312,0.813107,-0.15192
1349,-0.016626,0.979862,0.198937,-0.964042,1.135434,-0.115212
1350,-0.01649,0.971034,0.238333,-0.877675,1.037008,0.094919
1351,-0.017979,0.962122,0.271992,-0.005474,0.789984,0.028713
1352,-0.024166,0.955014,0.295541,0.497158,0.3407159999999999,0.037605
1353,-0.029716,0.952358,0.3035,0.377724,-0.161205,-0.01166
1354,-0.034825,0.954468,0.29624,-0.101986,-0.6983189999999999,-0.116934
1355,-0.036617,0.959182,0.280375,-0.3093909999999999,-1.238586,-0.144725
1356,-0.033175,0.963847,0.264348,-0.249906,-1.165278,-0.317266
1357,-0.033168,0.965859,0.2569,-0.080282,-1.189736,-0.380054
1358,-0.0338689999999999,0.965567,0.257904,0.461603,-1.101782,-0.182068
1359,-0.0286699999999999,0.960122,0.278073,0.2381579999999999,-0.720849,-0.099911
1360,-0.031899,0.951187,0.306931,-0.033881,-0.541809,-0.089509
1361,-0.046257,0.941805,0.332932,0.17057,-0.53351,-0.034592
1362,-0.062948,0.925505,0.3734389999999999,-0.113352,-0.101485,-0.966579
1363,-0.085187,0.894747,0.438347,-0.002582,2.135144,1.16027
1364,-0.068738,0.86155,0.502975,-0.649875,1.862327,-1.669829
1365,-0.043074,0.8644,0.500935,-0.411501,0.202052,0.1161
1366,-0.0348949999999999,0.8721180000000001,0.4880279999999999,0.618391,-0.485811,-0.400244
1367,-0.01126,0.8846799999999999,0.466041,0.291487,1.339472,0.313134
1368,0.0008699999999999,0.902857,0.4299149999999999,-0.552521,1.753759,0.337023
1369,-0.00179,0.926661,0.375868,-0.638545,0.323538,0.062807
1370,-0.0051189999999999,0.948961,0.315322,-0.711037,0.358046,0.105591
1371,0.002778,0.965325,0.260999,-0.759065,0.432883,0.0901059999999999
1372,0.015627,0.977011,0.2125739999999999,-0.26375,0.106348,0.10139
1373,0.025349,0.984283,0.174719,0.033413,-0.300262,-0.206762
1374,0.037208,0.988241,0.14825,0.039224,-0.518912,-0.070431
1375,0.051384,0.990068,0.130801,0.0194319999999999,-0.916505,-0.144305
1376,0.067113,0.989687,0.126491,-0.0945179999999999,-0.777071,-0.366802
1377,0.076199,0.988707,0.1289799999999999,-0.094784,-0.7557659999999999,-0.4215359999999999
1378,0.07141,0.987898,0.137626,0.106477,-0.988386,-0.247001
1379,0.063578,0.985316,0.158409,0.0160879999999999,-1.133845,-0.257271
1380,0.058783,0.980524,0.187349,-0.181021,-0.952265,-0.683458
1381,0.055682,0.972353,0.226741,-0.282961,-0.168092,-0.4447279999999999
1382,0.05414,0.960631,0.272466,0.031156,1.24666,0.156871
1383,0.040884,0.944985,0.324519,0.233286,1.920479,-0.025279
1384,0.015302,0.93152,0.3633389999999999,0.302142,0.671858,-0.020078
1385,-0.002189,0.920879,0.389815,-0.419777,0.7418560000000001,0.0732429999999999
1386,-0.0067909999999999,0.9086,0.4175859999999999,-0.7717430000000001,1.230987,0.285935
1387,-0.018067,0.8950940000000001,0.445486,-0.379851,1.057725,0.312845
1388,-0.032498,0.8836209999999999,0.467051,-0.200961,0.691773,0.15035
1389,-0.0398339999999999,0.8765930000000001,0.479558,-0.247519,0.296488,0.006587
1390,-0.040957,0.875036,0.4822979999999999,-0.30554,-0.073263,-0.139631
1391,-0.031819,0.877345,0.47878,-0.2747,-0.196223,-0.044255
1392,-0.021309,0.88366,0.46762,-0.125923,-0.372033,0.065995
1393,-0.010431,0.890843,0.454167,-0.189184,-0.581975,-0.216389
1394,-0.006833,0.8918379999999999,0.452281,-0.1325859999999999,-0.813865,-0.5680649999999999
1395,-0.004409,0.8890790000000001,0.457709,-0.106813,-0.963328,-0.689643
1396,-0.007729,0.890568,0.454762,0.150856,-1.131306,-0.42748
1397,-0.0212669999999999,0.897876,0.439712,0.24963,-1.1929809999999998,0.050156
1398,-0.038798,0.900433,0.433237,0.121516,-1.160779,-0.2783
1399,-0.05261,0.897567,0.437706,0.412062,-0.487563,-0.6190869999999999
1400,-0.054586,0.882073,0.467918,-0.367091,-0.115579,-0.896019
1401,-0.0611919999999999,0.875761,0.478831,-0.645824,3.099382,-0.259577
1402,-0.023579,0.879359,0.475554,-0.7419399999999999,1.024144,-0.236892
1403,-0.014268,0.89125,0.453267,0.148224,-0.508727,-0.509007
1404,-0.000621,0.905897,0.423475,0.498531,0.313845,0.401278
1405,0.031904,0.923036,0.383364,-0.254789,1.04898,0.636961
1406,0.059127,0.943911,0.324836,-0.863708,1.177244,0.2808
1407,0.081593,0.964899,0.24959,-0.7881819999999999,0.98522,0.0968909999999999
1408,0.1028289999999999,0.980018,0.170221,-0.80812,0.437432,-0.048685
1409,0.122901,0.98742,0.0994179999999999,-0.7692319999999999,0.3441079999999999,-0.02465
1410,0.134089,0.98975,0.048995,-0.336817,0.244213,-0.102492
1411,0.137875,0.990351,0.013458,0.122624,-0.256511,0.050339
1412,0.142158,0.989826,-0.004752,0.096565,-0.651355,-0.037058
1413,0.146546,0.989175,-0.006651,-0.148102,-0.944115,0.010527
1414,0.141266,0.989961,0.002727,-0.18132,-0.976945,0.045475
1415,0.126076,0.991717,0.0242509999999999,-0.126244,-1.080249,-0.02068
1416,0.109575,0.992408,0.055719,-0.036348,-1.082573,0.072608
1417,0.095493,0.990536,0.0985159999999999,-0.239886,-0.4338189999999999,-0.408971
1418,0.086219,0.984547,0.152372,-0.325401,0.645153,-0.2069369999999999
1419,0.07554,0.97236,0.2208929999999999,-0.221673,1.362036,-0.059104
1420,0.055861,0.95405,0.294364,0.278093,1.451116,-0.027136
1421,0.040201,0.93376,0.355609,-0.002664,1.1554879999999998,0.021741
1422,0.030424,0.91081,0.4116829999999999,-0.227857,1.210528,0.199005
1423,0.015842,0.8877379999999999,0.460056,-0.727374,1.018619,0.336392
1424,0.006867,0.866139,0.4997359999999999,-0.723694,0.499614,0.42722
1425,0.0155979999999999,0.852351,0.522718,-0.580417,0.374822,0.3628099999999999
1426,0.026693,0.848827,0.527977,-0.01264,-0.1345329999999999,0.13308
1427,0.037156,0.8555200000000001,0.516416,-0.151612,-0.3468989999999999,-0.290983
1428,0.049794,0.869168,0.491985,-0.261769,-0.503384,-0.363414
1429,0.0589159999999999,0.8766,0.47758,0.119367,-1.473478,-0.594676
1430,0.071161,0.874173,0.480353,0.1771299999999999,-1.419415,-0.52909
1431,0.07075,0.8701030000000001,0.487747,0.1682789999999999,-1.256745,-0.519546
1432,0.048865,0.871343,0.4882149999999999,0.249796,-0.746801,-0.255427
1433,0.020454,0.871049,0.49075,-0.1553119999999999,-0.285829,0.034961
1434,-0.002237,0.861024,0.50854,-0.417547,-0.425477,-0.110133
1435,-0.02267,0.858806,0.51178,-0.008596,-0.333522,-1.22374
1436,-0.035046,0.851727,0.5227930000000001,-0.194599,0.257739,-0.488827
1437,-0.044043,0.856648,0.513999,0.175757,2.699673,0.221825
1438,-0.026548,0.864475,0.5019560000000001,-0.291552,0.0034909999999999,-0.321414
1439,-0.019408,0.8879819999999999,0.459449,1.4e-05,-0.485303,-0.2082889999999999
1440,-0.010211,0.914021,0.405518,0.067248,0.735775,0.312469
1441,0.022019,0.940791,0.3382469999999999,-0.7099770000000001,1.736989,0.405253
1442,0.04536,0.965554,0.256189,-0.999812,1.48365,0.353109
1443,0.047973,0.984275,0.16996,-0.973068,0.491067,0.229744
1444,0.0565429999999999,0.994061,0.092909,-0.719446,0.167453,-0.01605
1445,0.070504,0.997041,0.03043,-0.228066,0.041656,0.133053
1446,0.083927,0.996317,-0.017211,0.044689,-0.312586,0.166213
1447,0.0962539999999999,0.994251,-0.046776,-0.054796,-0.509724,0.067696
1448,0.102164,0.992971,-0.0596549999999999,-0.2911289999999999,-0.772421,-0.01406
1449,0.0972,0.993372,-0.0612659999999999,-0.136964,-0.930231,-0.0363589999999999
1450,0.081698,0.995098,-0.0556309999999999,-0.18735,-1.038829,-0.099215
1451,0.059274,0.997471,-0.039084,0.0427,-0.925159,0.075186
1452,0.0344709999999999,0.999368,-0.00794,0.266997,-0.8679899999999999,0.136465
1453,0.011397,0.999054,0.041811,0.086244,-0.688279,-0.402727
1454,-0.008564,0.993955,0.109397,0.0129129999999999,0.304232,-0.145194
1455,-0.032993,0.980236,0.19503,-0.344952,1.834858,-0.4287479999999999
1456,-0.048353,0.95689,0.286375,-0.054888,1.716649,-0.308164
1457,-0.058196,0.93322,0.354542,0.320723,1.400994,0.3331719999999999
1458,-0.0574909999999999,0.910697,0.409037,-0.0415079999999999,1.331445,0.457235
1459,-0.052994,0.887495,0.4577449999999999,-0.6241760000000001,1.033343,0.476001
1460,-0.053854,0.865533,0.497933,-0.766474,0.863822,0.29827
1461,-0.056434,0.854418,0.5164979999999999,-0.172707,0.299406,0.176617
1462,-0.058738,0.857504,0.5110979999999999,0.2459179999999999,-0.477118,-0.068303
1463,-0.056496,0.8699309999999999,0.48991,0.163704,-0.836042,-0.448773
1464,-0.054532,0.8802399999999999,0.4713699999999999,0.267117,-1.394369,-0.520625
1465,-0.048267,0.882735,0.467369,0.271259,-1.61122,-0.428825
1466,-0.0530799999999999,0.8826350000000001,0.4670359999999999,0.214946,-1.200735,-0.41775
1467,-0.079261,0.8871319999999999,0.4546409999999999,0.258445,-0.96454,-0.3690239999999999
1468,-0.105261,0.8870600000000001,0.449478,-0.272852,-0.225545,-0.167969
1469,-0.117658,0.8757659999999999,0.46816,-0.220752,-0.518039,-0.5946560000000001
1470,-0.1424619999999999,0.8630979999999999,0.48451,0.0687779999999999,-0.495697,-1.197981
1471,-0.168291,0.853549,0.493068,0.554339,0.125989,-0.058788
1472,-0.163876,0.8554780000000001,0.491209,-0.0300329999999999,0.913779,0.545656
1473,-0.162067,0.8626659999999999,0.479089,-0.2867699999999999,0.749028,-0.47825
1474,-0.1516549999999999,0.886733,0.43668,-0.330706,0.326233,0.073573
1475,-0.130276,0.915853,0.379774,-0.3583409999999999,0.975566,0.073931
1476,-0.097254,0.946555,0.307509,-0.692892,1.17225,0.260148
1477,-0.072613,0.97328,0.217809,-0.6771119999999999,1.189058,0.3325909999999999
1478,-0.056783,0.990595,0.124445,-0.3192239999999999,0.762045,0.241079
1479,-0.033156,0.99877,0.036716,-0.168627,0.482385,0.306119
1480,-0.010442,0.999369,-0.033815,-0.137492,-0.099283,0.188798
1481,0.0066099999999999,0.996457,-0.083784,-0.045993,-0.6485569999999999,0.141005
1482,0.015178,0.993278,-0.114718,0.0023239999999999,-0.633598,0.068652
1483,0.011908,0.992625,-0.120601,0.009423,-0.73344,0.060848
1484,-0.0069989999999999,0.99323,-0.115917,-0.1228079999999999,-0.865208,-0.101673
1485,-0.03634,0.994584,-0.09733,-0.035575,-0.8898020000000001,-0.160101
1486,-0.067247,0.995791,-0.062198,0.362321,-0.8518399999999999,-0.061474
1487,-0.097067,0.995253,-0.00633,0.404501,-0.31909,-0.050921
1488,-0.125126,0.989676,0.069819,0.402485,0.131052,-0.004298
1489,-0.145841,0.976112,0.1610059999999999,0.1142859999999999,1.40966,-0.497935
1490,-0.15358,0.956891,0.246494,0.428208,1.530764,-0.040958
1491,-0.165155,0.935148,0.313384,0.4163449999999999,1.637362,0.063462
1492,-0.161681,0.912912,0.374751,-0.717866,1.498023,0.263662
1493,-0.150245,0.8890979999999999,0.432339,-0.8797379999999999,0.572878,0.3385039999999999
1494,-0.1446039999999999,0.870692,0.470075,-0.88538,0.591283,0.300769
1495,-0.139683,0.8637670000000001,0.484127,0.1330299999999999,-0.041242,0.220463
1496,-0.136311,0.8693799999999999,0.474954,0.417546,-0.698314,-0.118967
1497,-0.128497,0.882049,0.45328,0.236056,-0.657592,-0.46303
1498,-0.127775,0.8898209999999999,0.438038,0.330305,-1.917165,-0.649219
1499,-0.126445,0.88902,0.4400449999999999,0.6729390000000001,-1.984982,-0.548139
1500,-0.137892,0.885191,0.444306,0.521284,-1.685209,-0.600312
1501,-0.164293,0.8864700000000001,0.432623,0.303712,-0.746929,-0.082373
1502,-0.199827,0.884424,0.421721,-0.263292,0.240973,-0.207548
1503,-0.228954,0.870758,0.435137,-0.4659609999999999,0.3905639999999999,-0.396303
1504,-0.252032,0.85435,0.454478,0.449603,-0.278986,-1.159099
1505,-0.2610389999999999,0.8453700000000001,0.466039,0.565497,-0.274371,0.1615859999999999
1506,-0.265162,0.8443729999999999,0.4655189999999999,0.4213659999999999,0.393344,-0.072224
1507,-0.263098,0.8601059999999999,0.4370159999999999,-0.204539,1.055193,-0.588673
1508,-0.223382,0.892381,0.392099,-0.521521,0.7528819999999999,-0.176675
1509,-0.1869309999999999,0.926387,0.326879,-0.290837,1.057759,0.14535
1510,-0.158239,0.956462,0.2452099999999999,-0.520197,1.353994,0.851226
1511,-0.145357,0.977499,0.152816,-0.551329,1.006982,0.538926
1512,-0.130472,0.989257,0.065842,-0.45458,0.982667,0.418548
1513,-0.104266,0.99451,-0.008228,-0.371778,-0.213504,0.172458
1514,-0.083277,0.994442,-0.064346,0.072505,-0.789013,0.133026
1515,-0.072476,0.991522,-0.1078,0.181317,-0.825766,0.256604
1516,-0.069828,0.988609,-0.13329,0.201222,-0.3553389999999999,0.093937
1517,-0.078032,0.987041,-0.1401859999999999,-0.007478,-0.64799,-0.022778
1518,-0.100774,0.98554,-0.136185,-0.0451149999999999,-0.7869619999999999,-0.133392
1519,-0.127415,0.985255,-0.114141,0.273457,-0.996729,0.057119
1520,-0.152136,0.985479,-0.07533,0.469702,-0.89681,0.227262
1521,-0.1730809999999999,0.984707,-0.019581,0.5961770000000001,-0.717435,0.258732
1522,-0.183607,0.98129,0.057852,0.370405,0.376376,-0.274511
1523,-0.189651,0.971432,0.142615,-0.108261,1.869373,-0.454047
1524,-0.190115,0.949529,0.249476,-0.229014,1.95959,-0.7223149999999999
1525,-0.181101,0.92029,0.346776,0.622843,1.571577,0.634883
1526,-0.182423,0.894076,0.409064,6.500000000000001e-05,1.4163940000000002,0.416833
1527,-0.1725269999999999,0.873152,0.455877,-0.444676,1.15999,0.45402
1528,-0.168706,0.853549,0.492926,-0.890041,0.255918,0.324228
1529,-0.170548,0.843717,0.508957,-0.086806,0.081179,0.217163
1530,-0.173191,0.850348,0.496885,0.398105,-0.130988,0.141177
1531,-0.17323,0.867935,0.4654689999999999,0.362638,-0.970429,-0.465103
1532,-0.1741069999999999,0.8822989999999999,0.437283,0.275456,-1.994925,-0.5802579999999999
1533,-0.175259,0.8868299999999999,0.427552,0.271984,-2.2068830000000004,-0.515473
1534,-0.18755,0.885065,0.42599,0.228809,-0.734247,-0.232936
1535,-0.2081829999999999,0.884131,0.418277,0.094276,-0.2793489999999999,0.008023
1536,-0.2334889999999999,0.88164,0.410095,-0.055665,0.178053,-0.001755
1537,-0.256155,0.868663,0.42402,0.365515,-0.274379,-1.338525
1538,-0.269642,0.8574200000000001,0.438302,0.7607149999999999,-0.130476,-1.504236
1539,-0.262808,0.853291,0.450345,1.218649,0.264065,-0.133359
1540,-0.247403,0.8604129999999999,0.445496,0.079572,0.708847,0.5359649999999999
1541,-0.2777719999999999,0.8731270000000001,0.400595,-0.429152,0.744304,-0.475988
1542,-0.253794,0.898359,0.358504,-0.789342,0.372423,-0.425902
1543,-0.207787,0.930113,0.302822,-0.310768,0.287783,0.211079
1544,-0.158239,0.961678,0.223883,-0.535212,1.358833,0.481852
1545,-0.12905,0.982787,0.132152,-0.627206,1.73108,0.75913
1546,-0.1146599999999999,0.992463,0.043123,-0.02096,0.303832,0.362898
1547,-0.087024,0.995765,-0.029463,-0.222531,0.075188,0.395323
1548,-0.05517,0.995096,-0.082041,-0.292898,-0.183252,0.393854
1549,-0.0307829999999999,0.992426,-0.1188859999999999,0.169623,-0.524515,0.0546309999999999
1550,-0.021246,0.990819,-0.1334779999999999,0.063711,-0.361745,0.248957
1551,-0.03011,0.990998,-0.130413,-0.12376,-0.824433,-0.156681
1552,-0.0561409999999999,0.990816,-0.122971,-0.266751,-1.06566,-0.239227
1553,-0.088736,0.990692,-0.103172,0.167746,-0.972824,-0.069283
1554,-0.118272,0.99087,-0.0646419999999999,0.517412,-0.770792,0.148367
1555,-0.142917,0.989699,-0.007709,0.580249,-0.606292,-0.0612299999999999
1556,-0.155297,0.985551,0.067527,0.261177,0.918074,-0.094916
1557,-0.167318,0.974074,0.152226,0.273198,0.929552,-0.179616
1558,-0.171315,0.95214,0.253115,0.171483,1.215707,-0.219973
1559,-0.16884,0.924054,0.342933,0.404619,1.212344,0.283425
1560,-0.177195,0.9006120000000001,0.396843,0.308146,1.593773,0.5249560000000001
1561,-0.177318,0.8784959999999999,0.443606,-0.919087,0.8468459999999999,0.408231
1562,-0.1779059999999999,0.8566290000000001,0.484272,-0.974743,0.184188,0.3110159999999999
1563,-0.176458,0.8447690000000001,0.505184,-0.572016,0.118,0.0873299999999999
1564,-0.16889,0.844968,0.507433,0.120718,-1.001889,-0.234972
1565,-0.154775,0.8586600000000001,0.4886,0.122945,-1.268603,-0.844389
1566,-0.136768,0.870115,0.473473,0.279102,-1.695005,-0.766991
1567,-0.129638,0.8744059999999999,0.467537,0.618011,-1.6389470000000002,-0.634575
1568,-0.156138,0.876059,0.456205,0.4572699999999999,-0.915884,-0.303556
1569,-0.185264,0.877426,0.442472,0.239586,-0.424088,0.06026
1570,-0.216354,0.8704629999999999,0.442115,-0.48317,0.363713,-0.479805
1571,-0.241837,0.8549680000000001,0.458831,0.100877,-0.558124,-1.046066
1572,-0.2639579999999999,0.84573,0.463731,0.5621149999999999,-0.413678,-1.887468
1573,-0.265705,0.8379979999999999,0.476591,1.054935,0.333327,0.368211
1574,-0.2722199999999999,0.838305,0.4723569999999999,0.300648,1.01489,0.280573
1575,-0.300166,0.851667,0.429585,0.116007,0.800646,-0.976537
1576,-0.272601,0.88387,0.380057,-0.638882,0.2471269999999999,0.251183
1577,-0.224802,0.920095,0.320736,-0.552832,1.417766,0.2239719999999999
1578,-0.1706359999999999,0.954221,0.2456179999999999,-0.82265,2.117922,0.668903
1579,-0.150562,0.975812,0.158446,-0.496243,0.982608,0.4979409999999999
1580,-0.141849,0.986797,0.078069,-0.150449,-0.008541,0.1055099999999999
1581,-0.1090589999999999,0.993967,0.011047,-0.183239,-0.01571,0.172531
1582,-0.076769,0.996029,-0.044945,-0.2348,-0.916042,0.049935
1583,-0.060335,0.994285,-0.088004,0.207002,-0.6745979999999999,-0.080895
1584,-0.0602889999999999,0.991724,-0.113298,0.206956,-0.672037,-0.055601
1585,-0.076152,0.989669,-0.121428,0.243175,-0.652572,0.020919
1586,-0.0998039999999999,0.988317,-0.115139,0.30119,-0.853643,0.040783
1587,-0.121464,0.988281,-0.092388,0.322849,-0.853607,0.018032
1588,-0.138289,0.988835,-0.0554,0.546187,-0.586079,0.205623
1589,-0.151353,0.988473,-0.000895,0.34868,-0.525109,-0.368856
1590,-0.154498,0.985143,0.0749,0.058658,-0.184148,-0.925654
1591,-0.161254,0.973073,0.164657,-0.4275069999999999,1.922512,-0.584472
1592,-0.1557599999999999,0.949608,0.271967,-0.36638,2.167976,-0.904276
1593,-0.149362,0.922184,0.356721,0.723291,1.818416,0.188094
1594,-0.150426,0.901107,0.406645,0.256337,1.208497,0.494432
1595,-0.146805,0.881568,0.448627,-0.782028,0.807595,0.349164
1596,-0.149284,0.8654700000000001,0.478179,-1.197411,0.369027,0.308869
1597,-0.152259,0.8617540000000001,0.483918,-0.18522,-0.005186,0.082946
1598,-0.146802,0.8707,0.469372,0.254743,-0.542804,-0.325619
1599,-0.13577,0.884217,0.446885,0.165235,-0.8242200000000001,-0.4342359999999999
1600,-0.129637,0.890624,0.435849,0.249007,-2.004699,-0.5515720000000001
1601,-0.129219,0.888825,0.439629,0.351509,-1.445618,-0.635567
1602,-0.148806,0.886392,0.438346,0.436633,-1.157952,-0.573096
1603,-0.172124,0.89012,0.4219479999999999,0.056188,0.283067,0.004856
1604,-0.199262,0.8871399999999999,0.416243,-0.438997,0.381339,-0.298308
1605,-0.214507,0.8694129999999999,0.445071,-0.1408849999999999,-0.7929970000000001,-0.730151
1606,-0.226408,0.8553629999999999,0.46591,0.69972,-0.536165,-1.808592
1607,-0.233634,0.843281,0.484016,0.948478,0.1716109999999999,0.439125
1608,-0.218317,0.845992,0.48643,0.91099,0.365769,0.755162
1609,-0.229906,0.8463709999999999,0.4803949999999999,-0.3486309999999999,0.696186,-1.041872
1610,-0.242294,0.868315,0.432785,-0.6048439999999999,0.335435,-0.471252
1611,-0.200459,0.900618,0.385596,-0.356914,0.29146,0.1873109999999999
1612,-0.149195,0.933866,0.3249869999999999,-0.873876,1.202166,0.7240850000000001
1613,-0.1151359999999999,0.963322,0.242357,-0.754463,1.338619,0.5220319999999999
1614,-0.099117,0.983527,0.151113,-0.528629,1.104593,0.344829
1615,-0.07279,0.995512,0.060354,-0.406244,0.052508,-0.046347
1616,-0.047607,0.998682,-0.018784,-0.2205659999999999,-0.364054,0.194901
1617,-0.036793,0.995705,-0.08488,0.086842,-0.559212,0.201152
1618,-0.033617,0.99081,-0.130963,0.454835,0.062137,0.002942
1619,-0.03568,0.988568,-0.146451,0.17127,-0.380276,0.188046
1620,-0.045765,0.988212,-0.146044,-0.040951,-0.719276,0.079714
1621,-0.0636299999999999,0.989091,-0.132801,-0.02304,-1.0758530000000002,-0.218334
1622,-0.086391,0.990788,-0.104224,0.348354,-0.9001049999999999,0.0563419999999999
1623,-0.110624,0.992233,-0.056746,0.4654979999999999,-0.773529,0.112501
1624,-0.128563,0.991608,0.0130169999999999,0.1220319999999999,-0.244797,-0.5563359999999999
1625,-0.137646,0.985718,0.096929,0.1539579999999999,1.104675,-0.20989
1626,-0.145451,0.96947,0.197363,0.0216419999999999,1.5691190000000002,-0.4170279999999999
1627,-0.1361089999999999,0.945397,0.296103,0.159211,1.146796,-0.044668
1628,-0.128752,0.919326,0.3718059999999999,0.519591,1.3825379999999998,0.363225
1629,-0.11849,0.895859,0.428221,-0.0661409999999999,1.621735,0.324114
1630,-0.115586,0.8732620000000001,0.4733159999999999,-0.968795,0.808699,0.48315
1631,-0.124267,0.8562719999999999,0.501328,-0.551606,0.2582,0.30696
1632,-0.13139,0.852966,0.5051329999999999,-0.171817,0.044922,0.134943
1633,-0.131518,0.863375,0.487095,0.133135,-0.621889,-0.44138
1634,-0.129269,0.878494,0.459905,0.083569,-1.139816,-0.6328020000000001
1635,-0.128729,0.886698,0.444039,0.139593,-1.721948,-0.6099319999999999
1636,-0.125472,0.886034,0.4462899999999999,0.37303,-1.6712360000000002,-0.474671
1637,-0.1370019999999999,0.88302,0.4488649999999999,0.386407,-1.149988,-0.514997
1638,-0.156991,0.884483,0.439338,0.252496,-0.725105,-0.332557
1639,-0.182201,0.880877,0.4368439999999999,-0.435826,0.440457,-0.319702
1640,-0.198478,0.8664059999999999,0.458172,-0.456658,-0.3261989999999999,-0.4141649999999999
1641,-0.2194179999999999,0.858643,0.46321,0.017818,-0.8557290000000001,-0.92047
1642,-0.224179,0.849029,0.478401,1.371945,0.101365,0.123207
1643,-0.197224,0.853499,0.482302,1.24622,1.273286,1.779783
1644,-0.222726,0.8595280000000001,0.4599789999999999,0.399499,1.6392520000000002,0.5089239999999999
1645,-0.216386,0.889101,0.403303,-0.5356890000000001,0.211867,0.225268
1646,-0.1645,0.923011,0.347804,-0.732625,1.480706,0.316396
1647,-0.106155,0.954215,0.279615,-0.956773,1.738962,0.364779
1648,-0.071171,0.978682,0.192603,-0.856029,1.52614,0.8861020000000001
1649,-0.054469,0.992939,0.105292,-0.143193,0.302028,0.585016
1650,-0.0243229999999999,0.999262,0.029424,-0.5194850000000001,0.134405,0.202875
1651,0.002327,0.999602,-0.027832,-0.154014,-1.017119,0.002136
1652,0.017072,0.997114,-0.073863,0.158145,-0.791991,0.035929
1653,0.018838,0.994368,-0.104225,0.192771,-0.358992,0.082862
1654,0.006753,0.993633,-0.112398,0.1116549999999999,-0.70811,-0.054289
1655,-0.010657,0.993966,-0.1091039999999999,0.086005,-1.046532,-0.238156
1656,-0.0266709999999999,0.995489,-0.090968,0.145598,-1.083517,-0.2225239999999999
1657,-0.042631,0.997347,-0.058874,0.267714,-0.8326889999999999,0.022253
1658,-0.0615,0.998052,-0.009642,0.095283,-0.440679,-0.401582
1659,-0.0807,0.99503,0.058175,0.064617,0.015086,-0.319375
1660,-0.106227,0.98328,0.147839,-0.018208,1.4823110000000002,-0.548734
1661,-0.120861,0.962032,0.244677,0.385677,1.3311959999999998,-0.24959
1662,-0.1247,0.937844,0.323847,0.752127,1.6123120000000002,0.084921
1663,-0.131094,0.914177,0.383498,-0.540719,1.706016,0.311875
1664,-0.128799,0.8880899999999999,0.441229,-1.138565,1.094012,0.553064
1665,-0.132406,0.864768,0.484376,-1.1505379999999998,0.643701,0.368789
1666,-0.132395,0.85516,0.501147,0.156793,-0.064236,-0.0639059999999999
1667,-0.134919,0.861376,0.4896979999999999,0.255265,-0.4953329999999999,-0.3784
1668,-0.1367799999999999,0.875675,0.4630979999999999,0.277314,-0.526997,-0.543725
1669,-0.134207,0.883107,0.4495399999999999,0.4000599999999999,-2.156713,-0.3446059999999999
1670,-0.132692,0.88425,0.447738,0.447511,-1.838505,-0.502609
1671,-0.153035,0.883392,0.4429149999999999,0.5377390000000001,-1.6490330000000002,-0.538877
1672,-0.177391,0.886065,0.4282479999999999,0.159569,-0.491717,-0.199229
1673,-0.200875,0.885199,0.419579,-0.422095,0.297616,-0.5136189999999999
1674,-0.2184019999999999,0.874956,0.432119,-0.404569,0.307859,-0.526159
1675,-0.234801,0.86777,0.437971,0.740691,-0.096454,-1.734617
1676,-0.256251,0.85557,0.449788,0.914943,0.2578789999999999,0.469889
1677,-0.245527,0.858764,0.449684,0.904218,0.254685,0.4699939999999999
1678,-0.259463,0.860497,0.438406,-0.271176,0.60128,-0.976507
1679,-0.254754,0.8852909999999999,0.389021,-0.8583139999999999,0.383569,-0.253218
1680,-0.206972,0.92039,0.3316969999999999,-0.515486,0.741842,0.350035
1681,-0.145866,0.954667,0.259447,-0.696343,1.723723,0.282454
1682,-0.1060609999999999,0.979589,0.170698,-0.933337,1.6952009999999995,0.716799
1683,-0.097947,0.991952,0.080131,-0.239776,0.98545,0.3342219999999999
1684,-0.077394,0.996991,-0.001869,0.062563,0.09029,0.205726
1685,-0.0462529999999999,0.996958,-0.062614,-0.374829,-0.461435,0.080863
1686,-0.025498,0.99388,-0.1074089999999999,-0.165725,-0.820418,-0.0579649999999999
1687,-0.017603,0.991088,-0.131984,0.257135,-0.43695,-0.063298
1688,-0.023547,0.990074,-0.138507,0.2569909999999999,-0.698326,0.068103
1689,-0.043203,0.989956,-0.1345579999999999,0.175756,-0.857083,0.013541
1690,-0.068337,0.990978,-0.1152319999999999,0.183129,-0.91212,0.024549
1691,-0.0912549999999999,0.992759,-0.078019,0.351829,-0.711295,0.236222
1692,-0.1106619999999999,0.993599,-0.022344,0.28594,-0.6657029999999999,-0.0344649999999999
1693,-0.121247,0.991181,0.053308,0.00116,0.627563,-0.074457
1694,-0.132744,0.981147,0.140397,-0.365089,1.484582,-0.48021
1695,-0.135209,0.960376,0.243676,-0.287993,1.608823,-0.633049
1696,-0.130326,0.932485,0.336847,0.522416,1.7612709999999998,0.266592
1697,-0.128999,0.907553,0.399605,0.356583,1.638101,0.26757
1698,-0.122451,0.882591,0.4538899999999999,-0.371186,1.196694,0.374952
1699,-0.127832,0.860224,0.493608,-0.7340300000000001,0.097341,0.382918
1700,-0.1307,0.851044,0.508545,-0.124991,-0.073471,0.110001
1701,-0.126619,0.858036,0.497713,0.0700549999999999,-0.319187,-0.0847639999999999
1702,-0.116408,0.871965,0.4755029999999999,0.022795,-1.252367,-0.723489
1703,-0.105804,0.8790600000000001,0.4647979999999999,0.316497,-2.065812,-0.481278
1704,-0.104532,0.877892,0.467285,0.441309,-1.978402,-0.436829
1705,-0.1322279999999999,0.874762,0.4661369999999999,0.508998,-0.946509,-0.493756
1706,-0.171062,0.87597,0.4509899999999999,0.095943,0.015937,-0.050707
1707,-0.209108,0.870916,0.444697,-0.236052,0.2387639999999999,-0.170512
1708,-0.231878,0.855246,0.463426,-0.030131,-0.424902,-1.240144
1709,-0.249848,0.840981,0.4798979999999999,0.6380170000000001,-0.203011,-0.302865
1710,-0.243832,0.8332579999999999,0.496188,0.82893,-0.095328,0.123548
1711,-0.239806,0.83596,0.493598,0.140762,1.044045,-0.1660839999999999
1712,-0.251458,0.8549389999999999,0.453679,-0.4907149999999999,0.531032,-0.371754
1713,-0.221002,0.888115,0.402972,-0.526068,0.258171,-0.066715
1714,-0.179969,0.924433,0.3361719999999999,-0.427987,1.068273,-0.044211
1715,-0.130538,0.959866,0.248186,-0.835038,1.935459,0.660749
1716,-0.1025809999999999,0.983226,0.150747,-0.769077,1.831746,0.642664
1717,-0.084927,0.994497,0.0612,-0.031924,0.046671,0.4062989999999999
1718,-0.052336,0.998554,-0.011618,-0.418993,0.020733,0.254355
1719,-0.0235189999999999,0.997525,-0.066139,-0.194621,-0.738096,0.048973
1720,-0.006968,0.994596,-0.103517,-0.0072069999999999,-0.846723,0.020967
1721,-0.0057399999999999,0.992368,-0.123119,0.152087,-0.622571,0.153683
1722,-0.015884,0.992133,-0.124114,0.162231,-0.622337,0.154677
1723,-0.035805,0.992414,-0.117545,-0.0079569999999999,-0.8820629999999999,-0.174432
1724,-0.059717,0.993432,-0.097524,0.293909,-0.85093,0.1325579999999999
1725,-0.082575,0.994623,-0.062367,0.316767,-0.8521219999999999,0.097401
1726,-0.103033,0.994612,-0.010729,0.255254,-0.699629,-0.370207
1727,-0.115617,0.991671,0.0566049999999999,0.051377,0.986143,-0.385783
1728,-0.13465,0.981418,0.136633,0.07041,0.996396,-0.46581
1729,-0.1499309999999999,0.960723,0.233474,0.254363,1.642548,-0.422881
1730,-0.152025,0.937697,0.312397,1.022615,1.3609790000000002,0.377148
1731,-0.1542599999999999,0.919205,0.362276,0.0206389999999999,1.624756,0.520964
1732,-0.1482359999999999,0.900871,0.407962,-0.8948860000000001,1.347145,0.256467
1733,-0.14502,0.8828239999999999,0.446729,-0.938079,0.275593,0.280062
1734,-0.141657,0.874452,0.463942,-0.309256,0.125029,0.152757
1735,-0.135033,0.8771059999999999,0.460897,0.450692,-0.355668,-0.172994
1736,-0.12108,0.887446,0.444697,0.110826,-1.017375,-0.699137
1737,-0.109175,0.89712,0.4280569999999999,0.133268,-1.471034,-0.696291
1738,-0.1034809999999999,0.897292,0.42911,0.4999649999999999,-1.822127,-0.523546
1739,-0.119719,0.893317,0.43316,0.559508,-1.455069,-0.4555909999999999
1740,-0.15314,0.8991309999999999,0.409984,0.522113,-1.017006,-0.153606
1741,-0.18344,0.901997,0.390805,-0.664887,0.546139,-0.107114
1742,-0.203302,0.888783,0.4107439999999999,-0.684562,-0.134129,-0.513771
1743,-0.21802,0.872814,0.436623,-0.038313,-0.710979,-1.1072620000000002
1744,-0.234076,0.8625659999999999,0.448514,1.118704,-0.009126,0.474384
1745,-0.215018,0.8670209999999999,0.449462,1.091773,0.34764,1.285218
1746,-0.207287,0.8642540000000001,0.458335,0.216381,0.715122,0.769356
1747,-0.234101,0.883192,0.406379,-0.776382,0.595019,-0.373054
1748,-0.188923,0.916769,0.351878,-0.540325,1.641336,0.191167
1749,-0.135551,0.9492,0.283939,-0.805657,1.520816,-0.302235
1750,-0.106447,0.975901,0.190433,-0.667586,1.161108,0.579358
1751,-0.099771,0.990329,0.096303,0.188272,0.5537380000000001,0.149989
1752,-0.0764789999999999,0.997013,0.009936,0.2841349999999999,0.186169,0.386136
1753,-0.046183,0.997048,-0.061208,-0.223653,-0.121788,0.133275
1754,-0.018787,0.993957,-0.10808,0.099781,-0.862975,-0.01254
1755,-0.0003129999999999,0.990394,-0.138219,0.12043,-0.8222879999999999,0.042988
1756,0.0047409999999999,0.989523,-0.14425,-0.032878,-0.733007,0.064355
1757,-0.007718,0.990044,-0.140494,-0.150103,-0.980126,-0.13099
1758,-0.0335,0.991222,-0.1278359999999999,-0.021081,-0.999309,-0.147296
1759,-0.0593929999999999,0.99317,-0.100356,0.347723,-0.8449760000000001,0.2057949999999999
1760,-0.085365,0.994661,-0.057855,0.381278,-0.78264,0.022027
1761,-0.104173,0.994541,0.004417,0.190492,-0.688129,-0.5064770000000001
1762,-0.1163849999999999,0.990109,0.078237,0.05326,0.997684,-0.1987809999999999
1763,-0.125319,0.976132,0.177321,-0.120988,1.4739870000000002,-0.405791
1764,-0.1186079999999999,0.953637,0.276562,-0.174254,1.345084,-0.4470479999999999
1765,-0.120602,0.928309,0.351673,0.508588,2.0296830000000003,0.574886
1766,-0.132579,0.903976,0.406481,-0.403371,1.802368,0.196073
1767,-0.146367,0.8815959999999999,0.448712,-0.72314,1.074902,0.445621
