,gravity.x,gravity.y,gravity.z,userAcceleration.x,userAcceleration.y,userAcceleration.z
0,0.027964,0.941814,0.334969,0.204199,0.172657,-0.801048
1,0.022178,0.941083,0.337448,0.089974,-0.3739139999999999,-0.506332
2,0.012594,0.944152,0.329269,0.260127,-0.3643639999999999,-0.781249
3,0.010366,0.947364,0.3199889999999999,0.584253,-0.922813,-0.285169
4,0.020364,0.953159,0.3017829999999999,0.626501,-1.045978,-0.063884
5,0.038938,0.964072,0.262773,0.5800350000000001,-1.048346,-0.200593
6,0.0557789999999999,0.976867,0.206445,0.023216,-0.8509209999999999,-0.867426
7,0.076342,0.989147,0.125539,-0.063067,-0.1960869999999999,-0.033894
8,0.09595,0.99468,0.037479,0.011884,0.306009,0.265301
9,0.1121559999999999,0.99235,-0.051596,-0.363179,0.773397,0.642828
10,0.141301,0.976147,-0.1648369999999999,0.237452,1.836674,-0.820484
11,0.199348,0.952228,-0.2313469999999999,0.643898,2.464398,-0.7223729999999999
12,0.279715,0.918937,-0.278054,0.4906399999999999,2.209664,-0.231604
13,0.318634,0.8816950000000001,-0.347974,-0.6370239999999999,1.907886,-0.04729
14,0.311168,0.846347,-0.432285,-0.5575979999999999,1.002133,0.196552
15,0.291281,0.815243,-0.5005350000000001,-0.081763,0.0903669999999999,-0.059539
16,0.254831,0.8087979999999999,-0.530007,0.058691,-0.264059,-0.025794
17,0.2136719999999999,0.8216959999999999,-0.528356,0.020108,-0.7255510000000001,0.161931
18,0.19545,0.836809,-0.511419,-0.894486,-1.217699,1.036749
19,0.200118,0.8531219999999999,-0.481804,-0.689956,-1.7566099999999998,1.359383
20,0.229321,0.874935,-0.4264979999999999,-0.676647,-1.705532,1.181518
21,0.2606699999999999,0.898617,-0.352901,-0.658741,-1.32748,0.881374
22,0.2782219999999999,0.916124,-0.288634,-0.3272489999999999,-0.657564,0.3618449999999999
23,0.283113,0.92796,-0.242357,-0.167527,-0.510037,-0.011259
24,0.290437,0.932856,-0.213135,0.405883,-0.32165,0.103196
25,0.329994,0.92534,-0.186683,0.6104970000000001,-0.388444,-0.019769
26,0.375735,0.917943,-0.127293,0.220518,-0.343725,0.459264
27,0.358962,0.929068,-0.089325,0.372041,3.3975160000000004,1.163864
28,0.25582,0.961744,-0.097997,-0.7149260000000001,2.031206,-0.742975
29,0.197537,0.978814,-0.053877,-2.212781,-0.028466,-0.3900929999999999
30,0.213907,0.976677,-0.018595,-0.269083,-0.530724,1.466852
31,0.221029,0.969414,0.106688,-0.13796,-0.666008,0.5072800000000001
32,0.168698,0.951566,0.257026,0.009509,-0.2459849999999999,0.814523
33,0.068409,0.933154,0.352907,-0.349781,0.5503359999999999,0.711485
34,0.0213669999999999,0.931231,0.363803,0.636317,1.753507,0.536007
35,0.035653,0.950957,0.307262,1.560614,1.395097,0.24979
36,0.016468,0.944175,0.329031,0.885921,0.001274,-1.529791
37,0.001099,0.935429,0.353513,0.118362,-0.119496,-0.7909970000000001
38,-0.003975,0.933307,0.359057,0.03202,-0.152042,-0.826266
39,-0.009522,0.937207,0.348644,0.367127,-0.54356,-0.929333
40,-0.005368,0.944033,0.329808,0.47836,-0.873049,-0.16457
41,0.016715,0.948671,0.315824,0.486459,-0.953858,0.053133
42,0.038527,0.957594,0.285533,0.254488,-0.971037,-0.166438
43,0.0561129999999999,0.97031,0.235265,-0.061637,-0.731174,-1.147741
44,0.080169,0.981979,0.171147,-0.1801589999999999,-0.464492,-0.588627
45,0.111529,0.988736,0.09981,-0.188464,0.708438,0.445417
46,0.131178,0.99099,0.02703,-0.462675,0.72805,0.5129779999999999
47,0.154995,0.986462,-0.05357,-0.497983,0.958195,0.3091239999999999
48,0.194067,0.973121,-0.123993,0.258585,2.29551,-0.677429
49,0.258712,0.946014,-0.195258,0.443528,1.876084,-0.447046
50,0.317553,0.907594,-0.274652,0.136762,1.846114,-0.080848
51,0.337169,0.87021,-0.359239,-0.793513,0.919921,0.161958
52,0.324637,0.8342290000000001,-0.445727,-0.4159,-0.070954,-0.014402
53,0.288292,0.808718,-0.5127010000000001,-0.196434,-0.3206199999999999,0.035712
54,0.238073,0.808426,-0.538301,0.069636,-1.198914,0.1688859999999999
55,0.2039349999999999,0.8300799999999999,-0.5190170000000001,-0.150178,-1.426668,0.382344
56,0.197052,0.861975,-0.4670859999999999,-0.471603,-1.299933,0.459227
57,0.204473,0.8913700000000001,-0.404538,-0.608312,-1.295941,0.526807
58,0.221987,0.91292,-0.34249,-0.535906,-1.2267629999999998,0.7396149999999999
59,0.246062,0.928257,-0.278913,-0.526045,-0.696354,0.597333
60,0.2525699999999999,0.940606,-0.226868,-0.422568,-0.32676,0.4302069999999999
61,0.253766,0.947971,-0.192233,-0.215161,-0.101658,0.279437
62,0.274884,0.944465,-0.180069,0.255969,-0.1163859999999999,0.165176
63,0.318917,0.937193,-0.141285,0.281929,-0.294111,0.365573
64,0.336433,0.938534,-0.0772409999999999,-0.722755,2.481128,-2.158736
65,0.26984,0.955636,-0.118096,-0.656163,2.464027,-2.117881
66,0.223826,0.974366,-0.022652,-1.187663,0.5507810000000001,1.597847
67,0.21374,0.976526,0.026698,-0.093409,-0.261758,0.838765
68,0.208314,0.972151,0.107368,-0.142792,-0.583281,0.567345
69,0.152903,0.963349,0.220408,-0.0413,0.073837,0.375646
70,0.059672,0.938553,0.339939,-0.469416,0.503296,0.926739
71,0.0062159999999999,0.918445,0.3955,-0.312765,0.8283200000000001,0.593651
72,0.022322,0.926416,0.37584,0.853273,1.083381,0.512191
73,0.019862,0.931561,0.363042,1.555807,1.7740509999999998,-2.355611
74,-0.001756,0.921449,0.388495,0.460313,0.285597,-1.041662
75,-0.006731,0.920591,0.390469,0.380862,0.165422,-0.695386
76,-0.023036,0.920922,0.389065,0.360759,-0.249307,-0.87495
77,-0.0401329999999999,0.926233,0.37481,0.438083,-0.372979,-0.762505
78,-0.039761,0.931946,0.36041,0.506191,-0.8987430000000001,-0.254804
79,-0.019431,0.940499,0.3392409999999999,0.891287,-0.978325,-0.182609
80,-0.003281,0.955827,0.293912,0.580109,-0.8296819999999999,-0.568418
81,0.019117,0.970392,0.240777,0.156558,-0.688227,-0.8393790000000001
82,0.048125,0.985178,0.164646,-0.152678,0.598288,0.171825
83,0.068775,0.994126,0.083566,-0.287418,0.717483,0.393988
84,0.087083,0.996188,-0.00516,-0.3426369999999999,1.3215,-0.3720219999999999
85,0.115718,0.98969,-0.084395,-0.01443,1.7741490000000002,-0.455888
86,0.15399,0.975846,-0.154961,0.213579,2.142578,-0.238807
87,0.21118,0.949826,-0.2307219999999999,-0.147917,1.533221,-0.133124
88,0.25334,0.917021,-0.308043,-0.8628370000000001,1.208589,-0.129518
89,0.262634,0.8832959999999999,-0.388345,-0.6921229999999999,0.767888,0.22973
90,0.252629,0.852195,-0.4581949999999999,-0.1049089999999999,-0.090796,0.043065
91,0.218369,0.8384659999999999,-0.4992899999999999,0.061859,-0.527034,0.112052
92,0.174019,0.845198,-0.505329,0.038414,-0.7863140000000001,0.149586
93,0.142532,0.86721,-0.477108,-0.282013,-1.326102,0.337277
94,0.125365,0.894634,-0.428851,-0.341048,-1.3875540000000002,0.418246
95,0.112879,0.919589,-0.376318,-0.27038,-1.3899860000000002,0.52764
96,0.116243,0.941291,-0.316953,-0.215685,-1.158378,0.624433
97,0.1183099999999999,0.957526,-0.262957,-0.273522,-0.574988,0.342653
98,0.111659,0.967571,-0.226581,-0.2427929999999999,-0.344997,0.250323
99,0.1167609999999999,0.96719,-0.225634,0.157149,0.1774329999999999,-0.1459329999999999
100,0.152622,0.957023,-0.246603,0.5801970000000001,0.643654,0.042394
101,0.190852,0.952353,-0.2379079999999999,0.371435,1.489008,0.493721
102,0.171839,0.961194,-0.2158159999999999,-1.081904,0.991061,-0.384816
103,0.166203,0.962346,-0.2150969999999999,-0.959065,0.032222,-0.251151
104,0.17492,0.965972,-0.190528,-0.506554,-0.059783,1.019446
105,0.1709119999999999,0.979697,-0.104797,-0.251768,-0.96334,0.8273
106,0.131991,0.99125,-0.001403,0.037137,-0.334786,0.633437
107,0.057096,0.994837,0.083906,0.263369,0.200186,0.7496510000000001
108,-0.027931,0.991713,0.125403,-0.02877,0.933977,0.056069
109,-0.106393,0.978204,0.178317,-0.34397,1.349646,0.359128
110,-0.113773,0.97327,0.199501,1.2825959999999998,1.576626,-1.081444
111,-0.116938,0.963639,0.240261,1.329356,0.8538959999999999,-1.298657
112,-0.127603,0.952624,0.27609,0.850397,0.267133,-1.162168
113,-0.139106,0.946913,0.289835,0.376533,0.018861,-0.52508
114,-0.151689,0.942826,0.296764,0.1157089999999999,-0.169648,-0.670421
115,-0.16647,0.943018,0.288105,0.587124,-0.742319,-0.811466
116,-0.173379,0.948692,0.2644309999999999,0.6787810000000001,-0.817924,-0.474392
117,-0.163746,0.956553,0.241234,0.764728,-1.053446,0.004601
118,-0.1433299999999999,0.968263,0.20475,0.5529069999999999,-1.011888,-0.290779
119,-0.126103,0.981745,0.142388,0.359242,-0.857447,-0.250618
120,-0.1068269999999999,0.99135,0.076246,0.063644,0.1263109999999999,0.180193
121,-0.091613,0.995795,0.000352,-0.307496,0.488397,-0.074525
122,-0.065921,0.993942,-0.08794,-0.309125,0.562897,-0.37109
123,-0.03843,0.984622,-0.170421,0.109139,0.955198,-0.350835
124,-0.008297,0.970797,-0.239758,0.624691,1.518293,0.224987
125,0.052273,0.955221,-0.291238,0.5878479999999999,1.613809,0.318445
126,0.1093619999999999,0.936912,-0.332017,-0.318361,1.69941,-0.2221969999999999
127,0.133542,0.917012,-0.37584,0.046375,0.4675859999999999,-0.06459
128,0.123992,0.897867,-0.4224449999999999,0.145569,0.257818,0.037786
129,0.088956,0.882634,-0.461566,-0.068341,-0.308629,0.2168
130,0.045401,0.8774569999999999,-0.477501,-0.235876,-0.707581,0.292778
131,0.008909,0.887616,-0.460499,-0.223111,-0.937039,0.431004
132,-0.007058,0.907395,-0.42022,-0.276801,-1.377167,0.553017
133,-0.002557,0.928286,-0.371859,-0.254691,-1.533525,0.700259
134,0.0350529999999999,0.949146,-0.312879,-0.284901,-1.555515,0.721571
135,0.078097,0.966102,-0.246065,-0.4101579999999999,-0.883735,0.429216
136,0.092997,0.976344,-0.1952009999999999,-0.331599,-0.591701,0.261576
137,0.08816,0.982168,-0.166052,-0.264613,-0.4771939999999999,-0.027368
138,0.08441,0.978328,-0.189073,0.707399,0.551609,-0.915938
139,0.126745,0.957817,-0.25792,0.839899,3.5228050000000004,-0.121169
140,0.129056,0.959677,-0.249729,0.0588259999999999,2.048654,0.406101
141,0.095328,0.967068,-0.23599,-1.234427,-0.5751310000000001,-0.942003
142,0.087946,0.964063,-0.250695,-0.3960059999999999,-0.074491,1.157739
143,0.101976,0.98179,-0.16028,-0.213442,-0.461862,1.221331
144,0.066541,0.99747,-0.025,-0.154371,-0.222583,0.978003
145,-0.014205,0.995742,0.0910779999999999,-0.194016,0.457138,0.92708
146,-0.1079059999999999,0.983981,0.141906,-0.313313,0.679868,0.632782
147,-0.161365,0.975291,0.150896,-0.013684,2.073614,0.14456
148,-0.1700009999999999,0.966467,0.192459,1.806354,1.433694,-1.336762
149,-0.168523,0.953522,0.249792,1.636098,0.616318,-1.346014
150,-0.179222,0.944109,0.276656,0.275978,0.1193369999999999,-0.52957
151,-0.188176,0.939093,0.287564,0.184102,-0.178611,-0.341397
152,-0.201969,0.935282,0.290612,0.111042,-0.335551,-0.527062
153,-0.2096039999999999,0.935869,0.283224,0.936853,-0.768388,-0.447561
154,-0.206985,0.940464,0.269602,0.910201,-0.841083,-0.190317
155,-0.184168,0.952043,0.244328,1.038858,-0.950975,0.07188
156,-0.155166,0.967341,0.200438,0.29393,-0.829249,-0.7774800000000001
157,-0.12902,0.98112,0.144074,-0.133966,-0.556712,-0.5301520000000001
158,-0.104738,0.991915,0.071661,-0.232435,-0.362047,0.047907
159,-0.084859,0.996389,-0.002879,-0.335521,0.515513,0.659907
160,-0.067489,0.993583,-0.090769,-0.480347,0.6322409999999999,0.517939
161,-0.048708,0.980368,-0.191064,-0.454924,1.607614,-0.825156
162,-0.024856,0.971014,-0.237728,0.469955,2.435862,-0.598545
163,0.04384,0.956705,-0.287738,0.778746,1.953924,-0.158918
164,0.099691,0.931373,-0.350151,-0.37615,1.338143,-0.1688309999999999
165,0.116901,0.900174,-0.419549,-0.2086219999999999,0.613178,-0.025885
166,0.106739,0.874195,-0.473697,0.493267,0.123501,-0.015698
167,0.064338,0.865082,-0.497487,0.448479,-0.1020659999999999,0.331411
168,0.017411,0.8691979999999999,-0.4941569999999999,-0.027085,-0.6134609999999999,0.651567
169,-0.010496,0.881075,-0.472859,-0.79262,-1.540988,0.776235
170,-0.013268,0.8940469999999999,-0.447777,-0.783119,-1.791294,0.783882
171,0.022959,0.915377,-0.401942,-0.571894,-1.717913,0.944026
172,0.0714539999999999,0.941901,-0.328202,-0.361081,-1.085929,0.724137
173,0.097899,0.963488,-0.24921,-0.2385699999999999,-0.866916,0.54372
174,0.100645,0.977327,-0.1862869999999999,0.235445,-0.384904,-0.208946
175,0.102789,0.98151,-0.161473,0.975794,0.273785,-0.239666
176,0.145263,0.975531,-0.16504,1.0442049999999998,0.329782,-0.245421
177,0.201775,0.97111,-0.127404,0.300544,1.023778,0.685525
178,0.16477,0.978206,-0.126348,-1.2927,3.092335,-2.39036
179,0.048212,0.983463,-0.174572,-1.526697,1.882061,-0.52132
180,0.028541,0.99066,-0.133338,-0.345771,-0.8581219999999999,0.637229
181,0.068593,0.995877,-0.059371,0.024409,-1.132733,1.136184
182,0.08792,0.991745,0.093335,0.024721,-1.242051,0.521472
183,0.032147,0.96854,0.246775,0.24979,0.411191,1.275503
184,-0.083075,0.947681,0.30822,-0.6907439999999999,0.987363,0.878898
185,-0.146082,0.937616,0.3154949999999999,-0.6483979999999999,1.644538,1.091152
186,-0.139729,0.945435,0.294327,1.28127,1.95755,-3.767776
187,-0.149452,0.926888,0.344301,0.456215,0.435478,-1.166811
188,-0.158158,0.914538,0.3723,0.4955449999999999,0.528944,-0.698853
189,-0.177559,0.906517,0.3830139999999999,0.6091989999999999,0.21273,-0.939045
190,-0.19826,0.90804,0.368994,0.794329,-0.368138,-1.075903
191,-0.204477,0.91803,0.339721,0.8634280000000001,-0.584961,-0.8549190000000001
192,-0.179833,0.928417,0.325119,0.699837,-1.019344,0.235077
193,-0.144989,0.943407,0.298265,0.8234100000000001,-1.229997,0.062636
194,-0.116721,0.964792,0.235696,0.6243350000000001,-1.216898,-0.720437
195,-0.0861799999999999,0.982838,0.1631,0.074584,0.092113,-0.006423
196,-0.061163,0.993965,0.091063,-0.275308,0.875603,0.452578
197,-0.045681,0.99895,-0.003413,-0.541096,0.947949,0.278071
198,-0.017424,0.995729,-0.09066,-0.607911,1.921431,-0.788795
199,0.021027,0.985771,-0.166774,-0.189622,2.227898,-0.200597
200,0.074245,0.966848,-0.244319,0.223789,2.188654,0.097194
201,0.103616,0.941999,-0.31922,-0.8932889999999999,1.11513,0.182119
202,0.112192,0.911042,-0.396756,-0.329538,0.222152,0.2440159999999999
203,0.107618,0.881315,-0.460111,-0.205244,0.070375,0.049237
204,0.076635,0.864698,-0.496411,0.222773,-0.6686840000000001,0.285015
205,0.0415,0.861605,-0.505879,0.057377,-0.979007,0.239278
206,0.025313,0.8746309999999999,-0.484129,-0.333937,-1.481763,0.4909949999999999
207,0.025837,0.8945350000000001,-0.446251,-0.394047,-1.877964,1.035057
208,0.052565,0.921047,-0.385888,-0.341796,-1.793621,1.089562
209,0.082887,0.946823,-0.310894,-0.264207,-1.176743,0.8629879999999999
210,0.091533,0.965316,-0.244515,-0.140529,-0.695754,0.239723
211,0.091694,0.973903,-0.207619,0.176098,-0.256969,-0.451927
212,0.104018,0.968866,-0.224677,0.575394,0.0770179999999999,-0.675225
213,0.143398,0.9608,-0.237277,0.4672739999999999,1.3394780000000002,0.344989
214,0.148137,0.958531,-0.243461,-1.4655049999999998,2.508723,-0.603478
215,0.080105,0.972488,-0.218745,-1.508541,1.049759,0.769084
216,0.073901,0.981657,-0.17575,-0.4533569999999999,-0.271711,0.944671
217,0.090971,0.990492,-0.103199,0.088838,-0.825148,1.16985
218,0.067488,0.997245,0.030788,0.108843,-0.944755,0.659871
219,0.005471,0.986394,0.164305,0.085243,0.256144,0.910737
220,-0.077802,0.964253,0.253303,-0.210025,0.6081340000000001,0.563271
221,-0.138195,0.948916,0.283655,-0.326191,1.041669,0.361578
222,-0.145579,0.950792,0.2735,1.114481,2.41072,-3.117997
223,-0.14122,0.938554,0.314918,1.109955,0.760024,-1.18238
224,-0.149252,0.924038,0.351963,0.963126,0.673588,-0.970539
225,-0.16246,0.919508,0.357928,0.2148739999999999,0.024309,-0.976519
226,-0.170006,0.920355,0.352199,0.147743,-0.430625,-0.752635
227,-0.17805,0.92761,0.328387,0.2676489999999999,-0.52342,-0.6669649999999999
228,-0.176513,0.933438,0.312308,0.768874,-1.145657,-0.0032719999999999
229,-0.1620869999999999,0.946144,0.280248,0.965554,-1.250893,-0.318502
230,-0.141961,0.963341,0.227642,0.67196,-1.127022,-0.865582
231,-0.114053,0.979833,0.164072,0.193703,-0.203374,-0.081842
232,-0.08616,0.992672,0.084724,-0.160651,0.529316,0.27842
233,-0.061102,0.998105,-0.0072209999999999,-0.342432,0.5804010000000001,0.261326
234,-0.026168,0.994932,-0.097085,-0.184175,1.605074,-0.546561
235,0.010903,0.986969,-0.160542,0.063651,2.548401,-0.5099899999999999
236,0.065525,0.97322,-0.22034,0.204906,2.39029,-0.128049
237,0.105163,0.949109,-0.296873,-0.5348350000000001,1.54253,0.187834
238,0.113769,0.918444,-0.378837,-0.441467,0.593992,0.186073
239,0.10955,0.8879819999999999,-0.446639,-0.418937,0.31322,0.098953
240,0.084963,0.867075,-0.490879,0.39044,-0.297755,0.296832
241,0.047885,0.858716,-0.510209,0.123166,-0.7550180000000001,0.340852
242,0.036511,0.8655229999999999,-0.499537,-0.201566,-1.020369,0.531978
243,0.050736,0.8776719999999999,-0.476568,-0.722504,-1.914584,0.8502709999999999
244,0.084191,0.901406,-0.4247109999999999,-0.4477319999999999,-1.5008629999999998,1.0603
245,0.1203549999999999,0.932366,-0.340892,-0.4838949999999999,-1.531823,0.976482
246,0.136431,0.956943,-0.256216,-0.303347,-0.880451,0.482458
247,0.137836,0.969569,-0.2023309999999999,0.305035,-0.281306,-0.010178
248,0.150382,0.969439,-0.193839,0.605172,-0.005328,-0.038095
249,0.189405,0.96739,-0.168171,0.213961,0.054262,0.553349
250,0.200499,0.971617,-0.12554,-1.4816120000000002,3.31003,-2.817621
251,0.09723,0.978399,-0.1824309999999999,-1.378342,3.3032470000000003,-2.76073
252,0.048598,0.992652,-0.110821,-1.57794,0.324136,1.103435
253,0.06961,0.99581,-0.0593,-0.14659,-0.690375,1.267949
254,0.091519,0.994557,0.049803,-0.063946,-1.287373,0.8529530000000001
255,0.059171,0.977422,0.202843,0.2232989999999999,-0.378438,1.10691
256,-0.038215,0.942731,0.331357,-0.782998,1.234896,1.663577
257,-0.09315,0.934453,0.343686,-0.104726,1.965861,1.472048
258,-0.099072,0.956432,0.27463,1.861004,2.799747,-5.468874
259,-0.1100829999999999,0.941034,0.319901,0.598776,0.4292359999999999,-0.290299
260,-0.1164,0.935085,0.334764,0.110068,0.4213149999999999,-0.5080279999999999
261,-0.134801,0.930571,0.340391,-0.164546,-0.022185,-0.787047
262,-0.157437,0.932817,0.324137,0.495191,-0.5067619999999999,-0.819041
263,-0.168962,0.937599,0.303909,0.676866,-0.7336189999999999,-0.149245
264,-0.158394,0.941683,0.29689,0.872597,-1.063235,0.21225
265,-0.13939,0.954229,0.264609,0.79387,-1.125005,-0.70658
266,-0.11907,0.970471,0.209783,0.501684,-0.8281370000000001,-0.913548
267,-0.0895659999999999,0.984474,0.1509619999999999,0.104916,-0.600013,-0.563926
268,-0.058721,0.995542,0.073812,0.006384,-0.448163,-0.144048
269,-0.02984,0.999486,-0.011717,-0.2237,0.269679,0.41284
270,-0.009316,0.994845,-0.100977,-0.5089640000000001,0.783826,0.353006
271,0.011523,0.981083,-0.193245,0.147474,2.737545,-0.5367350000000001
272,0.061519,0.968303,-0.242086,0.524876,3.274693,-0.581843
273,0.134341,0.949987,-0.281919,-0.169192,1.90095,-0.108569
274,0.171367,0.920644,-0.350782,-0.708202,1.166972,0.232908
275,0.164122,0.8840100000000001,-0.437709,-0.695799,0.639473,0.365505
276,0.141255,0.846759,-0.512881,-0.188572,-0.262393,0.119998
277,0.104225,0.830536,-0.547125,0.079185,-0.843033,0.309958
278,0.07571,0.840923,-0.535832,0.019703,-1.234844,0.275471
279,0.0723169999999999,0.864503,-0.4973979999999999,-0.7220979999999999,-1.73375,0.455559
280,0.080126,0.8886149999999999,-0.4516,-0.556551,-1.697713,0.820679
281,0.103202,0.915656,-0.388489,-0.455635,-1.662925,0.909714
282,0.122859,0.941729,-0.313133,-0.370326,-0.858614,0.621574
283,0.121139,0.960665,-0.249898,-0.139724,-0.5688949999999999,0.250722
284,0.118427,0.967723,-0.222459,0.059338,-0.411693,0.098664
285,0.148295,0.966178,-0.210971,0.7138869999999999,-0.127875,-0.120175
286,0.193514,0.967157,-0.164805,0.3452429999999999,0.300284,0.655756
287,0.171854,0.976144,-0.132703,0.097037,1.833152,0.835142
288,0.092415,0.99099,-0.096946,-2.0337,1.130073,0.539802
289,0.100212,0.99129,-0.085454,-0.710228,-0.023028,-0.46136
290,0.1186349999999999,0.992123,-0.040216,-0.2433,-0.293576,1.178186
291,0.109258,0.990393,0.0847639999999999,-0.085576,-0.4838159999999999,0.7774949999999999
292,0.04431,0.974506,0.2199429999999999,0.01961,-0.021442,1.035214
293,-0.059912,0.94514,0.321126,-0.2665949999999999,0.205693,0.577678
294,-0.123418,0.922793,0.364994,0.105871,1.721479,0.682766
295,-0.111785,0.932649,0.343031,0.094237,1.711623,0.704729
296,-0.113732,0.930725,0.347587,1.732216,2.1950380000000003,-4.367408
297,-0.127803,0.916552,0.378945,0.576045,0.313963,-0.601067
298,-0.138739,0.910823,0.388783,0.312979,0.1118059999999999,-0.682958
299,-0.150891,0.908013,0.390826,0.419843,-0.360619,-1.047808
300,-0.160013,0.916369,0.366965,0.6422979999999999,-0.651965,-0.750861
301,-0.14939,0.92273,0.355319,0.8753879999999999,-1.146394,0.2409639999999999
302,-0.125372,0.935128,0.331387,0.923422,-1.163476,0.165271
303,-0.1077109999999999,0.953764,0.280591,0.400497,-0.96028,-1.0815709999999998
304,-0.080455,0.972087,0.220396,0.0498,-0.28448,-0.282454
305,-0.053934,0.988499,0.141286,-0.1108,0.093289,0.150844
306,-0.03906,0.997666,0.056009,-0.427249,0.623703,0.473135
307,-0.023627,0.998735,-0.044397,-0.87095,1.549239,-0.547614
308,0.0036479999999999,0.992667,-0.120824,-0.596437,2.032479,-0.8433940000000001
309,0.054623,0.981054,-0.185874,0.036639,2.357828,-0.465707
310,0.117266,0.957179,-0.264683,-0.316347,1.643895,0.17278
311,0.153123,0.925017,-0.347701,-0.635224,1.390061,0.209411
312,0.152671,0.8883270000000001,-0.43309,-0.458488,0.137888,0.080688
313,0.132971,0.852938,-0.504792,-0.16448,-0.291781,0.106644
314,0.092795,0.8358959999999999,-0.540987,0.152399,-0.6436350000000001,0.321337
315,0.049285,0.840568,-0.53946,0.033707,-1.455894,0.301544
316,0.027136,0.863,-0.504474,-0.4112,-1.6695650000000002,0.5411100000000001
317,0.020046,0.8853040000000001,-0.464581,-0.452327,-1.568364,0.620556
318,0.036007,0.90964,-0.413834,-0.347775,-1.462161,0.825592
319,0.064848,0.937359,-0.342276,-0.364637,-0.939251,0.6651520000000001
320,0.069617,0.959227,-0.273927,-0.318213,-0.758757,0.461534
321,0.059949,0.972335,-0.225765,0.353244,0.072037,-0.128911
322,0.067721,0.971242,-0.22826,0.608777,0.312434,-0.216671
323,0.112163,0.970869,-0.2117389999999999,0.666767,0.395739,-0.098197
324,0.113095,0.979957,-0.163993,-0.6428649999999999,2.780098,-0.149087
325,0.059753,0.990126,-0.126806,-1.341446,2.4004380000000003,-0.8682350000000001
326,0.068561,0.992356,-0.102612,-1.554874,-0.256165,-0.8303719999999999
327,0.08362,0.995271,-0.049422,-0.094011,-0.8362290000000001,1.0265799999999998
328,0.078566,0.99427,0.072489,0.008882,-1.157432,0.483129
329,0.0284399999999999,0.978474,0.204399,0.171679,-0.683797,0.576241
330,-0.071421,0.952272,0.296778,-0.1197569999999999,0.327742,0.4738819999999999
331,-0.153379,0.930288,0.333226,-0.320407,1.548884,0.963848
332,-0.161263,0.931668,0.325561,0.158409,1.74715,0.925172
333,-0.15677,0.931065,0.3294559999999999,0.995896,1.720912,-2.3539
334,-0.173684,0.916058,0.361484,0.56257,0.354556,-0.728016
335,-0.193807,0.911658,0.362379,0.385381,0.242257,-0.974226
336,-0.2072719999999999,0.910505,0.357797,0.333767,-0.345518,-0.586739
337,-0.214309,0.912461,0.348549,0.56198,-0.628953,-0.417641
338,-0.202507,0.919503,0.336906,0.735268,-0.858086,-0.224769
339,-0.177644,0.935118,0.306588,1.160767,-1.112059,-0.270043
340,-0.153798,0.954681,0.254815,0.583623,-0.945571,-0.814385
341,-0.124943,0.974778,0.184927,0.405827,-0.7645109999999999,-0.675513
342,-0.101249,0.989655,0.101648,-0.267999,0.630813,0.240988
343,-0.085452,0.996314,0.007571,-0.6086090000000001,0.6335390000000001,0.078275
344,-0.060841,0.994437,-0.085988,-0.766491,0.8378389999999999,-0.150325
345,-0.030732,0.985636,-0.166064,-0.321166,2.187338,-0.643644
346,0.020262,0.971207,-0.2373739999999999,0.250628,2.159439,-0.0272889999999999
347,0.0775039999999999,0.948274,-0.307848,0.260341,1.928222,0.157213
348,0.10595,0.917123,-0.384266,-0.465279,0.989417,0.1113779999999999
349,0.105488,0.883892,-0.45564,-0.1499059999999999,0.112263,0.203702
350,0.076795,0.8567629999999999,-0.5099600000000001,0.2133659999999999,-0.159192,0.4036369999999999
351,0.024183,0.842046,-0.538863,0.143374,-0.705495,0.39421
352,-0.007829,0.84831,-0.529442,-0.489256,-1.486905,0.4842149999999999
353,-0.006479,0.8704219999999999,-0.492264,-0.608877,-1.6799,0.487351
354,0.009236,0.895387,-0.445192,-0.495076,-1.749529,0.692583
355,0.045844,0.926811,-0.372718,-0.352149,-1.321266,0.809654
356,0.067551,0.955578,-0.286892,-0.294876,-1.017239,0.704281
357,0.061019,0.974503,-0.215917,-0.2155909999999999,-0.671586,0.5130979999999999
358,0.05111,0.980854,-0.187915,0.191382,0.049343,-0.185528
359,0.071011,0.973898,-0.2155949999999999,0.59621,0.402125,-0.316678
360,0.120469,0.972064,-0.201442,0.7308640000000001,0.5311100000000001,-0.005712
361,0.1067029999999999,0.980052,-0.167665,-0.947019,2.534749,-0.98184
362,0.048136,0.990094,-0.131896,-1.578745,1.450778,0.192977
363,0.060149,0.990916,-0.1202839999999999,-0.235015,-0.0253849999999999,0.572982
364,0.0786549999999999,0.994918,-0.062863,-0.0774649999999999,-0.8807360000000001,1.082928
365,0.067498,0.99615,0.055936,-0.005043,-0.954417,0.661425
366,-0.002142,0.983643,0.180117,0.223959,0.0401,1.007581
367,-0.098677,0.964321,0.245658,-0.290163,0.486439,0.300271
368,-0.162898,0.948555,0.271491,-0.449697,0.938896,0.307504
369,-0.170928,0.946054,0.275256,0.689009,2.143485,-2.391619
370,-0.174446,0.932727,0.315578,0.849816,0.918073,-1.346859
371,-0.185782,0.92008,0.344875,0.705069,0.6091409999999999,-1.084865
372,-0.200625,0.913257,0.354558,0.368182,0.046155,-0.507436
373,-0.2162619999999999,0.910749,0.351804,0.37889,-0.307264,-0.8254819999999999
374,-0.2225079999999999,0.914486,0.337943,0.498158,-0.4232899999999999,-0.69509
375,-0.211083,0.923692,0.319745,0.866951,-0.928499,-0.043988
376,-0.187052,0.939062,0.2884,0.910654,-1.10169,-0.414392
377,-0.162592,0.95776,0.237193,0.512293,-1.016353,-0.8157909999999999
378,-0.129878,0.977396,0.166818,0.050761,-0.3240449999999999,-0.268991
379,-0.1041329999999999,0.990848,0.085886,-0.205208,0.563458,0.506033
380,-0.09068,0.995832,-0.00983,-0.370059,0.566333,0.59737
381,-0.071038,0.991677,-0.107376,-0.657752,1.284461,-0.373932
382,-0.044842,0.983153,-0.177198,-0.066349,2.235109,-0.5009939999999999
383,0.001687,0.970912,-0.239429,0.073676,2.4195450000000003,-0.200299
384,0.050585,0.948483,-0.312763,-0.191484,1.473163,0.022022
385,0.072119,0.917871,-0.3902719999999999,-0.658041,0.70632,0.117795
386,0.068183,0.8858290000000001,-0.458974,-0.476127,0.466954,0.219625
387,0.039226,0.8599620000000001,-0.508849,0.092671,-0.133643,0.334548
388,-0.011774,0.8465959999999999,-0.5321060000000001,0.2084909999999999,-0.583015,0.42293
389,-0.048794,0.850784,-0.523245,0.133771,-0.74675,0.409277
390,-0.045216,0.8721450000000001,-0.4871529999999999,-0.539349,-1.740782,0.5149090000000001
391,-0.018404,0.8980600000000001,-0.439489,-0.302351,-1.7372470000000002,0.798589
392,0.0285899999999999,0.930178,-0.3659929999999999,-0.340296,-1.443987,0.696453
393,0.04953,0.958446,-0.28094,-0.26004,-0.854671,0.5252939999999999
394,0.044706,0.975879,-0.213687,-0.0472389999999999,-0.381534,0.022586
395,0.046257,0.975789,-0.2137639999999999,0.21035,-0.0917559999999999,-0.115902
396,0.084833,0.968578,-0.2337929999999999,0.655051,0.157932,0.231337
397,0.118767,0.972449,-0.200593,0.295036,0.673578,0.697678
398,0.057165,0.973526,-0.221311,-1.533972,2.664963,-1.180254
399,0.010681,0.986055,-0.166075,-1.523498,0.4926279999999999,1.433775
400,0.03238,0.991836,-0.123342,-0.29213,-0.579986,0.310751
401,0.051041,0.998301,-0.02812,0.370636,-0.74235,1.0919020000000002
402,0.0290379999999999,0.957818,0.285903,0.0518789999999999,-0.383722,0.527985
403,-0.065202,0.916483,0.394726,-0.0018,0.46218,0.442967
404,-0.157633,0.873677,0.460261,-0.365255,0.733104,0.284612
405,-0.1691099999999999,0.856876,0.486996,-0.496097,1.45979,0.863819
406,-0.142459,0.8719319999999999,0.4684439999999999,1.388934,1.928086,-1.959716
407,-0.153238,0.8475600000000001,0.508095,0.703623,0.779393,-1.982735
408,-0.163751,0.8320540000000001,0.529974,0.322961,0.2963639999999999,-1.073706
409,-0.176094,0.827382,0.533319,0.245323,0.067088,-1.150827
410,-0.191304,0.826701,0.529121,0.400777,-0.127314,-1.278693
411,-0.197042,0.836413,0.5114569999999999,0.7177939999999999,-0.601748,-0.3231489999999999
412,-0.1769329999999999,0.8445530000000001,0.505396,0.884101,-0.954157,0.062353
413,-0.153018,0.864726,0.478367,0.964221,-1.051737,-0.069614
414,-0.139934,0.8926729999999999,0.42843,0.303646,-0.662479,-1.136621
415,-0.1168599999999999,0.924747,0.362198,-0.000541,0.1406069999999999,-0.2508849999999999
416,-0.092004,0.952869,0.289094,-0.150275,0.562557,0.144164
417,-0.075779,0.977938,0.194666,-0.6819270000000001,1.0054610000000002,-0.571405
418,-0.051362,0.993136,0.1050849999999999,-0.756942,1.530546,-0.836149
419,-0.020162,0.999257,0.032859,-0.61616,1.988597,-0.786964
420,0.0309389999999999,0.998976,-0.03302,-0.031991,2.171938,-0.031174
421,0.085428,0.990633,-0.106529,-0.5756319999999999,1.358763,-0.090706
422,0.119252,0.975377,-0.185523,-0.58463,0.991313,-0.156167
423,0.127548,0.957637,-0.258192,-0.278289,0.2343489999999999,0.085829
424,0.1140279999999999,0.939431,-0.323212,-0.035811,-0.332574,0.24849
425,0.089278,0.926871,-0.364608,0.127442,-0.727668,0.312773
426,0.084242,0.927501,-0.364205,-0.221678,-1.886562,0.259804
427,0.098172,0.937681,-0.333343,-0.3462949999999999,-2.183851,0.6701189999999999
428,0.138763,0.954755,-0.2630369999999999,-0.465499,-2.140591,0.67652
429,0.165981,0.97168,-0.168191,-0.436474,-1.197525,0.6673520000000001
430,0.160172,0.983739,-0.081256,-0.360016,-0.810735,0.2686489999999999
431,0.1375839999999999,0.990231,-0.022634,-0.231411,-0.689755,0.151113
432,0.123742,0.991917,-0.028087,0.201163,0.0152699999999999,-0.410588
433,0.145154,0.988289,-0.04706,0.367037,0.804222,0.136278
434,0.143729,0.98933,-0.023826,-0.322135,2.508121,-1.23629
435,0.054206,0.998528,0.0019219999999999,-1.400978,1.3908,0.276475
436,0.020645,0.99821,0.0561309999999999,-1.711242,-0.33459,0.241461
437,0.036256,0.994327,0.099997,-0.330399,-0.430896,0.885416
438,0.0201569999999999,0.97873,0.2041619999999999,0.099899,-0.96666,0.366471
439,-0.039158,0.94408,0.327382,0.008793,-0.478458,0.377436
440,-0.140795,0.8906649999999999,0.43231,-0.142515,0.4790399999999999,0.4387689999999999
441,-0.204252,0.853352,0.479658,-0.178256,1.928814,0.8205889999999999
442,-0.177229,0.8692719999999999,0.461472,0.631239,1.7895419999999995,0.369324
443,-0.168408,0.8651409999999999,0.472409,1.688244,2.031298,-2.038647
444,-0.183739,0.847909,0.497283,0.478203,0.146872,-0.906844
445,-0.19095,0.842521,0.503684,0.183473,-0.122992,-0.536246
446,-0.202574,0.8367120000000001,0.508799,0.127715,-0.25993,-0.830866
447,-0.215673,0.8385020000000001,0.5004,0.670095,-0.459031,-0.7
448,-0.213188,0.845434,0.489685,0.914527,-0.760367,-0.232712
449,-0.192623,0.859808,0.472892,0.978313,-0.8681540000000001,-0.190223
450,-0.176691,0.882848,0.435155,0.554636,-0.7145739999999999,-0.972402
451,-0.162201,0.911314,0.378415,0.179276,-0.105024,-0.183164
452,-0.141942,0.938803,0.313848,-0.072063,0.374246,0.0937149999999999
453,-0.123831,0.964837,0.231852,-0.479731,0.540412,-0.106898
454,-0.094271,0.984769,0.146094,-0.596296,0.965488,-0.6235109999999999
455,-0.068662,0.995983,0.05747,-0.678683,1.134113,-0.662557
456,-0.030177,0.999301,-0.022062,-0.029363,2.031552,-0.166491
457,0.027252,0.995996,-0.085148,-0.023011,2.043586,0.0564
458,0.073866,0.986921,-0.143287,-0.6003850000000001,1.394412,-0.093605
459,0.102915,0.972647,-0.2082449999999999,-0.422282,0.40159,-0.240744
460,0.1139299999999999,0.955963,-0.270471,-0.0882039999999999,0.182739,-0.041281
461,0.1061839999999999,0.940222,-0.323584,0.0786,-0.068579,0.029822
462,0.085855,0.931417,-0.353682,-0.099069,-1.081198,0.198683
463,0.075429,0.933351,-0.350952,-0.311376,-1.669374,0.332916
464,0.081389,0.943008,-0.322663,-0.405668,-1.879501,0.339371
465,0.109679,0.959261,-0.260362,-0.304625,-1.613543,0.6749890000000001
466,0.126939,0.977468,-0.168651,-0.329378,-1.03597,0.567913
467,0.119698,0.98935,-0.08282,-0.336541,-0.970124,0.364543
468,0.111674,0.99324,-0.031669,-0.157436,-0.5186,-0.255181
469,0.1159029999999999,0.992658,-0.034593,0.39844,0.103167,-0.559523
470,0.141417,0.989317,-0.035393,0.546068,0.136827,-0.619178
471,0.137257,0.990449,-0.0130599999999999,-0.5741470000000001,2.294569,-0.843233
472,0.047803,0.998793,-0.011256,-1.858273,1.677949,-0.017812
473,0.030698,0.999213,0.025115,-1.832776,0.418649,0.6449600000000001
474,0.054508,0.997118,0.052775,-0.1231579999999999,-0.6185470000000001,1.052358
475,0.0613419999999999,0.983932,0.167673,-0.006349,-1.372482,0.947638
476,0.02763,0.948854,0.314503,0.0551179999999999,-1.113573,0.343288
477,-0.06795,0.910832,0.407146,0.335147,0.488429,0.7332810000000001
478,-0.189686,0.8750100000000001,0.445395,-0.4527859999999999,1.208364,0.223428
479,-0.219484,0.856764,0.466672,-0.627821,1.686891,0.922504
480,-0.1880609999999999,0.8632489999999999,0.468438,1.00166,1.808519,-2.988869
481,-0.174265,0.841276,0.511749,0.564493,0.809603,-1.383239
482,-0.17839,0.822779,0.53964,0.424881,0.547231,-0.970228
483,-0.197923,0.816458,0.542423,-0.024978,0.260492,-1.379016
484,-0.2080449999999999,0.820277,0.5327890000000001,0.423392,-0.1534829999999999,-1.183591
485,-0.213715,0.832167,0.511687,0.533722,-0.266158,-0.895339
486,-0.197624,0.843794,0.498955,0.705635,-0.815901,-0.046395
487,-0.180759,0.8646219999999999,0.468781,0.822788,-0.885114,-1.016647
488,-0.170916,0.8902639999999999,0.422159,0.812945,-0.910756,-0.970026
489,-0.1514,0.921431,0.357831,0.324466,-0.191145,-0.324689
490,-0.129661,0.949165,0.286835,-0.163644,0.8209,0.213471
491,-0.116222,0.972776,0.2005,-0.704335,1.075122,-0.468154
492,-0.089796,0.989383,0.114271,-0.771822,1.40437,-0.8367600000000001
493,-0.054765,0.998093,0.028463,-0.7153010000000001,1.647002,-0.791571
494,-0.003349,0.998451,-0.055534,-0.396081,1.817238,-0.2221
495,0.050697,0.991123,-0.122902,-0.378562,1.384503,-0.033455
496,0.089719,0.97827,-0.186918,-0.713804,0.690843,-0.174502
497,0.1046309999999999,0.962739,-0.249371,-0.644945,0.372909,-0.185092
498,0.09852,0.946464,-0.307408,-0.151346,-0.010948,0.286305
499,0.075366,0.933649,-0.35017,0.096463,-0.503412,0.290081
500,0.0549429999999999,0.931904,-0.35852,-0.1218829999999999,-1.263798,0.194213
501,0.052993,0.941097,-0.33396,-0.410125,-1.933254,0.321691
502,0.0777809999999999,0.956912,-0.279767,-0.2790289999999999,-2.113284,0.655729
503,0.1020409999999999,0.975882,-0.1929809999999999,-0.1867579999999999,-1.549185,0.5705600000000001
504,0.100409,0.989345,-0.1054269999999999,-0.062659,-1.00439,0.293965
505,0.092178,0.994735,-0.044793,0.087463,-0.621062,0.074471
506,0.1043849999999999,0.993228,-0.051014,0.1698,-0.392947,-0.122997
507,0.137107,0.98914,-0.052945,0.457605,0.320796,-0.949572
508,0.131252,0.991347,-0.001786,-1.17332,2.549287,-1.697829
509,0.020465,0.999132,-0.036278,-2.282412,2.996458,-2.26664
510,-0.0177319999999999,0.999805,0.008741,-1.440291,-0.389148,0.07889
511,0.002339,0.997473,0.0710129999999999,-0.107121,-0.793966,1.033403
512,0.005014,0.980676,0.195575,-0.099176,-1.155496,1.08186
513,-0.039707,0.93754,0.345604,0.1759069999999999,-0.276316,0.514305
514,-0.136092,0.875315,0.464008,-0.252046,0.1739099999999999,0.783535
515,-0.220466,0.840339,0.4952029999999999,-0.704965,0.409875,0.711539
516,-0.217158,0.85365,0.473417,0.123759,1.880588,-0.288481
517,-0.199743,0.8492149999999999,0.4888119999999999,1.412588,2.360518,-3.905072
518,-0.207414,0.830944,0.516247,1.118013,0.800556,-1.470226
519,-0.2214719999999999,0.8230049999999999,0.52308,0.632925,0.1190109999999999,-0.8617790000000001
520,-0.2329429999999999,0.822883,0.5182680000000001,0.2644829999999999,-0.04293,-1.175189
521,-0.245526,0.829367,0.5018640000000001,0.2630119999999999,-0.137961,-1.160082
522,-0.244391,0.8356969999999999,0.491817,0.665442,-0.545261,-0.045054
523,-0.222511,0.8465729999999999,0.4835319999999999,1.016258,-0.921509,-0.011562
524,-0.209051,0.871865,0.442887,1.207068,-1.090523,-0.505402
525,-0.192792,0.901682,0.387042,0.392468,-0.5580689999999999,-1.043612
526,-0.169802,0.932421,0.318997,-0.092924,0.199064,0.101703
527,-0.157414,0.956162,0.246932,-0.291256,0.647995,0.444581
528,-0.149972,0.977065,0.151172,-0.896339,0.8580180000000001,-0.310504
529,-0.135351,0.989021,0.0593029999999999,-1.2197049999999998,1.817406,-1.192268
530,-0.099242,0.994937,-0.015843,-0.918595,2.071362,-1.012234
531,-0.037898,0.994954,-0.0929,-0.080693,1.629558,-0.104594
532,0.010279,0.986097,-0.165852,-0.774393,1.185885,-0.033809
533,0.040772,0.971896,-0.231854,-0.8231209999999999,0.897748,-0.044696
534,0.050898,0.957113,-0.285208,-0.349985,0.118601,0.107565
535,0.040281,0.944187,-0.326939,0.263826,-0.690189,0.077641
536,0.021794,0.937633,-0.346943,0.2145639999999999,-1.183742,-0.078929
537,0.01287,0.943167,-0.332069,-0.199591,-2.179816,0.086449
538,0.021858,0.956214,-0.291852,0.020867,-2.11402,0.606503
539,0.044091,0.975704,-0.21461,-0.072656,-1.758892,0.63708
540,0.04272,0.991609,-0.1220089999999999,-0.09077,-0.8554700000000001,0.4488819999999999
541,0.025875,0.998474,-0.048779,-0.124646,-0.777054,0.336698
542,0.023826,0.999254,-0.030395,-0.048652,-0.050356,-0.155045
543,0.046149,0.996306,-0.072419,0.2185909999999999,0.924287,-1.2402030000000002
544,0.083807,0.994203,-0.067359,0.035898,0.64363,0.535651
545,0.062164,0.998019,-0.0096709999999999,-0.5687260000000001,1.48692,0.397702
546,-0.025436,0.999343,-0.025837,-2.167145,1.550371,-0.334194
547,-0.028857,0.999583,-0.000762,-0.7476470000000001,-0.318538,0.236587
548,-0.018196,0.9986,0.049675,-0.025994,-0.675113,1.031136
549,-0.044261,0.982804,0.179271,0.1363329999999999,-1.159821,0.497243
550,-0.119694,0.935334,0.332903,-0.146526,0.019409,0.7543920000000001
551,-0.231251,0.8669309999999999,0.441535,-0.195675,0.367352,0.640221
552,-0.296419,0.83309,0.467009,-1.142943,1.1591280000000002,0.697038
553,-0.267553,0.8475799999999999,0.458284,0.836736,2.093369,-2.245073
554,-0.2474039999999999,0.8430059999999999,0.477631,1.724074,2.795604,-3.119049
555,-0.2529139999999999,0.820886,0.512035,0.950302,0.432623,-0.966625
556,-0.257392,0.814549,0.5198649999999999,0.4801399999999999,0.141735,-0.956144
557,-0.264667,0.815996,0.513908,0.2441739999999999,-0.14406,-1.035194
558,-0.268478,0.8262709999999999,0.495172,0.537933,-0.544975,-0.592417
559,-0.257214,0.838615,0.480172,0.796108,-0.7510760000000001,0.063498
560,-0.237054,0.8587290000000001,0.454302,0.863152,-0.909251,0.051436
561,-0.224252,0.8874709999999999,0.402623,0.527978,-0.813512,-1.264104
562,-0.204697,0.918055,0.339521,0.201615,-0.428415,-0.729643
563,-0.184505,0.946701,0.264034,0.011287,-0.111008,-0.114788
564,-0.1755,0.968048,0.179115,-0.43177,0.514084,0.353829
565,-0.161018,0.983563,0.081708,-0.849404,1.164065,-0.524274
566,-0.13915,0.990246,0.007003,-0.920511,1.5814700000000002,-0.741103
567,-0.092221,0.994744,-0.044501,0.002332,2.384819,-0.203821
568,-0.022216,0.994418,-0.103149,-0.2137,1.725675,-0.101532
569,0.0275279999999999,0.985099,-0.169769,-0.7308819999999999,1.4497,-0.034592
570,0.052984,0.969597,-0.238903,-0.74822,0.3080219999999999,0.0545919999999999
571,0.0597549999999999,0.951762,-0.300961,-0.2193,-0.089687,0.193249
572,0.043334,0.937761,-0.344567,0.057587,-0.356508,0.180092
573,0.029757,0.935836,-0.351178,0.063199,-1.607619,0.043698
574,0.034158,0.943952,-0.32831,-0.374185,-2.22894,0.270357
575,0.062335,0.957987,-0.279955,-0.388049,-2.256678,0.5347609999999999
576,0.086978,0.977563,-0.191847,-0.443087,-1.341241,0.607176
577,0.0848309999999999,0.991828,-0.095296,-0.3693619999999999,-0.912543,0.401647
578,0.0690559999999999,0.997063,-0.033105,-0.38502,-0.829583,0.269769
579,0.06645,0.996975,-0.040318,0.193163,0.078495,-0.466884
580,0.1003759999999999,0.994421,-0.032416,0.411831,0.3498469999999999,0.291403
581,0.104459,0.99436,0.018346,-0.04527,0.902765,0.422633
582,0.019365,0.999477,0.0258879999999999,-1.509417,2.275944,-0.8578129999999999
583,-0.011863,0.997942,0.063019,-1.006798,0.30226,-0.478454
584,-0.000972,0.995406,0.095737,-0.246754,-0.07196,0.80711
585,-0.0295339999999999,0.979129,0.2010829999999999,0.10714,-1.162631,0.728955
586,-0.09559,0.937962,0.3333,-0.319877,0.018459,0.693479
587,-0.191752,0.871589,0.451181,-0.4910479999999999,0.297738,0.704673
588,-0.245169,0.8305030000000001,0.500157,-1.188715,0.8936790000000001,1.170284
589,-0.218308,0.852282,0.4753489999999999,0.157914,1.627866,0.420662
590,-0.200698,0.8530190000000001,0.481746,1.068755,2.014337,-4.191173
591,-0.219473,0.8352649999999999,0.504147,0.7419789999999999,0.686738,-0.818448
592,-0.251463,0.824876,0.506306,0.1027049999999999,0.216933,-1.006397
593,-0.279315,0.8204540000000001,0.498837,0.160189,0.0134389999999999,-1.206738
594,-0.292263,0.8232860000000001,0.4866029999999999,0.645871,-0.197279,-0.64737
595,-0.280103,0.831498,0.479743,1.215451,-0.737733,-0.123663
596,-0.262918,0.851504,0.4536689999999999,1.338419,-0.852175,-0.270334
597,-0.249531,0.87666,0.411342,0.903385,-0.8818940000000001,-1.056804
598,-0.223309,0.905101,0.3618369999999999,0.2445949999999999,-0.49058,-0.388388
599,-0.194767,0.934206,0.2988719999999999,0.005314,-0.05855,0.060701
600,-0.185352,0.957553,0.220766,-0.739376,0.554136,-0.163042
601,-0.173035,0.975654,0.134748,-1.067687,1.053764,-0.982954
602,-0.146229,0.987034,0.066194,-1.203137,1.396099,-1.2234969999999998
603,-0.1094339999999999,0.993994,-0.000535,-0.280626,2.223657,-0.271606
604,-0.054838,0.995998,-0.0705809999999999,-0.0502639999999999,1.694463,-0.020712
605,0.003694,0.991111,-0.132984,-0.455583,1.385155,-0.096493
606,0.040921,0.979859,-0.195455,-0.725263,0.502655,-0.0049689999999999
607,0.0576299999999999,0.962732,-0.264244,-0.145826,0.2265219999999999,0.161049
608,0.042887,0.941686,-0.3337489999999999,0.144002,0.038814,0.3085719999999999
609,0.003472,0.925354,-0.379088,0.4383,-1.324341,0.155348
610,-0.019947,0.925156,-0.379063,-0.019894,-2.0922400000000003,0.424793
611,-0.0086,0.936327,-0.351023,-0.227484,-2.245074,0.40629
612,0.026386,0.95681,-0.289515,-0.363544,-1.665931,0.599223
613,0.052547,0.978759,-0.198168,-0.331935,-1.056563,0.5636770000000001
614,0.0526679999999999,0.992887,-0.106779,-0.290781,-0.897565,0.440626
615,0.045854,0.997917,-0.045385,-0.349794,-0.602912,-0.1579839999999999
616,0.0490149999999999,0.997045,-0.059157,-0.347095,-0.288838,-0.410356
617,0.0667919999999999,0.994181,-0.08452,0.2529409999999999,0.55596,-1.0452860000000002
618,0.005956,0.997247,-0.073911,-1.354604,2.76174,-0.220431
619,-0.0467879999999999,0.99883,-0.012211,-1.805797,0.185115,1.229817
620,-0.024398,0.999327,0.027372,-0.47368,-0.480529,-0.665892
621,-0.029554,0.993038,0.114026,0.027448,-0.890408,1.037219
622,-0.0807539999999999,0.966885,0.2421,-0.121318,-0.98135,0.78532
623,-0.168506,0.919475,0.355206,-0.2091489999999999,-0.471034,0.631152
624,-0.264192,0.861252,0.434105,-0.8727860000000001,0.663208,0.426796
625,-0.27865,0.8504959999999999,0.446107,0.209772,1.680968,-0.257844
626,-0.247107,0.8627049999999999,0.441224,0.178228,1.668759,-0.252961
627,-0.236746,0.8459629999999999,0.477806,0.933996,1.151184,-1.703239
628,-0.23858,0.829275,0.505354,0.495843,0.139948,-0.6608109999999999
629,-0.2569869999999999,0.8180850000000001,0.5144850000000001,0.186278,0.002212,-0.78133
630,-0.2700059999999999,0.813128,0.515674,0.3507099999999999,-0.164935,-1.0411709999999998
631,-0.277258,0.817918,0.5041220000000001,0.532247,-0.273041,-0.821185
632,-0.267727,0.827478,0.4935609999999999,0.8532069999999999,-0.610345,-0.215714
633,-0.248977,0.8488959999999999,0.466247,1.179641,-0.8475530000000001,-0.234008
634,-0.2397719999999999,0.8769379999999999,0.416521,0.44836,-0.718719,-1.209658
635,-0.223737,0.909154,0.351257,0.255032,-0.524525,-0.7580720000000001
636,-0.20426,0.939348,0.275503,-0.180292,0.389768,0.128152
637,-0.191658,0.963316,0.187855,-0.757987,0.746782,-0.18993
638,-0.165767,0.981304,0.097799,-0.8502549999999999,0.97466,-0.42896
639,-0.130788,0.991169,0.021887,-0.77125,1.659634,-0.945623
640,-0.078871,0.995682,-0.048947,-0.248277,2.164138,-0.382511
641,-0.023235,0.99295,-0.116231,-0.454243,1.771454,-0.116176
642,0.0149419999999999,0.981775,-0.189461,-1.09766,0.995948,0.011955
643,0.035222,0.963039,-0.267048,-0.491475,0.109501,-0.015347
644,0.035179,0.942011,-0.333734,-0.324868,0.038107,0.071771
645,0.0107599999999999,0.923859,-0.382581,0.269269,-0.580964,0.132459
646,-0.022271,0.916353,-0.399752,0.156594,-1.367143,0.2315239999999999
647,-0.039541,0.92476,-0.3784909999999999,0.082647,-1.796403,0.264127
648,-0.017157,0.944658,-0.327607,-0.141732,-2.145952,0.4995739999999999
649,0.023326,0.969578,-0.243669,-0.313792,-1.450032,0.530686
650,0.042205,0.988329,-0.146371,-0.307906,-1.139727,0.450189
651,0.036454,0.997418,-0.061873,-0.288224,-0.781323,0.152968
652,0.027219,0.999293,-0.025929,-0.131742,-0.060466,-0.31126
653,0.03489,0.998499,-0.0422089999999999,0.111717,0.287893,-0.581906
654,0.0534669999999999,0.998517,-0.0102659999999999,0.0945889999999999,0.715198,0.569226
655,-0.005902,0.999908,0.012226,-1.556216,2.227448,-1.230137
656,-0.06415,0.997535,0.028455,-2.592482,1.731683,-0.576292
657,-0.044922,0.997301,0.0580809999999999,-0.255859,-0.402452,-0.094824
658,-0.040089,0.990372,0.132503,0.406986,-1.130783,1.053242
659,-0.072918,0.959194,0.273186,0.315213,-1.208827,0.939461
660,-0.158525,0.900601,0.404706,-0.085708,0.182468,0.799197
661,-0.260921,0.839245,0.4770609999999999,-0.8474459999999999,0.717487,0.602727
662,-0.280151,0.8299110000000001,0.482456,-0.938583,1.410125,0.893033
663,-0.253338,0.847276,0.466843,0.775555,1.820769,-3.347657
664,-0.2435639999999999,0.830334,0.501221,0.5833010000000001,1.22501,-1.967453
665,-0.243774,0.810534,0.5325489999999999,0.443862,0.704831,-1.304156
666,-0.249723,0.803924,0.539763,0.186399,0.148438,-0.896437
667,-0.262764,0.8018430000000001,0.536659,0.280296,-0.2066739999999999,-1.226112
668,-0.2715889999999999,0.8086899999999999,0.521786,0.449979,-0.255284,-1.054729
669,-0.257876,0.8175060000000001,0.514961,0.860125,-0.651505,-0.0865549999999999
670,-0.245903,0.8386530000000001,0.485997,1.046578,-0.857619,-0.374623
671,-0.2399,0.8666879999999999,0.437379,0.771059,-0.776035,-0.975023
672,-0.226396,0.8998219999999999,0.3729139999999999,0.171007,-0.352169,-0.6290180000000001
673,-0.210536,0.93016,0.300794,-0.225865,0.507798,0.198458
674,-0.2011349999999999,0.956093,0.2131469999999999,-0.411902,0.531029,0.276172
675,-0.181745,0.975616,0.1230579999999999,-0.934573,1.2180030000000002,-0.6264609999999999
676,-0.157667,0.986482,0.0446509999999999,-0.865374,1.840544,-0.7730899999999999
677,-0.119349,0.992545,-0.024707,-0.484533,2.091226,-0.330304
678,-0.06947,0.993247,-0.092919,-0.488101,1.344293,-0.122551
679,-0.026966,0.986216,-0.163254,-0.714733,0.4184319999999999,-0.034591
680,-0.005645,0.972217,-0.234012,-0.6188520000000001,0.256634,0.136325
681,0.001091,0.954738,-0.297448,0.072121,-0.2929179999999999,0.190117
682,-0.0137159999999999,0.939074,-0.343442,0.1976,-0.837023,0.0573549999999999
683,-0.030552,0.934651,-0.354251,0.140492,-1.214467,0.056201
684,-0.032889,0.942661,-0.332126,-0.28367,-2.01096,0.324009
685,-0.017294,0.958268,-0.2853489999999999,-0.094308,-2.109635,0.532053
686,0.005301,0.980237,-0.1977539999999999,-0.033041,-1.609906,0.580124
687,0.003025,0.99473,-0.1024849999999999,-0.041904,-1.140162,0.334708
688,-0.00797,0.999472,-0.031487,0.10677,-0.624488,-0.074455
689,-0.006242,0.999522,-0.0302779999999999,0.415971,0.258168,-0.807109
690,0.0162539999999999,0.997078,-0.074645,-0.2254219999999999,2.660652,-0.97728
691,-0.0225259999999999,0.996457,-0.081037,-2.190227,2.548328,-0.040881
692,-0.048124,0.997984,-0.041385,-1.459993,-1.036436,-0.859143
693,-0.0229,0.998119,-0.056873,-0.006412,-0.605342,0.337146
694,-0.015275,0.999272,0.034957,-0.1294539999999999,-1.467137,1.416169
695,-0.060674,0.975594,0.211035,-0.271067,-0.7246630000000001,1.142068
696,-0.162173,0.926507,0.339536,-0.4428229999999999,0.269126,0.479189
697,-0.2852389999999999,0.8801389999999999,0.3794659999999999,-1.197473,1.364567,0.108098
698,-0.340905,0.8431860000000001,0.415717,-0.964438,1.634841,0.930596
699,-0.310123,0.838783,0.447511,0.645054,1.706123,-1.192919
700,-0.29415,0.827902,0.477551,0.8186859999999999,1.020716,-1.7730669999999995
701,-0.29944,0.806012,0.51057,0.771562,0.677066,-1.384837
702,-0.304516,0.793524,0.526868,0.569469,0.110972,-0.548338
703,-0.3160659999999999,0.786849,0.530067,0.257473,-0.356383,-1.262779
704,-0.327453,0.792713,0.5141789999999999,0.473159,-0.388019,-1.172428
705,-0.328513,0.805029,0.493972,0.806052,-0.515493,-0.320998
706,-0.3064409999999999,0.820958,0.4817909999999999,1.127974,-0.944783,-0.15066
707,-0.290161,0.848673,0.442223,0.981674,-1.031778,-0.8228840000000001
708,-0.279327,0.881026,0.381799,0.254577,-0.2063579999999999,-0.399804
709,-0.259864,0.912492,0.315957,-0.215813,0.775161,0.339881
710,-0.250755,0.937949,0.239528,-0.438775,0.759927,0.295689
711,-0.2328849999999999,0.960898,0.149797,-0.925349,1.460733,-0.8658309999999999
712,-0.2028829999999999,0.976708,0.06986,-0.621946,1.905067,-0.834417
713,-0.158344,0.987363,-0.006526,-0.54408,1.911899,-0.477162
714,-0.100189,0.991726,-0.0802549999999999,-0.680924,1.31055,-0.071342
715,-0.050155,0.987179,-0.151535,-0.804109,0.6021310000000001,0.028992
716,-0.01962,0.974491,-0.223568,-0.664706,0.2766079999999999,-0.020817
717,-0.010817,0.957654,-0.28772,-0.317003,0.1335329999999999,0.2156829999999999
718,-0.023809,0.941813,-0.335293,0.26029,-0.591486,0.276715
719,-0.0488069999999999,0.931281,-0.361017,0.375238,-1.115561,0.174677
720,-0.065998,0.934174,-0.350662,0.021518,-2.455978,0.310608
721,-0.0522539999999999,0.947261,-0.316175,-0.138664,-2.087459,0.548734
722,-0.025388,0.967859,-0.250209,-0.2341639999999999,-1.704813,0.516231
723,-0.019025,0.986045,-0.1653869999999999,-0.159854,-0.868461,0.350629
724,-0.03052,0.995472,-0.090025,-0.143216,-0.4582859999999999,0.022123
725,-0.035093,0.998174,-0.049155,-0.110705,-0.154394,-0.250359
726,-0.013808,0.997938,-0.062683,0.379896,0.393465,-0.837463
727,0.019733,0.998692,-0.047175,-0.006106,0.8845940000000001,0.3523969999999999
728,-0.0207639999999999,0.999677,-0.01468,-0.925906,2.066333,-0.184462
729,-0.090627,0.995713,-0.0184919999999999,-2.3128,0.471908,0.194273
730,-0.070452,0.997486,0.007668,0.354265,-0.880344,1.251366
731,-0.05968,0.995415,0.0747429999999999,0.545184,-1.40783,1.190989
732,-0.075749,0.968166,0.2385739999999999,0.158314,-1.240382,0.5362979999999999
733,-0.148726,0.903315,0.402372,-0.312502,0.388708,0.706012
734,-0.278652,0.827425,0.487566,-1.041416,0.768614,0.691786
735,-0.327606,0.804083,0.496109,-0.44983,1.810083,0.487106
736,-0.292069,0.8310129999999999,0.473405,0.953004,2.060192,-4.867479
737,-0.266698,0.823535,0.5006619999999999,1.035573,2.43443,-2.325018
738,-0.254776,0.808025,0.5312100000000001,0.5618890000000001,0.406956,-0.6607270000000001
739,-0.2480969999999999,0.804165,0.540154,0.133641,-0.1146809999999999,-1.2398
740,-0.260858,0.804497,0.533608,0.136957,-0.264992,-1.484764
741,-0.2733,0.814329,0.512031,0.5597840000000001,-0.565321,-0.543586
742,-0.264896,0.82426,0.500425,0.942646,-0.940624,0.035967
743,-0.256732,0.8412139999999999,0.475866,0.8900790000000001,-1.034024,-0.376577
744,-0.2538019999999999,0.867167,0.428492,0.4936399999999999,-0.709605,-1.325312
745,-0.242308,0.897782,0.367796,0.025923,0.024902,-0.2667219999999999
746,-0.223973,0.928803,0.295231,-0.157848,0.514328,0.195537
747,-0.214728,0.952463,0.2161159999999999,-0.5301600000000001,0.688391,0.185328
748,-0.192169,0.972973,0.128041,-0.956956,2.02158,-1.178761
749,-0.165582,0.984696,0.05437,-0.983542,2.009856,-1.10509
750,-0.12133,0.992528,-0.012903,-0.327675,2.095713,-0.178717
751,-0.062707,0.99437,-0.08542,-1.1116700000000002,1.174133,-0.1824329999999999
752,-0.013344,0.986123,-0.165478,-1.217979,0.783133,-0.169803
753,0.016319,0.969931,-0.242834,-0.648491,0.021021,-0.025049
754,0.020939,0.952022,-0.305313,0.086864,-0.3744159999999999,0.2711639999999999
755,0.0032049999999999,0.936795,-0.349865,0.26744,-0.608471,0.320629
756,-0.021018,0.928638,-0.370392,-0.046669,-1.7732880000000002,0.100647
757,-0.034675,0.935022,-0.35289,-0.324486,-2.11297,0.446243
758,-0.029142,0.950346,-0.309828,-0.224642,-2.034361,0.643874
759,-0.018122,0.973133,-0.2295309999999999,-0.01914,-1.184146,0.523705
760,-0.027043,0.989397,-0.142697,-0.004817,-0.820314,0.2422139999999999
761,-0.04043,0.99568,-0.083582,0.068003,-0.462187,0.084329
762,-0.03618,0.995897,-0.082945,0.376741,0.357115,-0.637544
763,-0.0048259999999999,0.994874,-0.101007,0.2322739999999999,1.0163719999999998,-0.100531
764,-0.007675,0.99745,-0.070949,-0.809768,1.819765,0.068157
765,-0.0533559999999999,0.997679,-0.04231,-1.888965,0.292726,0.221876
766,-0.039,0.998996,-0.02203,-0.559221,-0.227848,-0.259677
767,-0.036277,0.998681,0.036328,-0.045372,-0.74775,1.132877
768,-0.0618159999999999,0.982997,0.172902,-0.227079,-1.266185,0.883022
769,-0.1291,0.940072,0.315592,-0.304112,-0.085824,0.6782590000000001
770,-0.242703,0.8818540000000001,0.404263,-0.224659,0.322125,0.340533
771,-0.335649,0.8371430000000001,0.431893,-1.191359,1.778702,0.991844
772,-0.332923,0.824307,0.457909,0.38784,1.982502,-0.30175
773,-0.305987,0.827101,0.471462,1.714266,2.55115,-3.199032
774,-0.312458,0.806431,0.502035,1.064945,0.672085,-1.0736290000000002
775,-0.315719,0.793854,0.519728,0.754729,0.149002,-0.575362
776,-0.3225159999999999,0.790425,0.520779,0.34809,0.051326,-0.909375
777,-0.331944,0.7954399999999999,0.5070399999999999,0.4213449999999999,-0.258269,-0.954916
778,-0.3271199999999999,0.80537,0.494339,0.8616809999999999,-0.6015739999999999,-0.070602
779,-0.3074929999999999,0.8218190000000001,0.479647,1.1253799999999998,-0.8449049999999999,-0.080554
780,-0.293968,0.8502540000000001,0.436637,0.804787,-0.907489,-1.140494
781,-0.280073,0.883575,0.375305,0.376906,-0.541855,-1.090026
782,-0.2616699999999999,0.916464,0.302693,-0.008273,-0.120321,-0.16663
783,-0.243521,0.94333,0.225448,-0.3154389999999999,0.608611,0.424882
784,-0.2292719999999999,0.963441,0.138618,-1.061911,0.914076,-0.738747
785,-0.204182,0.977943,0.04402,-1.191494,1.514718,-0.8459610000000001
786,-0.173114,0.984653,-0.022142,-0.577512,2.3380400000000003,-0.52867
787,-0.120094,0.988902,-0.087469,-0.309319,2.137624,-0.22465
788,-0.066999,0.98562,-0.155124,-0.526934,1.496542,-0.0821799999999999
789,-0.028979,0.975104,-0.2198449999999999,-1.036695,0.368569,-0.018985
790,-0.004577,0.958801,-0.284043,-0.635559,0.094529,-0.034972
791,-0.002659,0.942908,-0.333042,-0.067852,-0.3498449999999999,-0.0229
792,-0.022723,0.933003,-0.35915,0.394289,-1.515507,-0.216015
793,-0.037685,0.938018,-0.344532,0.232631,-1.792892,-0.181301
794,-0.03302,0.954232,-0.297238,-0.010544,-2.000146,0.054288
795,-0.022025,0.973703,-0.226753,-0.001489,-1.385233,0.394509
796,-0.0256829999999999,0.988905,-0.146313,-0.012678,-1.066725,0.351986
797,-0.042085,0.995869,-0.080466,-0.155684,-0.712681,0.283561
798,-0.0479389999999999,0.997453,-0.0528159999999999,-0.095448,0.023604,-0.104945
799,-0.031913,0.997693,-0.059921,0.288733,-0.164487,-0.374985
800,-0.001108,0.999233,-0.039146,0.404642,-0.216182,0.180732
801,-0.01031,0.999825,0.015624,-1.997503,1.919166,-1.1167129999999998
802,-0.100532,0.993955,-0.04412,-2.523232,1.491015,0.801429
803,-0.105638,0.99433,-0.012153,-1.318022,0.227517,-0.4284439999999999
804,-0.099717,0.993959,0.045838,0.454926,-0.856234,0.822982
805,-0.109317,0.980338,0.164277,0.231311,-1.037421,0.4751729999999999
806,-0.170224,0.938699,0.29978,0.150678,-0.549844,0.481622
807,-0.281858,0.8693280000000001,0.405986,-0.042941,0.563701,0.954014
808,-0.359296,0.818806,0.4477319999999999,-0.500857,1.182095,0.519782
809,-0.336634,0.8328200000000001,0.439418,0.186198,1.277181,-0.198939
810,-0.302696,0.8361799999999999,0.4573609999999999,0.798133,1.245073,-2.213571
811,-0.301493,0.818711,0.488687,0.537287,0.4549859999999999,-0.680856
812,-0.309658,0.8083,0.500762,0.4072989999999999,0.315021,-0.574554
813,-0.319655,0.804022,0.501367,0.308226,-0.0391139999999999,-1.143564
814,-0.329082,0.808542,0.487817,0.731182,-0.270563,-0.5897
815,-0.324522,0.819693,0.472005,0.874647,-0.452887,-0.225515
816,-0.306675,0.8395520000000001,0.448445,1.075306,-0.8427100000000001,-0.447087
817,-0.2965239999999999,0.86713,0.400198,0.575241,-0.679462,-1.011663
818,-0.280087,0.8992389999999999,0.336036,0.380657,-0.607751,-1.0673290000000002
819,-0.256317,0.931049,0.259711,-0.231965,0.439618,0.122598
820,-0.242332,0.955201,0.169901,-0.659035,0.452941,0.122671
821,-0.217461,0.973741,0.067375,-0.973564,0.615157,-0.488274
822,-0.188141,0.982089,-0.01024,-0.65065,1.761381,-0.718688
823,-0.149792,0.985805,-0.0758409999999999,-0.256458,2.12563,-0.296809
824,-0.096876,0.984764,-0.1444089999999999,-0.1920329999999999,1.904213,-0.122345
825,-0.0512269999999999,0.975282,-0.2149449999999999,-0.945172,0.770354,0.0263009999999999
826,-0.026829,0.956194,-0.2915,-0.607341,0.183637,-0.0114019999999999
827,-0.019828,0.935105,-0.353817,-0.491143,-0.031845,0.034466
828,-0.037337,0.918224,-0.394298,0.346709,-0.760494,-0.037801
829,-0.069303,0.913607,-0.400648,0.2878699999999999,-1.407473,0.078703
830,-0.087012,0.923664,-0.373194,0.034155,-1.918903,0.2340489999999999
831,-0.088188,0.939511,-0.33097,0.177421,-1.946546,0.597495
832,-0.071196,0.962946,-0.260128,0.073333,-1.491068,0.593364
833,-0.063439,0.982614,-0.174486,-0.065788,-1.02601,0.417833
834,-0.0706929999999999,0.992444,-0.100284,-0.23076,-0.713331,0.130374
835,-0.076818,0.994847,-0.066163,-0.014765,0.343547,-0.800841
836,-0.067392,0.99445,-0.080789,0.299784,0.586589,-0.629599
837,-0.039129,0.997687,-0.0555789999999999,0.289053,0.3764889999999999,0.331504
838,-0.07356,0.997289,-0.00165,-1.484621,2.05601,-1.087461
839,-0.139166,0.989944,-0.0253669999999999,-3.167307,1.827256,-1.833703
840,-0.116808,0.993152,0.002286,-0.66728,-0.360019,-0.2107969999999999
841,-0.104121,0.992716,0.060612,0.401286,-0.987742,0.7592270000000001
842,-0.120145,0.973482,0.194673,0.320996,-1.489748,0.8322129999999999
843,-0.187075,0.923576,0.334681,0.0112629999999999,-0.33834,0.910574
844,-0.309539,0.8511270000000001,0.42399,-1.499711,0.670693,0.924703
845,-0.368548,0.8192229999999999,0.43937,-1.185834,1.779211,1.434241
846,-0.34364,0.832908,0.433792,0.753003,1.856255,-1.411026
847,-0.328776,0.819601,0.469213,1.015482,1.808481,-2.222479
848,-0.327666,0.798653,0.5047659999999999,0.7509140000000001,0.73487,-0.862722
849,-0.335092,0.783736,0.522944,0.406076,0.276154,-0.5000560000000001
850,-0.343487,0.777119,0.527355,0.563488,-0.085194,-1.520687
851,-0.3612889999999999,0.789492,0.496158,0.6512979999999999,-0.205279,-1.255099
852,-0.358819,0.806437,0.470009,0.8673639999999999,-0.480128,-0.023262
853,-0.329999,0.8287110000000001,0.452038,1.076718,-1.025489,-0.0319329999999999
854,-0.314077,0.860792,0.400491,0.921194,-1.163343,-0.90249
855,-0.299245,0.895733,0.328808,0.299245,-0.177868,-0.361065
856,-0.279609,0.925461,0.255617,-0.1199269999999999,0.511886,0.1227859999999999
857,-0.27418,0.947631,0.163769,-0.389745,0.621827,0.0387459999999999
858,-0.254169,0.964344,0.073745,-1.200115,1.575313,-1.164779
859,-0.224473,0.974454,0.007161,-0.700347,1.995105,-0.446751
860,-0.185692,0.980581,-0.063088,-0.675972,2.094203,-0.037376
861,-0.1358329999999999,0.982123,-0.130322,-0.621125,1.216302,-0.135044
862,-0.091228,0.977826,-0.188503,-0.654667,0.415576,-0.0472459999999999
863,-0.058303,0.968493,-0.2421219999999999,-0.453736,0.236631,0.0189009999999999
864,-0.043741,0.956532,-0.288329,-0.058035,-0.123844,0.108153
865,-0.0552179999999999,0.944949,-0.322525,0.2051199999999999,-0.7638729999999999,0.075653
866,-0.075416,0.939747,-0.333449,0.213859,-1.064518,0.126524
867,-0.072116,0.946979,-0.3130989999999999,0.162677,-2.330249,0.441563
868,-0.040782,0.966019,-0.255233,-0.015615,-2.029191,0.623687
869,-0.023755,0.985596,-0.167439,-0.088107,-1.608719,0.4916569999999999
870,-0.031682,0.996082,-0.082565,-0.208323,-0.940769,0.241317
871,-0.0429579999999999,0.998714,-0.026926,-0.179805,-0.414546,-0.188437
872,-0.0423819999999999,0.998735,-0.027067,0.2059869999999999,0.208159,-0.841432
873,-0.015237,0.999071,-0.040323,0.516275,-0.005021,-0.368475
874,0.006637,0.999974,0.002904,-0.176574,0.509288,0.200648
875,-0.073515,0.997061,-0.021581,-1.397875,2.432398,-0.84286
876,-0.119166,0.992704,0.018369,-1.696416,0.5904560000000001,1.489551
877,-0.09268,0.992667,0.077598,-0.115434,-0.640418,0.326073
878,-0.0892559999999999,0.983718,0.1559859999999999,0.269401,-0.984817,0.577183
879,-0.1391069999999999,0.956428,0.2566989999999999,-0.133934,-0.508568,0.253692
880,-0.232931,0.904042,0.358401,-0.876627,0.4990489999999999,0.4181649999999999
881,-0.3165139999999999,0.850052,0.420987,-0.958891,0.8611139999999999,0.602649
882,-0.326778,0.8328450000000001,0.44675,0.511364,1.065425,-0.143664
883,-0.304131,0.841865,0.445833,1.224984,1.897164,-1.940905
884,-0.313325,0.817529,0.483192,0.793061,0.914618,-1.58364
885,-0.322131,0.79677,0.511262,0.7860590000000001,0.369718,-0.8256540000000001
886,-0.324508,0.790547,0.519356,0.633346,0.202236,-1.394707
887,-0.333669,0.792396,0.5106609999999999,0.634633,0.092401,-1.3361610000000002
888,-0.339099,0.807752,0.4822329999999999,0.660876,-0.24423,-0.579737
889,-0.321756,0.825298,0.464066,0.771936,-0.7026319999999999,0.03096
890,-0.299402,0.849748,0.433921,0.7770020000000001,-0.840867,-0.332602
891,-0.285172,0.8799110000000001,0.380044,0.5146189999999999,-0.686246,-1.105218
892,-0.266133,0.911361,0.313999,-0.047924,0.342485,0.0496949999999999
893,-0.247353,0.937873,0.243331,-0.2466199999999999,0.578286,0.32721
894,-0.2339639999999999,0.960208,0.152518,-0.677764,0.6300939999999999,-0.289526
895,-0.209653,0.975104,0.072228,-0.992709,1.32058,-1.048836
896,-0.178182,0.983995,0.002326,-1.02418,1.31169,-0.978934
897,-0.131992,0.988883,-0.068466,-0.399609,1.6836779999999998,-0.115463
898,-0.0874419999999999,0.987073,-0.134319,-0.632834,1.225986,-0.072712
899,-0.050667,0.97973,-0.193807,-0.806846,0.5691430000000001,-0.055369
900,-0.032213,0.967419,-0.251123,-0.4795819999999999,0.161762,-0.005637
901,-0.035629,0.954785,-0.295155,-0.1670839999999999,-0.270611,0.208882
902,-0.04886,0.945204,-0.322804,0.09871,-0.543287,0.161748
903,-0.0656429999999999,0.942316,-0.3282239999999999,0.341721,-1.277857,0.162986
904,-0.065907,0.950799,-0.302718,0.121739,-2.25541,0.376113
905,-0.038372,0.968713,-0.245201,0.013333,-2.056695,0.442314
906,-0.024679,0.98666,-0.160916,-0.151651,-1.337734,0.346173
907,-0.037446,0.996144,-0.079345,-0.2274769999999999,-0.812596,0.051894
908,-0.054138,0.997998,-0.032685,-0.224853,-0.50105,-0.147308
909,-0.046952,0.997657,-0.049753,0.325455,0.43438,-0.6142489999999999
910,-0.0118079999999999,0.998585,-0.051859,0.1787089999999999,0.707958,0.240625
911,-0.0309279999999999,0.99944,-0.012772,-0.47246,1.441249,0.4854279999999999
912,-0.0949049999999999,0.995177,-0.024825,-2.477544,0.950548,0.786315
913,-0.074672,0.997199,0.004246,-0.5035149999999999,-0.338431,-0.210911
914,-0.064236,0.99599,0.062265,-0.017551,-0.663471,0.8211579999999999
915,-0.081653,0.977052,0.1967269999999999,0.017246,-1.255525,0.6332899999999999
916,-0.143343,0.939357,0.3115449999999999,-0.01541,-0.10371,0.468835
917,-0.241608,0.8891979999999999,0.388525,0.111252,0.377831,0.353128
918,-0.323977,0.848325,0.4187869999999999,-0.710279,1.278872,0.543462
919,-0.331597,0.830261,0.448006,-0.009452,1.456329,0.0886
920,-0.308613,0.826774,0.470322,0.694539,1.717629,-1.950378
921,-0.30771,0.805605,0.5062760000000001,0.8571030000000001,1.00894,-1.294454
922,-0.31938,0.787496,0.527112,0.698271,0.597209,-0.641644
923,-0.334557,0.777528,0.532467,0.438546,0.4846939999999999,-0.8514520000000001
924,-0.34206,0.78069,0.522989,0.618747,-0.241384,-1.059275
925,-0.342096,0.7918149999999999,0.505965,0.8543639999999999,-0.539098,-0.429152
926,-0.323714,0.809233,0.490256,0.909651,-0.64958,-0.12342
927,-0.30751,0.8356040000000001,0.4551949999999999,0.659409,-0.842425,-0.656352
928,-0.292763,0.869966,0.396798,0.344445,-0.565904,-0.705575
929,-0.272986,0.904463,0.327757,0.122793,-0.233351,-0.320235
930,-0.262231,0.932918,0.246778,-0.549079,0.4707989999999999,-0.090757
931,-0.2425179999999999,0.957066,0.158774,-1.039235,0.7812,-0.7436590000000001
932,-0.214863,0.973168,0.082327,-1.019024,1.032722,-1.026297
933,-0.181722,0.98334,0.004482,-0.415904,1.590452,-0.3438219999999999
934,-0.139931,0.987737,-0.069251,-0.077873,1.7998459999999998,-0.131143
935,-0.094967,0.987195,-0.12817,-0.2730599999999999,1.548404,-0.1336099999999999
936,-0.059907,0.980967,-0.184701,-0.334059,0.306936,-0.031134
937,-0.04553,0.969284,-0.241694,-0.280123,0.132706,0.011912
938,-0.052799,0.951552,-0.3029219999999999,0.001484,-0.212111,0.125172
939,-0.088089,0.93366,-0.347159,0.006744,-0.699666,0.16146
940,-0.117041,0.92755,-0.354898,0.0445,-1.57524,0.212641
941,-0.110952,0.939392,-0.324395,0.056387,-1.966705,0.1514059999999999
942,-0.069241,0.963536,-0.258465,-0.0372199999999999,-2.076466,0.392086
943,-0.043094,0.98433,-0.17099,-0.162396,-1.036164,0.319611
944,-0.046777,0.995502,-0.0823899999999999,-0.174475,-0.925601,0.121636
945,-0.0592669999999999,0.997954,-0.0239729999999999,-0.1438579999999999,-0.630416,-0.1246319999999999
946,-0.055536,0.997791,-0.03644,0.285776,0.398388,-0.750471
947,-0.029379,0.998328,-0.049773,0.420339,0.426064,-0.193223
948,-0.051917,0.998302,-0.0264259999999999,-0.772806,1.433049,0.147032
949,-0.123473,0.991933,-0.028704,-2.030336,0.625758,0.950182
950,-0.1102539999999999,0.993836,0.011567,-0.936224,-0.268601,-0.262101
951,-0.105144,0.99227,0.065916,0.111995,-0.636603,0.787157
952,-0.125086,0.977497,0.1698619999999999,-0.00939,-0.969044,0.552016
953,-0.190489,0.938232,0.28885,-0.070376,-0.416687,0.52423
954,-0.299641,0.8739889999999999,0.3825679999999999,-0.929775,0.562595,0.241364
955,-0.365017,0.8257200000000001,0.4300569999999999,-0.752033,1.5767,0.850979
956,-0.35619,0.823235,0.442056,-0.125546,1.663978,0.238028
957,-0.332894,0.8181390000000001,0.46886,1.311577,1.664954,-2.219409
958,-0.334928,0.797533,0.501762,0.8507520000000001,0.830443,-1.003273
959,-0.347601,0.782964,0.515888,0.6849729999999999,0.600581,-0.7204020000000001
960,-0.362432,0.775262,0.517313,0.2458699999999999,0.01673,-1.249658
961,-0.372608,0.777675,0.5063449999999999,0.634235,-0.225215,-0.8974120000000001
962,-0.368956,0.788134,0.492663,0.826994,-0.39139,-0.4939909999999999
963,-0.348468,0.809087,0.473232,1.2450290000000002,-0.842885,-0.2253679999999999
964,-0.33459,0.838867,0.429361,0.850856,-0.955734,-0.973719
965,-0.318708,0.8754270000000001,0.36339,0.603208,-0.8028109999999999,-0.926836
966,-0.297141,0.909471,0.29081,-0.052164,0.536406,0.125618
967,-0.289042,0.93544,0.203484,-0.606115,0.63179,-0.067437
968,-0.26547,0.9581,0.1075619999999999,-1.049182,0.776046,-0.70943
969,-0.232397,0.972107,0.0316279999999999,-0.915842,1.780472,-0.887494
970,-0.195091,0.979872,-0.042311,-0.551094,2.394655,-0.124605
971,-0.150988,0.981607,-0.116835,-0.308393,2.2296970000000003,0.070143
972,-0.113992,0.976019,-0.185455,-0.543754,0.6247050000000001,-0.029053
973,-0.088685,0.963933,-0.250933,-0.332412,0.14564,0.168368
974,-0.075423,0.94985,-0.3034719999999999,-0.282472,0.090433,0.149358
975,-0.082303,0.937544,-0.337991,0.126904,-0.623274,0.175424
976,-0.095159,0.932173,-0.349282,0.099569,-1.237792,0.142327
977,-0.090888,0.939087,-0.331444,0.017707,-2.184479,0.323677
978,-0.060573,0.957693,-0.281343,-0.073201,-1.891608,0.672396
979,-0.03403,0.98127,-0.189608,-0.151868,-1.544914,0.5689270000000001
980,-0.036127,0.995376,-0.089004,-0.224295,-1.060363,0.304397
981,-0.05255,0.998508,-0.014843,-0.265642,-0.480747,-0.248051
982,-0.066996,0.997751,0.002059,0.019953,0.195028,-0.986144
983,-0.0604409999999999,0.997539,-0.035547,0.326676,0.3205,-0.861502
984,-0.030911,0.999218,-0.024666,-0.260654,1.162785,0.397468
985,-0.085726,0.996241,0.012422,-2.717771,1.588735,-1.048921
986,-0.152111,0.98818,0.019034,-3.015812,1.382929,1.067499
987,-0.1247349999999999,0.990691,0.054524,0.008005,-0.399871,0.396023
988,-0.1127859999999999,0.986373,0.1197859999999999,0.41462,-1.204146,0.893642
989,-0.134174,0.961499,0.2398269999999999,0.240115,-1.201672,0.553843
990,-0.207717,0.910179,0.358369,0.119491,-0.085533,0.756926
991,-0.317259,0.855615,0.408985,-1.334017,1.45751,0.8667100000000001
992,-0.347275,0.8381649999999999,0.42057,-0.910186,1.729416,1.009209
993,-0.316844,0.8357209999999999,0.448531,0.974864,1.646014,-2.135375
994,-0.314827,0.814751,0.486893,0.720436,0.6902229999999999,-1.265381
995,-0.326939,0.79404,0.512456,0.443119,0.360409,-0.953145
996,-0.336466,0.785946,0.518728,0.215098,0.1215849999999999,-1.283788
997,-0.34862,0.785802,0.510861,0.6904170000000001,0.005778,-1.2588469999999998
998,-0.359477,0.798417,0.483018,0.821895,-0.178758,-0.783692
999,-0.346559,0.815397,0.463707,0.982438,-0.7044050000000001,0.118522
1000,-0.326675,0.840924,0.431428,0.821106,-0.916974,-0.709336
1001,-0.313913,0.872077,0.375421,0.610697,-0.793647,-1.072671
1002,-0.291441,0.905988,0.306998,0.268293,-0.179715,-0.265494
1003,-0.2652739999999999,0.935979,0.231458,-0.160476,0.5383859999999999,0.194827
1004,-0.2461429999999999,0.958772,0.142018,-0.325604,0.506865,0.331126
1005,-0.221751,0.973884,0.048742,-0.965475,1.427452,-0.841894
1006,-0.189376,0.981807,-0.013848,-0.642533,2.445897,-0.677543
1007,-0.135505,0.988324,-0.069668,-0.5104,2.330905,-0.381442
1008,-0.077588,0.988798,-0.1275109999999999,-0.954531,1.269305,-0.147894
1009,-0.035432,0.981564,-0.187822,-0.751143,0.3361389999999999,0.004991
1010,-0.008187,0.967991,-0.250853,-0.494224,0.220303,0.090712
1011,-0.00323,0.952664,-0.304009,-0.107915,-0.337185,0.108742
1012,-0.0158659999999999,0.940963,-0.3381369999999999,0.001279,-1.115463,-0.065153
1013,-0.029053,0.94174,-0.3350849999999999,0.042602,-1.479475,-0.070815
1014,-0.030225,0.952145,-0.30415,-0.050418,-2.139919,0.291836
1015,-0.014324,0.96928,-0.2455429999999999,-0.04456,-1.7443349999999995,0.615935
1016,-0.003906,0.988512,-0.151094,-0.122223,-1.424349,0.5608989999999999
1017,-0.0152629999999999,0.99787,-0.063417,-0.348003,-0.911963,0.2681739999999999
1018,-0.026521,0.999457,-0.019533,-0.3916159999999999,-0.305915,-0.218108
1019,-0.021539,0.999419,-0.0264149999999999,-0.139655,-0.0092,-0.4092389999999999
1020,0.00724,0.99996,0.005212,0.453942,-0.268912,-0.0073939999999999
1021,0.000745,0.99644,0.084308,-0.377119,0.972448,-0.008152
1022,-0.126669,0.991237,0.037468,-1.7182099999999998,2.667073,-1.016975
1023,-0.141074,0.984311,0.105968,-1.509194,0.427767,0.030888
1024,-0.127155,0.977824,0.166411,0.213886,-0.5817060000000001,0.32448
1025,-0.1335859999999999,0.954614,0.266208,0.370631,-0.949777,0.818524
1026,-0.177752,0.899703,0.3986719999999999,0.189654,-0.691756,0.491206
1027,-0.275344,0.827313,0.4896319999999999,-0.170731,0.320484,0.767158
1028,-0.332602,0.803507,0.493712,-0.7371310000000001,1.424459,0.988145
1029,-0.313285,0.818867,0.480946,0.778938,2.090343,-2.181843
1030,-0.298905,0.804977,0.5125109999999999,0.945069,1.329681,-2.333479
1031,-0.29413,0.789514,0.53866,0.6890729999999999,0.484411,-0.720255
1032,-0.300961,0.779262,0.5497029999999999,0.168317,0.240391,-1.2923790000000002
1033,-0.310243,0.77705,0.54767,0.346056,0.087513,-1.429231
1034,-0.319951,0.7889470000000001,0.5245890000000001,0.6567890000000001,-0.195716,-0.8280709999999999
1035,-0.311587,0.806136,0.503049,0.925997,-0.616225,0.0034969999999999
1036,-0.289417,0.828384,0.479602,0.927128,-0.97319,-0.6857479999999999
1037,-0.283275,0.858215,0.428044,0.627422,-0.792389,-1.084035
1038,-0.27226,0.8916219999999999,0.361781,-0.0858029999999999,0.2322949999999999,-0.123499
1039,-0.256726,0.921665,0.290904,-0.38695,0.556607,0.215932
1040,-0.238846,0.951385,0.194472,-0.849182,0.551438,-0.5298149999999999
1041,-0.207762,0.972047,0.1093619999999999,-0.960726,1.080062,-0.936404
1042,-0.182492,0.982772,0.029244,-0.934054,1.519242,-0.59417
1043,-0.142232,0.988966,-0.04144,-0.4845689999999999,2.095599,-0.230152
1044,-0.087049,0.991229,-0.099432,-0.3977989999999999,1.747555,-0.164743
1045,-0.036833,0.986918,-0.156958,-0.7139909999999999,0.417318,-0.0478149999999999
1046,-0.008067,0.97353,-0.228417,-0.582982,0.2176929999999999,0.137017
1047,-0.011273,0.951593,-0.307155,-0.182162,-0.131204,0.221156
1048,-0.03555,0.933199,-0.357597,0.277188,-1.040728,0.23333
1049,-0.050568,0.930985,-0.361538,0.449723,-1.533326,0.270458
1050,-0.0335209999999999,0.946575,-0.320737,0.176023,-2.414867,0.419217
1051,0.000923,0.970194,-0.242329,-0.49453,-1.664316,0.47968
1052,0.008125,0.98912,-0.146886,-0.358909,-1.072494,0.399541
1053,-0.0099709999999999,0.998099,-0.060824,-0.291634,-0.8406889999999999,0.175753
1054,-0.028344,0.999524,-0.012178,-0.2681949999999999,-0.639401,0.035112
1055,-0.024849,0.998914,-0.039402,0.332176,0.176974,-0.744594
1056,-0.002198,0.999216,-0.039526,0.24698,0.5354979999999999,0.15862
1057,-0.042505,0.998831,-0.023027,-0.334509,1.039865,-0.037626
1058,-0.117644,0.993056,-0.000793,-2.3137830000000004,1.909197,-0.640534
1059,-0.106826,0.992103,0.065722,-0.7831279999999999,-0.123268,-0.101321
1060,-0.104647,0.984564,0.140298,0.0139639999999999,-0.90859,0.709922
1061,-0.13167,0.963301,0.233909,0.163882,-1.0459889999999998,0.617272
1062,-0.207053,0.918966,0.335606,-0.166925,0.059764,0.423351
1063,-0.307906,0.855383,0.41655,-1.135225,0.699976,0.466018
1064,-0.332148,0.836383,0.436051,-1.02036,1.450436,0.96025
1065,-0.309975,0.841355,0.4427609999999999,1.407952,2.143249,-3.022259
1066,-0.2963719999999999,0.826485,0.47863,1.207825,1.213875,-1.837455
1067,-0.28986,0.810851,0.50843,1.079381,0.987855,-1.273735
1068,-0.3058909999999999,0.796891,0.5209560000000001,0.262052,-0.066102,-0.611715
1069,-0.317252,0.793845,0.518808,-0.077752,-0.174292,-1.390283
1070,-0.324785,0.804844,0.49673,0.182039,-0.162358,-1.318934
1071,-0.320387,0.817228,0.479052,0.714095,-0.534986,-0.01784
1072,-0.30448,0.835835,0.456806,1.001776,-0.872548,0.0117299999999999
1073,-0.298628,0.864028,0.405311,1.006377,-1.017348,-0.537742
1074,-0.2861829999999999,0.89569,0.340351,0.316823,-0.530212,-0.6936680000000001
1075,-0.26459,0.925447,0.271183,-0.250288,0.4070269999999999,0.290554
1076,-0.251809,0.949337,0.188019,-0.263069,0.383136,0.373718
1077,-0.236257,0.966958,0.095784,-0.85731,1.365485,-0.784413
1078,-0.210404,0.977311,0.024367,-0.793639,1.86502,-0.981642
1079,-0.16012,0.986488,-0.034674,-0.341925,2.273933,-0.4219
1080,-0.097596,0.989857,-0.10324,-0.302734,1.386181,-0.046388
1081,-0.055849,0.984188,-0.168092,-1.043867,0.442326,-0.026854
1082,-0.032805,0.972226,-0.231735,-0.7786420000000001,0.237476,0.1152349999999999
1083,-0.02469,0.956554,-0.290506,-0.227233,-0.079479,0.02891
1084,-0.031335,0.942442,-0.332898,-0.213675,-0.266875,0.056149
1085,-0.049533,0.93348,-0.355193,-0.2215389999999999,-0.8536,-0.144044
1086,-0.067164,0.936414,-0.344411,0.061472,-2.098782,0.209248
1087,-0.07407,0.949868,-0.303752,0.242588,-2.167733,0.400935
1088,-0.06812,0.972112,-0.224407,0.1905869999999999,-1.556371,0.447704
1089,-0.072862,0.987684,-0.138462,0.049211,-0.769987,0.060887
1090,-0.080507,0.993356,-0.082234,0.116548,-0.236825,0.011372
1091,-0.067382,0.994639,-0.078439,0.1169579999999999,-0.086787,-0.0689
1092,-0.036475,0.995088,-0.092033,-0.576913,1.817962,-0.252724
1093,-0.069486,0.993043,-0.09507,-2.105441,1.947341,-0.403252
1094,-0.080113,0.993811,-0.076954,-1.594859,0.748545,0.364399
1095,-0.066162,0.994563,-0.080419,0.001847,-0.4264479999999999,0.0865529999999999
1096,-0.063458,0.997918,0.011515,0.290127,-1.272973,1.694906
1097,-0.103029,0.981032,0.1642009999999999,-0.015074,-1.338087,1.024276
1098,-0.189715,0.939452,0.285373,-0.398298,0.025529,0.387677
1099,-0.296405,0.892016,0.34125,-1.012143,0.549177,-0.091662
1100,-0.355199,0.85455,0.378917,-1.322535,0.948185,0.192967
1101,-0.346411,0.844823,0.407767,0.0060479999999999,1.481624,-0.061362
1102,-0.338875,0.8260850000000001,0.4502739999999999,1.257988,2.100535,-2.204333
1103,-0.353615,0.799327,0.485832,0.986458,1.550389,-2.125114
1104,-0.370527,0.7794399999999999,0.505156,0.668485,0.450281,-0.832442
1105,-0.376844,0.7734979999999999,0.509598,0.3244,-0.044204,-0.663238
1106,-0.381681,0.775274,0.50326,0.235639,-0.31098,-0.937631
1107,-0.381691,0.787213,0.484363,0.856651,-0.4702119999999999,-0.52782
1108,-0.366975,0.8045180000000001,0.466991,1.119813,-0.716398,0.058048
1109,-0.350833,0.8326100000000001,0.428576,1.088717,-0.8701459999999999,-0.117953
1110,-0.337387,0.866101,0.3688349999999999,0.327484,-0.766278,-1.081543
1111,-0.3185199999999999,0.8987360000000001,0.3013619999999999,-0.088569,-0.227761,-0.08162
1112,-0.296993,0.927466,0.227163,-0.370915,0.188867,0.205088
1113,-0.274079,0.951028,0.142924,-0.810958,0.383888,-0.384242
1114,-0.2464469999999999,0.967017,0.0643519999999999,-0.865506,1.117883,-0.710516
1115,-0.217612,0.97601,0.0069939999999999,-0.8407979999999999,1.577518,-0.7986810000000001
1116,-0.159694,0.985908,-0.049832,0.025158,2.23803,-0.300784
1117,-0.090083,0.990855,-0.100459,-0.38683,1.390554,-0.190068
1118,-0.040898,0.987044,-0.15515,-0.673656,0.943971,-0.077592
1119,-0.012693,0.976021,-0.217308,-0.245333,0.1021649999999999,0.18
1120,-0.00944,0.959292,-0.28226,0.0041909999999999,-0.100573,0.21036
1121,-0.027849,0.942707,-0.332458,0.149416,-0.7383,0.187377
1122,-0.045021,0.93838,-0.342661,-0.49366,-2.137461,0.213175
1123,-0.048882,0.946433,-0.319178,-0.354896,-2.3821790000000003,0.372934
1124,-0.036358,0.965951,-0.256157,-0.2095219999999999,-1.974816,0.511544
1125,-0.036794,0.984694,-0.1703609999999999,-0.093638,-1.032744,0.377667
1126,-0.050828,0.994117,-0.095646,-0.077514,-0.607734,-0.06715
1127,-0.056922,0.99607,-0.067858,0.060447,-0.2615119999999999,-0.306288
1128,-0.032997,0.996367,-0.0785179999999999,0.575965,0.256884,-0.559071
1129,-0.0059299999999999,0.999174,-0.040197,0.297571,0.51552,0.050954
1130,-0.051099,0.998403,-0.024085,-1.894595,1.882136,-0.335946
1131,-0.079162,0.996857,-0.0032189999999999,-2.873063,1.290268,-0.036118
1132,-0.066225,0.997655,0.017263,-0.025542,-0.438756,1.02273
1133,-0.073487,0.990387,0.1171869999999999,0.159638,-0.984467,1.186067
1134,-0.12455,0.957012,0.261947,-0.213386,-0.7229260000000001,0.672913
1135,-0.218808,0.901796,0.372676,-0.530658,0.208571,0.687322
1136,-0.3230159999999999,0.835061,0.445347,-0.9577,0.467002,0.512279
1137,-0.338956,0.816674,0.467067,-0.926944,1.484595,1.289875
1138,-0.313393,0.831576,0.458549,0.690758,2.200041,-2.538245
1139,-0.306662,0.817549,0.487414,1.02793,1.576937,-2.385485
1140,-0.313155,0.803108,0.506904,0.8779129999999999,0.612542,-0.852607
1141,-0.323715,0.797175,0.509628,0.330368,-0.151606,-0.8483430000000001
1142,-0.331549,0.796273,0.505989,0.287817,-0.227776,-1.203972
1143,-0.33521,0.80494,0.489598,0.761937,-0.411034,-0.3386119999999999
1144,-0.318355,0.817492,0.479955,1.053523,-0.7292810000000001,-0.014974
1145,-0.296325,0.841377,0.4519689999999999,1.195007,-0.864815,-0.165027
1146,-0.285721,0.871598,0.398348,0.54483,-0.686447,-1.066119
1147,-0.270356,0.903249,0.33324,0.114503,-0.2621969999999999,-0.499835
1148,-0.252211,0.932307,0.259217,-0.148454,0.088995,-0.0535289999999999
1149,-0.239107,0.955716,0.171562,-0.989622,0.528948,-0.222817
1150,-0.209735,0.97385,0.08734,-1.115186,1.190976,-0.620436
1151,-0.179228,0.983574,0.021431,-1.092134,1.394478,-1.019707
1152,-0.127905,0.990631,-0.047859,-0.184122,1.914215,-0.258385
1153,-0.065223,0.990993,-0.116952,-0.450143,1.405506,-0.020209
1154,-0.021085,0.983146,-0.1816,-0.8913139999999999,1.0773549999999998,0.021551
1155,0.002155,0.968859,-0.247604,-0.660725,0.2720309999999999,-0.090012
1156,0.007275,0.95241,-0.304734,-0.189679,-0.149401,0.125595
1157,-0.0139949999999999,0.936861,-0.349423,0.075656,-0.348634,0.129361
1158,-0.042225,0.931446,-0.3614219999999999,0.1038549999999999,-1.385288,-0.037977
1159,-0.048745,0.939794,-0.3382489999999999,-0.091056,-2.105245,0.129737
1160,-0.040261,0.954893,-0.294209,-0.090812,-2.078504,0.248051
1161,-0.033059,0.975076,-0.219396,-0.048773,-1.287042,0.43453
1162,-0.042081,0.989396,-0.139016,-0.161303,-0.911973,0.320748
1163,-0.051737,0.994986,-0.08559,-0.225561,-0.745475,0.218052
1164,-0.0452459999999999,0.995257,-0.086115,-0.164745,0.1537599999999999,-0.554449
1165,-0.019044,0.992906,-0.117367,-0.991225,2.423293,-0.040119
1166,-0.037266,0.993337,-0.10905,-0.973004,2.422861,-0.048436
1167,-0.044086,0.997871,-0.048067,-0.894559,-1.13639,-1.05792
1168,-0.025212,0.998868,-0.040339,-0.168696,-0.516858,0.609949
1169,-0.034015,0.997983,0.053597,-0.1373869999999999,-0.918286,1.2628700000000002
1170,-0.086631,0.976826,0.195718,-0.432443,-0.622746,0.867957
1171,-0.178842,0.936954,0.300219,-0.449484,0.125805,0.100904
1172,-0.291923,0.884649,0.363563,-0.536324,0.5740460000000001,-0.1603
1173,-0.349733,0.8354969999999999,0.423831,-0.654478,1.969008,1.087827
1174,-0.324276,0.8331069999999999,0.448082,-0.679936,1.971397,1.063576
1175,-0.300394,0.8323870000000001,0.4657189999999999,1.630305,2.340876,-2.696051
1176,-0.296102,0.816822,0.495102,0.969931,0.80357,-1.260773
1177,-0.29718,0.805783,0.5122479999999999,0.560791,-0.076901,-0.542979
1178,-0.302113,0.800779,0.5171859999999999,-0.009609,-0.181028,-0.817601
1179,-0.305646,0.801718,0.5136430000000001,0.363675,-0.296118,-1.098604
1180,-0.3033639999999999,0.809563,0.502571,0.7702680000000001,-0.596688,-0.2720869999999999
1181,-0.287058,0.822832,0.490454,0.898416,-0.66823,-0.054907
1182,-0.276703,0.8477020000000001,0.452589,0.853058,-0.826782,-1.030744
1183,-0.274182,0.8797209999999999,0.388477,0.179074,-0.495063,-1.402851
1184,-0.2637219999999999,0.912898,0.311557,-0.043605,-0.208033,-0.707447
1185,-0.253363,0.940139,0.227915,-0.68104,0.622391,0.462392
1186,-0.231228,0.964221,0.129662,-1.072514,0.8626530000000001,-0.380852
1187,-0.200006,0.978828,0.043525,-0.927588,1.258996,-0.524192
1188,-0.164522,0.986051,-0.025224,-0.2228679999999999,2.667498,-0.528457
1189,-0.09817,0.991257,-0.0881639999999999,0.014766,2.10315,0.026122
1190,-0.033828,0.986748,-0.158696,-0.480393,1.705818,0.039449
1191,0.0018739999999999,0.971542,-0.236861,-0.988355,0.4182899999999999,-0.000901
1192,0.013758,0.947962,-0.318086,-0.468439,-0.003397,0.237061
1193,0.00241,0.921979,-0.387232,-0.328917,-0.124814,0.375467
1194,-0.021556,0.904448,-0.426039,0.3347429999999999,-1.187727,0.27806
1195,-0.042617,0.903108,-0.427293,0.110854,-2.028902,0.295656
1196,-0.033803,0.917596,-0.396074,-0.053385,-2.38363,0.452867
1197,-0.001093,0.945997,-0.324175,-0.431158,-1.745298,0.68088
1198,0.016932,0.974599,-0.223316,-0.4524479999999999,-1.226476,0.547642
1199,0.0105849999999999,0.992,-0.125792,-0.411479,-1.048977,0.363005
1200,-0.01048,0.99829,-0.05751,-0.237292,-0.568526,0.007552
1201,-0.026897,0.998273,-0.0522179999999999,0.018627,0.005999,-0.260755
1202,-0.0147,0.997836,-0.064091,0.192435,0.166074,-0.341869
1203,-0.007489,0.999596,-0.027405,0.0015689999999999,0.738639,0.232483
1204,-0.09176,0.995693,-0.013269,-2.002341,2.1199380000000003,-0.837775
1205,-0.123103,0.991205,0.048553,-2.604863,1.354116,0.734192
1206,-0.104503,0.990212,0.092516,-0.400395,-0.138024,0.2070139999999999
1207,-0.111595,0.979664,0.166749,0.173424,-1.161945,0.692199
1208,-0.150373,0.951268,0.269216,0.2173139999999999,-1.215504,0.439859
1209,-0.238954,0.8984629999999999,0.368329,-0.200819,0.292639,0.636509
1210,-0.318934,0.8469690000000001,0.425352,-1.536932,1.229416,1.628634
1211,-0.307516,0.846649,0.434303,-0.949915,1.683426,1.208642
1212,-0.2876599999999999,0.8429270000000001,0.454671,1.414888,2.484404,-2.71613
1213,-0.289481,0.8229489999999999,0.488831,0.911444,0.829456,-1.268585
1214,-0.303105,0.8086810000000001,0.504145,0.6201369999999999,0.314915,-1.050837
1215,-0.309913,0.802759,0.509443,0.156242,0.008383,-0.7993140000000001
1216,-0.322807,0.803071,0.500872,0.413933,-0.087312,-0.990542
1217,-0.324283,0.81095,0.487033,0.615924,-0.163214,-0.8046300000000001
1218,-0.303517,0.8265370000000001,0.474041,1.145802,-0.690688,-0.060238
1219,-0.288996,0.853433,0.4337439999999999,0.730387,-0.664025,-1.280805
1220,-0.281328,0.8850979999999999,0.37075,0.722719,-0.695691,-1.217811
1221,-0.2601739999999999,0.919502,0.294663,-0.267887,0.54168,0.2458179999999999
1222,-0.239265,0.947639,0.211501,-0.691689,0.477608,0.119905
1223,-0.205515,0.972467,0.109873,-0.917486,0.5409609999999999,-0.359568
1224,-0.169186,0.98541,0.018512,-1.032245,1.603823,-0.983707
1225,-0.131027,0.989834,-0.0553279999999999,-0.711487,2.11179,-0.507157
1226,-0.075272,0.989899,-0.120145,-0.417191,2.000763,-0.036028
1227,-0.022265,0.983211,-0.18111,-1.011228,1.383794,0.006045
1228,0.014128,0.967894,-0.2509619999999999,-0.843001,0.630373,0.019685
1229,0.030237,0.948321,-0.315869,-0.634455,0.143064,0.135601
1230,0.023693,0.927466,-0.373156,-0.05241,-0.430472,0.1706109999999999
1231,0.0014939999999999,0.912786,-0.408436,0.067445,-0.764699,0.137043
1232,-0.0194009999999999,0.913826,-0.405642,0.031547,-1.6859509999999998,-0.00456
1233,-0.027597,0.92513,-0.378645,0.189813,-2.005056,0.5191939999999999
1234,-0.01998,0.948993,-0.314663,0.253714,-2.0032080000000003,0.731655
1235,-0.01511,0.976279,-0.215986,-0.0258899999999999,-1.436347,0.685362
1236,-0.030069,0.991367,-0.127619,-0.2398739999999999,-0.855457,0.272654
1237,-0.0507079999999999,0.995961,-0.0741,-0.129498,-0.314976,-0.159817
1238,-0.055773,0.994958,-0.08336,0.036593,0.012565,-0.299727
1239,-0.027048,0.995606,-0.089645,0.07902,1.140243,-0.456787
1240,-0.049537,0.99725,-0.0551269999999999,-1.990502,2.107975,-1.142383
1241,-0.072245,0.997199,-0.01937,-2.310705,1.3956540000000002,0.057609
1242,-0.050265,0.998377,-0.026769,-0.687895,-0.040385,-0.481989
1243,-0.049129,0.998083,0.037643,-0.063114,-0.972402,1.130417
1244,-0.085939,0.982821,0.16333,0.0372329999999999,-1.353503,1.1114190000000002
1245,-0.16715,0.943079,0.287512,-0.300196,-0.084757,0.70672
1246,-0.288152,0.8831760000000001,0.370094,-0.913295,0.618747,0.062508
1247,-0.338468,0.851989,0.399441,-1.577349,1.221863,0.5862149999999999
1248,-0.320626,0.855318,0.406977,1.621514,2.361479,-2.310068
1249,-0.315089,0.842339,0.437246,1.710306,2.563224,-2.224752
1250,-0.3055989999999999,0.83011,0.466398,0.815762,0.550154,-1.057523
1251,-0.308058,0.819012,0.484067,0.1381359999999999,0.015659,-0.655926
1252,-0.311163,0.816479,0.486353,-0.0759669999999999,-0.162045,-1.230082
1253,-0.319772,0.823407,0.468772,0.494455,-0.225095,-1.049109
1254,-0.321002,0.83436,0.448109,0.8751549999999999,-0.5162899999999999,-0.189579
1255,-0.306713,0.8498870000000001,0.428508,1.082622,-0.861301,0.03954
1256,-0.29703,0.8731899999999999,0.386409,0.962511,-1.018775,-0.780421
1257,-0.288986,0.900322,0.325433,0.364899,-0.610176,-1.108881
1258,-0.270669,0.928315,0.254892,-0.013724,-0.300599,-0.087793
1259,-0.247752,0.952118,0.179137,-0.5532279999999999,0.479721,0.4148409999999999
1260,-0.214693,0.972204,0.093413,-0.861158,0.781885,-0.300246
1261,-0.178643,0.983864,0.009969,-0.95507,1.3719709999999998,-0.54604
1262,-0.1444869999999999,0.988016,-0.054294,-0.8171069999999999,2.256155,-0.722668
1263,-0.08025,0.990502,-0.111647,-0.389126,2.07978,-0.345781
1264,-0.015065,0.985828,-0.1670829999999999,-1.214595,0.7897609999999999,-0.140488
1265,0.029224,0.971706,-0.234379,-0.88335,0.382832,-0.103679
1266,0.05112,0.951351,-0.30384,-0.257144,0.020787,0.084159
1267,0.0458579999999999,0.930168,-0.364259,-0.092168,-0.13459,0.259782
1268,0.026123,0.914155,-0.404521,0.069137,-0.758455,0.261272
1269,0.006892,0.912695,-0.408583,-0.527965,-1.903998,0.249815
1270,-0.00013,0.92192,-0.387381,-0.391045,-1.942611,0.535391
1271,0.000723,0.943594,-0.331104,-0.23696,-1.840582,0.662693
1272,-0.002999,0.971295,-0.2378579999999999,-0.068565,-1.090237,0.483113
1273,-0.021402,0.988572,-0.149224,-0.0358949999999999,-0.929291,0.217858
1274,-0.0287949999999999,0.994808,-0.097616,0.2503829999999999,-0.4324909999999999,0.106527
1275,-0.000683,0.997642,-0.068634,0.5365409999999999,-0.136451,-0.189926
1276,0.035501,0.999182,-0.019355,-0.037073,0.598169,0.229789
1277,-0.0075239999999999,0.999767,-0.020256,-1.159514,2.009358,-0.8828969999999999
1278,-0.033412,0.999334,-0.0146699999999999,-3.096791,1.899195,0.213797
1279,-0.004873,0.999987,-0.001739,-0.06309,-0.222475,0.013519
1280,0.004239,0.995889,0.090482,0.117099,-0.802926,1.267626
1281,-0.032166,0.974848,0.2205389999999999,0.031037,-1.427378,0.999905
1282,-0.1127,0.937699,0.328664,-0.240693,-0.282456,0.8059189999999999
1283,-0.225,0.8936,0.388399,-0.362295,0.4229279999999999,0.186598
1284,-0.285566,0.8593139999999999,0.424301,-0.965548,1.240585,-0.007537
1285,-0.285694,0.848973,0.44455,0.445087,1.7298240000000005,-0.607071
1286,-0.282547,0.842622,0.458428,0.998031,2.109542,-2.072396
1287,-0.277269,0.8286629999999999,0.486251,0.7534810000000001,0.926449,-1.138458
1288,-0.2802469999999999,0.815018,0.507156,0.678944,0.180938,-0.684509
1289,-0.28768,0.810666,0.509961,0.282614,0.099551,-0.737394
1290,-0.2953989999999999,0.815901,0.497036,0.55402,-0.196913,-0.975399
1291,-0.294522,0.829525,0.4744939999999999,0.7933319999999999,-0.476971,-0.250861
1292,-0.277032,0.8465219999999999,0.454592,0.8624200000000001,-0.6068520000000001,0.024763
1293,-0.262963,0.870075,0.416918,0.7373890000000001,-1.010807,-0.814836
1294,-0.251606,0.9001530000000001,0.355554,0.313663,-0.613395,-0.8563930000000001
1295,-0.231868,0.93022,0.284477,0.080822,-0.300505,-0.4745399999999999
1296,-0.213507,0.955602,0.203077,-0.8931520000000001,0.497706,-0.13516
1297,-0.181309,0.975472,0.124825,-1.021465,0.683647,-0.488472
1298,-0.150214,0.987134,0.054789,-0.981973,0.8461790000000001,-0.779215
1299,-0.110277,0.993823,-0.012484,-0.486281,2.063444,-0.299238
1300,-0.051355,0.99582,-0.075531,-0.318869,2.015502,-0.111191
1301,-0.0018329999999999,0.990968,-0.1340849999999999,-0.566191,1.622664,-0.104699
1302,0.031514,0.978227,-0.205131,-0.654775,0.426909,0.02285
1303,0.047467,0.958816,-0.280034,-0.486829,0.043854,0.131825
1304,0.041885,0.936547,-0.34803,-0.317367,-0.044198,0.173759
1305,0.015309,0.920071,-0.391453,0.014827,-0.6979489999999999,0.065968
1306,-0.010422,0.920203,-0.391303,0.013306,-1.64942,0.210166
1307,-0.010994,0.932463,-0.361097,-0.155831,-1.969069,0.3022289999999999
1308,0.011562,0.954837,-0.296904,-0.0946159999999999,-2.004963,0.6458109999999999
1309,0.025998,0.978793,-0.203197,-0.298398,-1.079165,0.407375
1310,0.019928,0.99357,-0.111451,-0.330887,-0.971964,0.193681
1311,0.00687,0.998149,-0.060425,-0.018009,-0.234325,-0.462097
1312,0.009969,0.997859,-0.064634,0.461863,0.269582,-0.63759
1313,0.028702,0.999134,-0.0301339999999999,0.333023,0.213238,-0.06798
1314,-0.021872,0.999658,0.014346,-3.189721,2.335013,-1.402835
1315,-0.068627,0.995587,0.064007,-3.230064,1.55141,0.596637
1316,-0.050558,0.994164,0.095303,-0.802683,-0.173317,-0.5254479999999999
1317,-0.060238,0.984878,0.162439,0.057675,-0.736251,1.001516
1318,-0.1044269999999999,0.954873,0.27805,0.077191,-0.921686,0.360012
1319,-0.180573,0.902392,0.391256,-0.015502,-0.218875,0.781656
1320,-0.267447,0.8423700000000001,0.467851,-0.766809,0.656775,0.6875140000000001
1321,-0.284249,0.8167409999999999,0.5021329999999999,-0.347648,1.220644,0.717334
1322,-0.267995,0.8308180000000001,0.48777,0.37563,1.46685,-0.320534
1323,-0.264888,0.8151689999999999,0.5151060000000001,0.978663,1.23076,-1.575943
1324,-0.2625679999999999,0.8015439999999999,0.537201,0.559459,0.284516,-0.48996
1325,-0.267115,0.796038,0.543114,0.327082,0.030195,-0.651971
1326,-0.2696429999999999,0.795652,0.542431,0.225652,-0.217084,-1.420864
1327,-0.275389,0.810635,0.516752,0.663954,-0.520092,-0.247907
1328,-0.264519,0.8278979999999999,0.494585,0.797005,-0.701799,-0.036898
1329,-0.2417909999999999,0.850482,0.467138,0.912919,-1.018908,-0.312246
1330,-0.22896,0.879575,0.4170439999999999,0.295229,-0.541058,-1.278998
1331,-0.2146489999999999,0.912255,0.34888,0.1192049999999999,-0.234673,-0.693149
1332,-0.199843,0.94068,0.2741949999999999,-0.378694,0.556924,0.203771
1333,-0.190302,0.963913,0.186166,-1.398291,1.128434,-0.545449
1334,-0.158117,0.982216,0.101241,-1.374048,1.354072,-0.974715
1335,-0.1288369999999999,0.991188,0.030793,-0.94555,2.080864,-0.592072
1336,-0.078788,0.995905,-0.044343,-0.272454,1.7513029999999998,-0.166488
1337,-0.018417,0.993469,-0.112604,-0.6156010000000001,1.33313,-0.199347
1338,0.025289,0.98376,-0.1777,-0.790456,0.536596,-0.060291
1339,0.053286,0.966543,-0.250909,-0.408235,-0.000112,0.065729
1340,0.05892,0.944484,-0.323231,-0.289556,-0.116481,0.210698
1341,0.043493,0.923843,-0.380293,0.194986,-1.152313,0.0230539999999999
1342,0.025087,0.919158,-0.3930889999999999,-0.214861,-2.065521,0.021125
1343,0.024925,0.932893,-0.35929,-0.314034,-2.308809,0.141563
1344,0.030743,0.952188,-0.303962,-0.115475,-1.741464,0.636496
1345,0.0369209999999999,0.976252,-0.21347,-0.12617,-1.047724,0.562621
1346,0.019919,0.99349,-0.112166,-0.176596,-0.895971,0.418425
1347,-0.008784,0.999241,-0.037965,-0.04337,-0.363865,0.012559
1348,-0.022889,0.999506,-0.021551,0.300095,0.254553,-0.02453
1349,-0.002301,0.999747,-0.0223699999999999,0.448514,0.185922,-0.333404
1350,0.010102,0.999526,0.029077,-1.18863,1.711152,-1.1725709999999998
1351,-0.0638919999999999,0.997903,0.010371,-3.19447,2.192801,-0.161266
1352,-0.074485,0.996879,0.0261399999999999,-1.956963,1.01191,0.8347
1353,-0.0528019999999999,0.994419,0.091333,0.122092,-0.943867,0.5334220000000001
1354,-0.040931,0.977822,0.205401,0.276786,-1.231606,0.6969420000000001
1355,-0.078052,0.944969,0.317713,0.147174,-1.087486,0.286886
1356,-0.1634,0.895275,0.414467,-0.189307,0.445835,0.323661
1357,-0.284494,0.839319,0.463257,-1.285315,1.196692,0.3473199999999999
1358,-0.31778,0.809523,0.493648,-1.064345,1.626771,0.853902
1359,-0.281059,0.8229350000000001,0.4937439999999999,1.100762,1.360506,-2.750473
1360,-0.266314,0.816918,0.511588,0.726321,0.871483,-1.7071900000000002
1361,-0.271034,0.798661,0.5372899999999999,0.633781,0.7456050000000001,-1.14018
1362,-0.277468,0.7951239999999999,0.539249,0.210787,0.437664,-1.008868
1363,-0.281586,0.7965479999999999,0.534995,0.257401,-0.026162,-0.7150029999999999
1364,-0.289463,0.805044,0.517798,0.380314,-0.2664849999999999,-0.623908
1365,-0.28249,0.817808,0.5013880000000001,0.912693,-0.674131,-0.304977
1366,-0.2717489999999999,0.8387100000000001,0.47193,0.973455,-0.8248700000000001,-0.682242
1367,-0.264181,0.8667290000000001,0.423071,0.717229,-0.753433,-0.999213
1368,-0.248719,0.8989790000000001,0.3605219999999999,0.083131,-0.532417,-0.810763
1369,-0.228812,0.931683,0.282155,-0.259714,0.076328,0.05572
1370,-0.218305,0.956272,0.194644,-0.555331,0.513821,0.372052
1371,-0.205033,0.974096,0.095384,-1.056502,1.278834,-0.4526229999999999
1372,-0.176376,0.984195,0.015895,-0.6985180000000001,1.765454,-0.5287729999999999
1373,-0.130762,0.990407,-0.044667,-0.277228,2.396159,-0.5013989999999999
1374,-0.059519,0.99186,-0.112563,-0.081594,1.462821,-0.220903
1375,-0.00179,0.983408,-0.181401,-1.055553,0.923254,-0.086604
1376,0.0300129999999999,0.966592,-0.254557,-0.830016,0.241248,0.121806
1377,0.040866,0.944625,-0.325598,-0.3839909999999999,-0.141066,-0.028803
1378,0.022444,0.927935,-0.372066,-0.238203,-0.777666,0.203441
1379,-0.003587,0.919597,-0.392847,-0.23564,-1.025981,0.127863
1380,-0.022524,0.923381,-0.383223,-0.342573,-1.54121,-0.101106
1381,-0.030608,0.939535,-0.341082,-0.055848,-1.794134,0.107806
1382,-0.0284709999999999,0.960684,-0.276182,0.139814,-1.7505849999999998,0.2786079999999999
1383,-0.0165,0.983296,-0.181264,0.0990809999999999,-1.321919,0.219686
1384,-0.025911,0.99504,-0.0960429999999999,0.108553,-0.604064,0.19547
1385,-0.039851,0.998009,-0.048897,0.130549,-0.263771,0.15937
1386,-0.02719,0.998886,-0.0385579999999999,0.249113,0.07962,-0.31366
1387,0.008859,0.999915,-0.009581,0.01824,-0.037589,0.315123
1388,0.00697,0.997951,0.063607,-0.389813,0.730275,0.6078100000000001
1389,-0.076809,0.99666,0.027725,-2.702747,1.7107830000000002,0.506363
1390,-0.082369,0.995651,0.043525,-0.655882,-0.047867,-0.446799
1391,-0.08038,0.993854,0.076112,-0.195331,-0.365192,0.133468
1392,-0.095119,0.980652,0.1711,0.1214099999999999,-1.125518,0.615491
1393,-0.1493519999999999,0.942889,0.297748,-0.268235,-0.361133,0.787335
1394,-0.239594,0.8804299999999999,0.4091909999999999,-0.43193,0.114901,0.7498819999999999
1395,-0.310596,0.8243940000000001,0.4731859999999999,-0.816128,1.072793,1.279042
1396,-0.303078,0.818411,0.488208,0.749046,1.52041,-0.097919
1397,-0.2877159999999999,0.832734,0.4730479999999999,1.439067,2.367828,-4.137996
1398,-0.290543,0.8141930000000001,0.502667,0.592697,0.5381020000000001,-0.936856
1399,-0.294968,0.799353,0.5234770000000001,0.428376,0.293558,-0.679163
1400,-0.305927,0.7925449999999999,0.527524,0.301822,0.239361,-0.896908
1401,-0.320837,0.791443,0.520271,0.551214,-0.0955049999999999,-1.099693
1402,-0.327602,0.803245,0.497468,0.745708,-0.355796,-0.311707
1403,-0.311017,0.820367,0.479861,0.848828,-0.5210199999999999,-0.094302
1404,-0.289923,0.844464,0.4503609999999999,0.888373,-0.857785,-0.742521
1405,-0.279676,0.875699,0.3936159999999999,0.4823739999999999,-0.6004149999999999,-0.8901979999999999
1406,-0.265473,0.905607,0.330758,0.259766,-0.401288,-0.528878
1407,-0.248319,0.932423,0.262535,-0.393374,0.404445,0.316643
1408,-0.232959,0.956035,0.178122,-1.040173,0.725621,-0.517081
1409,-0.20179,0.973968,0.103279,-1.0473709999999998,1.132187,-0.550225
1410,-0.169402,0.984763,0.039316,-0.706041,2.234155,-0.5200739999999999
1411,-0.112195,0.993133,-0.033147,-0.4110439999999999,1.59224,-0.151164
1412,-0.045399,0.994195,-0.097546,-0.597209,1.30355,-0.079608
1413,0.004134,0.987279,-0.158941,-0.8698110000000001,0.280634,-0.076365
1414,0.037098,0.972481,-0.230009,-0.449147,-0.066002,-0.07799
1415,0.047224,0.953827,-0.29662,-0.300138,-0.203263,-0.0895799999999999
1416,0.030872,0.938499,-0.3438989999999999,0.166013,-0.722663,0.000469
1417,0.00301,0.934034,-0.357172,0.277569,-1.420026,-0.047049
1418,-0.014511,0.94734,-0.319899,0.138352,-1.75627,-0.050966
1419,-0.013404,0.967546,-0.252339,0.033637,-1.906664,0.166279
1420,-0.005345,0.985722,-0.168298,-0.106441,-1.0204959999999998,0.265359
1421,-0.0152729999999999,0.995966,-0.088422,-0.170244,-0.760141,0.221478
1422,-0.034879,0.998981,-0.0286319999999999,-0.306963,-0.234165,0.094382
1423,-0.038299,0.999154,-0.0149629999999999,0.00949,0.094626,-0.149939
1424,-0.015156,0.999768,-0.015295,0.1622819999999999,-0.061582,-0.34849
1425,-0.005362,0.999535,0.030031,-1.937722,1.951164,-1.236543
1426,-0.069089,0.996878,0.038237,-2.69849,2.278895,-1.208876
1427,-0.081235,0.993148,0.084008,-1.400683,0.408494,0.396171
1428,-0.06946,0.991823,0.1070599999999999,-0.258894,-0.394793,-0.18131
1429,-0.0915049999999999,0.963647,0.251021,-0.110979,-1.234796,0.672365
1430,-0.144084,0.924175,0.353751,-0.21616,-0.944805,0.285104
1431,-0.229659,0.867326,0.441591,-0.38759,0.0456839999999999,0.2424909999999999
1432,-0.31888,0.810153,0.491902,-0.715147,0.831617,0.4301859999999999
1433,-0.356746,0.757554,0.546667,-0.619893,1.048156,0.7060029999999999
1434,-0.334018,0.751256,0.5692510000000001,0.676975,1.676174,-0.1765509999999999
1435,-0.316306,0.742872,0.589993,1.3916540000000002,2.253542,-2.062024
1436,-0.318355,0.721629,0.614737,1.0779219999999998,1.07259,-1.169119
1437,-0.325524,0.712497,0.621596,0.685601,0.608959,-0.915144
1438,-0.327166,0.708957,0.6247729999999999,0.465075,0.028912,-1.157656
1439,-0.33463,0.718093,0.610217,0.6144609999999999,-0.090728,-0.99631
1440,-0.329529,0.736946,0.590187,1.063568,-0.600792,-0.287224
1441,-0.309302,0.765618,0.564058,0.997321,-0.762414,-0.498033
1442,-0.296533,0.8003819999999999,0.5210140000000001,0.86915,-0.894697,-1.009585
1443,-0.29075,0.840649,0.456918,0.1333099999999999,-0.041745,-0.381692
1444,-0.2768489999999999,0.879222,0.387715,-0.339591,0.436192,0.03857
1445,-0.272041,0.916317,0.293865,-0.762093,0.440052,-0.448345
1446,-0.2452599999999999,0.946443,0.209983,-1.212717,0.944228,-1.2195049999999998
1447,-0.212171,0.967062,0.140623,-0.782061,1.623713,-0.470426
1448,-0.168238,0.983481,0.066791,-0.689611,1.887765,-0.291354
1449,-0.119497,0.992832,-0.002426,-0.540385,1.345471,-0.291962
1450,-0.071007,0.995745,-0.0587409999999999,-0.591179,0.648573,-0.150549
1451,-0.027401,0.992212,-0.1215099999999999,-0.523319,0.470847,-0.11465
1452,-0.002971,0.981354,-0.192187,-0.249882,0.021957,-0.139569
1453,-0.010612,0.965404,-0.2605429999999999,0.1134869999999999,-0.5517380000000001,-0.02733
1454,-0.040386,0.95416,-0.296559,0.35104,-0.8443430000000001,0.1638079999999999
1455,-0.058655,0.958371,-0.279436,0.090409,-2.284329,0.193941
1456,-0.038385,0.972788,-0.228494,-0.055319,-2.353556,0.400003
1457,-0.013489,0.989109,-0.146564,-0.279587,-2.0105630000000003,0.321338
1458,-0.012109,0.998721,-0.049095,-0.311637,-1.048419,0.133141
1459,-0.0359089999999999,0.998521,0.040813,-0.169047,-0.782564,-0.094921
1460,-0.065846,0.994319,0.083635,-0.083812,-0.589167,-0.226488
1461,-0.074009,0.994718,0.071121,0.263584,0.351702,-0.368408
1462,-0.086592,0.992966,0.0807539999999999,-0.91031,1.895722,-0.100117
1463,-0.157469,0.982489,0.099598,-2.01549,2.684641,-1.238315
1464,-0.1668609999999999,0.976517,0.136282,-0.906229,-0.270447,-0.7672479999999999
1465,-0.15284,0.97311,0.172329,0.151833,-1.054744,0.773213
1466,-0.163433,0.954367,0.2499469999999999,0.208904,-1.171606,0.754203
1467,-0.2176159999999999,0.913832,0.342861,-0.163732,0.0447399999999999,0.6499520000000001
1468,-0.317509,0.849714,0.420921,-0.948864,0.549349,0.374932
1469,-0.400744,0.779425,0.4815609999999999,-1.067808,0.85296,0.380835
1470,-0.391599,0.765482,0.510576,0.2529889999999999,1.42214,0.181517
1471,-0.357633,0.771863,0.525668,0.924482,1.537433,-0.947528
1472,-0.3469239999999999,0.751447,0.5612229999999999,1.139924,2.05437,-1.80544
1473,-0.349812,0.733682,0.582531,0.282261,0.410589,-1.101406
1474,-0.355126,0.7279909999999999,0.586443,0.116326,0.353644,-1.172182
1475,-0.3638639999999999,0.726695,0.582681,0.155231,-0.1243089999999999,-1.047982
1476,-0.374325,0.733086,0.567861,0.577755,-0.289787,-0.738317
1477,-0.368359,0.744684,0.556558,1.068844,-0.681269,-0.336038
1478,-0.357619,0.768716,0.530267,1.249267,-0.780267,-0.4395229999999999
1479,-0.355257,0.797188,0.4881439999999999,0.592806,-0.620476,-0.989364
1480,-0.354067,0.830541,0.429927,0.447009,-0.502462,-0.783366
1481,-0.343411,0.8674270000000001,0.360055,-0.043125,0.234197,-0.1018309999999999
1482,-0.334908,0.899566,0.280388,-0.8325879999999999,0.544007,-0.343116
1483,-0.30165,0.932407,0.199061,-0.832506,0.876569,-0.462321
1484,-0.265547,0.954913,0.132764,-0.593096,1.826215,-1.083295
1485,-0.2134449999999999,0.974415,0.07041,-0.308604,2.362271,-0.586477
1486,-0.1518509999999999,0.988377,0.0071569999999999,-0.5715680000000001,1.619792,-0.190125
1487,-0.106713,0.992563,-0.058574,-1.175147,0.8311059999999999,-0.091267
1488,-0.074321,0.988323,-0.133018,-0.525227,0.109471,-0.140419
1489,-0.053978,0.978441,-0.199346,-0.128746,-0.085116,-0.119334
1490,-0.050348,0.968426,-0.244164,0.02247,-0.305569,-0.039954
1491,-0.058709,0.962176,-0.266026,0.096978,-1.038424,-0.082194
1492,-0.069411,0.965157,-0.252299,-0.071641,-1.799965,0.014613
1493,-0.069752,0.974441,-0.21354,-0.0616559999999999,-2.0173330000000003,-0.00643
1494,-0.058269,0.986501,-0.153041,0.102916,-1.689061,0.330943
1495,-0.054361,0.996177,-0.068389,-0.030463,-1.077369,0.2832179999999999
1496,-0.076298,0.996919,0.018199,-0.116085,-0.887346,0.189442
1497,-0.1065599999999999,0.991336,0.076795,-0.24575,-0.339832,-0.118559
1498,-0.1198289999999999,0.9894,0.082032,-0.000334,0.140453,-0.3165449999999999
1499,-0.104896,0.99201,0.070095,0.157416,0.192774,-0.628536
1500,-0.128939,0.988623,0.077449,-2.1091740000000003,2.240273,-1.833415
1501,-0.166693,0.981116,0.098104,-1.402185,0.2712489999999999,0.366984
1502,-0.158866,0.980777,0.1133079999999999,-0.7164229999999999,-0.535876,-0.516079
1503,-0.1600599999999999,0.968054,0.193009,0.134349,-0.916266,0.8368680000000001
1504,-0.214303,0.919205,0.330357,-0.006095,-0.998215,0.627346
1505,-0.294528,0.8587,0.4193909999999999,-0.108548,-0.424206,0.624402
1506,-0.401277,0.781305,0.4780569999999999,-0.723784,0.810674,0.202729
1507,-0.4626689999999999,0.71162,0.52871,-0.84272,1.563038,0.8901129999999999
1508,-0.443212,0.71129,0.545555,0.014227,1.852141,0.35331
1509,-0.4135569999999999,0.6974060000000001,0.585317,1.155103,1.859418,-1.85526
1510,-0.3871719999999999,0.677092,0.625814,1.0795549999999998,1.040712,-1.3125209999999998
1511,-0.385959,0.6582399999999999,0.6463399999999999,0.725711,0.714013,-1.396004
1512,-0.390278,0.6531819999999999,0.648872,0.024769,0.190583,-1.023628
1513,-0.395926,0.652941,0.645686,0.341376,-0.1159839999999999,-1.061839
1514,-0.401972,0.666295,0.628067,0.556666,-0.123449,-0.939926
1515,-0.391639,0.684016,0.61542,1.034919,-0.511988,-0.281313
1516,-0.376631,0.7118220000000001,0.592839,1.145124,-0.807403,-0.729696
1517,-0.372752,0.751872,0.543824,0.86941,-0.749111,-1.19159
1518,-0.361001,0.797193,0.483904,0.145485,-0.383893,-0.588808
1519,-0.340468,0.843607,0.415221,-0.392762,0.454077,0.102052
1520,-0.328854,0.884509,0.330906,-0.5931890000000001,0.386991,-0.056675
1521,-0.313198,0.918541,0.241223,-1.023686,1.345207,-1.054944
1522,-0.293674,0.939932,0.174019,-0.87077,1.865274,-0.886437
1523,-0.25113,0.960273,0.121695,-0.431014,2.286782,-0.603201
1524,-0.188667,0.980234,0.059547,-0.3194659999999999,1.467901,-0.4195939999999999
1525,-0.134052,0.99097,-0.002829,-0.769864,0.798992,-0.251092
1526,-0.098446,0.992566,-0.07157,-0.5375409999999999,0.239917,-0.1541539999999999
1527,-0.080975,0.987566,-0.134747,-0.0591,-0.179338,0.056362
1528,-0.072031,0.980656,-0.182005,0.091409,-0.442173,-0.057771
1529,-0.0725919999999999,0.976587,-0.202503,0.095221,-1.076136,-0.199474
1530,-0.076299,0.979462,-0.186637,-0.182902,-2.258224,-0.005059
1531,-0.076261,0.985889,-0.149019,0.020719,-2.175373,0.223588
1532,-0.073367,0.994405,-0.076,0.049899,-1.733312,0.346706
1533,-0.087279,0.996029,0.01758,6e-05,-0.8582569999999999,0.092726
1534,-0.116276,0.98844,0.0972919999999999,0.014851,-0.6671050000000001,-0.041094
1535,-0.140077,0.980937,0.134688,0.18065,-0.229778,-0.15225
1536,-0.1378319999999999,0.982109,0.128317,0.389113,0.513649,-0.698263
1537,-0.139462,0.981848,0.128546,-1.362384,3.074243,-0.644171
1538,-0.1992529999999999,0.970769,0.133812,-2.502484,2.843562,-1.534935
1539,-0.180395,0.973036,0.14373,-0.584635,-0.571242,-1.110298
1540,-0.153534,0.977422,0.145165,0.242203,-0.938451,0.849174
1541,-0.160367,0.957155,0.241117,0.380338,-1.3239299999999998,1.141146
1542,-0.2153949999999999,0.904398,0.3683329999999999,-0.172452,-0.666437,0.4315479999999999
1543,-0.315513,0.838043,0.4451229999999999,-0.346215,0.437759,0.190695
1544,-0.441902,0.758667,0.478693,-0.785378,0.798629,-0.225
1545,-0.468046,0.7156319999999999,0.518462,-0.596575,1.816976,0.5745859999999999
1546,-0.425101,0.714299,0.555937,1.69303,2.1192580000000003,-2.313124
1547,-0.403572,0.699597,0.589655,1.50747,2.177142,-2.279703
1548,-0.394177,0.679897,0.618356,0.872403,0.7578010000000001,-1.078958
1549,-0.3957469999999999,0.668155,0.630043,0.166819,0.140897,-0.714363
1550,-0.39396,0.66509,0.63439,0.0742879999999999,-0.011968,-0.905585
1551,-0.403557,0.667187,0.626102,0.504296,-0.211757,-1.108905
1552,-0.403545,0.678189,0.614175,0.982463,-0.324353,-0.44668
1553,-0.393432,0.69563,0.60109,1.166473,-0.446821,-0.264955
1554,-0.390005,0.724908,0.567807,0.941061,-0.741662,-0.938748
1555,-0.390024,0.76377,0.5143310000000001,0.471628,-0.5335300000000001,-1.256946
1556,-0.380417,0.808325,0.449325,0.185593,-0.456,-0.956802
1557,-0.366982,0.850187,0.3775,-0.5332560000000001,0.573336,0.06647
1558,-0.354131,0.886867,0.296747,-0.942012,0.631779,-0.444651
1559,-0.336469,0.915264,0.2215389999999999,-0.980914,0.972644,-0.519406
1560,-0.315525,0.933973,0.167743,-0.334469,2.357912,-0.552417
1561,-0.263243,0.958892,0.105971,0.021406,1.8546,-0.439391
1562,-0.20112,0.978782,0.039201,-0.052344,1.464776,-0.361604
1563,-0.158959,0.987,-0.02373,-0.679145,0.531509,-0.307874
1564,-0.1325,0.98776,-0.082304,-0.346366,0.170535,-0.193727
1565,-0.116121,0.984575,-0.130872,-0.218428,0.0594919999999999,-0.067004
1566,-0.106428,0.980799,-0.163422,-0.028505,-0.544107,-0.144744
1567,-0.1028819999999999,0.979094,-0.175469,-0.161934,-1.214202,-0.074363
1568,-0.101259,0.982549,-0.156024,-0.202544,-1.786153,-0.118741
1569,-0.095452,0.989649,-0.1071579999999999,0.252633,-1.874049,0.410777
1570,-0.096637,0.99506,-0.022727,0.177722,-1.217259,0.223152
1571,-0.115462,0.991013,0.0675419999999999,0.1741319999999999,-0.964631,0.052774
1572,-0.141208,0.98178,0.127152,0.165759,-0.417541,-0.249771
1573,-0.154184,0.979466,0.129902,0.319544,0.387783,-0.744785
1574,-0.138547,0.98385,0.113331,0.38841,0.330283,-0.8525729999999999
1575,-0.1479069999999999,0.978348,0.14477,-0.451031,0.946106,0.230764
1576,-0.206901,0.968979,0.135174,-2.80314,2.200348,-1.375332
1577,-0.194301,0.970932,0.1397779999999999,-1.036565,-0.14624,-0.364754
1578,-0.179554,0.970487,0.160984,0.010975,-0.604795,-0.1316109999999999
1579,-0.197873,0.942466,0.269452,0.331082,-1.228278,0.904041
1580,-0.25885,0.882878,0.39182,0.034851,-0.973531,0.428096
1581,-0.365262,0.804497,0.468368,-0.4430729999999999,0.568763,0.221238
1582,-0.4757649999999999,0.715996,0.510879,-1.000859,0.979744,-0.163787
1583,-0.478014,0.6862739999999999,0.548207,-0.738722,2.108023,0.8962049999999999
1584,-0.425401,0.699203,0.574587,1.168336,1.934327,-1.7583939999999998
1585,-0.400813,0.680998,0.612854,1.180735,1.640764,-1.980347
1586,-0.399032,0.660413,0.636103,0.8303370000000001,0.71126,-1.036952
1587,-0.405207,0.649601,0.643293,0.118448,0.074353,-1.218184
1588,-0.409713,0.649429,0.6406069999999999,0.527633,0.008439,-1.309964
1589,-0.4183989999999999,0.6629229999999999,0.6208670000000001,0.717837,-0.120931,-1.076403
1590,-0.410196,0.6805640000000001,0.607101,1.026605,-0.515525,-0.1242819999999999
1591,-0.3961449999999999,0.7070420000000001,0.585799,0.924968,-0.826259,-0.528563
1592,-0.392817,0.744672,0.5395909999999999,0.739039,-0.7795989999999999,-0.964747
1593,-0.384891,0.789373,0.478277,0.256367,-0.079671,-0.548147
1594,-0.368567,0.8333889999999999,0.41185,-0.1875089999999999,0.569519,0.0532529999999999
1595,-0.359834,0.874398,0.325498,-0.4141069999999999,0.539726,-0.181973
1596,-0.337115,0.90808,0.2484829999999999,-0.815244,1.2438360000000002,-0.950845
1597,-0.304417,0.933175,0.1910859999999999,-0.7950699999999999,1.554938,-1.179063
1598,-0.2479289999999999,0.959753,0.131929,-0.4425159999999999,2.244883,-0.5684680000000001
1599,-0.190922,0.979108,0.06998,-0.332638,1.7213009999999995,-0.2015559999999999
1600,-0.147805,0.989005,0.004862,-0.899466,0.8567440000000001,-0.2058969999999999
1601,-0.115559,0.991237,-0.063998,-0.472652,0.176244,-0.100019
1602,-0.095853,0.987725,-0.123333,-0.215136,-0.153329,-0.066593
1603,-0.086408,0.982569,-0.164598,0.004102,-0.5800569999999999,-0.110121
1604,-0.083593,0.980668,-0.176927,0.051,-0.867951,-0.107222
1605,-0.079577,0.985554,-0.149501,-0.079557,-2.14304,-0.164556
1606,-0.064626,0.993025,-0.098611,0.105093,-2.344817,0.265969
1607,-0.050801,0.998599,-0.014831,0.03513,-1.990832,0.275039
1608,-0.0684,0.994388,0.080711,-0.129384,-0.981616,0.223946
1609,-0.100594,0.983132,0.152748,-0.126289,-0.747414,-0.042289
1610,-0.125399,0.978267,0.165133,-0.023359,-0.436275,-0.270282
1611,-0.125053,0.981613,0.144215,0.4535439999999999,0.449631,-0.757085
1612,-0.14959,0.979435,0.1353849999999999,-1.14373,2.42451,-0.618799
1613,-0.2095199999999999,0.964137,0.162916,-2.309188,1.494527,0.477862
1614,-0.197166,0.963947,0.178697,-0.7262350000000001,-0.330264,-1.040971
1615,-0.195725,0.954361,0.225583,0.1069339999999999,-0.595047,1.029224
1616,-0.227684,0.922017,0.313121,0.130775,-1.170567,0.994908
1617,-0.296883,0.862985,0.4088,-0.2571179999999999,0.107749,0.378645
1618,-0.397465,0.780695,0.482221,-0.369304,0.496283,0.143923
1619,-0.4653359999999999,0.707076,0.532453,-0.898174,0.923341,0.133959
1620,-0.451605,0.68788,0.56822,-0.161463,1.736619,0.12755
1621,-0.406412,0.6946140000000001,0.5935819999999999,0.599757,1.797543,-0.226486
1622,-0.395014,0.67423,0.624001,0.995493,1.312418,-1.653588
1623,-0.405871,0.651662,0.640785,0.611742,0.203745,-0.884605
1624,-0.413178,0.6436069999999999,0.644246,0.582444,0.1903619999999999,-0.7282
1625,-0.424951,0.6409100000000001,0.639258,0.2336369999999999,0.0689289999999999,-1.280036
1626,-0.4263659999999999,0.650642,0.628393,0.99735,-0.230674,-0.480642
1627,-0.412162,0.667625,0.62,1.256584,-0.567329,-0.295766
1628,-0.406074,0.694854,0.593534,1.268973,-0.727813,-0.558195
1629,-0.412641,0.728941,0.546234,0.563444,-0.524305,-1.041275
1630,-0.4130939999999999,0.771493,0.483893,0.159966,0.142188,-0.348913
1631,-0.406998,0.813469,0.4154779999999999,-0.127411,0.50576,0.039021
1632,-0.392599,0.857634,0.332161,-0.946482,0.8340780000000001,-0.7129439999999999
1633,-0.358131,0.897008,0.2590719999999999,-0.780587,1.0552780000000002,-0.8758319999999999
1634,-0.317975,0.927502,0.196551,-0.6362939999999999,1.860981,-0.989794
1635,-0.260969,0.956374,0.131319,-0.485934,2.540452,-0.427324
1636,-0.211056,0.975088,0.068247,-0.834918,0.929407,-0.283473
1637,-0.176429,0.984313,0.000274,-0.7651140000000001,0.544495,-0.09552
1638,-0.1467,0.986903,-0.067097,-0.358198,0.164098,-0.075084
1639,-0.1242109999999999,0.985045,-0.119406,-0.039211,-0.227263,-0.139185
1640,-0.109175,0.981943,-0.154492,0.015837,-0.375025,-0.184024
1641,-0.107455,0.980478,-0.164668,0.0535,-0.910685,-0.087254
1642,-0.109258,0.983428,-0.144677,0.0584159999999999,-2.289459,0.186669
1643,-0.099446,0.990219,-0.097858,0.16808,-2.376892,0.3436929999999999
1644,-0.0914789999999999,0.995713,-0.013665,0.067889,-1.807389,0.402764
1645,-0.108746,0.990521,0.083915,-0.138919,-0.906232,0.087716
1646,-0.139761,0.977553,0.157661,-0.11265,-0.748793,-0.1104349999999999
1647,-0.163777,0.972045,0.168244,0.289723,0.194398,-0.8285520000000001
1648,-0.163209,0.9752,0.14949,0.383286,0.999592,-1.046646
1649,-0.20039,0.96922,0.143024,-0.543568,1.935733,-0.055499
1650,-0.242743,0.954988,0.170512,-1.790415,0.302901,0.035131
1651,-0.225611,0.958452,0.174557,-0.163946,-0.132875,-1.027493
1652,-0.2372909999999999,0.939684,0.2463489999999999,0.30124,-0.390031,0.902988
1653,-0.288205,0.88995,0.35345,0.104657,-1.203976,0.559254
1654,-0.360385,0.819122,0.446275,-0.101636,0.266968,0.684431
1655,-0.457056,0.741308,0.49149,-0.093024,0.730753,0.458888
1656,-0.49317,0.692901,0.525996,-0.462549,1.022752,0.1908619999999999
1657,-0.465103,0.697893,0.544632,0.191605,1.616408,-1.558625
1658,-0.415714,0.690589,0.591835,0.360904,2.05729,-1.971398
1659,-0.404961,0.667192,0.625189,0.925805,1.078093,-1.334418
1660,-0.4181569999999999,0.647628,0.6369630000000001,0.597005,0.684479,-0.889649
1661,-0.417033,0.643767,0.641598,0.423808,0.466631,-0.8473620000000001
1662,-0.4157369999999999,0.650899,0.635211,0.4723779999999999,-0.24944,-1.093524
1663,-0.41267,0.66675,0.620603,0.806347,-0.403109,-0.5981270000000001
1664,-0.410987,0.689105,0.5968439999999999,1.089881,-0.577472,-0.323254
1665,-0.4123229999999999,0.723773,0.553301,0.820816,-0.779666,-1.0552700000000002
1666,-0.40991,0.7652399999999999,0.4963689999999999,0.362577,-0.5247609999999999,-0.959869
1667,-0.402758,0.8091659999999999,0.427828,0.167483,-0.280433,-0.51752
1668,-0.391181,0.850875,0.350698,-0.870309,0.576142,-0.262242
1669,-0.362686,0.890811,0.273706,-0.6578069999999999,0.7445649999999999,-0.63479
1670,-0.336447,0.919789,0.201968,-0.583857,0.956019,-0.778308
1671,-0.294583,0.946003,0.135278,-0.2469969999999999,2.590405,-0.646188
1672,-0.234978,0.969005,0.0762549999999999,-0.140419,2.173115,-0.277534
1673,-0.184949,0.982576,0.01839,-0.846835,1.154875,-0.300907
1674,-0.150059,0.987407,-0.050102,-0.503429,0.1211599999999999,-0.031487
1675,-0.121958,0.98586,-0.114915,-0.13912,-0.232458,0.017503
1676,-0.107125,0.980288,-0.166009,0.0309529999999999,-0.40755,0.02958
1677,-0.103891,0.97637,-0.189497,0.152841,-0.8461360000000001,-0.069002
1678,-0.101453,0.979883,-0.171863,0.002912,-2.285059,-0.063229
1679,-0.085545,0.98871,-0.123026,0.076009,-2.557115,0.206217
1680,-0.0718179999999999,0.99678,-0.035663,0.010661,-1.934829,0.3790929999999999
1681,-0.08951,0.994101,0.0612539999999999,-0.11125,-1.006247,0.220652
1682,-0.121031,0.983934,0.131247,-0.089403,-0.823335,0.078363
1683,-0.145845,0.978272,0.147351,0.014757,-0.267991,-0.212308
1684,-0.143364,0.980521,0.13426,0.4772409999999999,0.095453,-0.631116
1685,-0.140224,0.975819,0.167674,0.330242,0.125057,-0.256679
1686,-0.2089099999999999,0.965029,0.158351,-1.80258,2.137021,-2.029612
1687,-0.234788,0.959427,0.156124,-1.2506700000000002,0.963562,0.717396
1688,-0.222265,0.953611,0.203036,-0.528315,0.005449,-0.245517
1689,-0.218404,0.936157,0.275519,0.323491,-0.809493,0.5371640000000001
1690,-0.2430739999999999,0.886016,0.394829,0.230394,-1.050964,0.209129
1691,-0.311145,0.810511,0.496247,0.2334929999999999,-0.464777,0.253036
1692,-0.417,0.732955,0.537483,-1.215919,0.704133,0.60067
1693,-0.443035,0.720271,0.533788,-0.791798,1.959004,0.3900099999999999
1694,-0.393977,0.719642,0.57175,-0.081289,1.942635,-1.238345
1695,-0.37425,0.697604,0.610971,0.91902,1.14842,-1.6504450000000002
1696,-0.375754,0.672237,0.637892,0.6265470000000001,0.560475,-1.01718
1697,-0.384284,0.659417,0.646138,0.443351,0.421073,-0.732457
1698,-0.394029,0.653978,0.6457970000000001,0.379213,0.181425,-1.390182
1699,-0.40848,0.664401,0.625871,0.710971,-0.043887,-0.893724
1700,-0.4047659999999999,0.6807810000000001,0.610494,0.8523059999999999,-0.178339,-0.4330489999999999
1701,-0.38889,0.705477,0.592508,1.223927,-0.7666649999999999,-0.421824
1702,-0.3880679999999999,0.7431800000000001,0.545056,0.8270629999999999,-0.663362,-1.3296629999999998
1703,-0.380872,0.7883359999999999,0.48318,0.5972569999999999,-0.620596,-1.356456
1704,-0.358254,0.8356819999999999,0.41628,-0.060737,0.080028,-0.02094
1705,-0.333237,0.878073,0.3434239999999999,-0.362228,0.443551,0.203924
1706,-0.3155949999999999,0.914584,0.252854,-0.5114920000000001,0.337323,0.024994
1707,-0.296848,0.939359,0.171716,-1.030148,1.91022,-1.103342
1708,-0.252562,0.960606,0.115967,-0.402391,2.829311,-0.748185
1709,-0.181197,0.982174,0.0500139999999999,-0.1158299999999999,2.282398,-0.3825949999999999
1710,-0.1143349999999999,0.993352,-0.013423,-0.920851,0.8655809999999999,-0.2179309999999999
1711,-0.065494,0.994317,-0.0839299999999999,-0.817761,0.169227,-0.028436
1712,-0.034144,0.987334,-0.154937,-0.593282,-0.043914,-0.038025
1713,-0.025116,0.97737,-0.2100389999999999,-0.083084,-0.500487,-0.026289
1714,-0.029688,0.97207,-0.232807,0.050944,-1.319909,-0.282619
1715,-0.029805,0.977777,-0.207517,-0.20544,-2.0212950000000003,-0.3547079999999999
1716,-0.031417,0.987273,-0.155901,-0.008027,-1.878402,0.187746
1717,-0.035263,0.99656,-0.074994,0.099548,-1.359796,0.377103
1718,-0.051327,0.998313,0.027139,0.0536009999999999,-1.114463,0.200995
1719,-0.08323,0.990919,0.105609,0.046182,-0.498487,0.084637
1720,-0.1123,0.984267,0.1364119999999999,0.040416,-0.011625,0.08571
1721,-0.113442,0.983466,0.1411619999999999,0.138741,0.034906,-0.019244
1722,-0.105292,0.979018,0.1744619999999999,-0.161524,0.391038,0.041847
1723,-0.167614,0.970826,0.17147,-1.577259,2.187087,-1.446692
1724,-0.203403,0.961767,0.183388,-2.683133,1.988031,0.481605
1725,-0.1784079999999999,0.959747,0.216923,-0.164014,-0.536179,-0.841267
1726,-0.1658069999999999,0.948415,0.270216,0.408376,-0.982915,0.7465229999999999
1727,-0.189643,0.910869,0.366541,0.41355,-1.202251,0.59139
1728,-0.262051,0.853182,0.451009,0.009335,0.2130409999999999,0.532283
1729,-0.383615,0.7775890000000001,0.498191,-0.855353,0.649992,-0.050269
1730,-0.444279,0.717823,0.536046,-0.986309,1.6924400000000002,0.637324
1731,-0.4110359999999999,0.700407,0.5835060000000001,0.478113,1.32773,-0.013011
1732,-0.367636,0.702711,0.6091310000000001,1.07662,1.99106,-1.989746
1733,-0.367607,0.6727890000000001,0.642044,0.40406,0.842333,-1.569992
1734,-0.3734389999999999,0.6511239999999999,0.6607430000000001,0.307796,0.533004,-0.8547889999999999
1735,-0.377082,0.6441720000000001,0.665471,0.527778,0.330208,-1.515934
1736,-0.395757,0.646126,0.652608,0.664587,0.176247,-1.233526
1737,-0.401788,0.662237,0.632463,0.869057,-0.236806,-0.435899
1738,-0.381418,0.683789,0.622056,1.106851,-0.669049,-0.255113
1739,-0.370496,0.713691,0.5944560000000001,1.015469,-0.795341,-0.7210270000000001
1740,-0.372424,0.75684,0.537117,0.546298,-0.5814239999999999,-1.14315
1741,-0.360626,0.802296,0.475679,-0.136505,0.459102,0.001113
1742,-0.347011,0.846015,0.404773,-0.373372,0.533089,-0.011829
1743,-0.336778,0.88521,0.320911,-0.8135819999999999,0.715956,-0.731952
1744,-0.315982,0.9169,0.2438239999999999,-0.6896329999999999,1.44072,-0.996784
1745,-0.281998,0.942847,0.177528,-0.4552609999999999,1.792825,-0.644356
1746,-0.231038,0.96696,0.107744,-0.525782,1.864598,-0.39937
1747,-0.180547,0.982491,0.045978,-0.7478279999999999,0.924812,-0.375384
1748,-0.131965,0.991083,-0.018416,-0.532784,0.60874,-0.306078
1749,-0.093897,0.99166,-0.088281,-0.086035,0.0374839999999999,-0.346411
1750,-0.071887,0.986083,-0.14991,0.067126,-0.343154,-0.074562
1751,-0.067987,0.977827,-0.19807,0.066263,-0.598646,-0.049962
