,gravity.x,gravity.y,gravity.z,userAcceleration.x,userAcceleration.y,userAcceleration.z
0,0.107967,0.992649,-0.054699,0.091297,-0.535709,0.6634329999999999
1,0.028223,0.999588,0.005118,-0.264581,-0.124192,-0.172721
2,-0.062312,0.996223,0.060471,-0.221304,0.272271,-0.467133
3,-0.170841,0.977896,0.120553,-1.643414,3.0577490000000003,0.3134679999999999
4,-0.287672,0.937422,0.196173,-1.775438,4.451798999999999,0.108697
5,-0.378352,0.8865850000000001,0.266113,-1.57546,5.365062,-0.385132
6,-0.451071,0.8323510000000001,0.3220659999999999,0.8456020000000001,1.248154,-0.3370039999999999
7,-0.5132899999999999,0.7857890000000001,0.345063,0.790207,0.2252429999999999,-0.612458
8,-0.5564399999999999,0.75521,0.346457,0.792493,-0.0848,-0.608847
9,-0.582182,0.740789,0.335105,0.82411,-0.8566030000000001,-0.819191
10,-0.585896,0.745151,0.318555,1.337315,-1.440494,-0.942669
11,-0.558551,0.774814,0.296115,1.754809,-1.969486,-1.004946
12,-0.503271,0.8250120000000001,0.257048,1.985205,-2.096389,-0.918211
13,-0.450046,0.8640559999999999,0.2255329999999999,1.279682,-1.120465,-0.5144270000000001
14,-0.392522,0.891075,0.227841,0.822652,-0.921715,-0.548261
15,-0.342264,0.8996649999999999,0.271032,-1.524878,1.132791,1.457865
16,-0.365,0.893133,0.262846,-1.202642,1.6069129999999998,0.2630639999999999
17,-0.424581,0.8886809999999999,0.173139,-0.717829,1.458258,-0.051663
18,-0.459704,0.8846959999999999,0.077362,1.341082,-0.535575,-1.172242
19,-0.388398,0.902498,0.186129,3.864731,0.59355,5.364714
20,-0.29123,0.938637,0.184782,1.391297,1.400489,-1.348845
21,-0.279879,0.945662,0.1655049999999999,-0.387769,0.6871659999999999,-2.211694
22,-0.289623,0.946482,0.142446,-0.40752,-0.226007,2.182566
23,-0.268565,0.963039,0.020706,-0.090932,-0.517543,0.232025
24,-0.115171,0.993305,-0.008947,-0.000704,1.032451,-0.672449
25,0.041166,0.998451,-0.0374339999999999,-1.868741,4.901787000000001,0.044514
26,0.0931029999999999,0.990259,-0.1035359999999999,-3.164789,3.959967,1.228719
27,0.1464619999999999,0.978503,-0.145195,-0.409142,-0.083483,1.2166370000000002
28,0.186055,0.967921,-0.168855,0.380718,-0.207774,1.111039
29,0.2077929999999999,0.959749,-0.1889549999999999,-0.051039,-0.2491469999999999,0.432241
30,0.20348,0.960088,-0.191903,-0.985172,-1.190557,0.532098
31,0.182394,0.967919,-0.172813,-1.336142,-1.754418,0.598808
32,0.154212,0.978761,-0.135073,-1.410621,-1.86461,0.325365
33,0.123645,0.988465,-0.087463,0.156965,-0.5310060000000001,0.254562
34,0.077217,0.996325,-0.037068,0.405175,-0.626132,0.372654
35,0.0140729999999999,0.999696,0.020233,0.305568,-0.609025,0.1860349999999999
36,-0.056908,0.995066,0.081276,-0.208228,-0.21139,-0.291328
37,-0.136495,0.97969,0.146886,-1.348094,1.485794,-0.213415
38,-0.2493,0.94871,0.194419,-2.042112,2.582647,0.024972
39,-0.378774,0.891645,0.24799,-2.66482,6.189822,0.3466599999999999
40,-0.458326,0.8339690000000001,0.307299,-0.065585,2.635101,-0.725741
41,-0.5137,0.779087,0.359354,1.062299,0.847683,-0.517969
42,-0.5583319999999999,0.738611,0.377782,0.860883,0.124503,-0.69547
43,-0.583221,0.718543,0.378877,0.6297149999999999,-0.8691629999999999,-0.6604939999999999
44,-0.582696,0.717298,0.382033,0.664071,-1.019285,-0.7385689999999999
45,-0.564109,0.736583,0.37313,1.214149,-1.274303,-0.7581399999999999
46,-0.533788,0.780057,0.326468,2.507116,-2.486753,-1.158514
47,-0.475792,0.840088,0.260527,2.744957,-2.257172,-1.444411
48,-0.430367,0.872508,0.2313309999999999,1.157875,-1.175593,-0.451485
49,-0.366622,0.8973120000000001,0.245805,0.185622,-0.552158,0.800994
50,-0.321354,0.8951379999999999,0.3089659999999999,-0.690517,-0.1348069999999999,2.56109
51,-0.3740949999999999,0.893282,0.2491989999999999,-0.943516,1.861723,-0.512733
52,-0.447204,0.882387,0.146291,0.6793819999999999,-0.221773,-1.725026
53,-0.461545,0.884359,0.069895,1.316648,-0.814016,-1.331095
54,-0.295336,0.914254,0.277337,5.638979,-1.982675,5.416099
55,-0.196779,0.949059,0.2460989999999999,-0.603087,3.567481,-4.356543
56,-0.194804,0.959983,0.201208,-0.952504,3.138345,-2.5971580000000003
57,-0.272321,0.959848,0.067323,-0.731112,-0.26124,-1.636506
58,-0.2207309999999999,0.973466,0.060345,-0.65076,0.0274649999999999,-0.8069430000000001
59,-0.065943,0.997203,0.035169,-0.911657,0.728917,-0.121976
60,0.04185,0.999052,-0.01202,-2.882121,1.672503,1.592449
61,0.103181,0.992184,-0.070177,-1.881166,-0.076046,0.709673
62,0.147662,0.983288,-0.106496,0.155683,-0.451916,1.008061
63,0.179001,0.973866,-0.139795,-0.354554,-0.586675,0.7112970000000001
64,0.1807,0.971845,-0.1512109999999999,-0.920095,-1.163465,0.6394920000000001
65,0.1592329999999999,0.978791,-0.128889,-0.988929,-1.56035,1.210234
66,0.1229609999999999,0.989168,-0.080176,-0.603109,-1.499742,-0.040094
67,0.08421,0.995629,-0.040396,0.277485,-0.472542,-0.129389
68,0.033194,0.999324,0.015836,0.388452,-0.5998939999999999,0.094546
69,-0.037566,0.995166,0.090734,-0.315507,-0.2393219999999999,-0.29334
70,-0.126252,0.980404,0.151221,-0.950622,1.538059,-0.569999
71,-0.250251,0.945111,0.210096,-1.484124,2.630771,0.021228
72,-0.368548,0.887243,0.277439,-1.809827,4.605357,-0.277881
73,-0.459089,0.820615,0.340336,-0.6036239999999999,2.159824,-0.701908
74,-0.525469,0.7601140000000001,0.382242,-0.129148,2.062335,-0.591394
75,-0.582389,0.708437,0.398673,0.7219770000000001,0.678999,-0.742957
76,-0.618898,0.6713899999999999,0.407678,0.776293,-0.19884,-0.62716
77,-0.636149,0.65217,0.412297,0.8716379999999999,-0.465632,-0.6258130000000001
78,-0.637649,0.6563100000000001,0.403314,1.491622,-1.336272,-0.775979
79,-0.618741,0.692839,0.370315,2.646405,-2.387587,-0.928863
80,-0.57985,0.757721,0.2993889999999999,2.408539,-2.539886,-1.381283
81,-0.5323399999999999,0.810087,0.245709,1.206473,-0.911299,-0.535656
82,-0.472211,0.853411,0.220696,0.639493,-0.5895560000000001,-0.293694
83,-0.4070539999999999,0.883482,0.231879,0.357829,-0.35124,0.298852
84,-0.38342,0.8847,0.265133,-1.688495,1.930165,1.998341
85,-0.446817,0.8776149999999999,0.173628,-1.313788,2.127619,-0.622374
86,-0.49782,0.864373,0.0709559999999999,0.560198,0.048026,-1.339313
87,-0.475659,0.871403,0.120026,2.391019,-1.281559,-0.824875
88,-0.357671,0.912175,0.200021,1.61382,0.452464,-1.381417
89,-0.315076,0.939243,0.1362,0.523129,1.236356,-3.927094
90,-0.304094,0.945414,0.117132,-0.304427,1.216192,-1.195852
91,-0.2912909999999999,0.956177,0.029584,-0.666137,0.421112,-0.061078
92,-0.179572,0.983325,-0.028738,-0.6488430000000001,0.243451,-0.97616
93,-0.022472,0.999151,-0.034544,-1.7352029999999998,3.153453,-0.110994
94,0.060969,0.993183,-0.099345,-1.654536,0.691997,1.360591
95,0.1081869999999999,0.984161,-0.140439,-0.556719,0.2651679999999999,1.285672
96,0.145674,0.97558,-0.164389,-0.0134259999999999,-0.041406,0.986807
97,0.170147,0.969378,-0.1770779999999999,-0.657543,-0.463396,0.346435
98,0.171189,0.971239,-0.165499,-0.780259,-0.8478100000000001,0.347307
99,0.154757,0.977025,-0.146533,-0.897875,-1.4735,0.289355
100,0.13475,0.984257,-0.114371,-0.929122,-1.929051,0.358481
101,0.100234,0.992455,-0.070613,-0.458358,-1.47213,-0.1908619999999999
102,0.0389339999999999,0.999051,-0.019521,-0.126321,-0.7626310000000001,0.288258
103,-0.041517,0.998106,0.045386,-0.194949,-0.631941,0.271356
104,-0.126255,0.986056,0.1084079999999999,-0.160488,-0.383426,-0.014322
105,-0.218621,0.962373,0.161381,-1.199806,1.300872,-0.7701600000000001
106,-0.337285,0.915595,0.2189199999999999,-2.970546,4.907342,0.509321
107,-0.456501,0.848835,0.2666179999999999,-3.27238,6.396831,0.03514
108,-0.533935,0.78701,0.309079,0.0294329999999999,1.548302,-0.717007
109,-0.597925,0.726632,0.338366,0.727182,0.989173,-0.583911
110,-0.6452640000000001,0.6820109999999999,0.344231,1.094788,0.737209,-0.674248
111,-0.663091,0.659696,0.353711,1.143972,-0.526975,-0.737164
112,-0.652254,0.659385,0.373867,1.227617,-0.918372,-0.903667
113,-0.627174,0.684391,0.3718349999999999,1.495735,-1.114247,-0.849527
114,-0.580522,0.743464,0.332048,2.471071,-2.064692,-0.8992629999999999
115,-0.506687,0.813335,0.285927,2.372486,-1.979092,-0.6716850000000001
116,-0.4504439999999999,0.853474,0.262074,1.916752,-1.4484290000000002,-0.0619549999999999
117,-0.397097,0.8795270000000001,0.2621949999999999,0.328265,-0.666484,0.277737
118,-0.356411,0.8825069999999999,0.306844,-1.037525,0.627976,2.327891
119,-0.420381,0.8769620000000001,0.232846,-1.530578,2.116171,1.541965
120,-0.491797,0.863685,0.110377,0.2088989999999999,0.513253,-1.261287
121,-0.489704,0.866642,0.095509,1.600727,1.495785,-0.348011
122,-0.4329729999999999,0.8941530000000001,0.114124,1.490224,1.789593,-0.771122
123,-0.38466,0.916225,0.112107,0.482789,-0.7514149999999999,-0.5302279999999999
124,-0.334946,0.936799,0.101087,0.281373,-0.802079,-1.025296
125,-0.222385,0.973912,0.045169,-0.058469,-0.239537,-1.084109
126,-0.039475,0.999209,-0.004722,-0.776199,2.612332,-1.290489
127,0.106752,0.993126,-0.047998,-1.360048,4.968559,0.375635
128,0.192926,0.971139,-0.140241,-1.26478,2.933386,2.313947
129,0.239465,0.952929,-0.185967,-0.440561,0.22714,1.653954
130,0.280354,0.941628,-0.186381,-1.345433,0.33271,0.3304539999999999
131,0.293971,0.942604,-0.158365,-1.570384,0.160225,0.126153
132,0.269311,0.953786,-0.1332829999999999,-1.396417,-1.579045,0.598524
133,0.229748,0.965247,-0.124554,-1.033108,-1.726478,0.20776
134,0.195865,0.976259,-0.092496,-0.538593,-2.021074,0.166974
135,0.158375,0.986015,-0.0518789999999999,0.036633,-1.510658,-0.064973
136,0.085032,0.996378,-0.000782,-0.283289,-0.775644,0.270741
137,0.00243,0.997916,0.064475,-0.155109,-0.5086430000000001,0.1694109999999999
138,-0.069887,0.989627,0.125518,-0.39984,0.44618,-0.130904
139,-0.1471569999999999,0.97151,0.185776,-1.358473,1.458772,-0.086075
140,-0.25517,0.938606,0.232178,-1.9484740000000005,2.6894,0.201293
141,-0.376388,0.881302,0.285726,-2.890061,5.795761,-0.074773
142,-0.448326,0.8288700000000001,0.334632,-0.6904680000000001,2.754687,-1.015479
143,-0.50466,0.780036,0.369948,0.8490200000000001,1.552208,-0.871886
144,-0.5619850000000001,0.735161,0.3790929999999999,1.637439,0.415321,-0.858982
145,-0.600981,0.702773,0.3806989999999999,1.269377,-0.788543,-0.669746
146,-0.6109979999999999,0.6963,0.376626,1.170111,-1.029796,-0.8061149999999999
147,-0.5910890000000001,0.7196,0.364403,1.7182560000000002,-1.529308,-0.7918930000000001
148,-0.5460010000000001,0.775623,0.316689,2.3297380000000003,-2.206623,-0.87687
149,-0.4671109999999999,0.8441850000000001,0.26298,2.376138,-2.306206,-0.894603
150,-0.401792,0.882391,0.244844,1.148572,-1.061651,0.03282
151,-0.348542,0.903245,0.250335,0.333649,-0.482301,0.231263
152,-0.301514,0.901159,0.311451,-0.096435,0.013941,1.271343
153,-0.357192,0.8997870000000001,0.250593,-1.035402,1.893166,-0.808546
154,-0.4348329999999999,0.890608,0.133182,0.407519,0.040559,-1.411365
155,-0.4297,0.8936620000000001,0.129329,1.208189,-0.11557,-0.6555439999999999
156,-0.36755,0.918979,0.142776,0.750713,1.474576,-1.618591
157,-0.323783,0.93684,0.132268,0.438453,0.2489199999999999,-1.168401
158,-0.310667,0.94139,0.131422,0.112898,0.019701,-0.169142
159,-0.258884,0.961705,0.090018,-0.0953789999999999,-0.570408,-1.06594
160,-0.100673,0.99444,0.030874,-0.3562059999999999,1.021108,-0.70899
161,0.077308,0.99697,0.008602,-0.940391,2.823464,-1.257717
162,0.168272,0.983757,-0.062507,-1.45088,1.847191,1.314232
163,0.222088,0.967738,-0.118997,-0.109402,0.089147,1.090158
164,0.264752,0.952769,-0.14879,0.0004759999999999,-0.182795,1.1437700000000002
165,0.294522,0.94182,-0.161962,-0.937618,-0.195879,0.5051479999999999
166,0.297502,0.941452,-0.158619,-1.433916,-0.7156680000000001,0.5521739999999999
167,0.273059,0.950011,-0.15139,-1.492816,-1.082762,0.6203850000000001
168,0.240423,0.964627,-0.108122,-1.1948450000000002,-1.778013,0.8446950000000001
169,0.202459,0.977714,-0.05555,0.571573,-0.70214,0.027016
170,0.155023,0.98781,-0.014133,0.596106,-0.8173229999999999,0.288364
171,0.085873,0.995222,0.046462,-0.308849,-0.648878,0.091371
172,0.0118079999999999,0.993584,0.112481,-0.7187319999999999,0.166405,-0.393486
173,-0.067073,0.982069,0.1761849999999999,-0.837392,0.678316,-0.828102
174,-0.162639,0.960002,0.2279119999999999,-1.564244,1.7880900000000002,-0.401862
175,-0.294473,0.914743,0.276643,-2.200827,3.307074,0.376021
176,-0.397055,0.8606219999999999,0.318867,-2.862771,6.647022,-0.159138
177,-0.467867,0.805513,0.363661,0.566149,1.959517,-1.103667
178,-0.530718,0.75216,0.390633,1.24222,0.795936,-0.804131
179,-0.580133,0.720208,0.380456,1.335687,-0.190651,-0.552743
180,-0.59592,0.709928,0.375342,1.023395,-1.245191,-0.935111
181,-0.5790270000000001,0.72153,0.379634,1.483324,-1.492679,-0.8991959999999999
182,-0.543263,0.758947,0.358976,1.717625,-1.743872,-0.939299
183,-0.477721,0.8238120000000001,0.305149,2.512695,-2.394186,-0.876102
184,-0.400801,0.875619,0.269536,1.884337,-1.368387,-0.048207
185,-0.3462989999999999,0.905237,0.246217,1.211305,-0.972757,-0.153443
186,-0.288376,0.920036,0.265278,0.0092319999999999,0.174065,1.12048
187,-0.2640679999999999,0.911376,0.315694,-1.374802,2.610231,1.803523
188,-0.340008,0.911138,0.232857,-1.126285,2.046962,-0.358605
189,-0.409034,0.906292,0.106427,0.8552620000000001,-0.5966600000000001,-1.653516
190,-0.396887,0.915006,0.072425,2.328253,-1.285413,-0.328834
191,-0.285987,0.941579,0.177878,2.563499,-0.325612,3.527307
192,-0.2205889999999999,0.965061,0.1414119999999999,-0.306587,1.934612,-2.028101
193,-0.24008,0.962198,0.128591,-0.738176,1.228094,0.925684
194,-0.263936,0.960257,0.090799,-0.5459390000000001,0.0646149999999999,-0.99711
195,-0.162684,0.985317,0.0518159999999999,-0.205389,0.156315,-0.954664
196,0.012055,0.999651,0.023486,-0.512162,3.368589,-0.053607
197,0.104485,0.994188,-0.02596,-1.113549,4.108306,0.6922510000000001
198,0.150614,0.986184,-0.06897,-1.175577,0.020194,1.062409
199,0.188488,0.976606,-0.103505,-0.4012719999999999,-0.2354099999999999,0.648854
200,0.22025,0.966296,-0.133272,-0.5955699999999999,-0.3382449999999999,0.449587
201,0.231185,0.960905,-0.152367,-1.156677,-1.044263,0.5397270000000001
202,0.215178,0.966348,-0.1409619999999999,-1.288039,-1.613,0.973818
203,0.183421,0.977547,-0.103725,-1.214824,-1.744591,0.8121149999999999
204,0.151028,0.986616,-0.0614799999999999,0.17612,-0.740629,-0.0259529999999999
205,0.106887,0.994134,-0.016498,0.2574929999999999,-0.6750729999999999,0.340122
206,0.038499,0.998125,0.047589,0.0752559999999999,-0.817705,0.3380309999999999
207,-0.042586,0.992842,0.1115829999999999,-0.494752,-0.101195,-0.479885
208,-0.131941,0.975753,0.1746359999999999,-0.999208,1.1861270000000002,-0.815413
209,-0.245631,0.941174,0.232071,-1.601675,2.152118,-0.3472909999999999
210,-0.358466,0.888267,0.287199,-1.7747130000000002,6.2043230000000005,-0.130858
211,-0.445789,0.8325629999999999,0.328801,0.042163,2.067263,-0.600438
212,-0.527493,0.775809,0.346226,0.553891,1.534723,-0.428791
213,-0.593073,0.728691,0.342453,0.986566,0.261284,-0.8445590000000001
214,-0.617739,0.706964,0.344384,0.761598,-1.001215,-0.623788
215,-0.611269,0.70716,0.355352,0.645571,-1.181174,-0.775884
216,-0.578308,0.730457,0.363308,1.195099,-1.314899,-0.6162989999999999
217,-0.538695,0.774291,0.3320849999999999,2.025039,-1.916656,-0.759926
218,-0.480912,0.836109,0.263905,2.5846560000000003,-2.390918,-1.176731
219,-0.413245,0.878184,0.2408739999999999,2.224845,-1.306102,-0.373
220,-0.347019,0.902699,0.254385,0.8307530000000001,-0.8441209999999999,-0.163077
221,-0.273185,0.910232,0.311204,-0.029641,-0.277831,1.540816
222,-0.3141739999999999,0.905437,0.285445,-1.219151,1.851185,-0.8428030000000001
223,-0.4139319999999999,0.895582,0.163072,0.3598699999999999,0.097276,-1.2664959999999998
224,-0.441031,0.888654,0.125642,1.384055,-0.490476,-0.871506
225,-0.348679,0.918065,0.188624,0.6923520000000001,1.622996,-3.5360980000000004
226,-0.282617,0.94625,0.157283,0.62629,1.594811,-3.504756
227,-0.253532,0.950611,0.179053,-0.302239,0.172893,-1.29119
228,-0.271648,0.951728,0.142903,-0.8947649999999999,-0.665107,-0.079061
229,-0.193375,0.978603,0.070308,-0.680404,-0.126353,-1.131801
230,-0.01147,0.999712,0.021096,-1.0347030000000002,1.317473,-0.64512
231,0.112772,0.992562,-0.045863,-1.587091,4.660194000000001,1.202159
232,0.160697,0.980286,-0.1149589999999999,0.1824579999999999,0.5022270000000001,1.177184
233,0.2055969999999999,0.967101,-0.149822,0.241272,0.149217,1.2584799999999998
234,0.239738,0.957548,-0.1600859999999999,-0.426322,-0.290418,0.829764
235,0.244391,0.957366,-0.154024,-1.310736,-1.0022879999999998,0.7734850000000001
236,0.221853,0.966459,-0.129375,-1.308676,-1.333448,0.852245
237,0.185144,0.978458,-0.0913269999999999,-0.79014,-1.781468,-0.081464
238,0.148645,0.98732,-0.055708,0.063605,-0.893235,0.134108
239,0.0933679999999999,0.995628,-0.002758,0.127442,-0.66735,0.343182
240,0.016023,0.998213,0.05757,-0.268479,-0.490645,0.279451
241,-0.067248,0.990774,0.117663,-0.3563969999999999,0.172922,-0.676867
242,-0.152886,0.971391,0.181727,-0.415931,0.613463,-0.978526
243,-0.255864,0.936522,0.239707,-1.949046,2.864655,0.4767699999999999
244,-0.37636,0.88189,0.283943,-2.565611,5.756279,-0.092002
245,-0.4740359999999999,0.8227639999999999,0.313607,-1.280222,3.84612,-0.4568569999999999
246,-0.5470079999999999,0.766897,0.335636,0.625209,1.287836,-0.717929
247,-0.597703,0.723434,0.345536,1.1887370000000002,0.73346,-0.673142
248,-0.633718,0.6943,0.341099,1.384038,0.296529,-0.5819439999999999
249,-0.6402359999999999,0.687764,0.3421659999999999,1.050927,-0.942724,-0.614917
250,-0.616192,0.708929,0.343113,1.075207,-1.190649,-0.643269
251,-0.57621,0.754973,0.3130449999999999,1.524223,-1.867263,-0.601513
252,-0.501175,0.828261,0.250614,1.986313,-2.56108,-0.651813
253,-0.412213,0.885083,0.216121,1.847988,-1.525708,-0.082897
254,-0.352352,0.913592,0.202971,1.38406,-1.201999,-0.086302
255,-0.288109,0.925282,0.246671,0.252846,0.1120559999999999,0.56763
256,-0.298553,0.914523,0.27297,-1.3132629999999998,2.56738,2.089075
257,-0.391432,0.90185,0.182887,-1.629092,2.332738,-0.703715
258,-0.4465409999999999,0.8904270000000001,0.087984,0.728355,-0.465088,-0.8973559999999999
259,-0.425203,0.899776,0.098011,1.177217,1.406209,0.099605
260,-0.377281,0.920673,0.100099,0.87011,0.475705,-0.4981859999999999
261,-0.345249,0.934288,0.088938,0.3972199999999999,-0.77935,-0.6314029999999999
262,-0.300793,0.950743,0.074903,0.565701,-0.805129,-0.98956
263,-0.172587,0.98485,0.016849,0.324946,-0.166491,-0.907016
264,0.019395,0.999773,-0.0088209999999999,-0.150255,2.6524330000000003,-1.190626
265,0.148524,0.98682,-0.0642409999999999,-0.836268,5.180218,0.250017
266,0.225498,0.962816,-0.148779,-1.734959,1.565657,1.85282
267,0.286742,0.939122,-0.1892839999999999,-0.264311,0.380092,1.2022389999999998
268,0.330207,0.922177,-0.201379,-0.8876569999999999,0.247867,1.045358
269,0.343465,0.918345,-0.196658,-1.448217,0.16622,0.085071
270,0.324345,0.925396,-0.196067,-1.560322,-0.968258,0.777137
271,0.2944719999999999,0.938544,-0.180058,-1.181877,-2.0279,0.351414
272,0.260793,0.954372,-0.145468,-0.5657399999999999,-1.861705,-0.265405
273,0.227836,0.967491,-0.1097829999999999,0.162865,-0.903938,0.121044
274,0.16659,0.984698,-0.051171,-0.390726,-0.687289,0.4251029999999999
275,0.091251,0.995766,0.011103,-0.4481699999999999,-0.191521,0.2061059999999999
276,0.006068,0.997695,0.06758,-0.77505,1.12848,-0.809203
277,-0.121063,0.984567,0.126375,-2.093826,3.637488,0.447997
278,-0.271234,0.943335,0.191184,-2.233039,4.653162,0.0273829999999999
279,-0.381741,0.8839540000000001,0.269998,-0.915057,3.716968,-0.908411
280,-0.471406,0.820185,0.3241489999999999,0.363206,1.6638389999999998,-0.8694370000000001
281,-0.541144,0.768931,0.340453,0.79035,1.037008,-0.97705
282,-0.5820420000000001,0.732485,0.353119,1.072779,-0.290224,-0.627091
283,-0.602332,0.709097,0.366575,1.123786,-0.838522,-0.816511
284,-0.599957,0.7071350000000001,0.374182,1.254132,-1.054974,-0.939367
285,-0.56909,0.735401,0.367861,1.872344,-1.740665,-0.95592
286,-0.507322,0.7992229999999999,0.322284,2.46176,-2.488142,-1.087314
287,-0.435225,0.857325,0.274907,2.39485,-2.450724,-0.81075
288,-0.368274,0.8978010000000001,0.2415119999999999,1.533008,-1.176808,-0.5190239999999999
289,-0.298557,0.924367,0.237508,0.315357,-0.345769,0.2193699999999999
290,-0.2599869999999999,0.920262,0.2924449999999999,-0.308814,0.459926,1.947805
291,-0.33476,0.909369,0.246951,-1.323398,2.568155,-0.412738
292,-0.429227,0.893856,0.129558,0.011411,-0.117703,-1.575069
293,-0.46169,0.8865280000000001,0.03018,1.026051,-0.645576,-1.5816940000000002
294,-0.368604,0.902705,0.221935,4.644895,-2.01684,6.325535
295,-0.241154,0.945889,0.2171159999999999,0.096287,1.532215,-3.560606
296,-0.199843,0.968302,0.149847,-0.510316,2.2058470000000003,-3.430334
297,-0.251669,0.964746,0.076994,-0.815134,1.07366,1.144136
298,-0.256683,0.96641,0.012878,-0.626206,0.0300959999999999,-1.097183
299,-0.130478,0.991366,0.013006,-0.8103640000000001,0.312971,-0.556554
300,0.007605,0.999208,-0.0390649999999999,-2.143454,3.829772,0.108904
301,0.077227,0.992304,-0.096789,-2.126467,0.145635,1.103167
302,0.11763,0.98322,-0.139435,-0.907959,-0.165456,1.265991
303,0.153388,0.973485,-0.169704,-0.393821,-0.288213,0.834514
304,0.165392,0.969914,-0.178638,-0.7579819999999999,-0.975133,0.479038
305,0.155245,0.973388,-0.168567,-0.793017,-1.325561,0.778034
306,0.137123,0.980514,-0.140677,-0.6781689999999999,-1.74446,0.275214
307,0.1098529999999999,0.988223,-0.106524,-0.157246,-1.173663,0.212465
308,0.059444,0.996437,-0.059833,-0.0664169999999999,-0.7378,0.320834
309,-0.013196,0.999912,-0.001314,-0.282489,-0.620502,0.442553
310,-0.09601,0.993645,0.058746,-0.233702,-0.168343,-0.095413
311,-0.18348,0.975294,0.1230329999999999,-0.294151,0.270525,-0.696947
312,-0.274413,0.942591,0.190313,-1.7634599999999998,2.084523,0.328302
313,-0.397402,0.8845049999999999,0.24438,-2.549131,4.170732,0.732915
314,-0.517466,0.811879,0.270334,-3.358693,6.701228,0.4848229999999999
315,-0.598796,0.746264,0.290746,0.5967060000000001,1.000486,-0.775533
316,-0.656994,0.684847,0.315188,1.109218,0.59712,-0.6939420000000001
317,-0.697678,0.642955,0.315997,1.3171540000000002,0.295979,-0.650836
318,-0.712067,0.628169,0.313629,1.342118,-0.8324540000000001,-0.902176
319,-0.69694,0.639163,0.325185,1.828349,-1.468432,-1.079717
320,-0.6544989999999999,0.68929,0.310661,1.998097,-1.787114,-1.0869209999999998
321,-0.568859,0.774148,0.277659,2.335507,-2.496651,-0.606226
322,-0.46197,0.8467690000000001,0.263753,2.079448,-1.525938,-0.006154
323,-0.398423,0.884969,0.2410159999999999,1.576981,-0.918935,-0.228657
324,-0.354246,0.901282,0.2494,-0.115145,0.236612,1.143437
325,-0.347688,0.894581,0.280779,-1.055525,2.320781,1.779798
326,-0.4148949999999999,0.893144,0.173657,-0.902625,1.656325,-0.5053989999999999
327,-0.443262,0.894548,0.057472,1.076075,-0.456422,-1.300545
328,-0.39313,0.914367,0.096863,2.583925,0.889359,3.194626
329,-0.32004,0.942945,0.091812,0.7325,2.042269,-2.639206
330,-0.311486,0.946825,0.080621,-0.931007,1.163802,1.604666
331,-0.353411,0.932636,0.072737,-0.432356,-0.5556369999999999,-0.60655
332,-0.323523,0.945394,0.039528,-0.185449,-0.968374,-0.947533
333,-0.17195,0.985039,-0.011501,-0.592607,2.182076,-0.81908
334,0.010888,0.99869,-0.05,-1.271035,4.882536,0.558942
335,0.090882,0.990695,-0.101307,-1.801698,4.069363,1.7748150000000005
336,0.13513,0.979643,-0.148456,-0.151152,0.183519,1.185154
337,0.173766,0.969087,-0.175148,-0.504134,-0.340592,0.694603
338,0.2031589999999999,0.96119,-0.186658,-0.7800020000000001,-0.541954,0.557813
339,0.209448,0.96047,-0.183383,-1.416113,-1.459157,1.247226
340,0.190228,0.968832,-0.158675,-1.404934,-1.56925,-0.005174
341,0.152214,0.981737,-0.114121,-1.049766,-1.712877,-0.319671
342,0.117502,0.990115,-0.0765899999999999,0.142523,-0.557986,0.598013
343,0.063904,0.997591,-0.026975,-0.008362,-0.6951930000000001,0.4525729999999999
344,-0.0156889999999999,0.999504,0.027324,-0.3090179999999999,-0.409889,0.0201
345,-0.106621,0.990824,0.083067,-0.881035,0.875433,-0.571272
346,-0.218626,0.966192,0.136658,-2.161242,3.478846,0.50859
347,-0.3654239999999999,0.911088,0.190746,-2.488366,5.406783,0.356846
348,-0.4803739999999999,0.8434290000000001,0.240559,-0.235904,2.100007,-0.7626689999999999
349,-0.56119,0.780329,0.275955,0.456408,1.38323,-0.4287109999999999
350,-0.633709,0.718819,0.285853,0.791592,0.991081,-0.588679
351,-0.681747,0.674219,0.28399,1.01625,-0.00506,-0.6943600000000001
352,-0.701364,0.65063,0.291152,1.067575,-0.838145,-0.7518600000000001
353,-0.70012,0.647979,0.299925,1.2527469999999998,-1.015976,-0.8047310000000001
354,-0.680708,0.6724899999999999,0.290504,2.419646,-1.764043,-0.867561
355,-0.627251,0.740872,0.240135,2.776971,-2.072781,-0.989143
356,-0.5330520000000001,0.8177800000000001,0.217005,1.971925,-1.145157,0.043417
357,-0.4533,0.865505,0.2131179999999999,0.8130109999999999,-0.8836790000000001,-0.118453
358,-0.385357,0.892034,0.236169,0.193767,-0.706685,0.2884739999999999
359,-0.370405,0.8933639999999999,0.254365,-1.644838,0.904366,2.207625
360,-0.441459,0.887332,0.133247,-0.352135,1.027295,-1.437828
361,-0.4837979999999999,0.8743770000000001,0.037466,1.358432,0.915524,-0.000815
362,-0.429275,0.8952389999999999,0.119457,2.424178,2.28248,4.140095
363,-0.3704429999999999,0.926766,0.06227,0.377813,0.30088,-1.83821
364,-0.344671,0.935954,0.07206,0.233205,-0.8383280000000001,-0.726204
365,-0.316565,0.945758,0.072992,-0.056223,-1.151523,0.123724
366,-0.23571,0.971449,0.0269899999999999,-0.401955,-0.229948,-0.868024
367,-0.078448,0.99691,0.003993,-1.845777,3.5890730000000004,-0.571712
368,0.048707,0.998089,-0.038015,-2.573746,5.237247,0.1454069999999999
369,0.12686,0.98599,-0.108306,-0.373015,0.450106,0.798262
370,0.1874579999999999,0.969885,-0.1555109999999999,0.012051,-0.392736,1.151787
371,0.2381849999999999,0.953571,-0.18431,-0.457835,-0.447147,0.760009
372,0.251071,0.947699,-0.197054,-1.466388,-0.8360200000000001,0.819292
373,0.22695,0.955101,-0.190461,-1.477011,-1.380135,1.041276
374,0.185407,0.970051,-0.156923,-1.387799,-1.531865,0.981309
375,0.139435,0.985148,-0.100207,0.214996,-0.968012,0.006319
376,0.088111,0.99471,-0.052798,0.141229,-0.89948,0.413699
377,0.012968,0.999826,0.013437,-0.1330849999999999,-0.855584,0.309423
378,-0.079212,0.993012,0.087477,-0.7809560000000001,0.873016,-0.738005
379,-0.178392,0.970856,0.160043,-0.989592,1.259429,-0.8272799999999999
380,-0.309352,0.923011,0.228805,-1.4312790000000002,1.958992,0.05687
381,-0.461786,0.841925,0.279133,-3.199576,5.415552,-0.224537
382,-0.5551159999999999,0.769459,0.315877,-0.599989,2.187786,-0.884526
383,-0.625408,0.70422,0.336064,0.3744619999999999,1.285053,-0.767796
384,-0.680034,0.651939,0.335454,1.022869,0.649438,-0.870137
385,-0.71559,0.618208,0.325191,1.393065,-0.280852,-0.776805
386,-0.7248,0.60816,0.323737,1.552544,-0.7494109999999999,-1.000861
387,-0.705438,0.629576,0.325563,2.19433,-1.294417,-1.069246
388,-0.6478550000000001,0.703873,0.291285,2.587308,-2.146896,-1.0290780000000002
389,-0.540151,0.797533,0.268661,2.479604,-2.240556,-1.0064540000000002
390,-0.434251,0.862434,0.2600639999999999,1.97693,-1.389336,0.198798
391,-0.373701,0.895547,0.241542,0.090574,-0.184076,0.524632
392,-0.319998,0.907732,0.271338,-0.6993189999999999,0.415938,2.139306
393,-0.345171,0.908463,0.235694,-0.828825,1.377334,-1.201758
394,-0.412543,0.904116,0.111276,0.252753,0.417875,-1.130197
395,-0.430931,0.8986940000000001,0.081534,0.909233,1.369266,0.184319
396,-0.3999769999999999,0.909008,0.117145,0.733595,0.354252,-0.451313
397,-0.368628,0.921335,0.123513,0.465277,-0.922311,-0.248834
398,-0.336682,0.935372,0.108276,0.443204,-1.319772,-0.62712
399,-0.246977,0.96713,0.060515,0.38632,-0.5190859999999999,-0.791686
400,-0.07087,0.9963,0.048628,-0.452705,2.692406,-0.979612
401,0.093214,0.995254,0.027951,-0.8740370000000001,5.024842,-0.14961
402,0.172284,0.984236,-0.039974,-1.702863,0.998094,0.943722
403,0.2355159999999999,0.967298,-0.094166,-0.258542,-0.129361,0.978673
404,0.282846,0.950745,-0.126815,0.022345,-0.099671,1.042708
405,0.306772,0.938813,-0.15659,-1.478616,-0.425172,0.596882
406,0.299444,0.939208,-0.167993,-1.830954,-1.224349,1.295892
407,0.26534,0.950204,-0.163423,-1.815679,-1.407952,1.020418
408,0.219327,0.968694,-0.1163059999999999,-0.520795,-1.457372,-0.015804
409,0.178625,0.981358,-0.0709159999999999,0.463114,-0.640401,0.402596
410,0.129293,0.991406,-0.019921,0.463999,-0.573331,0.5141220000000001
411,0.052733,0.997737,0.041716,-0.212783,-0.141795,-0.3898
412,-0.033512,0.994357,0.1006529999999999,-0.823574,1.377362,-0.687979
413,-0.153274,0.974218,0.165549,-1.203293,2.538004,-0.000236
414,-0.296987,0.928863,0.221385,-1.807734,4.4375,-0.287593
415,-0.4016,0.872943,0.276927,-0.472179,2.001447,-0.808543
416,-0.485721,0.816262,0.312717,-0.041317,1.794548,-0.54993
417,-0.561485,0.764116,0.317586,0.785194,0.7308020000000001,-0.743764
418,-0.613584,0.725356,0.312048,0.967221,-0.278304,-0.66387
419,-0.63752,0.703516,0.314058,1.076058,-0.489725,-0.569109
420,-0.641452,0.6993010000000001,0.315465,1.635135,-1.409002,-0.733312
421,-0.623938,0.721542,0.300129,2.367667,-1.947556,-1.032612
422,-0.5758439999999999,0.778825,0.248667,2.487679,-2.209825,-1.275522
423,-0.492054,0.8421620000000001,0.2205599999999999,2.36919,-2.070204,-0.399713
424,-0.408896,0.886966,0.2147,0.935721,-0.73392,0.1091829999999999
425,-0.346781,0.914628,0.207844,0.392893,-0.4304659999999999,0.583873
426,-0.308066,0.921215,0.2376079999999999,-1.440454,1.358371,2.733492
427,-0.366716,0.9186,0.147285,-1.271987,2.121378,-1.2905799999999998
428,-0.430722,0.902231,0.021409,0.26022,-0.037317,-1.394013
429,-0.413567,0.906901,0.080574,2.0983970000000003,1.109746,2.608543
430,-0.346402,0.934787,0.07861,0.795148,1.6808900000000002,-2.25053
431,-0.310265,0.947825,0.073233,0.285042,0.200811,-1.561392
432,-0.3008889999999999,0.951517,0.063888,-0.2375929999999999,-0.452447,1.118866
433,-0.244058,0.969755,0.00343,0.150857,-0.399579,-0.6060909999999999
434,-0.082179,0.996534,-0.012886,-0.1714369999999999,0.700258,-0.387871
435,0.07252,0.996795,-0.033786,-1.492991,4.687806,0.101963
436,0.144315,0.98639,-0.078789,-2.167829,1.851119,0.911049
437,0.2021099999999999,0.971716,-0.122145,-0.687157,0.182596,0.569991
438,0.242965,0.957024,-0.158341,-0.227661,-0.333489,0.624222
439,0.2671679999999999,0.942085,-0.202721,-1.247927,-0.8847729999999999,0.7355430000000001
440,0.260405,0.938461,-0.22689,-1.492827,-1.17804,0.967003
441,0.224519,0.95015,-0.21635,-1.814622,-1.653305,1.220607
442,0.181476,0.970238,-0.160327,-0.159702,-0.760079,-0.1193819999999999
443,0.146097,0.98263,-0.114426,0.432379,-0.5405979999999999,0.106278
444,0.105749,0.992552,-0.060488,0.274958,-0.6034069999999999,0.496569
445,0.036019,0.999351,0.000604,-0.291436,-0.150978,0.054969
446,-0.052619,0.996036,0.071716,-0.427011,0.191067,-0.424927
447,-0.1557049999999999,0.976861,0.146624,-1.351375,1.701682,-0.110049
448,-0.282771,0.935014,0.2139849999999999,-2.91332,6.242858,0.312611
449,-0.405211,0.876927,0.258463,-2.664278,6.481669,-0.19253
450,-0.498792,0.8190729999999999,0.283418,0.437955,1.398593,-0.657914
451,-0.5722,0.763397,0.299688,0.991969,0.694916,-0.7298180000000001
452,-0.6231439999999999,0.721791,0.301179,1.127661,0.283183,-0.7626649999999999
453,-0.6458510000000001,0.700543,0.303504,1.34066,-1.093503,-1.010123
454,-0.639083,0.69793,0.323212,1.505233,-1.29374,-1.088975
455,-0.605068,0.7202810000000001,0.339246,1.997081,-1.785634,-1.09091
456,-0.542456,0.778784,0.315019,2.424902,-2.444464,-1.083589
457,-0.448242,0.846959,0.285901,2.703216,-2.288671,-0.26904
458,-0.356552,0.8927870000000001,0.2753219999999999,1.60585,-0.99258,-0.168129
459,-0.291502,0.917394,0.270951,0.2149179999999999,-0.389608,0.528884
460,-0.247815,0.918558,0.30796,-1.170382,1.353598,3.206795
461,-0.3053889999999999,0.912993,0.270522,-0.931016,2.902986,1.837373
462,-0.387892,0.913853,0.1200529999999999,0.493559,0.168102,-2.030942
463,-0.392398,0.916586,0.076769,1.991138,1.466577,-0.071246
464,-0.341983,0.933824,0.104975,0.798098,2.269072,-2.012125
465,-0.3170679999999999,0.940705,0.12059,-0.606699,0.271575,1.379105
466,-0.324029,0.938112,0.122269,0.146219,-1.228426,-1.386628
467,-0.270696,0.956588,0.107999,0.163305,-1.387633,-1.1829040000000002
468,-0.1269559999999999,0.990193,0.0583049999999999,-0.290036,1.6403,-1.34015
469,0.067022,0.997741,-0.004541,-0.779302,4.48198,-0.5061859999999999
470,0.175151,0.982206,-0.067769,-0.8238790000000001,5.831667,1.834004
471,0.229355,0.965705,-0.121695,-0.286194,0.212853,1.266165
472,0.277937,0.948658,-0.150994,-0.992536,-0.215626,0.660637
473,0.310258,0.938301,-0.152743,-1.233354,-0.124306,0.219073
474,0.30965,0.939058,-0.14929,-1.538883,-0.790391,0.8429540000000001
475,0.2822139999999999,0.949341,-0.138224,-1.6572900000000002,-1.516633,1.266597
476,0.239711,0.965333,-0.103301,-0.963024,-1.6545419999999995,-0.138795
477,0.202691,0.976595,-0.071957,0.106269,-1.258746,-0.156315
478,0.16283,0.986006,-0.035745,0.033581,-1.068175,0.303323
479,0.0871919999999999,0.995961,0.021414,-0.519534,-0.819112,-0.187597
480,-0.0057,0.996583,0.082397,-0.782157,0.24597,-0.751831
481,-0.114222,0.984081,0.136157,-2.2277880000000003,3.1834,0.621946
482,-0.272557,0.945062,0.180475,-2.569652,4.598563,0.4679319999999999
483,-0.405276,0.877827,0.255287,-1.6475349999999995,3.723858,-0.6723859999999999
484,-0.4887149999999999,0.812991,0.3165489999999999,0.190497,2.5876740000000003,-0.791158
485,-0.552095,0.755745,0.352193,1.288973,1.1921620000000002,-0.667852
486,-0.6159600000000001,0.705913,0.349686,0.929253,-0.18513,-0.436036
487,-0.660916,0.671516,0.335046,1.002576,-0.487679,-0.379113
488,-0.684137,0.660094,0.310213,1.266901,-0.951323,-0.647676
489,-0.675353,0.677257,0.291928,2.176848,-1.578715,-0.785931
490,-0.635741,0.730889,0.248265,2.798918,-1.995247,-1.3774
491,-0.565095,0.800122,0.201177,2.666398,-1.7657439999999998,-1.14414
492,-0.489849,0.8513940000000001,0.187556,1.242107,-0.8473350000000001,-0.320414
493,-0.411736,0.8887459999999999,0.201504,0.4354479999999999,-0.6502060000000001,0.728962
494,-0.348011,0.902718,0.252958,-0.539501,-0.151315,2.3633450000000003
495,-0.3871989999999999,0.90338,0.184341,-1.078133,1.892488,-1.602676
496,-0.451991,0.8895489999999999,0.066384,0.119182,0.549859,-0.868798
497,-0.465301,0.880117,0.094279,1.0406799999999998,0.788966,0.654927
498,-0.404526,0.910421,0.086556,0.858627,1.859491,-3.510339
499,-0.381254,0.922689,0.057359,0.441404,-0.623296,-2.016298
500,-0.364877,0.929233,0.058238,0.5578390000000001,-1.043491,-1.344142
501,-0.307579,0.950691,0.039763,-0.0182419999999999,-1.446236,1.505998
502,-0.18665,0.982351,0.012162,-0.568523,0.4533939999999999,-0.6605989999999999
503,-0.036369,0.999336,-0.002339,-2.723168,5.743676,-0.256603
504,0.037235,0.998214,-0.046708,-2.6680330000000003,2.339249,0.640656
505,0.102921,0.98741,-0.120117,-0.69484,0.124803,0.572631
506,0.159496,0.972359,-0.170524,0.04781,-0.63279,0.8937299999999999
507,0.192542,0.958601,-0.2097909999999999,-0.577017,-1.015013,1.146573
508,0.183854,0.958202,-0.2191949999999999,-1.268616,-1.224956,1.041384
509,0.14986,0.96943,-0.194288,-1.1961700000000002,-1.287392,0.570524
510,0.113823,0.982703,-0.146079,0.010719,-0.719825,0.214804
511,0.080154,0.992578,-0.0914529999999999,0.279343,-0.544489,0.368828
512,0.0286389999999999,0.998897,-0.037201,0.190798,-0.64378,0.298966
513,-0.0547389999999999,0.998212,0.024015,-0.191065,-0.421155,-0.421079
514,-0.157438,0.98314,0.092999,-0.492906,0.4306779999999999,-0.8415959999999999
515,-0.287247,0.943094,0.167521,-1.975936,2.672431,0.807959
516,-0.439793,0.870658,0.220309,-2.740047,5.122582,-0.2662989999999999
517,-0.5431520000000001,0.795983,0.267202,-1.447494,4.018516,-0.658011
518,-0.6138899999999999,0.731857,0.295846,-0.0393079999999999,1.64003,-0.647088
519,-0.6735220000000001,0.6775359999999999,0.295489,0.720809,1.001877,-0.575289
520,-0.71228,0.641139,0.285654,1.029861,-0.103404,-0.539636
521,-0.726614,0.625627,0.283944,1.157339,-0.4939739999999999,-0.609643
522,-0.724759,0.629938,0.2791099999999999,1.443554,-0.920374,-0.773525
523,-0.703623,0.663239,0.255009,2.165125,-1.457001,-0.732273
524,-0.6457890000000001,0.737449,0.197802,3.06362,-1.923805,-1.048633
525,-0.569571,0.801297,0.183062,1.51409,-0.918302,0.070097
526,-0.508459,0.840098,0.188959,0.4444939999999999,-0.654612,0.287619
527,-0.446654,0.8642280000000001,0.231539,0.105117,-0.376587,1.311201
528,-0.456185,0.8673639999999999,0.198933,-1.201881,1.504386,-1.0473370000000002
529,-0.518892,0.8528950000000001,0.0576309999999999,-0.0950299999999999,1.686,-0.15805
530,-0.5476770000000001,0.8348620000000001,0.0552659999999999,0.401864,2.16143,0.408433
531,-0.51942,0.853042,0.05022,0.89909,0.176835,-0.6698029999999999
532,-0.475497,0.8793989999999999,0.023651,1.161669,-1.0105030000000002,-0.598572
533,-0.400505,0.916276,0.005845,1.324607,-1.326982,-0.942994
534,-0.269432,0.962722,-0.023955,0.4526439999999999,-0.431502,-0.790025
535,-0.094664,0.995092,-0.02881,-1.0341049999999998,3.01745,-0.067152
536,0.046017,0.996732,-0.0663909999999999,-2.001691,5.401614,-0.049683
537,0.124081,0.98172,-0.144326,-1.041088,1.090836,1.357567
538,0.186588,0.966107,-0.178387,-0.433827,-0.055157,1.292126
539,0.231034,0.95498,-0.186108,-0.8991399999999999,-0.122003,0.48898
540,0.247881,0.949133,-0.194171,-1.405398,-0.702062,0.285311
541,0.235801,0.947205,-0.2172579999999999,-1.332908,-1.699097,1.650684
542,0.209331,0.957485,-0.1985,-1.155803,-1.873043,0.8042590000000001
543,0.160134,0.973552,-0.162954,-0.246133,-1.8614,0.088216
544,0.112104,0.986451,-0.11978,-0.210417,-0.4922649999999999,0.798933
545,0.039924,0.997506,-0.05821,-0.27468,-0.4261399999999999,0.5261359999999999
546,-0.044172,0.999015,0.00428,-0.492235,0.478967,-0.371772
547,-0.1431329999999999,0.987142,0.071154,-0.6526430000000001,0.680628,-0.99161
548,-0.278492,0.949428,0.145015,-2.401684,2.888341,0.6204569999999999
549,-0.447604,0.866858,0.2195619999999999,-3.990185,5.53634,-0.2581969999999999
550,-0.559789,0.77973,0.28046,-0.934733,3.1968330000000003,-1.168506
551,-0.6458020000000001,0.703666,0.296302,0.228138,2.23005,-0.971443
552,-0.7115199999999999,0.640525,0.288908,1.633517,0.779382,-0.876143
553,-0.7480760000000001,0.595594,0.29266,1.5772540000000002,-0.331785,-0.6384850000000001
554,-0.759133,0.577202,0.300925,1.589302,-0.611213,-0.739753
555,-0.7365619999999999,0.599899,0.312407,2.425954,-1.600906,-0.889357
556,-0.673041,0.6785770000000001,0.294191,2.661078,-2.159733,-1.0445719999999998
557,-0.565826,0.77704,0.2757699999999999,2.601364,-2.25699,-0.565642
558,-0.450159,0.849593,0.27486,2.413278,-1.637145,0.0014759999999999
559,-0.383308,0.882941,0.27109,0.187248,-0.458762,0.465177
560,-0.3322469999999999,0.8952559999999999,0.296865,-0.550932,0.0721509999999999,1.817485
561,-0.340993,0.886689,0.312262,-0.928142,2.528152,0.905466
562,-0.43468,0.883618,0.173992,0.182421,0.007175,-2.110622
563,-0.475249,0.879416,0.0276769999999999,0.819808,-0.378714,-1.523389
564,-0.418971,0.898457,0.131294,2.342356,0.059001,3.912025
565,-0.334684,0.933291,0.130213,0.168424,2.628965,-2.082728
566,-0.292618,0.94741,0.129571,-0.295456,1.961953,-0.012185
567,-0.311678,0.94542,0.095069,-0.516753,-0.253037,-0.2005829999999999
568,-0.2735,0.961173,0.036669,0.119813,-0.866812,-1.225985
569,-0.140818,0.990035,0.001032,-0.163106,0.643022,-1.319544
570,0.012433,0.999415,-0.031851,-1.537015,4.4036610000000005,0.639502
571,0.089068,0.991345,-0.096444,-2.420672,1.16402,0.940454
572,0.137233,0.980106,-0.1433829999999999,-0.329677,-0.2349889999999999,1.27177
573,0.1797619999999999,0.969326,-0.167606,-0.308454,-0.387997,0.793034
574,0.197529,0.964222,-0.176799,-0.924549,-0.720372,0.47755
575,0.184307,0.96782,-0.1713309999999999,-1.043835,-0.994355,0.722692
576,0.150201,0.977517,-0.1479859999999999,-1.059839,-1.441644,1.0842200000000002
577,0.103896,0.988816,-0.106999,-0.175124,-1.48462,-0.157542
578,0.050752,0.996405,-0.067826,0.257827,-0.8431770000000001,0.070176
579,-0.021966,0.999742,-0.005742,-0.181693,-0.725649,0.308431
580,-0.10613,0.99212,0.066597,-0.3532969999999999,0.124702,-0.283364
581,-0.192222,0.971747,0.136961,-0.469918,0.820733,-0.893675
582,-0.291055,0.933106,0.2111869999999999,-2.1771,3.205489,0.936457
583,-0.448546,0.8522860000000001,0.2691,-3.744569,6.403222,0.064823
584,-0.561028,0.770482,0.302663,-1.899956,4.288402,-0.576376
585,-0.636534,0.699396,0.325069,0.918989,1.277411,-0.750087
586,-0.695893,0.6382180000000001,0.329258,1.278702,0.631359,-0.830509
587,-0.736667,0.59738,0.316954,1.4066040000000002,0.050539,-0.67607
588,-0.752765,0.582497,0.306663,1.496402,-1.053277,-0.676918
589,-0.739174,0.601427,0.303163,1.95327,-1.4610610000000002,-0.723878
590,-0.703048,0.6550199999999999,0.276897,2.151137,-1.535315,-0.669399
591,-0.6395850000000001,0.7357060000000001,0.2228619999999999,2.675626,-2.064808,-0.761894
592,-0.547058,0.8104100000000001,0.2096739999999999,2.202759,-1.107071,0.412763
593,-0.48245,0.854635,0.191941,1.59831,-0.908422,0.110519
594,-0.4189449999999999,0.8838299999999999,0.2081579999999999,0.072769,0.025121,0.6528649999999999
595,-0.376945,0.8897649999999999,0.257356,-1.6542439999999998,2.350699,1.707977
596,-0.435106,0.8837510000000001,0.172241,-1.458342,2.246116,-0.807128
597,-0.49708,0.866907,0.037189,0.329951,-0.33639,-1.492587
598,-0.498591,0.866823,-0.004989,0.968379,-0.747698,-1.110078
599,-0.432492,0.894566,0.112702,2.162747,0.753139,5.595108
600,-0.388329,0.916628,0.094835,-0.072304,1.562452,-2.107439
601,-0.385813,0.912871,0.133472,-0.276601,-0.356352,0.407147
602,-0.378201,0.922474,0.077494,0.2138949999999999,-0.777027,-1.136653
603,-0.269477,0.962969,-0.008522,0.772636,-0.367052,-0.8769
604,-0.085109,0.996369,-0.002195,-0.386449,2.634093,-1.129549
605,0.034078,0.997603,-0.060225,-1.4096879999999998,4.9834,0.4598529999999999
606,0.093869,0.988336,-0.119917,-1.845776,-0.0064329999999999,1.038694
607,0.143701,0.975461,-0.166812,-0.173624,0.228976,0.953067
608,0.182239,0.965209,-0.1875119999999999,-0.318729,-0.303054,0.803662
609,0.1960599999999999,0.962102,-0.189527,-0.904297,-0.637944,0.4272439999999999
610,0.181771,0.966035,-0.18367,-1.124566,-1.4821030000000002,1.336975
611,0.151865,0.974412,-0.165707,-1.070475,-1.576188,0.8993040000000001
612,0.107399,0.985361,-0.132399,-0.573784,-1.69108,-0.383302
613,0.0594429999999999,0.993759,-0.094387,-0.036768,-0.773071,0.443081
614,-0.011627,0.999391,-0.032912,-0.197785,-0.764314,0.238783
615,-0.098586,0.994565,0.033479,-0.306733,-0.249189,-0.459596
616,-0.196938,0.975771,0.095325,-1.389976,1.60684,0.1973849999999999
617,-0.334731,0.931545,0.1420539999999999,-1.997575,2.87682,0.720495
618,-0.487243,0.8498610000000001,0.200826,-3.087052,5.282906,-0.171788
619,-0.5888220000000001,0.7687109999999999,0.249745,-0.838485,2.740551,-0.8556870000000001
620,-0.661401,0.697155,0.276629,0.140145,1.8288,-0.359591
621,-0.718119,0.640255,0.272723,1.013102,0.314197,-0.486178
622,-0.751001,0.601043,0.273394,0.975748,-0.576492,-0.275896
623,-0.762304,0.586973,0.272681,0.985922,-0.841642,-0.424857
624,-0.7543479999999999,0.5999359999999999,0.266525,1.7508849999999998,-1.212668,-0.737534
625,-0.728644,0.6411100000000001,0.240946,2.8111490000000003,-1.7439240000000005,-1.042506
626,-0.6674859999999999,0.7196239999999999,0.191321,3.165045,-2.028004,-1.333334
627,-0.589354,0.78765,0.179635,2.039351,-0.7953100000000001,-0.0274899999999999
628,-0.5255310000000001,0.8318459999999999,0.178466,0.719592,-0.580503,0.1130839999999999
629,-0.454259,0.8604219999999999,0.230917,0.344213,-0.460977,0.910151
630,-0.458963,0.856873,0.234779,-0.8352569999999999,0.074874,2.806694
631,-0.537529,0.838933,0.085169,-0.255211,0.82101,-1.207545
632,-0.57718,0.816601,0.005134,0.642976,0.069248,-0.863029
633,-0.530794,0.8389790000000001,0.1198859999999999,1.710619,0.8671059999999999,-0.190046
634,-0.4578939999999999,0.8886620000000001,0.02475,0.806405,0.8160189999999999,-4.827225
635,-0.398802,0.916223,0.038618,0.114668,1.206274,-2.814146
636,-0.373986,0.925467,0.0603789999999999,-0.986411,0.132074,3.026001
637,-0.339937,0.940221,-0.020679,-0.608107,-0.107793,-0.7622800000000001
638,-0.2384,0.970302,-0.040986,-1.129382,0.127904,-0.55667
639,-0.104234,0.991564,-0.07704,-2.655852,3.777326,0.3810719999999999
640,-0.0278199999999999,0.989656,-0.140739,-1.323377,0.314665,0.898978
641,0.021394,0.9815,-0.190264,-0.549409,-0.103479,1.046099
642,0.056414,0.970985,-0.232392,-0.694873,-0.627372,0.682664
643,0.0688,0.964285,-0.255774,-0.921248,-0.93328,0.932791
644,0.0517629999999999,0.966662,-0.250771,-1.094808,-1.38553,0.952462
645,0.020821,0.976565,-0.214211,-0.204796,-1.055469,0.3751
646,-0.016914,0.986758,-0.161317,0.591637,-0.408587,0.377779
647,-0.0627009999999999,0.992051,-0.109099,0.612765,-0.539537,0.409118
648,-0.136995,0.989718,-0.041116,-0.262755,-0.454989,-0.1680819999999999
649,-0.2413269999999999,0.96988,0.0330839999999999,-0.420935,0.103652,-0.655505
650,-0.366213,0.924092,0.1092829999999999,-1.536299,1.401211,-0.264053
651,-0.520022,0.8367379999999999,0.1716,-3.804716,3.972435,0.187927
652,-0.6363810000000001,0.7425,0.209076,-1.799684,3.853966,-0.663849
653,-0.722663,0.655842,0.218243,-0.005944,1.814312,-0.957684
654,-0.789141,0.5744100000000001,0.2175079999999999,0.198626,1.112449,-0.758356
655,-0.828291,0.5209159999999999,0.20635,0.840758,0.360477,-0.552495
656,-0.8401780000000001,0.499316,0.211621,1.296111,-0.331348,-0.394329
657,-0.832836,0.508732,0.2181179999999999,1.718136,-0.8011520000000001,-0.593148
658,-0.803367,0.555767,0.213834,2.935112,-1.388591,-0.930295
659,-0.7338359999999999,0.649235,0.199946,3.068248,-1.775837,-1.037943
660,-0.629165,0.74561,0.219585,2.697982,-1.5351,0.327504
661,-0.557331,0.8005680000000001,0.220167,1.667866,-0.7709199999999999,0.089358
662,-0.502666,0.829831,0.2422949999999999,0.048138,-0.319394,0.8770129999999999
663,-0.504842,0.831033,0.233492,-1.69102,1.066779,1.314039
664,-0.57326,0.81493,0.085212,-0.687192,1.112132,-1.555747
665,-0.603727,0.7971590000000001,0.0071719999999999,0.742917,0.029593,-0.709336
666,-0.547319,0.8307200000000001,0.101714,0.470369,1.241362,-3.774749
667,-0.477724,0.877914,0.032342,0.402117,1.759628,-3.447076
668,-0.4408689999999999,0.894965,0.068358,-0.046543,0.972604,-1.4783620000000002
669,-0.4292729999999999,0.9004,0.070736,-0.425631,-0.360728,-0.7405510000000001
670,-0.381251,0.924329,0.016201,-1.08112,-0.198026,-0.916301
671,-0.230694,0.972874,0.017228,-1.844303,0.950359,0.046691
672,-0.100137,0.994841,-0.016247,-2.595343,4.222505,0.4226189999999999
673,-0.032985,0.997337,-0.065049,-0.6585439999999999,-0.228034,0.4749
674,0.014387,0.992187,-0.123931,-0.297819,-0.486617,0.579054
675,0.051503,0.981979,-0.181837,-0.699604,-1.157302,0.5536939999999999
676,0.05842,0.975754,-0.210929,-1.428446,-1.875733,1.341895
677,0.034037,0.977638,-0.207521,-1.675776,-2.0122150000000003,1.073824
678,-0.003992,0.986121,-0.165978,-0.402609,-0.654624,0.655877
679,-0.039236,0.993126,-0.110275,0.797186,-0.325982,0.220657
680,-0.070112,0.995868,-0.05772,0.943419,-0.298633,0.3856159999999999
681,-0.126116,0.991931,0.012911,0.171892,-0.6541020000000001,-0.09012
682,-0.222932,0.970303,0.093882,-0.133925,-0.219692,-0.668512
683,-0.3377409999999999,0.922077,0.1889549999999999,-0.917294,0.8616450000000001,-1.008383
684,-0.485254,0.8369620000000001,0.25303,-4.970221,5.073179,0.036841
685,-0.5997939999999999,0.748785,0.2820789999999999,-1.131331,3.2541450000000003,-0.911871
686,-0.684107,0.667691,0.293574,0.040614,2.096301,-0.955027
687,-0.749894,0.595409,0.288352,0.691926,1.2383,-0.807197
688,-0.794405,0.5479890000000001,0.261969,1.254549,0.023162,-0.569816
689,-0.814855,0.524987,0.245765,1.4153639999999998,-0.4332819999999999,-0.417518
690,-0.8105859999999999,0.530666,0.247676,1.730249,-0.8911399999999999,-0.7743479999999999
691,-0.779718,0.576204,0.245009,2.271692,-1.245409,-0.6678
692,-0.7178180000000001,0.665492,0.20459,2.560515,-1.569377,-0.6647649999999999
693,-0.615732,0.759223,0.2108409999999999,2.918512,-1.586387,0.561955
694,-0.536003,0.816155,0.215851,1.7759779999999998,-0.6912159999999999,0.239548
695,-0.4754279999999999,0.8481700000000001,0.233616,0.7834720000000001,-0.47079,0.303051
696,-0.444709,0.855827,0.264187,-1.616006,1.723641,1.827869
697,-0.522036,0.843435,0.126869,-1.305479,1.947443,-1.396126
698,-0.574006,0.818714,-0.014998,0.451295,-0.085209,-1.211015
699,-0.545588,0.831468,0.1048549999999999,0.369013,1.6644880000000002,-2.189373
700,-0.500438,0.8621549999999999,0.079065,0.323863,1.633802,-2.163584
701,-0.466763,0.87856,0.101312,-0.1679109999999999,2.500728,-1.894022
702,-0.461551,0.8827729999999999,0.087648,-0.180233,-0.397055,-0.339464
703,-0.397817,0.916723,0.03689,0.571172,-1.204046,-0.80279
704,-0.241204,0.968881,0.055584,-0.178351,0.491125,-0.1675839999999999
705,-0.10064,0.993334,0.056213,-2.984779,3.5260300000000004,0.661728
706,-0.045288,0.998564,0.0286079999999999,-2.479751,0.8300489999999999,0.595492
707,-0.001201,0.999913,-0.013097,-0.63564,-0.480855,-0.024074
708,0.035823,0.997056,-0.067786,-0.4136,-0.486085,0.218162
709,0.068439,0.989298,-0.12886,-0.775837,-1.525813,0.857253
710,0.078917,0.984213,-0.15842,-1.0446,-1.782736,0.824008
711,0.062415,0.985822,-0.155751,-1.431708,-2.113783,0.7011609999999999
712,0.0249789999999999,0.992908,-0.1162329999999999,-0.084397,-0.43288,0.541877
713,-0.0139789999999999,0.997693,-0.0664309999999999,0.411135,-0.165128,0.442011
714,-0.057224,0.99829,-0.011932,0.762043,-0.288589,0.355941
715,-0.1224619999999999,0.991127,0.051675,0.325847,-0.791267,-0.110468
716,-0.211402,0.968804,0.129339,0.011756,-0.567421,-0.510687
717,-0.31897,0.922936,0.215515,-1.160018,0.673942,-0.952957
718,-0.469949,0.8398120000000001,0.271779,-4.004919999999999,3.939988,0.6613720000000001
719,-0.600726,0.747887,0.282475,-2.802609,5.926398000000001,-0.5212439999999999
720,-0.6856770000000001,0.668308,0.288463,0.492196,1.415676,-0.5839340000000001
721,-0.751534,0.597375,0.279893,0.706047,1.214225,-0.620057
722,-0.793563,0.553894,0.251911,1.119979,0.083267,-0.574696
723,-0.800199,0.5449510000000001,0.250421,1.306913,-0.8247209999999999,-0.606226
724,-0.780863,0.5651189999999999,0.266258,1.9779,-1.092631,-0.69358
725,-0.7407819999999999,0.619711,0.259228,2.330657,-1.261847,-0.6820039999999999
726,-0.66942,0.7056640000000001,0.232196,3.186907,-1.755499,-0.778018
727,-0.578516,0.780312,0.237556,2.836206,-1.62661,0.317254
728,-0.514135,0.826723,0.228459,1.561972,-0.850985,0.106852
729,-0.441242,0.8608100000000001,0.253598,-0.086835,-0.143265,1.516101
730,-0.4304199999999999,0.866719,0.252065,-1.708115,1.562892,-0.188634
731,-0.509547,0.8543120000000001,0.102533,-0.945912,1.281232,-1.522531
732,-0.561665,0.826097,0.0457889999999999,-0.0955309999999999,3.239104,-0.7638520000000001
733,-0.573426,0.815659,0.076707,0.5540619999999999,0.962494,-0.065385
734,-0.560925,0.8218059999999999,0.09999,0.8123130000000001,-0.115004,0.203523
735,-0.518332,0.852036,0.07326,1.104575,-1.409592,-1.3062
736,-0.4134779999999999,0.909806,0.035913,0.658137,-1.456742,-0.898126
737,-0.243292,0.969167,0.039036,0.033682,-0.797384,-0.910237
738,-0.090596,0.995731,0.01765,-2.467692,5.9146540000000005,0.3381699999999999
739,-0.027766,0.998033,-0.056208,-2.362524,4.788802,1.288462
740,0.0428029999999999,0.992435,-0.115064,-0.691637,0.944683,0.808805
741,0.108827,0.98239,-0.151876,-0.4955,-0.393157,0.584387
742,0.1491559999999999,0.973267,-0.174655,-1.247423,-0.819168,0.4316279999999999
743,0.146208,0.971992,-0.183995,-1.424345,-1.173759,0.892934
744,0.106679,0.976782,-0.1857869999999999,-1.6778,-1.866583,1.049053
745,0.05463,0.987694,-0.146546,-0.081913,-1.654839,-0.0612179999999999
746,0.005658,0.99449,-0.104675,0.360965,-0.903395,0.039429
747,-0.044351,0.997318,-0.05822,0.4917689999999999,-0.663563,0.483422
748,-0.123425,0.992349,0.003029,-0.06087,-0.611063,0.152871
749,-0.221526,0.972271,0.074933,-0.821259,0.590824,-0.721082
750,-0.3371719999999999,0.926888,0.164905,-1.379717,1.138069,-0.383136
751,-0.464962,0.854666,0.230989,-4.632496,4.586832,0.585234
752,-0.56775,0.777161,0.271442,-2.111113,4.85611,-0.777866
753,-0.650584,0.702172,0.289301,0.505382,1.870308,-0.918878
754,-0.721309,0.631839,0.2837119999999999,1.234096,1.055249,-0.864721
755,-0.77158,0.58181,0.25722,1.445347,0.209175,-0.761324
756,-0.7962060000000001,0.556804,0.236695,1.531848,-0.560664,-0.5633699999999999
757,-0.790363,0.565391,0.2359239999999999,1.7919650000000005,-0.768333,-0.765053
758,-0.743646,0.628057,0.229204,2.522623,-1.1517540000000002,-0.6952229999999999
759,-0.6405350000000001,0.737213,0.215015,2.798418,-1.7952119999999998,-0.674427
760,-0.5079520000000001,0.8295950000000001,0.231856,2.727877,-1.987706,0.515718
761,-0.4311779999999999,0.8740620000000001,0.223832,1.697414,-1.07412,0.236816
762,-0.384441,0.8927309999999999,0.235023,-0.098255,-0.391388,0.862419
763,-0.38991,0.8966459999999999,0.209751,-0.7821020000000001,1.294333,-1.827167
764,-0.452052,0.889028,0.072654,-0.395894,0.832499,-1.950034
765,-0.4763449999999999,0.879075,0.017973,0.215359,2.912261,0.265459
766,-0.459025,0.8823469999999999,0.103728,0.198039,2.908989,0.179704
767,-0.439967,0.8920879999999999,0.102996,0.035197,0.845461,-1.046798
768,-0.418713,0.901956,0.105618,0.6022770000000001,-0.983163,-0.8237120000000001
769,-0.353261,0.933983,0.053679,0.8460290000000001,-1.026818,-1.094145
770,-0.200034,0.979698,0.013345,0.310676,0.687508,-1.271463
771,-0.016415,0.999818,0.009677,-1.354068,4.9994190000000005,0.682095
772,0.086227,0.9937,-0.07159,-2.399506,4.980925,2.87437
773,0.1461859999999999,0.982499,-0.115435,-0.14402,-0.246049,1.184359
774,0.189739,0.973672,-0.126342,-0.748073,-0.080087,0.5473319999999999
775,0.208396,0.971245,-0.1151259999999999,-1.172721,-0.308739,0.060073
776,0.19251,0.976187,-0.099992,-1.245641,-0.854743,0.715639
777,0.154723,0.984136,-0.0868159999999999,-0.7228680000000001,-1.593481,-0.194877
778,0.103164,0.992334,-0.06804,-0.275771,-1.894404,-0.31288
779,0.052416,0.997571,-0.045888,-0.142702,-1.973691,0.1059619999999999
780,-0.004038,0.999902,-0.013438,-0.747045,-1.087197,0.291804
781,-0.090713,0.995271,0.034727,-0.617341,-0.336,-0.107511
782,-0.183308,0.978472,0.09482,-0.3655199999999999,0.320417,-0.8451860000000001
783,-0.279896,0.948431,0.148786,-0.912731,0.634058,-0.013899
784,-0.398376,0.898642,0.183684,-3.383118,3.880335,0.464784
785,-0.541129,0.806253,0.239029,-4.45025,5.703054,-0.024856
786,-0.626919,0.731416,0.268335,0.022488,2.5325,-0.800104
787,-0.696242,0.667263,0.2645889999999999,1.504668,0.572956,-0.719057
788,-0.7454189999999999,0.618165,0.249444,1.346478,0.208815,-0.547784
789,-0.771044,0.588983,0.242054,1.272722,-0.4518069999999999,-0.338261
790,-0.77633,0.5842930000000001,0.236461,1.820947,-0.884235,-0.451229
791,-0.7573880000000001,0.61632,0.215666,2.227054,-1.0256379999999998,-0.561949
792,-0.6964020000000001,0.697857,0.167392,2.919699,-1.557324,-0.783405
793,-0.591644,0.787563,0.17234,2.141602,-1.507351,0.570046
794,-0.513521,0.8391360000000001,0.179294,1.762881,-1.16572,0.2712219999999999
795,-0.46112,0.8647459999999999,0.198952,0.453109,-0.624283,0.181175
796,-0.415056,0.874497,0.250967,-1.513335,0.5105890000000001,2.365366
797,-0.461796,0.8740600000000001,0.150874,-0.981594,1.414148,-1.981761
798,-0.5049319999999999,0.862468,0.034537,-0.247921,0.600301,-1.1948
799,-0.502415,0.8641049999999999,0.030018,1.741383,-0.900085,-0.389927
800,-0.442562,0.8924709999999999,0.087372,1.602017,0.890396,1.427017
801,-0.399727,0.913585,0.074702,0.038597,3.865376,-4.911433000000001
802,-0.375327,0.914816,0.149135,-0.266,1.7280669999999998,-0.7299
803,-0.366204,0.929375,0.046432,-0.237724,-0.553002,0.622727
804,-0.30053,0.95298,0.0388779999999999,-0.080574,-0.941826,-0.946501
805,-0.1905329999999999,0.98089,0.039394,-0.8290139999999999,0.512167,-1.010661
806,-0.100026,0.994402,0.034065,-3.589717,4.91284,1.488289
807,-0.042436,0.999079,-0.006357,-2.461318,-0.106501,-0.103324
808,-0.000394,0.998012,-0.063016,-0.5025350000000001,-0.911251,0.593793
809,0.026787,0.992578,-0.118625,0.1279529999999999,-0.5943390000000001,0.174716
810,0.038939,0.987154,-0.154952,-0.314161,-1.319796,0.614608
811,0.035005,0.987217,-0.155488,-0.87961,-1.7503400000000002,0.7919930000000001
812,0.0139199999999999,0.99086,-0.134176,-1.029011,-1.7952419999999998,0.732595
813,-0.020582,0.995796,-0.089253,-0.316988,-0.754753,0.501195
814,-0.065975,0.996837,-0.044312,0.469128,-0.489543,0.248322
815,-0.123982,0.992231,0.010306,0.548542,-0.8542,-0.065497
816,-0.202456,0.976449,0.074559,0.020723,-0.832543,-0.688298
817,-0.298649,0.944023,0.140101,-0.491054,-0.102074,-0.8545940000000001
818,-0.427747,0.883618,0.190396,-2.554232,2.043353,0.360003
819,-0.558495,0.797407,0.228529,-3.009804,4.638933,-0.461012
820,-0.649792,0.716246,0.254485,-0.992634,2.964754,-0.728224
821,-0.708946,0.651433,0.270243,0.2943179999999999,1.805659,-0.166468
822,-0.754274,0.60045,0.265575,0.555605,0.539443,-0.47639
823,-0.775496,0.573741,0.26349,0.729338,-0.26324,-0.17122
824,-0.778564,0.571856,0.258493,0.859527,-0.4248689999999999,-0.179529
825,-0.768958,0.590084,0.245978,1.479437,-0.61166,-0.5183479999999999
826,-0.748402,0.626736,0.217018,1.7798200000000002,-0.7338520000000001,-0.556359
827,-0.6935180000000001,0.699795,0.17123,3.155798,-1.259487,-1.020763
828,-0.606912,0.774926,0.176489,2.053613,-1.405007,0.353083
829,-0.544038,0.8184170000000001,0.184975,1.060136,-1.003796,-0.064812
830,-0.477416,0.847979,0.230231,0.621855,-0.769076,-0.050894
831,-0.458914,0.8541,0.2447659999999999,-1.99862,0.731807,0.4548649999999999
832,-0.526827,0.840708,0.125154,-0.962583,1.149664,-1.6653
833,-0.580869,0.813595,0.025583,-0.500842,0.88097,-0.837304
834,-0.561616,0.8177,0.126307,2.4544080000000004,2.008456,5.675817
835,-0.511853,0.854714,0.086434,-0.1371339999999999,2.129783,-3.239784
836,-0.479735,0.870877,0.106899,0.057921,1.798633,-2.478786
837,-0.474997,0.869585,0.134903,0.395987,-0.517275,-0.418121
838,-0.439504,0.894489,0.082015,0.42426,-0.836841,-0.446593
839,-0.313311,0.94661,0.075935,-0.135801,0.160675,-0.18798
840,-0.152293,0.986217,0.064673,-2.367085,3.616078,-0.725089
841,-0.063328,0.997754,0.021843,-3.008221,2.004184,1.002876
842,0.006814,0.999575,-0.028331,-1.188348,-0.029162,0.775432
843,0.062797,0.995719,-0.067828,-0.101143,-0.2499449999999999,0.763537
844,0.095967,0.99002,-0.1032039999999999,-0.885243,-0.539733,0.210916
845,0.099315,0.987411,-0.123114,-1.139018,-1.01657,0.452597
846,0.077834,0.98847,-0.129879,-1.194564,-1.626577,0.770076
847,0.044217,0.992823,-0.111119,-0.591443,-2.25767,0.749318
848,0.008579,0.997835,-0.065213,0.091961,-1.805711,0.06007
849,-0.032605,0.999198,-0.02324,0.645185,-0.585639,0.100037
850,-0.095591,0.994997,0.029033,0.2134199999999999,-0.902636,0.152775
851,-0.175055,0.98013,0.093282,-0.234781,-0.674099,-0.336568
852,-0.260109,0.952079,0.160903,-0.529319,0.087808,-0.762679
853,-0.359967,0.908132,0.2138199999999999,-1.56969,0.738459,-0.5054
854,-0.4846859999999999,0.836992,0.254017,-4.610529,3.397581,0.330227
855,-0.5948439999999999,0.750698,0.287427,-2.395787,5.115727,-0.7445189999999999
856,-0.674158,0.675138,0.299498,-0.0815029999999999,2.32126,-0.773573
857,-0.735741,0.612579,0.288848,0.576241,1.421235,-0.663009
858,-0.775407,0.569012,0.273804,1.130128,0.0534549999999999,-0.3665469999999999
859,-0.790852,0.551143,0.266071,1.353764,-0.618007,-0.40137
860,-0.78685,0.561549,0.2559889999999999,1.478668,-0.815134,-0.515663
861,-0.76172,0.604294,0.233692,2.363832,-1.124786,-0.5922890000000001
862,-0.703501,0.6846180000000001,0.19075,2.980524,-1.497057,-0.6854399999999999
863,-0.602614,0.776638,0.183549,2.769102,-1.590481,-0.216279
864,-0.524752,0.8309850000000001,0.184662,1.100801,-0.87905,0.055313
865,-0.448597,0.8655510000000001,0.222673,0.600742,-0.697338,0.074248
866,-0.4150609999999999,0.8732469999999999,0.255272,-1.405237,0.399519,2.651268
867,-0.486782,0.8633799999999999,0.132731,-1.191501,1.6660849999999998,-2.116298
868,-0.549039,0.8352809999999999,0.029342,-0.438921,0.819916,-1.025115
869,-0.5491060000000001,0.831133,0.087754,0.488025,2.450819,-1.434601
870,-0.5203770000000001,0.8506959999999999,0.074325,0.704886,0.225888,-0.582183
871,-0.483377,0.873114,0.0633929999999999,0.738535,-0.5101680000000001,-0.491677
872,-0.423911,0.904448,0.047684,0.733054,-1.1045969999999998,-1.029602
873,-0.303356,0.952861,0.005627,0.177609,-0.390925,-0.809766
874,-0.125228,0.992125,0.00265,-0.351274,0.693407,-0.8283799999999999
875,0.008242,0.999487,-0.030962,-1.670626,4.498332,-0.63661
876,0.096534,0.988932,-0.112672,-1.090552,1.738012,1.323457
877,0.178835,0.971424,-0.156059,-0.52878,0.8249780000000001,0.992409
878,0.233761,0.957968,-0.166292,-0.915066,0.200128,1.460344
879,0.249623,0.955034,-0.159997,-1.829762,-0.111421,-0.260932
880,0.222054,0.961608,-0.161253,-1.679039,-0.612121,0.405821
881,0.167115,0.972435,-0.162615,-1.381882,-2.259147,1.075701
882,0.113597,0.984696,-0.132174,-0.458995,-2.1348580000000004,-0.170972
883,0.067822,0.991769,-0.108598,-0.41322,-2.141931,-0.194548
884,-0.000361,0.997834,-0.0657809999999999,-0.331869,-1.091614,0.2544099999999999
885,-0.090603,0.995887,-0.000304,-0.6556890000000001,-0.495307,-0.112001
886,-0.184615,0.980316,0.069993,-1.073335,0.624482,-1.129868
887,-0.294165,0.945668,0.138491,-2.415048,2.677486,1.070356
888,-0.428989,0.882001,0.195044,-3.723919,5.569232,-0.1955319999999999
889,-0.547678,0.799654,0.2461739999999999,-1.385702,3.796476,-1.172565
890,-0.6424810000000001,0.719016,0.265017,-0.573324,2.920205,-1.057254
891,-0.7246779999999999,0.6448149999999999,0.243011,1.398354,1.291434,-0.93219
892,-0.771399,0.59143,0.2348489999999999,1.63436,-0.164718,-0.2318889999999999
893,-0.793054,0.562739,0.2332179999999999,1.681802,-0.463038,-0.2992889999999999
894,-0.791363,0.567488,0.22738,1.924832,-0.872374,-0.431497
895,-0.761321,0.615139,0.204926,2.913482,-1.257961,-0.518494
896,-0.692168,0.702199,0.166796,2.880187,-1.542195,-0.5455949999999999
897,-0.598338,0.7830739999999999,0.169667,2.345515,-1.70768,0.341792
898,-0.5236390000000001,0.836146,0.1632849999999999,1.058642,-0.678828,-0.112
899,-0.457046,0.87172,0.176671,0.528976,-0.441697,-0.072118
900,-0.410192,0.88639,0.214607,-1.070582,0.648004,2.23034
901,-0.4659029999999999,0.8785620000000001,0.1051859999999999,-1.377787,1.786203,-1.92588
902,-0.51873,0.854605,-0.023879,-0.375985,0.558817,-1.362886
903,-0.5083770000000001,0.859907,0.045966,1.916718,-0.8317389999999999,0.941385
904,-0.453812,0.890601,0.029756,-0.05336,1.803751,-2.414109
905,-0.413103,0.910001,0.035261,-0.419126,2.369341,-2.273817
906,-0.417653,0.90655,0.0611059999999999,-0.1114309999999999,0.134023,0.4220939999999999
907,-0.386477,0.922278,-0.006183,0.409029,-1.013099,-0.957669
908,-0.265231,0.963352,-0.040072,0.7738520000000001,-1.032459,-0.8253149999999999
909,-0.1005269999999999,0.993612,-0.0512799999999999,-0.591016,1.547205,-1.479726
910,-0.013537,0.992626,-0.120463,-2.974484,5.34998,2.219843
911,0.041108,0.985862,-0.162439,-1.867219,-0.118171,1.2649629999999998
912,0.086937,0.977565,-0.191856,-0.671608,-0.4032699999999999,0.3825139999999999
913,0.11116,0.971458,-0.209552,-1.046661,-0.485222,0.307879
914,0.105655,0.969599,-0.220714,-1.026462,-0.861964,0.503963
915,0.075672,0.973644,-0.215156,-0.8373149999999999,-1.815013,1.004142
916,0.038579,0.981937,-0.1852349999999999,-0.556706,-1.831226,0.233865
917,0.001288,0.988009,-0.154389,0.213327,-1.718692,0.029832
918,-0.0592679999999999,0.992969,-0.102471,-0.026395,-1.04729,0.4783409999999999
919,-0.137533,0.98978,-0.037697,-0.264201,-0.952335,0.282311
920,-0.228198,0.973144,0.030286,-0.485959,-0.119979,-0.2383699999999999
921,-0.333577,0.937265,0.101299,-1.519268,1.249503,0.154408
922,-0.462931,0.872302,0.157431,-2.695608,2.6156740000000003,0.866769
923,-0.582515,0.785439,0.209194,-4.203114,6.057426,-0.134426
924,-0.6743020000000001,0.700719,0.233044,-0.005645,2.131419,-0.7291529999999999
925,-0.748196,0.624266,0.224708,0.684308,1.761918,-0.605263
926,-0.797512,0.566348,0.207904,1.474209,0.362607,-0.48746
927,-0.820449,0.534696,0.202394,1.451659,-0.502409,-0.364931
928,-0.816542,0.5388539999999999,0.207113,1.4468370000000002,-0.7247060000000001,-0.5161789999999999
929,-0.782558,0.590216,0.198113,1.909068,-1.09458,-0.570366
930,-0.706989,0.6891390000000001,0.158916,2.682132,-1.746833,-0.814968
931,-0.580952,0.79513,0.173963,2.621022,-2.008066,0.388887
932,-0.47311,0.863556,0.174466,2.23106,-1.415573,0.2144039999999999
933,-0.420406,0.8916209999999999,0.16814,0.920666,-0.292149,0.212033
934,-0.386163,0.901973,0.193189,-1.068717,1.076374,2.450182
935,-0.430381,0.8982180000000001,0.089313,-0.8567739999999999,1.374121,-1.949497
936,-0.472049,0.881083,-0.029362,-0.350659,0.978048,-2.005016
937,-0.482333,0.875972,0.005336,0.027667,1.963719,0.0773669999999999
938,-0.47375,0.88044,0.019661,0.397929,0.6863630000000001,-0.413643
939,-0.461279,0.886984,0.021935,0.8629049999999999,-0.42298,-0.4599229999999999
940,-0.3976179999999999,0.917531,0.006092,0.74947,-0.734532,-1.150578
941,-0.255667,0.96676,-0.003076,0.2447869999999999,-0.067636,-0.713477
942,-0.089312,0.996003,0.0011769999999999,-0.8894629999999999,2.407501,-0.766894
943,0.021347,0.998362,-0.0530789999999999,-2.121582,4.426717,0.421091
944,0.103248,0.988151,-0.113571,-2.077018,0.759149,0.967666
945,0.15746,0.97552,-0.1535119999999999,-0.543004,-0.207332,0.961359
946,0.193409,0.963923,-0.182881,-0.4100689999999999,-0.2059119999999999,0.716115
947,0.207502,0.957488,-0.200398,-1.144941,-0.3251949999999999,0.2589909999999999
948,0.193098,0.959473,-0.2052449999999999,-1.387846,-0.96788,0.806243
949,0.157696,0.967508,-0.1976369999999999,-1.233181,-1.509821,1.082478
950,0.109679,0.980189,-0.164924,-0.6623829999999999,-1.720027,0.2496719999999999
951,0.060921,0.988575,-0.137867,0.258628,-1.52599,-0.065121
952,0.006197,0.995482,-0.094747,0.381239,-0.8336469999999999,0.460912
953,-0.069239,0.996853,-0.0385939999999999,-0.198232,-0.791211,0.138356
954,-0.149948,0.988401,0.024063,-0.339844,-0.036802,-0.1487119999999999
955,-0.240114,0.966203,0.093792,-0.60974,0.6732319999999999,-0.950161
956,-0.357709,0.921547,0.150983,-1.556277,1.895287,0.53313
957,-0.492332,0.85051,0.185044,-4.07589,5.505996,0.06813
958,-0.579956,0.787717,0.207732,-1.20195,3.001864,-0.765487
959,-0.6556350000000001,0.72382,0.215004,0.545375,1.627742,-0.5923390000000001
960,-0.714687,0.672322,0.192887,1.297924,0.961788,-0.688203
961,-0.745861,0.642609,0.175342,1.537167,-0.028824,-0.405368
962,-0.7517659999999999,0.636502,0.172373,1.477871,-0.591168,-0.331339
963,-0.7373649999999999,0.65398,0.169124,1.954773,-0.988346,-0.3985849999999999
964,-0.696277,0.7048479999999999,0.1356,2.157657,-1.153563,-0.334178
965,-0.622434,0.778099,0.084485,2.69116,-1.517158,-0.387219
966,-0.535538,0.841376,0.072695,1.97664,-1.685431,0.657896
967,-0.4786229999999999,0.876149,0.057299,1.42508,-1.252492,0.4067659999999999
968,-0.426589,0.89876,0.101252,0.480651,-0.411089,0.170888
969,-0.40967,0.906511,0.102023,-1.355054,1.7628009999999998,-0.30089
970,-0.452765,0.891451,-0.017866,-1.096353,1.635908,-1.960665
971,-0.4711359999999999,0.875331,-0.108745,-0.062586,0.54984,-1.17812
972,-0.443468,0.896066,-0.0200599999999999,0.4127979999999999,2.151603,-0.3115429999999999
973,-0.42253,0.906046,-0.023425,-0.0504779999999999,2.288045,-1.504605
974,-0.426596,0.904406,0.00807,-0.190104,0.7263,-1.035338
975,-0.397111,0.91768,-0.0128669999999999,0.05092,-0.570955,-0.913021
976,-0.290199,0.95464,-0.066683,0.321784,-0.776158,-0.933637
977,-0.128139,0.988158,-0.0844,0.402522,0.110474,-1.064266
978,0.000101,0.992513,-0.122139,-1.041559,4.312846,0.602272
979,0.082726,0.978939,-0.186641,-2.048104,0.979496,1.333476
980,0.133378,0.966681,-0.218492,-1.156709,-0.122732,0.772219
981,0.175064,0.956775,-0.232236,-1.0776059999999998,-0.163028,0.106717
982,0.196015,0.951048,-0.238928,-1.361847,-0.724165,0.493139
983,0.185943,0.950888,-0.247463,-1.390121,-1.19454,1.009166
984,0.149311,0.956241,-0.251612,-1.162037,-1.569599,0.90362
985,0.0979299999999999,0.969426,-0.2249949999999999,-0.648421,-1.85085,0.4469649999999999
986,0.0388769999999999,0.979801,-0.196159,0.085207,-1.758274,0.006919
987,-0.02745,0.986933,-0.158773,0.146087,-0.999339,0.368276
988,-0.110249,0.988895,-0.099661,-0.242519,-0.763538,0.120993
989,-0.197652,0.979654,-0.034798,-0.651454,0.298361,-0.456917
990,-0.310835,0.949895,0.032866,-2.542803,3.13531,1.225358
991,-0.457217,0.885869,0.078666,-4.181394,6.305505999999999,0.0656669999999999
992,-0.574458,0.809095,0.1239519999999999,-1.942281,4.080752,-0.664876
993,-0.669439,0.727804,0.148835,0.5092979999999999,1.922144,-0.614915
994,-0.749728,0.6484770000000001,0.131855,1.356082,0.814231,-0.6915479999999999
995,-0.7952640000000001,0.594847,0.117102,1.32302,-0.1905349999999999,-0.27236
996,-0.813561,0.5682649999999999,0.123266,1.421059,-0.681347,-0.244588
997,-0.8115829999999999,0.570965,0.12382,2.131621,-1.051602,-0.437816
998,-0.789097,0.60448,0.109224,2.450505,-1.121966,-0.4731609999999999
999,-0.73593,0.672469,0.078692,2.9740740000000003,-1.446654,-0.626239
1000,-0.655311,0.752159,0.0694549999999999,2.624305,-1.597985,0.448947
1001,-0.580198,0.8128989999999999,0.050662,1.720807,-0.8353139999999999,0.394422
1002,-0.522321,0.851875,0.038603,0.448285,-0.405006,0.362825
1003,-0.470485,0.87869,0.080913,-1.485417,0.681307,1.54932
1004,-0.482827,0.875653,-0.010529,-1.300254,1.407642,-2.214675
1005,-0.510994,0.850526,-0.1244619999999999,-0.350426,0.8672629999999999,-0.6723819999999999
1006,-0.519345,0.8463309999999999,-0.118339,0.777935,2.275876,1.198646
1007,-0.500525,0.855927,-0.1298609999999999,0.8306030000000001,0.965301,-0.46691
1008,-0.4721979999999999,0.872251,-0.127304,0.660934,0.192858,-0.3809059999999999
1009,-0.409934,0.905801,-0.1071329999999999,0.120765,0.118475,-0.55757
1010,-0.297203,0.948257,-0.111713,-0.170479,0.087754,-0.670925
1011,-0.161254,0.978886,-0.125619,-0.53618,0.817593,-1.040687
1012,-0.058431,0.988771,-0.137541,-1.827097,3.341017,-0.322085
1013,0.029005,0.982516,-0.1839039999999999,-1.788725,1.6539130000000002,1.840474
1014,0.08383,0.974384,-0.208684,-0.922087,-0.181232,0.95908
1015,0.125072,0.965571,-0.228102,-1.030254,-0.2232,0.387266
1016,0.1541539999999999,0.956094,-0.249241,-1.195627,-0.398171,0.025319
1017,0.153969,0.950862,-0.268617,-1.239372,-1.131297,0.7689520000000001
1018,0.115148,0.956577,-0.267773,-1.335622,-1.932941,1.210552
1019,0.063601,0.968232,-0.24183,-0.330294,-1.870881,0.072762
1020,0.018687,0.978003,-0.207753,0.425313,-0.715216,0.5665180000000001
1021,-0.034963,0.986864,-0.157723,0.378637,-0.536089,0.596536
1022,-0.107419,0.989052,-0.101178,-0.055774,-0.5779350000000001,-0.281726
1023,-0.1869019999999999,0.981537,-0.040644,-1.022967,0.64418,-0.631261
1024,-0.294563,0.95491,0.037131,-1.716789,1.84787,0.703623
1025,-0.436608,0.894843,0.092897,-3.089469,4.490076,-0.027238
1026,-0.567619,0.807975,0.158064,-0.96418,2.674202,-0.90753
1027,-0.660725,0.7257520000000001,0.191641,-0.343013,2.756517,-0.568075
1028,-0.73454,0.653144,0.183994,1.022336,1.736855,-0.63573
1029,-0.782836,0.5945050000000001,0.183664,0.921157,-0.054298,-0.130472
1030,-0.8067850000000001,0.55967,0.189388,0.969489,-0.373773,-0.073803
1031,-0.812546,0.554921,0.178415,1.5021209999999998,-1.087788,-0.350931
1032,-0.7962739999999999,0.583866,0.158267,2.313242,-1.357807,-0.702533
1033,-0.748061,0.653485,0.115594,2.807204,-1.7196169999999995,-0.907128
1034,-0.6650119999999999,0.740306,0.098519,2.5029790000000003,-1.78152,-0.465859
1035,-0.5850920000000001,0.805489,0.094095,1.773981,-0.848656,0.031729
1036,-0.5234989999999999,0.844784,0.110854,1.119996,-0.601742,-0.127883
1037,-0.46083,0.867992,0.185004,0.268829,-0.0263009999999999,1.327066
1038,-0.483508,0.864252,0.13888,-1.493008,1.7283990000000002,-2.03895
1039,-0.544165,0.8384370000000001,0.030141,0.4798949999999999,0.117221,1.082912
1040,-0.574749,0.818213,0.0138039999999999,1.556576,2.202157,4.1483360000000005
1041,-0.547038,0.836809,0.022379,0.903941,1.591689,-1.36912
1042,-0.497271,0.867519,-0.011521,0.81563,-0.212871,-1.170303
1043,-0.4585439999999999,0.8884639999999999,-0.019219,0.738863,-0.8028930000000001,-1.219352
1044,-0.406365,0.913257,-0.028797,0.241998,-0.6700010000000001,-0.63351
1045,-0.29694,0.954336,-0.032714,-1.05032,1.895899,-0.12082
1046,-0.153269,0.987658,-0.0322519999999999,-1.8505,3.5612160000000004,-0.356222
1047,-0.049471,0.993901,-0.0985549999999999,-1.604795,2.30804,0.751433
1048,0.0431449999999999,0.985981,-0.161186,-0.650583,1.048504,0.969032
1049,0.107918,0.974388,-0.197288,-0.402733,0.106377,1.506691
1050,0.1562869999999999,0.963179,-0.218771,-1.1238629999999998,-0.20114,0.1211609999999999
1051,0.173432,0.957948,-0.2286,-1.405396,-0.559663,0.308739
1052,0.151411,0.961663,-0.228648,-1.46034,-1.547798,1.140315
1053,0.095639,0.96886,-0.228392,-1.250089,-2.003483,0.75926
1054,0.035195,0.980883,-0.191387,-0.363671,-2.090609,0.530636
1055,-0.019243,0.989147,-0.145665,0.439455,-0.842968,0.319111
1056,-0.086713,0.992165,-0.089944,0.475477,-0.665215,0.355584
1057,-0.1676109999999999,0.985663,-0.019371,-0.059378,-0.26319,0.024513
1058,-0.2529679999999999,0.965637,0.059607,-0.683754,0.8375549999999999,-1.080847
1059,-0.35386,0.923834,0.145992,-1.60871,2.003137,0.795049
1060,-0.476259,0.8586450000000001,0.189489,-3.632017,5.538282,-0.04775
1061,-0.586929,0.780081,0.216766,-1.232529,3.0079130000000003,-0.837814
1062,-0.669492,0.703743,0.237752,0.1890079999999999,1.824669,-0.667424
1063,-0.742338,0.633103,0.219352,0.916639,1.277297,-0.8300850000000001
1064,-0.785041,0.588851,0.192264,1.345938,0.1226049999999999,-0.485645
1065,-0.799552,0.571257,0.185424,1.50048,-0.648741,-0.464827
1066,-0.79247,0.581733,0.183246,1.675374,-0.819617,-0.4378229999999999
1067,-0.762432,0.625171,0.16691,2.372066,-1.189532,-0.543894
1068,-0.7027899999999999,0.698707,0.13377,2.478684,-1.581031,-0.471371
1069,-0.623256,0.770686,0.132647,2.469966,-1.823115,0.284742
1070,-0.553653,0.823084,0.126499,1.781772,-1.115137,0.416272
1071,-0.495054,0.8569469999999999,0.1434,0.206801,-0.211469,0.700838
1072,-0.4499,0.8708899999999999,0.197841,-1.653722,0.979864,0.991734
1073,-0.495754,0.8621969999999999,0.104138,-1.607869,0.988557,1.085437
1074,-0.544354,0.838377,-0.028322,0.7132689999999999,-0.145597,-0.63394
1075,-0.535878,0.8442870000000001,0.0039,1.951222,-0.369113,1.628027
1076,-0.4823739999999999,0.875834,0.0151569999999999,-0.064074,1.634694,-2.269826
1077,-0.445816,0.895041,0.012237,-0.610382,1.503214,-1.146072
1078,-0.445202,0.8950170000000001,0.027204,-0.562778,0.481051,1.723834
1079,-0.4006369999999999,0.915219,-0.043185,0.219194,-0.59721,-0.938291
1080,-0.274931,0.958512,-0.075279,0.7831560000000001,0.1630849999999999,-0.864922
1081,-0.124292,0.988397,-0.087313,0.021051,1.464454,-1.129651
1082,-0.0363649999999999,0.989237,-0.141729,-1.147137,4.340047,1.444021
1083,0.022323,0.983477,-0.179649,-1.153412,-0.200152,0.9006270000000001
1084,0.0788519999999999,0.974733,-0.20899,-0.808894,-0.315157,0.189658
1085,0.125443,0.963685,-0.235744,-1.171433,-0.419892,0.183574
1086,0.141568,0.955681,-0.258133,-1.490658,-0.98391,0.949707
1087,0.109538,0.955808,-0.2728219999999999,-1.756175,-1.544889,1.005519
1088,0.050631,0.962344,-0.267077,-1.391024,-2.0750610000000003,1.179659
1089,0.000335,0.977422,-0.211299,0.447938,-1.028065,0.297969
1090,-0.05216,0.986537,-0.154997,1.104589,-0.444301,0.590345
1091,-0.1046619999999999,0.991115,-0.082083,0.7559680000000001,-0.469203,0.4922539999999999
1092,-0.179747,0.983712,-0.001556,-0.238557,0.306419,-0.755692
1093,-0.280447,0.956306,0.082633,-1.225977,1.218438,-0.311302
1094,-0.42471,0.892057,0.154455,-3.613315,3.167117,0.388484
1095,-0.5582010000000001,0.8036840000000001,0.206166,-2.806103,4.053555,-0.580067
1096,-0.6549470000000001,0.7176600000000001,0.236661,-0.1390289999999999,2.4134130000000003,-0.789929
1097,-0.7360369999999999,0.633426,0.2387889999999999,0.4451279999999999,1.6649740000000002,-0.577245
1098,-0.7883899999999999,0.5754630000000001,0.2174469999999999,0.8623799999999999,0.307731,-0.485529
1099,-0.81088,0.545057,0.2130389999999999,1.169218,-0.5420510000000001,-0.185497
1100,-0.807978,0.5456880000000001,0.222252,1.164408,-0.741107,-0.389565
1101,-0.785573,0.575304,0.227818,1.558644,-0.883959,-0.544666
1102,-0.748445,0.630512,0.205632,2.114366,-1.032551,-0.718526
1103,-0.6851729999999999,0.708348,0.169648,2.880455,-1.6686599999999998,-1.076875
1104,-0.583242,0.793478,0.173841,2.580709,-1.622015,0.556963
1105,-0.494886,0.8529709999999999,0.165914,1.894422,-0.81693,0.069728
1106,-0.431784,0.8840389999999999,0.17899,-0.350534,0.13537,1.631481
1107,-0.3996889999999999,0.89143,0.213546,-1.591034,1.617222,2.361329
1108,-0.474209,0.8750959999999999,0.0966,-1.149753,1.542765,-1.79025
1109,-0.529081,0.848359,-0.018977,1.047696,1.175429,0.809825
1110,-0.52568,0.8503149999999999,0.025002,0.7814479999999999,1.68301,-0.690697
1111,-0.488569,0.8724190000000001,-0.013624,0.648832,0.705904,-0.792437
1112,-0.4524829999999999,0.891757,-0.005413,0.412871,-0.075182,-0.754139
1113,-0.412821,0.910568,0.021078,-0.22373,-0.102265,-0.406699
1114,-0.319292,0.94761,0.009345,-0.438871,0.10224,-0.704566
1115,-0.1759869999999999,0.984389,-0.0026739999999999,-1.7792439999999998,2.96068,-0.533932
1116,-0.056147,0.997141,-0.050566,-1.248785,1.794286,1.0331709999999998
1117,0.03729,0.993065,-0.111497,-1.18002,1.12606,1.264162
1118,0.096817,0.982919,-0.156513,-0.43721,-0.252374,1.084049
1119,0.1450509999999999,0.971946,-0.185152,-0.990098,-0.319465,0.124636
1120,0.172658,0.963107,-0.206431,-1.208501,-0.3825409999999999,0.09521
1121,0.162422,0.962702,-0.2163909999999999,-1.2858040000000002,-1.0720459999999998,0.754965
1122,0.119735,0.970019,-0.2114889999999999,-1.065398,-1.920519,0.902239
1123,0.066004,0.981974,-0.177115,-0.127909,-1.768779,0.46546
1124,0.012029,0.991518,-0.129415,0.330103,-0.926225,0.102834
1125,-0.0497019999999999,0.995844,-0.07632,0.398899,-0.868814,0.408641
1126,-0.126995,0.991854,-0.009923,0.174755,-0.924517,0.050176
1127,-0.212087,0.975329,0.0612539999999999,-0.817958,0.304135,-0.927602
1128,-0.317206,0.938737,0.134738,-2.758875,2.494537,1.027982
1129,-0.45227,0.873376,0.18074,-4.226838,5.359808999999999,-0.119476
1130,-0.558994,0.7964439999999999,0.230657,-2.148877,4.242954,-0.8350569999999999
1131,-0.636954,0.7247899999999999,0.262619,0.094428,2.0223720000000003,-0.500229
1132,-0.702559,0.6631640000000001,0.258116,0.7994829999999999,1.364302,-0.747954
1133,-0.747101,0.6218600000000001,0.234798,1.279038,0.121075,-0.484752
1134,-0.766543,0.599258,0.2308719999999999,1.339052,-0.600143,-0.29882
1135,-0.766108,0.599996,0.2303989999999999,1.543543,-0.774831,-0.4705109999999999
1136,-0.745576,0.6300560000000001,0.217132,2.042787,-1.065816,-0.482268
1137,-0.692861,0.701176,0.168214,2.912114,-1.647557,-0.550828
1138,-0.589805,0.795756,0.137485,2.3055950000000003,-1.853205,0.3549469999999999
1139,-0.486708,0.8638819999999999,0.129706,1.596801,-1.171834,0.166894
1140,-0.416166,0.895757,0.1562849999999999,0.657133,-0.342565,0.204815
1141,-0.369107,0.901958,0.224126,-1.400622,1.168111,2.418177
1142,-0.4413069999999999,0.8884780000000001,0.125914,-1.4054799999999998,1.55746,-2.370985
1143,-0.518452,0.8550559999999999,0.009281,-0.2409929999999999,0.287568,-1.2756379999999998
1144,-0.544558,0.8368909999999999,0.055407,0.97484,1.244591,1.5865
1145,-0.544177,0.8380610000000001,0.039057,1.045749,0.786161,-0.6176550000000001
1146,-0.522602,0.852043,0.030179,1.0068700000000002,-0.486137,-0.721921
1147,-0.463317,0.88507,0.0445949999999999,0.649108,-0.530425,-1.081719
1148,-0.3431349999999999,0.93895,0.025138,-0.264913,0.322387,-0.896445
1149,-0.194695,0.980506,0.0264769999999999,-1.268241,2.355233,-0.779468
1150,-0.097049,0.995219,0.011028,-2.347561,3.485204,0.520359
1151,-0.009034,0.998465,-0.054646,-1.771209,0.557611,0.8422290000000001
1152,0.070033,0.991719,-0.107654,0.0802659999999999,-0.0469399999999999,0.516559
1153,0.129795,0.978128,-0.162537,-0.050983,-0.17753,0.648392
1154,0.16787,0.962916,-0.211216,-0.983422,-0.4669899999999999,0.479649
1155,0.172319,0.956559,-0.2351599999999999,-1.589861,-1.288713,1.245521
1156,0.136216,0.962017,-0.236577,-1.6394810000000002,-1.523785,1.189198
1157,0.080541,0.974908,-0.207525,-0.236485,-1.329874,0.708014
1158,0.029577,0.987835,-0.152669,0.7813060000000001,-0.420116,0.406819
1159,-0.023359,0.995078,-0.096297,0.974897,-0.251853,0.555556
1160,-0.086448,0.995854,-0.028322,0.059761,-0.122303,-0.4977859999999999
1161,-0.172373,0.983829,0.048654,-0.776113,0.88464,-0.8608030000000001
1162,-0.281634,0.949311,0.139606,-1.25369,1.979995,0.052578
1163,-0.425172,0.8833059999999999,0.197483,-3.034834,4.441493,0.084896
1164,-0.534796,0.808213,0.246545,-0.6061340000000001,2.0919950000000003,-0.8168270000000001
1165,-0.613775,0.73958,0.276226,0.364218,1.922911,-0.471233
1166,-0.678571,0.681391,0.274313,0.628065,1.689642,-0.626043
1167,-0.718594,0.6476569999999999,0.253304,1.108349,-0.494855,-0.403436
1168,-0.731766,0.639321,0.236192,1.2019959999999998,-0.662927,-0.4758159999999999
1169,-0.718773,0.658091,0.224237,1.32856,-0.8973180000000001,-0.644464
1170,-0.6791590000000001,0.705838,0.2013329999999999,1.900076,-1.599027,-0.804666
1171,-0.605476,0.779772,0.1592309999999999,2.061363,-1.979815,-0.952474
1172,-0.493953,0.8540639999999999,0.163048,2.402568,-1.87239,0.4766609999999999
1173,-0.399559,0.899912,0.174672,0.832176,-0.402186,0.340236
1174,-0.34957,0.914773,0.202463,0.174613,-0.160821,1.002066
1175,-0.326273,0.911487,0.250474,-1.028066,1.778042,1.68959
1176,-0.388414,0.905311,0.171889,-0.515211,1.097145,-1.07672
1177,-0.457606,0.8880709999999999,0.043902,1.517817,-0.07287,0.546003
1178,-0.456082,0.8859360000000001,0.084302,1.226498,1.010884,0.976199
1179,-0.420072,0.90221,0.097759,0.600766,1.4481620000000002,-1.207164
1180,-0.37478,0.922206,0.095271,0.234368,0.614232,-1.618663
1181,-0.346459,0.934022,0.086996,0.069482,-0.0867629999999999,-0.049093
1182,-0.27059,0.962347,0.025874,-0.127115,-0.161459,-0.281276
1183,-0.126409,0.991725,0.022404,-0.598338,1.802373,0.1018179999999999
1184,-0.0038229999999999,0.999818,-0.018681,-0.9961,3.636992,0.043064
1185,0.068949,0.994796,-0.07501,-1.608286,0.920319,0.7886479999999999
1186,0.130912,0.984496,-0.11675,-0.8222719999999999,-0.008223,0.696675
1187,0.182619,0.971626,-0.150308,-0.416811,-0.194298,0.553765
1188,0.2201679999999999,0.957852,-0.184517,-1.148513,-0.5706439999999999,0.35543
1189,0.226385,0.952007,-0.2059929999999999,-1.492834,-1.009303,0.927414
1190,0.196044,0.958173,-0.208498,-1.5823969999999998,-1.361569,0.739168
1191,0.137847,0.972641,-0.186997,-1.058883,-1.6619259999999998,0.912903
1192,0.085004,0.986573,-0.139454,0.329608,-0.980516,0.321232
1193,0.035133,0.994606,-0.097589,0.810036,-0.575112,0.4416739999999999
1194,-0.024886,0.999077,-0.035002,0.320159,-0.65403,0.292937
1195,-0.106805,0.993617,0.0363,-0.234427,0.051488,-0.8662559999999999
1196,-0.204112,0.973013,0.107629,-1.052785,1.481318,-0.390924
1197,-0.361773,0.917426,0.165678,-3.470518,5.76693,-0.071226
1198,-0.50946,0.8357889999999999,0.2047119999999999,-2.126953,3.741619,-0.5891569999999999
1199,-0.596345,0.7686609999999999,0.231371,-0.714324,2.282776,-1.032732
1200,-0.6695479999999999,0.7042390000000001,0.236119,0.618599,0.8992760000000001,-0.6168710000000001
1201,-0.720184,0.659432,0.215602,0.8207700000000001,0.120963,-0.523203
1202,-0.73847,0.6411979999999999,0.2086309999999999,1.159369,-0.628167,-0.317426
1203,-0.731376,0.648261,0.211773,1.430137,-1.136847,-0.488766
1204,-0.702387,0.6816369999999999,0.2049969999999999,1.665903,-1.295696,-0.571101
1205,-0.646882,0.743717,0.1686089999999999,2.285355,-1.612064,-0.756438
1206,-0.554766,0.8208979999999999,0.1355039999999999,2.6052880000000003,-1.899679,0.170221
1207,-0.452996,0.881257,0.1348349999999999,2.243447,-1.413041,0.380958
1208,-0.386746,0.909418,0.152924,1.021847,-0.521982,0.320525
1209,-0.330839,0.914443,0.2331099999999999,-1.997194,1.685045,2.308592
1210,-0.399373,0.902353,0.162049,-1.689464,2.173147,-1.199906
1211,-0.498038,0.86624,0.039827,-0.56611,0.406694,-1.238451
1212,-0.516117,0.851253,0.094823,1.391209,1.286061,1.448283
1213,-0.481663,0.8725639999999999,0.081439,0.7074779999999999,1.561548,-1.866656
1214,-0.415206,0.907737,0.060147,0.134933,0.599801,-2.084225
1215,-0.380173,0.922004,0.073325,-0.0824889999999999,-0.217094,-0.139915
1216,-0.34209,0.939029,0.034631,-0.464459,-0.139987,-0.623346
1217,-0.247238,0.968912,-0.0091,-1.086624,1.020865,-1.023065
1218,-0.115913,0.992466,-0.039685,-1.693093,3.466793,0.445325
1219,-0.027281,0.992889,-0.115878,-0.587404,1.796693,0.93552
1220,0.023959,0.986168,-0.164009,0.0206419999999999,-0.007179,0.998604
1221,0.068228,0.978131,-0.196481,-0.505301,-0.407864,0.68496
1222,0.1069619999999999,0.97147,-0.211673,-1.10745,-0.6487310000000001,0.617923
1223,0.1134829999999999,0.970668,-0.211955,-1.485386,-1.226329,0.952617
1224,0.081522,0.976054,-0.201673,-1.411539,-1.641399,0.8326389999999999
1225,0.0243409999999999,0.986652,-0.161015,-0.262348,-1.7815279999999998,0.498677
1226,-0.032484,0.993675,-0.10749,0.703138,-0.55909,0.353965
1227,-0.092198,0.994823,-0.042745,0.770986,-0.482753,0.632909
1228,-0.163113,0.986306,0.0243789999999999,-0.023548,0.0601419999999999,-0.6878
1229,-0.2451159999999999,0.964477,0.0985,-0.7110920000000001,0.946335,-0.906194
1230,-0.353812,0.917246,0.182965,-2.5554900000000003,3.600774,0.992008
1231,-0.487942,0.846874,0.2114639999999999,-2.078526,3.606907,-0.377831
1232,-0.583639,0.7711720000000001,0.25428,-0.341486,1.864707,-0.771355
1233,-0.654762,0.70253,0.278817,0.218513,1.6995240000000005,-0.492577
1234,-0.711659,0.651612,0.2625699999999999,0.486775,0.742996,-0.580761
1235,-0.742771,0.628135,0.231813,0.920933,-0.264823,-0.2128159999999999
1236,-0.752679,0.624262,0.2092139999999999,1.162744,-0.4816539999999999,-0.357102
1237,-0.739205,0.6434979999999999,0.198714,1.2699049999999998,-0.672474,-0.414245
1238,-0.701806,0.689367,0.179557,1.581323,-0.911978,-0.460639
1239,-0.637563,0.7590720000000001,0.131616,2.054067,-1.635644,-0.839532
1240,-0.53662,0.83386,0.129293,2.012434,-1.977781,0.037699
1241,-0.442401,0.883606,0.153366,0.984989,-0.985626,0.461014
1242,-0.396955,0.894083,0.207467,-1.103732,-0.029932,1.444419
1243,-0.428917,0.8882709999999999,0.164331,-1.7262650000000002,0.5361520000000001,-0.3018119999999999
1244,-0.4951399999999999,0.866567,0.062423,-0.701973,0.903803,-1.372649
1245,-0.556068,0.8278409999999999,0.073945,-0.983559,3.943857,0.2594599999999999
1246,-0.577758,0.812856,0.073893,0.0199419999999999,2.713648,0.137792
1247,-0.565661,0.8220459999999999,0.065325,1.241382,-0.3322239999999999,-0.614748
1248,-0.495924,0.8670690000000001,0.047437,1.849165,-1.383854,-1.121595
1249,-0.362615,0.930642,0.049154,0.47289,-0.311822,-1.016347
1250,-0.210225,0.976273,0.051925,-0.328029,0.916091,-0.3174889999999999
1251,-0.118289,0.992886,0.0136289999999999,-2.199232,2.8111,0.4383979999999999
1252,-0.069553,0.996545,-0.045396,-1.7846490000000002,0.978309,0.8921370000000001
1253,-0.009562,0.995369,-0.095647,-0.752432,-0.373635,0.694479
1254,0.037889,0.991309,-0.1259819999999999,-0.015977,-0.671271,0.814901
1255,0.058899,0.986894,-0.150239,-0.429092,-0.8031020000000001,0.7273109999999999
1256,0.048568,0.986737,-0.154888,-1.108718,-1.0073219999999998,0.891201
1257,0.013863,0.990572,-0.13629,-0.971139,-1.333071,0.359847
1258,-0.038741,0.994242,-0.099913,-0.706498,-1.568216,0.348219
1259,-0.094729,0.994387,-0.047133,0.682955,-0.261812,0.723418
1260,-0.155833,0.987616,0.018165,0.744273,-0.050879,0.176202
1261,-0.222761,0.971455,0.08156,0.563429,0.033763,-0.402788
1262,-0.2972349999999999,0.943198,0.14842,-0.652961,0.987344,-0.790342
1263,-0.395458,0.8924350000000001,0.217194,-2.412235,3.620886,0.302292
1264,-0.528871,0.820843,0.215667,-2.08377,3.214191,-0.422638
1265,-0.614983,0.753296,0.2331119999999999,-0.469505,1.845291,-0.755191
1266,-0.6651239999999999,0.700045,0.259897,0.8456049999999999,1.116147,-0.329767
1267,-0.710101,0.658518,0.249221,0.751132,-0.52862,-0.190566
1268,-0.726499,0.6512020000000001,0.2193989999999999,0.97215,-0.6824060000000001,-0.14103
1269,-0.71634,0.670998,0.191358,1.072084,-0.951531,-0.340253
1270,-0.679948,0.714366,0.165384,1.4163370000000002,-1.154277,-0.266932
1271,-0.624266,0.771031,0.12571,1.6753060000000002,-1.7051439999999998,-0.362938
1272,-0.548541,0.832184,0.081064,1.792377,-1.919968,-0.330988
1273,-0.469808,0.879083,0.080583,1.287511,-1.606241,0.181151
1274,-0.417429,0.900134,0.124546,-0.031256,-0.306216,0.79089
1275,-0.416875,0.8936350000000001,0.166231,-1.600871,0.311886,0.787261
1276,-0.5005569999999999,0.86055,0.094322,-1.30381,0.735337,-1.588783
1277,-0.587713,0.807617,0.0484519999999999,-0.512323,2.054703,1.773279
1278,-0.630131,0.771224,0.090265,-0.744472,4.816941,-0.131616
1279,-0.6476729999999999,0.761899,0.005405,0.725325,1.053851,-1.584095
1280,-0.64557,0.763687,0.004605,1.549439,-0.906143,-1.193967
1281,-0.585938,0.808005,0.0616909999999999,1.851715,-1.878729,-0.110092
1282,-0.478096,0.875591,0.0690279999999999,0.687737,-0.679286,-0.370404
1283,-0.366011,0.929684,0.041527,-0.503328,1.441898,-0.084648
1284,-0.326238,0.94474,0.032179,-2.081507,3.222649,0.457613
1285,-0.3473429999999999,0.937705,0.007931,-1.459343,-0.118277,0.4514189999999999
1286,-0.351936,0.93602,0.002571,-0.643166,-0.550751,0.321159
1287,-0.34915,0.937033,0.008025,0.550917,-0.567053,0.6839
1288,-0.345873,0.938251,0.007594,0.707415,-0.823306,0.316351
1289,-0.346926,0.937817,0.011937,0.469759,-1.198467,0.176906
1290,-0.3709969999999999,0.927973,0.0350399999999999,-0.4395189999999999,-1.331842,0.341074
1291,-0.415125,0.907243,0.06769,-0.486288,-1.250184,0.375532
1292,-0.462405,0.880698,0.102729,0.131488,-0.250143,0.311745
1293,-0.513642,0.8460280000000001,0.1428549999999999,0.234742,0.133967,-0.354891
1294,-0.564435,0.8028770000000001,0.191839,0.199063,0.346705,-0.416861
1295,-0.615169,0.751052,0.239767,-0.654591,1.601899,-0.141653
1296,-0.6859460000000001,0.683465,0.249707,-1.296217,2.973609,-0.41763
1297,-0.752046,0.621934,0.2182329999999999,-0.125228,1.30989,-0.5516220000000001
1298,-0.788451,0.579523,0.20615,0.6789390000000001,0.574637,-0.511402
1299,-0.813172,0.553153,0.181032,1.0167700000000002,0.305612,-0.409777
1300,-0.8229770000000001,0.552175,0.133459,0.892618,0.1118869999999999,-0.289464
1301,-0.807294,0.5809439999999999,0.1038289999999999,0.7397279999999999,-0.3068349999999999,0.1176519999999999
1302,-0.772984,0.628107,0.0893159999999999,0.7216229999999999,-0.555689,0.1769349999999999
1303,-0.726591,0.683366,0.071244,0.697828,-0.75168,0.221374
1304,-0.667099,0.7441399999999999,0.035141,0.7703399999999999,-1.122726,0.22815
1305,-0.606634,0.794365,0.0313019999999999,0.322256,-1.036446,0.011178
1306,-0.5785060000000001,0.8156720000000001,0.003116,-0.352249,-0.869383,-1.003833
1307,-0.578445,0.811988,-0.077961,-0.287598,-0.8032600000000001,-0.486431
1308,-0.598779,0.79364,-0.107703,-0.970465,1.538254,0.952567
1309,-0.666094,0.745866,-0.001661,-1.598845,1.663283,-0.3819599999999999
1310,-0.72146,0.6912119999999999,0.041487,-2.504737,3.961009,0.038972
1311,-0.747434,0.663375,-0.035716,1.104139,0.169038,0.077982
1312,-0.746173,0.665209,-0.026886,2.0934630000000003,-0.012469,-1.128479
1313,-0.683606,0.729773,-0.010694,2.407239,-0.552557,-0.381137
1314,-0.569268,0.821909,0.019996,2.141655,0.557562,0.300286
1315,-0.488431,0.8721040000000001,0.029508,0.329434,1.7146580000000002,0.274431
1316,-0.492066,0.8702059999999999,0.024751,-1.315093,1.236117,-0.043794
1317,-0.544818,0.838404,0.015881,-1.143125,-0.240473,0.206271
1318,-0.565288,0.824741,0.015879,0.6059979999999999,-0.469425,0.246251
1319,-0.572553,0.8194370000000001,0.0265819999999999,0.750119,-0.627039,0.217894
1320,-0.579918,0.813712,0.039588,0.92994,-0.807288,-0.098807
1321,-0.59222,0.804369,0.047606,0.7533529999999999,-0.910265,-0.234969
1322,-0.613913,0.786917,0.062232,0.5940770000000001,-0.544104,-0.203239
1323,-0.642999,0.760382,0.091495,0.583489,-0.182563,-0.129413
1324,-0.676922,0.727337,0.112948,0.6557430000000001,0.610004,0.007902
1325,-0.707082,0.6988270000000001,0.108056,0.036488,2.686121,-0.594964
1326,-0.73815,0.6716409999999999,0.063499,-0.8596590000000001,1.292623,-0.428108
1327,-0.758288,0.651437,0.025065,-0.317838,0.074393,0.080632
1328,-0.761798,0.646929,-0.033865,0.106707,0.255155,-0.090173
1329,-0.747217,0.658838,-0.0871789999999999,0.008584,0.063056,-0.115946
1330,-0.715647,0.686875,-0.126696,-0.005239,-0.129304,-0.173704
1331,-0.674437,0.720989,-0.159092,0.19145,-0.294551,-0.195705
1332,-0.628496,0.754045,-0.1908089999999999,0.660402,-0.586519,0.040174
1333,-0.582308,0.7828970000000001,-0.219065,0.775301,-0.714324,0.147699
1334,-0.5330159999999999,0.809599,-0.245854,0.986537,-1.009001,0.562077
1335,-0.479939,0.831358,-0.280181,0.953572,-0.729384,0.442245
1336,-0.433475,0.843038,-0.318412,0.6880069999999999,-0.63297,0.183006
1337,-0.378969,0.8486239999999999,-0.36908,0.060747,-0.19895,-0.468154
1338,-0.341174,0.851052,-0.3991369999999999,-0.458142,1.1326969999999998,-0.732226
1339,-0.370137,0.8395299999999999,-0.397729,-0.81158,2.500085,-0.163458
1340,-0.440134,0.7997920000000001,-0.408184,-1.7991849999999998,3.820294,1.07069
1341,-0.4567529999999999,0.788135,-0.412576,-0.406605,0.320522,0.433252
1342,-0.447018,0.788881,-0.421712,0.322003,-0.015581,0.257696
1343,-0.431728,0.804363,-0.40818,1.194546,-0.297954,-0.5230020000000001
1344,-0.422778,0.8249059999999999,-0.375219,1.213,-0.5473939999999999,0.4112449999999999
1345,-0.423613,0.8376600000000001,-0.344787,0.25363,-0.2476179999999999,0.574203
1346,-0.440961,0.8293459999999999,-0.343129,-0.402148,0.668456,0.159505
1347,-0.471439,0.81267,-0.34251,-0.063565,0.0538919999999999,-0.109196
1348,-0.497119,0.808873,-0.314002,0.169925,-0.3158,-0.058313
1349,-0.518104,0.8027,-0.2953659999999999,-0.071282,-0.700192,1e-06
1350,-0.542266,0.792474,-0.2791639999999999,0.014144,-0.471078,0.216268
1351,-0.5791810000000001,0.776338,-0.248694,0.098972,-0.253038,0.359702
1352,-0.623762,0.752801,-0.2102659999999999,0.131422,-0.042138,0.407516
1353,-0.669674,0.724753,-0.162079,0.116299,0.321084,0.005234
1354,-0.7057720000000001,0.698652,-0.117352,-0.090843,0.750765,0.025677
1355,-0.7263890000000001,0.680975,-0.092909,-0.424017,0.253915,0.3753329999999999
1356,-0.735166,0.673211,-0.079488,-0.403949,0.168357,0.5203899999999999
1357,-0.73198,0.674976,-0.092805,-0.626372,0.164944,0.173891
1358,-0.717212,0.688546,-0.107287,-0.613903,0.032264,0.04613
1359,-0.696228,0.709647,-0.108019,-0.400742,-0.1208099999999999,0.090013
1360,-0.670094,0.735536,-0.0998039999999999,0.074452,-0.24135,0.176281
1361,-0.637753,0.763955,-0.098204,0.371777,-0.379876,0.238157
1362,-0.598834,0.793769,-0.1064349999999999,0.474871,-0.413414,0.186345
1363,-0.553996,0.822757,-0.127119,0.55511,-0.407306,-0.01079
1364,-0.5016930000000001,0.850246,-0.159331,0.605895,-0.340541,-0.093035
1365,-0.443809,0.8756889999999999,-0.190267,0.460624,-0.256747,-0.029123
1366,-0.391221,0.8967510000000001,-0.206844,0.255052,-0.308082,0.172649
1367,-0.34597,0.913763,-0.2129349999999999,0.226876,-0.768362,0.358321
1368,-0.303111,0.927035,-0.220748,0.092128,-0.901568,0.233321
1369,-0.265703,0.935348,-0.233506,-0.14018,-0.549896,-0.697127
1370,-0.239642,0.940794,-0.239747,0.001208,-0.284574,-0.039885
1371,-0.20355,0.945746,-0.253244,-0.173541,0.83645,0.313303
1372,-0.155203,0.952119,-0.263402,-0.496347,1.943404,-0.128382
1373,-0.1127859999999999,0.958293,-0.2625909999999999,-0.371376,1.101705,0.014071
1374,-0.066413,0.964658,-0.254999,-0.753976,0.404407,-0.092489
1375,-0.015569,0.968653,-0.2479289999999999,-1.229807,0.8909809999999999,-0.105358
1376,0.026876,0.965888,-0.257562,-1.3890280000000002,0.750833,-0.220878
1377,0.07263,0.955519,-0.2858469999999999,-0.913343,0.473207,0.38976
1378,0.1196599999999999,0.941316,-0.315604,-0.941224,0.464003,0.705572
1379,0.150118,0.930945,-0.332875,-0.980364,0.484475,0.64362
1380,0.172812,0.922316,-0.345642,-0.730308,0.200242,0.456924
1381,0.18712,0.919995,-0.344376,-0.699098,-0.092298,0.505707
1382,0.193515,0.919315,-0.342655,-0.857684,-0.543384,0.971836
1383,0.182624,0.92265,-0.339654,-1.116432,-0.622205,0.663568
1384,0.139534,0.933627,-0.329957,-0.950859,-0.693682,0.454118
1385,0.0705679999999999,0.948098,-0.3100489999999999,-0.463528,-1.123513,0.205938
1386,-0.001201,0.957547,-0.288274,-0.27689,-1.348462,0.576299
1387,-0.065009,0.963846,-0.258409,-0.193719,-1.30845,0.805345
1388,-0.143363,0.965944,-0.215405,-0.228707,0.319807,0.251004
1389,-0.236511,0.956294,-0.171943,-0.716186,0.662694,-0.59388
1390,-0.363538,0.923376,-0.1233609999999999,-2.018634,3.0819650000000003,0.1950309999999999
1391,-0.506157,0.8566360000000001,-0.099902,-2.692299,4.839562,-0.333661
1392,-0.594549,0.800659,-0.073874,-0.6311140000000001,1.402924,-0.161753
1393,-0.658431,0.751163,-0.047153,-0.356965,1.312573,0.0147889999999999
1394,-0.703646,0.7090390000000001,-0.046318,0.163653,0.266211,0.081429
1395,-0.7263270000000001,0.686417,-0.035799,0.44793,-0.277634,0.019961
1396,-0.73316,0.679796,-0.0188039999999999,0.8524079999999999,-0.6218279999999999,-0.223536
1397,-0.72851,0.6847880000000001,-0.018391,1.396555,-0.784825,-0.338238
1398,-0.7056439999999999,0.707282,-0.042644,2.029863,-0.763877,-0.625309
1399,-0.6590590000000001,0.748862,-0.069615,2.331316,-0.932517,-0.69189
1400,-0.584054,0.806553,-0.091398,2.220056,-1.181431,0.229719
1401,-0.524787,0.844282,-0.108566,0.957083,-0.968367,0.534866
1402,-0.479079,0.870338,-0.113997,0.430007,-0.842216,0.844359
1403,-0.440457,0.8906430000000001,-0.112929,-1.333896,0.0301339999999999,0.588851
1404,-0.43,0.889066,-0.157041,-1.251885,0.36925,-1.141131
1405,-0.427893,0.877884,-0.215004,-0.77984,0.141265,-0.497856
1406,-0.41702,0.883015,-0.215358,0.7821319999999999,-0.15099,1.068981
1407,-0.385546,0.90089,-0.199377,0.90314,0.432621,-0.702128
1408,-0.321139,0.924344,-0.206055,0.8951290000000001,1.467929,0.275864
1409,-0.262142,0.948993,-0.175197,0.646831,1.443646,0.300044
1410,-0.199316,0.964949,-0.170724,-0.039896,0.8052229999999999,0.139398
1411,-0.110263,0.977871,-0.177794,-0.177442,0.452106,-0.314302
1412,-0.0084,0.981084,-0.1934,-0.651497,1.383525,-0.739721
1413,0.070643,0.972164,-0.2234,-1.546489,2.3807270000000003,-0.130299
1414,0.140955,0.953684,-0.26574,-2.448512,0.735143,1.443764
1415,0.17815,0.939816,-0.291562,-1.312366,0.06084,0.5410729999999999
1416,0.187307,0.930577,-0.314551,-0.991674,0.09695,0.992148
1417,0.1874549999999999,0.930757,-0.31393,-1.1679389999999998,-0.24405,0.5704
1418,0.168755,0.934342,-0.313891,-1.150139,-0.624329,0.708864
1419,0.128683,0.939196,-0.318357,-0.739858,-0.967715,0.814756
1420,0.077344,0.947526,-0.310181,-0.263974,-1.045045,-0.106796
1421,0.021788,0.952196,-0.30471,-0.197676,-1.2649709999999998,-0.1567309999999999
1422,-0.034221,0.958997,-0.281341,-0.282933,-1.55998,0.982864
1423,-0.122191,0.965381,-0.230453,-0.41794,-0.690921,0.13507
1424,-0.232839,0.95499,-0.183792,-0.447138,0.452877,0.258057
1425,-0.369136,0.919244,-0.136855,-1.233007,1.7341369999999998,0.076048
1426,-0.523934,0.8471139999999999,-0.088831,-2.910636,5.548699,0.128245
1427,-0.619613,0.781467,-0.073409,-0.48111,2.309613,-0.810609
1428,-0.694934,0.7161,-0.065326,0.076907,1.091838,-0.541775
1429,-0.749704,0.658461,-0.066129,-0.088828,0.675172,-0.207339
1430,-0.777883,0.623492,-0.078456,0.384588,-0.260058,0.114177
1431,-0.785989,0.6128170000000001,-0.08171,0.766077,-0.472131,0.065215
1432,-0.776509,0.624267,-0.085588,1.0728950000000002,-0.5620109999999999,-0.099105
1433,-0.748788,0.655841,-0.09586,2.084527,-0.928897,-0.4373729999999999
1434,-0.6984819999999999,0.70838,-0.10159,2.660548,-1.653052,-0.72948
1435,-0.619699,0.7797569999999999,-0.089174,2.357218,-1.396532,0.302065
1436,-0.549658,0.8327,-0.066987,1.98345,-1.14224,0.650223
1437,-0.5113989999999999,0.857768,-0.052001,0.049043,-0.5087079999999999,1.509536
1438,-0.488908,0.8722469999999999,-0.0123959999999999,-1.955153,0.667593,0.242407
1439,-0.5110180000000001,0.8534780000000001,-0.102156,-1.72055,1.076881,-1.313249
1440,-0.52518,0.827533,-0.198431,0.215045,0.2788199999999999,1.625433
1441,-0.518008,0.840816,-0.157152,1.130038,1.162678,2.81981
1442,-0.457113,0.8728239999999999,-0.170959,0.661748,1.203089,-1.261719
1443,-0.403977,0.8975870000000001,-0.176463,0.684678,-0.144475,0.220347
1444,-0.395702,0.9068,-0.145377,0.5476340000000001,-0.213761,0.650061
1445,-0.3420539999999999,0.926865,-0.154664,0.451322,-0.217194,-0.56523
1446,-0.210195,0.961248,-0.1783799999999999,-0.452921,1.208277,-0.7019
1447,-0.071236,0.976441,-0.2036869999999999,-1.037849,2.469665,-0.997836
1448,0.001247,0.964639,-0.263572,-1.950435,3.212424,0.803046
1449,0.074986,0.946676,-0.313338,-0.8238260000000001,0.341928,0.66133
1450,0.114516,0.924115,-0.364551,-0.335067,0.243732,0.798343
1451,0.151805,0.906253,-0.394538,-0.653362,-0.116672,0.760292
1452,0.173626,0.89775,-0.4048449999999999,-1.237057,-0.280333,0.494033
1453,0.16541,0.899646,-0.404075,-1.445317,-0.986972,1.196907
1454,0.132498,0.906054,-0.401885,-1.333853,-1.398836,0.902342
1455,0.08117,0.924152,-0.373302,-0.0593039999999999,-1.621967,0.328639
1456,0.024959,0.942479,-0.333331,0.4847,-1.301107,0.630206
1457,-0.04197,0.95814,-0.283208,0.356759,-0.535746,0.737478
1458,-0.128707,0.967428,-0.217987,-0.319734,-0.234579,-0.174668
1459,-0.226303,0.962236,-0.15129,-0.963516,0.914336,-0.76967
1460,-0.356261,0.930968,-0.079856,-2.423036,3.5418870000000005,1.036475
1461,-0.495763,0.867765,-0.034677,-2.47227,4.685472,-0.473761
1462,-0.597222,0.801928,0.015396,-0.703758,2.00575,-0.788742
1463,-0.6812630000000001,0.7314729999999999,0.0287769999999999,0.108982,1.978534,-0.357527
1464,-0.742863,0.66943,0.0042439999999999,0.805852,0.970234,-0.47272
1465,-0.7779050000000001,0.62836,-0.005294,1.0904200000000002,-0.234775,0.034026
1466,-0.79384,0.608123,-0.001977,1.120561,-0.539931,-0.105781
1467,-0.792938,0.609272,-0.006037,1.343353,-0.779667,-0.283911
1468,-0.774563,0.631861,-0.02835,1.861203,-0.958048,-0.442033
1469,-0.728662,0.681757,-0.065261,2.624735,-1.2499790000000002,-0.782487
1470,-0.6630229999999999,0.746237,-0.059417,2.691542,-1.554877,0.186538
1471,-0.603018,0.795871,-0.054395,2.113928,-1.04578,0.579145
1472,-0.559066,0.828311,-0.036687,0.652572,-0.530414,0.470067
1473,-0.526667,0.849988,0.01193,-0.925328,0.0292079999999999,1.6889060000000002
1474,-0.5306029999999999,0.843766,-0.080745,-1.492804,1.007003,-0.667867
1475,-0.5351560000000001,0.823202,-0.189594,0.007462,0.6204930000000001,-0.233288
1476,-0.5294369999999999,0.838541,-0.128631,0.887911,1.605398,-1.182892
1477,-0.459017,0.8715229999999999,-0.172486,0.433062,2.129057,-2.163863
1478,-0.418411,0.8911040000000001,-0.1756839999999999,0.207443,0.8995139999999999,-1.5800530000000002
1479,-0.421654,0.893701,-0.153318,-0.205909,-0.591577,1.181775
1480,-0.380132,0.909537,-0.168052,-0.127299,-0.622138,-0.330971
1481,-0.2737199999999999,0.942599,-0.191271,-0.4514689999999999,0.090406,-0.628492
1482,-0.148734,0.965127,-0.215426,-2.28515,3.846839,0.2381309999999999
1483,-0.068947,0.961281,-0.266806,-1.734062,2.263573,1.183341
1484,-0.01187,0.951048,-0.308814,-1.206789,0.3407,1.2366549999999998
1485,0.021474,0.938563,-0.344439,-0.48322,-0.32574,0.784838
1486,0.053949,0.927501,-0.369906,-0.77633,-0.397381,0.571429
1487,0.06881,0.921324,-0.382658,-1.085075,-0.7681560000000001,0.824766
1488,0.050032,0.923111,-0.381265,-0.938872,-1.368896,0.526361
1489,0.017338,0.932148,-0.361662,-0.7426189999999999,-1.631565,0.312071
1490,-0.013781,0.943204,-0.331928,-0.1375549999999999,-1.822477,0.450855
1491,-0.06246,0.955173,-0.289383,0.242498,-0.611271,0.8271790000000001
1492,-0.144363,0.961359,-0.234411,-0.094758,-0.6010989999999999,0.41007
1493,-0.2342659999999999,0.9568,-0.172202,-0.228777,-0.01576,-0.406945
1494,-0.338482,0.935262,-0.103513,-1.093128,0.8210860000000001,-0.471362
1495,-0.467236,0.883343,-0.037362,-2.962253,3.784519,0.650933
1496,-0.593226,0.805032,0.002415,-3.474096,6.331885,-0.205983
1497,-0.684982,0.7282109999999999,0.0225509999999999,0.044892,1.777222,-0.486937
1498,-0.754583,0.65579,0.023312,0.447393,1.597841,-0.179105
1499,-0.798538,0.6019369999999999,0.003073,0.907516,0.392265,-0.188513
1500,-0.818462,0.57453,-0.005915,1.036464,-0.746283,-0.136983
1501,-0.8192709999999999,0.573398,-0.003083,1.05859,-0.8592110000000001,-0.279357
1502,-0.801021,0.598527,-0.011398,1.545452,-0.939042,-0.375275
1503,-0.75997,0.648208,-0.047664,2.203818,-1.270705,-0.544469
1504,-0.684557,0.725638,-0.069503,2.732927,-1.896049,-0.6794899999999999
1505,-0.5916600000000001,0.804609,-0.050422,2.296478,-1.362837,0.666694
1506,-0.530061,0.846924,-0.041888,1.311006,-0.75293,0.446002
1507,-0.4946,0.869099,0.0061909999999999,0.00963,-0.30022,1.537525
1508,-0.495984,0.8683299999999999,-0.001887,-2.315051,1.329546,0.396082
1509,-0.52579,0.8410989999999999,-0.126876,-0.738889,0.916882,-1.321656
1510,-0.533267,0.816567,-0.221007,0.661151,-0.199624,0.014998
1511,-0.51623,0.8494389999999999,-0.109363,2.306575,1.583285,4.101429
1512,-0.433166,0.881666,-0.187169,0.569625,1.447603,-2.543162
1513,-0.401943,0.8997700000000001,-0.169866,0.235851,0.8539530000000001,-1.316111
1514,-0.398028,0.906516,-0.140723,-0.132078,0.144189,1.609626
1515,-0.318655,0.929463,-0.185897,-0.018382,-0.224187,-0.858506
1516,-0.177646,0.957283,-0.228147,-0.466825,0.674812,-1.163973
1517,-0.0617399999999999,0.962275,-0.264982,-1.632108,3.1772970000000003,-1.40938
1518,0.016607,0.946141,-0.323329,-2.23168,1.42181,2.387035
1519,0.059676,0.924724,-0.375931,-0.3291159999999999,0.5037729999999999,1.234558
1520,0.088831,0.910187,-0.40456,-0.69665,-0.04187,0.5792430000000001
1521,0.112174,0.90558,-0.409075,-0.961662,-0.340318,0.31325
1522,0.1124309999999999,0.906799,-0.4062929999999999,-1.019826,-0.736404,0.609128
1523,0.094615,0.906532,-0.4113979999999999,-1.120464,-1.645728,1.125983
1524,0.064779,0.918806,-0.389358,-0.600165,-1.757063,-0.03505
1525,0.0141889999999999,0.932869,-0.359937,0.101213,-1.7399369999999998,0.576292
1526,-0.053373,0.94914,-0.310299,0.192976,-1.055615,0.8797719999999999
1527,-0.144492,0.959317,-0.242554,-0.445702,0.230578,0.256623
1528,-0.244245,0.953597,-0.176061,-0.690508,1.005372,-0.647822
1529,-0.378291,0.919747,-0.104696,-1.233373,1.861732,0.602194
1530,-0.531198,0.845456,-0.05507,-3.775717,5.719318,-0.01979
1531,-0.6379239999999999,0.76969,-0.025089,-1.644043,3.756646,-0.6685909999999999
1532,-0.726953,0.686503,-0.015915,0.4841399999999999,1.975073,-0.712997
1533,-0.7853939999999999,0.616922,-0.050622,1.317133,0.475332,-0.521598
1534,-0.813463,0.576963,-0.073433,1.390932,-0.0328339999999999,-0.275627
1535,-0.822694,0.5648850000000001,-0.063875,1.34224,-0.550786,-0.2933179999999999
1536,-0.807425,0.587725,-0.05143,2.022665,-1.184542,-0.258827
1537,-0.75732,0.649536,-0.067597,2.2432060000000003,-1.2841790000000002,-0.28807
1538,-0.6825479999999999,0.7266239999999999,-0.078394,2.3995580000000003,-1.708192,-0.161078
1539,-0.594594,0.801571,-0.062792,2.524556,-1.449581,0.659121
1540,-0.5261060000000001,0.848201,-0.061382,2.32611,-0.996882,0.520428
1541,-0.489006,0.8718799999999999,-0.026422,0.065452,0.069114,1.52012
1542,-0.481384,0.876508,-0.001911,-1.924042,2.0594360000000003,0.511494
1543,-0.521026,0.8431360000000001,-0.132865,-0.823182,0.874973,-1.308297
1544,-0.5302279999999999,0.8094100000000001,-0.252417,0.721192,-0.532737,-0.358728
1545,-0.523877,0.8419549999999999,-0.129089,0.547986,0.715875,-2.214737
1546,-0.454379,0.870761,-0.187922,0.3199639999999999,1.717175,-2.670354
1547,-0.417929,0.890943,-0.177638,-0.288995,1.819933,-2.031118
1548,-0.428857,0.8924620000000001,-0.139978,-0.7299869999999999,-0.062399,3.506281
1549,-0.365752,0.906812,-0.209565,-0.010316,-0.454709,-0.95613
1550,-0.257789,0.939092,-0.2272679999999999,-0.379311,0.463313,-0.71426
1551,-0.145247,0.955961,-0.255033,-1.48607,3.560793,0.049162
1552,-0.072051,0.944417,-0.320758,-1.58101,1.278895,1.531436
1553,-0.023045,0.930962,-0.3643889999999999,-0.349544,-0.163078,1.283533
1554,0.013255,0.917112,-0.39841,-0.1189829999999999,-0.282514,0.8817010000000001
1555,0.042851,0.906938,-0.41908,-0.849843,-0.399964,0.653119
1556,0.038325,0.905487,-0.422639,-1.127299,-1.122574,1.186876
1557,0.005558,0.907265,-0.420522,-1.178272,-1.5897,1.209782
1558,-0.032257,0.919405,-0.391988,-0.748062,-1.812593,0.658665
1559,-0.081059,0.934404,-0.346869,0.393101,-1.063585,0.389884
1560,-0.147167,0.945444,-0.29065,0.7337,-0.547007,0.643204
1561,-0.230682,0.947572,-0.221119,0.141051,-0.394822,0.217244
1562,-0.328009,0.932888,-0.148765,-0.5763189999999999,0.75475,-0.926293
1563,-0.451905,0.889375,-0.069233,-1.844207,2.287673,0.895619
1564,-0.578649,0.8150029999999999,-0.030576,-4.079081,5.2491900000000005,0.128065
1565,-0.673944,0.7387520000000001,0.006698,-1.027289,2.550555,-0.609847
1566,-0.752696,0.6577770000000001,0.0278889999999999,0.390651,1.7507009999999998,-0.391277
1567,-0.80924,0.587376,0.010952,0.871252,0.7028310000000001,-0.415401
1568,-0.838878,0.544315,-0.002351,1.187541,-0.330264,0.003145
1569,-0.852302,0.52304,0.003198,1.255302,-0.681167,-0.144571
1570,-0.8483940000000001,0.529231,0.011956,1.44814,-0.91273,-0.270623
1571,-0.8264090000000001,0.56307,0.0009789999999999,1.994469,-1.015874,-0.4744279999999999
1572,-0.7789020000000001,0.6252489999999999,-0.048744,2.610063,-1.512074,-0.938484
1573,-0.703674,0.706349,-0.076901,2.666275,-1.515065,0.14494
1574,-0.628556,0.7732020000000001,-0.084118,2.094345,-0.669458,0.3800469999999999
1575,-0.5817439999999999,0.809816,-0.075969,0.750812,-0.462297,0.6594800000000001
1576,-0.5486340000000001,0.836051,0.004418,-1.583034,0.5123840000000001,2.635551
1577,-0.562823,0.8249700000000001,-0.051524,-2.362943,1.607601,0.6294350000000001
1578,-0.5905600000000001,0.7871630000000001,-0.177798,0.031326,0.473838,-0.031186
1579,-0.5937180000000001,0.786902,-0.168178,1.155318,0.592477,2.431117
1580,-0.522582,0.8224520000000001,-0.224681,1.21057,1.6083040000000002,-1.299413
1581,-0.429884,0.863502,-0.26375,0.696181,0.780511,-1.662367
1582,-0.410554,0.879923,-0.239127,0.462495,0.607672,-0.90307
1583,-0.3900409999999999,0.8992049999999999,-0.198239,-0.3870889999999999,0.2310289999999999,1.526516
1584,-0.300621,0.931054,-0.2067969999999999,-1.010673,0.6564399999999999,-0.70368
1585,-0.178025,0.954137,-0.240686,-1.796554,1.315867,-0.4673989999999999
1586,-0.088472,0.950003,-0.299444,-2.479491,2.717432,0.5016390000000001
1587,-0.0201639999999999,0.938227,-0.345431,-0.962243,0.058782,1.112124
1588,0.013016,0.921727,-0.387621,-0.40593,-0.357014,1.0488
1589,0.046797,0.908425,-0.4154199999999999,-0.8086369999999999,-0.60917,0.553771
1590,0.0541059999999999,0.901309,-0.429784,-1.194242,-0.99448,0.763966
1591,0.0291139999999999,0.900503,-0.433875,-1.273514,-1.665639,1.3964299999999998
1592,-0.003069,0.90852,-0.417831,-0.862806,-1.73077,0.916473
1593,-0.038495,0.923674,-0.381241,0.322141,-1.169554,0.443558
1594,-0.085071,0.93681,-0.339337,0.705264,-0.3876,0.5356569999999999
1595,-0.155672,0.947469,-0.279409,0.419726,-0.6243029999999999,0.301137
1596,-0.244085,0.945983,-0.2133969999999999,-0.33134,0.047257,-0.586545
1597,-0.3624239999999999,0.920884,-0.143602,-1.386508,1.311034,-0.16284
1598,-0.5084989999999999,0.8555520000000001,-0.097265,-4.216568,4.846368,0.748602
1599,-0.634419,0.771038,-0.054886,-1.785137,3.359882,-0.556442
1600,-0.728223,0.685067,-0.0193729999999999,-0.177707,2.261558,-0.340429
1601,-0.7964979999999999,0.6044510000000001,-0.015169,0.190709,2.329143,-0.153075
1602,-0.834885,0.549845,-0.025253,1.038071,0.297308,-0.240387
1603,-0.853151,0.521487,-0.013604,1.272905,-0.411685,0.024865
1604,-0.8538709999999999,0.520483,-0.001307,1.417058,-0.807821,-0.185277
1605,-0.8363430000000001,0.548198,-0.002932,2.036264,-1.083202,-0.34947
1606,-0.78881,0.613807,-0.031929,2.834678,-1.351524,-0.738182
1607,-0.706435,0.706036,-0.04963,2.836669,-1.907681,-0.232551
1608,-0.623923,0.779994,-0.048274,1.852378,-0.615809,0.082865
1609,-0.5715210000000001,0.8201799999999999,-0.025866,1.18909,-0.498647,-0.051435
1610,-0.534409,0.844093,0.043759,-2.263947,1.38984,2.4314150000000003
1611,-0.568192,0.8212950000000001,-0.051308,-1.930068,2.025095,-0.911552
1612,-0.594291,0.781857,-0.188463,0.62139,0.043476,-0.4990529999999999
1613,-0.600478,0.7891279999999999,-0.129239,2.526732,1.599849,5.240689
1614,-0.525022,0.826837,-0.201724,0.735731,1.302329,-2.511578
1615,-0.437347,0.8675930000000001,-0.2366619999999999,0.428452,1.476172,-2.042161
1616,-0.430776,0.884317,-0.180044,-0.300425,0.260916,2.193853
1617,-0.395921,0.902414,-0.169987,0.014177,-0.357431,-0.8529620000000001
1618,-0.302764,0.934046,-0.189452,-0.2742469999999999,-0.191279,-0.846925
1619,-0.184031,0.959462,-0.2134579999999999,-2.904958,3.116099,-0.059202
1620,-0.087878,0.962641,-0.256126,-2.330335,1.137945,1.083884
1621,-0.013616,0.952235,-0.305061,-1.32461,0.391362,0.9006879999999999
1622,0.0236229999999999,0.931709,-0.362436,-0.159213,-0.406761,1.120417
1623,0.060825,0.91401,-0.401107,-0.818546,-0.510049,0.597548
1624,0.064723,0.906649,-0.416892,-1.050258,-0.749514,0.6033390000000001
1625,0.03176,0.910413,-0.41248,-1.297843,-1.733777,1.337849
1626,0.007965,0.919746,-0.392432,-0.709655,-1.808159,0.829521
1627,-0.0144039999999999,0.936962,-0.349135,0.014115,-1.652278,0.465087
1628,-0.054088,0.949691,-0.308484,0.594325,-0.471251,0.605969
1629,-0.1226109999999999,0.960292,-0.250609,0.065818,-0.748043,0.349806
1630,-0.220134,0.958598,-0.180639,-0.237583,-0.4901069999999999,-0.019556
1631,-0.334617,0.936786,-0.102288,-1.119469,0.948803,-0.492591
1632,-0.472134,0.88071,-0.037926,-3.539325,3.1225240000000003,0.920677
1633,-0.602528,0.798007,0.011978,-4.249629,5.040630999999999,0.4300229999999999
1634,-0.698051,0.714752,0.043057,-2.854927,5.5960540000000005,-0.264096
1635,-0.7736,0.631706,0.0499,0.2624309999999999,1.713493,-0.410602
1636,-0.8231350000000001,0.567154,0.0280139999999999,1.056732,0.899017,-0.460815
1637,-0.8508690000000001,0.5251359999999999,0.015962,1.348656,0.184642,-0.1917589999999999
1638,-0.8594629999999999,0.511017,0.013575,1.620099,-0.90622,-0.187555
1639,-0.8453200000000001,0.5340739999999999,0.014088,1.943602,-1.0949719999999998,-0.3033949999999999
1640,-0.804512,0.593854,-0.009884,2.431083,-1.17497,-0.503223
1641,-0.726441,0.685479,-0.049013,2.645905,-1.793618,-0.701918
1642,-0.629448,0.775437,-0.049925,2.4394150000000003,-1.46721,0.603209
1643,-0.558737,0.8279110000000001,-0.04875,1.549597,-0.61882,0.362242
1644,-0.511178,0.8594299999999999,-0.00875,0.287866,-0.14155,1.1916719999999998
1645,-0.494716,0.868928,0.014859,-1.016194,0.778945,3.0806
1646,-0.524694,0.8436540000000001,-0.113769,-1.474466,2.1067400000000003,-1.637451
1647,-0.532139,0.813102,-0.2359909999999999,0.476796,-0.1414109999999999,-0.6527569999999999
1648,-0.521464,0.847195,-0.101663,1.939662,-1.084973,-0.5988680000000001
1649,-0.419692,0.8834049999999999,-0.208457,0.682311,0.574389,-4.452033999999999
1650,-0.355164,0.911142,-0.208997,-0.186081,2.1747650000000003,-3.255389
1651,-0.361107,0.918882,-0.1589279999999999,-0.258797,0.978274,0.150826
1652,-0.302129,0.923604,-0.235954,-0.6629430000000001,0.262889,0.2524639999999999
1653,-0.210173,0.939196,-0.271547,-1.090349,0.454313,-0.719755
1654,-0.11459,0.948462,-0.295448,-1.946475,2.521448,-0.351433
1655,-0.042954,0.929743,-0.365694,-0.720641,1.064306,1.662218
1656,-0.002794,0.916577,-0.3998489999999999,-0.830046,-0.14764,1.487755
1657,0.029841,0.904464,-0.425505,-0.769297,-0.376693,0.598585
1658,0.052435,0.8960549999999999,-0.4408359999999999,-1.213705,-0.537412,0.570825
1659,0.041245,0.89095,-0.452225,-1.192643,-1.329091,1.055053
1660,0.002155,0.8961020000000001,-0.443842,-1.012211,-1.768981,1.39477
1661,-0.039594,0.914487,-0.402674,-0.320377,-1.853894,0.570811
1662,-0.099711,0.929363,-0.355446,0.628504,-0.623074,0.6041340000000001
1663,-0.1869549999999999,0.940621,-0.283338,0.490696,-0.4197619999999999,0.836134
1664,-0.28246,0.936204,-0.209137,-0.4632819999999999,0.5124810000000001,-0.2893219999999999
1665,-0.404174,0.906733,-0.120326,-1.137101,1.4428299999999998,-0.301198
1666,-0.544333,0.836982,-0.05624,-3.893595,3.822091,0.6876329999999999
1667,-0.6582680000000001,0.752775,-0.003689,-2.936962,4.51607,-0.326115
1668,-0.742375,0.6693359999999999,0.029474,-0.144939,2.2763880000000003,-0.626062
1669,-0.805213,0.59226,0.029332,0.8210209999999999,1.962885,-0.647756
1670,-0.842864,0.537824,0.01807,1.288085,0.5090210000000001,-0.568591
1671,-0.8603860000000001,0.5091859999999999,0.021557,1.626591,-0.383972,-0.107723
1672,-0.859561,0.510185,0.029427,1.819919,-0.735801,-0.294701
1673,-0.8371799999999999,0.5461630000000001,0.0289029999999999,2.098701,-1.016347,-0.428805
1674,-0.786261,0.617895,0.0004379999999999,2.833578,-1.392843,-0.674709
1675,-0.70712,0.706962,-0.0136759999999999,2.848553,-1.63201,-0.446331
1676,-0.623799,0.781429,-0.015594,2.431035,-1.288677,0.583267
1677,-0.565462,0.824757,-0.0053869999999999,0.7381449999999999,-0.504689,0.3120739999999999
1678,-0.5196930000000001,0.852194,0.060697,0.009622,-0.27825,1.500094
1679,-0.540077,0.83998,-0.05244,-2.089729,1.918382,0.0454209999999999
1680,-0.558172,0.807008,-0.192826,0.138952,0.2882679999999999,-0.96054
1681,-0.5582779999999999,0.822264,-0.1104859999999999,1.224537,-0.194075,-0.114993
1682,-0.4907479999999999,0.854498,-0.170289,0.547404,2.049844,-1.00656
1683,-0.462279,0.871819,-0.161957,-0.070375,1.191383,-1.574646
1684,-0.4844479999999999,0.867877,-0.109996,0.110226,0.311413,0.1562
1685,-0.4473069999999999,0.8794040000000001,-0.162986,0.142055,-0.805002,-0.692604
1686,-0.339761,0.921379,-0.188741,-0.144721,-0.277992,-0.932643
1687,-0.185184,0.964294,-0.189324,-0.8621790000000001,0.8337709999999999,-1.238487
1688,-0.080103,0.967191,-0.24109,-2.807974,5.034899,1.452684
1689,-0.021311,0.956775,-0.290048,-0.781271,-0.20032,1.1380709999999998
1690,0.020769,0.945176,-0.325901,0.143873,-0.252884,0.945103
1691,0.057232,0.935927,-0.347514,-0.709118,-0.401335,0.472834
1692,0.061826,0.931217,-0.359182,-1.095228,-0.914189,0.558752
1693,0.039852,0.93107,-0.362658,-1.226574,-1.677377,1.299273
1694,0.013038,0.94016,-0.340484,-1.015418,-1.966237,0.8722979999999999
1695,-0.024895,0.954976,-0.295636,0.131493,-1.439992,0.2382929999999999
1696,-0.079226,0.965314,-0.24878,0.540347,-0.612058,0.5809489999999999
1697,-0.153838,0.970484,-0.185727,0.091201,-0.791773,0.417447
1698,-0.235413,0.964973,-0.115789,-0.7294010000000001,0.560326,-0.868556
1699,-0.334435,0.9419,-0.031258,-1.198173,0.951761,-0.616401
1700,-0.466379,0.8841680000000001,0.027148,-2.35018,2.147127,1.117155
1701,-0.5876,0.8050649999999999,0.081223,-2.811555,4.702916,-0.36258
1702,-0.679212,0.724514,0.1172599999999999,-0.496875,2.501804,-0.7725489999999999
1703,-0.751869,0.647776,0.122801,0.5205609999999999,1.823339,-0.550642
1704,-0.798804,0.593096,0.10074,1.099311,0.971678,-0.611665
1705,-0.8234879999999999,0.559403,0.094529,1.335344,-0.220551,-0.159729
1706,-0.829758,0.550131,0.094113,1.502076,-0.479803,-0.259503
1707,-0.816361,0.569185,0.097888,1.707337,-0.720232,-0.410602
1708,-0.7797430000000001,0.621579,0.075097,2.275151,-0.95506,-0.495629
1709,-0.704619,0.709187,0.023795,2.876326,-1.61211,-0.837867
1710,-0.6087239999999999,0.793081,0.021862,2.517491,-1.536413,0.460789
1711,-0.54089,0.840448,0.03294,1.836728,-0.835733,0.229633
1712,-0.48766,0.867484,0.0982789999999999,0.39066,-0.4742649999999999,1.194384
1713,-0.48971,0.869757,0.060884,-1.758321,1.477335,1.08142
1714,-0.530883,0.844269,-0.073305,-0.8635719999999999,1.47789,-1.754819
1715,-0.546721,0.833033,-0.08457,0.729735,0.901525,0.650976
1716,-0.511948,0.85526,-0.080248,0.271363,2.853023,-1.7842380000000002
1717,-0.464771,0.881199,-0.0864679999999999,0.383793,1.125531,-1.00893
1718,-0.441749,0.8945540000000001,-0.068053,0.312552,-0.443718,-0.305527
1719,-0.405858,0.91024,-0.082109,0.352177,-1.2224959999999998,-0.779509
1720,-0.3192239999999999,0.940834,-0.113697,0.03361,-0.904549,-0.699276
1721,-0.186348,0.973785,-0.130449,-1.19236,0.8623959999999999,-0.985076
1722,-0.071999,0.981221,-0.178943,-2.183479,2.544581,1.194461
1723,-0.000737,0.972685,-0.232128,-1.258587,0.891176,1.177563
1724,0.047351,0.959289,-0.278427,-0.156558,-0.087234,0.904922
1725,0.093305,0.946285,-0.309578,-0.8230559999999999,-0.529857,0.457177
1726,0.111538,0.936107,-0.333561,-1.029125,-0.675823,0.342396
1727,0.086374,0.932683,-0.350202,-1.305368,-1.833257,1.245497
1728,0.045663,0.938927,-0.341073,-1.140298,-2.141793,1.157968
1729,0.013356,0.955853,-0.293541,-0.044667,-1.186718,0.3707809999999999
1730,-0.037653,0.968145,-0.2475409999999999,0.603434,-0.446325,0.329221
1731,-0.095603,0.976876,-0.19124,0.473563,-0.5251239999999999,-0.1171089999999999
