,gravity.x,gravity.y,gravity.z,userAcceleration.x,userAcceleration.y,userAcceleration.z
0,-0.193103,0.976018,-0.100477,0.331531,-0.720388,0.599531
1,-0.229204,0.971914,-0.0533299999999999,0.287752,-0.56748,0.654801
2,-0.262788,0.964542,0.024406,0.176194,-0.1196329999999999,-1.061424
3,-0.328126,0.936368,0.12467,0.320238,0.142337,-0.651281
4,-0.4349699999999999,0.8797879999999999,0.191751,-0.363355,3.212482,0.973517
5,-0.5214810000000001,0.819686,0.236994,-0.272601,3.759706,0.110037
6,-0.5501560000000001,0.784846,0.285198,-0.2415159999999999,2.086049,0.184392
7,-0.602429,0.742209,0.293594,-0.866977,1.394876,0.103531
8,-0.652892,0.696307,0.298129,-0.96692,1.308942,-0.246692
9,-0.687669,0.6557970000000001,0.311504,-0.409758,0.970393,-0.189998
10,-0.7022619999999999,0.627328,0.336571,0.940254,-0.614923,-0.543862
11,-0.696225,0.618425,0.364438,1.341138,-1.1951,-0.418042
12,-0.679517,0.634968,0.367513,1.204664,-1.464314,-0.4593859999999999
13,-0.657171,0.669153,0.3469219999999999,1.129003,-1.359842,-0.688459
14,-0.633775,0.709937,0.307104,1.364397,-1.51673,-0.636907
15,-0.6137670000000001,0.747821,0.253075,1.537259,-1.472064,-0.509498
16,-0.586449,0.780855,0.215261,0.709023,-0.405183,-0.281561
17,-0.550413,0.801871,0.2324699999999999,-0.032747,0.071069,0.299146
18,-0.539274,0.80062,0.261123,-0.492739,0.253152,0.359162
19,-0.57475,0.7816350000000001,0.242286,-0.737262,0.018521,-0.2927619999999999
20,-0.621717,0.7587510000000001,0.194316,1.500974,0.051384,-1.1525530000000002
21,-0.6467229999999999,0.7443489999999999,0.166393,1.524516,1.21346,-0.4558819999999999
22,-0.597191,0.7725489999999999,0.215692,1.86747,1.816516,0.377417
23,-0.580638,0.794043,0.179857,0.272731,-0.649496,-0.892442
24,-0.555255,0.8191109999999999,0.144023,0.206226,-0.680225,-0.6556350000000001
25,-0.478772,0.8740290000000001,0.082728,0.3245369999999999,0.913294,-0.640971
26,-0.346725,0.936998,0.042554,-0.10405,1.851637,-1.221006
27,-0.233798,0.972022,0.022482,-0.854398,2.717446,-2.00765
28,-0.185002,0.97704,-0.105651,-1.7302509999999998,0.78303,2.553161
29,-0.157767,0.979603,-0.1244359999999999,0.694678,1.536511,0.676164
30,-0.13274,0.981525,-0.137784,-0.196118,0.778347,0.563
31,-0.106727,0.982305,-0.153892,-0.1975029999999999,-1.182454,0.778617
32,-0.078134,0.980617,-0.179671,-0.077369,-1.658809,0.686079
33,-0.051448,0.978273,-0.200826,-0.387807,-1.674043,0.327825
34,-0.050592,0.977032,-0.2069929999999999,-1.017203,-1.470898,0.1207049999999999
35,-0.079244,0.973768,-0.2132929999999999,-0.163447,-0.927976,-0.129633
36,-0.127923,0.969122,-0.210799,0.0966429999999999,-0.8689319999999999,0.086241
37,-0.178967,0.965946,-0.186858,0.472501,-0.535801,0.809707
38,-0.214261,0.966487,-0.141393,0.389371,-0.305919,-0.244883
39,-0.256274,0.964208,-0.067997,0.370348,-0.121496,0.022709
40,-0.329146,0.944277,-0.001442,-0.403657,0.922362,0.402016
41,-0.43916,0.894965,0.078565,-0.369159,3.954781,0.158038
42,-0.512845,0.8416049999999999,0.169373,-0.2954739999999999,4.008141999999999,0.06723
43,-0.5496810000000001,0.801793,0.234465,-0.396821,1.7988990000000002,0.520235
44,-0.606575,0.751417,0.259681,-0.8058850000000001,1.272173,-0.0335
45,-0.645671,0.706719,0.28923,-0.81725,1.066948,-0.144653
46,-0.671179,0.669049,0.3191989999999999,0.7247680000000001,-0.1665309999999999,-0.724091
47,-0.6719310000000001,0.645645,0.362833,0.91981,-0.785171,-0.806925
48,-0.662867,0.639163,0.389965,1.178981,-1.189761,-0.7251850000000001
49,-0.656419,0.652586,0.378471,1.367677,-1.532804,-0.490654
50,-0.6521399999999999,0.683218,0.328514,1.29362,-1.511175,-0.377906
51,-0.6433,0.720063,0.260134,1.269033,-1.4667370000000002,-0.421084
52,-0.626073,0.75564,0.192449,0.989644,-1.163904,-0.478124
53,-0.5991,0.7859119999999999,0.153028,0.371256,-0.292519,-0.37721
54,-0.5709029999999999,0.802217,0.174681,-0.038685,0.270354,0.344271
55,-0.5786600000000001,0.789434,0.204799,-0.5800310000000001,0.249201,0.269367
56,-0.6358060000000001,0.753494,0.167314,0.247775,-0.505813,-0.366013
57,-0.672187,0.73125,0.1159109999999999,1.376365,-0.213153,-0.853124
58,-0.6541899999999999,0.745133,0.129651,1.7957759999999998,2.125152,0.034732
59,-0.635739,0.765944,0.095722,0.571072,0.129366,-0.320759
60,-0.616313,0.782884,0.085138,0.397669,-0.473771,-0.742028
61,-0.5565869999999999,0.82976,0.041289,-0.08828,0.505445,-0.7560560000000001
62,-0.4381779999999999,0.898754,-0.015434,-0.113718,1.848744,-0.8923409999999999
63,-0.334342,0.941174,-0.049032,-0.680642,2.383411,-1.754648
64,-0.286561,0.94782,-0.139702,-1.64337,1.162883,1.852868
65,-0.243858,0.951044,-0.189859,-0.683266,1.423819,1.834253
66,-0.226478,0.952019,-0.205826,0.8228530000000001,1.421989,0.664643
67,-0.188991,0.956464,-0.222386,-0.535557,-0.154569,0.653295
68,-0.150536,0.958359,-0.242663,-0.44828,-1.6875,0.825183
69,-0.118772,0.959576,-0.255157,-0.4800439999999999,-1.6887169999999998,0.837677
70,-0.11442,0.962007,-0.247887,-0.690268,-1.60808,0.011239
71,-0.138742,0.961892,-0.235612,0.013253,-0.964654,0.16948
72,-0.178098,0.958691,-0.22179,0.1887329999999999,-0.8917200000000001,0.230365
73,-0.219333,0.955356,-0.197953,0.477192,-0.5628850000000001,0.062074
74,-0.2508579999999999,0.956965,-0.145897,0.390231,-0.273478,0.163124
75,-0.290178,0.952808,-0.089169,0.075746,-0.129978,0.163495
76,-0.353446,0.934256,-0.047306,-0.3069389999999999,1.519052,-0.0940059999999999
77,-0.43203,0.901336,0.030677,0.007637,1.702333,-0.264426
78,-0.497803,0.85995,0.112581,0.200852,2.468755,-0.006914
79,-0.529309,0.831923,0.166535,-0.124317,2.824281,0.467651
80,-0.571872,0.799438,0.184006,-0.676724,1.619874,0.464981
81,-0.617638,0.763955,0.186794,-0.537833,1.027976,0.080571
82,-0.658458,0.725565,0.199965,0.148524,0.09551,-0.959029
83,-0.675367,0.693589,0.250619,1.210081,-1.043397,-0.807595
84,-0.6679970000000001,0.684279,0.292469,1.235365,-1.48413,-0.420521
85,-0.648105,0.703455,0.291731,1.179065,-2.049509,-0.297011
86,-0.61757,0.740776,0.2643,0.954408,-1.803185,-0.6974819999999999
87,-0.582565,0.780532,0.226681,0.996826,-1.616683,-0.802349
88,-0.545006,0.8144779999999999,0.198978,0.770424,-0.749933,-0.427142
89,-0.506483,0.838929,0.199175,0.425214,-0.144441,-0.145037
90,-0.4822479999999999,0.84951,0.213934,0.18052,0.18438,0.13627
91,-0.499533,0.836051,0.2269,-0.186593,0.804574,1.127866
92,-0.5516,0.80188,0.229619,0.1897839999999999,-0.502945,-0.6147050000000001
93,-0.602923,0.7801520000000001,0.16687,0.993761,-0.793931,-0.719956
94,-0.5998680000000001,0.781522,0.1714089999999999,1.830413,1.837253,0.273766
95,-0.5748810000000001,0.801481,0.16474,0.464743,-0.047132,-0.353521
96,-0.554818,0.818589,0.148624,0.417916,-0.347306,-0.6971470000000001
97,-0.503967,0.856116,0.114378,0.153442,0.232461,-0.5649850000000001
98,-0.392914,0.917588,0.060425,-0.126129,1.527114,-1.108505
99,-0.258816,0.965651,0.023069,-0.688282,2.071809,-1.408018
100,-0.178583,0.980715,-0.079411,-2.01737,1.514936,0.923756
101,-0.13659,0.978702,-0.153253,0.1079339999999999,1.493543,1.209252
102,-0.10595,0.980941,-0.16288,1.198448,1.623414,0.81118
103,-0.0820429999999999,0.980622,-0.177905,-0.5531659999999999,-0.232269,0.691562
104,-0.04926,0.978694,-0.199326,-0.463634,-1.198329,0.664429
105,-0.01372,0.975974,-0.217455,-0.504576,-1.57656,0.442018
106,-0.001383,0.975191,-0.221358,-1.437917,-1.4616870000000002,0.459182
107,-0.027721,0.976398,-0.214191,0.063046,-0.8516879999999999,-0.324307
108,-0.07317,0.974791,-0.21078,0.108494,-0.850081,-0.327717
109,-0.123595,0.972341,-0.198183,0.393264,-0.83106,0.409883
110,-0.167694,0.971758,-0.166028,0.150039,-0.447954,-0.23746
111,-0.201045,0.975379,-0.090646,0.183391,-0.451575,-0.312842
112,-0.262209,0.9649,-0.014624,-0.857527,1.6953470000000002,0.324911
113,-0.36345,0.930568,0.044135,-0.507781,2.166203,-0.143622
114,-0.451688,0.8831450000000001,0.126619,-0.133914,3.184955,-0.098894
115,-0.480484,0.851224,0.211075,0.149109,2.098575,0.293823
116,-0.527526,0.812813,0.247087,-0.3321699999999999,1.845344,0.4924149999999999
117,-0.5742430000000001,0.772742,0.2704,-0.749854,1.582697,-0.269392
118,-0.604859,0.735839,0.304444,0.381562,-0.094726,-0.293213
119,-0.6255029999999999,0.706285,0.331523,0.627624,-0.422029,-0.7373460000000001
120,-0.6237689999999999,0.693355,0.360792,0.913854,-0.854107,-0.701414
121,-0.617501,0.70249,0.353836,1.346886,-2.253058,-0.523621
122,-0.601907,0.737595,0.306041,1.260568,-2.013276,-0.929118
123,-0.5743510000000001,0.782926,0.239055,1.478099,-1.704343,-0.8427389999999999
124,-0.542469,0.815541,0.201542,1.109333,-0.706151,-0.715504
125,-0.506479,0.833324,0.2214699999999999,0.071848,0.263157,0.423931
126,-0.498989,0.8277370000000001,0.256633,-0.39278,0.513724,0.8194319999999999
127,-0.541125,0.801009,0.256063,-0.726774,0.443818,0.516016
128,-0.5975739999999999,0.771472,0.218486,0.802301,-0.527026,-0.504695
129,-0.6330060000000001,0.754795,0.172009,1.739481,2.8244130000000003,0.138355
130,-0.59478,0.777855,0.202924,1.5759040000000002,1.296104,-0.100324
131,-0.581663,0.791553,0.18738,0.787779,-0.7705420000000001,-0.876574
132,-0.562282,0.810325,0.164959,0.689541,-0.566154,-0.7489439999999999
133,-0.484616,0.866944,0.116426,0.526501,1.305037,-0.9675
134,-0.356936,0.930792,0.0788809999999999,0.050952,1.516229,-1.28927
135,-0.2327789999999999,0.972409,0.0153099999999999,-1.541345,3.415485,-1.03243
136,-0.168298,0.979132,-0.113917,-1.81771,1.196497,1.825449
137,-0.141023,0.981867,-0.126689,0.059083,0.8065399999999999,0.843959
138,-0.1066299999999999,0.983502,-0.146128,-0.075225,0.2243679999999999,0.404154
139,-0.070707,0.983655,-0.165601,-0.2461269999999999,-1.104031,0.727384
140,-0.0271779999999999,0.983108,-0.180995,-0.746748,-1.626999,0.515116
141,-0.003368,0.983358,-0.181649,-1.213002,-1.634267,-0.070335
142,-0.018805,0.984308,-0.175454,-0.577036,-1.033853,-0.1431339999999999
143,-0.060795,0.983487,-0.170463,0.130482,-1.126629,-0.087837
144,-0.113664,0.981147,-0.156303,0.245927,-1.194419,0.041756
145,-0.159079,0.978839,-0.128718,0.034644,-0.73128,0.57603
146,-0.194316,0.97837,-0.070951,0.019175,-0.1958079999999999,-0.576174
147,-0.2546219999999999,0.96697,0.011645,0.142165,0.161676,-0.203952
148,-0.357591,0.931107,0.071882,-0.384398,2.173553,0.219042
149,-0.4570479999999999,0.878425,0.139557,0.17145,4.31527,-0.1748809999999999
150,-0.473263,0.8548690000000001,0.212652,0.317181,3.283529,-0.1316119999999999
151,-0.505229,0.8237129999999999,0.257367,-0.712956,1.321382,0.964373
152,-0.55229,0.792637,0.258265,-0.8712479999999999,1.310253,0.63677
153,-0.5879270000000001,0.757013,0.28508,-0.973383,1.143103,-0.460251
154,-0.6153420000000001,0.722087,0.316137,0.56598,-0.133067,-0.923666
155,-0.625549,0.699261,0.346007,1.775436,-1.406796,-0.67993
156,-0.621837,0.698075,0.354978,1.771724,-1.40561,-0.688901
157,-0.601821,0.7239399999999999,0.337228,1.339125,-1.909761,-0.79902
158,-0.57157,0.765573,0.295305,1.3168540000000002,-1.414544,-0.736376
159,-0.538909,0.8057949999999999,0.2455,1.284194,-1.454766,-0.68657
160,-0.505595,0.833516,0.222763,0.062587,0.1148329999999999,-0.067291
161,-0.485029,0.8380790000000001,0.249737,-0.573901,0.690577,0.861743
162,-0.512483,0.810404,0.283908,-0.671248,0.7811939999999999,0.950742
163,-0.5809380000000001,0.767079,0.27221,0.225576,-0.070347,-0.051995
164,-0.637261,0.737059,0.2250309999999999,2.133172,2.419221,-0.033274
165,-0.630132,0.7437590000000001,0.223053,2.063085,1.768936,0.1162869999999999
166,-0.615421,0.766284,0.18456,1.0451700000000002,0.0473149999999999,-0.394399
167,-0.5817939999999999,0.7964439999999999,0.164891,0.330787,0.132099,-0.7240800000000001
168,-0.4932359999999999,0.861367,0.121499,0.2921559999999999,0.610847,-0.705819
169,-0.357034,0.931344,0.071562,-0.042075,1.393134,-1.116332
170,-0.232154,0.972108,0.0332839999999999,-1.581475,3.100036,-1.216618
171,-0.177491,0.977258,-0.116026,-2.392287,2.860739,0.422468
172,-0.152317,0.980786,-0.12189,0.905567,1.183765,0.558704
173,-0.124623,0.983822,-0.128689,0.266957,0.679874,0.46046
174,-0.093835,0.984744,-0.146535,-0.305152,-0.6892729999999999,0.706213
175,-0.054956,0.98389,-0.1701119999999999,-0.538321,-1.737873,0.5813520000000001
176,-0.022831,0.983569,-0.179075,-1.421719,-1.600269,0.324888
177,-0.026726,0.984481,-0.1734369999999999,-1.333748,-1.277587,0.188238
178,-0.061122,0.98367,-0.1692789999999999,0.1196849999999999,-1.023282,-0.317659
179,-0.106597,0.981043,-0.161834,0.25273,-1.185389,0.105621
180,-0.151068,0.977964,-0.144097,0.249777,-1.056806,0.324212
181,-0.186386,0.976558,-0.107672,-0.023102,-0.4313149999999999,-0.4651729999999999
182,-0.236325,0.971137,-0.032284,-0.16373,0.191888,0.188442
183,-0.319873,0.947123,0.0252569999999999,-0.549955,0.983617,0.569317
184,-0.427206,0.899392,0.092668,-0.319315,3.715034,-0.467973
185,-0.475484,0.8627549999999999,0.171949,0.379079,2.812355,0.0800049999999999
186,-0.492663,0.835788,0.242362,0.150439,1.971692,0.116295
187,-0.534285,0.802403,0.26587,-0.655015,1.272869,0.265273
188,-0.573404,0.7731859999999999,0.270905,-0.5029819999999999,1.0158459999999998,-0.433975
189,-0.609229,0.736769,0.293273,0.081535,0.505846,-0.607421
190,-0.633628,0.701941,0.325257,0.880194,-0.408514,-0.8616799999999999
191,-0.63976,0.6821189999999999,0.354143,1.739538,-1.367529,-0.721208
192,-0.6321859999999999,0.69026,0.351964,1.64778,-1.948698,-0.622243
193,-0.6109829999999999,0.726146,0.315294,1.479788,-1.994807,-0.762712
194,-0.584132,0.7694979999999999,0.258189,1.514049,-1.407849,-0.56483
195,-0.5568810000000001,0.802874,0.21278,1.071759,-0.933046,-0.442028
196,-0.530237,0.818662,0.220546,-0.0545559999999999,0.267352,0.259923
197,-0.5320229999999999,0.804751,0.263298,-0.867498,0.564847,0.714715
198,-0.5832069999999999,0.7697229999999999,0.259607,-0.766494,0.463905,0.4284729999999999
199,-0.641003,0.739398,0.2059219999999999,1.6509060000000002,1.28877,-1.2620129999999998
200,-0.640714,0.735169,0.221384,1.641919,3.002044,0.989859
201,-0.617424,0.757968,0.210407,1.1784290000000002,0.26579,-0.161747
202,-0.605785,0.773977,0.184347,0.764201,-0.573705,-0.981954
203,-0.5712619999999999,0.805789,0.156086,0.578372,0.67178,-0.551945
204,-0.481529,0.870125,0.104933,0.622062,1.431815,-0.506895
205,-0.3588969999999999,0.931189,0.0638659999999999,0.007197,1.491815,-1.37011
206,-0.259328,0.965549,0.021505,-1.533885,2.871548,-0.805624
207,-0.211742,0.969049,-0.126921,-2.184041,1.965689,0.454924
208,-0.177149,0.973303,-0.145943,0.0995419999999999,1.472528,0.964622
209,-0.145763,0.975847,-0.162713,-0.079823,0.035643,0.436822
210,-0.110766,0.977405,-0.180028,-0.255033,-0.647968,0.6908770000000001
211,-0.067009,0.977812,-0.198478,-0.147758,-1.532575,0.8364020000000001
212,-0.032842,0.98014,-0.195569,-1.049845,-1.561606,0.076596
213,-0.034508,0.983017,-0.180239,-0.929832,-1.300049,0.039354
214,-0.06517,0.98203,-0.177113,-0.098115,-1.0582790000000002,-0.350918
215,-0.108607,0.977811,-0.179135,0.267924,-0.98155,0.335889
216,-0.1509339999999999,0.974865,-0.16388,0.284586,-0.84605,0.490601
217,-0.183849,0.975285,-0.12255,-0.074772,-0.417927,-0.339319
218,-0.226992,0.972548,-0.0512269999999999,-0.366147,-0.049285,0.1160619999999999
219,-0.297458,0.954732,0.002414,-0.653241,0.6639970000000001,0.230984
220,-0.398726,0.914915,0.0628389999999999,-0.292147,2.876833,-0.359302
221,-0.467183,0.8734700000000001,0.13708,0.367604,3.197163,0.278097
222,-0.488993,0.845549,0.2143179999999999,0.6314649999999999,2.063066,-0.140801
223,-0.525315,0.8148380000000001,0.2451179999999999,-1.0124959999999998,1.682004,0.240676
224,-0.567321,0.780748,0.261876,-0.797914,1.2209,-0.5040180000000001
225,-0.602923,0.738829,0.301023,-0.287061,0.865877,-0.639509
226,-0.622881,0.705222,0.338645,0.969057,-0.398887,-0.7003699999999999
227,-0.624084,0.690376,0.3659239999999999,1.660522,-1.452689,-0.519992
228,-0.615348,0.697349,0.3674929999999999,1.438849,-1.951682,-0.50029
229,-0.595433,0.728788,0.338122,1.268804,-2.076947,-0.971239
230,-0.569924,0.77071,0.28494,1.598351,-1.672322,-0.976208
231,-0.543415,0.806253,0.233782,1.491306,-1.392633,-0.742815
232,-0.515594,0.8291729999999999,0.2159449999999999,0.267303,0.295995,-0.023898
233,-0.4952649999999999,0.830715,0.254209,-0.6242880000000001,1.082798,1.5058
234,-0.523213,0.801377,0.289898,-0.962505,1.150177,1.579304
235,-0.5877859999999999,0.7683909999999999,0.25314,0.377139,-0.696248,-1.083905
236,-0.6341979999999999,0.74711,0.199041,1.989072,1.000845,-1.373052
237,-0.617426,0.760219,0.2021109999999999,1.995692,1.457509,0.037452
238,-0.590065,0.784349,0.191354,0.534325,-0.27765,-0.8688899999999999
239,-0.551714,0.8120649999999999,0.190159,0.170442,-0.5097119999999999,-1.192676
240,-0.475554,0.8654870000000001,0.157412,0.06877,0.983817,-0.478868
241,-0.365827,0.927146,0.08104,-0.271502,1.866173,-1.104371
242,-0.253292,0.966958,0.028876,-1.296192,2.643089,-0.962943
243,-0.187303,0.977908,-0.092794,-1.7751599999999998,1.970181,0.6808069999999999
244,-0.152191,0.981476,-0.116369,-0.20459,0.913712,0.78803
245,-0.123641,0.984562,-0.123894,-0.116975,0.463604,0.404412
246,-0.091075,0.985795,-0.1411059999999999,-0.546361,-0.258943,0.645058
247,-0.056311,0.984922,-0.163572,-0.239817,-1.548612,0.454847
248,-0.0211319999999999,0.984369,-0.174841,-1.095964,-1.53132,0.232901
249,-0.009403,0.9856,-0.168829,-1.220257,-1.403767,0.350272
250,-0.0322779999999999,0.986569,-0.160118,-0.3739719999999999,-1.01991,-0.365684
251,-0.070939,0.984254,-0.161895,0.2496199999999999,-1.043977,-0.017807
252,-0.115211,0.981334,-0.153973,0.2384099999999999,-1.088451,0.200925
253,-0.155663,0.979417,-0.128494,0.075936,-0.916795,0.480255
254,-0.193376,0.978293,-0.074484,0.2229469999999999,-0.163962,-0.037165
255,-0.256797,0.966438,-0.007142,0.189567,0.185585,0.096772
256,-0.351211,0.935088,0.047534,-0.442643,1.47934,0.268552
257,-0.454108,0.8854120000000001,0.099149,-0.155725,4.011805000000001,0.187029
258,-0.4898439999999999,0.858649,0.15091,-0.113,2.517663,0.27896
259,-0.525129,0.8276600000000001,0.1980319999999999,-0.804323,1.188743,0.4523279999999999
260,-0.5671470000000001,0.794284,0.2178469999999999,-0.901146,1.338849,-0.088681
261,-0.601209,0.764254,0.233373,-0.696185,1.129148,-0.398076
262,-0.633678,0.72854,0.260156,0.552074,-0.150827,-0.838205
263,-0.648983,0.700764,0.296226,1.615048,-0.982944,-0.560264
264,-0.6460640000000001,0.695639,0.314145,1.732536,-1.527136,-0.338513
265,-0.625929,0.718893,0.302333,1.113783,-2.077902,-0.5881149999999999
266,-0.5935050000000001,0.7588,0.26828,1.261092,-1.7642779999999998,-0.889007
267,-0.559559,0.7984399999999999,0.2222309999999999,1.3264200000000002,-1.466958,-0.7582260000000001
268,-0.532945,0.82311,0.196109,0.318986,0.130381,-0.132999
269,-0.511141,0.82865,0.2281949999999999,-0.398802,0.660562,0.8289040000000001
270,-0.534328,0.8031729999999999,0.263449,-0.6768529999999999,0.6888920000000001,0.837427
271,-0.5954010000000001,0.767108,0.238837,0.521472,-0.435366,-0.650779
272,-0.639748,0.743162,0.196042,1.880211,2.009158,-0.149869
273,-0.618387,0.760317,0.198782,2.347147,2.634764,0.909845
274,-0.599662,0.7837569999999999,0.161645,0.7291489999999999,-0.162846,-0.95054
275,-0.562078,0.814995,0.140893,0.1739099999999999,-0.210472,-0.962258
276,-0.475487,0.874358,0.097007,0.2163769999999999,0.402101,-0.646461
277,-0.342731,0.938868,0.032591,-0.055096,1.898397,-1.3756700000000002
278,-0.227408,0.973738,-0.0109129999999999,-1.567346,2.705812,0.303821
279,-0.167369,0.976043,-0.139026,-2.103032,1.838701,1.718371
280,-0.14149,0.979538,-0.1431319999999999,0.119929,1.02298,0.586522
281,-0.112396,0.981227,-0.156716,-0.310592,-0.192897,0.4436569999999999
282,-0.08011,0.981579,-0.173451,-0.342879,-0.193249,0.460392
283,-0.041484,0.980701,-0.191063,-0.098195,-1.461658,0.723503
284,-0.011051,0.980447,-0.196475,-1.054348,-1.603448,0.199053
285,-0.007237,0.980825,-0.194758,-1.044506,-1.329564,0.335963
286,-0.031544,0.979776,-0.197593,0.060002,-0.93458,-0.1575089999999999
287,-0.071649,0.977187,-0.199928,0.263299,-0.906509,-0.039268
288,-0.114571,0.97607,-0.184827,0.330575,-0.849193,0.2061889999999999
289,-0.151857,0.976721,-0.1515119999999999,-0.073149,-0.477118,0.043267
290,-0.190461,0.977952,-0.085642,0.116716,-0.244309,-0.200369
291,-0.258137,0.966049,-0.010742,-0.3189349999999999,0.371537,0.427352
292,-0.3614719999999999,0.930731,0.055474,-0.416818,2.669229,-0.440392
293,-0.456102,0.879867,0.133437,-0.137419,3.959855,-0.268629
294,-0.475968,0.855791,0.202675,0.223877,3.854338,-0.0068439999999999
295,-0.505559,0.830535,0.233713,-0.620082,1.158189,0.914786
296,-0.5458310000000001,0.806705,0.226483,-1.060599,0.947674,-0.488126
297,-0.577158,0.780047,0.241692,-0.626287,0.8527040000000001,-0.363518
298,-0.607229,0.748803,0.265642,0.435278,-0.3760159999999999,-0.5656909999999999
299,-0.617721,0.7299640000000001,0.29253,1.227508,-1.09619,-0.77866
300,-0.6135550000000001,0.728731,0.30414,1.4411,-1.639925,-0.593096
301,-0.59341,0.752261,0.2862969999999999,1.559139,-2.327548,-0.508587
302,-0.561923,0.7902710000000001,0.244362,1.6079290000000002,-1.62984,-0.657616
303,-0.531375,0.823617,0.198228,1.31763,-1.0618530000000002,-0.542726
304,-0.503744,0.8447459999999999,0.180678,0.240317,0.202251,0.004731
305,-0.485222,0.845866,0.221518,-0.483726,0.740209,0.95736
306,-0.509316,0.8200930000000001,0.260854,-0.679954,0.699728,0.8496959999999999
307,-0.57125,0.7841229999999999,0.242533,0.695854,-0.339742,-0.360942
308,-0.619583,0.758621,0.201518,1.934631,2.046631,-0.891215
309,-0.608823,0.769914,0.191224,2.036435,1.957244,0.2036589999999999
310,-0.598495,0.787978,0.144545,1.154693,-0.089767,-0.624007
311,-0.5719270000000001,0.811373,0.120715,0.5891390000000001,-0.070131,-1.016025
312,-0.480142,0.8720690000000001,0.094647,0.423929,0.452654,-0.785748
313,-0.338676,0.939443,0.052381,-0.4140399999999999,1.873728,-1.722578
314,-0.210961,0.977325,0.018175,-2.228614,3.116242,-0.025743
315,-0.154045,0.978983,-0.13365,-2.66584,1.726523,0.600935
316,-0.1225859999999999,0.979488,-0.159922,0.71922,1.103398,0.7434029999999999
317,-0.098094,0.980474,-0.170431,0.187968,0.6479590000000001,0.511663
318,-0.068196,0.978575,-0.194267,-0.177958,-0.085523,0.61338
319,-0.028201,0.976521,-0.213565,-0.353528,-1.660145,0.433734
320,0.003871,0.976262,-0.216557,-1.499507,-1.709538,0.406223
321,0.000754,0.978772,-0.204948,-1.75524,-1.441068,0.4533609999999999
322,-0.033311,0.978029,-0.205788,0.2259219999999999,-1.0347,-0.501579
323,-0.081244,0.973593,-0.213344,0.341437,-1.080099,0.331126
324,-0.127675,0.972486,-0.194857,0.279012,-1.02577,0.618472
325,-0.1675029999999999,0.976298,-0.1370559999999999,-0.0927809999999999,-0.465571,-0.47743
326,-0.2280869999999999,0.970498,-0.078162,-0.8305680000000001,0.1385559999999999,0.1527619999999999
327,-0.317254,0.947887,-0.029299,-0.905692,1.40041,0.945116
328,-0.417289,0.907393,0.050076,-0.1401,3.657305000000001,-0.2621429999999999
329,-0.449017,0.883624,0.132632,0.431835,3.48599,0.227811
330,-0.468937,0.8608399999999999,0.1976109999999999,0.419834,2.105286,0.214086
331,-0.508907,0.832844,0.217675,-0.8511860000000001,1.526165,0.108955
332,-0.543198,0.807976,0.228275,-0.098602,0.871575,-0.303745
333,-0.582341,0.775385,0.244246,0.086156,0.5625819999999999,-0.503965
334,-0.609229,0.74395,0.274546,1.467445,-1.278664,-0.806635
335,-0.6139399999999999,0.730362,0.29941,1.633578,-1.692582,-0.627229
336,-0.6007100000000001,0.746395,0.286427,1.607271,-2.580776,-0.599995
337,-0.567787,0.78588,0.244966,1.671241,-1.650062,-0.591005
338,-0.529315,0.8245979999999999,0.199654,0.7422979999999999,-0.460721,-0.438378
339,-0.491774,0.851817,0.1804589999999999,0.384046,-0.163325,-0.2842949999999999
340,-0.466697,0.860534,0.204143,-0.082635,0.296052,0.280553
341,-0.479894,0.844153,0.238969,-0.8615209999999999,0.4911439999999999,0.5601189999999999
342,-0.532625,0.812311,0.237612,-0.290068,-0.012354,-0.1235069999999999
343,-0.5923,0.781874,0.194552,0.852707,-0.7698050000000001,-0.875659
344,-0.615976,0.761502,0.20171,2.110284,3.04166,1.300121
345,-0.591938,0.775205,0.220603,1.283496,2.056369,-0.412955
346,-0.5892470000000001,0.788691,0.175366,0.5035689999999999,-0.558909,-1.054425
347,-0.569238,0.810534,0.137844,0.758631,-0.190463,-0.818263
348,-0.4925319999999999,0.867208,0.073226,0.689951,0.721431,-0.8791040000000001
349,-0.363932,0.931097,0.024732,-0.38825,2.175394,-1.69975
350,-0.2382409999999999,0.971143,-0.011016,-1.943079,3.139864,0.355026
351,-0.176946,0.973965,-0.141707,-2.713771,1.717105,2.753661
352,-0.146172,0.976789,-0.156577,0.5083850000000001,0.973574,0.660071
353,-0.121821,0.977386,-0.172843,0.3546539999999999,0.552872,0.424903
354,-0.086615,0.976173,-0.198954,0.022925,-0.0945049999999999,0.5018560000000001
355,-0.044945,0.973475,-0.2243349999999999,-0.271385,-1.575892,0.980072
356,-0.0119049999999999,0.97309,-0.2301139999999999,-1.158292,-1.6431189999999998,0.0708879999999999
357,-0.012782,0.976105,-0.2169199999999999,-1.304021,-1.528016,0.114701
358,-0.043085,0.976771,-0.2099079999999999,-0.037482,-1.03921,-0.187797
359,-0.092396,0.974684,-0.203597,0.2093239999999999,-1.074874,0.200744
360,-0.1426859999999999,0.973471,-0.178866,0.332155,-0.937079,0.422106
361,-0.18229,0.97317,-0.1403839999999999,0.02308,-0.434337,0.089084
362,-0.2241449999999999,0.972137,-0.06861,0.211496,0.188065,0.27175
363,-0.294719,0.955547,-0.0082069999999999,-0.241139,0.609226,0.326185
364,-0.393298,0.917493,0.0593389999999999,-0.30058,2.643313,-0.434705
365,-0.450013,0.88221,0.138534,0.159272,2.883797,-0.119094
366,-0.464743,0.8600629999999999,0.2104849999999999,0.091086,2.015166,0.070628
367,-0.502188,0.82955,0.244236,-0.6559689999999999,1.374628,0.5186109999999999
368,-0.543223,0.803984,0.2419,-0.790883,1.042039,-0.2125719999999999
369,-0.575146,0.777104,0.255565,-0.5142399999999999,0.799434,-0.332912
370,-0.602129,0.748575,0.277624,0.54178,-0.332971,-0.758306
371,-0.61236,0.7308479999999999,0.301452,1.501093,-1.097349,-0.560516
372,-0.61075,0.734476,0.295848,1.447329,-1.4407450000000002,-0.481472
373,-0.592222,0.76118,0.26434,1.362837,-1.938823,-0.721279
374,-0.560621,0.7991159999999999,0.21706,1.316466,-1.413297,-0.4823949999999999
375,-0.5278109999999999,0.8302120000000001,0.179337,0.933908,-0.8763690000000001,-0.358231
376,-0.4988479999999999,0.846774,0.184722,0.154106,-0.03757,0.003129
377,-0.490572,0.84206,0.224213,-0.658842,0.390362,0.560638
378,-0.528454,0.8152520000000001,0.23685,-0.730991,0.472132,0.5665560000000001
379,-0.587408,0.782888,0.205029,0.543158,0.0731909999999999,-0.316998
380,-0.6160909999999999,0.763405,0.194018,1.597323,2.7751240000000004,-0.321612
381,-0.61366,0.768011,0.183244,1.369474,-0.2539119999999999,-0.23044
382,-0.608553,0.77981,0.146825,1.15491,-0.312372,-0.845693
383,-0.5628569999999999,0.817875,0.1194619999999999,0.6390140000000001,0.742977,-0.917649
384,-0.442688,0.894336,0.064729,0.343857,1.687512,-0.79889
385,-0.292988,0.95607,0.009355,0.0069159999999999,1.796082,-1.264909
386,-0.190328,0.981008,-0.037384,-2.178202,2.03393,1.005661
387,-0.145666,0.972315,-0.1827119999999999,-2.222864,2.042623,1.150989
388,-0.126068,0.975039,-0.182771,-0.329346,0.837614,0.7113510000000001
389,-0.113256,0.974966,-0.191345,0.009954,-0.093329,0.286118
390,-0.0924919999999999,0.972815,-0.212311,-0.0154949999999999,-0.594931,0.6557470000000001
391,-0.063113,0.97066,-0.2320239999999999,-0.094205,-1.487292,0.692397
392,-0.038272,0.971884,-0.232329,-0.864941,-1.3963219999999998,0.167434
393,-0.037089,0.974235,-0.222465,-0.902196,-1.213828,0.187324
394,-0.06085,0.974154,-0.217534,-0.035143,-1.081164,-0.079631
395,-0.09739,0.971909,-0.214258,0.17173,-0.961259,0.238917
396,-0.137987,0.971061,-0.194934,0.234179,-0.89315,0.372653
397,-0.172348,0.971989,-0.159789,-0.114471,-0.39098,-0.22757
398,-0.219962,0.970976,-0.093928,0.022803,0.110567,0.186015
399,-0.297488,0.954113,-0.034187,-0.453687,0.811344,0.559609
400,-0.401271,0.915371,0.032801,-0.086674,2.828052,-0.356501
401,-0.4685149999999999,0.876132,0.113518,0.408029,3.559217,0.361137
402,-0.492089,0.851484,0.181173,0.420662,2.354907,0.518458
403,-0.530939,0.82535,0.192094,-0.7427279999999999,1.385801,0.30551
404,-0.574933,0.79809,0.180289,-0.813952,0.92304,-0.384894
405,-0.615179,0.7647970000000001,0.191417,-0.6511170000000001,0.798481,-0.3588969999999999
406,-0.645015,0.7328979999999999,0.216371,0.593074,-0.363162,-0.69716
407,-0.653449,0.715438,0.24729,1.463325,-1.489745,-0.510687
408,-0.639798,0.7245119999999999,0.256402,1.412289,-1.985299,-0.440774
409,-0.60638,0.75867,0.238166,1.427654,-2.319934,-0.511192
410,-0.5650430000000001,0.800573,0.199521,1.499827,-1.611791,-0.637174
411,-0.529131,0.832385,0.16479,1.176791,-1.000781,-0.6234390000000001
412,-0.501741,0.847299,0.174183,0.086824,0.256872,0.176769
413,-0.499125,0.8365889999999999,0.225816,-0.7566430000000001,0.865468,1.13388
414,-0.5462090000000001,0.801823,0.2423539999999999,-0.778177,0.7690239999999999,0.7943279999999999
415,-0.608904,0.766745,0.203317,0.40169,-0.984122,-1.050607
416,-0.6479199999999999,0.746686,0.150533,2.617204,2.448184,0.212901
417,-0.607491,0.766125,0.209775,2.576775,2.428745,0.153658
418,-0.585108,0.790339,0.18169,0.115046,0.313223,-0.707737
419,-0.5734560000000001,0.808185,0.134105,0.479355,-1.099735,-0.633571
420,-0.5295989999999999,0.845794,0.06446,0.540067,-0.495849,-0.741554
421,-0.424465,0.905425,-0.00575,0.568249,1.720795,-0.669284
422,-0.2830809999999999,0.958797,-0.023919,-0.691666,3.012837,-1.883872
423,-0.212936,0.970909,-0.109516,-1.454636,3.127312,-0.108746
424,-0.173051,0.967891,-0.182317,-1.407378,1.15894,1.026616
425,-0.166548,0.968267,-0.18633,0.673323,0.661097,0.719151
426,-0.140845,0.968851,-0.20369,0.130027,0.20722,0.527634
427,-0.10393,0.967681,-0.229761,0.1776609999999999,-1.05751,0.797266
428,-0.061121,0.969247,-0.238377,-0.918569,-1.670098,0.140446
429,-0.039133,0.972412,-0.229959,-1.192831,-1.567612,0.302134
430,-0.04857,0.973838,-0.221988,-0.5254810000000001,-1.080497,-0.168561
431,-0.079318,0.97213,-0.220612,0.231174,-1.00219,0.184052
432,-0.119464,0.970801,-0.208021,0.333423,-0.899435,0.273603
433,-0.154803,0.97138,-0.180153,-0.045255,-0.673315,0.5174489999999999
434,-0.188593,0.972894,-0.133818,-0.088934,-0.286417,-0.515993
435,-0.244778,0.967945,-0.05626,0.064725,-0.1635319999999999,0.168427
436,-0.328409,0.944526,0.003878,-0.7535149999999999,1.810997,0.2661409999999999
437,-0.440733,0.8948219999999999,0.071028,-0.4223189999999999,4.030821,-0.345656
438,-0.489264,0.859682,0.146852,0.014182,3.925581,-0.010179
439,-0.508679,0.8354590000000001,0.207971,-0.186023,1.223715,0.7847970000000001
440,-0.54903,0.807081,0.217218,-0.753491,1.346422,0.233862
441,-0.586638,0.781022,0.214146,-0.766695,1.179275,-0.1382789999999999
442,-0.619816,0.748402,0.2360469999999999,0.4226729999999999,0.032451,-0.5624939999999999
443,-0.642616,0.719004,0.264716,0.890785,-0.491846,-0.728416
444,-0.648564,0.70527,0.28628,1.198582,-0.980508,-0.769007
445,-0.6353340000000001,0.716919,0.287008,1.32616,-2.042724,-0.648641
446,-0.608147,0.7502850000000001,0.259278,1.417244,-2.012812,-0.61165
447,-0.576993,0.7884800000000001,0.2130139999999999,1.532452,-1.809796,-0.5601510000000001
448,-0.547991,0.8176479999999999,0.176503,0.701922,-0.24111,-0.381322
449,-0.526456,0.830166,0.183477,-0.04996,0.4881939999999999,0.398325
450,-0.5324939999999999,0.8133,0.234496,-0.7616649999999999,0.938058,1.188294
451,-0.586562,0.7733359999999999,0.240606,-0.244279,-0.150426,-0.074193
452,-0.648736,0.738975,0.181804,1.53489,1.782693,-1.7408549999999998
453,-0.64007,0.742611,0.197062,1.622766,3.5298190000000003,0.295186
454,-0.63383,0.753637,0.17403,1.079157,-0.7135060000000001,-0.147968
455,-0.6264569999999999,0.763825,0.155298,0.621422,-1.101213,-0.959039
456,-0.581623,0.805601,0.112768,0.669987,0.35303,-0.92298
457,-0.469426,0.881756,0.04628,0.2229199999999999,1.948597,-1.002106
458,-0.33463,0.942317,-0.007462,-0.611857,2.050511,-1.131942
459,-0.240392,0.966933,-0.08514,-1.369075,2.770555,-0.7563979999999999
460,-0.18483,0.968038,-0.169517,-1.264129,1.540614,1.416663
461,-0.171846,0.970195,-0.17084,0.447451,1.03574,0.5766319999999999
462,-0.1413849999999999,0.972907,-0.182918,0.2545139999999999,0.368799,0.4160569999999999
463,-0.102973,0.97286,-0.207208,-0.322305,-0.7762359999999999,0.940225
464,-0.0593169999999999,0.97292,-0.2233909999999999,-0.755685,-1.691884,0.104556
465,-0.034184,0.975039,-0.219378,-1.101497,-1.742358,-0.031904
466,-0.045056,0.977079,-0.2080449999999999,-0.801852,-1.331846,-0.09208
467,-0.0820419999999999,0.975372,-0.20473,0.185085,-1.012405,0.042376
468,-0.132401,0.97204,-0.193915,0.290864,-0.988047,0.2780829999999999
469,-0.178713,0.969968,-0.164985,0.326357,-0.846707,0.626807
470,-0.211338,0.969726,-0.122322,-0.122997,-0.262329,-0.256249
471,-0.250788,0.967299,-0.0378649999999999,0.0202889999999999,-0.065687,-0.347221
472,-0.323619,0.945439,0.03757,-0.448262,0.793926,0.123944
473,-0.4289479999999999,0.897349,0.103739,-0.2304139999999999,3.922933,-0.1801549999999999
474,-0.483483,0.85631,0.181582,0.112542,4.414412,-0.111315
475,-0.49818,0.832081,0.243826,-0.204823,1.205501,0.63122
476,-0.534569,0.8011159999999999,0.26915,-0.463844,1.154679,0.524215
477,-0.570469,0.773274,0.276776,-0.719616,0.97285,-0.2821619999999999
478,-0.600274,0.73887,0.306163,0.128365,0.318824,-0.407557
479,-0.624536,0.709657,0.326087,1.057352,-0.749452,-0.68975
480,-0.635493,0.696236,0.333759,1.219478,-1.310616,-0.6012609999999999
481,-0.632308,0.708299,0.313834,1.147643,-1.81653,-0.611899
482,-0.612455,0.739622,0.279016,1.227811,-1.81674,-0.775263
483,-0.581724,0.778358,0.236114,1.388456,-1.7331759999999998,-0.71199
484,-0.547543,0.8124140000000001,0.20043,0.813229,-0.5060180000000001,-0.44866
485,-0.511624,0.834699,0.203744,0.035413,0.144031,0.279472
486,-0.4954699999999999,0.834018,0.242727,-0.436262,0.3582579999999999,0.5864510000000001
487,-0.5312640000000001,0.806852,0.258345,-0.551316,0.1814599999999999,0.39876
488,-0.594454,0.771933,0.2252489999999999,0.933687,0.347665,-1.007857
489,-0.629668,0.7514649999999999,0.197008,1.460036,1.797424,-1.712678
490,-0.623853,0.757364,0.192875,1.272961,-0.679651,0.236675
491,-0.618476,0.766299,0.173973,0.664421,-0.853503,-1.185325
492,-0.577725,0.799812,0.162873,0.262341,-0.706443,-1.119981
493,-0.4675829999999999,0.8768459999999999,0.111802,0.149773,2.162414,-0.895417
494,-0.348276,0.936031,0.050432,-0.388327,1.695271,-1.365526
495,-0.261788,0.965,-0.015385,-0.8796,1.711453,-0.542903
496,-0.2068829999999999,0.971448,-0.1161119999999999,-1.1996870000000002,1.840258,1.466759
497,-0.178264,0.974981,-0.132772,0.496318,1.392847,0.7567189999999999
498,-0.141521,0.979437,-0.143768,0.186412,0.8487180000000001,0.741211
499,-0.1086309999999999,0.979975,-0.1668619999999999,-0.153118,-0.620768,0.730308
500,-0.068337,0.978706,-0.193544,0.023125,-1.439583,0.721696
501,-0.030607,0.978631,-0.203323,-0.951983,-1.516091,0.334778
502,-0.023816,0.980577,-0.194671,-0.549747,-1.124849,-0.270845
503,-0.048271,0.980465,-0.190669,-0.129906,-1.020122,-0.3956199999999999
504,-0.089024,0.978044,-0.188418,0.147969,-1.087831,0.136522
505,-0.1305069999999999,0.976426,-0.171917,-0.069337,-0.7776350000000001,0.759502
506,-0.163699,0.977642,-0.131961,-0.204267,-0.6121939999999999,0.099582
507,-0.2118929999999999,0.975913,-0.051861,0.0018559999999999,-0.132484,0.042614
508,-0.292098,0.956331,0.010197,-0.673646,2.061033,0.009655
509,-0.403542,0.911244,0.082359,-0.291984,2.871319,-0.485847
510,-0.45514,0.8751260000000001,0.164303,0.4699859999999999,3.691982,-0.013729
511,-0.466918,0.8541549999999999,0.228909,0.348464,1.575868,0.433032
512,-0.5111680000000001,0.823048,0.247571,-0.3118,1.221904,0.6961390000000001
513,-0.5576399999999999,0.793201,0.2446699999999999,-0.7336199999999999,1.02345,-0.172572
514,-0.596759,0.760303,0.256536,-0.138226,0.476666,-0.6049399999999999
515,-0.626307,0.727658,0.279724,0.996577,-0.727597,-0.556488
516,-0.635976,0.709462,0.303629,1.219121,-1.06342,-0.563593
517,-0.630285,0.714603,0.30344,1.109915,-2.020404,-0.658038
518,-0.608683,0.742079,0.2807409999999999,1.500437,-2.38272,-0.840083
519,-0.577871,0.7804180000000001,0.238758,1.745871,-2.317756,-0.8372229999999999
520,-0.547529,0.8121,0.201739,0.98779,-0.419217,-0.308322
521,-0.5158659999999999,0.8337459999999999,0.1968329999999999,0.164227,0.161738,0.225134
522,-0.494822,0.83391,0.244413,-0.470555,0.638975,0.8014859999999999
523,-0.525684,0.8072229999999999,0.268404,-0.7176170000000001,0.280439,0.2170389999999999
524,-0.5864090000000001,0.7735390000000001,0.240326,0.555815,-0.998606,-0.72525
525,-0.624394,0.757096,0.1921759999999999,1.758519,-0.7358859999999999,-0.467613
526,-0.605428,0.7645310000000001,0.2212309999999999,1.7225240000000002,3.876109,-0.8632299999999999
527,-0.580579,0.789747,0.198047,0.818921,1.7661619999999998,-1.607425
528,-0.571156,0.8053520000000001,0.158688,0.116826,-1.269189,-0.7094699999999999
529,-0.532217,0.84111,0.0962929999999999,0.244223,0.406967,-0.960825
530,-0.4273619999999999,0.903677,0.026909,0.446725,2.047251,-0.816094
531,-0.290045,0.956952,0.010548,-0.05636,2.477084,-1.573002
532,-0.2136179999999999,0.974989,-0.0613029999999999,-1.949453,1.487123,0.698709
533,-0.166899,0.976579,-0.135769,-1.18329,1.170775,0.842724
534,-0.155858,0.977566,-0.1416599999999999,-0.215358,0.7663760000000001,0.626706
535,-0.125059,0.978811,-0.162122,0.352628,0.03068,0.33064
536,-0.087479,0.976056,-0.19914,-0.07309,-0.98515,0.907025
537,-0.0488279999999999,0.97218,-0.229076,-0.0583799999999999,-1.443891,0.983242
538,-0.0239729999999999,0.971608,-0.235366,-1.025053,-1.464223,0.21495
539,-0.036463,0.97445,-0.2216139999999999,-0.636281,-1.0738299999999998,-0.220387
540,-0.074448,0.973656,-0.2155119999999999,-0.169205,-1.050622,-0.329028
541,-0.1235849999999999,0.971641,-0.20158,0.141377,-0.966453,0.457866
542,-0.16532,0.971613,-0.169209,0.2097389999999999,-0.481089,0.822361
543,-0.195632,0.972756,-0.124372,0.24005,-0.482231,0.777525
544,-0.238238,0.970309,-0.041671,-0.06294,0.2782409999999999,-0.059296
545,-0.315225,0.948552,0.029594,-0.785804,1.789561,0.173592
546,-0.421087,0.902179,0.093556,-0.861978,3.138303,-0.145283
547,-0.4819729999999999,0.8612850000000001,0.160881,-0.469885,3.361387,0.0903549999999999
548,-0.512367,0.82883,0.224753,-0.040596,1.374768,0.4393399999999999
549,-0.554106,0.794912,0.24713,-0.268663,1.436182,0.6041880000000001
550,-0.599812,0.763814,0.238342,-0.580654,1.422755,-0.022811
551,-0.640742,0.7274579999999999,0.245454,0.230814,0.328466,-0.7321479999999999
552,-0.6662859999999999,0.6953,0.269468,0.7335470000000001,-0.547824,-0.871885
553,-0.6653819999999999,0.686345,0.293581,1.7523259999999998,-1.635335,-0.8494729999999999
554,-0.64379,0.7065020000000001,0.293908,1.333823,-2.157018,-0.512948
555,-0.609558,0.747959,0.26266,1.36885,-2.00539,-0.461513
556,-0.575503,0.789907,0.2117489999999999,1.442049,-1.485677,-0.42937
557,-0.543427,0.8220290000000001,0.170146,0.426133,-0.072853,-0.045116
558,-0.515046,0.8400219999999999,0.17054,0.050905,0.152165,0.291496
559,-0.513022,0.832326,0.2098469999999999,-0.755289,0.6026560000000001,0.802848
560,-0.555933,0.8056949999999999,0.204419,-0.072256,-0.492432,-0.34393
561,-0.6033430000000001,0.782945,0.151551,0.442302,-0.969484,-0.72049
562,-0.626898,0.7683399999999999,0.129019,2.565939,2.592301,1.189432
563,-0.589626,0.78754,0.179206,0.303905,2.108105,-1.2779459999999998
564,-0.575314,0.805467,0.142235,-0.316944,0.267013,-0.509559
565,-0.5374760000000001,0.837725,0.096596,0.2295989999999999,0.152113,-0.6904680000000001
566,-0.449104,0.893368,0.013859,0.227577,1.605045,-1.01984
567,-0.338936,0.939562,-0.048378,-0.182854,1.912443,-1.488487
568,-0.261839,0.960298,-0.096241,-1.4816,1.507536,2.977771
569,-0.2052469999999999,0.966189,-0.1560349999999999,-0.244689,1.073865,0.484893
570,-0.189339,0.969073,-0.158251,0.401955,0.981504,0.6862659999999999
571,-0.158851,0.972863,-0.168222,-0.374353,-0.247369,0.747903
572,-0.12155,0.97502,-0.185894,-0.486833,-0.987975,0.231869
573,-0.086454,0.975782,-0.200924,-0.330065,-1.5573709999999998,0.350597
574,-0.061148,0.975496,-0.211337,-1.132654,-1.483583,0.368182
575,-0.0653059999999999,0.975025,-0.2122659999999999,-0.662431,-0.99094,0.090501
576,-0.094377,0.972132,-0.2145889999999999,-0.21591,-0.928888,0.047704
577,-0.137177,0.969946,-0.200953,0.257859,-0.968436,0.298304
578,-0.172521,0.969726,-0.172809,0.175496,-0.799133,0.291598
579,-0.201713,0.970293,-0.1335609999999999,0.130104,-0.688921,0.214204
580,-0.2441,0.9668,-0.075545,0.063207,-0.073215,0.400984
581,-0.314246,0.948915,-0.028342,-0.794412,1.309996,0.1122349999999999
582,-0.411693,0.910278,0.04356,-0.320927,1.58722,-0.353039
583,-0.481232,0.869139,0.114042,0.094773,2.965852,0.634463
584,-0.514073,0.8398959999999999,0.174065,-0.190578,1.674982,0.5469890000000001
585,-0.560489,0.806611,0.187681,-0.398831,1.645217,0.432955
586,-0.606383,0.770629,0.196022,-0.7980510000000001,1.168473,-0.228264
587,-0.639927,0.732542,0.232096,0.46912,0.159456,-0.400401
588,-0.6649,0.6987949999999999,0.263793,0.805342,-0.087909,-0.693846
589,-0.675616,0.680063,0.284693,1.303317,-0.686761,-0.732355
590,-0.672891,0.682079,0.286319,1.1763549999999998,-1.962338,-0.437075
591,-0.650836,0.709595,0.269967,1.150531,-2.136886,-0.42051
592,-0.6187819999999999,0.750728,0.231323,1.276848,-2.031108,-0.645432
593,-0.5853109999999999,0.789665,0.183943,0.899429,-0.282462,-0.375975
594,-0.5578310000000001,0.811311,0.1749089999999999,0.314896,0.161102,-0.0366639999999999
595,-0.545588,0.805362,0.2317739999999999,-0.72463,0.8980530000000001,1.13134
596,-0.590535,0.763857,0.260355,-0.231731,0.150206,0.5312560000000001
597,-0.662991,0.71605,0.2184239999999999,1.021848,1.648498,-0.770029
598,-0.68535,0.697237,0.2101179999999999,1.454271,3.00752,0.148723
599,-0.6879609999999999,0.69963,0.192928,1.157459,-0.8617239999999999,-1.047679
600,-0.681783,0.7113149999999999,0.170868,0.773092,-0.981777,-1.187653
601,-0.620977,0.7736930000000001,0.125619,0.614187,0.603962,-0.8859030000000001
602,-0.512402,0.8569899999999999,0.05483,0.262951,1.821827,-0.985448
603,-0.4253229999999999,0.90499,-0.009413,-0.026154,1.169976,-0.5402239999999999
604,-0.340809,0.936835,-0.078641,-0.946789,1.244927,-0.332385
605,-0.255846,0.956206,-0.1421599999999999,-1.939848,2.3411880000000003,0.6124970000000001
606,-0.209165,0.96173,-0.176978,-1.734163,1.838288,0.7656470000000001
607,-0.191248,0.963147,-0.189124,0.666574,0.523913,0.75788
608,-0.161891,0.965231,-0.205223,0.433559,-0.253225,0.751472
609,-0.118872,0.964788,-0.234626,-0.099115,-0.7076319999999999,1.056099
610,-0.074883,0.966755,-0.2444869999999999,-1.13163,-1.709491,0.324046
611,-0.056375,0.971311,-0.231023,-1.238959,-1.620954,0.111715
612,-0.077119,0.97226,-0.2208119999999999,-0.7204119999999999,-1.28621,-0.16963
613,-0.121974,0.969216,-0.213864,0.286067,-0.948388,0.186475
614,-0.164513,0.967276,-0.193151,0.254616,-0.841651,0.507329
615,-0.195678,0.967288,-0.161428,0.1002649999999999,-0.7754850000000001,0.5082909999999999
616,-0.226658,0.968081,-0.106954,0.069401,-0.313601,-0.423151
617,-0.283957,0.957925,-0.041725,-0.305521,0.508826,0.06237
618,-0.371667,0.928284,0.012085,-0.514579,1.960647,-0.011581
619,-0.465396,0.882,0.073994,-0.100339,4.096744,0.141033
620,-0.49965,0.854564,0.141642,0.085587,2.001851,0.372686
621,-0.534027,0.822974,0.193703,-0.022888,1.385904,0.502037
622,-0.581685,0.788964,0.197913,-0.595622,1.349113,0.079538
623,-0.625792,0.7540819999999999,0.19934,-0.5372170000000001,1.087181,-0.302688
624,-0.6640659999999999,0.7124060000000001,0.226902,-0.119702,0.864849,-0.5817760000000001
625,-0.681529,0.684427,0.258976,1.421412,-1.156671,-0.485874
626,-0.676618,0.684645,0.270997,1.484143,-1.7231580000000002,-0.5650189999999999
627,-0.654434,0.7102539999999999,0.259319,1.226455,-1.914371,-0.637737
628,-0.622715,0.749761,0.223775,1.475635,-1.989263,-0.5917859999999999
629,-0.589529,0.787734,0.178666,0.811773,-0.561766,-0.288575
630,-0.554851,0.817463,0.154544,0.450161,-0.189182,-0.1557339999999999
631,-0.527706,0.828766,0.186178,-0.3483469999999999,0.4978329999999999,0.446817
632,-0.5462060000000001,0.811349,0.208233,-0.350263,0.224936,0.342015
633,-0.5986319999999999,0.778906,0.186909,0.2248219999999999,-0.061194,-0.1413299999999999
634,-0.6437579999999999,0.750836,0.14769,1.346516,2.029361,-0.866822
635,-0.6389239999999999,0.75402,0.152386,1.658302,1.092126,0.110035
636,-0.634357,0.7630020000000001,0.12414,0.883777,-0.51793,-0.707209
637,-0.611698,0.78355,0.108931,0.446399,-0.665203,-0.978103
638,-0.532956,0.8437979999999999,0.062885,0.256146,2.11218,-1.001224
639,-0.416678,0.909049,-0.000341,-0.005944,1.91169,-1.217707
640,-0.319432,0.946675,-0.04198,-1.044383,1.797145,-0.5771609999999999
641,-0.248701,0.95888,-0.136711,-1.992433,1.438153,1.502327
642,-0.211373,0.964309,-0.159448,-0.963325,1.508759,0.8800290000000001
643,-0.189104,0.967946,-0.165268,0.502795,0.8924049999999999,0.698196
644,-0.159558,0.971051,-0.177754,-0.0432009999999999,-0.560986,0.728337
645,-0.124219,0.971058,-0.203987,-0.115848,-1.052418,0.760826
646,-0.086989,0.971772,-0.219288,-0.438356,-1.629029,0.5880770000000001
647,-0.069327,0.973866,-0.216271,-1.102151,-1.459599,0.194679
648,-0.088322,0.974755,-0.205055,-0.616116,-1.116295,-0.157067
649,-0.130614,0.970163,-0.20425,0.419417,-1.020304,-0.0268899999999999
650,-0.180509,0.96506,-0.189923,0.42999,-0.921664,0.5738800000000001
651,-0.219451,0.962442,-0.159815,0.231185,-0.90397,0.718607
652,-0.250823,0.961108,-0.115552,-0.039751,-0.436511,0.092435
653,-0.294214,0.954995,-0.037632,0.387552,0.008735,-0.153943
654,-0.369685,0.928423,0.036835,0.088679,0.449324,-0.075928
655,-0.4750529999999999,0.87595,0.083835,-0.635512,3.899395,0.071972
656,-0.5354,0.833512,0.136373,-0.412934,2.6519470000000003,0.194178
657,-0.5661149999999999,0.803124,0.185738,-0.21454,1.558433,0.333092
658,-0.610766,0.76746,0.19484,-0.685041,1.236248,0.369827
659,-0.65375,0.732737,0.188942,-0.994077,1.067662,-0.272377
660,-0.686597,0.694767,0.214187,-0.543643,0.919339,-0.345093
661,-0.704856,0.664734,0.247584,1.174675,-0.803253,-0.8960670000000001
662,-0.698958,0.660346,0.274578,1.63809,-1.451499,-0.677013
663,-0.674776,0.684395,0.276174,1.560503,-1.7994,-0.604055
664,-0.637035,0.727689,0.25426,1.363429,-1.756391,-0.5057699999999999
665,-0.5974510000000001,0.772285,0.215919,1.367517,-1.5982120000000002,-0.399971
666,-0.561144,0.809054,0.174764,0.81682,-0.67319,-0.3200119999999999
667,-0.530324,0.831931,0.163216,-0.099513,0.489037,0.444954
668,-0.517606,0.8313010000000001,0.202522,-0.334094,0.645918,0.760185
669,-0.5500079999999999,0.804404,0.224539,-0.34579,0.6198670000000001,0.729395
670,-0.610015,0.7710600000000001,0.182596,0.280333,-0.90584,-0.738901
671,-0.653193,0.747173,0.122742,2.22877,0.704091,-0.972946
672,-0.623186,0.765896,0.158227,2.310457,2.360844,1.421409
673,-0.614398,0.7801239999999999,0.1179619999999999,-0.002667,0.269635,-0.064373
674,-0.5923970000000001,0.800301,0.092609,0.321309,-0.209832,-0.4745359999999999
675,-0.525126,0.849458,0.051539,0.340129,0.374465,-0.391001
676,-0.427548,0.903955,-0.007825,0.116543,1.555441,-1.163989
677,-0.333627,0.94193,-0.038139,-0.758201,1.7544810000000002,-0.749306
678,-0.256211,0.957215,-0.134494,-1.93161,1.842498,0.952838
679,-0.208405,0.960176,-0.186074,-1.024459,1.048094,0.942086
680,-0.185205,0.960734,-0.2065989999999999,0.419,0.704259,0.748942
681,-0.149222,0.963337,-0.222955,-0.1806579999999999,0.322628,0.623254
682,-0.109029,0.960126,-0.257421,-0.150294,-0.8969389999999999,0.8972829999999999
683,-0.069351,0.95644,-0.283561,-0.353073,-1.567189,0.8192969999999999
684,-0.051637,0.956863,-0.285904,-1.21327,-1.732941,0.236954
685,-0.071462,0.9583,-0.276674,-0.626993,-1.117251,-0.176375
686,-0.118315,0.954732,-0.272916,0.075194,-1.13799,-0.049075
687,-0.170212,0.951617,-0.255826,0.3195949999999999,-0.807635,0.5825020000000001
688,-0.209946,0.952121,-0.2222219999999999,0.20131,-0.457675,-0.059699
689,-0.239891,0.959281,-0.149082,0.045387,0.042962,0.255557
690,-0.296506,0.950493,-0.092956,-0.611742,0.667183,0.304946
691,-0.387666,0.92128,-0.030822,-0.155089,2.61029,-0.355454
692,-0.466784,0.882174,0.062241,0.213824,3.192488,0.260619
693,-0.5016149999999999,0.852081,0.1494349999999999,0.162214,2.464661,0.385355
694,-0.543671,0.81497,0.20059,-0.578704,1.485751,0.448611
695,-0.588255,0.778346,0.2193679999999999,-0.6652239999999999,1.161671,-0.226234
696,-0.62242,0.744008,0.242969,-0.375352,1.035777,-0.310734
697,-0.64956,0.710056,0.271811,0.647942,-0.3658639999999999,-0.523077
698,-0.6617569999999999,0.687701,0.298554,1.3702379999999998,-1.403949,-0.807389
699,-0.65454,0.689846,0.30932,1.516585,-1.803447,-0.7754300000000001
700,-0.63747,0.7167180000000001,0.28273,1.360645,-1.942701,-0.674743
701,-0.617854,0.7518560000000001,0.230126,1.714,-1.725016,-0.633279
702,-0.59577,0.784281,0.173063,1.702017,-1.514704,-0.425519
703,-0.567876,0.812038,0.134536,0.401616,-0.101757,-0.123672
704,-0.538449,0.82678,0.1627819999999999,-0.462696,0.59772,0.930724
705,-0.54542,0.8146100000000001,0.197274,-0.949971,0.908611,0.897682
706,-0.596564,0.7818149999999999,0.181289,0.127662,0.82463,-0.388839
707,-0.646471,0.748007,0.150168,1.377153,2.197,0.53103
708,-0.6494939999999999,0.744338,0.155269,2.345966,0.2129989999999999,0.0557909999999999
709,-0.645392,0.753502,0.125279,1.207892,-0.515419,-1.126973
710,-0.6034069999999999,0.791768,0.094834,0.82115,0.485362,-1.1711120000000002
711,-0.47951,0.8754139999999999,0.060924,0.4456199999999999,1.546309,-1.005871
712,-0.339042,0.940671,0.0134259999999999,-0.394082,1.80318,-0.916746
713,-0.239038,0.969255,-0.0582909999999999,-1.67356,2.161788,0.0141319999999999
714,-0.183145,0.966075,-0.182068,-2.21456,1.682027,0.8402709999999999
715,-0.15509,0.968379,-0.195401,-0.446289,0.968663,0.927578
716,-0.139908,0.970405,-0.1968089999999999,0.158325,-0.043097,0.261811
717,-0.1161099999999999,0.970342,-0.212008,0.198035,-0.6116229999999999,0.481646
718,-0.079677,0.967327,-0.2406739999999999,0.0373029999999999,-1.348735,0.7754489999999999
719,-0.04346,0.965641,-0.256206,-1.249386,-1.18404,0.368129
720,-0.033188,0.967697,-0.249907,-1.2619479999999998,-1.133133,0.297117
721,-0.054621,0.969493,-0.23894,-0.332251,-1.083949,-0.253308
722,-0.0949049999999999,0.968417,-0.230553,0.420452,-1.099414,0.2046589999999999
723,-0.13748,0.968547,-0.2073849999999999,0.40454,-1.024486,0.370043
724,-0.171068,0.969807,-0.173789,0.065736,-0.971821,0.586905
725,-0.203563,0.971672,-0.120038,0.032344,-0.1921759999999999,0.107541
726,-0.265916,0.962099,-0.0603929999999999,-0.492172,0.299254,0.215575
727,-0.366874,0.930232,-0.008046,-0.8453450000000001,2.075597,-0.1206769999999999
728,-0.470631,0.8799950000000001,0.064079,-0.155544,4.227015,0.038872
729,-0.496903,0.855751,0.14411,0.340547,2.208198,0.20292
730,-0.524828,0.82571,0.206758,-0.012388,1.318547,0.640563
731,-0.568466,0.793473,0.2173409999999999,-0.536316,1.351028,-0.1194559999999999
732,-0.603863,0.765705,0.22144,-0.470172,1.05061,-0.261402
733,-0.632134,0.7359140000000001,0.242544,0.199288,0.2134579999999999,-0.415716
734,-0.644492,0.716588,0.266688,1.222388,-1.127583,-0.692484
735,-0.638008,0.7178899999999999,0.278513,1.395104,-1.4716129999999998,-0.601572
736,-0.617603,0.74244,0.259499,1.17551,-1.968164,-0.5289550000000001
737,-0.5882430000000001,0.780467,0.2117349999999999,1.438295,-1.79774,-0.566578
738,-0.5563819999999999,0.81603,0.156611,1.401536,-1.55074,-0.496546
739,-0.527667,0.839471,0.129802,0.40726,-0.071099,-0.052577
740,-0.5091220000000001,0.846463,0.155843,-0.380465,0.307041,0.772914
741,-0.521648,0.828226,0.204734,-0.849507,0.679052,1.0251549999999998
742,-0.575394,0.792507,0.202104,-0.064621,-0.197155,-0.393022
743,-0.631089,0.759124,0.159527,1.02852,2.833863,-0.597241
744,-0.627508,0.756391,0.184656,1.966176,3.039874,0.6884060000000001
745,-0.625119,0.760537,0.175501,1.246152,-0.800942,-0.80575
746,-0.612499,0.776027,0.150388,0.8204309999999999,-0.9324,-1.113401
747,-0.540848,0.8326370000000001,0.119118,0.5589609999999999,0.6239819999999999,-1.085838
748,-0.423234,0.904349,0.054934,-0.03688,1.738778,-0.935488
749,-0.309637,0.95045,-0.027597,-1.19877,1.844243,-0.351889
750,-0.2252989999999999,0.966487,-0.123026,-1.963117,1.936787,0.414133
751,-0.1880609999999999,0.969302,-0.158364,-1.2765540000000002,1.227399,0.7801899999999999
752,-0.170397,0.968159,-0.183374,0.658679,0.800411,0.7549680000000001
753,-0.1386079999999999,0.971453,-0.1925069999999999,0.725995,0.73422,0.664339
754,-0.100986,0.970127,-0.2205639999999999,-0.014233,-0.730884,0.751784
755,-0.060461,0.968321,-0.2422619999999999,-0.5580689999999999,-1.4589370000000002,0.7223649999999999
756,-0.034023,0.970382,-0.239155,-1.205402,-1.601333,0.231434
757,-0.042218,0.975044,-0.217946,-0.572605,-1.312858,-0.216105
758,-0.075766,0.975724,-0.2054659999999999,0.1035069999999999,-1.293427,-0.136819
759,-0.1189539999999999,0.97371,-0.194248,0.274579,-1.221024,0.0167569999999999
760,-0.160456,0.972024,-0.171511,-0.047841,-0.7148680000000001,0.7006399999999999
761,-0.195156,0.971203,-0.136644,-0.121845,-0.367504,-0.041807
762,-0.2320239999999999,0.970619,-0.063686,0.05551,-0.261802,-0.655262
763,-0.299634,0.953796,0.022005,-0.750537,1.65802,0.263151
764,-0.406452,0.910751,0.072943,-0.673657,2.887421,0.17486
765,-0.488583,0.863711,0.123615,0.033703,4.433072,0.161022
766,-0.516219,0.835307,0.189132,0.191451,1.544484,0.3518219999999999
767,-0.556716,0.800998,0.2201389999999999,-0.473695,1.058591,0.2117
768,-0.602292,0.7699630000000001,0.210693,-0.589953,0.915202,-0.196212
769,-0.637551,0.739516,0.215952,-0.2443,0.4715899999999999,-0.4252109999999999
770,-0.6558039999999999,0.71631,0.238353,1.131802,-0.8372209999999999,-0.571803
771,-0.655274,0.7092970000000001,0.259819,1.391587,-1.355567,-0.476204
772,-0.6375430000000001,0.72792,0.252316,1.28122,-2.087401,-0.5075649999999999
773,-0.603874,0.766018,0.220329,1.422309,-2.148861,-0.642235
774,-0.5641729999999999,0.806771,0.175561,1.437861,-1.812325,-0.566567
775,-0.529605,0.834959,0.149521,0.793612,-0.497205,-0.353027
776,-0.507352,0.8438110000000001,0.174841,-0.456164,0.511551,0.660547
777,-0.524768,0.8252010000000001,0.208942,-0.852384,0.769129,0.722592
778,-0.5796359999999999,0.78925,0.202734,-0.4496,0.163646,0.001566
779,-0.631337,0.7613800000000001,0.147339,1.580967,1.238619,-1.208847
780,-0.620106,0.766152,0.168745,1.981831,3.142875,1.417986
781,-0.6072029999999999,0.776319,0.169198,0.645274,-0.243329,-0.430108
782,-0.601151,0.786481,0.141631,0.254776,-0.8505229999999999,-1.144012
783,-0.560872,0.8212950000000001,0.104364,0.388845,-0.5128229999999999,-0.786691
784,-0.46863,0.8826379999999999,0.036485,0.0539269999999999,1.998908,-1.196931
785,-0.356095,0.934177,-0.022486,-0.372238,1.887555,-1.255377
786,-0.262006,0.959344,-0.104918,-0.927966,1.958228,-0.630083
787,-0.210783,0.965098,-0.15541,-1.294619,0.970128,0.531645
788,-0.197845,0.964306,-0.175976,-0.579774,0.950153,0.8146479999999999
789,-0.171626,0.967169,-0.187418,0.8802129999999999,0.743677,0.740046
790,-0.136855,0.967923,-0.210692,0.132186,-0.595655,0.5930770000000001
791,-0.097707,0.966091,-0.238992,-0.136439,-1.399578,0.923867
792,-0.064765,0.966228,-0.249409,-0.690896,-1.600154,0.7864270000000001
793,-0.063296,0.969728,-0.235833,-1.023619,-1.40413,-0.076194
794,-0.094648,0.969078,-0.227872,-0.0333269999999999,-1.226219,-0.233798
795,-0.143143,0.96527,-0.21854,0.2292949999999999,-1.165129,0.15395
796,-0.188204,0.963499,-0.190379,0.4499069999999999,-0.671491,0.6888529999999999
797,-0.219629,0.964864,-0.144205,0.132471,-0.513509,-0.326361
798,-0.261687,0.963048,-0.063663,0.266951,-0.266667,-0.274136
799,-0.342462,0.939451,-0.012029,-0.755393,1.947496,0.426351
800,-0.448946,0.8925190000000001,0.043018,-0.089888,3.367277,-0.1811859999999999
801,-0.499202,0.858253,0.119128,0.236614,3.195123,0.013654
802,-0.5304,0.828468,0.179743,-0.409739,1.337166,0.704321
803,-0.574332,0.794787,0.196079,-0.61628,1.429609,0.774395
804,-0.615604,0.7623840000000001,0.199483,-0.892849,1.521994,0.074824
805,-0.647148,0.7279939999999999,0.226309,0.252983,0.459231,-0.347906
806,-0.665456,0.700963,0.256533,0.965902,-0.508245,-0.6371939999999999
807,-0.663195,0.693832,0.280642,1.344867,-1.1901389999999998,-0.6716949999999999
808,-0.64435,0.709886,0.284368,1.166856,-1.831941,-0.556631
809,-0.613017,0.7449180000000001,0.263244,1.160487,-1.912368,-0.548385
810,-0.57876,0.786816,0.214354,1.389735,-1.658078,-0.5868359999999999
811,-0.547876,0.8205629999999999,0.162786,0.810998,-0.350043,-0.319417
812,-0.523366,0.8382149999999999,0.153214,0.4104359999999999,0.0989029999999999,-0.002076
813,-0.51555,0.831699,0.206098,-0.416579,0.702801,1.119113
814,-0.558467,0.796533,0.231602,-0.3659409999999999,-0.2736,-0.147312
815,-0.626204,0.758364,0.180953,0.4120319999999999,-0.125139,-0.469527
816,-0.651315,0.742727,0.155361,1.3117,2.841654,0.022511
817,-0.6464770000000001,0.748104,0.149663,1.334313,-0.3084989999999999,0.087627
818,-0.6416229999999999,0.75412,0.1400539999999999,0.452627,-1.140534,-1.132562
819,-0.607575,0.7832439999999999,0.131803,0.334855,-0.801006,-0.922102
820,-0.516267,0.85239,0.0830159999999999,0.08664,1.532956,-0.4825819999999999
821,-0.39939,0.916661,0.0145479999999999,-0.36564,2.392482,-1.332984
822,-0.310778,0.948918,-0.0544549999999999,-0.970701,1.412777,-0.169865
823,-0.252418,0.959581,-0.1244339999999999,-1.2581719999999998,1.103514,0.636793
824,-0.223159,0.962063,-0.156937,0.54042,1.4803959999999998,0.8378909999999999
825,-0.1832369999999999,0.967827,-0.17242,0.671,1.046959,0.766353
826,-0.142668,0.971505,-0.189255,-0.371812,-0.293175,0.598801
827,-0.104252,0.970705,-0.216463,-0.339138,-1.216601,0.627657
828,-0.067467,0.968479,-0.239773,-0.561836,-1.576099,0.785503
829,-0.053397,0.969527,-0.239081,-1.257257,-1.458419,0.244894
830,-0.079109,0.971478,-0.22353,-0.16288,-1.105237,-0.5042220000000001
831,-0.123402,0.9676,-0.220261,0.166203,-1.101145,-0.355346
832,-0.1674759999999999,0.964635,-0.20353,0.536708,-0.647496,0.727715
833,-0.200507,0.964285,-0.173043,0.389777,-0.569327,0.90519
834,-0.220776,0.969378,-0.1075069999999999,0.192379,-0.421038,-0.314291
835,-0.2753,0.960874,-0.030382,-0.51445,0.7144189999999999,0.041871
836,-0.375388,0.926639,0.0203889999999999,-0.566842,2.164548,-0.2368199999999999
837,-0.475359,0.8756430000000001,0.0852909999999999,-0.148283,3.067076,-0.255641
838,-0.515097,0.844706,0.145391,0.073522,1.4555870000000002,0.328898
839,-0.553462,0.811239,0.188578,-0.3997699999999999,1.169612,0.5266930000000001
840,-0.6007899999999999,0.774211,0.199094,-0.612223,1.413823,0.393801
841,-0.635779,0.741059,0.215884,-0.507012,0.985152,-0.796908
842,-0.656432,0.707873,0.260771,0.397063,0.236249,-0.327986
843,-0.673424,0.682832,0.283249,0.652779,-0.120714,-0.514145
844,-0.671528,0.676409,0.302506,1.508397,-1.293811,-0.652817
845,-0.653513,0.693367,0.303568,1.249048,-1.697716,-0.504343
846,-0.627221,0.728267,0.276062,1.251366,-1.762722,-0.385788
847,-0.601075,0.769659,0.215232,1.268296,-1.039831,-0.5299590000000001
848,-0.5721579999999999,0.805713,0.153143,0.604445,-0.094501,-0.224966
849,-0.542968,0.8265610000000001,0.148232,0.216842,0.230827,0.174796
850,-0.5405909999999999,0.818462,0.194607,-0.620404,0.373723,0.500599
851,-0.589344,0.786237,0.185729,0.088367,-0.6793640000000001,-0.558822
852,-0.63873,0.759798,0.12133,0.948575,-0.546938,-0.22776
853,-0.642491,0.758317,0.1102359999999999,1.775837,2.424407,0.692056
854,-0.604761,0.789636,0.103589,1.4718719999999998,2.965521,0.072589
855,-0.597165,0.79911,0.069353,0.355085,-0.625251,-0.862764
856,-0.5746319999999999,0.816824,0.05088,0.226564,-0.933966,-0.44593
857,-0.4987649999999999,0.8666719999999999,-0.010283,0.282532,1.204083,-0.408738
858,-0.36787,0.927724,-0.063189,-0.092945,2.222682,-1.12277
859,-0.269921,0.958751,-0.089064,-1.296409,2.033467,-0.1524829999999999
860,-0.222069,0.95613,-0.1910349999999999,-1.733451,1.223191,0.396525
861,-0.185295,0.956722,-0.224371,-0.526848,1.567707,1.250799
862,-0.163423,0.960182,-0.22658,0.719789,0.855874,0.545259
863,-0.124814,0.962098,-0.242455,0.0566679999999999,-0.695954,0.640359
864,-0.079923,0.960146,-0.267819,-0.019686,-1.122881,0.646695
865,-0.04127,0.959304,-0.279335,-1.138097,-1.62326,0.2816079999999999
866,-0.0337839999999999,0.96224,-0.2700889999999999,-1.161757,-1.611166,0.220025
867,-0.06318,0.964247,-0.257356,-0.4388039999999999,-1.272474,-0.263457
868,-0.109366,0.96174,-0.251177,0.230948,-1.021219,0.0892049999999999
869,-0.156184,0.960923,-0.228537,0.367838,-0.710327,0.917746
870,-0.19136,0.963459,-0.187411,0.219162,-0.712284,0.87131
871,-0.229305,0.967561,-0.1060069999999999,0.154857,-0.184725,-0.2155099999999999
872,-0.296348,0.954921,-0.017221,-0.622247,1.052281,0.587458
873,-0.406551,0.912816,0.038421,-0.712498,2.175289,0.506578
874,-0.503052,0.8570450000000001,0.111371,-0.016967,4.539607,-0.051999
875,-0.5274409999999999,0.8315170000000001,0.174288,0.408346,2.374995,0.490141
876,-0.570814,0.7974760000000001,0.195434,-0.309038,1.099909,0.74498
877,-0.623592,0.755786,0.199777,-1.209446,1.02081,-0.4475949999999999
878,-0.6591600000000001,0.71624,0.229128,-0.17249,0.547905,-0.553149
879,-0.678999,0.685759,0.262079,0.2317179999999999,0.126497,-0.625696
880,-0.680497,0.6718970000000001,0.2923489999999999,1.628724,-1.092979,-0.560675
881,-0.671284,0.6818609999999999,0.290573,1.509724,-2.096594,-0.55957
882,-0.648947,0.717084,0.254256,1.411185,-2.100202,-0.490188
883,-0.618304,0.758605,0.205445,1.5099209999999998,-1.601485,-0.499482
884,-0.586609,0.794801,0.15547,1.012894,-0.8034220000000001,-0.276061
885,-0.555134,0.8212799999999999,0.1315839999999999,0.206013,-0.001563,0.044991
886,-0.532225,0.828463,0.174283,-0.60306,0.647321,0.918505
887,-0.557772,0.8069109999999999,0.194356,-0.94914,0.483937,0.050044
888,-0.612995,0.774075,0.158219,-0.114788,0.0815309999999999,-0.4518439999999999
889,-0.642713,0.754324,0.133804,1.4765,1.986994,0.947678
890,-0.633568,0.7599670000000001,0.145018,0.93911,-0.7121609999999999,-0.356856
891,-0.622259,0.771207,0.134245,0.433507,-0.8697030000000001,-0.971678
892,-0.5836600000000001,0.802471,0.123974,-0.084462,-0.113674,-0.965832
893,-0.4888439999999999,0.869192,0.074325,0.313978,2.284418,-0.654968
894,-0.377592,0.925742,0.020337,0.445051,2.077386,-1.000134
895,-0.286011,0.957414,-0.039314,-0.758346,1.483886,-0.007668
896,-0.222632,0.967072,-0.1232809999999999,-1.656457,2.11795,1.014471
897,-0.188905,0.970518,-0.149669,-0.490492,1.158709,0.8506879999999999
898,-0.15672,0.972864,-0.17019,0.279645,0.541098,0.6256189999999999
899,-0.117819,0.974634,-0.1902579999999999,-0.011987,-0.5994970000000001,0.498531
900,-0.076569,0.973124,-0.217159,0.0236819999999999,-0.997721,0.618297
901,-0.0338339999999999,0.971342,-0.2352469999999999,-0.596598,-1.473631,0.630541
902,-0.013815,0.97231,-0.233267,-1.016138,-1.294469,0.155356
903,-0.029247,0.974141,-0.2240219999999999,-0.604634,-1.201832,-0.220329
904,-0.066091,0.972695,-0.222458,0.12145,-1.173195,-0.019486
905,-0.106136,0.972406,-0.207732,0.239482,-0.8796780000000001,0.576354
906,-0.140252,0.974985,-0.172403,0.025338,-0.858469,0.603815
907,-0.175584,0.978921,-0.104275,-0.084579,-0.266885,0.137676
908,-0.2317429999999999,0.971846,-0.042394,-0.845665,1.444841,0.581044
909,-0.33278,0.942949,0.009581,-0.561308,2.321425,0.105272
910,-0.426092,0.900439,0.087408,0.443503,3.638806,-0.11022
911,-0.450622,0.8793280000000001,0.153973,0.49765,1.727499,0.158924
912,-0.482851,0.8525510000000001,0.199994,-0.193434,1.24422,0.640201
913,-0.529695,0.8220870000000001,0.2087619999999999,-0.8947129999999999,1.499294,0.207955
914,-0.572963,0.790127,0.217709,-0.562947,0.829227,-0.5394100000000001
915,-0.6078210000000001,0.755748,0.243686,0.105379,0.356694,-0.499134
916,-0.6266390000000001,0.731488,0.268762,1.326987,-1.241513,-0.466058
917,-0.622237,0.7307140000000001,0.2808239999999999,1.348586,-1.885149,-0.486589
918,-0.60158,0.752438,0.268186,1.139299,-1.960797,-0.4979989999999999
919,-0.5728840000000001,0.786632,0.230215,1.424339,-1.807338,-0.784537
920,-0.545875,0.818142,0.180695,1.300178,-0.997967,-0.493058
921,-0.519767,0.8406440000000001,0.152143,0.903006,-0.5267850000000001,-0.267941
922,-0.498278,0.847931,0.180884,-0.192243,0.327881,0.542443
923,-0.512019,0.832766,0.210529,-0.692052,0.698179,0.742992
924,-0.572038,0.795728,0.198938,-0.3699179999999999,1.56557,0.804053
925,-0.638542,0.749283,0.175575,1.363868,0.586609,-1.026527
926,-0.662579,0.7295520000000001,0.169496,2.495617,-1.533935,0.480605
927,-0.660614,0.7325550000000001,0.164128,1.938187,-1.55862,-0.6529739999999999
928,-0.614739,0.774217,0.150562,0.707284,0.316313,-0.937855
929,-0.482152,0.868841,0.1123869999999999,0.441259,2.342066,-1.274619
930,-0.324078,0.942655,0.0797549999999999,0.033017,2.116625,-0.975553
931,-0.214644,0.976659,-0.007278,-1.703569,1.985636,0.080154
932,-0.16355,0.980058,-0.112818,-1.841027,1.636718,0.837275
933,-0.141789,0.978446,-0.150095,-1.431804,1.516411,1.2130530000000002
934,-0.1151339999999999,0.979289,-0.166516,0.525397,0.8363079999999999,0.5845
935,-0.0778539999999999,0.979607,-0.185204,0.032306,-0.758308,0.640587
936,-0.028873,0.977701,-0.207985,-0.331051,-1.192652,0.793846
937,0.015064,0.976679,-0.2141559999999999,-1.296726,-1.4549040000000002,0.458007
938,0.02708,0.978975,-0.202153,-0.7259479999999999,-1.337541,-0.269603
939,0.005254,0.980756,-0.195142,-0.174337,-1.145337,-0.308932
940,-0.031677,0.980961,-0.191581,0.27533,-1.032734,0.106864
941,-0.070046,0.982272,-0.1738559999999999,0.061211,-1.107714,0.361326
942,-0.107981,0.986187,-0.1255599999999999,-0.100362,-0.701244,-0.598073
943,-0.163769,0.982956,-0.083472,-0.669605,-0.3638,0.038702
944,-0.252195,0.966695,-0.04344,-0.538851,2.109645,0.367582
945,-0.346858,0.937784,0.015433,0.449061,2.467428,-0.284445
946,-0.3955639999999999,0.914014,0.0899669999999999,0.7259939999999999,1.7913689999999998,0.1166069999999999
947,-0.4226479999999999,0.892893,0.155231,0.675837,1.561209,0.1761599999999999
948,-0.46168,0.867967,0.182952,-0.542211,1.6420740000000005,0.496781
949,-0.509983,0.83944,0.1877349999999999,-0.761105,1.114998,0.02781
950,-0.544451,0.8109109999999999,0.214435,-0.203291,0.566317,-0.419971
951,-0.57458,0.7809510000000001,0.244862,0.437617,0.108972,-0.272588
952,-0.591312,0.760901,0.267144,1.071231,-0.91419,-0.558434
953,-0.589072,0.758835,0.277753,0.993903,-1.540009,-0.479261
954,-0.575342,0.77332,0.266352,0.977487,-1.91956,-0.571924
955,-0.559484,0.79761,0.225348,1.223439,-2.053653,-0.7818970000000001
956,-0.545365,0.820858,0.169577,1.433289,-1.4445,-0.64556
957,-0.532147,0.832522,0.153992,0.4707,0.0603919999999999,-0.098649
958,-0.540506,0.81877,0.1935339999999999,-0.768912,1.0656450000000002,1.498498
959,-0.602125,0.77505,0.191651,-0.903078,2.114355,1.189193
960,-0.661607,0.731417,0.165204,0.3910079999999999,1.551282,-1.070065
961,-0.672603,0.721096,0.166171,2.371944,-0.8849450000000001,-0.1898369999999999
962,-0.65498,0.7408899999999999,0.14856,1.728619,-0.758011,-0.8094640000000001
963,-0.585991,0.8003779999999999,0.126479,1.266366,0.3558409999999999,-1.274916
964,-0.459374,0.882719,0.098853,0.575966,1.578188,-1.3518290000000002
965,-0.333827,0.941746,0.040779,0.023402,1.501903,-0.7966840000000001
966,-0.221636,0.971892,-0.079337,-0.700468,1.76703,0.0294709999999999
967,-0.154578,0.971175,-0.181429,-2.197809,1.74701,1.196658
968,-0.1333869999999999,0.973425,-0.186131,-1.372716,0.987955,0.8683360000000001
969,-0.1044079999999999,0.974406,-0.19906,0.582878,0.281652,0.511941
970,-0.068088,0.973832,-0.2168119999999999,0.1816289999999999,-0.333268,0.528442
971,-0.02576,0.968514,-0.247609,-0.168698,-1.315621,0.935368
972,0.01052,0.965669,-0.259548,-0.713217,-1.436357,0.850353
973,0.0152319999999999,0.968415,-0.2488639999999999,-1.186481,-1.378861,-0.0067659999999999
974,-0.0158449999999999,0.970909,-0.238907,-0.2298369999999999,-1.20945,-0.359741
975,-0.064449,0.969545,-0.236265,0.099406,-1.251955,0.066023
976,-0.111189,0.971339,-0.210073,0.306639,-0.899241,0.601171
977,-0.147554,0.974937,-0.166488,0.135408,-0.835166,0.509963
978,-0.187465,0.976913,-0.102419,0.0555679999999999,-0.17218,-0.322035
979,-0.249984,0.967424,-0.039882,-0.572785,0.8551770000000001,0.284709
980,-0.350518,0.93626,0.023352,-0.341544,2.124623,-0.09194
981,-0.447937,0.889202,0.093079,-0.1491549999999999,3.192173,-0.057847
982,-0.478191,0.8631790000000001,0.162004,-0.016835,1.612331,0.228331
983,-0.5136729999999999,0.831808,0.2102969999999999,-0.247604,1.2687469999999998,0.608245
984,-0.561855,0.798034,0.21783,-0.661458,1.539002,0.426213
985,-0.600341,0.7645350000000001,0.234659,-0.46431,1.201407,-0.47857
986,-0.631416,0.726534,0.271018,0.522209,0.267439,-0.8588620000000001
987,-0.642364,0.701817,0.3079119999999999,1.572143,-1.046162,-0.748891
988,-0.636968,0.704491,0.312974,1.620885,-1.859901,-0.543656
989,-0.616646,0.732412,0.288632,1.401787,-2.033117,-0.512204
990,-0.590354,0.770357,0.240875,1.53028,-1.857744,-0.520569
991,-0.565515,0.804614,0.181047,0.6029909999999999,-0.619479,-0.34453
992,-0.5357609999999999,0.831045,0.149373,0.237238,-0.237555,-0.155614
993,-0.516353,0.837491,0.178822,-0.50008,0.346667,0.482677
994,-0.54338,0.8171189999999999,0.192468,-0.832749,0.446446,0.477149
995,-0.602503,0.778651,0.175164,0.253748,1.869344,-0.512811
996,-0.640054,0.747509,0.177622,1.100275,2.482746,0.4574029999999999
997,-0.654058,0.737316,0.169004,1.924321,-1.130672,0.069475
998,-0.6472180000000001,0.747909,0.147415,1.422333,-1.0786129999999998,-0.788116
999,-0.587395,0.8000229999999999,0.12215,1.068596,0.008541,-1.523166
1000,-0.461417,0.884164,0.0730659999999999,0.35723,2.163856,-1.084083
1001,-0.3230889999999999,0.946344,0.006082,-0.2301639999999999,1.939703,-0.6708930000000001
1002,-0.21836,0.971011,-0.097203,-1.853051,2.5146,0.339726
1003,-0.160965,0.976065,-0.146217,-1.941635,1.50033,0.7401810000000001
1004,-0.146096,0.976746,-0.156893,-1.360862,1.0734860000000002,0.8737959999999999
1005,-0.128939,0.978941,-0.158246,0.461901,0.448,0.5972569999999999
1006,-0.098448,0.979542,-0.175491,0.502501,-0.770131,0.429672
1007,-0.0557029999999999,0.977443,-0.203701,0.11596,-1.129497,0.6198239999999999
1008,-0.0166599999999999,0.975624,-0.218796,-0.722735,-1.404747,0.888489
1009,-0.002977,0.977205,-0.212258,-1.051177,-1.327379,0.030129
1010,-0.0267089999999999,0.979593,-0.199186,-0.518518,-1.327677,-0.4264699999999999
1011,-0.066162,0.978678,-0.194434,0.326477,-1.206552,-0.195489
1012,-0.105342,0.978981,-0.174619,0.275019,-0.925743,0.595593
1013,-0.138507,0.982059,-0.127933,0.029162,-0.793186,0.037646
1014,-0.187794,0.979811,-0.068525,-0.075695,-0.461912,0.002012
1015,-0.267463,0.963114,-0.029438,-0.7856069999999999,1.993811,0.469196
1016,-0.366825,0.929555,0.03683,-0.257519,2.173945,-0.3561809999999999
1017,-0.4229699999999999,0.898127,0.120223,0.534619,2.747564,-0.080351
1018,-0.451129,0.871942,0.1902329999999999,0.236956,1.928061,0.633772
1019,-0.4987189999999999,0.8400540000000001,0.21349,-0.6888270000000001,1.768986,0.366451
1020,-0.550323,0.809083,0.206196,-0.552612,1.013381,-0.08672
1021,-0.585762,0.7807109999999999,0.217627,-0.003624,0.3891949999999999,-0.375907
1022,-0.612191,0.7525189999999999,0.242745,0.334023,-0.216234,-0.515206
1023,-0.619686,0.738133,0.266715,1.367046,-1.304539,-0.6295229999999999
1024,-0.609644,0.745257,0.270027,1.299219,-2.0919060000000003,-0.5649489999999999
1025,-0.58225,0.7749050000000001,0.245955,1.2783870000000002,-2.18204,-0.574462
1026,-0.543338,0.816294,0.196051,1.424243,-1.91633,-0.68093
1027,-0.5022449999999999,0.851583,0.150149,0.684099,-0.3190969999999999,-0.412997
1028,-0.470558,0.8693360000000001,0.151061,0.321769,0.076206,0.00499
1029,-0.4639689999999999,0.86365,0.197051,-0.62589,0.608869,1.184404
1030,-0.5130060000000001,0.833751,0.2041349999999999,-0.7832279999999999,0.521839,0.392575
1031,-0.577704,0.798586,0.168841,0.408346,-0.096742,-0.532916
1032,-0.607338,0.777926,0.161119,1.550361,2.729917,-0.226793
1033,-0.60093,0.781971,0.165508,1.420296,-0.343327,-0.4796399999999999
1034,-0.599673,0.788277,0.137842,1.014575,-0.846809,-0.888956
1035,-0.578771,0.807921,0.110801,0.739079,-0.394713,-0.74897
1036,-0.494541,0.8664440000000001,0.068497,0.441685,1.54655,-0.604172
1037,-0.36263,0.931799,0.0154389999999999,0.278371,2.013101,-1.071866
1038,-0.251224,0.967316,-0.034287,-0.911969,2.142669,-0.404647
1039,-0.18528,0.973204,-0.136148,-2.027046,1.590608,1.3621
1040,-0.149608,0.975251,-0.162767,-1.264759,1.022933,0.656191
1041,-0.130504,0.974924,-0.18023,0.260936,0.468664,0.617974
1042,-0.09749,0.976419,-0.192595,0.158296,0.179175,0.410063
1043,-0.058862,0.973201,-0.2222739999999999,0.197351,-0.811809,0.641616
1044,-0.016357,0.968406,-0.248826,-0.325349,-1.372397,0.964341
1045,0.008859,0.96772,-0.251854,-1.254434,-1.31089,0.332863
1046,-0.000728,0.972264,-0.233866,-1.000249,-1.335301,-0.09992
1047,-0.038244,0.973736,-0.224426,-0.00854,-1.123348,0.141479
1048,-0.082885,0.974232,-0.209745,0.334152,-0.794545,0.6331
1049,-0.119825,0.978037,-0.170521,0.339048,-0.755991,0.231816
1050,-0.162624,0.981402,-0.101953,-0.532459,-0.0415209999999999,0.04403
1051,-0.232647,0.970898,-0.056764,-0.725254,1.864826,0.676682
1052,-0.326935,0.944851,0.018951,-0.183075,1.820545,-0.329864
1053,-0.409892,0.905943,0.106038,0.355387,2.766511,-0.126073
1054,-0.453704,0.873297,0.1774609999999999,-0.094407,2.062891,0.441939
1055,-0.503843,0.8383959999999999,0.207896,-0.539247,1.807295,0.4640859999999999
1056,-0.56109,0.798905,0.216602,-0.943732,1.689315,0.273571
1057,-0.604839,0.7597229999999999,0.2386989999999999,0.0768399999999999,0.6299710000000001,-0.396536
1058,-0.64074,0.720348,0.265592,0.493492,0.244771,-0.6341829999999999
1059,-0.652596,0.699444,0.2913489999999999,1.015755,-0.772335,-0.714689
1060,-0.641955,0.703212,0.3055719999999999,1.332552,-1.84257,-0.612472
1061,-0.618733,0.73,0.290271,1.275425,-1.917896,-0.5568420000000001
1062,-0.592432,0.767225,0.245717,1.338969,-1.879408,-0.610875
1063,-0.568217,0.800417,0.190918,1.389933,-1.209566,-0.234146
1064,-0.53668,0.827016,0.167356,0.943861,-0.7479140000000001,-0.067594
1065,-0.51127,0.835393,0.201764,-0.559012,0.638621,0.956592
1066,-0.531027,0.8206829999999999,0.210894,-0.950922,0.63203,0.241941
1067,-0.581962,0.793637,0.177335,0.8949959999999999,2.380863,-1.2503030000000002
1068,-0.612041,0.771814,0.172328,1.548274,3.030173,-0.023631
1069,-0.6076819999999999,0.772383,0.184753,1.5658729999999998,-0.6316970000000001,0.0516059999999999
1070,-0.599422,0.782159,0.170024,1.184184,-0.908501,-0.804118
1071,-0.573056,0.8073170000000001,0.140829,0.672711,-0.5592550000000001,-1.2255459999999998
1072,-0.490604,0.866186,0.094953,0.2238659999999999,1.453608,-1.126157
1073,-0.365681,0.929994,0.037104,-0.552562,2.182235,-1.389231
1074,-0.249421,0.967371,-0.044394,-2.002105,2.5893,0.644125
1075,-0.179032,0.976611,-0.1190339999999999,-2.163253,1.181303,0.542953
1076,-0.1618369999999999,0.978273,-0.129542,-0.617613,0.828917,0.697901
1077,-0.140405,0.980086,-0.1403829999999999,0.87539,0.624437,0.458651
1078,-0.103221,0.981401,-0.161827,0.287105,0.0373519999999999,0.4629899999999999
1079,-0.061297,0.978545,-0.196682,0.021655,-1.177138,0.754101
1080,-0.020393,0.976319,-0.215353,-0.757851,-1.637711,0.627951
1081,-0.009877,0.978032,-0.2081989999999999,-1.493541,-1.534184,0.130074
1082,-0.039957,0.979312,-0.198349,-0.278723,-1.154407,-0.6423949999999999
1083,-0.091111,0.976478,-0.195401,0.2472239999999999,-1.100837,0.307233
1084,-0.1403599999999999,0.97575,-0.167935,0.4096619999999999,-0.5464439999999999,0.885632
1085,-0.174311,0.978884,-0.106733,0.041544,-0.565127,-0.155795
1086,-0.2159989999999999,0.976205,-0.018947,-0.159673,-0.227776,0.0711929999999999
1087,-0.289162,0.956191,0.045535,-0.938805,1.227845,0.475431
1088,-0.396809,0.909244,0.125722,-0.093609,1.922436,-0.471288
1089,-0.463649,0.858574,0.2187869999999999,0.496623,3.3266370000000003,-0.035041
1090,-0.4943659999999999,0.8209120000000001,0.2858219999999999,0.147991,2.005947,0.216558
1091,-0.56155,0.768871,0.305755,-0.715717,1.7836189999999998,0.617265
1092,-0.611513,0.727958,0.310026,-0.8619209999999999,1.072488,-0.085798
1093,-0.634213,0.693445,0.3418989999999999,-0.376346,0.401785,-0.206278
1094,-0.639652,0.6687569999999999,0.37894,0.5660890000000001,-0.724696,-0.928546
1095,-0.628076,0.663253,0.406941,1.009149,-1.28984,-0.960255
1096,-0.613328,0.683488,0.395802,1.557618,-1.7534189999999998,-0.647709
1097,-0.595355,0.721055,0.354427,1.378298,-1.764894,-0.6471210000000001
1098,-0.572408,0.764616,0.296139,1.435094,-1.444868,-0.659176
1099,-0.543592,0.802778,0.245036,0.930723,-0.768339,-0.478846
1100,-0.512269,0.8240200000000001,0.2419869999999999,0.514497,-0.252152,-0.266859
1101,-0.50256,0.815145,0.288028,-0.752949,1.474604,1.5334139999999998
1102,-0.563045,0.7751640000000001,0.28651,-0.4486739999999999,1.302259,0.928014
1103,-0.635117,0.732179,0.246025,-0.09816,2.808257,-1.429848
1104,-0.649095,0.721831,0.24005,1.67949,-1.164901,0.00403
1105,-0.642564,0.732139,0.225991,1.32457,-1.030861,-1.102776
1106,-0.6146739999999999,0.757117,0.2212179999999999,0.953267,-1.1310639999999998,-1.150006
1107,-0.531935,0.8213440000000001,0.205977,0.530638,0.0763,-1.341887
1108,-0.396755,0.906066,0.147031,0.222378,2.311692,-0.937558
1109,-0.269016,0.961063,0.063078,-0.147259,2.273724,-0.288542
1110,-0.191121,0.980588,-0.0437069999999999,-0.8503370000000001,2.452685,0.011923
1111,-0.1603369999999999,0.984427,-0.072012,-1.049456,1.221902,0.768545
1112,-0.141252,0.984927,-0.0997909999999999,-0.368498,0.223295,0.6134470000000001
1113,-0.115704,0.98587,-0.121095,-0.2332949999999999,-0.414154,0.278902
1114,-0.088923,0.983834,-0.155417,-0.019125,-1.096047,0.375922
1115,-0.059826,0.9782,-0.198838,0.1070059999999999,-1.345586,0.711808
1116,-0.039594,0.974999,-0.218636,-1.021349,-0.920128,0.465889
1117,-0.052588,0.975788,-0.212283,-0.720376,-0.8999520000000001,-0.097852
1118,-0.08776,0.975079,-0.203742,-0.221322,-0.942059,-0.292062
1119,-0.131351,0.973368,-0.187862,0.363544,-1.093485,0.301525
1120,-0.170144,0.973407,-0.153365,0.4585189999999999,-0.858798,0.593856
1121,-0.196863,0.975365,-0.09949,0.205805,-0.326363,-0.184674
1122,-0.245741,0.968867,-0.029947,0.060438,-0.187846,0.124704
1123,-0.330877,0.943395,0.0226889999999999,-0.788325,1.233531,0.273377
1124,-0.452879,0.886559,0.094344,-0.58124,3.429649,-0.345855
1125,-0.513318,0.842159,0.165106,0.336789,3.285756,0.324152
1126,-0.540523,0.81137,0.222485,-0.156331,1.245774,0.549351
1127,-0.58578,0.775332,0.236025,-0.411901,1.188902,0.6449560000000001
1128,-0.62584,0.741514,0.241798,-0.87387,1.162691,-0.257973
1129,-0.6580520000000001,0.7050609999999999,0.264278,-0.138366,0.684191,-0.442195
1130,-0.672319,0.677768,0.297664,1.085252,-0.696979,-0.761699
1131,-0.66652,0.672741,0.32118,1.600694,-1.283947,-0.660566
1132,-0.648613,0.69313,0.314418,1.250557,-1.82968,-0.6983590000000001
1133,-0.624754,0.730179,0.276599,1.2206860000000002,-1.81691,-0.683154
1134,-0.604065,0.768091,0.2124329999999999,1.481735,-1.634348,-0.513123
1135,-0.5789270000000001,0.799816,0.1585109999999999,1.003594,-0.852459,-0.310321
1136,-0.551725,0.8182010000000001,0.161663,0.218259,0.092108,0.136677
1137,-0.5581050000000001,0.810587,0.177358,-0.524155,0.6107090000000001,0.48968
1138,-0.601726,0.784646,0.149146,-0.401021,0.156546,0.28962
1139,-0.645935,0.7562,0.1044869999999999,0.812897,1.065348,-0.732097
1140,-0.650267,0.753339,0.098097,1.345472,2.246341,-0.243757
1141,-0.6552140000000001,0.7519899999999999,0.072069,1.18918,-0.496787,-0.7196520000000001
1142,-0.643207,0.763682,0.05535,1.129413,-0.647501,-0.6804720000000001
1143,-0.564283,0.8253020000000001,0.021232,0.757688,1.662842,-0.753577
1144,-0.429006,0.903293,-0.00208,0.579809,1.9156,-0.994701
1145,-0.317823,0.947981,-0.017611,-0.409732,2.322816,-1.260664
1146,-0.256162,0.956077,-0.142439,-1.957599,1.988625,0.784895
1147,-0.198623,0.959202,-0.201179,-0.960801,0.9002950000000001,0.853981
1148,-0.180662,0.961713,-0.206061,-0.233294,0.654467,0.731925
1149,-0.146807,0.964108,-0.221217,-0.127469,-0.103527,0.466426
1150,-0.1107109999999999,0.963361,-0.244279,-0.124275,-1.056867,0.783433
1151,-0.073308,0.962885,-0.259753,-0.26092,-1.340021,0.7971520000000001
1152,-0.0561409999999999,0.963636,-0.261242,-0.954387,-1.513181,0.158001
1153,-0.072261,0.963956,-0.2560489999999999,-0.553563,-1.181088,-0.116251
1154,-0.110824,0.960663,-0.254634,-0.171097,-1.119369,-0.102879
1155,-0.154861,0.957413,-0.243664,0.307846,-0.889999,0.529217
1156,-0.189197,0.95822,-0.214503,0.318348,-0.783324,0.643
1157,-0.215911,0.961828,-0.1681119999999999,0.215819,-0.68189,0.545568
1158,-0.2618769999999999,0.960345,-0.0956549999999999,0.27178,-0.2453489999999999,-0.402102
1159,-0.341667,0.938838,-0.042871,-0.831306,1.7137189999999998,0.555826
1160,-0.452879,0.8914040000000001,0.017025,-0.3396619999999999,2.98265,-0.0612
1161,-0.507867,0.8578049999999999,0.078939,-0.008903,3.651396,0.077952
1162,-0.535822,0.832123,0.143023,-0.027837,1.194687,0.6094649999999999
1163,-0.57935,0.79869,0.162593,-0.1881519999999999,1.194214,0.754231
1164,-0.618664,0.767428,0.168223,-0.825931,1.473752,0.054724
1165,-0.6493220000000001,0.7334390000000001,0.201092,-0.0364839999999999,0.8151,-0.294582
1166,-0.675958,0.6991850000000001,0.232828,0.58616,-0.250211,-0.4956149999999999
1167,-0.685236,0.681992,0.255591,1.198862,-0.957458,-0.710486
1168,-0.677963,0.6873130000000001,0.260682,1.281143,-1.6647150000000002,-0.574494
1169,-0.6593,0.7108270000000001,0.245025,1.290419,-1.756099,-0.556473
1170,-0.640814,0.740811,0.2013589999999999,1.6467650000000005,-1.799527,-0.461475
1171,-0.620947,0.7720600000000001,0.13542,1.667517,-1.329295,-0.333967
1172,-0.591217,0.80099,0.094168,0.674927,-0.1062109999999999,-0.199469
1173,-0.564243,0.8143229999999999,0.136008,-0.226529,0.606865,0.897882
1174,-0.582968,0.799431,0.1450779999999999,-0.907373,0.472252,0.6157100000000001
1175,-0.630438,0.770339,0.095484,0.092672,0.050889,-0.066035
1176,-0.658872,0.7489279999999999,0.070603,1.428128,1.295749,-0.166413
1177,-0.657626,0.752632,0.0326129999999999,1.47243,0.5904,-0.140768
1178,-0.640622,0.76774,0.0130009999999999,0.7872439999999999,-0.031229,-0.771867
1179,-0.596695,0.802442,0.005752,0.4388729999999999,-0.2312139999999999,-0.690689
1180,-0.507713,0.8604069999999999,-0.043809,0.207558,1.405615,-0.513808
1181,-0.384734,0.917859,-0.097498,0.148528,1.8007380000000002,-0.717947
1182,-0.286719,0.94833,-0.13585,-0.967783,1.83022,-0.676863
1183,-0.231562,0.948154,-0.21766,-2.0641380000000003,1.488385,0.4353729999999999
1184,-0.187415,0.948383,-0.255808,-1.230645,1.458904,1.191447
1185,-0.172314,0.950754,-0.257621,0.048138,0.679892,0.691901
1186,-0.14578,0.952616,-0.266955,0.256467,0.142843,0.539233
1187,-0.1076299999999999,0.949296,-0.295375,0.085719,-0.825715,0.860973
1188,-0.06734,0.947181,-0.31354,-0.244549,-1.374992,1.147647
1189,-0.050778,0.950275,-0.307236,-1.056858,-1.547107,0.160324
1190,-0.0754659999999999,0.9532,-0.2927599999999999,-0.8194170000000001,-1.416762,-0.165049
1191,-0.1235059999999999,0.948955,-0.2902139999999999,-0.066604,-1.15266,-0.181161
1192,-0.176297,0.944403,-0.277517,0.27319,-0.8827879999999999,0.473058
1193,-0.216348,0.943452,-0.251167,0.416925,-0.631242,0.846504
1194,-0.246153,0.949394,-0.19507,0.201842,-0.388878,0.367738
1195,-0.301298,0.946101,-0.1187579999999999,-0.142748,0.28954,0.037917
1196,-0.389494,0.919004,-0.0609669999999999,-0.539034,1.171343,0.337914
1197,-0.495404,0.868656,-0.001598,-0.436435,3.0393950000000003,0.0601149999999999
1198,-0.533871,0.8430989999999999,0.064471,0.399105,2.084102,0.4268619999999999
1199,-0.565331,0.816128,0.1196869999999999,0.263497,1.504246,0.6403989999999999
1200,-0.6120270000000001,0.779332,0.134363,-0.310855,1.341441,0.510916
1201,-0.653701,0.744223,0.137097,-1.056412,1.255716,-0.363065
1202,-0.688087,0.7059,0.168019,-0.543633,0.846575,-0.422185
1203,-0.702199,0.679862,0.2114059999999999,0.56867,-0.299307,-0.7631180000000001
1204,-0.695909,0.678134,0.2362909999999999,1.7783220000000002,-1.605685,-0.452691
1205,-0.675675,0.7024779999999999,0.223553,1.528825,-1.978173,-0.444897
1206,-0.645029,0.741294,0.185495,1.473765,-1.741065,-0.4393859999999999
1207,-0.614113,0.777997,0.13257,1.310066,-1.38963,-0.447588
1208,-0.584857,0.806546,0.086107,0.62833,-0.507123,-0.397706
1209,-0.560082,0.8233020000000001,0.09204,0.0298699999999999,0.079271,0.263261
1210,-0.564318,0.814412,0.135155,-0.652219,0.707957,0.913689
1211,-0.608833,0.782403,0.130985,-0.305779,0.2861849999999999,0.2498139999999999
1212,-0.652492,0.75369,0.078713,0.996166,-0.462384,-0.330223
1213,-0.655829,0.751397,0.0726639999999999,1.727683,1.670111,0.733367
1214,-0.6299359999999999,0.775022,0.050124,0.892951,0.6177090000000001,-1.011931
1215,-0.6102420000000001,0.7915939999999999,0.031199,0.444684,-0.244887,-0.606593
1216,-0.5765779999999999,0.81698,0.0095819999999999,0.16334,0.0055,-0.644408
1217,-0.492354,0.8690629999999999,-0.048041,0.384215,1.545473,-0.104196
1218,-0.372565,0.922619,-0.099803,0.37171,1.247639,-0.5563859999999999
1219,-0.270313,0.95287,-0.137695,-1.059521,2.179576,-0.45221
1220,-0.211407,0.953766,-0.21361,-2.26305,2.217819,0.972918
1221,-0.174255,0.954227,-0.243059,-0.979035,1.122784,1.046969
1222,-0.150547,0.955711,-0.252871,0.2554659999999999,0.56852,0.673495
1223,-0.121054,0.95619,-0.266531,-0.313593,-0.109267,0.58901
1224,-0.082703,0.952942,-0.291643,-0.123992,-1.144394,0.749071
1225,-0.043377,0.949512,-0.310709,-0.294605,-1.552981,0.828592
1226,-0.0257,0.948897,-0.314527,-0.963222,-1.361938,0.409802
1227,-0.04022,0.949525,-0.311093,-0.6381399999999999,-0.964433,0.015011
1228,-0.0737429999999999,0.947166,-0.312143,0.126431,-0.8866950000000001,-0.092016
1229,-0.1145299999999999,0.945377,-0.305188,0.511152,-0.894962,0.284878
1230,-0.1492349999999999,0.947256,-0.2836,0.4544109999999999,-0.953375,0.5663600000000001
1231,-0.180147,0.955067,-0.235348,-0.04341,-0.645634,-0.05315
1232,-0.233104,0.95574,-0.179491,-0.070729,-0.366644,0.344072
1233,-0.314788,0.940631,-0.126943,-0.887848,1.055295,0.686987
1234,-0.412379,0.909683,-0.049127,-0.433385,2.168839,-0.318229
1235,-0.464547,0.884756,0.037339,0.246484,3.568064,0.232589
1236,-0.48606,0.8674729999999999,0.105963,0.60752,2.126439,0.505167
1237,-0.526015,0.840693,0.128588,-0.711472,1.693228,0.53227
1238,-0.570705,0.8113130000000001,0.126719,-0.6507149999999999,1.439358,0.226385
1239,-0.6120329999999999,0.779744,0.131928,-0.380475,1.028208,-0.115327
1240,-0.6492640000000001,0.74626,0.146775,0.057971,0.197511,-0.466889
1241,-0.665112,0.726779,0.171492,0.969082,-0.898914,-0.686049
1242,-0.658257,0.729745,0.184828,1.402001,-1.607903,-0.459777
1243,-0.633192,0.7554270000000001,0.16849,1.384474,-2.074489,-0.535204
1244,-0.600036,0.7902020000000001,0.1246109999999999,1.621155,-2.065944,-0.642967
1245,-0.56771,0.8192200000000001,0.081082,1.743324,-1.583152,-0.473812
1246,-0.539149,0.839543,0.0669179999999999,0.4867039999999999,-0.017186,0.051825
1247,-0.524523,0.845678,0.098471,-0.420377,0.702769,1.134409
1248,-0.550143,0.8260120000000001,0.122627,-0.999219,1.08216,1.309441
1249,-0.600925,0.793531,0.095861,0.115024,-0.367841,-0.441305
1250,-0.636411,0.768871,0.061736,1.129896,0.298695,-0.801665
1251,-0.634123,0.771175,0.0563039999999999,1.98773,1.957494,0.735078
1252,-0.622159,0.782027,0.036666,0.924604,-0.3878769999999999,-0.8305959999999999
1253,-0.597115,0.80111,0.040853,0.684975,-0.750848,-0.896917
1254,-0.524406,0.851347,0.0141199999999999,0.1904819999999999,-0.2040539999999999,-0.655569
1255,-0.401949,0.914341,-0.049099,0.201463,2.0781970000000003,-0.708866
1256,-0.298455,0.949086,-0.100769,-0.850425,1.951244,-0.717957
1257,-0.246916,0.949837,-0.19193,-1.341936,1.831551,-0.062511
1258,-0.203972,0.951759,-0.229227,-1.167549,1.45617,0.858591
1259,-0.186165,0.952406,-0.241373,0.45742,0.966006,0.759897
1260,-0.1519579999999999,0.955523,-0.252744,0.07719,0.345884,0.527341
1261,-0.110916,0.95379,-0.279242,-0.326859,-0.698709,0.7965760000000001
1262,-0.069233,0.949147,-0.307118,-0.339092,-1.384999,0.883641
1263,-0.042595,0.947847,-0.315859,-0.94233,-1.47606,0.434054
1264,-0.052696,0.949947,-0.307927,-0.71032,-1.358486,0.123219
1265,-0.089401,0.950564,-0.2973719999999999,-0.050431,-0.980014,-0.085211
1266,-0.135982,0.949268,-0.283538,0.215327,-1.010197,0.185699
1267,-0.177312,0.949595,-0.258504,0.1515099999999999,-1.040614,0.608174
1268,-0.2145989999999999,0.955437,-0.20269,0.17018,-0.274773,0.086739
1269,-0.275302,0.951825,-0.135026,0.1008179999999999,0.000155,0.288911
1270,-0.37398,0.92376,-0.082468,-0.674208,1.939354,0.5436350000000001
1271,-0.4800439999999999,0.8771180000000001,-0.014671,0.046542,3.580569,-0.153435
1272,-0.508532,0.8582790000000001,0.068897,1.152346,2.556333,0.1577869999999999
1273,-0.532615,0.837543,0.121802,-0.366234,1.226986,0.857202
1274,-0.571679,0.810303,0.12878,-0.966789,1.334563,0.51334
1275,-0.608518,0.780517,0.143147,-0.876559,1.222321,-0.299473
1276,-0.644265,0.746223,0.167532,-0.136589,0.6724479999999999,-0.286779
1277,-0.6680560000000001,0.719072,0.191386,0.543667,-0.301912,-0.576503
1278,-0.671193,0.711634,0.207535,1.439122,-1.270487,-0.679977
1279,-0.653644,0.7307859999999999,0.196708,1.592441,-2.000699,-0.531578
1280,-0.620903,0.766848,0.1625349999999999,1.428367,-1.634615,-0.369596
1281,-0.587851,0.8008689999999999,0.114165,1.317084,-1.281719,-0.309401
1282,-0.557669,0.8273360000000001,0.067184,0.642157,-0.4459729999999999,-0.237701
1283,-0.5351859999999999,0.8427549999999999,0.05774,0.1837,0.141299,0.271667
1284,-0.532222,0.83859,0.116191,-0.3896989999999999,0.6423979999999999,1.155964
1285,-0.577493,0.807636,0.119249,-0.338401,0.104047,-0.157274
1286,-0.6324649999999999,0.771938,0.063984,1.065296,0.078954,-0.427433
1287,-0.646984,0.759789,0.064235,1.7194779999999998,2.080238,1.014424
1288,-0.6331829999999999,0.772512,0.047941,0.858541,-0.010228,-0.492857
1289,-0.617737,0.785989,0.024824,0.495575,-0.540658,-1.013319
1290,-0.584543,0.811253,0.0131069999999999,0.159937,-0.028629,-0.699569
1291,-0.492679,0.86954,-0.0340829999999999,0.088672,1.989942,-0.32694
1292,-0.366984,0.925607,-0.092571,-0.2416739999999999,1.594291,-0.751866
1293,-0.275725,0.949742,-0.1481869999999999,-1.332444,2.0711470000000003,-0.157843
1294,-0.227619,0.944555,-0.236644,-1.703014,1.548762,1.538234
1295,-0.205963,0.946955,-0.24668,-0.4172979999999999,1.2366700000000002,0.805716
1296,-0.1862079999999999,0.948157,-0.257526,0.730733,0.474313,0.604007
1297,-0.153967,0.950716,-0.269125,-0.157099,-0.813021,0.767736
1298,-0.115292,0.94744,-0.298429,0.005841,-1.234061,0.856901
1299,-0.0745789999999999,0.943434,-0.323055,-0.3682,-1.509108,0.846721
1300,-0.056222,0.942535,-0.329335,-0.8277040000000001,-1.227631,0.252598
1301,-0.071097,0.944402,-0.321007,-0.527292,-1.050527,0.046212
1302,-0.1059609999999999,0.94334,-0.314445,0.109455,-0.939602,-0.033302
1303,-0.147869,0.941857,-0.301719,0.380673,-0.86213,0.632224
1304,-0.180611,0.943556,-0.277627,0.333458,-0.76869,0.799005
1305,-0.2023059999999999,0.949914,-0.238179,0.066319,-0.409829,-0.497371
1306,-0.237875,0.958005,-0.160109,-0.1211339999999999,-0.09956,0.121352
1307,-0.301836,0.947918,-0.1016799999999999,-1.058409,1.663456,0.491817
1308,-0.404152,0.913485,-0.046863,-0.8744430000000001,2.390729,0.05347
1309,-0.475425,0.879474,0.022074,0.621742,3.01402,0.5367029999999999
1310,-0.484338,0.871085,0.081345,0.5340199999999999,1.802133,0.4971609999999999
1311,-0.516596,0.849891,0.10394,0.275676,1.412713,0.809557
1312,-0.5568850000000001,0.823593,0.107526,-0.7578729999999999,1.038177,-0.259138
1313,-0.5946600000000001,0.793755,0.127753,-0.164266,0.802268,-0.244925
1314,-0.6258670000000001,0.765796,0.147764,0.38133,-0.2228429999999999,-0.343901
1315,-0.634505,0.7552909999999999,0.164096,0.890395,-1.146266,-0.607318
1316,-0.623273,0.7634770000000001,0.169178,1.147886,-1.505161,-0.5254409999999999
1317,-0.593292,0.7900659999999999,0.1542359999999999,1.30571,-1.934826,-0.395004
1318,-0.5530010000000001,0.82436,0.120864,1.419517,-1.76247,-0.394622
1319,-0.51163,0.855094,0.083882,0.673144,-0.357093,-0.301014
1320,-0.4798949999999999,0.8747219999999999,0.067457,0.315833,0.136967,-0.046751
1321,-0.468004,0.87835,0.097265,-0.360228,0.6323310000000001,1.037364
1322,-0.4999729999999999,0.8521200000000001,0.154614,-0.863049,0.935218,0.66962
1323,-0.570013,0.809423,0.141088,0.214117,-0.288855,-0.538808
1324,-0.622404,0.776718,0.096484,1.7108139999999998,2.186584,-0.37044
1325,-0.615618,0.781371,0.102285,1.609926,-0.466109,0.191706
1326,-0.601928,0.794456,0.080679,0.895492,-0.720695,-0.870108
1327,-0.574368,0.815475,0.071338,0.434277,-0.088318,-1.022616
1328,-0.493671,0.868518,0.044204,0.0457949999999999,1.847531,-0.394317
1329,-0.360537,0.93244,-0.023597,-0.343732,2.018457,-0.752038
1330,-0.246732,0.964055,-0.098546,-1.224002,1.970714,-0.242885
1331,-0.185542,0.966654,-0.176478,-1.706975,1.431051,0.972773
1332,-0.161873,0.965332,-0.204749,-0.7957069999999999,0.990417,0.740576
1333,-0.148628,0.964109,-0.21999,0.068413,0.350406,0.660099
1334,-0.121781,0.964781,-0.2331489999999999,0.050431,-0.170058,0.518076
1335,-0.087755,0.960793,-0.262998,0.215959,-0.779045,0.58415
1336,-0.045613,0.953751,-0.297104,0.156697,-1.278778,1.0186309999999998
1337,-0.010085,0.950292,-0.311184,-0.8969739999999999,-1.106848,0.638668
1338,-0.0033079999999999,0.95348,-0.301427,-1.02814,-1.163166,0.192921
1339,-0.0251,0.957105,-0.28864,-0.157701,-1.153867,-0.16418
1340,-0.062117,0.958259,-0.279059,0.224913,-1.247321,0.1530359999999999
1341,-0.099623,0.96013,-0.261186,0.118208,-0.946412,0.467836
1342,-0.131708,0.964419,-0.2292159999999999,-0.07839,-0.532138,-0.2474989999999999
1343,-0.175232,0.970873,-0.163369,-0.6202850000000001,0.137342,0.404427
1344,-0.2519929999999999,0.961497,-0.1096109999999999,-1.004431,1.983419,0.1613079999999999
1345,-0.370626,0.928176,-0.0333829999999999,-0.537424,2.632691,-0.393939
1346,-0.4450199999999999,0.893992,0.052187,0.5548529999999999,4.506216,0.377775
1347,-0.4508649999999999,0.8843469999999999,0.120994,0.673994,1.78997,0.554054
1348,-0.490675,0.859485,0.143217,-0.911074,1.383695,0.337602
1349,-0.542636,0.82955,0.13183,-0.95834,1.056268,-0.0329529999999999
1350,-0.585531,0.7977920000000001,0.14376,-0.133356,0.2919449999999999,-0.227363
1351,-0.620133,0.766601,0.166569,0.626999,-0.6050409999999999,-0.547459
1352,-0.634646,0.747714,0.195278,1.008182,-1.02103,-0.719738
1353,-0.626624,0.751463,0.206475,1.554206,-2.34004,-0.543297
1354,-0.5975010000000001,0.780189,0.185161,1.498243,-2.211982,-0.521465
1355,-0.559238,0.817052,0.140231,1.561038,-1.955785,-0.4861939999999999
1356,-0.521809,0.8474889999999999,0.097286,0.740514,-0.395905,-0.183162
1357,-0.4920609999999999,0.866135,0.0876,0.185771,0.089554,0.2772989999999999
1358,-0.4835779999999999,0.8656379999999999,0.129653,-0.721302,0.489907,0.8610690000000001
1359,-0.520598,0.8418209999999999,0.142479,-0.4770819999999999,0.091666,0.253776
1360,-0.576513,0.80938,0.1119069999999999,0.903921,0.1892619999999999,-0.5365439999999999
1361,-0.609603,0.7864680000000001,0.099199,1.187819,1.741105,-1.171785
1362,-0.609626,0.784606,0.1128589999999999,0.987525,-0.4568319999999999,0.073665
1363,-0.611403,0.785564,0.0952,0.542922,-0.903179,-1.138458
1364,-0.5900350000000001,0.804235,0.071076,0.5199819999999999,-0.175589,-0.692261
1365,-0.504418,0.8632219999999999,0.0199449999999999,0.123193,1.950925,-0.716173
1366,-0.3771989999999999,0.925449,-0.035414,-0.4272899999999999,2.240704,-1.194688
1367,-0.285719,0.95348,-0.096082,-1.200442,1.769451,0.125882
1368,-0.235512,0.955243,-0.178983,-1.342491,1.320864,0.717313
1369,-0.210821,0.954683,-0.210064,-0.2853489999999999,1.379302,0.924617
1370,-0.188798,0.954959,-0.2289119999999999,0.668367,0.755139,0.69667
1371,-0.148789,0.958301,-0.243951,0.1121829999999999,-0.0047799999999999,0.468347
1372,-0.105213,0.957113,-0.269922,-0.069469,-0.535085,0.7567229999999999
1373,-0.059235,0.953573,-0.295266,-0.887085,-1.53684,0.576852
1374,-0.030755,0.954212,-0.297534,-1.12876,-1.496555,0.2369869999999999
1375,-0.036272,0.957811,-0.285089,-0.664122,-1.18004,-0.033987
1376,-0.065741,0.95828,-0.278154,0.073447,-1.070783,-0.089018
1377,-0.104405,0.956776,-0.271427,0.309209,-0.927143,0.3034699999999999
1378,-0.139348,0.957926,-0.250903,0.205861,-0.843958,0.601047
1379,-0.170297,0.96481,-0.200329,-0.128088,-0.490231,-0.386768
1380,-0.221164,0.966645,-0.129132,-0.250592,-0.1748819999999999,0.275525
1381,-0.310473,0.947669,-0.074303,-0.8260940000000001,1.776071,0.588601
1382,-0.422789,0.906221,-0.001651,-0.196398,3.3035410000000005,-0.320431
1383,-0.462416,0.88331,0.076964,0.6479779999999999,2.8124290000000003,0.350358
1384,-0.475545,0.868885,0.137418,-0.203502,1.276882,0.8415549999999999
1385,-0.511822,0.8460209999999999,0.14925,-0.643879,1.382724,0.54681
1386,-0.555607,0.819235,0.14193,-0.855037,1.374277,0.1791
1387,-0.5982149999999999,0.787518,0.148137,0.019403,0.401905,-0.380971
1388,-0.62973,0.7580279999999999,0.169771,0.469238,0.024214,-0.524874
1389,-0.641479,0.743161,0.190276,1.19281,-1.202557,-0.4895779999999999
1390,-0.631674,0.7512949999999999,0.191134,1.370337,-2.19444,-0.519854
1391,-0.598618,0.7835850000000001,0.166252,1.300705,-2.260758,-0.587883
1392,-0.554338,0.824275,0.115186,1.477602,-2.023967,-0.612775
1393,-0.515467,0.8536309999999999,0.074806,0.731318,-0.426751,-0.237098
1394,-0.487017,0.8699049999999999,0.077896,0.023684,0.045591,0.436188
1395,-0.4841479999999999,0.865952,0.125367,-1.022017,0.618973,1.061752
1396,-0.527655,0.83824,0.1375579999999999,-0.4683779999999999,-0.014891,0.320388
1397,-0.584863,0.804337,0.104718,1.31611,-0.019974,-0.292218
1398,-0.610817,0.785425,0.099994,1.826104,3.231452,0.474988
1399,-0.605176,0.789229,0.104251,0.670164,-0.356566,-0.67438
1400,-0.605801,0.791832,0.077432,0.536801,-0.7948529999999999,-1.123132
1401,-0.583893,0.809566,0.060507,0.5056,-0.054286,-0.5904149999999999
1402,-0.49975,0.866135,0.007029,0.156244,1.895415,-0.407389
1403,-0.378091,0.923159,-0.069391,0.026818,2.026166,-0.562429
1404,-0.27876,0.952186,-0.1250079999999999,-0.7804439999999999,2.21116,-0.563773
1405,-0.221025,0.95673,-0.1892309999999999,-1.159956,1.345944,0.702171
1406,-0.189905,0.957563,-0.216802,-0.266883,0.952044,0.646261
1407,-0.168062,0.955718,-0.24156,0.711657,0.249665,0.700941
1408,-0.13179,0.95783,-0.255317,-0.220063,-0.073049,0.494163
1409,-0.096594,0.954145,-0.2833199999999999,-0.278757,-1.190611,0.918696
1410,-0.058189,0.949903,-0.307069,-0.4207079999999999,-1.630674,0.829835
1411,-0.036603,0.949166,-0.312629,-1.112719,-1.4801879999999998,0.3975599999999999
1412,-0.046532,0.952319,-0.3015239999999999,-0.72509,-1.000751,0.064708
1413,-0.081102,0.952874,-0.292315,-0.112318,-0.972542,0.046191
1414,-0.128603,0.952154,-0.277233,0.2433489999999999,-0.809331,0.381375
1415,-0.1712,0.952662,-0.251234,0.435772,-0.6807350000000001,0.525022
1416,-0.200966,0.962126,-0.184172,0.3170389999999999,-0.294371,-0.0699169999999999
1417,-0.249551,0.960022,-0.1267849999999999,-0.7685770000000001,0.641113,0.2212059999999999
1418,-0.337315,0.938559,-0.072921,-0.702923,1.980219,-0.236008
1419,-0.427374,0.903949,0.014793,-0.212626,2.683103,-0.374168
1420,-0.460124,0.882333,0.098821,0.626582,2.118919,0.3828539999999999
1421,-0.4924779999999999,0.8582059999999999,0.144697,0.372223,1.781564,0.489092
1422,-0.5403479999999999,0.8286120000000001,0.146344,-0.81831,1.508882,0.313449
1423,-0.5809380000000001,0.8009350000000001,0.144924,-0.707224,0.8505389999999999,-0.14407
1424,-0.6173609999999999,0.769454,0.163696,-0.244135,0.373796,-0.281128
1425,-0.6457430000000001,0.739921,0.188472,0.8885559999999999,-0.712943,-0.438227
1426,-0.649142,0.729883,0.214184,1.435946,-1.512689,-0.5183979999999999
1427,-0.631776,0.742925,0.221156,1.100678,-1.923086,-0.506618
1428,-0.5986779999999999,0.775249,0.201402,1.088027,-2.025859,-0.5597850000000001
1429,-0.561914,0.810964,0.1630339999999999,1.234796,-1.673223,-0.6179600000000001
1430,-0.5285529999999999,0.838677,0.1313109999999999,1.041324,-0.920525,-0.34263
1431,-0.504183,0.854358,0.125942,0.5309020000000001,-0.160449,0.008076
1432,-0.506513,0.8500139999999999,0.1446059999999999,-0.378924,0.549629,0.864808
1433,-0.557416,0.816971,0.147766,-0.7764310000000001,0.811584,0.471329
1434,-0.613366,0.782913,0.1040109999999999,0.717126,-0.182861,-0.327705
1435,-0.610006,0.7795479999999999,0.142087,2.041845,2.787515,0.536929
1436,-0.605685,0.783428,0.139199,0.461322,0.381474,-1.270699
1437,-0.601449,0.792516,0.100838,0.528329,-0.393453,-1.16285
1438,-0.569516,0.819224,0.067186,0.404614,0.584187,-0.644289
1439,-0.477017,0.878815,0.011431,0.188352,1.309143,-0.447375
1440,-0.361254,0.930434,-0.061486,0.007128,1.554933,-0.697745
1441,-0.261889,0.95629,-0.1300599999999999,-1.485395,2.265451,1.108591
1442,-0.202059,0.96278,-0.179498,-1.431776,1.921589,0.847833
1443,-0.1815119999999999,0.964366,-0.192472,-0.927481,0.969335,0.567609
1444,-0.161716,0.964125,-0.2104849999999999,0.164173,-0.027418,0.506871
1445,-0.131303,0.965247,-0.2259429999999999,0.094301,-0.223228,0.29653
1446,-0.094343,0.961409,-0.25843,0.163236,-1.188689,0.535194
1447,-0.052345,0.9553,-0.290955,-0.33178,-1.297585,1.016526
1448,-0.022448,0.953312,-0.301141,-0.808103,-0.970234,0.407678
1449,-0.022226,0.956768,-0.289991,-0.396368,-1.139431,0.187803
1450,-0.041342,0.958994,-0.280384,0.222464,-1.129542,-0.0262269999999999
1451,-0.069497,0.959303,-0.273683,0.4141319999999999,-1.141874,0.24785
1452,-0.097863,0.960429,-0.260757,0.125436,-1.064768,0.3140409999999999
1453,-0.127529,0.963094,-0.237023,-0.244023,-0.902151,0.457466
1454,-0.167947,0.968715,-0.1827,-0.319983,-0.410029,-0.214715
1455,-0.233514,0.963571,-0.130365,-1.193427,0.565955,0.376246
1456,-0.345506,0.934909,-0.08101,-0.8813610000000001,2.247891,-0.091567
1457,-0.4549859999999999,0.890342,-0.016457,-0.293473,3.3245940000000003,-0.18
1458,-0.478433,0.8765879999999999,0.051832,0.812326,3.040359,0.5848409999999999
1459,-0.484857,0.868325,0.1044799999999999,0.6386189999999999,1.568686,0.6465270000000001
1460,-0.524699,0.8443280000000001,0.108591,-0.548329,1.535265,0.287466
1461,-0.574954,0.811905,0.101141,-0.7052430000000001,1.263398,0.1177309999999999
1462,-0.6104729999999999,0.7825340000000001,0.12228,-0.211609,0.6230600000000001,0.036335
1463,-0.64273,0.752865,0.14171,0.32138,-0.159924,-0.381471
1464,-0.654816,0.737625,0.164666,0.843567,-1.08638,-0.641534
1465,-0.643175,0.745574,0.174458,1.365846,-1.761016,-0.307683
1466,-0.6096229999999999,0.777496,0.154436,1.180927,-1.826446,-0.184862
1467,-0.563102,0.818612,0.1130549999999999,1.0790620000000002,-1.58294,-0.325854
1468,-0.514309,0.854432,0.073647,0.816753,-0.957764,-0.459085
1469,-0.480939,0.874281,0.065745,0.473538,-0.175077,-0.135448
1470,-0.477027,0.8725129999999999,0.105625,-0.103448,0.210159,0.7358359999999999
1471,-0.5155810000000001,0.847664,0.125024,-0.519529,0.3241489999999999,0.698569
1472,-0.575213,0.811575,0.102308,0.042498,-0.576574,-0.184568
1473,-0.6181300000000001,0.784356,0.051871,1.987042,0.0669309999999999,-0.57421
1474,-0.605036,0.7923279999999999,0.078345,1.726893,3.2944480000000005,0.955087
1475,-0.5986100000000001,0.7998149999999999,0.044202,0.179283,0.259603,-0.846784
1476,-0.586571,0.8098069999999999,0.01176,0.238656,-0.781212,-0.954616
1477,-0.5436380000000001,0.8389989999999999,-0.023027,0.459074,-0.29011,-0.313093
1478,-0.455105,0.886776,-0.080625,0.353909,1.700962,-0.33678
1479,-0.361531,0.925559,-0.112377,-0.006069,1.961556,-1.169392
1480,-0.305064,0.938611,-0.161055,-0.746831,0.815311,0.192473
1481,-0.2610929999999999,0.934876,-0.24048,-0.8659969999999999,0.5829770000000001,0.770479
1482,-0.229365,0.933384,-0.276007,-0.305852,0.673992,0.8632569999999999
1483,-0.202368,0.934209,-0.293759,0.1265619999999999,0.1262309999999999,0.5999720000000001
1484,-0.161853,0.938799,-0.304062,-0.179562,-0.121493,0.430222
1485,-0.121918,0.939868,-0.319028,-0.433486,-0.705539,0.461347
1486,-0.086979,0.940742,-0.32777,-0.457897,-1.219291,0.760586
1487,-0.070815,0.941845,-0.328492,-0.527345,-1.310086,0.5939949999999999
1488,-0.080429,0.941053,-0.328551,-0.203125,-1.416685,-0.0171979999999999
1489,-0.107741,0.937676,-0.330378,-0.1375289999999999,-1.252572,0.1268109999999999
1490,-0.1438559999999999,0.934761,-0.324842,-0.1715269999999999,-0.827843,0.804227
1491,-0.17843,0.935488,-0.3049929999999999,-0.047873,-0.531633,0.397507
1492,-0.22153,0.936904,-0.270424,0.420047,-0.187667,0.196907
1493,-0.285742,0.929204,-0.234363,-0.7396020000000001,1.187618,-0.332501
1494,-0.3930889999999999,0.896436,-0.20464,-1.210625,2.436831,0.0741769999999999
1495,-0.4897109999999999,0.855492,-0.168259,0.799144,4.093833,0.6612239999999999
1496,-0.535119,0.8353659999999999,-0.125717,1.121331,1.833442,0.991577
1497,-0.555343,0.826355,-0.093412,1.183654,1.404083,0.965009
1498,-0.579753,0.807713,-0.107141,0.3482159999999999,1.200893,-0.2356929999999999
1499,-0.621075,0.77298,-0.129463,-0.409625,0.997573,0.225548
1500,-0.665187,0.730633,-0.1539319999999999,-0.072469,0.24541,0.095933
1501,-0.695283,0.700986,-0.158723,0.3980579999999999,0.053652,0.262254
1502,-0.714842,0.682521,-0.152186,0.6181770000000001,-0.461177,-0.004903
1503,-0.716693,0.6846409999999999,-0.132709,1.071704,-1.152125,-0.086682
1504,-0.6921510000000001,0.710899,-0.124675,1.159406,-1.414451,0.076594
1505,-0.64615,0.750638,-0.137938,1.051531,-1.453748,0.17877
1506,-0.589258,0.788864,-0.174536,0.782038,-1.34555,0.0486819999999999
1507,-0.536485,0.819617,-0.201013,0.661958,-1.041861,0.058298
1508,-0.504967,0.842131,-0.1892579999999999,0.511391,-0.5288069999999999,0.211338
1509,-0.5010819999999999,0.848425,-0.170545,-0.0425269999999999,-0.213385,0.399992
1510,-0.518464,0.836391,-0.177873,-0.376189,0.003834,0.251756
1511,-0.5635,0.801706,-0.199322,-0.170097,-0.32873,0.166012
1512,-0.6163310000000001,0.771227,-0.159185,1.77075,2.963179,4.784566000000001
1513,-0.647435,0.740452,-0.180427,-0.396663,3.186687,-3.609506
1514,-0.65209,0.724779,-0.222414,0.8019470000000001,0.2897929999999999,-0.4983189999999999
1515,-0.630632,0.7339359999999999,-0.25226,0.471178,-0.761112,0.778536
1516,-0.584534,0.768297,-0.260833,0.300706,1.45561,-0.169663
1517,-0.5301239999999999,0.803664,-0.270346,0.163791,2.356553,-0.753748
1518,-0.496927,0.809631,-0.312341,0.280267,0.6022649999999999,0.192712
1519,-0.451467,0.804742,-0.38544,0.465322,0.6270060000000001,0.474444
1520,-0.407406,0.805037,-0.431197,0.372296,0.4442149999999999,-0.032868
1521,-0.3700739999999999,0.812338,-0.45072,0.263231,0.268411,0.416662
1522,-0.318769,0.822109,-0.47172,-0.115389,0.039158,0.569208
1523,-0.271921,0.828982,-0.488717,-0.08776,-0.4598569999999999,0.392541
1524,-0.238423,0.8294020000000001,-0.505215,-0.071025,-0.675395,0.443188
1525,-0.201287,0.8272440000000001,-0.5245449999999999,-0.25875,-0.834935,0.5027699999999999
1526,-0.169153,0.826989,-0.536165,-0.43392,-0.766732,0.503938
1527,-0.149838,0.830525,-0.536445,-0.491764,-0.648564,0.580879
1528,-0.140427,0.832723,-0.535583,-0.253799,-0.377019,0.43045
1529,-0.143189,0.834325,-0.532349,-0.137817,-0.386922,0.4191899999999999
1530,-0.153277,0.839058,-0.522001,-0.081754,-0.428566,0.7187319999999999
1531,-0.164418,0.851791,-0.497408,-0.108241,-0.573395,0.625734
1532,-0.186238,0.866764,-0.4626369999999999,0.05782,-0.498218,0.200063
1533,-0.222548,0.8707860000000001,-0.438405,0.490355,-0.055525,0.580647
1534,-0.285109,0.8629,-0.4172659999999999,-0.289659,1.514968,0.327011
1535,-0.365261,0.8436799999999999,-0.393425,-0.352711,2.355767,0.196663
1536,-0.398894,0.844992,-0.356184,0.073211,2.528467,1.162321
1537,-0.4189,0.8510610000000001,-0.316565,0.56009,1.6523720000000002,0.542242
1538,-0.448405,0.849018,-0.279456,0.540233,1.739529,0.406638
1539,-0.469603,0.846255,-0.251636,-0.188646,1.584242,0.4236479999999999
1540,-0.4937939999999999,0.837297,-0.234726,-0.493938,0.951217,0.259644
1541,-0.5169090000000001,0.829377,-0.211972,-0.15109,0.656478,0.3267489999999999
1542,-0.532324,0.824464,-0.192052,0.413595,-0.0531779999999999,0.2161159999999999
1543,-0.534177,0.827493,-0.172926,0.525846,-0.558954,0.056898
1544,-0.5210560000000001,0.83815,-0.161247,0.728377,-0.826416,0.0050729999999999
1545,-0.489083,0.855793,-0.1685559999999999,0.816872,-1.050693,0.072334
1546,-0.433638,0.8807200000000001,-0.190487,0.711226,-1.318754,0.167446
1547,-0.364106,0.904922,-0.220313,0.250077,-1.440917,-0.1295859999999999
1548,-0.300137,0.921701,-0.2457219999999999,-0.241336,-1.145166,-0.2338309999999999
1549,-0.269872,0.928205,-0.2561219999999999,-0.483089,-0.675092,0.106525
1550,-0.272999,0.926852,-0.257703,-0.5205350000000001,-0.594684,0.328107
1551,-0.2908989999999999,0.916669,-0.274025,-0.164164,-0.77023,-0.071006
1552,-0.317103,0.903144,-0.289431,0.6198670000000001,-0.638221,0.550142
1553,-0.349648,0.904239,-0.245137,1.200554,1.041684,2.628987
1554,-0.323356,0.910611,-0.257337,-0.3059469999999999,1.903537,-1.842882
1555,-0.285654,0.914482,-0.286562,0.166009,1.932472,-0.987074
1556,-0.254052,0.913273,-0.318407,-0.11547,0.313488,0.055651
1557,-0.20128,0.912519,-0.356076,-0.331572,0.922808,0.1748019999999999
1558,-0.158663,0.909163,-0.385022,-0.413969,1.024568,0.291959
1559,-0.126668,0.903735,-0.408917,-0.163905,0.130048,0.44006
1560,-0.088059,0.901624,-0.423457,-0.01207,-0.017224,0.084071
1561,-0.051248,0.902338,-0.427966,0.071939,-0.336404,-0.001111
1562,-0.015419,0.8953770000000001,-0.445036,0.075951,-0.4233159999999999,0.18022
1563,0.0202889999999999,0.8830450000000001,-0.4688449999999999,-0.054164,-0.573505,0.87366
1564,0.061358,0.879866,-0.471239,-0.36896,-0.602156,0.687517
1565,0.096311,0.8792620000000001,-0.466495,-0.688871,-0.561193,0.29732
1566,0.122292,0.877918,-0.462924,-0.8545309999999999,-0.2923469999999999,0.374469
1567,0.1400809999999999,0.8766520000000001,-0.460276,-0.76351,-0.295215,0.273264
1568,0.156143,0.8719680000000001,-0.463989,-0.374786,-0.172231,0.170776
1569,0.174623,0.8630620000000001,-0.473947,-0.582674,0.35967,0.448617
1570,0.191139,0.8593120000000001,-0.474389,-1.081032,0.414904,0.7042010000000001
1571,0.198474,0.8618299999999999,-0.466746,-1.129978,0.254488,0.6396430000000001
1572,0.192962,0.869025,-0.455583,-0.879959,-0.027518,0.36255
1573,0.1700279999999999,0.887175,-0.428959,-0.7093189999999999,-0.322981,-0.115489
1574,0.121463,0.904782,-0.40818,-0.558933,-0.485226,0.243186
1575,0.059628,0.91811,-0.391806,-0.08276,0.541652,0.8278110000000001
1576,-0.005217,0.937723,-0.347335,-0.232301,1.118322,0.663466
1577,-0.070072,0.957664,-0.279217,-0.176708,1.49601,0.7323109999999999
1578,-0.132151,0.967709,-0.214633,-0.06725,1.8595,0.584201
1579,-0.169958,0.973586,-0.1524319999999999,0.502066,1.594483,0.401074
1580,-0.204828,0.973932,-0.097436,0.33465,1.376227,0.3935929999999999
1581,-0.283946,0.957571,-0.049219,-0.475545,1.194483,0.467462
1582,-0.378334,0.925657,0.00356,-1.354607,0.6317010000000001,-0.263081
1583,-0.4433979999999999,0.89343,0.071903,-0.907356,0.868655,-0.045887
1584,-0.4851399999999999,0.863926,0.135126,-0.325636,0.779293,-0.268229
1585,-0.506024,0.839827,0.196516,0.6917989999999999,-0.916762,-0.244215
1586,-0.5055529999999999,0.8299200000000001,0.2358719999999999,0.818389,-1.3380530000000002,-0.183092
1587,-0.488899,0.837586,0.243752,0.811347,-1.312561,-0.273491
1588,-0.461721,0.8549190000000001,0.236463,0.808523,-1.093062,-0.583021
1589,-0.4334739999999999,0.87465,0.216969,1.0309620000000002,-1.287324,-0.275395
1590,-0.408466,0.8947069999999999,0.180672,0.81583,-1.33622,-0.028649
1591,-0.383815,0.912979,0.1383609999999999,0.285777,-1.0684049999999998,0.033194
1592,-0.358964,0.926067,0.1163329999999999,-0.104277,-0.800258,0.164642
1593,-0.343885,0.932442,0.110823,-0.202425,-0.689385,0.154008
1594,-0.349168,0.932368,0.093596,0.031633,-0.45373,-0.114272
1595,-0.365141,0.928626,0.065687,0.406233,-0.228186,-0.019728
1596,-0.372595,0.925306,0.070504,0.549948,1.055499,0.734642
1597,-0.353406,0.933025,0.067503,0.431821,1.29813,-0.160628
1598,-0.329132,0.942474,0.0583399999999999,0.116531,0.335785,-0.6819970000000001
1599,-0.2958429999999999,0.953868,0.050998,0.199987,0.56194,-0.31113
1600,-0.2348489999999999,0.971647,0.0271649999999999,0.154298,0.791613,-0.314519
1601,-0.157591,0.987448,0.009999,-0.027864,0.7228939999999999,-0.32282
1602,-0.074638,0.997141,-0.011327,-0.306298,0.668966,-0.322978
1603,0.004628,0.998279,-0.058369,-1.35999,1.100994,-0.426952
1604,0.067876,0.989588,-0.126886,-1.693593,1.092871,-0.434515
1605,0.109177,0.979301,-0.170413,-0.987137,0.976586,1.097277
1606,0.139838,0.973856,-0.178999,0.106805,0.5661069999999999,0.452666
1607,0.17704,0.965877,-0.189021,-0.557396,0.301182,0.7222850000000001
1608,0.2129739999999999,0.956098,-0.201271,-0.666343,-0.46829,0.563499
1609,0.249246,0.942734,-0.22163,-0.768624,-1.00264,0.613003
1610,0.273807,0.933218,-0.232651,-1.0291629999999998,-1.333486,0.360077
1611,0.270544,0.933298,-0.2361199999999999,-1.242667,-1.384332,0.21578
1612,0.235891,0.944207,-0.229825,-0.783438,-1.137933,0.065717
1613,0.182009,0.958594,-0.219,-0.1933,-1.053336,0.010398
1614,0.128419,0.971095,-0.201183,0.007049,-0.988734,0.315365
1615,0.08401,0.983633,-0.15937,0.126745,-0.804281,0.246254
1616,0.032736,0.994628,-0.098151,-0.2369139999999999,0.2482619999999999,0.205405
1617,-0.042985,0.997884,-0.048666,-0.471114,0.946848,0.43421
1618,-0.143346,0.989407,0.022655,-0.48286,2.5805700000000003,-0.093044
1619,-0.1988599999999999,0.974796,0.101066,0.016929,2.665447,0.280419
1620,-0.229596,0.959066,0.165725,-0.2475,1.473353,0.147035
1621,-0.274321,0.939143,0.206749,-0.868303,1.620336,0.33857
1622,-0.323105,0.917116,0.233426,-0.976272,1.38745,-0.082166
1623,-0.365975,0.8950790000000001,0.254719,-0.527366,0.986864,-0.154499
1624,-0.407619,0.872455,0.269546,0.055294,0.015027,-0.433089
1625,-0.430242,0.8570469999999999,0.283456,0.522618,-0.502113,-0.399957
1626,-0.424441,0.85608,0.2948949999999999,1.336642,-1.577515,-0.646259
1627,-0.399307,0.871275,0.28534,0.90686,-2.110685,-0.4297649999999999
1628,-0.361077,0.896956,0.255107,0.968926,-2.113219,-0.508586
1629,-0.319754,0.923099,0.2136179999999999,1.127783,-1.840167,-0.462016
1630,-0.278932,0.944077,0.175789,0.227174,-0.714417,-0.372978
1631,-0.2412619999999999,0.955601,0.1691339999999999,-0.257899,-0.095875,0.174647
1632,-0.235289,0.95416,0.184942,-0.826174,0.368929,0.379221
1633,-0.2776349999999999,0.942576,0.185623,-0.476195,0.19512,0.140839
1634,-0.335654,0.926993,0.167352,0.7219300000000001,0.525171,-0.801904
1635,-0.357141,0.918815,0.16798,0.99357,1.867578,0.982212
1636,-0.358948,0.918072,0.168183,0.799866,-0.552457,-0.244385
1637,-0.354087,0.919806,0.169012,0.442878,-0.8763489999999999,-0.95542
1638,-0.316497,0.934535,0.162667,0.233886,0.590886,-0.7631760000000001
1639,-0.203624,0.970433,0.129555,-0.033696,2.2296560000000003,-0.870659
1640,-0.084214,0.992305,0.090694,-0.214828,1.622868,-0.922771
1641,0.002871,0.999967,0.00673,-1.257128,1.049456,-0.139695
1642,0.059302,0.996236,-0.063135,-1.606132,0.808268,0.369379
1643,0.0943799999999999,0.99082,-0.096727,-1.135213,1.014474,0.480013
1644,0.116443,0.985637,-0.122272,0.037518,0.753682,0.596011
1645,0.143292,0.980859,-0.131804,-0.296826,0.362952,0.559752
1646,0.170447,0.974326,-0.147059,-0.543143,-0.482688,0.54806
1647,0.201514,0.966023,-0.161807,-0.64794,-1.225834,0.614611
1648,0.22512,0.959487,-0.169399,-1.093833,-1.44171,0.404858
1649,0.22582,0.959592,-0.1678609999999999,-1.066136,-1.444379,0.145523
1650,0.201753,0.965827,-0.162675,-0.5515,-1.0842200000000002,-0.097686
1651,0.163014,0.974266,-0.155632,-0.084324,-1.071022,0.044243
1652,0.123773,0.982265,-0.140798,0.099601,-0.945735,0.218389
1653,0.089017,0.991589,-0.093889,0.0698429999999999,-0.5100520000000001,-0.2612739999999999
1654,0.034326,0.99864,-0.039081,-0.398202,-0.017622,0.016055
1655,-0.058586,0.998268,0.003995,-0.816917,1.940544,0.727114
1656,-0.160269,0.983072,0.088712,-0.176248,2.989722,-0.183897
1657,-0.19329,0.965865,0.172419,0.382866,2.302812,0.1602829999999999
1658,-0.216602,0.94863,0.2305849999999999,-0.384488,1.542886,0.407248
1659,-0.268202,0.927057,0.26195,-1.408007,1.737753,0.177
1660,-0.31735,0.903375,0.2884199999999999,-1.291811,1.211173,-0.407102
1661,-0.348136,0.881964,0.317684,-0.290582,0.761407,-0.2410699999999999
1662,-0.365446,0.8664350000000001,0.340181,0.545667,-0.131983,-0.4788989999999999
1663,-0.364676,0.859656,0.357752,1.207464,-1.579748,-0.482279
1664,-0.350603,0.8658540000000001,0.3568719999999999,0.960893,-1.855982,-0.457946
1665,-0.327074,0.884484,0.332708,0.595263,-2.103142,-0.562109
1666,-0.301117,0.907845,0.291771,0.976761,-1.880929,-0.647422
1667,-0.275469,0.927612,0.252265,0.885958,-1.6853330000000002,-0.5543130000000001
1668,-0.245696,0.941677,0.2299159999999999,0.0953659999999999,-0.516446,-0.31799
1669,-0.2210489999999999,0.945113,0.240587,-0.520849,0.276963,0.4949939999999999
1670,-0.24076,0.936444,0.255127,-0.718148,0.6088279999999999,0.7335050000000001
1671,-0.297981,0.920667,0.252118,-0.426491,0.277316,0.2883179999999999
1672,-0.343185,0.910642,0.230084,1.397369,0.7835260000000001,-0.738263
1673,-0.321716,0.90993,0.261744,1.193802,2.02931,-0.277995
1674,-0.311783,0.915607,0.253849,0.065354,-0.430271,-1.116855
1675,-0.294941,0.923803,0.2440949999999999,-0.172146,-1.070485,-1.099915
1676,-0.2446159999999999,0.946215,0.211717,-0.117674,0.821729,-0.620805
1677,-0.1365299999999999,0.978199,0.1564299999999999,-0.412176,2.23695,-1.148786
1678,-0.019605,0.994016,0.107386,-1.40816,2.05472,-0.271235
1679,0.050095,0.998309,0.0292519999999999,-1.777786,0.713208,0.528457
1680,0.087511,0.996157,0.000444,-0.988055,0.8124520000000001,0.183195
1681,0.101261,0.994487,-0.02702,0.367123,0.833333,0.5848810000000001
1682,0.135967,0.989738,-0.043814,-0.31358,0.239907,0.465552
1683,0.1706609999999999,0.983043,-0.066991,-0.7028260000000001,-0.503567,0.397069
1684,0.202088,0.974477,-0.097687,-0.293488,-1.3092700000000002,0.632538
1685,0.232653,0.965202,-0.11936,-0.82358,-1.364372,0.484824
1686,0.243159,0.962214,-0.122501,-1.329494,-1.272715,0.04755
1687,0.223527,0.967232,-0.120361,-0.745209,-1.018425,-0.162766
1688,0.183399,0.976319,-0.114695,-0.236592,-1.086869,0.005045
1689,0.137978,0.985709,-0.096579,-0.090126,-0.943382,0.330709
1690,0.097596,0.994348,-0.041649,-0.031541,-0.419077,-0.394844
1691,0.041874,0.998942,0.018655,-0.471592,-0.060847,0.051337
1692,-0.040137,0.996681,0.070732,-0.952951,1.6736380000000002,0.362374
1693,-0.135909,0.977297,0.162496,-0.32866,2.45204,-0.3718309999999999
1694,-0.179677,0.950866,0.2521,0.290303,2.539796,-0.012811
1695,-0.203078,0.927501,0.313822,-0.288392,1.496068,0.307088
1696,-0.253315,0.907198,0.335866,-1.054211,1.346861,0.2833199999999999
1697,-0.300546,0.889832,0.343298,-1.217459,1.089095,-0.215506
1698,-0.338544,0.8713219999999999,0.355203,-0.722583,0.732163,-0.2272269999999999
1699,-0.372584,0.8536299999999999,0.363979,0.214702,-0.145713,-0.421489
1700,-0.389325,0.842167,0.3730469999999999,0.8742639999999999,-0.8562200000000001,-0.654297
1701,-0.387876,0.844841,0.368482,1.063566,-1.544349,-0.707777
1702,-0.3709679999999999,0.862418,0.344387,0.958965,-1.803092,-0.637935
1703,-0.34449,0.889049,0.301502,1.090568,-1.779094,-0.5613130000000001
1704,-0.314293,0.91417,0.255925,1.151024,-1.498429,-0.362019
1705,-0.2802199999999999,0.932062,0.2296139999999999,0.594627,-0.867441,-0.192673
1706,-0.25205,0.93896,0.234114,-0.017466,-0.2368719999999999,0.108323
1707,-0.263916,0.935133,0.2363449999999999,-0.6072850000000001,0.324862,0.493987
1708,-0.314054,0.92449,0.21604,-0.571109,0.1050359999999999,-0.257285
1709,-0.348118,0.912509,0.21477,0.874149,1.864896,0.628369
1710,-0.33865,0.912783,0.228313,0.918698,1.69534,-0.200283
1711,-0.327382,0.917454,0.226019,0.5477029999999999,0.540539,-0.4582729999999999
1712,-0.300577,0.92831,0.2188119999999999,-0.168036,-0.380184,-1.102479
1713,-0.219204,0.962212,0.161502,-0.060169,0.592079,-0.7513
1714,-0.094383,0.990074,0.104075,-0.174217,1.980156,-1.01971
1715,0.008264,0.998824,0.047637,-1.149621,2.040116,-0.996169
1716,0.06838,0.996583,-0.046207,-1.005361,0.968017,1.084522
1717,0.098801,0.993293,-0.059974,-0.421799,1.001718,0.462852
1718,0.1300359999999999,0.988328,-0.079294,-0.1077579999999999,0.211867,0.408991
1719,0.1677,0.981043,-0.097057,-0.744879,-0.381006,0.348782
1720,0.196045,0.972139,-0.128463,-0.33873,-1.205781,0.562453
1721,0.225633,0.961545,-0.15656,-0.227525,-1.412198,0.684545
1722,0.239234,0.955871,-0.17049,-1.321128,-1.059723,0.236668
1723,0.222713,0.960345,-0.167707,-0.943783,-1.058108,0.017057
1724,0.182516,0.96963,-0.162774,-0.248053,-1.011744,-0.211219
1725,0.131658,0.979609,-0.151731,-0.0298209999999999,-1.088801,-0.071307
1726,0.088753,0.98764,-0.129153,0.049644,-0.8635700000000001,0.31119
1727,0.0525919999999999,0.996095,-0.070834,-0.020258,-0.316774,0.052722
