,gravity.x,gravity.y,gravity.z,userAcceleration.x,userAcceleration.y,userAcceleration.z
0,0.287509,0.94254,-0.170121,0.113843,-0.264196,0.2445989999999999
1,0.280125,0.945894,-0.163707,-0.036,-0.480668,-0.142521
2,0.275441,0.948732,-0.154997,-0.0313149999999999,-0.4835069999999999,-0.151231
3,0.272306,0.950001,-0.152747,0.186052,-0.3477369999999999,-0.23626
4,0.271082,0.949967,-0.155122,0.403265,-0.084625,-0.113722
5,0.264534,0.951829,-0.1550099999999999,0.325569,0.06227,0.290599
6,0.249656,0.955906,-0.154602,-0.0987919999999999,-0.360096,0.403992
7,0.231638,0.95975,-0.158773,-0.223429,-0.3695699999999999,0.028249
8,0.2152079999999999,0.962231,-0.16668,0.111132,-0.143887,-0.231284
9,0.201227,0.962497,-0.181917,0.11405,-0.467334,0.0094159999999999
10,0.193493,0.959749,-0.203541,-0.009594,-0.8058029999999999,0.314244
11,0.190798,0.956591,-0.220266,-0.135927,-0.696001,0.456808
12,0.189296,0.953388,-0.234957,-0.246165,0.093746,0.300768
13,0.190107,0.946653,-0.260181,-0.162687,1.309176,0.24979
14,0.196738,0.935395,-0.2938,0.067728,0.573318,0.082328
15,0.210233,0.924247,-0.318683,0.114078,0.4359369999999999,0.011706
16,0.223942,0.913867,-0.338654,0.260342,1.062818,-0.1501
17,0.24158,0.9015,-0.359062,-0.1371339999999999,1.029637,-0.306985
18,0.253998,0.89359,-0.3700969999999999,-0.362137,0.5623279999999999,-0.299748
19,0.26648,0.889283,-0.37169,-0.078019,0.122939,-0.023482
20,0.275436,0.886533,-0.37173,0.341568,-0.295545,0.18658
21,0.280271,0.8877440000000001,-0.365169,0.389834,-0.6063109999999999,0.129802
22,0.282125,0.8950530000000001,-0.345362,-0.2041369999999999,-0.822818,-0.164373
23,0.281806,0.904111,-0.321182,-0.474753,-0.427915,-0.187546
24,0.280961,0.909888,-0.305211,-0.522416,-0.153174,-0.0555679999999999
25,0.2812489999999999,0.912465,-0.297144,-0.163513,-0.35291,0.178232
26,0.282396,0.913457,-0.29298,-0.168489,-0.6045729999999999,0.137081
27,0.285059,0.915629,-0.283468,-0.207438,-0.626261,0.128713
28,0.2892409999999999,0.919592,-0.265856,-0.232051,-0.593191,-0.017774
29,0.289903,0.924585,-0.247158,-0.214677,-0.303552,-0.08527
30,0.28749,0.927983,-0.237033,-0.213286,-0.059957,-0.1975829999999999
31,0.282362,0.930094,-0.234917,-0.0607889999999999,0.475958,-0.1597049999999999
32,0.27568,0.932105,-0.234884,-0.0363459999999999,0.394296,-0.0077469999999999
33,0.278834,0.932571,-0.2292409999999999,-0.02711,-0.451004,0.254067
34,0.29219,0.931693,-0.21578,-0.067214,-1.0454629999999998,0.154821
35,0.309175,0.930633,-0.195758,-0.367112,-1.023589,0.321872
36,0.313915,0.93124,-0.185033,-0.481838,-0.8290370000000001,0.542592
37,0.306058,0.933662,-0.1859859999999999,0.229708,1.24656,0.130154
38,0.291019,0.936378,-0.196194,0.971813,2.612084,0.238705
39,0.287265,0.93739,-0.196892,0.772259,1.823078,-0.317711
40,0.294798,0.932094,-0.210434,0.614549,1.130177,-0.04718
41,0.304664,0.928148,-0.213794,0.327416,-0.5688340000000001,-0.393262
42,0.303791,0.928216,-0.214742,0.384243,-0.7785270000000001,0.002401
43,0.305229,0.927585,-0.215427,0.203865,-0.002643,0.273624
44,0.307605,0.929809,-0.202042,-0.058383,0.303299,0.314179
45,0.300576,0.935719,-0.184581,-0.415277,0.430812,0.101009
46,0.2962619999999999,0.939401,-0.172455,-0.183072,-0.1050359999999999,-0.080215
47,0.294794,0.940002,-0.171698,0.0305079999999999,-0.517791,-0.164773
48,0.295147,0.939147,-0.17572,0.112049,-0.5907279999999999,-0.066635
49,0.29551,0.938527,-0.178405,0.129722,-0.511632,0.093719
50,0.289855,0.940767,-0.175869,0.073762,-0.101396,-0.008473
51,0.274876,0.945396,-0.175091,0.035869,-0.052711,-0.061497
52,0.259509,0.94868,-0.18069,0.097836,-0.1228279999999999,-0.116444
53,0.249869,0.949209,-0.191191,0.171273,-0.491705,0.153212
54,0.2451949999999999,0.947073,-0.207171,0.0700669999999999,-0.666357,0.387316
55,0.240946,0.943089,-0.2291639999999999,-0.129831,-0.687718,0.40786
56,0.237232,0.938559,-0.250633,-0.233738,-0.553198,0.370704
57,0.234275,0.933211,-0.272435,-0.627799,0.010545,0.137639
58,0.240413,0.921552,-0.30485,-0.322963,1.337802,0.071421
59,0.25699,0.904037,-0.341559,0.041884,1.385117,0.31156
60,0.275866,0.889107,-0.365208,0.529798,0.609916,-0.15678
61,0.283198,0.88175,-0.377236,0.4109399999999999,0.78094,0.0305259999999999
62,0.2892969999999999,0.8739520000000001,-0.390521,0.014536,0.962993,-0.277096
63,0.292335,0.870325,-0.396314,-0.168678,0.724264,-0.180285
64,0.293425,0.8713559999999999,-0.393231,-0.357039,-0.278705,-0.042606
65,0.303578,0.8704959999999999,-0.387386,-0.038258,-0.553251,0.073375
66,0.314733,0.8691760000000001,-0.381401,0.075297,-0.577581,0.12397
67,0.315864,0.873233,-0.371058,-0.025336,-0.333866,0.1283359999999999
68,0.3110469999999999,0.8827799999999999,-0.35205,-0.150998,-0.199034,-0.0374
69,0.305076,0.894777,-0.326025,-0.2257,-0.194429,-0.105601
70,0.299806,0.905452,-0.300436,-0.227602,-0.333828,0.05686
71,0.2978139999999999,0.911864,-0.282489,-0.227318,-0.421141,0.038837
72,0.297095,0.915547,-0.271102,-0.253485,-0.410146,0.03363
73,0.296714,0.91858,-0.261075,-0.330024,-0.042192,0.02702
74,0.296559,0.920596,-0.254056,-0.078556,0.4693729999999999,-0.122149
75,0.2957369999999999,0.923072,-0.2458989999999999,-0.00669,0.494256,-0.129773
76,0.303542,0.923988,-0.23259,-0.0028829999999999,-0.219657,-0.074432
77,0.3164909999999999,0.923314,-0.217516,-0.0224389999999999,-0.6035659999999999,0.187669
78,0.3281469999999999,0.923139,-0.2003059999999999,-0.291709,-0.883893,0.381703
79,0.329212,0.926127,-0.18411,-0.5740850000000001,-0.925791,0.4800239999999999
80,0.320376,0.931328,-0.1731349999999999,-0.3932219999999999,-0.212944,0.416284
81,0.308546,0.935964,-0.1695809999999999,0.088671,1.088084,0.102092
82,0.3049199999999999,0.935922,-0.176242,0.785809,1.979087,-0.062238
83,0.312457,0.932542,-0.180897,-0.00043,0.190322,-0.103664
84,0.318792,0.929428,-0.185802,0.27714,0.0982519999999999,-0.181919
85,0.323891,0.926857,-0.1897859999999999,0.566597,0.2396469999999999,-0.311297
86,0.323745,0.927335,-0.187688,0.6051489999999999,0.3020199999999999,-0.185267
87,0.317643,0.930595,-0.181887,0.244842,0.170601,0.0193039999999999
88,0.312658,0.93383,-0.17376,-0.141576,0.006492,-0.004829
89,0.307839,0.936433,-0.16827,0.007056,0.122267,-0.074574
90,0.306649,0.93683,-0.168238,0.2279429999999999,-0.005982,-0.1580109999999999
91,0.309209,0.935739,-0.1696109999999999,0.2406719999999999,-0.362695,-0.123037
92,0.315152,0.933103,-0.173163,0.068637,-0.3824889999999999,-0.132287
93,0.317098,0.931414,-0.178616,0.071879,-0.211794,-0.1623109999999999
94,0.3098849999999999,0.932397,-0.185993,0.167547,0.101798,-0.105374
95,0.302178,0.933081,-0.195027,0.242286,-0.2128659999999999,0.18958
96,0.299595,0.931123,-0.207942,0.156673,-0.364152,0.2808179999999999
97,0.296798,0.927803,-0.226008,-0.23294,-0.560966,0.3803809999999999
98,0.290473,0.924205,-0.247908,-0.329764,-0.5832930000000001,0.380156
99,0.279309,0.921704,-0.2691389999999999,-0.5212829999999999,-0.500653,0.291249
100,0.268157,0.919155,-0.288503,-0.329939,0.50893,-0.023646
101,0.264696,0.91232,-0.312404,-0.159685,1.066119,-0.027454
102,0.274897,0.896489,-0.34746,0.206854,1.445018,0.136598
103,0.290864,0.884016,-0.365928,0.168578,0.38814,0.021049
104,0.295101,0.880368,-0.371292,0.202045,0.179127,-0.123092
105,0.30257,0.8745299999999999,-0.378996,0.141323,0.5604979999999999,-0.3025989999999999
106,0.3150239999999999,0.866815,-0.3865,-0.2160099999999999,0.803397,-0.24764
107,0.32349,0.863189,-0.3876199999999999,-0.22884,0.037843,-0.108154
108,0.330835,0.862334,-0.383299,-0.171564,-0.238783,-0.060121
109,0.339143,0.861735,-0.37734,0.119292,-0.528696,0.233388
110,0.342346,0.8644040000000001,-0.368233,0.0154419999999999,-0.696099,0.152474
111,0.334292,0.874082,-0.3524469999999999,-0.109621,-0.65518,0.068405
112,0.323013,0.887158,-0.329548,-0.290191,-0.399732,-0.008251
113,0.313773,0.8995719999999999,-0.30382,-0.306235,-0.305578,0.068789
114,0.308363,0.907786,-0.284296,-0.2881,-0.328578,-0.063803
115,0.30633,0.912552,-0.270924,-0.360117,-0.329406,-0.065105
116,0.304511,0.916322,-0.260028,-0.36193,-0.008745,0.001941
117,0.2978179999999999,0.921364,-0.2497599999999999,-0.015134,0.713966,-0.000362
118,0.295994,0.925253,-0.237236,0.159755,0.363672,-0.071312
119,0.31248,0.922751,-0.225552,0.0715529999999999,-0.558096,-0.000309
120,0.3292,0.919383,-0.215288,0.059899,-0.927684,0.124498
121,0.332285,0.920213,-0.206836,-0.283961,-0.741166,0.347034
122,0.322718,0.923347,-0.208017,-0.1519869999999999,-0.136695,0.482355
123,0.310535,0.926198,-0.213806,0.60043,1.383922,0.276596
124,0.309283,0.926945,-0.212376,0.726758,1.045208,-0.273952
125,0.326752,0.92455,-0.1960299999999999,-0.230103,0.4286609999999999,-0.4023739999999999
126,0.340921,0.91539,-0.214058,0.666846,1.404037,-0.191872
127,0.341404,0.912289,-0.226186,0.233456,0.401111,-0.2808179999999999
128,0.32465,0.918883,-0.224153,0.069241,-0.395049,0.197328
129,0.320494,0.920921,-0.221757,0.0554679999999999,-0.394187,0.273256
130,0.325734,0.922045,-0.209091,0.077815,-0.07892,0.079437
131,0.330659,0.923765,-0.193157,-0.06511,0.199464,-0.036289
132,0.334423,0.924326,-0.183766,-0.050655,0.077017,-0.030238
133,0.33449,0.925241,-0.178979,-0.060885,-0.234643,0.032723
134,0.328482,0.928047,-0.175543,-0.134864,-0.402778,0.137854
135,0.314669,0.934274,-0.1676369999999999,-0.093279,-0.323999,0.022877
136,0.299344,0.940582,-0.160265,0.049182,-0.21225,-0.299666
137,0.286995,0.944316,-0.160896,0.363059,-0.224681,-0.145455
138,0.27631,0.947208,-0.162592,0.493679,-0.234073,-0.085501
139,0.264213,0.950935,-0.160934,0.525048,-0.307823,-0.0278019999999999
140,0.246964,0.956104,-0.157673,0.140716,-0.30434,0.184085
141,0.226573,0.960357,-0.162375,0.0472459999999999,-0.272185,0.234977
142,0.206809,0.962714,-0.174348,-0.389105,-0.491325,0.332262
143,0.187774,0.964137,-0.187531,-0.551574,-0.54278,0.372284
144,0.175577,0.96343,-0.202392,-0.4594979999999999,0.112925,0.353545
145,0.172619,0.959216,-0.223818,-0.068799,1.116956,0.22124
146,0.179121,0.947996,-0.263072,0.17148,1.417528,0.2267559999999999
147,0.187619,0.938127,-0.291043,0.180698,1.105834,-0.1161529999999999
148,0.198803,0.931814,-0.303624,0.093677,0.585611,-0.035411
149,0.217746,0.923212,-0.31663,0.171826,0.274679,-0.190984
150,0.233181,0.91775,-0.321481,0.127979,0.210866,-0.166053
151,0.244058,0.91606,-0.31821,-0.01008,-0.220259,-0.025555
152,0.2565,0.915269,-0.31061,-0.098098,-0.475618,-0.050337
153,0.265569,0.916772,-0.298313,-0.146749,-0.535989,-0.0552029999999999
154,0.266422,0.921565,-0.282357,-0.148578,-0.4509069999999999,0.091424
155,0.263718,0.927101,-0.266318,-0.10112,-0.468101,0.167624
156,0.261827,0.931902,-0.250981,-0.116625,-0.465777,0.109181
157,0.2604059999999999,0.936515,-0.234765,-0.215698,-0.571876,-0.087775
158,0.256458,0.940425,-0.2231969999999999,-0.286381,-0.55102,-0.167565
159,0.252156,0.943829,-0.2135179999999999,-0.300923,-0.46861,-0.067549
160,0.2485659999999999,0.946656,-0.205044,-0.304779,-0.015199,0.256146
161,0.256102,0.946766,-0.195017,-0.216384,-0.423206,0.312128
162,0.274411,0.943857,-0.183896,-0.1853759999999999,-0.7356050000000001,0.2220739999999999
163,0.286074,0.943019,-0.169888,-0.327181,-0.74052,0.184933
164,0.285928,0.943649,-0.166602,-0.23765,-0.361145,0.340675
165,0.282642,0.94294,-0.175968,0.851498,1.369667,-0.378429
166,0.280814,0.941773,-0.184913,1.68258,2.346618,0.003471
167,0.286217,0.9423,-0.173599,-0.026299,-0.16752,-0.331406
168,0.302478,0.938367,-0.167215,-0.130298,0.134601,-0.283026
169,0.303426,0.936051,-0.178121,1.128306,1.703429,-0.373469
170,0.289547,0.940943,-0.175431,0.478595,0.459326,-0.085815
171,0.283417,0.944862,-0.164003,-0.0416259999999999,-0.252418,-0.077727
172,0.280513,0.947839,-0.151331,-0.059474,-0.2148219999999999,0.069208
173,0.270196,0.953428,-0.133999,0.167761,0.147875,0.019787
174,0.253961,0.960649,-0.11245,0.195608,0.100783,-0.014153
175,0.2419639999999999,0.965265,-0.0985019999999999,0.28692,-0.302317,-0.080667
176,0.229453,0.969418,-0.086988,0.349313,-0.465176,-0.25168
177,0.213427,0.973841,-0.07791,0.356351,-0.4455659999999999,-0.281038
178,0.196935,0.977754,-0.072115,0.379802,-0.353013,-0.088652
179,0.185374,0.980387,-0.066819,0.1560109999999999,-0.461741,0.079209
180,0.172075,0.982908,-0.06534,0.098998,-0.4983039999999999,-0.0065439999999999
181,0.155586,0.985176,-0.072162,0.104332,-0.56295,0.039966
182,0.140275,0.985932,-0.0908149999999999,0.014785,-0.646409,0.189692
183,0.129573,0.985069,-0.1133,-0.036662,-0.4813149999999999,0.295505
184,0.124493,0.982067,-0.141541,-0.06036,0.341481,0.279725
185,0.127193,0.975848,-0.177568,0.334309,1.040341,0.390596
186,0.137367,0.967906,-0.210423,0.634011,0.628698,-0.0030329999999999
187,0.147726,0.960155,-0.237209,0.2620639999999999,1.020375,0.176952
188,0.1575069999999999,0.95263,-0.2601489999999999,0.248148,1.171745,0.181857
189,0.165588,0.945942,-0.27886,0.219803,1.240825,-0.071741
190,0.170683,0.940897,-0.292522,0.281068,0.814443,-0.258793
191,0.183374,0.935444,-0.302174,0.333259,0.643124,-0.090755
192,0.1961,0.93099,-0.307883,0.433065,0.125055,0.1076109999999999
193,0.202957,0.930424,-0.305138,0.2539369999999999,-0.4589279999999999,0.235848
194,0.200037,0.935146,-0.292364,-0.036264,-0.449963,0.356542
195,0.186033,0.943657,-0.273665,-0.167142,-0.46061,0.381728
196,0.167481,0.952515,-0.254276,-0.472733,-0.547195,0.335208
197,0.149951,0.959473,-0.2385699999999999,-0.482409,-0.520478,0.046797
198,0.139031,0.963044,-0.2306659999999999,-0.3558739999999999,-0.48671,-0.116151
199,0.131799,0.964447,-0.229044,-0.0474329999999999,-0.498062,0.037104
200,0.128613,0.964261,-0.231623,0.22974,-0.339337,0.0588929999999999
201,0.129421,0.963023,-0.236277,0.295566,-0.235911,0.016596
202,0.129017,0.962917,-0.236928,0.174923,0.223789,-0.122691
203,0.130959,0.962554,-0.237341,0.012428,0.275972,-0.47616
204,0.133275,0.961699,-0.239508,0.026393,-0.028807,-0.5523319999999999
205,0.140749,0.95962,-0.243535,0.217573,-0.044169,0.299687
206,0.1529589999999999,0.950471,-0.270554,0.330058,0.545409,0.2434079999999999
207,0.164849,0.944897,-0.282817,0.4883649999999999,0.7073550000000001,0.263545
208,0.159877,0.947729,-0.276117,0.107671,1.152827,0.314676
209,0.145416,0.949416,-0.278304,0.546585,-0.215835,-0.011353
210,0.136996,0.949545,-0.282111,0.485562,-0.532583,0.192893
211,0.143116,0.947608,-0.285564,0.4434619999999999,-0.569816,0.414989
212,0.1612299999999999,0.947116,-0.277429,0.418421,0.405515,0.15867
213,0.161053,0.95178,-0.261087,0.467426,1.4218620000000002,-0.0072689999999999
214,0.145055,0.962361,-0.229803,-0.09757,0.204021,0.2312219999999999
215,0.144494,0.969202,-0.199398,-0.1556789999999999,-0.555658,0.462154
216,0.156291,0.971918,-0.175892,-0.237331,-0.537607,0.370731
217,0.1605059999999999,0.975442,-0.150796,-0.18045,-0.447854,0.1819849999999999
218,0.148557,0.980862,-0.125814,0.063937,-0.160488,0.041891
219,0.132293,0.985261,-0.108384,0.331376,0.052962,0.061189
220,0.1277559999999999,0.987253,-0.094856,0.385123,-0.254343,0.142051
221,0.129878,0.988268,-0.080294,0.18865,-0.436037,0.097445
222,0.129564,0.989532,-0.063471,0.10008,-0.299834,0.034525
223,0.126217,0.99088,-0.047053,0.0643799999999999,-0.1216329999999999,-0.083914
224,0.1224079999999999,0.991869,-0.034635,0.097685,-0.009233,-0.1122619999999999
225,0.1184279999999999,0.992567,-0.0278,0.118953,0.0253159999999999,-0.103777
226,0.114255,0.993166,-0.023546,0.1461059999999999,0.134702,-0.170958
227,0.1090589999999999,0.993805,-0.021095,0.441005,0.156112,-0.089959
228,0.101677,0.994576,-0.0216419999999999,0.573647,0.151466,-0.105891
229,0.0949179999999999,0.995143,-0.025854,0.584845,0.025868,-0.0960179999999999
230,0.0919059999999999,0.995279,-0.0309879999999999,0.429212,0.189352,0.107404
231,0.0936299999999999,0.994846,-0.038764,0.327406,0.143826,0.1938089999999999
232,0.097867,0.993784,-0.052949,0.260729,-0.158487,0.1665819999999999
233,0.102072,0.992003,-0.074155,0.357553,-0.025542,0.203367
234,0.103765,0.989336,-0.102151,0.5801029999999999,0.357969,0.2801909999999999
235,0.10952,0.985263,-0.131342,0.467552,0.325665,0.127115
236,0.117674,0.981401,-0.151639,0.364488,0.243346,0.089872
237,0.1215619999999999,0.977999,-0.1695019999999999,0.0997059999999999,0.194029,0.101509
238,0.122641,0.974491,-0.1879289999999999,0.099588,0.1630059999999999,0.103487
239,0.127395,0.970231,-0.205944,0.253221,0.150588,0.010692
240,0.134957,0.966163,-0.219786,0.3134989999999999,0.1055069999999999,0.033247
241,0.139691,0.963342,-0.229016,0.294269,0.006018,0.076001
242,0.140321,0.961678,-0.235535,0.206465,-0.142556,0.22905
243,0.136649,0.960805,-0.24119,0.114007,-0.2989699999999999,0.321497
244,0.127926,0.961048,-0.244975,0.03635,-0.372242,0.349315
245,0.115749,0.963108,-0.242934,-0.112071,-0.405857,0.350738
246,0.1033559999999999,0.965916,-0.237309,-0.226159,-0.311512,0.327428
247,0.095534,0.968128,-0.2315,-0.296279,-0.252125,0.2425929999999999
248,0.094137,0.96946,-0.226442,-0.230016,-0.2143489999999999,0.046022
249,0.098065,0.970188,-0.221607,-0.104244,-0.105869,-0.08839
250,0.101672,0.970883,-0.21689,0.245557,-0.0688899999999999,-0.099135
251,0.10227,0.971536,-0.213661,0.344599,-0.089837,-0.0998759999999999
252,0.101961,0.972583,-0.2089929999999999,0.37628,-0.084155,-0.124259
253,0.1031779999999999,0.973773,-0.20276,0.257844,0.1588109999999999,-0.329893
254,0.107873,0.973656,-0.20087,0.21128,-0.169563,-0.290676
255,0.118644,0.972111,-0.202276,0.202233,-0.246494,-0.308023
256,0.13376,0.970703,-0.199588,0.189818,-0.073227,-0.180249
257,0.151668,0.967052,-0.204448,0.4414869999999999,0.524892,0.044917
258,0.167724,0.962394,-0.213678,0.539078,0.561242,0.004938
259,0.175895,0.964923,-0.194872,-0.298317,0.14053,0.152254
260,0.170535,0.969256,-0.177345,-0.433612,0.225706,0.271278
261,0.154122,0.971484,-0.1801569999999999,0.133476,0.235273,0.1982539999999999
262,0.137566,0.97303,-0.185148,0.480095,-0.2155989999999999,0.313658
263,0.135787,0.973718,-0.182826,0.404954,-0.265604,0.303157
264,0.150088,0.973778,-0.170942,0.183027,0.0271839999999999,0.038297
265,0.16721,0.973929,-0.153273,0.074566,0.2817929999999999,-0.117829
266,0.1762,0.974647,-0.137867,0.136987,-0.098716,0.246738
267,0.179309,0.975985,-0.1236579999999999,0.107175,-0.253039,0.287415
268,0.184779,0.976159,-0.113843,0.018712,-0.3074429999999999,0.355481
269,0.189349,0.976834,-0.099663,-0.192157,-0.2003599999999999,0.150597
270,0.189045,0.97906,-0.075451,-0.2204469999999999,-0.1599529999999999,0.041333
271,0.186323,0.980984,-0.0542529999999999,-0.122313,-0.007367,-0.030785
272,0.187962,0.981243,-0.042681,0.198116,0.046879,-0.07881
273,0.195181,0.980175,-0.033916,0.22613,-0.071194,-0.04868
274,0.204111,0.978637,-0.024451,0.226111,-0.4087969999999999,0.076957
275,0.212005,0.977221,-0.009033,0.237335,-0.304888,0.0615389999999999
276,0.2138429999999999,0.976749,0.014846,0.2493679999999999,-0.1185339999999999,0.022187
277,0.209106,0.977183,0.037111,0.108094,0.117193,0.01953
278,0.2034099999999999,0.977782,0.050562,0.031774,0.032457,-0.052576
279,0.197992,0.978575,0.056387,-0.063073,0.037523,-0.171683
280,0.192224,0.979746,0.056009,0.185508,0.158209,-0.152017
281,0.186633,0.98084,0.055773,0.310117,0.080196,-0.113818
282,0.181912,0.9817,0.0562309999999999,0.378925,-0.004023,-0.124865
283,0.179301,0.982178,0.056264,0.2397659999999999,-0.053894,-0.187917
284,0.177567,0.982593,0.054482,0.2060239999999999,0.022,-0.22419
285,0.175692,0.983156,0.050245,0.213742,0.1738569999999999,-0.206632
286,0.174028,0.983818,0.042472,0.251235,0.137535,0.132378
287,0.1726099999999999,0.9846,0.027514,0.2219219999999999,0.080402,0.387861
288,0.174679,0.984598,0.006556,0.133564,0.003607,0.365026
289,0.185906,0.982184,-0.027261,0.031714,0.179697,0.2069639999999999
290,0.196815,0.978641,-0.059283,-0.094291,0.395581,0.166919
291,0.2066199999999999,0.974653,-0.085733,0.010527,0.512912,0.035058
292,0.215251,0.970843,-0.105455,0.059926,0.329938,-0.075484
293,0.223013,0.966871,-0.124161,-0.0305079999999999,4.8e-05,-0.054794
294,0.234866,0.960835,-0.147055,-0.056125,0.0112719999999999,0.006202
295,0.246559,0.953776,-0.171791,-0.094429,-0.008204,-0.00808
296,0.254752,0.947206,-0.194661,0.043817,0.156355,-0.041942
297,0.259713,0.941626,-0.214198,0.116783,0.1254819999999999,0.063945
298,0.264059,0.936616,-0.2302489999999999,0.1090329999999999,-0.160921,0.171792
299,0.269536,0.932302,-0.241154,-0.030217,-0.461034,0.220112
300,0.274704,0.929597,-0.245721,-0.2157739999999999,-0.665391,0.13714
301,0.276281,0.928988,-0.246256,-0.419378,-0.546084,0.057093
302,0.276147,0.929199,-0.245609,-0.253076,-0.27269,0.08266
303,0.276973,0.929394,-0.243937,-0.199901,-0.284115,0.081965
304,0.27938,0.929078,-0.242389,-0.089058,-0.311982,0.033298
305,0.284306,0.92837,-0.2393559999999999,0.095623,-0.49177,-0.0273519999999999
306,0.288805,0.92852,-0.233312,0.098982,-0.517478,-0.08375
307,0.288936,0.931259,-0.2219539999999999,0.03281,-0.532242,-0.1227569999999999
308,0.285328,0.936012,-0.206061,-0.152576,-0.515938,-0.005807
309,0.282007,0.940415,-0.1899539999999999,-0.2125639999999999,-0.5021220000000001,0.025495
310,0.281728,0.943179,-0.176164,-0.266896,-0.378299,0.063203
311,0.28301,0.94465,-0.165931,-0.199331,0.097983,-0.011346
312,0.285051,0.945627,-0.156608,-0.171739,0.319616,-0.091149
313,0.287052,0.946463,-0.147648,-0.192218,0.500604,-0.131603
314,0.292192,0.94627,-0.138521,-0.2534949999999999,-0.353573,-0.038344
315,0.296237,0.94598,-0.131742,-0.27518,-0.474483,0.146406
316,0.298561,0.944866,-0.134462,-0.112877,-0.606274,0.324754
317,0.297711,0.943896,-0.142899,0.597202,0.4300819999999999,0.33757
318,0.294811,0.943719,-0.1499059999999999,1.156468,1.454215,0.027149
319,0.2988,0.942161,-0.151797,0.214353,1.377877,-0.33885
320,0.304512,0.939891,-0.154492,-0.2716449999999999,1.070576,-0.32941
321,0.302297,0.937444,-0.172648,-0.417318,1.123042,-0.095327
322,0.297308,0.938175,-0.177277,0.581064,0.0682789999999999,-0.306
323,0.298211,0.937296,-0.180384,0.358969,-0.148325,0.202372
324,0.308426,0.934119,-0.1796849999999999,0.069412,-0.234763,0.287916
325,0.3193539999999999,0.933357,-0.1638599999999999,-0.527133,0.073144,0.265758
326,0.3155489999999999,0.938414,-0.140709,-0.327711,0.119173,-0.033195
327,0.309351,0.94305,-0.122265,-0.055933,-0.0639909999999999,-0.056262
328,0.304136,0.946173,-0.110677,0.151308,-0.512228,-0.121272
329,0.3,0.948222,-0.104235,0.100605,-0.578731,0.032992
330,0.297546,0.949469,-0.099826,0.071076,-0.55834,0.051135
331,0.293837,0.951252,-0.093645,0.0740519999999999,-0.254535,-0.15785
332,0.285748,0.954094,-0.089676,0.192646,-0.1044539999999999,-0.241668
333,0.275039,0.957048,-0.091667,0.289704,-0.119417,-0.191063
334,0.264788,0.95932,-0.0978909999999999,0.315474,-0.301193,-0.107691
335,0.25465,0.961188,-0.10612,0.3507119999999999,-0.255499,0.164485
336,0.243079,0.9629,-0.117157,0.26658,-0.278544,0.250839
337,0.2318309999999999,0.963949,-0.130564,-0.200185,-0.384924,0.201853
338,0.224144,0.963607,-0.145642,-0.3665239999999999,-0.5045310000000001,0.140042
339,0.222159,0.960431,-0.167959,-0.7299859999999999,-0.178784,-0.024501
340,0.228562,0.952155,-0.2028589999999999,-0.542909,0.7485890000000001,-0.260688
341,0.2444489999999999,0.937711,-0.246851,0.292492,1.264026,0.309
342,0.262134,0.922872,-0.282109,0.632626,0.863612,-0.1547339999999999
343,0.270362,0.914523,-0.300905,0.385048,0.37344,-0.229094
344,0.280603,0.906659,-0.314998,-0.217477,0.825732,-0.4282579999999999
345,0.293894,0.899906,-0.322163,-0.310435,0.769833,-0.308773
346,0.306529,0.8951319999999999,-0.323685,-0.274028,0.044825,-0.063003
347,0.315347,0.8925780000000001,-0.322263,-0.083947,-0.501312,0.099973
348,0.320548,0.8945059999999999,-0.31161,0.016946,-0.6896720000000001,0.146693
349,0.321255,0.901022,-0.291458,0.026111,-0.6259819999999999,0.003402
350,0.3169369999999999,0.910864,-0.264329,-0.041561,-0.471884,-0.128631
351,0.308113,0.920445,-0.240497,-0.159096,-0.399128,-0.228726
352,0.2978099999999999,0.928042,-0.223694,-0.1403849999999999,-0.373659,-0.175903
353,0.2939989999999999,0.932118,-0.211452,-0.194664,-0.293187,-0.100728
354,0.298973,0.933044,-0.200089,-0.2331619999999999,-0.287353,-0.037597
355,0.306783,0.933086,-0.187682,-0.274404,-0.114407,-0.000947
356,0.30837,0.935563,-0.172102,-0.282674,0.38774,0.088408
357,0.302952,0.940242,-0.155415,-0.306202,0.446492,0.005146
358,0.299951,0.94345,-0.141138,-0.314569,0.1426089999999999,0.029307
359,0.306668,0.942893,-0.129984,-0.117993,-0.637748,0.020808
360,0.316269,0.94076,-0.122202,-0.173401,-0.821101,0.009851
361,0.3185699999999999,0.940961,-0.114426,-0.207196,-0.950697,-0.00238
362,0.3131469999999999,0.942969,-0.112855,0.085382,-0.530158,0.282869
363,0.315168,0.94073,-0.125238,0.411562,0.180043,0.443033
364,0.322154,0.93613,-0.140946,0.845143,2.368542,-0.031341
365,0.3286739999999999,0.936148,-0.1248529999999999,0.241471,1.697488,-0.521188
366,0.3257469999999999,0.934677,-0.142323,-0.024844,1.282165,0.1243789999999999
367,0.330416,0.932135,-0.148118,0.325209,-0.587256,-0.536514
368,0.33087,0.9312,-0.152908,0.518861,-0.7542439999999999,-0.076905
369,0.332996,0.930136,-0.154753,0.718685,-0.328864,0.196883
370,0.336737,0.931128,-0.139987,-0.369589,0.495828,0.261157
371,0.321441,0.938378,-0.126926,-0.751464,0.387916,-0.093548
372,0.308122,0.94365,-0.120721,-0.625703,0.154739,-0.2662719999999999
373,0.305112,0.944531,-0.121474,0.309802,-0.1833769999999999,-0.2461559999999999
374,0.304274,0.944398,-0.124569,0.451372,-0.56212,-0.163349
375,0.305555,0.943508,-0.128126,0.291781,-0.628933,0.037443
376,0.300159,0.945148,-0.128788,0.0552179999999999,-0.3350869999999999,-0.083446
377,0.286688,0.949634,-0.126461,0.310053,0.018826,-0.144093
378,0.272461,0.953481,-0.128942,0.381409,-0.004354,-0.165446
379,0.264494,0.954828,-0.135405,0.1107799999999999,-0.35769,0.044478
380,0.259845,0.95471,-0.1449069999999999,-0.030079,-0.4796729999999999,0.226709
381,0.2538809999999999,0.954129,-0.158657,-0.094182,-0.4842649999999999,0.338009
382,0.246442,0.953519,-0.173368,-0.299512,-0.496,0.290006
383,0.238913,0.952152,-0.190571,-0.444785,-0.053958,0.154041
384,0.236368,0.94697,-0.2176409999999999,-0.470545,0.321188,-0.073557
385,0.2445159999999999,0.936452,-0.251517,0.0565549999999999,1.169871,0.171347
386,0.259161,0.924881,-0.278248,0.3403719999999999,0.48056,-0.221905
387,0.270428,0.917811,-0.290662,0.177509,-0.0202889999999999,-0.1059599999999999
388,0.280263,0.912486,-0.298017,0.251033,0.333196,-0.1794
389,0.292389,0.906274,-0.305234,-0.009948,0.839667,-0.307635
390,0.306034,0.8999370000000001,-0.310563,-0.15018,0.254955,-0.265609
391,0.314328,0.896854,-0.311196,-0.133847,-0.320865,-0.189399
392,0.318063,0.897697,-0.304906,0.09072,-0.365562,0.088201
393,0.317104,0.902541,-0.291301,0.08321,-0.354705,0.098644
394,0.31215,0.910753,-0.270339,0.011992,-0.28615,-0.0455029999999999
395,0.304465,0.920589,-0.244557,-0.104224,-0.188335,-0.20312
396,0.294027,0.930147,-0.219923,-0.130697,-0.150194,-0.174577
397,0.2822699999999999,0.938184,-0.200312,-0.1482369999999999,-0.030836,0.002436
398,0.275734,0.94331,-0.184738,-0.246254,-0.120541,0.049042
399,0.278363,0.945214,-0.170517,-0.275571,-0.1803519999999999,-0.001847
400,0.285622,0.945341,-0.157294,-0.215553,-0.150206,-0.1032039999999999
401,0.289784,0.94626,-0.143559,-0.228855,-0.075669,-0.026073
402,0.290245,0.947885,-0.13139,-0.2751699999999999,-0.221353,-0.022373
403,0.2952329999999999,0.947298,-0.124316,-0.168601,-0.7473770000000001,0.033343
404,0.303644,0.945643,-0.116406,-0.216363,-0.955073,0.038906
405,0.31113,0.944199,-0.108063,-0.177905,-0.821716,-0.0774379999999999
406,0.317025,0.942015,-0.10997,-0.08143,-0.543822,0.022232
407,0.324557,0.937345,-0.126645,1.024458,1.174304,-0.039051
408,0.330465,0.932694,-0.144449,1.329829,1.830093,0.101267
409,0.337408,0.93361,-0.120496,-0.466254,0.596267,-0.370975
410,0.340305,0.931882,-0.125612,0.170071,1.7394889999999998,0.123369
411,0.337802,0.929829,-0.14594,0.598249,0.178706,-0.7015939999999999
412,0.3260619999999999,0.934016,-0.145906,0.4660069999999999,-0.486521,-0.030394
413,0.315902,0.937438,-0.146312,0.4716189999999999,-0.564971,0.147456
414,0.316352,0.938534,-0.138077,-0.118155,0.04581,0.096955
415,0.31444,0.940828,-0.126338,-0.254747,0.663435,-0.109365
416,0.30208,0.945405,-0.1222579999999999,-0.036516,0.154173,-0.2134349999999999
417,0.294244,0.947674,-0.123795,0.120871,-0.366604,-0.206314
418,0.291558,0.948035,-0.127333,0.279471,-0.6229319999999999,-0.014711
419,0.287912,0.948661,-0.130922,0.253027,-0.588141,0.039827
420,0.278173,0.951056,-0.134553,0.257823,-0.324499,0.1620339999999999
421,0.266067,0.953379,-0.142367,0.020737,-0.369669,0.109454
422,0.254555,0.955113,-0.151499,-0.187462,-0.440083,0.1126809999999999
423,0.243677,0.956033,-0.163138,-0.37182,-0.574655,0.069266
424,0.2333059999999999,0.955801,-0.178899,-0.411117,-0.5639850000000001,0.069188
425,0.2264989999999999,0.953808,-0.1973339999999999,-0.295301,-0.0860399999999999,-0.118111
426,0.2278329999999999,0.947969,-0.222347,0.163448,1.0087270000000002,0.029598
427,0.2343199999999999,0.937145,-0.258546,0.574167,1.1510209999999998,0.071763
428,0.2474239999999999,0.929432,-0.273732,-0.075687,0.430431,-0.0222419999999999
429,0.2609059999999999,0.923973,-0.279633,-0.146175,0.1619799999999999,-0.20137
430,0.271922,0.91986,-0.282681,-0.141917,0.7542270000000001,-0.225421
431,0.284917,0.914595,-0.286935,-0.070531,0.59926,-0.2465119999999999
432,0.301777,0.908382,-0.2894239999999999,0.041714,0.178258,-0.185018
433,0.315239,0.90558,-0.2837989999999999,0.1331099999999999,-0.4174819999999999,0.050523
434,0.319661,0.909428,-0.265988,0.151989,-0.572056,0.078732
435,0.316899,0.917646,-0.239776,0.153605,-0.698148,0.041823
436,0.306345,0.928542,-0.209654,-0.184442,-0.600066,-0.040132
437,0.295326,0.937407,-0.184501,-0.390053,-0.568435,-0.099236
438,0.286733,0.943321,-0.167094,-0.455206,-0.539284,-0.096441
439,0.286933,0.94534,-0.154898,-0.4953979999999999,-0.476804,-0.152567
440,0.292046,0.945702,-0.142646,-0.197381,0.167961,0.011283
441,0.285378,0.949398,-0.131125,-0.12484,0.323872,0.084464
442,0.283219,0.950869,-0.125003,-0.130341,-0.165026,0.252475
443,0.30005,0.947146,-0.113467,-0.191056,-0.81798,0.213244
444,0.317257,0.943194,-0.098603,-0.371365,-0.8023399999999999,0.0302589999999999
445,0.3256679999999999,0.939743,-0.1039869999999999,-0.281494,0.07167,0.205427
446,0.324318,0.938581,-0.1177859999999999,1.448234,1.492281,-0.147549
447,0.322069,0.938847,-0.121771,1.450483,1.492015,-0.143564
448,0.32929,0.937805,-0.1099079999999999,-0.024572,-0.00206,-0.462404
449,0.3387409999999999,0.933427,-0.118149,0.7543380000000001,2.537398,0.028091
450,0.3336929999999999,0.932496,-0.138172,0.759386,2.53833,0.048115
451,0.3212239999999999,0.936951,-0.137579,0.137455,-0.167191,-0.345285
452,0.321181,0.936989,-0.137421,0.039262,-0.423378,0.248078
453,0.3285929999999999,0.935431,-0.130331,0.046041,0.013757,0.1168569999999999
454,0.327214,0.938049,-0.113953,-0.378178,0.359574,-0.002242
455,0.311682,0.944791,-0.101061,-0.300406,0.236483,0.011278
456,0.292713,0.95149,-0.0947409999999999,0.134411,-0.282377,-0.064561
457,0.274138,0.957658,-0.087917,0.206713,-0.690294,-0.015431
458,0.261264,0.962073,-0.078401,0.100461,-0.7381810000000001,0.093202
459,0.253433,0.964762,-0.070676,0.0294959999999999,-0.650263,0.050672
460,0.243565,0.967597,-0.06649,-0.124546,-0.51345,-0.163261
461,0.229514,0.971098,-0.065438,-0.077887,-0.311353,-0.054709
462,0.2146719999999999,0.97402,-0.072043,0.0864,-0.1845,0.013297
463,0.199497,0.976486,-0.081647,0.126614,-0.252243,0.184323
464,0.185165,0.978147,-0.094516,-0.039596,-0.405423,0.201816
465,0.173392,0.978655,-0.110268,-0.162436,-0.551531,0.120278
466,0.165603,0.977792,-0.128412,-0.358565,-0.7393430000000001,0.099405
467,0.166814,0.973548,-0.156103,-0.347997,0.376961,-0.195963
468,0.182354,0.96199,-0.203257,0.6331979999999999,1.729782,0.058985
469,0.199509,0.947913,-0.248292,0.495422,0.98092,-0.2304679999999999
470,0.216036,0.941457,-0.258804,0.241453,0.6162979999999999,-0.324432
471,0.237537,0.933792,-0.267584,0.246548,0.414948,-0.237054
472,0.26323,0.922733,-0.281543,0.11415,1.027051,-0.4006619999999999
473,0.277361,0.915281,-0.292103,0.036253,0.499346,-0.293666
474,0.285479,0.912957,-0.291552,-0.017275,0.140265,-0.230985
475,0.28891,0.914687,-0.282614,0.062103,-0.6266930000000001,0.060019
476,0.292491,0.917363,-0.269974,0.088124,-0.742955,0.084473
477,0.292387,0.922435,-0.252219,-0.111616,-0.5903579999999999,0.041373
478,0.287444,0.928699,-0.234278,-0.215712,-0.4726899999999999,0.102625
479,0.282395,0.934352,-0.217325,-0.262772,-0.487468,0.134638
480,0.278638,0.93959,-0.198802,-0.339307,-0.512207,-0.067785
481,0.277014,0.944701,-0.175484,-0.274038,-0.647933,-0.0322029999999999
482,0.272129,0.950395,-0.150617,-0.209751,-0.616838,0.057996
483,0.259998,0.957003,-0.128598,-0.165744,-0.304293,-0.078144
484,0.2487889999999999,0.962234,-0.110452,-0.333598,-0.288208,0.19024
485,0.253195,0.962151,-0.100732,-0.362661,-0.474832,0.056345
486,0.267083,0.958911,-0.095632,-0.269235,-0.6171449999999999,-0.079722
487,0.278727,0.956187,-0.089489,-0.157267,-0.8329409999999999,-0.061314
488,0.289036,0.95325,-0.088111,0.040996,-0.300097,0.299186
489,0.300042,0.948372,-0.102744,0.559821,0.635918,-0.251321
490,0.299213,0.947395,-0.113596,1.494305,1.677849,0.0291839999999999
491,0.284898,0.953976,-0.093557,-0.2832199999999999,-0.38284,-0.345363
492,0.291901,0.951695,-0.095187,-0.385621,0.024501,-0.344144
493,0.296319,0.948214,-0.114345,1.6434240000000002,2.573453,-0.267598
494,0.287502,0.95142,-0.110151,-0.088634,-0.266819,0.057996
495,0.28919,0.95221,-0.098263,-0.409017,-0.469788,0.153774
496,0.2868,0.954282,-0.0841539999999999,-0.62025,-0.2006349999999999,0.155107
497,0.27174,0.960294,-0.0631029999999999,-0.118038,0.253497,-0.163246
498,0.251453,0.966618,-0.049092,0.299969,0.20576,-0.196758
499,0.236875,0.970572,-0.043247,0.466479,-0.424902,-0.1073269999999999
500,0.226962,0.973263,-0.035174,0.350308,-0.786312,-0.1532109999999999
501,0.215587,0.976221,-0.0224639999999999,0.275914,-0.8188409999999999,-0.185589
502,0.201063,0.979506,-0.0114019999999999,0.307329,-0.417006,-0.16142
503,0.186883,0.982326,-0.009916,0.3866489999999999,-0.177837,-0.11307
504,0.172483,0.9849,-0.014522,0.239062,-0.257513,-0.051885
505,0.157931,0.987154,-0.023943,0.116177,-0.577333,-0.125014
506,0.144667,0.988524,-0.043364,-0.04788,-0.948683,-0.002778
507,0.135001,0.988395,-0.06956,0.016107,-0.805565,0.180644
508,0.131234,0.986029,-0.1025339999999999,0.01197,0.2747739999999999,0.257227
509,0.142513,0.979262,-0.143967,0.315113,1.4716360000000002,0.453812
510,0.1577599999999999,0.972186,-0.173077,0.419465,0.902692,0.132397
511,0.165101,0.967187,-0.1930849999999999,0.581145,0.735984,0.212952
512,0.171983,0.961964,-0.21222,0.472304,1.688594,0.051148
513,0.190132,0.955362,-0.226109,0.23275,1.821707,-0.299801
514,0.209472,0.946964,-0.243664,0.086274,0.591565,-0.463138
515,0.224651,0.937385,-0.266144,0.362202,0.000848,-0.0856929999999999
516,0.239246,0.931282,-0.274712,0.43301,-0.139961,0.115868
517,0.252661,0.929004,-0.270381,0.231729,-0.530856,0.366771
518,0.259309,0.929814,-0.2611429999999999,-0.204087,-0.356145,0.344242
519,0.255229,0.93499,-0.246259,-0.318476,-0.252449,0.348294
520,0.244584,0.941662,-0.231177,-0.255784,-0.337155,0.242911
521,0.233654,0.947512,-0.218217,-0.2111469999999999,-0.528231,0.222123
522,0.22621,0.95221,-0.205223,-0.137297,-0.604798,0.159691
523,0.221326,0.955489,-0.1950569999999999,-0.214673,-0.498091,0.0365949999999999
524,0.217375,0.957682,-0.188641,-0.228544,-0.343393,-0.048541
525,0.21189,0.959911,-0.183479,-0.099753,-0.245663,-0.076164
526,0.200461,0.963671,-0.17648,0.044122,0.127226,-0.269153
527,0.1846819999999999,0.968047,-0.169616,0.288234,0.272371,-0.316544
528,0.17776,0.969774,-0.167129,0.277318,0.0120069999999999,-0.460678
529,0.183013,0.96769,-0.173419,0.160554,-0.012429,-0.2988099999999999
530,0.19484,0.961738,-0.1925869999999999,0.133056,0.4180689999999999,0.044196
531,0.2109579999999999,0.954203,-0.2120969999999999,0.340784,0.500799,0.235321
532,0.2250909999999999,0.950877,-0.212504,0.126518,0.8229569999999999,0.336009
533,0.229617,0.951046,-0.206832,0.385984,0.01923,-0.170991
534,0.227248,0.952324,-0.203541,0.349031,-0.583885,0.286335
535,0.223426,0.951613,-0.210961,0.452538,-0.479811,0.3720179999999999
536,0.226117,0.951924,-0.206648,0.272952,0.429775,0.4610729999999999
537,0.220904,0.957787,-0.183948,0.226117,0.735603,0.2833739999999999
538,0.206641,0.966551,-0.151889,-0.261481,0.557711,-0.041165
539,0.2077409999999999,0.969891,-0.12707,0.053001,-0.193478,0.298853
540,0.220098,0.968857,-0.113424,0.0264839999999999,-0.225235,0.34374
541,0.233727,0.967386,-0.097602,-0.058923,-0.131632,0.192741
542,0.236235,0.968945,-0.073006,-0.035765,-0.088452,-0.0593179999999999
543,0.229937,0.971802,-0.0521649999999999,0.03343,-0.05426,-0.092839
544,0.226163,0.973273,-0.0397589999999999,0.017077,-0.191001,-0.031256
545,0.226827,0.973509,-0.028648,-0.046422,-0.370009,0.028236
546,0.22693,0.973793,-0.014883,-0.004183,-0.448158,-0.004312
547,0.225152,0.974317,0.001971,0.08271,-0.3946199999999999,-0.069873
548,0.223859,0.974412,0.019955,0.182024,-0.213975,-0.095456
549,0.223637,0.973966,0.0369839999999999,0.15414,-0.1514869999999999,-0.094296
550,0.220642,0.974078,0.049788,0.025955,0.069394,-0.12805
551,0.21239,0.975485,0.0575279999999999,-0.008197,0.328333,-0.2310969999999999
552,0.201655,0.977422,0.0630179999999999,0.156316,0.2933449999999999,-0.252212
553,0.19238,0.979196,0.064466,0.506182,0.152213,-0.279325
554,0.187365,0.980276,0.0628,0.795851,0.060709,-0.0469
555,0.190068,0.979922,0.060137,0.7839010000000001,0.198712,0.042218
556,0.198675,0.978665,0.052282,0.273142,0.202548,0.19282
557,0.208057,0.977428,0.036575,0.119381,0.072652,0.288758
558,0.21585,0.976414,0.003845,0.185105,0.138347,0.244217
559,0.220104,0.974886,-0.033819,0.270039,0.4412979999999999,0.278432
560,0.224003,0.972275,-0.067052,0.064465,0.340362,0.115605
561,0.230155,0.968232,-0.097707,0.022866,0.291518,-0.001399
562,0.233232,0.964292,-0.125447,0.018583,0.237063,0.01714
563,0.23654,0.959772,-0.151259,0.090486,0.113165,0.003432
564,0.23889,0.954928,-0.176173,0.141268,0.0714539999999999,-0.0213819999999999
565,0.23956,0.950884,-0.19602,0.04552,-0.14226,0.056844
566,0.239194,0.948111,-0.20944,0.007784,-0.316244,0.05998
567,0.2363449999999999,0.946629,-0.2191489999999999,-0.0070519999999999,-0.426152,0.057101
568,0.2316389999999999,0.946267,-0.225644,-0.030299,-0.404275,0.195691
569,0.224844,0.946907,-0.229796,-0.036215,-0.372169,0.193389
570,0.2178929999999999,0.948694,-0.229119,-0.1002779999999999,-0.288385,0.178612
571,0.211468,0.951027,-0.225438,-0.238705,-0.360298,0.116216
572,0.205895,0.952834,-0.222952,-0.233131,-0.362105,0.11373
573,0.203813,0.953437,-0.222284,-0.162767,-0.373451,0.029749
574,0.204755,0.952319,-0.226178,-0.079694,-0.2188139999999999,-0.09531
575,0.206825,0.950742,-0.230879,-0.049568,-0.210798,-0.089906
576,0.2026349999999999,0.951379,-0.2319679999999999,0.085207,0.141898,-0.071087
577,0.192618,0.953597,-0.231397,0.079034,0.193117,-0.2033569999999999
578,0.186916,0.953578,-0.236101,0.078053,0.067647,-0.180022
579,0.1909549999999999,0.949779,-0.247889,0.0527889999999999,0.277287,0.023325
580,0.203391,0.942538,-0.265043,0.1474089999999999,0.5438970000000001,0.1369
581,0.22061,0.935638,-0.27551,0.156954,0.31958,0.006589
582,0.231131,0.933582,-0.273854,0.122216,0.250515,0.255284
583,0.225417,0.932855,-0.281,0.3311159999999999,-0.021906,0.157831
584,0.211911,0.934104,-0.2872929999999999,0.4871399999999999,-0.299491,0.425171
585,0.2088219999999999,0.935773,-0.284103,0.437754,-0.180677,0.554092
586,0.216663,0.938812,-0.267737,0.118771,0.17154,0.369345
587,0.220833,0.943925,-0.2454199999999999,-0.2379079999999999,0.4196,0.118208
588,0.2178969999999999,0.949698,-0.2249179999999999,-0.244798,0.273661,0.11385
589,0.217452,0.953442,-0.208941,0.087159,0.08614,0.2189199999999999
590,0.227149,0.953661,-0.197298,0.197243,-0.165987,0.290437
591,0.24385,0.952389,-0.182988,0.031205,-0.330776,0.23467
592,0.259309,0.952186,-0.1615319999999999,-0.054002,-0.391716,0.0396139999999999
593,0.266759,0.953503,-0.140229,0.038279,-0.319576,-0.030044
594,0.270531,0.954664,-0.1241819999999999,0.229546,-0.1957839999999999,0.075384
595,0.27713,0.954528,-0.1098519999999999,0.234909,-0.157439,0.070698
596,0.284137,0.954016,-0.095455,0.110974,-0.076925,0.017819
597,0.286009,0.954556,-0.083741,0.070177,-0.099286,0.012513
598,0.28245,0.956435,-0.073789,0.018606,-0.153197,-0.003954
599,0.276579,0.958696,-0.066307,-0.0197889999999999,0.047194,-0.1940069999999999
600,0.271144,0.960471,-0.0629919999999999,-0.045817,0.09028,-0.186367
601,0.266161,0.962151,-0.058434,-0.021471,0.048042,-0.1041329999999999
602,0.262127,0.96356,-0.053224,0.224155,0.023104,-0.019545
603,0.259212,0.964419,-0.051927,0.346517,0.115705,0.010118
604,0.256035,0.96526,-0.052062,0.327812,0.015895,0.004592
605,0.255133,0.965364,-0.054499,0.2162869999999999,-0.0842909999999999,0.062373
606,0.2565969999999999,0.96435,-0.0646409999999999,0.166407,0.039495,0.171254
607,0.257914,0.962329,-0.085996,0.108846,0.0473,0.2857179999999999
608,0.25683,0.95986,-0.112691,0.025046,-0.071493,0.52274
609,0.255587,0.954682,-0.152479,-0.264986,0.268096,0.433256
610,0.266686,0.945264,-0.188007,-0.13517,0.619738,0.36649
611,0.279997,0.935067,-0.217358,0.208346,0.646201,0.017025
612,0.288035,0.927055,-0.239998,0.260519,0.5138020000000001,-0.092628
613,0.2912619999999999,0.921211,-0.2579349999999999,0.095121,0.296838,0.053986
614,0.294513,0.91489,-0.276102,0.151303,0.21745,0.00451
615,0.298415,0.909317,-0.289973,0.077745,0.18605,0.022731
616,0.303031,0.904365,-0.300484,-0.01377,0.017846,0.05056
617,0.306975,0.901039,-0.306413,-0.012664,-0.3498159999999999,0.067247
618,0.307143,0.900975,-0.306434,0.039842,-0.449971,0.164161
619,0.303811,0.903116,-0.303437,-0.02778,-0.483362,0.205155
620,0.29699,0.907084,-0.298313,-0.146782,-0.552851,0.178852
621,0.288188,0.911252,-0.294216,-0.338954,-0.410336,0.066783
622,0.282546,0.914682,-0.288998,-0.298064,-0.353799,0.049176
623,0.281169,0.91604,-0.286024,-0.254115,-0.34208,0.077283
624,0.2836889999999999,0.914843,-0.287361,-0.169935,-0.34595,0.194832
625,0.287693,0.913531,-0.287557,-0.088032,-0.2366349999999999,0.143804
626,0.290021,0.915023,-0.280383,-0.029523,-0.179061,0.166278
627,0.291407,0.917943,-0.269178,-0.033655,-0.169865,0.003385
628,0.296535,0.919073,-0.259548,-0.110775,-0.2697199999999999,0.079494
629,0.303721,0.918495,-0.253209,-0.180567,-0.2874219999999999,0.132329
630,0.308907,0.918785,-0.245773,-0.23246,-0.110161,0.162048
631,0.308894,0.921709,-0.234585,-0.17274,0.209867,0.0523029999999999
632,0.309336,0.924311,-0.223504,-0.148493,0.326574,-0.022834
633,0.31835,0.923285,-0.2149199999999999,-0.067191,-0.056128,-0.125504
634,0.329625,0.921236,-0.206555,-0.234898,-0.444704,-0.037829
635,0.337992,0.920128,-0.197787,-0.221796,-0.626472,0.1046619999999999
636,0.3401659999999999,0.921117,-0.189269,-0.187029,-0.718587,0.061659
637,0.338628,0.921661,-0.189381,0.050792,-0.216857,0.182881
638,0.339946,0.919742,-0.196224,0.670277,0.810666,0.347973
639,0.349934,0.915625,-0.197914,1.052196,1.107584,0.301017
640,0.3593679999999999,0.914841,-0.1841539999999999,-0.176904,0.740005,-0.229343
641,0.3594739999999999,0.911912,-0.197954,0.059013,0.8565200000000001,-0.410811
642,0.36153,0.910248,-0.2018329999999999,0.203259,0.090469,-0.589519
643,0.359686,0.909762,-0.207244,0.316232,-0.531878,-0.169373
644,0.360005,0.90934,-0.208537,0.579616,-0.393609,0.001354
645,0.3583639999999999,0.912604,-0.196775,0.34473,0.161142,0.027829
646,0.345511,0.919818,-0.18587,0.016412,0.80119,0.1216759999999999
647,0.338568,0.924273,-0.176299,-0.22605,-0.087451,-0.001496
648,0.337373,0.925251,-0.17344,-0.0663919999999999,-0.466739,-0.005393
649,0.336294,0.925596,-0.173691,-0.057195,-0.53433,0.068741
650,0.3324539999999999,0.926965,-0.173784,-0.005657,-0.364984,-0.005553
651,0.32388,0.929446,-0.1767,0.093311,-0.288363,-0.033795
652,0.314999,0.931608,-0.181305,0.16695,-0.29579,0.016388
653,0.309534,0.93253,-0.18592,0.056998,-0.258092,0.247214
654,0.306152,0.932223,-0.19293,-0.212555,-0.337069,0.274183
655,0.300202,0.931626,-0.204797,-0.279404,-0.39676,0.392892
656,0.290896,0.930945,-0.220708,-0.33684,-0.497061,0.358587
657,0.282111,0.928918,-0.2398239999999999,-0.391135,-0.099267,0.321977
658,0.279794,0.92184,-0.2681739999999999,-0.222528,1.008412,-0.019027
659,0.291502,0.905883,-0.307236,0.258302,1.401582,0.094086
660,0.304667,0.8931100000000001,-0.330944,0.1496019999999999,0.849932,-0.14481
661,0.307431,0.888274,-0.341244,0.287647,0.152147,-0.13451
662,0.314673,0.883106,-0.347989,0.164072,0.557659,-0.149066
663,0.329949,0.875863,-0.352123,-0.021172,0.679267,-0.127125
664,0.352377,0.866461,-0.353648,-0.251623,0.391382,-0.145756
665,0.3678659999999999,0.862756,-0.346871,-0.240242,-0.540246,0.079949
666,0.37195,0.8664370000000001,-0.333066,-0.169343,-0.724576,0.123807
667,0.367482,0.875675,-0.313275,0.095912,-0.838642,0.062359
668,0.359485,0.887558,-0.288101,-0.009159,-0.591263,-0.09694
669,0.353168,0.896918,-0.266086,-0.046497,-0.607962,-0.1983609999999999
670,0.346405,0.903793,-0.251303,-0.194092,-0.208404,-0.073297
671,0.342555,0.908565,-0.239073,-0.257136,-0.070385,-0.097505
672,0.340544,0.912196,-0.227856,-0.28369,0.258626,-0.048237
673,0.331474,0.918154,-0.217042,-0.232353,0.592389,0.100511
674,0.316667,0.925408,-0.208163,-0.237871,0.592078,0.116763
675,0.3185679999999999,0.927055,-0.197672,-0.229456,-0.5110239999999999,0.085886
676,0.324183,0.928129,-0.182952,-0.255365,-0.682905,0.10765
677,0.333958,0.927918,-0.165622,-0.307789,-0.684998,0.13805
678,0.339961,0.92685,-0.159265,-0.183909,-0.289521,0.122614
679,0.336204,0.9257,-0.173309,0.368019,0.781179,0.264221
680,0.327487,0.924811,-0.1935609999999999,1.04971,1.259332,0.345035
681,0.323997,0.927784,-0.185019,0.091271,0.4730029999999999,-0.230462
682,0.332425,0.926835,-0.174526,0.303134,1.937666,0.1251789999999999
683,0.334398,0.922274,-0.193853,0.29135,0.558775,-0.4657989999999999
684,0.327555,0.924514,-0.1948619999999999,0.198645,-0.544799,-0.122994
685,0.331375,0.922302,-0.198845,0.361969,-0.160202,0.168342
686,0.346566,0.918272,-0.191462,0.143195,-0.1612839999999999,0.167261
687,0.353501,0.919742,-0.170592,-0.133103,0.5200319999999999,0.26396
688,0.343785,0.926875,-0.15068,-0.351536,0.141469,0.183013
689,0.339936,0.930359,-0.137349,-0.021928,-0.324402,0.1063279999999999
690,0.336203,0.933041,-0.128029,-0.146979,-0.379528,-0.023597
691,0.331652,0.935781,-0.11962,-0.134173,-0.35108,-0.0346459999999999
692,0.325086,0.93769,-0.122654,0.011141,-0.495292,0.071552
693,0.312219,0.940578,-0.133494,0.074607,-0.504467,0.064677
694,0.294738,0.944965,-0.141986,0.1645049999999999,-0.404163,-0.164441
695,0.278679,0.948379,-0.15134,0.290565,-0.318588,-0.232907
696,0.267329,0.9496,-0.163659,0.238683,-0.455292,-0.064826
697,0.26106,0.948661,-0.178548,0.06502,-0.608527,0.171193
698,0.256526,0.947613,-0.1903,-0.117793,-0.41325,0.4227069999999999
699,0.252592,0.946359,-0.201477,-0.174925,-0.362954,0.335495
700,0.251284,0.943087,-0.217795,-0.349581,-0.148897,0.193198
701,0.255506,0.932972,-0.253517,-0.507383,0.57835,-0.185829
702,0.27115,0.912311,-0.306852,-0.018312,1.615125,0.172224
703,0.29373,0.888388,-0.3528179999999999,0.5024890000000001,1.205117,-0.322978
704,0.297527,0.880632,-0.368723,0.102161,0.111403,-0.327246
705,0.293028,0.881059,-0.371298,0.1020679999999999,0.4226979999999999,-0.210535
706,0.309957,0.874592,-0.372837,0.358668,0.938366,-0.137707
707,0.330977,0.8676510000000001,-0.370983,0.086259,0.409922,-0.2383159999999999
708,0.343184,0.866597,-0.362252,-0.027694,-0.149556,-0.301811
709,0.348224,0.8694219999999999,-0.350481,-0.036532,-0.200644,-0.055586
710,0.346765,0.8739040000000001,-0.340642,-0.071389,-0.364367,0.132787
711,0.341903,0.880067,-0.329506,-0.115249,-0.482439,0.205163
712,0.334829,0.888375,-0.314117,-0.148718,-0.668664,0.274704
713,0.325468,0.8979950000000001,-0.296085,-0.221113,-0.8745120000000001,0.221988
714,0.312748,0.909946,-0.272354,-0.2651409999999999,-0.857318,0.186096
715,0.300212,0.922342,-0.243202,-0.440562,-0.433664,0.072975
716,0.291056,0.931495,-0.218156,-0.374217,-0.009071,0.079576
717,0.285018,0.937206,-0.200991,-0.257858,0.340458,-0.17085
718,0.283591,0.93941,-0.192546,-0.2387,0.372388,-0.028645
719,0.287919,0.938033,-0.1928349999999999,-0.293229,0.249803,0.127116
720,0.294669,0.936147,-0.1918,-0.316825,-0.1756339999999999,0.304043
721,0.304621,0.934992,-0.181614,-0.184825,-0.634867,0.075428
722,0.31533,0.933431,-0.17106,-0.1557839999999999,-0.769338,0.106774
723,0.321919,0.931053,-0.17175,0.064846,-0.263023,0.205289
724,0.323602,0.928664,-0.181256,0.546637,0.994401,-0.094333
725,0.322026,0.925741,-0.198221,0.997645,1.508433,-0.072042
726,0.320816,0.927038,-0.194079,-0.032593,0.342173,-0.346616
727,0.332318,0.924873,-0.184833,0.189593,0.724282,0.074451
728,0.346498,0.916247,-0.201047,0.68788,0.8200200000000001,-0.031192
729,0.352963,0.91481,-0.196287,0.3075739999999999,0.221161,-0.3332239999999999
730,0.352794,0.915043,-0.195507,-0.038402,-0.3709909999999999,0.117992
731,0.357934,0.91319,-0.194826,0.152854,-0.126385,0.249773
732,0.361908,0.914882,-0.178892,0.1605069999999999,0.039876,0.117613
733,0.355534,0.919944,-0.165187,-0.113942,0.453179,-0.0309649999999999
734,0.343311,0.924663,-0.164692,0.126614,-0.068661,-0.01466
735,0.334432,0.927267,-0.168285,0.152263,-0.290243,-0.032124
736,0.328735,0.929219,-0.168738,-0.041427,-0.623632,0.090751
737,0.322736,0.930639,-0.172457,-0.029798,-0.406988,0.0541409999999999
738,0.313113,0.931137,-0.1869029999999999,-0.020175,-0.407486,0.068587
739,0.300692,0.931634,-0.204038,-0.1262839999999999,-0.37925,0.3230719999999999
740,0.288645,0.931655,-0.220664,-0.361857,-0.5606369999999999,0.368216
741,0.279036,0.930414,-0.2376059999999999,-0.449568,-0.727808,0.267376
742,0.272371,0.928544,-0.252207,-0.2089099999999999,-0.259553,0.091684
743,0.268146,0.922947,-0.2761429999999999,0.115994,0.8021659999999999,-0.075084
744,0.272837,0.909216,-0.314445,0.7365010000000001,1.584985,0.191017
745,0.290326,0.896683,-0.334157,0.201389,0.91629,0.089986
746,0.300753,0.889958,-0.3428,-0.09569,0.408626,-0.125324
747,0.304373,0.884581,-0.353362,-0.016333,0.661791,-0.263398
748,0.310733,0.879972,-0.359284,-0.2534369999999999,0.381411,-0.189025
749,0.3236199999999999,0.875033,-0.3599699999999999,-0.353298,-0.299594,-0.154877
750,0.341382,0.8676450000000001,-0.3614449999999999,-0.088117,-0.486068,-0.062674
751,0.349936,0.864771,-0.360148,0.411386,-0.22024,0.116923
752,0.34194,0.8720399999999999,-0.350163,0.239587,-0.015946,0.035572
753,0.330561,0.8848959999999999,-0.3281449999999999,0.029363,0.180167,-0.089457
754,0.324922,0.897126,-0.299301,-0.371583,-0.107652,-0.120895
755,0.322666,0.905513,-0.27554,-0.343784,-0.447841,-0.121113
756,0.32065,0.910908,-0.259654,-0.307604,-0.550114,-0.09258
757,0.3201449999999999,0.914181,-0.2485369999999999,-0.2676699999999999,-0.604504,-0.008421
758,0.3215699999999999,0.916282,-0.2387679999999999,-0.164786,-0.29473,0.084807
759,0.322377,0.918926,-0.227241,-0.156209,-0.063762,-0.042474
760,0.32429,0.920942,-0.216081,-0.139339,-0.71353,-0.040816
761,0.331995,0.919872,-0.208815,-0.199488,-0.912533,0.144728
762,0.3393739999999999,0.918956,-0.2008329999999999,-0.256275,-0.940151,0.514432
763,0.345362,0.917383,-0.197797,0.061957,0.50759,0.472608
764,0.351114,0.913396,-0.2059489999999999,1.006857,2.574793,-0.271209
765,0.346756,0.914411,-0.208812,0.933594,1.587039,-0.556371
766,0.351061,0.913564,-0.2052989999999999,0.117888,0.111613,0.1093359999999999
767,0.36285,0.909837,-0.201312,0.443532,1.103683,-0.134168
768,0.360617,0.908951,-0.20917,0.746576,1.972518,0.105944
769,0.3437389999999999,0.916854,-0.203005,0.024654,-0.17752,-0.089673
770,0.341641,0.920235,-0.190887,-0.215283,-0.382805,-0.117447
771,0.351434,0.916805,-0.189605,0.020117,0.205707,-0.154587
772,0.351077,0.91762,-0.186301,0.024076,-0.131395,0.033331
773,0.338284,0.922134,-0.187671,-0.011487,-0.290939,0.193576
774,0.324052,0.926246,-0.192477,-0.002061,-0.436713,0.238742
775,0.310896,0.931454,-0.189014,0.074205,-0.679546,-0.016766
776,0.300561,0.93561,-0.185165,0.030555,-0.798922,-0.042954
777,0.294178,0.937666,-0.185016,-0.062123,-0.845304,0.062488
778,0.286943,0.938221,-0.193374,-0.126894,-0.661381,0.225082
779,0.276854,0.937986,-0.208619,-0.075209,-0.577376,0.293046
780,0.263865,0.938797,-0.221413,-0.028941,-0.404999,0.323631
781,0.2536,0.937542,-0.238098,-0.225051,-0.542004,0.2420199999999999
782,0.249317,0.93212,-0.262644,-0.4144319999999999,-0.3991159999999999,0.163264
783,0.252742,0.922769,-0.290873,-0.2652239999999999,0.5809989999999999,0.05012
784,0.265442,0.904147,-0.334736,0.499374,1.919736,0.0413399999999999
785,0.284771,0.8839319999999999,-0.370892,0.8455090000000001,1.559123,-0.281681
786,0.2933199999999999,0.8764139999999999,-0.3819079999999999,0.273758,0.887167,-0.213689
787,0.3088059999999999,0.8668110000000001,-0.391495,0.1985029999999999,1.0689799999999998,-0.359512
788,0.325117,0.855408,-0.4031969999999999,-0.100157,1.103851,-0.369691
789,0.332397,0.851029,-0.406513,-0.07225,0.2393179999999999,-0.18272
790,0.336667,0.851231,-0.402557,0.151049,-0.720997,-0.053665
791,0.338213,0.855284,-0.392545,0.165388,-0.800246,0.082959
792,0.335566,0.862906,-0.377862,0.021962,-0.607855,0.180764
793,0.3271989999999999,0.8730129999999999,-0.361635,-0.2013599999999999,-0.277203,0.176317
794,0.317212,0.88456,-0.341936,-0.268628,-0.254692,0.166872
795,0.302571,0.89781,-0.3199639999999999,-0.320943,-0.210798,0.147311
796,0.287675,0.910344,-0.2974989999999999,-0.312974,-0.3619429999999999,0.102919
797,0.279283,0.919319,-0.277204,-0.263825,-0.63015,0.15933
798,0.280541,0.924238,-0.258977,-0.274468,-0.70413,0.17542
799,0.287326,0.926288,-0.243765,-0.227008,-0.395221,0.1100829999999999
800,0.288969,0.928686,-0.2324369999999999,-0.182523,0.16604,-0.048752
801,0.28689,0.932059,-0.221241,-0.2454469999999999,-0.220557,-0.038235
802,0.29672,0.93177,-0.209162,-0.235273,-0.793403,0.080759
803,0.312389,0.92954,-0.195844,-0.335461,-0.721807,0.370771
804,0.320103,0.928753,-0.186917,-0.156681,-0.106396,0.193799
805,0.313117,0.928791,-0.198224,1.116449,2.492047,0.4641689999999999
806,0.294813,0.9305,-0.217354,1.27318,1.446179,-0.299903
807,0.292417,0.932306,-0.212802,0.70386,0.260504,-0.68472
808,0.311463,0.926676,-0.210357,0.50888,0.1645569999999999,-0.268159
809,0.32299,0.920968,-0.217904,0.749123,0.615913,-0.1928619999999999
810,0.323155,0.920208,-0.220849,0.620616,1.348209,-0.09571
811,0.3165969999999999,0.924943,-0.2103179999999999,0.036034,0.226028,-0.013421
812,0.315076,0.928556,-0.196209,0.017276,0.05617,0.074597
813,0.314137,0.933065,-0.175198,0.0080069999999999,-0.049123,0.158093
814,0.307424,0.939902,-0.14853,-0.261846,0.094598,0.117341
815,0.296781,0.94648,-0.126814,-0.311079,-0.004189,0.1325059999999999
816,0.288242,0.951363,-0.108674,-0.028645,-0.245827,0.1059119999999999
817,0.277667,0.956369,-0.090805,0.1532099999999999,-0.5231560000000001,-0.038147
818,0.263544,0.961491,-0.077877,0.1565,-0.592305,-0.055088
819,0.244759,0.967028,-0.070246,0.241417,-0.635745,-0.044653
820,0.225536,0.972438,-0.059022,0.290821,-0.614863,-0.0961289999999999
821,0.2089079999999999,0.976755,-0.047881,0.461914,-0.287409,-0.136033
822,0.194388,0.980077,-0.040592,0.5468529999999999,-0.05071,-0.1804319999999999
823,0.180722,0.982741,-0.039304,0.4665859999999999,-0.190993,-0.2349119999999999
824,0.167167,0.984942,-0.043937,0.477852,-0.415255,-0.149559
825,0.153909,0.98681,-0.05003,0.243751,-0.5478149999999999,0.034955
826,0.143039,0.988022,-0.057776,-0.095203,-0.472077,0.35488
827,0.134703,0.988223,-0.072499,-0.18437,0.1517,0.501912
828,0.13093,0.985668,-0.1063119999999999,-0.258448,0.676914,0.403599
829,0.142283,0.978595,-0.148639,0.0466209999999999,0.992535,0.475483
830,0.165451,0.967601,-0.190689,0.532501,0.766728,0.149918
831,0.185721,0.955948,-0.227287,0.451532,0.99527,0.132698
832,0.193903,0.9493,-0.247425,0.2549949999999999,1.356074,0.039539
833,0.201172,0.944704,-0.258946,0.123413,0.992674,-0.197658
834,0.209019,0.937929,-0.276748,0.219738,0.348326,-0.189835
835,0.222975,0.928884,-0.295713,0.1052109999999999,-0.058431,0.048658
836,0.242356,0.920197,-0.3073909999999999,-0.034074,-0.322923,0.267459
837,0.2621969999999999,0.912809,-0.313084,0.03506,-0.360914,0.277119
838,0.267763,0.909473,-0.318044,0.210127,-0.415897,0.273901
839,0.252319,0.915913,-0.312135,0.187577,-0.412297,0.389253
840,0.2304699999999999,0.926313,-0.298023,-0.191377,-0.331586,0.411366
841,0.215696,0.933405,-0.286738,-0.410124,-0.308924,0.349894
842,0.2050929999999999,0.937891,-0.279798,-0.276062,-0.459207,0.041394
843,0.194145,0.942321,-0.272631,-0.194984,-0.500961,0.004427
844,0.181802,0.948332,-0.260007,-0.072824,-0.493742,0.0464759999999999
845,0.171416,0.953544,-0.247707,0.061479,-0.436134,0.075375
846,0.163236,0.956391,-0.242195,0.239901,0.3307489999999999,-0.133598
847,0.153651,0.958561,-0.239877,0.400701,0.857144,-0.175147
848,0.145532,0.959557,-0.240954,0.316642,0.2218699999999999,-0.479627
849,0.14669,0.959483,-0.240546,0.1844869999999999,-0.0975289999999999,-0.344186
850,0.15611,0.95688,-0.244946,0.337451,0.167769,-0.006657
851,0.165221,0.949911,-0.265253,0.445405,0.361567,-0.006109
852,0.172786,0.946677,-0.271912,0.344075,0.225564,0.261231
853,0.176332,0.947615,-0.266308,-0.030824,0.47693,0.2334409999999999
854,0.170987,0.949525,-0.26297,0.410754,0.154204,0.18695
855,0.156742,0.952646,-0.260548,0.594783,-0.1290369999999999,0.380696
856,0.143996,0.954346,-0.261678,0.546419,-0.2630929999999999,0.591009
857,0.142156,0.957834,-0.249666,0.168787,-0.025247,0.422731
858,0.138419,0.964653,-0.224215,-0.063819,0.1173329999999999,0.178698
859,0.131608,0.970865,-0.200215,-0.2986,0.184835,0.079289
860,0.128945,0.974233,-0.1850109999999999,-0.005197,-0.068303,0.2115159999999999
861,0.136938,0.974638,-0.1769619999999999,0.153727,-0.159238,0.281958
862,0.151496,0.974222,-0.1671119999999999,0.256203,-0.130243,0.264051
863,0.163771,0.975705,-0.145481,-0.001082,-0.206417,0.079014
864,0.167428,0.978608,-0.119492,-0.103188,-0.238054,0.000595
865,0.16295,0.981605,-0.099413,-0.1026779999999999,-0.118751,-0.00688
866,0.158608,0.983469,-0.087275,0.03997,-0.1331119999999999,0.0136969999999999
867,0.158792,0.984047,-0.080132,0.087241,-0.190193,0.028985
868,0.159118,0.984756,-0.070147,0.248398,-0.241882,0.016391
869,0.155111,0.986423,-0.053794,0.370677,-0.17168,-0.004967
870,0.14797,0.988433,-0.032975,0.4164529999999999,-0.015854,-0.007476
871,0.139018,0.99014,-0.016748,0.257848,0.116077,-0.085104
872,0.1297839999999999,0.991509,-0.006906,0.075553,0.158576,-0.1716069999999999
873,0.1203859999999999,0.992718,-0.000645,0.235388,0.205784,-0.152874
874,0.11232,0.993663,0.0007639999999999,0.6193850000000001,0.13329,-0.225404
875,0.106292,0.994325,-0.000995,0.751603,0.030195,-0.2313199999999999
876,0.102916,0.994676,-0.00305,0.719685,0.0481399999999999,-0.1127329999999999
877,0.102826,0.994673,-0.005822,0.627704,0.123735,0.0420769999999999
878,0.104992,0.994391,-0.012088,0.271427,-0.085592,0.12836
879,0.1074589999999999,0.994015,-0.019232,0.062859,-0.285549,0.377341
880,0.111121,0.99333,-0.0305089999999999,0.309427,-0.272123,0.459495
881,0.117413,0.991791,-0.05047,0.549259,0.302535,0.408045
882,0.127893,0.989026,-0.073857,0.329154,0.630206,0.396946
883,0.143745,0.985016,-0.095212,-0.127692,0.651886,0.1577579999999999
884,0.157047,0.98046,-0.118398,-0.3486059999999999,0.5474479999999999,-0.020213
885,0.165164,0.97504,-0.148333,-0.066927,0.1865349999999999,0.050265
886,0.172003,0.969162,-0.176427,0.1875099999999999,-0.1054069999999999,0.101659
887,0.17345,0.965792,-0.192734,0.366177,-0.29407,-0.0401
888,0.169539,0.964288,-0.203448,0.319886,-0.271875,-0.0173159999999999
889,0.162598,0.962943,-0.215148,0.191833,-0.16616,-0.051179
890,0.1560119999999999,0.962266,-0.222913,0.088616,-0.1330579999999999,0.156125
891,0.151691,0.961888,-0.22748,0.050381,-0.334569,0.267397
892,0.148037,0.962261,-0.228311,-0.071286,-0.417034,0.3326659999999999
893,0.142763,0.963697,-0.225598,-0.163911,-0.387861,0.311825
894,0.137826,0.965589,-0.220518,-0.2978909999999999,-0.189588,0.233229
895,0.136187,0.967141,-0.214659,-0.237337,-0.191369,0.089827
896,0.1388619999999999,0.967922,-0.209361,-0.149803,-0.205455,0.052745
897,0.143489,0.968021,-0.205751,-0.008418,-0.18227,-0.048109
898,0.147226,0.968151,-0.202474,0.336661,0.023212,-0.215953
899,0.146221,0.969536,-0.196483,0.372059,0.099037,-0.276051
900,0.1422109999999999,0.971407,-0.190083,0.243944,0.050474,-0.265758
901,0.1441869999999999,0.971651,-0.187325,0.204599,-0.17731,-0.222908
902,0.152193,0.970164,-0.188696,0.133146,0.0090689999999999,-0.17251
903,0.162548,0.96712,-0.1955589999999999,0.245609,0.5095029999999999,-0.079114
904,0.174096,0.962258,-0.209137,0.156608,0.30088,0.123779
905,0.188583,0.958106,-0.21554,-0.063277,0.382333,0.212763
906,0.2059489999999999,0.953235,-0.221169,-0.117143,0.543362,0.140877
907,0.215123,0.951639,-0.219303,0.345882,-0.331735,0.250477
908,0.21239,0.952818,-0.216833,0.382749,-0.565107,0.391653
909,0.2106829999999999,0.953471,-0.2156219999999999,0.308788,-0.399501,0.4109649999999999
910,0.2133489999999999,0.955324,-0.204511,0.050979,0.225065,0.25308
911,0.2088679999999999,0.960249,-0.185158,-0.017355,0.4891069999999999,0.1188589999999999
912,0.2023869999999999,0.965431,-0.164222,-0.112528,0.459221,0.010276
913,0.20984,0.966199,-0.1497109999999999,0.106459,-0.111097,0.328788
914,0.223779,0.964715,-0.138693,0.0037,-0.156868,0.324454
915,0.234557,0.964777,-0.1190619999999999,-0.135711,-0.192575,0.11366
916,0.237179,0.966536,-0.097677,-0.141033,-0.107253,0.036871
917,0.234513,0.968564,-0.082913,0.013366,-0.014706,0.012464
918,0.233817,0.96961,-0.071917,0.125192,-0.135717,0.006579
919,0.237591,0.969344,-0.062514,0.141788,-0.296493,0.074645
920,0.242575,0.968674,-0.053058,0.148096,-0.297531,0.017353
921,0.245871,0.968425,-0.041075,0.0974059999999999,-0.142924,-0.075457
922,0.2473429999999999,0.968453,-0.030092,0.049104,-0.026437,-0.217696
923,0.2478719999999999,0.968459,-0.025153,0.099784,-0.048415,-0.2096039999999999
924,0.246829,0.968822,-0.021087,0.192441,-0.115078,-0.102464
925,0.244228,0.969582,-0.015785,0.2413219999999999,-0.049233,-0.0351029999999999
926,0.239953,0.970705,-0.011879,0.201591,0.1010269999999999,-0.038078
927,0.236957,0.971433,-0.01244,0.164716,0.203265,-0.112255
928,0.236351,0.971482,-0.01864,0.1915059999999999,0.164535,-0.083289
929,0.235419,0.971446,-0.029279,0.306573,0.1097619999999999,0.034619
930,0.232326,0.971763,-0.0410839999999999,0.243825,-0.007133,0.07653
931,0.2292159999999999,0.971546,-0.059548,0.0357829999999999,-0.14423,0.259301
932,0.227996,0.970033,-0.0839159999999999,-0.298385,-0.026322,0.289742
933,0.229746,0.966296,-0.11609,-0.346125,0.083539,0.191392
934,0.2376489999999999,0.960095,-0.1474059999999999,0.318305,0.467502,-0.00094
935,0.247767,0.952716,-0.175873,0.497656,0.446988,-0.165299
936,0.25785,0.946028,-0.196298,0.545297,0.346865,-0.23403
937,0.260728,0.942522,-0.208953,0.2126,-0.022341,-0.078996
938,0.266468,0.937374,-0.224305,0.102916,0.0038179999999999,-0.0744929999999999
939,0.276011,0.930041,-0.242549,-0.08021,0.102369,-0.061162
940,0.280555,0.924356,-0.25854,-0.068717,0.0440889999999999,-0.002477
941,0.277711,0.922164,-0.269217,-0.0139169999999999,0.0007019999999999,0.055533
942,0.273037,0.921986,-0.274557,0.0418889999999999,-0.315434,0.101308
943,0.269225,0.92214,-0.277785,0.005738,-0.398382,0.159789
944,0.265879,0.922677,-0.2792219999999999,-0.045542,-0.408059,0.1791859999999999
945,0.2615719999999999,0.923975,-0.278997,-0.252035,-0.247217,0.136724
946,0.258055,0.926075,-0.275284,-0.224165,-0.180027,0.131714
947,0.255681,0.928712,-0.268534,-0.128788,-0.142717,0.085795
948,0.2554,0.930934,-0.261004,-0.055921,-0.119044,0.039629
949,0.256664,0.932494,-0.254103,0.002949,-0.184172,-0.006502
950,0.256116,0.934152,-0.248503,-0.0309879999999999,-0.212396,-0.0089129999999999
951,0.255206,0.936478,-0.240558,-0.085864,-0.230988,0.038288
952,0.254942,0.939629,-0.228234,-0.109419,-0.211709,0.030282
953,0.253807,0.943024,-0.2151199999999999,-0.108467,-0.261368,0.064836
954,0.254334,0.945547,-0.203085,-0.070313,-0.390188,0.02999
955,0.256717,0.947344,-0.191374,-0.031025,-0.4295819999999999,-0.0307779999999999
956,0.259536,0.948697,-0.180562,-0.008621,-0.375699,-0.048717
957,0.264393,0.949104,-0.171129,0.042064,-0.132759,-0.0072159999999999
958,0.275597,0.947771,-0.160514,-0.020729,-0.123491,0.008293
959,0.290579,0.945294,-0.148225,-0.08721,-0.037899,-0.160353
960,0.3024699999999999,0.943393,-0.13605,-0.109843,-0.01517,-0.178799
961,0.307755,0.943254,-0.124679,-0.098176,0.00128,-0.167114
962,0.3104,0.943637,-0.114839,-0.063147,-0.140948,-0.172042
963,0.317357,0.942311,-0.106404,-0.151372,-0.355564,-0.122172
964,0.327342,0.939855,-0.097501,-0.210338,-0.414083,-0.0221889999999999
965,0.33298,0.938463,-0.091645,0.076428,0.168425,0.259721
966,0.33111,0.938748,-0.095426,0.322439,0.4565619999999999,0.208006
967,0.325494,0.940191,-0.100414,0.5380159999999999,0.676814,0.294842
968,0.319013,0.94261,-0.098511,0.308459,0.751268,-0.051117
969,0.320031,0.943294,-0.08812,-0.256325,0.445317,-0.118438
970,0.32177,0.940989,-0.104835,-0.1657799999999999,0.954869,-0.065148
971,0.310004,0.942836,-0.122253,0.667566,0.655613,-0.4212649999999999
972,0.302284,0.944952,-0.125214,0.3331989999999999,-0.328879,-0.143951
973,0.309585,0.941912,-0.13018,0.1335609999999999,-0.5896020000000001,0.136039
974,0.321535,0.938983,-0.122122,-0.0980549999999999,-0.358692,0.2326869999999999
975,0.327457,0.939479,-0.100694,-0.167926,0.070637,0.191941
976,0.323901,0.943071,-0.075449,-0.247165,0.397383,0.031275
977,0.323362,0.944646,-0.055382,-0.044279,-0.07871,0.0346
978,0.324797,0.944833,-0.042248,-0.084913,-0.229882,-0.018482
979,0.323473,0.945656,-0.032969,0.012373,-0.291634,-0.090184
980,0.318127,0.947661,-0.02685,0.017719,-0.293639,-0.096304
981,0.3124429999999999,0.94962,-0.024262,0.1211049999999999,-0.221654,-0.153671
982,0.307194,0.951283,-0.02608,0.172725,-0.2231179999999999,-0.2301909999999999
983,0.30133,0.952907,-0.034006,0.1746069999999999,-0.276591,-0.248296
984,0.296295,0.954043,-0.044708,0.151749,-0.423404,-0.205521
985,0.29245,0.954807,-0.052971,0.094986,-0.4929689999999999,-0.066567
986,0.288265,0.955741,-0.058753,0.153996,-0.397757,-0.045769
987,0.278694,0.958145,-0.065396,0.240211,-0.148331,-0.182666
988,0.265198,0.961213,-0.075687,0.300872,0.052444,-0.179714
989,0.251745,0.963602,-0.0899129999999999,0.163248,-0.107752,-0.083671
990,0.2425699999999999,0.964491,-0.1044359999999999,-0.017213,-0.351881,-0.002619
991,0.236257,0.964315,-0.119457,-0.044393,-0.51888,0.098156
992,0.233215,0.963037,-0.134762,-0.174896,-0.504205,0.2084619999999999
993,0.2338869999999999,0.959911,-0.154462,-0.400528,0.190053,0.096814
994,0.2405769999999999,0.952272,-0.18786,-0.156593,1.233977,0.08999
995,0.250035,0.94019,-0.231337,0.309154,1.068355,0.041686
996,0.257892,0.930345,-0.260655,0.139874,0.6649,-0.190761
997,0.265529,0.924769,-0.272557,0.104191,0.082341,-0.043742
998,0.283065,0.915896,-0.284607,0.005067,0.544752,-0.315185
999,0.301712,0.906016,-0.296811,-0.012177,0.83962,-0.334079
1000,0.316249,0.89885,-0.3033929999999999,-0.082393,0.172485,-0.287991
1001,0.326775,0.8959440000000001,-0.300823,0.04264,-0.384103,-0.105198
1002,0.333456,0.89638,-0.292064,0.073007,-0.695453,0.0369209999999999
1003,0.336519,0.8998379999999999,-0.277557,0.075758,-0.620923,0.12178
1004,0.333306,0.906298,-0.2598519999999999,-0.198464,-0.299349,0.025218
1005,0.3287199999999999,0.913039,-0.241442,-0.326264,-0.263762,-0.077864
1006,0.322713,0.919396,-0.224851,-0.33579,-0.258797,-0.011568
1007,0.316923,0.925165,-0.208855,-0.245177,-0.496561,0.009301
1008,0.312315,0.930104,-0.193279,-0.207929,-0.5474899999999999,0.030224
1009,0.310169,0.933868,-0.177982,-0.186908,-0.417281,0.027194
1010,0.305769,0.938068,-0.1628609999999999,-0.189909,-0.050785,-0.115704
1011,0.295689,0.944,-0.146363,-0.031727,0.496826,-0.156799
1012,0.289508,0.947592,-0.135071,-0.15111,0.554742,-0.049545
1013,0.295118,0.946824,-0.128143,-0.169996,-0.714448,-0.02005
1014,0.303551,0.945505,-0.1177609999999999,-0.173012,-0.959497,-0.103491
1015,0.3164949999999999,0.943814,-0.095063,-0.2091489999999999,-1.116375,-0.093322
1016,0.326466,0.941797,-0.080182,-0.219822,-0.526941,-0.040179
1017,0.332715,0.938455,-0.092706,0.2252989999999999,0.185065,0.209405
1018,0.3310059999999999,0.935724,-0.121843,1.250613,2.2448330000000003,-0.2179699999999999
1019,0.322748,0.939475,-0.114936,0.49996,1.172234,-0.276025
1020,0.327046,0.938325,-0.1121539999999999,-0.197788,0.402358,-0.0589429999999999
1021,0.333917,0.934121,-0.126128,0.932914,0.63047,-0.220185
1022,0.324013,0.937454,-0.127223,0.3296739999999999,0.001373,-0.1069079999999999
1023,0.3154679999999999,0.940575,-0.125653,0.226265,-0.274636,0.300305
1024,0.318988,0.940674,-0.115621,-0.152362,-0.12822,0.132803
1025,0.325254,0.940164,-0.101447,-0.21568,0.2318489999999999,0.009254
1026,0.321337,0.942044,-0.096359,-0.12633,-0.001019,-0.1011659999999999
1027,0.312031,0.94527,-0.0953519999999999,-0.000996,-0.160403,-0.059845
1028,0.305827,0.946892,-0.099271,0.03951,-0.448937,-0.151599
1029,0.30255,0.947574,-0.102747,0.142732,-0.575091,-0.1102349999999999
1030,0.299098,0.94834,-0.105741,0.223271,-0.431113,-0.170596
1031,0.2938389999999999,0.949055,-0.113763,0.22644,-0.291646,-0.035804
1032,0.28578,0.949543,-0.129179,0.078325,-0.351704,0.206785
1033,0.275041,0.950314,-0.145757,-0.158403,-0.5352899999999999,0.303838
1034,0.264817,0.950616,-0.161838,-0.190644,-0.594109,0.276935
1035,0.2620679999999999,0.9476,-0.182663,-0.339414,-0.453657,0.214035
1036,0.266719,0.939133,-0.216519,-0.4136149999999999,0.698059,-0.2867159999999999
1037,0.279323,0.924054,-0.260949,-0.023418,1.474598,0.011635
1038,0.28758,0.913406,-0.28806,0.61069,1.183152,-0.102351
1039,0.2896019999999999,0.911398,-0.29236,0.159647,0.129236,-0.273374
1040,0.2959449999999999,0.909167,-0.292956,0.201614,0.299055,-0.22357
1041,0.310471,0.902656,-0.29801,0.106887,0.699455,-0.307795
1042,0.324316,0.8976700000000001,-0.298328,-0.314123,0.4269,-0.190808
1043,0.334755,0.895853,-0.292192,-0.297417,-0.255167,-0.204024
1044,0.3407469999999999,0.897789,-0.279025,-0.056507,-0.681557,-0.028775
1045,0.341506,0.902715,-0.261666,0.04509,-0.6217699999999999,0.047997
1046,0.338376,0.909633,-0.240953,0.012591,-0.521266,-0.115553
1047,0.33095,0.918202,-0.217635,-0.066393,-0.481633,-0.191545
1048,0.318969,0.927723,-0.19385,-0.198699,-0.343647,-0.070325
1049,0.309272,0.935181,-0.1725529999999999,-0.244941,-0.17656,0.093284
1050,0.308221,0.93874,-0.154123,-0.245096,-0.074986,0.122598
1051,0.313755,0.939855,-0.134972,-0.216403,0.154093,0.012856
1052,0.31722,0.94127,-0.11563,-0.24944,0.360275,-0.1883099999999999
1053,0.320893,0.94173,-0.10079,-0.120057,-0.050785,-0.169291
1054,0.328045,0.939828,-0.095372,-0.234814,-0.512842,0.063863
1055,0.335115,0.937447,-0.094219,-0.16176,-0.6838310000000001,-0.025043
1056,0.341644,0.935196,-0.09314,-0.073943,-0.452637,0.156281
1057,0.346576,0.932427,-0.102232,0.297284,0.075431,0.125974
1058,0.355301,0.927127,-0.119098,1.076889,1.226774,-0.150098
1059,0.359606,0.924728,-0.124695,0.607161,1.130295,0.0446779999999999
1060,0.354536,0.928189,-0.11294,-0.261229,1.390598,-0.14118
1061,0.345305,0.930178,-0.124579,-0.0259839999999999,0.964155,-0.162653
1062,0.340902,0.93024,-0.135743,0.3164,-0.084842,-0.324585
1063,0.33783,0.929438,-0.148334,0.535079,-0.122537,0.062214
1064,0.339217,0.929124,-0.1471309999999999,0.389177,-0.292832,0.269675
1065,0.344993,0.930013,-0.126656,0.081384,-0.2210739999999999,0.244255
1066,0.343403,0.9333,-0.104933,-0.378376,0.226063,0.014769
1067,0.3366409999999999,0.937045,-0.092762,-0.149858,-0.072268,-0.037625
1068,0.329278,0.940121,-0.087944,-0.007317,-0.327679,-0.113838
1069,0.32499,0.941595,-0.088127,-0.013893,-0.554296,-0.065789
1070,0.3208789999999999,0.942728,-0.091028,-0.069613,-0.630258,-0.019583
1071,0.315505,0.94434,-0.093077,-0.04843,-0.562016,-0.081469
1072,0.307697,0.946761,-0.094619,0.121396,-0.342589,-0.045152
1073,0.2979989999999999,0.949735,-0.0958379999999999,0.240774,-0.120649,-0.07831
1074,0.287487,0.952593,-0.099516,0.167759,-0.1033039999999999,-0.083758
1075,0.2778199999999999,0.954543,-0.107931,0.019025,-0.353927,0.020453
1076,0.268846,0.955409,-0.122071,-0.019334,-0.469234,0.07541
1077,0.261207,0.955274,-0.138599,-0.021766,-0.539975,0.183353
1078,0.257401,0.953549,-0.15645,-0.1598359999999999,-0.451611,0.28351
1079,0.257134,0.949161,-0.181556,-0.249687,-0.137394,0.1105109999999999
1080,0.264733,0.938548,-0.221431,-0.233483,0.994954,-0.260213
1081,0.281859,0.921843,-0.265987,0.34784,1.212251,-0.276692
1082,0.296373,0.911101,-0.286437,0.252394,0.895432,-0.40915
1083,0.302369,0.906531,-0.294556,0.25656,0.126001,-0.3457179999999999
1084,0.319005,0.896702,-0.306838,0.003627,0.97343,-0.513795
1085,0.343338,0.8833129999999999,-0.319166,0.070618,0.963977,-0.234957
1086,0.360641,0.873383,-0.327306,-0.018844,-0.14444,-0.157572
1087,0.362743,0.872826,-0.32647,0.058141,-0.519493,0.089791
1088,0.35647,0.8791329999999999,-0.316296,0.059958,-0.6428659999999999,0.162457
1089,0.345928,0.890023,-0.296955,-0.212261,-0.478249,0.194431
1090,0.336355,0.9003709999999999,-0.276019,-0.370642,-0.3592329999999999,0.090472
1091,0.32871,0.908634,-0.257529,-0.416112,-0.409977,0.088722
1092,0.321344,0.915591,-0.2417,-0.42106,-0.4198939999999999,0.142991
1093,0.314822,0.921635,-0.226855,-0.381091,-0.487431,0.060107
1094,0.311791,0.926777,-0.2094219999999999,-0.2922599999999999,-0.493839,-0.05341
1095,0.310749,0.93091,-0.191907,-0.1909819999999999,-0.367311,-0.011035
1096,0.310821,0.933794,-0.177218,-0.101775,-0.027772,-0.055372
1097,0.314123,0.935041,-0.164347,-0.255194,0.121477,-0.231894
1098,0.324653,0.932712,-0.156951,-0.3749159999999999,-0.014484,-0.0982519999999999
1099,0.334698,0.929191,-0.156737,-0.169338,-0.340507,-0.008714
1100,0.34031,0.928277,-0.149918,-0.0205319999999999,-0.4568569999999999,-0.138427
1101,0.34093,0.929861,-0.138239,-0.035373,-0.180593,-0.080709
1102,0.337485,0.929997,-0.145587,0.255655,0.24786,-0.009656
1103,0.337384,0.92618,-0.16837,1.001682,1.553877,0.111668
1104,0.343547,0.920991,-0.183674,0.995518,1.559066,0.126973
1105,0.350529,0.92083,-0.17084,0.077449,0.034446,-0.1163609999999999
1106,0.365733,0.915165,-0.169401,0.199254,0.851741,-0.2010819999999999
1107,0.373383,0.910335,-0.178497,0.6628109999999999,1.194767,-0.206086
1108,0.3655989999999999,0.914449,-0.173509,0.156938,0.306803,-0.132963
1109,0.364375,0.915712,-0.169377,0.0347339999999999,-0.076738,0.192707
1110,0.370133,0.915505,-0.1576,-0.104157,-0.271919,0.245125
1111,0.372655,0.918374,-0.13305,-0.154103,-0.109383,0.07409
1112,0.369986,0.922723,-0.108057,-0.123542,-0.012673,-0.040472
1113,0.370291,0.92431,-0.0923,-0.015555,-0.267892,0.031265
1114,0.372431,0.924702,-0.078772,-0.005899,-0.33643,0.0049039999999999
1115,0.370979,0.926314,-0.065564,-0.038872,-0.264083,-0.0576809999999999
1116,0.364793,0.929194,-0.0592279999999999,-0.017457,-0.251886,-0.097769
1117,0.3576,0.931843,-0.061423,0.0779919999999999,-0.20168,-0.028497
1118,0.351287,0.933751,-0.068474,0.048447,-0.273778,-0.118461
1119,0.344862,0.935211,-0.080217,0.030062,-0.3759,-0.107314
1120,0.3366119999999999,0.936765,-0.095649,0.121213,-0.51579,-0.105767
1121,0.3279559999999999,0.938241,-0.110154,0.144075,-0.4511949999999999,-0.100112
1122,0.320461,0.939059,-0.124327,0.251102,-0.231067,-0.01697
1123,0.3121,0.939852,-0.138768,0.143833,-0.265795,-0.066066
1124,0.3014199999999999,0.941101,-0.153167,0.069353,-0.299072,-0.077088
1125,0.289674,0.942504,-0.166617,0.06079,-0.372557,0.1401589999999999
1126,0.2798199999999999,0.942692,-0.1817109999999999,-0.033757,-0.506779,0.174905
1127,0.27318,0.941208,-0.198712,-0.124041,-0.547638,0.205746
1128,0.271592,0.937605,-0.217077,-0.300019,0.080294,0.012883
1129,0.278148,0.928983,-0.2441559999999999,-0.148357,1.327166,-0.167847
1130,0.2947599999999999,0.912389,-0.28399,-0.006964,1.793818,0.073358
1131,0.310598,0.8973530000000001,-0.3134889999999999,0.149622,0.412599,-0.4235569999999999
1132,0.315297,0.890357,-0.328392,0.226146,0.2445,-0.182548
1133,0.323965,0.8829030000000001,-0.339879,0.286555,0.377839,-0.116588
1134,0.339292,0.872843,-0.350736,0.117693,1.171423,-0.368762
1135,0.3532119999999999,0.866441,-0.352861,0.03221,0.5781390000000001,-0.268874
1136,0.35845,0.8649049999999999,-0.351342,0.070535,0.277215,-0.210655
1137,0.359078,0.865884,-0.348277,0.164467,-0.4901819999999999,-0.0624889999999999
1138,0.356324,0.871408,-0.337151,0.166244,-0.498986,0.084161
1139,0.345704,0.8816950000000001,-0.321079,0.02571,-0.433163,0.091388
1140,0.330363,0.8927290000000001,-0.306405,-0.2475989999999999,-0.3870679999999999,0.161355
1141,0.31321,0.904352,-0.289888,-0.2734,-0.389642,0.192262
1142,0.297933,0.916091,-0.26833,-0.293523,-0.390578,0.144398
1143,0.284747,0.926274,-0.246828,-0.300006,-0.4569439999999999,0.142138
1144,0.275567,0.933415,-0.229753,-0.271463,-0.4904979999999999,0.164003
1145,0.274922,0.937434,-0.213594,-0.280812,-0.4887039999999999,0.078813
1146,0.278487,0.939561,-0.1991369999999999,-0.324996,-0.467302,-0.017523
1147,0.274952,0.942365,-0.190618,-0.2237289999999999,0.112826,0.037694
1148,0.26748,0.94642,-0.180915,-0.264291,0.046104,0.008201
1149,0.271136,0.947138,-0.171464,-0.200854,-0.122324,0.043886
1150,0.283279,0.94462,-0.165628,-0.1292869999999999,-0.277673,-0.130515
1151,0.300386,0.940248,-0.160272,-0.172838,-0.293886,-0.194525
1152,0.318397,0.935217,-0.154847,-0.224433,-0.321921,-0.22708
1153,0.331736,0.931117,-0.15152,-0.068186,-0.440135,0.043473
1154,0.333144,0.929508,-0.158165,0.370469,0.294278,0.018623
1155,0.32294,0.929429,-0.178485,0.700695,1.144606,0.213001
1156,0.317006,0.931596,-0.177831,0.1489059999999999,-0.046281,-0.260279
