,gravity.x,gravity.y,gravity.z,userAcceleration.x,userAcceleration.y,userAcceleration.z
0,0.1829309999999999,0.975046,-0.125782,0.3744119999999999,0.8244389999999999,-0.065975
1,0.20635,0.96805,-0.142472,0.878764,0.746733,-0.273407
2,0.232638,0.96077,-0.150992,0.4621409999999999,0.277282,0.050345
3,0.243832,0.956164,-0.162158,0.319675,0.07858,0.096545
4,0.246778,0.953943,-0.170566,0.024081,-0.155374,0.2694269999999999
5,0.242373,0.957696,-0.155149,-0.245272,0.087637,0.467679
6,0.229723,0.966771,-0.112158,-0.2988,0.154231,0.327887
7,0.214919,0.973583,-0.077099,0.180696,-0.256343,-0.02454
8,0.210606,0.975269,-0.067041,0.260601,-0.2470119999999999,-0.20899
9,0.2094659999999999,0.975086,-0.073009,0.25167,-0.174304,-0.332142
10,0.197943,0.977685,-0.070353,-0.0502079999999999,-0.070214,-0.0839289999999999
11,0.18109,0.981638,-0.059937,-0.059645,-0.055536,0.047684
12,0.163848,0.985109,-0.052075,0.015519,-0.256975,0.144284
13,0.144905,0.988287,-0.047847,0.131493,-0.4114899999999999,0.118403
14,0.12945,0.990595,-0.044299,0.199652,-0.4376319999999999,0.09775
15,0.118965,0.991956,-0.043242,0.360115,-0.4915739999999999,0.034163
16,0.113173,0.992544,-0.0452529999999999,0.536211,-0.521062,-0.11118
17,0.112291,0.992616,-0.045867,0.620054,-0.474778,-0.101365
18,0.111455,0.992902,-0.0415139999999999,0.658168,-0.486813,-0.100485
19,0.107849,0.993292,-0.041683,0.346145,-0.460242,-0.044422
20,0.1081869999999999,0.992613,-0.054886,0.268889,-0.227126,-0.1699369999999999
21,0.114578,0.989897,-0.083507,0.399109,0.117006,-0.25243
22,0.130038,0.984545,-0.117297,0.276578,0.448011,0.10712
23,0.147009,0.979095,-0.140567,0.0523159999999999,0.813553,0.3079409999999999
24,0.171558,0.971913,-0.161092,-0.063953,1.202662,0.416417
25,0.206854,0.958386,-0.196741,-0.179007,1.496372,0.303293
26,0.2419889999999999,0.938134,-0.2476789999999999,-0.286209,1.334861,0.42639
27,0.273522,0.917742,-0.287981,-0.106224,0.789151,-0.05406
28,0.316065,0.897209,-0.308411,0.469946,0.369026,-0.051986
29,0.378108,0.8706440000000001,-0.314661,0.632695,0.352119,-0.140997
30,0.432426,0.8425469999999999,-0.3211239999999999,0.351357,0.202924,-0.101773
31,0.4598939999999999,0.8230219999999999,-0.333363,0.0181479999999999,0.134955,-0.0801809999999999
32,0.461496,0.816541,-0.346817,-0.085595,-0.06381,0.148377
33,0.448304,0.817662,-0.36118,-0.175843,-0.291951,0.355901
34,0.4308149999999999,0.822425,-0.371504,-0.290281,-0.497352,0.3905929999999999
35,0.413679,0.8318110000000001,-0.37008,-0.468839,-0.599481,0.365365
36,0.394071,0.8472959999999999,-0.356085,-0.491804,-0.611563,0.35404
37,0.368152,0.8692049999999999,-0.33007,-0.48653,-0.629886,0.364464
38,0.3341369999999999,0.8954620000000001,-0.29411,-0.333358,-0.643768,0.413052
39,0.2939989999999999,0.920726,-0.256569,0.05558,-0.480083,0.123451
40,0.264671,0.928056,-0.262035,0.322152,1.325957,-0.397389
41,0.2843449999999999,0.905298,-0.315569,0.382678,0.997687,-0.245467
42,0.376316,0.8750760000000001,-0.30435,0.5129670000000001,-0.132079,-0.324769
43,0.44418,0.8536469999999999,-0.272014,0.243168,-0.412469,0.086421
44,0.453017,0.85185,-0.262922,-0.136046,-0.8679629999999999,0.540189
45,0.435306,0.862233,-0.258965,-0.156436,-0.910252,0.5836720000000001
46,0.411597,0.876083,-0.251131,0.0954059999999999,0.182084,0.570192
47,0.391525,0.891968,-0.226056,0.6844640000000001,1.641312,0.194012
48,0.384466,0.8997959999999999,-0.206283,0.705363,1.610275,-0.0912029999999999
49,0.372471,0.899775,-0.227312,-0.045169,-0.279124,-0.016661
50,0.343471,0.901331,-0.263875,-0.039486,-0.496943,0.172505
51,0.304046,0.910235,-0.281121,-0.094909,-0.6204850000000001,0.709969
52,0.272525,0.922886,-0.272051,-0.04555,-0.13419,0.980975
53,0.251089,0.938342,-0.237632,-0.004706,0.154981,0.85485
54,0.227148,0.955872,-0.186315,-0.000601,0.1874849999999999,0.6127670000000001
55,0.203459,0.967893,-0.1476029999999999,-0.231978,0.073946,-0.429179
56,0.182588,0.974429,-0.130959,0.065063,0.064481,-0.287376
57,0.163267,0.979398,-0.118838,0.0450459999999999,-0.101087,-0.1246309999999999
58,0.148246,0.984836,-0.090117,-0.088279,-0.157596,0.3523239999999999
59,0.141293,0.988438,-0.0550159999999999,0.112201,0.0082659999999999,0.385461
60,0.134534,0.990408,-0.031519,0.125613,-0.019521,0.291651
61,0.126775,0.991749,-0.01901,0.0572149999999999,0.0570179999999999,-0.008623
62,0.115198,0.993328,-0.005286,0.0275029999999999,0.030475,-0.175683
63,0.09923,0.994985,0.012526,0.008634,-0.0062159999999999,-0.143309
64,0.079843,0.996323,0.031091,0.079794,-0.06102,0.094229
65,0.060695,0.996972,0.048618,0.182912,-0.0295029999999999,0.097698
66,0.044049,0.99688,0.0654899999999999,0.203601,-0.001946,0.038697
67,0.0298639999999999,0.996634,0.076344,0.406141,-0.044501,-0.117146
68,0.019926,0.996858,0.076669,0.424959,0.002913,-0.183069
69,0.013063,0.997477,0.069771,0.309538,0.056844,-0.1620869999999999
70,0.010712,0.998142,0.0599909999999999,0.447295,0.048627,-0.0260709999999999
71,0.0128389999999999,0.998877,0.045605,0.5736020000000001,0.002557,0.031665
72,0.020419,0.999461,0.025692,0.764387,0.010976,-0.0099
73,0.0349649999999999,0.999383,0.003283,0.581902,-0.017678,-0.01224
74,0.060429,0.997974,-0.019874,0.34959,0.022961,-0.04731
75,0.091924,0.994431,-0.0515399999999999,0.105601,0.032623,-0.147099
76,0.1273099999999999,0.986637,-0.101686,-0.0480709999999999,0.374127,0.079973
77,0.1602029999999999,0.975357,-0.1517,-0.145844,0.711182,0.341215
78,0.1791559999999999,0.966442,-0.1841,-0.312792,0.517551,0.3936949999999999
79,0.1907829999999999,0.961146,-0.199499,-0.27695,0.1316119999999999,0.338751
80,0.21165,0.95465,-0.209396,-0.032512,-0.0502769999999999,0.287048
81,0.253035,0.939398,-0.23131,0.235567,0.010874,0.3168809999999999
82,0.314782,0.911203,-0.2657469999999999,0.347755,-0.019327,0.204926
83,0.384891,0.871491,-0.303911,0.321896,0.014937,-0.06671
84,0.4360699999999999,0.836176,-0.332646,0.319377,0.0384889999999999,-0.0605429999999999
85,0.4599939999999999,0.81791,-0.345585,0.2281159999999999,-0.02633,0.121387
86,0.46475,0.815153,-0.345737,-0.151151,-0.133069,0.347064
87,0.465895,0.818291,-0.336662,-0.228422,-0.161904,0.388481
88,0.47011,0.821156,-0.323573,-0.294664,-0.207707,0.388835
89,0.4710439999999999,0.8253219999999999,-0.311386,-0.252096,-0.201619,0.33052
90,0.461769,0.834716,-0.300032,-0.228126,-0.239638,0.318358
91,0.442251,0.850024,-0.286134,-0.207983,-0.282962,0.329515
92,0.418824,0.8681909999999999,-0.26614,-0.153855,-0.345929,0.295147
93,0.399115,0.8841629999999999,-0.242823,0.118952,-0.067436,-0.061223
94,0.3892,0.892064,-0.229665,0.631476,1.033412,-0.6200359999999999
95,0.392081,0.891575,-0.2266429999999999,0.6086060000000001,0.73959,-0.54948
96,0.411157,0.881851,-0.230841,0.295263,-0.403229,0.1557069999999999
97,0.433245,0.8735709999999999,-0.2217489999999999,0.050886,-0.5203760000000001,0.354409
98,0.443337,0.8721040000000001,-0.207094,-0.219582,-0.43555,0.483202
99,0.44305,0.874956,-0.195341,-0.165172,-0.424959,0.450193
100,0.4364979999999999,0.880734,-0.1837859999999999,0.254618,0.3407469999999999,0.355463
101,0.43466,0.885691,-0.163162,0.317461,1.028601,0.042893
102,0.442425,0.8851479999999999,-0.1441329999999999,0.267185,1.547943,-0.179613
103,0.430946,0.89179,-0.137826,-0.058738,0.38537,-0.4144359999999999
104,0.400439,0.903822,-0.150844,-0.141391,-0.251967,0.128215
105,0.355552,0.920701,-0.160913,-0.11489,-0.660111,0.394586
106,0.311313,0.937128,-0.15772,-0.024325,-0.6820470000000001,0.6680649999999999
107,0.287535,0.947472,-0.140074,0.099703,-0.212716,0.673567
108,0.2802449999999999,0.953187,-0.1135619999999999,0.149808,0.071746,0.4993039999999999
109,0.278479,0.956427,-0.087736,0.009637,0.125666,0.209867
110,0.282029,0.957005,-0.067833,0.064682,0.21014,-0.63105
111,0.284432,0.956938,-0.0580399999999999,0.2152929999999999,-0.103742,-0.468037
112,0.276471,0.959697,-0.050446,0.037295,-0.2516739999999999,0.226883
113,0.270157,0.962222,-0.033809,-0.053101,-0.146533,0.598216
114,0.266209,0.963822,-0.013382,-0.075825,-0.091096,0.365005
115,0.2616949999999999,0.965148,-0.002109,0.0496,-0.002425,-0.091
116,0.256278,0.966566,0.008414,0.166161,-0.01869,-0.148002
117,0.2506469999999999,0.967749,0.025233,0.108575,-0.058814,-0.121242
118,0.2444309999999999,0.968845,0.039897,0.1089319999999999,-0.090626,-0.030222
119,0.237249,0.970112,0.050945,0.083888,-0.0878029999999999,0.071324
120,0.2291239999999999,0.97128,0.064173,0.057421,-0.048947,0.0587669999999999
121,0.219407,0.972227,0.081461,0.017532,0.009478,-0.052347
122,0.2094059999999999,0.973309,0.093911,-0.00683,0.043384,-0.096062
123,0.201683,0.974454,0.098814,0.118263,-0.00372,-0.015852
124,0.199668,0.97442,0.103138,0.290047,-0.096033,0.03265
125,0.199242,0.973878,0.108923,0.256737,-0.204057,0.031
126,0.198076,0.973462,0.11462,0.2159869999999999,-0.201993,-0.012691
127,0.199091,0.973032,0.116494,0.196157,-0.159098,-0.06907
128,0.2026599999999999,0.972193,0.117345,0.259728,0.1262569999999999,-0.068593
129,0.210979,0.970648,0.115453,0.25443,0.155343,-0.008657
130,0.2256119999999999,0.968705,0.103489,0.351155,0.226867,-0.100911
131,0.2484039999999999,0.965384,0.0795559999999999,0.207956,0.303598,-0.0881
132,0.278231,0.959491,0.044324,0.07649,0.2460449999999999,-0.0854149999999999
133,0.311815,0.950143,-0.000424,-0.074495,0.093894,-0.147708
134,0.350637,0.936207,-0.0238759999999999,-0.2394619999999999,0.252575,-0.687168
135,0.385575,0.921676,-0.042941,-0.485795,0.348496,-0.234219
136,0.406701,0.909405,-0.087043,-0.454003,-0.0045579999999999,0.19152
137,0.434518,0.892416,-0.121602,-0.156824,0.125452,0.123555
138,0.459538,0.8762270000000001,-0.145085,-0.030522,0.217248,0.133519
139,0.4844989999999999,0.8610190000000001,-0.154618,-0.01053,0.270207,-0.024429
140,0.513518,0.843088,-0.159693,-0.015746,0.205923,-0.048575
141,0.548687,0.8182560000000001,-0.171464,-0.024501,0.128995,-0.057296
142,0.584213,0.788701,-0.191428,-0.028702,-0.0320019999999999,-0.086129
143,0.611262,0.762354,-0.2125429999999999,-0.0451,-0.046824,-0.062695
144,0.625401,0.745639,-0.229989,-0.082646,-0.091052,0.064553
145,0.630383,0.738714,-0.238575,-0.2234159999999999,-0.185019,0.164707
146,0.631509,0.737688,-0.238773,-0.242929,-0.214525,0.135013
147,0.630642,0.7399359999999999,-0.234061,-0.2286949999999999,-0.205833,0.114829
148,0.627973,0.744809,-0.22563,-0.269773,-0.131329,0.143172
149,0.621376,0.754414,-0.2115409999999999,-0.33796,-0.182408,0.1216059999999999
150,0.609255,0.768904,-0.193892,-0.322421,-0.252668,0.084105
151,0.589911,0.787639,-0.177847,-0.227255,-0.281276,0.040548
152,0.563409,0.808879,-0.168178,-0.058816,-0.2400469999999999,-0.023503
153,0.5328649999999999,0.8297200000000001,-0.166187,0.169192,-0.1425259999999999,-0.118664
154,0.503437,0.848651,-0.162298,0.127971,-0.171985,-0.1172119999999999
155,0.481876,0.8629959999999999,-0.1517619999999999,-0.108417,-0.347677,-0.087603
156,0.4689649999999999,0.872007,-0.140264,-0.281114,-0.509992,-0.017955
157,0.458876,0.879057,-0.129189,-0.356032,-0.586699,-0.022574
158,0.449976,0.8852610000000001,-0.117612,-0.335886,-0.5058060000000001,-0.03934
159,0.441135,0.8910370000000001,-0.107015,-0.298694,-0.300079,-0.053065
160,0.430026,0.8976040000000001,-0.096874,-0.234484,-0.096975,-0.035924
161,0.421154,0.903062,-0.084301,-0.127941,0.021788,-0.095738
162,0.414581,0.906926,-0.074878,-0.115097,0.0278889999999999,-0.117658
163,0.410711,0.909104,-0.069611,0.08877,0.369552,-0.187134
164,0.411127,0.91015,-0.050979,0.001455,0.464422,0.031677
165,0.4073239999999999,0.912731,-0.031727,0.06579,0.424809,0.121235
166,0.400453,0.915622,-0.035664,0.312682,0.712521,0.184651
167,0.403373,0.913231,-0.0574159999999999,1.123177,1.154625,-0.163897
168,0.4290989999999999,0.901163,-0.061456,1.238732,0.664068,-0.271689
169,0.454179,0.888396,-0.066873,1.068755,0.302506,-0.448188
170,0.46992,0.8784770000000001,-0.086325,0.1226859999999999,0.249621,0.154715
171,0.476483,0.8751200000000001,-0.084422,-0.169842,0.182283,0.348505
172,0.475211,0.8777299999999999,-0.0613419999999999,-0.216055,0.196855,0.210619
173,0.464671,0.884441,-0.042946,-0.462733,0.084157,0.096718
174,0.4494579999999999,0.892864,-0.0279139999999999,-0.26739,-0.1260339999999999,0.27883
175,0.439889,0.897847,-0.019121,-0.124154,-0.299276,0.104845
176,0.435654,0.899854,-0.021595,-0.03444,-0.50131,-0.19424
177,0.437018,0.898769,-0.0350399999999999,0.061853,-0.332073,-0.367502
178,0.430274,0.901884,-0.0383089999999999,-0.349677,-0.153776,-0.2449239999999999
179,0.421968,0.90577,-0.039013,-0.4742909999999999,-0.39689,0.150479
180,0.421911,0.905639,-0.042532,-0.243642,-0.4336689999999999,0.318914
181,0.423625,0.904605,-0.047233,0.021245,-0.444476,0.1597049999999999
182,0.4280529999999999,0.90215,-0.0538159999999999,0.093446,-0.43755,0.0211009999999999
183,0.4354979999999999,0.8979450000000001,-0.063536,0.19527,-0.421108,-0.180482
184,0.441451,0.8940239999999999,-0.076432,0.085191,-0.327419,-0.162017
185,0.444695,0.890834,-0.09306,0.047035,-0.350047,-0.076129
186,0.451389,0.8848860000000001,-0.114997,0.015972,-0.414763,-0.036385
187,0.469972,0.8695129999999999,-0.151901,0.189162,-0.038031,-0.417068
188,0.500128,0.8428120000000001,-0.198846,0.18342,0.141151,-0.366675
189,0.535454,0.808339,-0.244696,0.0270459999999999,0.382899,-0.056497
190,0.57687,0.768543,-0.276698,0.364338,1.478985,0.136973
191,0.621961,0.7399680000000001,-0.256146,0.478502,1.911933,0.095593
192,0.665309,0.713325,-0.220297,0.360189,1.329857,-0.433359
193,0.697561,0.68821,-0.199436,0.409388,-0.067879,0.073658
194,0.724344,0.662099,-0.192221,0.434789,-0.076009,0.016561
195,0.7448560000000001,0.637848,-0.195803,0.413713,-0.098648,-0.246412
196,0.7530140000000001,0.625467,-0.204351,0.009238,0.0058649999999999,-0.344843
197,0.7469939999999999,0.630019,-0.212307,-0.6375430000000001,0.254915,-0.082004
198,0.7363430000000001,0.6430319999999999,-0.210495,-0.891098,-0.038631,0.017791
199,0.730588,0.653043,-0.199436,-0.692059,-0.263745,-0.079769
200,0.715422,0.66984,-0.198708,-0.6416,-0.308191,0.058632
201,0.687557,0.696538,-0.205183,-0.564662,-0.255238,0.238355
202,0.6492829999999999,0.732676,-0.204001,-0.471763,-0.2298219999999999,0.30094
203,0.60473,0.77365,-0.189118,-0.322519,-0.176955,0.14322
204,0.5562600000000001,0.812702,-0.17346,-0.063386,-0.09859,-0.150133
205,0.510787,0.842967,-0.168824,0.286866,0.042836,-0.037093
206,0.488216,0.857611,-0.161698,0.285649,-0.1190859999999999,0.0907289999999999
207,0.4870859999999999,0.861191,-0.145241,-0.072841,-0.376023,0.094597
208,0.488623,0.864409,-0.118499,-0.2499449999999999,-0.556579,-0.034776
209,0.48771,0.868288,-0.090627,-0.232538,-0.494371,-0.260554
210,0.4830529999999999,0.8725950000000001,-0.072362,-0.039205,-0.215109,-0.182414
211,0.472908,0.879279,-0.056787,-0.040962,-0.166831,-0.120215
212,0.4607779999999999,0.886502,-0.042376,-0.109017,-0.2306639999999999,-0.1736579999999999
213,0.453402,0.8903770000000001,-0.040663,0.007917,0.403461,-0.047762
214,0.443851,0.895875,-0.020064,-0.105182,0.561034,0.153228
215,0.428799,0.903349,0.009514,0.058811,0.840349,-0.07267
216,0.418066,0.908229,0.018411,0.201823,0.607045,-0.090036
217,0.4171289999999999,0.90883,0.0053869999999999,0.4796149999999999,0.664519,0.053298
218,0.428462,0.903556,0.002071,0.93987,1.013619,-0.150554
219,0.459067,0.8882540000000001,0.016127,1.096353,0.714026,-0.08824
220,0.4922899999999999,0.8703620000000001,0.010901,0.653386,0.191222,-0.0745
221,0.512948,0.858397,-0.0061,0.319221,-0.377974,-0.173588
222,0.523628,0.851899,-0.00896,0.162819,-0.6491859999999999,-0.154355
223,0.5251060000000001,0.8509950000000001,0.008336,-0.1217849999999999,-0.440183,0.207332
224,0.519799,0.853037,0.046204,-0.387552,-0.087839,0.637771
225,0.507039,0.857557,0.086641,-0.5136149999999999,0.237902,0.403883
226,0.489184,0.8666159999999999,0.09836,-0.286532,-0.2366869999999999,-0.387468
227,0.480421,0.8732469999999999,0.08145,0.004915,-0.2610949999999999,-0.339094
228,0.4735149999999999,0.8777510000000001,0.07305,0.174068,-0.213551,-0.357077
229,0.469765,0.8799469999999999,0.0708039999999999,0.072929,-0.241901,-0.183338
230,0.4742689999999999,0.8783270000000001,0.060084,-0.00616,-0.34935,0.0291029999999999
231,0.486529,0.8726780000000001,0.04148,-0.039249,-0.5413640000000001,0.121727
232,0.5027189999999999,0.8641540000000001,0.022594,-0.023837,-0.613116,0.012791
233,0.5176689999999999,0.855554,0.006629,-0.052307,-0.626993,-0.063071
234,0.528656,0.848756,-0.011588,-0.182175,-0.535341,-0.119592
235,0.539585,0.841413,-0.029518,-0.117939,-0.438581,-0.006508
236,0.551216,0.8334010000000001,-0.040027,-0.0759659999999999,-0.418621,0.015522
237,0.56218,0.825765,-0.045426,0.078841,-0.346151,0.021516
238,0.574738,0.816706,-0.051644,0.070495,-0.2225739999999999,0.011071
239,0.5911270000000001,0.8036909999999999,-0.068183,0.044631,-0.180354,-0.14042
240,0.612453,0.783782,-0.102891,0.283833,0.114152,-0.232619
241,0.643559,0.75167,-0.144303,0.356807,0.443643,-0.051117
242,0.685453,0.704151,-0.185271,0.43268,0.977612,-0.2062389999999999
243,0.734057,0.6463,-0.208459,0.359006,1.623216,0.195932
244,0.7763909999999999,0.600881,-0.190157,0.151023,1.5731,-0.123426
245,0.807319,0.5657,-0.167989,0.25805,0.050969,0.063954
246,0.828499,0.540373,-0.146927,0.304344,-0.1077559999999999,0.057678
247,0.8452139999999999,0.519202,-0.126656,0.704407,-0.217414,-0.090278
248,0.862562,0.491955,-0.11818,0.743395,0.161167,-0.68637
249,0.863209,0.4853449999999999,-0.138958,0.537884,0.167533,-0.504138
250,0.848208,0.503698,-0.163801,-0.091052,0.3431639999999999,-0.109011
251,0.829282,0.531378,-0.173001,-0.764142,0.010843,0.157254
252,0.8141619999999999,0.554846,-0.17113,-0.8574510000000001,-0.1067869999999999,0.177951
253,0.800307,0.575724,-0.167481,-0.944594,-0.3264559999999999,0.169602
254,0.780953,0.602431,-0.1648869999999999,-0.8411799999999999,-0.347777,0.1133579999999999
255,0.750127,0.640915,-0.1629,-0.719136,-0.307328,0.128522
256,0.7068180000000001,0.690351,-0.154347,-0.617096,-0.3343489999999999,0.1345569999999999
257,0.658189,0.739364,-0.141871,-0.449677,-0.423614,-0.025106
258,0.612399,0.777247,-0.1444089999999999,-0.142672,-0.308192,-0.2438659999999999
259,0.578017,0.800673,-0.1575369999999999,0.509263,-0.08377,-0.105845
260,0.568864,0.810229,-0.141146,0.243407,-0.29674,-0.0566539999999999
261,0.572522,0.8130149999999999,-0.105948,0.020786,-0.352993,-0.164163
262,0.565909,0.8205379999999999,-0.080399,-0.209692,-0.464276,-0.170287
263,0.553374,0.830017,-0.069628,-0.2178639999999999,-0.315048,-0.109617
264,0.547117,0.834492,-0.065467,-0.154066,-0.1764869999999999,-0.250252
265,0.548562,0.834601,-0.0502009999999999,0.1089849999999999,0.280282,0.2184289999999999
266,0.544506,0.8387379999999999,-0.005612,0.018177,0.44004,0.177807
267,0.528814,0.8485969999999999,0.0154569999999999,0.1140849999999999,0.987325,-0.217712
268,0.50952,0.860274,-0.017858,0.1295339999999999,1.140657,-0.143138
269,0.503063,0.8629540000000001,-0.047311,0.701695,1.311836,0.041055
270,0.517574,0.8550549999999999,-0.0315649999999999,1.178226,0.773759,-0.028066
271,0.5404869999999999,0.840816,-0.030023,0.600824,-0.104366,-0.177771
272,0.554013,0.830946,-0.05098,0.409931,-0.218626,-0.1416619999999999
273,0.55708,0.828415,-0.058223,-0.0633809999999999,-0.251297,-0.039159
274,0.55662,0.82981,-0.039847,-0.30334,0.076668,0.440863
275,0.546515,0.8374469999999999,-0.001318,-0.301597,0.0309459999999999,0.3635
276,0.531959,0.8460790000000001,0.034189,-0.272315,-0.0622659999999999,0.303182
277,0.5222829999999999,0.8512360000000001,0.051154,-0.0528159999999999,-0.34144,-0.2203429999999999
278,0.516861,0.854728,0.0478839999999999,-0.019303,-0.250053,-0.2333849999999999
279,0.506546,0.861032,0.045107,-0.139588,-0.151345,-0.222246
280,0.495409,0.8672059999999999,0.050238,-0.13701,-0.110751,-0.089865
281,0.4869189999999999,0.87192,0.0516289999999999,-0.022198,-0.171785,-0.015908
282,0.482264,0.874532,0.051133,0.150701,-0.329305,0.100006
283,0.4851399999999999,0.8728670000000001,0.052362,0.233396,-0.305194,-0.040125
284,0.490339,0.8700319999999999,0.051105,0.154284,-0.270759,-0.171787
285,0.4937109999999999,0.868698,0.040179,-0.032911,-0.245605,-0.135318
286,0.4952819999999999,0.8684540000000001,0.021974,-0.165631,-0.4617159999999999,-0.011888
287,0.4967109999999999,0.8678899999999999,0.006689,-0.16178,-0.598618,-0.015234
288,0.501931,0.864892,-0.005161,-0.104851,-0.756997,-0.062924
289,0.511727,0.858841,-0.022977,0.077674,-0.744369,-0.072756
290,0.528745,0.847565,-0.045406,0.209429,-0.224823,0.002132
291,0.549521,0.833491,-0.05761,0.098336,-0.022807,-0.023139
292,0.568671,0.820058,-0.064172,-0.162894,-0.179951,-0.130591
293,0.585214,0.8066949999999999,-0.082257,-0.12887,-0.283884,-0.187549
294,0.609487,0.7840199999999999,-0.1176329999999999,0.205134,0.0247259999999999,-0.140882
295,0.640594,0.751336,-0.1585359999999999,0.360215,0.444266,0.091611
296,0.670625,0.718757,-0.183439,0.6195510000000001,0.880608,0.262571
297,0.700797,0.689569,-0.182695,0.713479,1.227408,0.00995
298,0.732776,0.660022,-0.1655579999999999,0.386059,1.0955469999999998,0.035583
299,0.7607109999999999,0.6323340000000001,-0.146533,0.193741,0.670218,-0.257413
300,0.781932,0.611096,-0.123057,0.3084,0.204379,-0.1237839999999999
301,0.796601,0.594388,-0.110132,0.188949,0.126422,-0.181692
302,0.805934,0.5808760000000001,-0.114244,-0.042568,0.357112,-0.268416
303,0.809758,0.572347,-0.129264,-0.077535,0.326823,-0.255257
304,0.809471,0.568023,-0.148681,-0.117347,0.308442,-0.144502
305,0.8070149999999999,0.5693739999999999,-0.156649,-0.457909,0.128853,-0.034345
306,0.801095,0.577533,-0.157164,-0.60058,-0.0499449999999999,0.066755
307,0.789032,0.594101,-0.156434,-0.627304,-0.1855619999999999,0.154648
308,0.7689819999999999,0.620592,-0.153397,-0.637116,-0.253694,0.170472
309,0.741334,0.656076,-0.141376,-0.576997,-0.426446,0.228702
310,0.706955,0.696579,-0.1224339999999999,-0.485901,-0.483139,0.136381
311,0.665044,0.7383109999999999,-0.112301,-0.45876,-0.346771,-0.123523
312,0.626885,0.769886,-0.1195339999999999,0.186668,-0.195378,-0.272099
313,0.5993109999999999,0.7886989999999999,-0.137038,0.5269560000000001,-0.140048,-0.070924
314,0.590871,0.796186,-0.130226,0.470592,-0.2097139999999999,0.051979
315,0.594102,0.798578,-0.0965179999999999,0.056899,-0.356317,-0.121652
316,0.588699,0.8050470000000001,-0.073017,-0.240111,-0.303125,-0.213207
317,0.5818760000000001,0.810802,-0.0633919999999999,-0.278379,-0.107647,-0.168984
318,0.58307,0.810335,-0.058177,-0.283219,0.004789,-0.292241
319,0.593028,0.803611,-0.050252,0.1454359999999999,0.429482,0.169515
320,0.5994470000000001,0.8002859999999999,-0.0142849999999999,0.069697,0.421943,0.318743
321,0.589912,0.807423,0.008365,0.050851,0.7491869999999999,0.205151
322,0.578789,0.815337,-0.015031,0.15319,0.493562,0.041093
323,0.586195,0.8091649999999999,-0.04033,0.91524,0.533883,0.349107
324,0.605805,0.795573,-0.007862,1.025833,0.2867929999999999,0.314808
325,0.624483,0.780934,0.012704,1.150907,-0.213902,-0.487359
326,0.636533,0.771219,-0.006751,0.083605,0.213995,0.141486
327,0.64393,0.764944,-0.014628,-0.1223539999999999,0.2912389999999999,0.280009
328,0.64736,0.762143,-0.007887,-0.179525,0.130893,0.065321
329,0.645626,0.763628,0.006081,-0.180554,0.231001,0.089851
330,0.640363,0.767752,0.022172,-0.1655849999999999,0.170725,0.200179
331,0.631249,0.774752,0.035802,-0.163751,-0.220462,-0.009969
332,0.620232,0.783363,0.040662,-0.026848,-0.255683,-0.172665
333,0.610329,0.790924,0.043999,-0.213432,-0.108048,-0.207481
334,0.599236,0.799272,0.045594,-0.2842639999999999,-0.031832,-0.066545
335,0.5908720000000001,0.805567,0.043927,-0.146063,-0.209498,0.044361
336,0.585545,0.8095720000000001,0.041572,-0.027744,-0.305956,0.081185
337,0.584573,0.81037,0.039649,0.135397,-0.337241,0.013131
338,0.585302,0.810045,0.035317,0.1489049999999999,-0.3331469999999999,-0.098153
339,0.584967,0.810662,0.025275,0.090876,-0.311471,-0.076651
340,0.5849260000000001,0.810999,0.011854,0.04311,-0.291742,-0.00894
341,0.584326,0.811517,-0.001191,-0.037131,-0.485666,-0.007858
342,0.585113,0.810832,-0.013875,-0.086669,-0.627559,0.010229
343,0.588312,0.808193,-0.0266779999999999,-0.132868,-0.641506,0.064215
344,0.594963,0.802796,-0.039176,-0.056405,-0.234269,0.1374119999999999
345,0.6043890000000001,0.795477,-0.043925,0.038784,0.199488,0.141932
346,0.61517,0.787226,-0.042881,-0.024548,0.125432,-0.073635
347,0.625718,0.7781359999999999,-0.0545779999999999,-0.280381,-0.28247,-0.048999
348,0.6333529999999999,0.769302,-0.083888,-0.356437,-0.428893,-0.066304
349,0.6471210000000001,0.750324,-0.1350829999999999,0.474934,-0.085819,-0.2214699999999999
350,0.68484,0.706209,-0.179618,0.610433,0.198927,0.0357269999999999
351,0.7379760000000001,0.648277,-0.187423,0.565384,0.371895,0.095748
352,0.786423,0.587333,-0.191253,0.653503,0.934365,-0.04622
353,0.8196690000000001,0.53868,-0.194848,0.634173,0.878007,0.098946
354,0.841777,0.5107649999999999,-0.174722,0.320057,0.6155470000000001,-0.11283
355,0.8553629999999999,0.495302,-0.151754,0.34407,0.425505,-0.162775
356,0.864383,0.483801,-0.1370289999999999,0.597775,-0.0160419999999999,-0.273219
357,0.8709110000000001,0.473142,-0.132848,0.344588,0.045199,-0.3744
358,0.869243,0.472617,-0.145081,0.102848,0.004419,-0.240479
359,0.855383,0.489101,-0.1705839999999999,-0.251654,0.036717,-0.010416
360,0.835499,0.515153,-0.191201,-0.6378060000000001,0.020141,0.0330899999999999
361,0.818206,0.541099,-0.194292,-0.776763,-0.041923,0.00052
362,0.804937,0.563366,-0.186263,-0.863455,-0.261746,0.179457
363,0.789145,0.588735,-0.175045,-0.709082,-0.309636,0.252391
364,0.7633850000000001,0.6263479999999999,-0.157895,-0.618045,-0.335469,0.2297179999999999
365,0.7257939999999999,0.6740970000000001,-0.137165,-0.533503,-0.328638,0.0612679999999999
366,0.678821,0.723565,-0.125121,-0.157596,-0.223336,-0.298509
367,0.630212,0.763692,-0.140023,0.458625,0.0450389999999999,0.033913
368,0.599723,0.785878,-0.150756,0.516366,0.022884,0.1199339999999999
369,0.596933,0.792113,-0.127383,0.078253,-0.223067,0.066211
370,0.6006670000000001,0.794909,-0.085545,-0.20229,-0.42232,-0.1431079999999999
371,0.5976130000000001,0.799832,-0.055906,-0.198443,-0.362073,-0.246996
372,0.598225,0.799809,-0.049299,-0.153294,-0.2423449999999999,-0.430162
373,0.6022569999999999,0.795802,-0.063114,-0.0044329999999999,0.450047,0.162815
374,0.603078,0.796507,-0.043263,0.080699,0.489168,0.2254219999999999
375,0.597901,0.801564,-0.002881,0.153594,0.616771,0.212354
376,0.591278,0.806342,0.014173,0.2089389999999999,0.540413,0.279787
377,0.591892,0.805974,-0.008383,0.866894,0.642116,0.188696
378,0.6045520000000001,0.7955899999999999,-0.03942,1.197893,0.558933,0.072516
379,0.63067,0.775727,-0.02242,1.199302,-0.035523,-0.321726
380,0.659567,0.751594,-0.008829,1.026682,-0.235892,-0.4739279999999999
381,0.667984,0.7435,-0.031684,0.293045,-0.273835,-0.164819
382,0.668672,0.741861,-0.050199,-0.387696,0.16323,0.7650279999999999
383,0.666875,0.74502,-0.014916,-0.438985,0.396231,0.766472
384,0.6480090000000001,0.760135,0.047735,-0.536284,0.426618,0.248163
385,0.621358,0.7803260000000001,0.070737,-0.260183,-0.264137,-0.296002
386,0.603748,0.794991,0.058967,0.104916,-0.280495,-0.4187689999999999
387,0.5938979999999999,0.8033319999999999,0.044068,-0.0145979999999999,-0.081592,-0.269348
388,0.580156,0.8131649999999999,0.046698,-0.0567789999999999,-0.116449,-0.0311649999999999
389,0.564416,0.823682,0.054611,-0.038766,-0.2311369999999999,0.1519319999999999
390,0.549636,0.832883,0.064851,-0.0316759999999999,-0.395994,0.231261
391,0.536791,0.840209,0.0768409999999999,-0.009981,-0.368147,0.109713
392,0.529783,0.844251,0.081058,0.093386,-0.382397,-0.066593
393,0.52473,0.848245,0.071687,0.226963,-0.487329,-0.094804
394,0.517443,0.853786,0.057474,0.288023,-0.5975600000000001,-0.174967
395,0.5105149999999999,0.858456,0.049276,0.260771,-0.64996,-0.214803
396,0.507513,0.860391,0.046444,0.240168,-0.685724,-0.1586119999999999
397,0.50881,0.859942,0.040156,0.211634,-0.6702140000000001,-0.0710399999999999
398,0.5137079999999999,0.8576290000000001,0.02401,0.20315,-0.457574,-0.02195
399,0.521256,0.8534,-4.3e-05,0.201675,-0.282798,-0.085696
400,0.5289520000000001,0.8482639999999999,-0.025648,0.249185,-0.204465,-0.235841
401,0.5377810000000001,0.841357,-0.053939,0.203171,0.006634,-0.31067
402,0.553063,0.8279139999999999,-0.093159,0.307426,0.285703,-0.043209
403,0.57902,0.803891,-0.135993,0.422521,0.509189,0.523582
404,0.615775,0.7699199999999999,-0.167464,0.738,2.029504,-0.0473339999999999
405,0.648312,0.7372270000000001,-0.190228,0.699771,2.087556,0.156369
406,0.677311,0.708259,-0.199043,0.5219229999999999,1.7855759999999998,0.307716
407,0.7077180000000001,0.678697,-0.196225,0.4680939999999999,0.035612,-0.192432
408,0.737819,0.64427,-0.20134,0.660313,-0.323714,-0.2331079999999999
409,0.765763,0.606396,-0.214217,0.664733,-0.2968409999999999,-0.2681739999999999
410,0.784097,0.577404,-0.2275869999999999,0.27558,0.200428,-0.263395
411,0.784212,0.572431,-0.239445,-0.039506,0.203234,0.016758
412,0.776763,0.579512,-0.246583,-0.446853,-0.094619,0.349564
413,0.76939,0.587792,-0.250077,-0.529888,-0.124581,0.364427
414,0.76252,0.596298,-0.25098,-0.567315,-0.188003,0.358692
415,0.753384,0.608265,-0.249849,-0.5740930000000001,-0.23856,0.515093
416,0.742305,0.625704,-0.239742,-0.5828810000000001,-0.25223,0.5775100000000001
417,0.7294189999999999,0.6518,-0.207614,-0.595294,-0.326849,0.5382560000000001
418,0.709361,0.687196,-0.15674,-0.484385,-0.024705,-0.5617810000000001
419,0.676729,0.72219,-0.143099,0.132902,0.440331,-0.792463
420,0.660518,0.723986,-0.198894,0.647755,0.384306,-0.154118
421,0.713062,0.666347,-0.217998,0.451779,-0.0368449999999999,0.201213
422,0.76863,0.606466,-0.203486,0.236986,-0.182882,-0.04276
423,0.779238,0.5932930000000001,-0.201969,-0.165301,-0.672974,-0.316265
424,0.759887,0.614016,-0.213438,-0.385497,-0.098376,0.656004
425,0.7356739999999999,0.653878,-0.1767119999999999,0.023512,0.6511140000000001,0.889389
426,0.71195,0.6969310000000001,-0.086099,0.810602,1.819701,0.739541
427,0.680084,0.73192,-0.042171,0.418687,0.775221,0.032909
428,0.6701010000000001,0.738242,-0.0772159999999999,-0.090267,-0.150321,-0.385003
429,0.6666880000000001,0.7319,-0.140888,-0.21602,-0.44801,-0.020107
430,0.655742,0.7341850000000001,-0.175993,-0.31451,-0.45466,0.594847
431,0.644513,0.7513449999999999,-0.141716,-0.317136,-0.396227,0.650261
432,0.633834,0.770469,-0.068064,-0.173125,-0.235343,0.543543
433,0.619708,0.784817,-0.004961,0.010053,-0.116573,0.455705
434,0.607455,0.7941630000000001,0.017402,0.136594,0.119945,0.190377
435,0.602183,0.798358,-0.0004089999999999,0.288091,0.382505,-0.201205
436,0.6034,0.796928,-0.028544,0.114755,-0.0296089999999999,-0.302114
437,0.600809,0.7990189999999999,-0.024451,-0.124918,-0.215507,-0.059075
438,0.592879,0.8052520000000001,0.0079239999999999,-0.143401,-0.1607819999999999,0.085963
439,0.580974,0.81247,0.048602,-0.027904,-0.01204,0.348401
440,0.5683060000000001,0.8194600000000001,0.074258,0.0880659999999999,-0.134294,0.263495
441,0.558377,0.825399,0.083256,0.0547669999999999,-0.133276,-0.026844
442,0.54929,0.8312209999999999,0.085744,-0.028141,-9e-05,-0.108373
443,0.536896,0.8386239999999999,0.09194,-0.061249,0.0280149999999999,0.077097
444,0.5197609999999999,0.8473729999999999,0.1086579999999999,-0.067705,0.0089959999999999,0.128265
445,0.5009140000000001,0.8552120000000001,0.1330309999999999,-0.085738,-0.010028,0.160365
446,0.484159,0.8610770000000001,0.15536,-0.039716,-0.016594,0.171315
447,0.473029,0.865209,0.1663059999999999,0.142145,-0.061635,0.056595
448,0.467711,0.868856,0.1622829999999999,0.3240369999999999,-0.1094869999999999,-0.03417
449,0.464179,0.872181,0.154393,0.417718,-0.140126,-0.2359969999999999
450,0.460895,0.874458,0.151322,0.4850279999999999,-0.1041329999999999,-0.157655
451,0.4605069999999999,0.8748809999999999,0.150054,0.516299,-0.104526,-0.056182
452,0.464937,0.872633,0.14948,0.45114,-0.1938609999999999,0.234553
453,0.475612,0.867245,0.1472369999999999,0.416494,-0.187375,0.245646
454,0.4927829999999999,0.859057,0.13851,0.2830809999999999,-0.075762,0.1576779999999999
455,0.5161680000000001,0.847806,0.1216319999999999,0.13938,0.120715,-0.003986
456,0.541671,0.835464,0.092689,-0.006881,0.122468,-0.151848
457,0.567419,0.822161,0.045686,-0.149297,0.052885,-0.124772
458,0.594925,0.803724,-0.009565,-0.172501,0.146945,-0.061938
459,0.622049,0.7809560000000001,-0.0562309999999999,-0.144022,0.304737,0.142672
460,0.644039,0.760428,-0.083447,-0.135173,0.076135,0.2315489999999999
461,0.6608539999999999,0.74438,-0.095758,-0.098949,0.014241,0.327661
462,0.677561,0.729103,-0.09654,0.2154449999999999,-0.0061259999999999,0.344312
463,0.69825,0.708784,-0.100355,0.492256,-0.050688,0.2271099999999999
464,0.729622,0.672474,-0.124214,0.4210279999999999,-0.017552,0.235817
465,0.76283,0.6279359999999999,-0.154224,0.158114,0.0456779999999999,0.154346
466,0.786276,0.591657,-0.1780769999999999,-0.083151,0.143603,0.164252
467,0.801455,0.5677979999999999,-0.187815,-0.1865109999999999,0.16229,0.179621
468,0.8131470000000001,0.550657,-0.188593,-0.210486,0.022036,0.166926
469,0.822411,0.537092,-0.187539,-0.160683,-0.033705,0.157875
470,0.827549,0.529813,-0.185632,-0.2061349999999999,-0.068601,0.193475
471,0.8277450000000001,0.529525,-0.185581,-0.231706,-0.069793,0.246082
472,0.823053,0.536304,-0.186979,-0.280237,-0.076099,0.24455
473,0.813497,0.551231,-0.185382,-0.321553,-0.090095,0.198977
474,0.798936,0.5742520000000001,-0.1787,-0.267976,-0.095355,0.1233869999999999
475,0.781,0.601059,-0.169603,-0.075419,-0.066345,-0.017058
476,0.761754,0.627095,-0.162732,0.352473,0.203594,-0.224048
477,0.744923,0.647385,-0.161187,0.683453,0.644729,-0.2021859999999999
478,0.737101,0.656522,-0.160186,0.261709,0.269916,-0.018677
479,0.7411939999999999,0.651278,-0.162686,0.125994,-0.105929,0.1650049999999999
480,0.752343,0.6389130000000001,-0.160526,0.082832,-0.140515,0.1074099999999999
481,0.756414,0.633925,-0.161172,0.1171369999999999,0.104555,0.023233
482,0.750564,0.640519,-0.162444,0.117204,0.32579,0.357375
483,0.741831,0.653004,-0.152551,-0.0333959999999999,0.3890639999999999,0.402856
484,0.7345470000000001,0.6651819999999999,-0.1340569999999999,-0.4333689999999999,0.140451,0.10743
485,0.725621,0.6753140000000001,-0.131996,-0.338856,-0.168158,0.000404
486,0.715535,0.683902,-0.142428,-0.136464,-0.079867,0.015765
487,0.698495,0.700191,-0.147771,0.181815,-0.05424,-0.046016
488,0.67711,0.72122,-0.146154,0.186873,-0.1332839999999999,0.115866
489,0.658804,0.741291,-0.128306,0.0273069999999999,-0.084446,0.492991
490,0.642005,0.760376,-0.09826,-0.063606,0.0027,0.475717
491,0.624426,0.77785,-0.070984,-0.294516,0.162656,0.2928929999999999
492,0.606931,0.792654,-0.057731,-0.396588,0.0186099999999999,-0.1270069999999999
493,0.596325,0.79983,-0.068321,-0.287426,-0.07374,-0.143898
494,0.59295,0.8015180000000001,-0.077309,0.130103,-0.209569,0.194542
495,0.592014,0.803547,-0.061885,0.241314,-0.253803,0.225826
496,0.591754,0.8053819999999999,-0.034418,0.266995,-0.225167,0.202235
497,0.5885859999999999,0.808345,-0.011966,0.045722,-0.023906,0.075
498,0.5823109999999999,0.812958,0.003309,-0.18517,0.154434,-0.008421
499,0.574064,0.818714,0.012486,-0.16493,0.030224,0.06985
500,0.562493,0.8265819999999999,0.019051,-0.108742,-0.007719,0.093299
501,0.548569,0.835627,0.0282329999999999,-0.038651,-0.048304,0.129177
502,0.533061,0.8450129999999999,0.042394,0.072652,-0.138913,0.051509
503,0.517115,0.8539459999999999,0.058017,0.138402,-0.173282,0.013654
504,0.504288,0.860541,0.071838,0.247421,-0.231559,-0.040237
505,0.496864,0.863935,0.082097,0.1486289999999999,-0.164762,-0.037846
506,0.495554,0.864342,0.0856529999999999,0.063101,-0.0902179999999999,-0.01589
507,0.497754,0.8634040000000001,0.082295,0.0893279999999999,-0.096741,0.03033
508,0.4996569999999999,0.862503,0.080182,0.244087,-0.1061859999999999,0.030185
509,0.505849,0.8589559999999999,0.079428,0.44343,-0.091789,0.028147
510,0.513163,0.855017,0.074876,0.45905,-0.095785,0.034331
511,0.527167,0.8471360000000001,0.066727,0.369332,0.034822,0.0361779999999999
512,0.548858,0.8343079999999999,0.051795,0.13794,0.2390409999999999,0.033913
513,0.575535,0.817375,0.025602,-0.0351449999999999,0.257561,-0.064756
514,0.604172,0.796724,-0.014357,-0.0953519999999999,0.175215,-0.03734
515,0.634175,0.7705569999999999,-0.063748,-0.157017,0.206738,0.0379759999999999
516,0.664817,0.739006,-0.109029,-0.231102,0.336556,0.0788929999999999
517,0.693541,0.70712,-0.137776,-0.279921,0.4376859999999999,0.178227
518,0.716938,0.680841,-0.149849,-0.172001,0.3764099999999999,0.242287
519,0.7371810000000001,0.658397,-0.151909,-0.000273,0.2140699999999999,0.128654
520,0.758919,0.632804,-0.153622,-0.001198,0.055031,0.058865
521,0.782231,0.60416,-0.152002,0.039272,-0.059009,-0.055976
522,0.802462,0.575913,-0.156135,0.06735,-0.037324,-0.052484
523,0.817446,0.552181,-0.163942,0.030149,-0.010754,-0.088148
524,0.8270709999999999,0.5347890000000001,-0.173068,-0.03923,-0.0240319999999999,-0.082563
525,0.8320059999999999,0.522411,-0.186685,-0.08283,-0.023174,-0.009543
526,0.8338690000000001,0.5155569999999999,-0.197135,-0.160346,-0.077599,0.157065
527,0.8336870000000001,0.515192,-0.198849,-0.255181,-0.1048829999999999,0.192578
528,0.830548,0.52148,-0.19557,-0.304806,-0.130321,0.197874
529,0.8232889999999999,0.534775,-0.190292,-0.3556829999999999,-0.131241,0.184936
530,0.811366,0.554791,-0.184095,-0.3977159999999999,-0.12199,0.16673
531,0.7951560000000001,0.579838,-0.177519,-0.390615,-0.1549569999999999,0.117918
532,0.776225,0.606355,-0.172647,-0.341823,-0.159928,0.030038
533,0.755815,0.632037,-0.171092,-0.259294,-0.135577,-0.084737
534,0.734823,0.655604,-0.173832,-0.2021079999999999,-0.101832,-0.12199
535,0.716047,0.675347,-0.176581,-0.183195,-0.105431,-0.092447
536,0.704012,0.689701,-0.169345,-0.237246,-0.165898,0.093356
537,0.698062,0.700922,-0.146346,-0.387438,-0.26211,0.113005
538,0.6911619999999999,0.713375,-0.115721,-0.454849,-0.3068349999999999,0.080351
539,0.680716,0.726939,-0.0904659999999999,-0.528357,-0.176479,0.100246
540,0.669091,0.739135,-0.077435,-0.481881,-0.11975,0.080792
541,0.6581739999999999,0.74874,-0.078698,-0.310701,-0.042197,-0.0868289999999999
542,0.6531640000000001,0.751858,-0.089914,0.178348,0.120471,-0.256186
543,0.664741,0.742224,-0.084981,0.44793,0.406045,0.062886
544,0.677608,0.734222,-0.042001,0.428379,0.555481,0.0024809999999999
545,0.675211,0.737604,-0.005384,0.615667,0.805929,-0.04819
546,0.669076,0.74315,-0.008042,0.7606109999999999,0.959181,0.484727
547,0.6711590000000001,0.739995,-0.044187,1.125838,0.566295,0.158979
548,0.680974,0.7278720000000001,-0.080478,0.665233,-0.370114,-0.277172
549,0.692421,0.712919,-0.110902,0.431907,-0.39195,-0.190322
550,0.700972,0.698671,-0.143167,0.007615,0.105101,0.325814
551,0.706276,0.6929270000000001,-0.145008,-0.271858,0.253301,0.6889069999999999
552,0.706638,0.698905,-0.110428,-0.486026,0.421746,0.17421
553,0.6959270000000001,0.713403,-0.082107,-0.1908,0.0555639999999999,0.1172319999999999
554,0.681578,0.728036,-0.073575,-0.093398,-0.270548,-0.00838
555,0.669216,0.739919,-0.068332,0.002659,-0.367681,-0.2273369999999999
556,0.663266,0.74624,-0.056593,0.040362,-0.239358,-0.30417
557,0.663796,0.746696,-0.042657,-0.414666,-0.223746,-0.020133
558,0.663706,0.7479560000000001,-0.007377,-0.5417270000000001,-0.398484,0.0364
559,0.662138,0.74927,0.012911,-0.452711,-0.4763199999999999,0.071989
560,0.662412,0.749088,0.0087459999999999,-0.330289,-0.453327,0.064023
561,0.666295,0.745639,-0.008478,-0.120504,-0.3740719999999999,-0.039678
562,0.6728,0.739396,-0.025147,0.046072,-0.439515,-0.18222
563,0.679569,0.7323390000000001,-0.043169,-0.106571,-0.5510189999999999,-0.114104
564,0.684055,0.725805,-0.072627,-0.166019,-0.601904,0.038097
565,0.690762,0.713073,-0.119888,-0.024029,-0.531997,-0.1161809999999999
566,0.7061930000000001,0.684837,-0.179692,0.440108,-0.080039,-0.396251
567,0.739453,0.637604,-0.216029,0.7919039999999999,0.860366,0.202952
568,0.777107,0.586218,-0.2290219999999999,0.692879,1.708001,0.091098
569,0.805369,0.539208,-0.24624,0.494725,1.678764,0.142679
570,0.8246870000000001,0.513139,-0.23786,0.361805,0.776061,-0.171594
571,0.8391489999999999,0.498978,-0.216443,0.427361,0.331466,-0.053698
572,0.854792,0.48381,-0.187768,0.3828789999999999,0.068787,-0.077583
573,0.86711,0.469467,-0.166492,0.283479,0.0679169999999999,-0.166821
574,0.869239,0.4679439999999999,-0.1595329999999999,0.074517,0.044675,-0.0797399999999999
575,0.860569,0.482464,-0.163243,-0.257221,0.002644,0.063207
576,0.8435229999999999,0.508868,-0.171816,-0.586534,-0.079837,0.176638
577,0.8241040000000001,0.537503,-0.178723,-0.7062149999999999,-0.183224,0.150174
578,0.807171,0.562329,-0.179608,-1.0033530000000002,-0.404172,-0.052738
579,0.7904329999999999,0.589378,-0.166875,-0.925413,-0.437324,-0.056437
580,0.763047,0.629396,-0.147031,-0.72342,-0.415147,0.018705
581,0.718399,0.683076,-0.1315589999999999,-0.543121,-0.414796,-0.03612
582,0.663749,0.73547,-0.1360859999999999,0.024835,-0.1215779999999999,-0.102867
583,0.616458,0.772832,-0.150689,0.618115,-0.015813,0.225686
584,0.610491,0.78257,-0.121995,0.3047,-0.2048719999999999,0.091325
585,0.628891,0.773858,-0.07508,0.049179,-0.226175,-0.366723
586,0.644706,0.762376,-0.0559879999999999,-0.004081,0.249968,-0.07626
587,0.654547,0.755132,-0.036638,-0.341589,0.2346599999999999,0.420289
588,0.6444949999999999,0.764473,-0.014291,-0.049357,0.6309130000000001,0.311135
589,0.6258520000000001,0.779738,-0.017737,0.16881,0.73932,0.207557
590,0.623677,0.779786,-0.054394,1.106746,0.609527,0.50462
591,0.6583439999999999,0.751397,-0.044537,2.080166,0.2566449999999999,-0.156696
592,0.688565,0.724478,-0.0317449999999999,0.973774,-0.2109889999999999,-1.018182
593,0.7027680000000001,0.704259,-0.100673,0.180594,0.070506,-0.009984
594,0.710264,0.688553,-0.146347,-0.2320539999999999,0.20047,0.610794
595,0.7143970000000001,0.687858,-0.128397,-0.580196,0.348504,0.620341
596,0.705551,0.706054,-0.060694,-0.726486,0.526551,0.349451
597,0.687353,0.726288,-0.0070569999999999,-0.7282310000000001,0.252289,0.284172
598,0.673239,0.739414,-0.003763,-0.43923,-0.376835,-0.1935329999999999
599,0.667035,0.744201,-0.03503,0.100269,-0.097412,-0.354435
600,0.6651560000000001,0.744983,-0.050656,-0.118525,-0.0237919999999999,-0.171741
601,0.6597430000000001,0.749984,-0.047555,-0.409956,-0.361129,0.0704279999999999
602,0.656827,0.752655,-0.045699,-0.3784909999999999,-0.599121,0.198257
603,0.66062,0.748889,-0.0524059999999999,-0.360555,-0.61246,0.222801
604,0.668008,0.740938,-0.069103,-0.318384,-0.5869310000000001,0.229091
605,0.681593,0.724018,-0.105967,-0.119917,-0.311801,-0.032781
606,0.700156,0.6989770000000001,-0.145643,-0.0767279999999999,-0.287539,-0.020968
607,0.716992,0.67507,-0.173791,-0.029202,-0.331549,-0.0857309999999999
608,0.733576,0.6475479999999999,-0.206267,0.199209,-0.057308,-0.191606
609,0.755318,0.611979,-0.2344699999999999,0.301491,0.177358,0.066669
610,0.7880119999999999,0.5664060000000001,-0.2412909999999999,0.344969,0.385544,0.264072
611,0.8186060000000001,0.517227,-0.2497199999999999,0.979597,1.217651,0.2365969999999999
612,0.840908,0.479592,-0.25073,1.087468,1.667564,0.10597
613,0.8581049999999999,0.454517,-0.238894,0.737629,0.999585,-0.089613
614,0.875858,0.428277,-0.222377,0.255917,0.136542,-0.114507
615,0.8859809999999999,0.415039,-0.206832,0.36762,-0.132187,-0.139268
616,0.884907,0.416676,-0.208137,0.251141,-0.005436,-0.2282949999999999
617,0.874286,0.434504,-0.216402,-0.092563,0.144674,-0.103788
618,0.859564,0.463292,-0.215659,-0.548834,0.116695,0.001029
619,0.8470629999999999,0.4915279999999999,-0.202197,-0.881777,0.003146,0.059161
620,0.8380479999999999,0.513641,-0.183976,-0.933599,-0.086075,0.042359
621,0.823449,0.541511,-0.169404,-0.8263020000000001,-0.229515,-0.013015
622,0.7967609999999999,0.5824239999999999,-0.161104,-0.612038,-0.202297,0.027696
623,0.761372,0.6273449999999999,-0.1635579999999999,-0.444233,-0.254084,-0.021654
624,0.7220770000000001,0.6684060000000001,-0.178432,-0.139221,-0.32693,-0.008701
625,0.688192,0.700746,-0.1880089999999999,0.270625,-0.071885,0.232031
626,0.6760520000000001,0.719205,-0.160308,-0.028988,-0.123273,0.061569
627,0.6728390000000001,0.730441,-0.117229,-0.246448,-0.222583,-0.1332279999999999
628,0.660359,0.744038,-0.101654,-0.287236,-0.571522,-0.074539
629,0.653403,0.751323,-0.0926179999999999,-0.319022,-0.500758,-0.144442
630,0.653335,0.751308,-0.093219,-0.112578,0.0400279999999999,-0.421079
631,0.654658,0.7497510000000001,-0.096415,0.031881,0.485005,0.457896
632,0.649062,0.759206,-0.048224,0.1339119999999999,0.637935,0.371756
633,0.6373979999999999,0.770526,0.003653,0.306129,0.685575,-0.127173
634,0.640289,0.768134,0.000446,0.615692,0.687112,0.012433
635,0.662081,0.748696,-0.033205,1.247953,1.025825,0.006517
636,0.684238,0.7285020000000001,-0.03321,1.495479,0.55696,-0.2873469999999999
637,0.68771,0.725023,-0.0373709999999999,0.8132050000000001,0.000609,-0.19383
638,0.6801560000000001,0.7299260000000001,-0.0677929999999999,0.228017,-0.089728,0.188841
639,0.674068,0.735092,-0.07261,-0.135509,-0.0591429999999999,0.447137
640,0.668365,0.7432449999999999,-0.029582,-0.32695,-0.024327,0.6454270000000001
641,0.6523869999999999,0.75713,0.033845,-0.478757,-0.091801,0.398497
642,0.633558,0.77088,0.06594,-0.544813,-0.248373,0.171898
643,0.6268520000000001,0.777084,0.056544,-0.427267,-0.419967,-0.20164
644,0.629409,0.7767390000000001,0.022818,-0.227065,-0.1981099999999999,-0.277838
645,0.625359,0.7803359999999999,0.001068,-0.270623,-0.0597549999999999,-0.276947
646,0.618459,0.785813,0.002227,-0.167745,-0.139238,-0.065703
647,0.615587,0.7880020000000001,0.01028,0.031386,-0.276649,0.12972
648,0.616703,0.787081,0.013409,-0.009281,-0.397967,0.306583
649,0.621795,0.7830699999999999,0.0131139999999999,-0.076248,-0.502735,0.307442
650,0.628141,0.778076,0.006064,-0.1022309999999999,-0.562393,0.148584
651,0.632601,0.7743899999999999,-0.011628,-0.077899,-0.611685,-0.072219
652,0.6377510000000001,0.769216,-0.039738,0.020696,-0.413839,-0.189617
653,0.643085,0.763614,-0.057746,0.21159,-0.390231,-0.0678179999999999
654,0.6462060000000001,0.761446,-0.051143,0.1680029999999999,-0.469988,-0.0469399999999999
655,0.653243,0.755862,-0.044099,0.093598,-0.497287,-0.0597679999999999
656,0.662316,0.746948,-0.058365,-0.0151289999999999,-0.257217,-0.168457
657,0.6761010000000001,0.730823,-0.09373,0.193253,-0.086322,-0.171941
658,0.704605,0.697009,-0.133077,0.448532,0.1302,-0.068339
659,0.743003,0.649113,-0.163094,0.722986,0.98933,0.174599
660,0.775378,0.603989,-0.184352,0.475919,1.206069,0.320796
661,0.793445,0.579388,-0.186423,0.215466,1.159457,0.034354
662,0.8054819999999999,0.560624,-0.19209,0.018965,0.6728810000000001,-0.014621
663,0.8233389999999999,0.5310590000000001,-0.200221,0.007075,0.247307,-0.024876
664,0.843292,0.503938,-0.186829,0.110795,0.018462,0.022858
665,0.85714,0.486757,-0.16846,0.1892319999999999,-0.048509,-0.039227
666,0.8613139999999999,0.4798229999999999,-0.1670559999999999,0.125975,0.023412,-0.1048549999999999
667,0.856709,0.484176,-0.1778269999999999,-0.105046,0.110139,-0.112426
668,0.8434450000000001,0.5028100000000001,-0.189161,-0.486176,0.158277,-0.201799
669,0.8251950000000001,0.531297,-0.191771,-0.688628,-0.025499,-0.010042
670,0.8104520000000001,0.555895,-0.184791,-0.538022,-0.155245,0.130744
671,0.792925,0.582241,-0.179623,-0.569689,-0.335903,0.186886
672,0.766107,0.616082,-0.183091,-0.5041439999999999,-0.299569,0.241257
673,0.732346,0.6556310000000001,-0.183891,-0.459153,-0.3259039999999999,0.0817789999999999
674,0.697782,0.6935140000000001,-0.179265,-0.262327,-0.238619,-0.151133
675,0.670294,0.722978,-0.167352,-0.047201,0.032912,-0.0918799999999999
676,0.6564909999999999,0.739924,-0.146731,0.098514,-0.012858,0.108142
677,0.653047,0.747266,-0.122967,-0.16707,-0.222791,0.108196
678,0.6507930000000001,0.753137,-0.096184,-0.3324789999999999,-0.431924,-0.027382
679,0.6520229999999999,0.754781,-0.071894,-0.200988,-0.5174310000000001,-0.178457
680,0.658042,0.750101,-0.065784,-0.0139379999999999,-0.182138,-0.522473
681,0.660829,0.747368,-0.068875,0.1235339999999999,0.192116,-0.350483
682,0.654081,0.755538,-0.036584,-0.1126839999999999,0.4381569999999999,0.309243
683,0.642702,0.766087,0.006493,0.16635,0.551295,0.254127
684,0.639153,0.7688,0.020678,0.553901,0.959151,0.377668
685,0.64554,0.763716,-0.003724,0.970426,1.24811,0.519654
686,0.655641,0.75507,-0.001556,0.953307,0.020779,-0.425522
687,0.653016,0.757228,-0.013175,0.955932,0.0186199999999999,-0.4139029999999999
688,0.654269,0.755384,-0.036411,-0.108797,-0.627363,0.3573949999999999
689,0.6614270000000001,0.747776,-0.057828,-0.27628,-0.671528,0.093534
690,0.658397,0.750438,-0.057913,-0.48193,-0.380275,0.422125
691,0.64686,0.7625390000000001,-0.01025,-0.5338069999999999,0.0255169999999999,0.4240529999999999
692,0.631013,0.774315,0.047503,-0.526658,0.197395,0.181867
693,0.614747,0.785363,0.072726,-0.428437,-0.185464,-0.056109
694,0.611295,0.789274,0.057995,-0.2442599999999999,-0.207609,-0.104793
695,0.611332,0.791014,0.023824,-0.2481429999999999,-0.2371199999999999,-0.134969
696,0.607526,0.794277,-0.005822,-0.195279,-0.427334,-0.10549
697,0.60755,0.794004,-0.020926,-0.167578,-0.6492140000000001,-0.018197
698,0.617792,0.785913,-0.025903,-0.197184,-0.820169,0.052011
699,0.6359670000000001,0.7710199999999999,-0.032741,-0.2230489999999999,-0.886117,0.055782
700,0.6554369999999999,0.753919,-0.044795,-0.161662,-0.38783,0.179866
701,0.673017,0.7388680000000001,-0.03347,-0.128584,-0.086021,-0.269371
702,0.685806,0.727064,-0.032366,-0.1186369999999999,-0.156156,-0.0898409999999999
703,0.693869,0.7186560000000001,-0.045582,-0.093176,-0.0936559999999999,-0.007412
704,0.7058399999999999,0.704241,-0.076373,0.029725,0.012709,0.0566429999999999
705,0.732574,0.669549,-0.122629,0.2048039999999999,0.0172189999999999,0.094934
706,0.771127,0.607013,-0.1920859999999999,1.031486,0.771878,0.417001
707,0.808906,0.538125,-0.236834,1.5971,1.730048,-0.167402
708,0.836249,0.5009560000000001,-0.2229989999999999,0.525826,0.986318,-0.543603
709,0.852258,0.47946,-0.209218,0.04473,0.294053,-0.2089639999999999
710,0.867668,0.458331,-0.192572,0.025063,0.153943,-0.080804
711,0.8785370000000001,0.4440979999999999,-0.175918,0.232974,-0.020148,0.02182
712,0.882283,0.438357,-0.171516,0.408732,-0.027514,-0.061943
713,0.8742850000000001,0.4466729999999999,-0.190018,0.235288,0.038556,0.02504
714,0.8520989999999999,0.474577,-0.220688,0.077115,0.0605179999999999,0.062408
715,0.825307,0.513251,-0.23546,-0.7773479999999999,0.035836,-0.045012
716,0.809066,0.5481060000000001,-0.212112,-0.914809,-0.0570179999999999,-0.092057
717,0.799291,0.573561,-0.179338,-0.944127,-0.121824,-0.020384
718,0.779222,0.605208,-0.162897,-0.595644,-0.298461,0.253137
719,0.747682,0.64698,-0.149625,-0.500307,-0.344154,0.226636
720,0.720012,0.679917,-0.138907,0.054326,-0.293931,0.236761
721,0.6965319999999999,0.703507,-0.1411359999999999,-0.136718,-0.068574,0.22335
722,0.675111,0.727154,-0.124386,0.004684,0.05463,0.073101
723,0.6581819999999999,0.745991,-0.101454,0.0517179999999999,-0.024449,-0.05652
724,0.651374,0.7524069999999999,-0.097954,-0.023856,-0.531475,-0.212761
725,0.647654,0.7544930000000001,-0.106222,-0.109446,-0.681465,-0.328425
726,0.6416970000000001,0.758087,-0.1163109999999999,0.079952,-0.235702,-0.568153
727,0.6391180000000001,0.762362,-0.10164,-0.008473,0.182691,0.390474
728,0.63583,0.770159,-0.050726,0.090977,0.331235,0.4252689999999999
729,0.623722,0.781611,-0.007311,0.322414,0.6475420000000001,0.267687
730,0.613779,0.789475,0.001308,0.4367729999999999,0.750319,0.39278
731,0.619571,0.784686,-0.019961,0.68002,0.691175,0.086642
732,0.637468,0.769029,-0.0471959999999999,1.075942,0.412352,-0.311401
733,0.649921,0.7578020000000001,-0.057772,0.815228,0.09196,-0.103453
734,0.645112,0.7614489999999999,-0.063441,0.378691,0.07217,0.185267
735,0.639875,0.765718,-0.065075,0.008883,-0.078996,0.246319
736,0.635596,0.770042,-0.055236,-0.2392949999999999,-0.228279,0.283859
737,0.627117,0.778297,-0.031258,-0.422023,-0.24163,0.3120199999999999
738,0.611425,0.791297,-0.002475,-0.437688,-0.197196,0.245517
739,0.595345,0.803379,0.012022,-0.251809,-0.129764,0.047395
740,0.585217,0.810805,0.010727,0.122318,-0.303328,-0.1890869999999999
741,0.572645,0.819779,0.006082,0.2239699999999999,-0.346925,-0.2160429999999999
742,0.553022,0.833082,0.011795,0.020419,-0.243162,-0.108231
743,0.533615,0.8455010000000001,0.019518,-0.138076,-0.354657,0.018614
744,0.520579,0.85359,0.019505,-0.047617,-0.5353680000000001,0.127986
745,0.511566,0.8590959999999999,0.015901,0.1063539999999999,-0.624736,0.175978
746,0.506992,0.861826,0.014594,0.321178,-0.582102,0.068612
747,0.504953,0.863001,0.015794,0.36791,-0.613001,-0.114656
748,0.502864,0.8642350000000001,0.015008,0.193563,-0.7118760000000001,-0.254785
749,0.501954,0.864864,0.007144,0.194976,-0.3189349999999999,0.094816
750,0.5044310000000001,0.86345,-0.001534,0.215952,-0.196,0.097573
751,0.510772,0.859504,-0.019063,0.2174989999999999,-0.08712,-0.017909
752,0.5280779999999999,0.8475370000000001,-0.05306,0.3691239999999999,0.230421,-0.035334
753,0.554316,0.826686,-0.096559,0.3775679999999999,0.343495,0.038774
754,0.59135,0.7941590000000001,-0.140062,0.449452,0.4968869999999999,0.213426
755,0.631414,0.754584,-0.178662,0.576869,1.184976,0.313137
756,0.656676,0.724176,-0.210585,0.50641,1.317816,0.418516
757,0.676764,0.705539,-0.21025,0.322641,0.607342,0.372695
758,0.713029,0.67398,-0.193236,0.492537,0.296586,-0.0268269999999999
759,0.755264,0.620688,-0.210527,0.588058,0.153131,-0.025054
760,0.778343,0.578136,-0.244826,0.346306,0.075276,-0.193696
761,0.7865270000000001,0.561182,-0.257776,0.049807,0.137274,-0.273107
762,0.786349,0.56212,-0.256271,-0.042025,0.051191,-0.2020269999999999
763,0.777744,0.573431,-0.257468,-0.215702,-0.229879,0.359138
764,0.763813,0.5919979999999999,-0.257151,-0.282139,-0.287723,0.505931
765,0.749077,0.6144390000000001,-0.247683,-0.450477,-0.379256,0.555651
766,0.730963,0.641335,-0.233197,-0.678671,-0.393319,0.477856
767,0.704222,0.6766220000000001,-0.2150639999999999,-0.645796,-0.423616,0.521613
768,0.669504,0.7183930000000001,-0.188874,-0.4608859999999999,-0.292551,-0.155135
769,0.627497,0.7453310000000001,-0.225228,0.2288869999999999,0.234589,0.1481559999999999
770,0.635167,0.720154,-0.279176,0.455989,0.384751,0.260499
771,0.706437,0.6556109999999999,-0.266681,0.428176,-0.19063,0.0627009999999999
772,0.7532989999999999,0.609613,-0.246801,-0.0652799999999999,-0.758722,-0.570674
773,0.749229,0.602901,-0.27416,0.349678,0.304157,-0.096231
774,0.728672,0.6377010000000001,-0.2497469999999999,0.076245,0.597498,1.263098
775,0.711428,0.682875,-0.165982,0.301435,0.928514,0.921643
776,0.6889529999999999,0.713497,-0.127527,0.031612,0.591709,0.490625
777,0.674531,0.7250340000000001,-0.139039,-0.197022,0.15903,0.279725
778,0.6585529999999999,0.733891,-0.166461,-0.261505,0.143139,0.092639
779,0.6352800000000001,0.7501899999999999,-0.183389,0.12389,0.250344,0.31817
780,0.614518,0.772442,-0.1603099999999999,0.150634,0.179249,0.469606
781,0.597374,0.79375,-0.114471,0.038674,0.115964,0.221786
782,0.579032,0.81086,-0.085004,-0.128058,0.041648,0.225034
783,0.562757,0.823622,-0.070349,-0.190138,-0.048185,0.2443449999999999
784,0.5479890000000001,0.834202,-0.061742,-0.377335,-0.22614,0.206335
785,0.5355840000000001,0.842985,-0.05024,-0.165055,-0.211774,0.231895
786,0.5243260000000001,0.8510639999999999,-0.0277279999999999,-0.051014,-0.163045,0.079195
787,0.510462,0.859899,0.000455,-0.056345,-0.1183369999999999,-0.020017
788,0.494197,0.868973,0.025516,0.069722,-0.020829,0.10397
789,0.47705,0.8775430000000001,0.04836,0.1126559999999999,-0.071177,0.116282
790,0.459215,0.8855360000000001,0.070312,0.085356,-0.101082,0.088699
791,0.4443359999999999,0.891681,0.086414,-0.033631,-0.117145,0.166638
792,0.432092,0.896473,0.098133,0.012869,-0.088917,0.20393
793,0.4194449999999999,0.901182,0.109239,0.063633,-0.0560289999999999,0.2024369999999999
794,0.406843,0.905961,0.117088,0.262636,0.089049,0.0147479999999999
795,0.39708,0.910162,0.118019,0.279602,0.074182,-0.016533
796,0.389531,0.914243,0.11145,0.241694,0.025698,-0.0876919999999999
797,0.383973,0.917839,0.100658,0.433104,-0.165459,-0.010494
798,0.381469,0.919828,0.091621,0.567445,-0.1900609999999999,0.049706
799,0.381208,0.920279,0.088112,0.643054,-0.219138,0.128624
800,0.385956,0.918396,0.087084,0.623718,-0.303955,0.092726
801,0.399318,0.913311,0.0800299999999999,0.589375,-0.201672,0.086505
802,0.4180979999999999,0.90633,0.061292,0.331536,-0.043171,0.007754
803,0.4407109999999999,0.8970459999999999,0.032845,0.159081,0.043002,-0.075707
804,0.464172,0.885707,-0.008003,0.0858309999999999,-0.015346,-0.0287399999999999
805,0.4906359999999999,0.86966,-0.054452,0.001551,-0.065842,0.072061
806,0.520181,0.849435,-0.088712,0.059272,0.166938,0.268124
807,0.547638,0.830549,-0.101383,0.012253,0.200274,0.235553
808,0.570539,0.815229,-0.09942,0.101459,-0.18266,0.263788
809,0.593457,0.799355,-0.094002,0.294238,-0.116814,0.093041
810,0.615921,0.7813859999999999,-0.100363,0.329437,-0.088546,0.11936
811,0.6399590000000001,0.760311,-0.111244,0.396753,-0.370953,0.341622
812,0.669463,0.730436,-0.135202,0.546983,-0.077955,0.22445
813,0.695058,0.697768,-0.173237,0.536647,0.162476,0.198063
814,0.711476,0.67537,-0.1941,0.1210589999999999,0.23825,0.402885
815,0.726345,0.6598930000000001,-0.192255,-0.180278,0.096653,0.415537
816,0.740466,0.6462720000000001,-0.184501,-0.308108,0.027968,0.4352479999999999
817,0.7537739999999999,0.631834,-0.180576,-0.340017,-0.011793,0.268253
818,0.7637079999999999,0.617777,-0.187347,-0.183615,-0.019037,0.188339
819,0.768262,0.609863,-0.19452,-0.1340609999999999,-0.0297089999999999,0.218629
820,0.768262,0.610711,-0.191839,-0.175916,-0.046243,0.235281
821,0.764229,0.619843,-0.178171,-0.2322159999999999,-0.062638,0.175974
822,0.7552270000000001,0.636181,-0.157806,-0.2486199999999999,-0.118755,0.14508
823,0.740467,0.658168,-0.13609,-0.147205,-0.210628,0.105344
824,0.721363,0.681633,-0.12251,0.181133,-0.085579,-0.0520049999999999
825,0.7049989999999999,0.6976359999999999,-0.127582,0.456088,0.061412,-0.105206
826,0.702433,0.698725,-0.1355299999999999,0.5541590000000001,0.179587,-0.006148
827,0.708087,0.6927369999999999,-0.13684,0.118268,-0.206409,0.032379
828,0.71312,0.68806,-0.134275,-0.027696,-0.296504,0.055616
829,0.7121430000000001,0.6903779999999999,-0.127387,-0.187439,-0.270654,0.144569
830,0.706701,0.698342,-0.113527,0.021509,0.218513,0.3300949999999999
831,0.696264,0.7128329999999999,-0.084155,0.285334,0.709226,0.549762
832,0.676724,0.734428,-0.051542,0.7762789999999999,1.2349629999999998,0.248533
833,0.6720729999999999,0.738821,-0.049567,0.133973,0.100901,-0.376031
834,0.676999,0.7321449999999999,-0.075052,-0.281567,-0.192334,-0.142263
835,0.6716449999999999,0.73541,-0.089782,-0.366789,-0.394514,-0.013825
836,0.6569010000000001,0.74857,-0.090113,-0.208247,-0.188908,0.4535619999999999
837,0.637009,0.768096,-0.0651549999999999,-0.16774,-0.00894,0.6296689999999999
838,0.618834,0.785267,-0.019916,-0.113967,0.091061,0.669086
839,0.6028020000000001,0.797715,0.01661,-0.217457,0.132003,0.207267
840,0.589657,0.8072060000000001,0.026784,-0.383969,0.048324,-0.280949
841,0.584688,0.8112149999999999,0.008052,-0.24785,-0.054227,-0.287837
842,0.5847859999999999,0.811184,0.000602,0.175361,-0.32243,0.0123069999999999
843,0.582963,0.81216,0.023369,0.103149,-0.33224,0.0282819999999999
844,0.5788439999999999,0.813442,0.0569799999999999,-0.0207389999999999,-0.217266,0.059338
845,0.5745819999999999,0.8146939999999999,0.078252,-0.101484,0.091663,0.179515
846,0.569461,0.8178270000000001,0.08288,-0.019244,0.048552,0.103582
847,0.562585,0.8220059999999999,0.088306,0.049216,-0.0834049999999999,-0.11179
848,0.553492,0.826965,0.098846,-0.012065,-0.056213,-0.109268
849,0.543513,0.832573,0.106819,0.011052,-0.095085,-0.030937
850,0.533591,0.838087,0.1135109999999999,0.039529,-0.115904,0.042739
851,0.524054,0.8424879999999999,0.124804,0.035745,-0.074712,0.055387
852,0.5158659999999999,0.845406,0.1384369999999999,0.125201,-0.075524,-0.070276
853,0.512772,0.8464799999999999,0.143287,0.2636719999999999,-0.129942,-0.152412
854,0.512578,0.8466030000000001,0.143255,0.2691139999999999,-0.248275,-0.119939
855,0.512319,0.846384,0.1454599999999999,0.1775,-0.198648,-0.0682509999999999
856,0.515684,0.844636,0.143721,0.108599,-0.148286,-0.000578
857,0.52498,0.840051,0.136767,0.287597,-0.123483,-0.0038469999999999
858,0.531721,0.836239,0.1340609999999999,0.516314,-0.021725,0.074633
859,0.5457390000000001,0.828203,0.127447,0.502814,-0.004381,-0.068151
860,0.5674640000000001,0.814595,0.120055,0.426676,0.178904,0.084046
861,0.592282,0.7985909999999999,0.106996,0.280536,0.330162,-0.037675
862,0.616983,0.7809729999999999,0.096992,8.2e-05,0.455126,0.256799
863,0.6386,0.760679,0.116418,-0.158573,0.199694,-0.204568
864,0.667189,0.737222,0.106566,-0.409178,0.53771,-0.126692
865,0.69413,0.716228,0.072086,-0.527245,-0.03477,-0.069187
866,0.7251850000000001,0.688547,-0.002555,-0.282695,0.091895,0.159858
867,0.753091,0.6549050000000001,-0.062841,0.031012,0.408785,0.2059219999999999
868,0.777741,0.623325,-0.081126,0.087677,0.461453,0.19044
869,0.8045869999999999,0.588935,-0.0761049999999999,0.228952,-0.03292,0.017161
870,0.828523,0.553782,-0.0828909999999999,0.2050159999999999,0.0022329999999999,0.023946
871,0.841774,0.530135,-0.1018309999999999,-0.127769,0.08954,-0.0758269999999999
872,0.848925,0.5155850000000001,-0.116163,-0.2439599999999999,0.08233,-0.054064
873,0.8525020000000001,0.5061939999999999,-0.1304,-0.223886,0.090669,-0.011888
874,0.852982,0.502089,-0.142565,-0.260377,0.0374769999999999,0.133578
875,0.8526600000000001,0.501763,-0.145611,-0.331404,-0.011635,0.022915
876,0.8513860000000001,0.504686,-0.1429349999999999,-0.375663,-0.049425,-0.006342
877,0.8473290000000001,0.511829,-0.141642,-0.43528,-0.108997,0.022135
878,0.8403120000000001,0.522526,-0.144362,-0.51153,-0.145832,0.070937
879,0.830267,0.53737,-0.147945,-0.53478,-0.190675,0.053386
880,0.817339,0.5567350000000001,-0.148324,-0.425356,-0.2167849999999999,0.035394
881,0.8021729999999999,0.579435,-0.144123,-0.221027,-0.174054,0.024174
882,0.7868609999999999,0.6014520000000001,-0.138208,0.052311,-0.07301,-0.003454
883,0.772216,0.621073,-0.133968,0.168915,0.017218,-0.000615
884,0.7570899999999999,0.640343,-0.12951,0.0979059999999999,0.061149,-0.012214
885,0.742066,0.659032,-0.122523,-0.032059,0.005289,-0.005697
886,0.729967,0.67455,-0.110126,-0.144472,-0.090597,0.05463
887,0.720432,0.68763,-0.090222,-0.263294,-0.086342,0.091687
888,0.710427,0.700441,-0.068359,-0.3269579999999999,-0.019594,0.038299
889,0.698427,0.71353,-0.055411,-0.217257,-0.0855549999999999,-0.163018
890,0.686968,0.724705,-0.053607,-0.0701929999999999,-0.1972539999999999,-0.237317
891,0.678967,0.732133,-0.054608,0.065983,-0.271943,-0.212024
892,0.673335,0.737557,-0.0512419999999999,0.1205339999999999,-0.32708,0.122592
893,0.672261,0.740142,-0.015801,-0.158391,-0.150909,-0.707709
894,0.671481,0.7410140000000001,0.002542,0.268796,0.152678,0.045325
895,0.676597,0.736182,0.015725,0.0738299999999999,0.160638,0.260383
896,0.68219,0.730796,0.023449,0.140793,0.514459,0.128452
897,0.678759,0.734135,0.018065,0.416272,0.786678,-0.042158
898,0.6755680000000001,0.7371850000000001,0.0127099999999999,0.940414,0.76074,0.076661
899,0.675113,0.73755,0.015437,1.356259,0.5377649999999999,-0.207744
900,0.685034,0.728508,-1.3e-05,0.51893,0.033257,0.004423
901,0.69994,0.7135670000000001,-0.030023,-0.004658,-0.066351,0.243616
902,0.712256,0.700749,-0.040454,-0.452231,-0.097631,0.31525
903,0.716176,0.697433,-0.0259709999999999,-0.571446,-0.010619,0.202683
904,0.707256,0.70695,-0.002275,-0.608517,0.02361,0.231355
905,0.6950069999999999,0.718735,0.019523,-0.170226,0.2314449999999999,0.353554
906,0.684546,0.7280949999999999,0.035638,0.02334,0.162866,0.103369
907,0.673716,0.73712,0.0525049999999999,0.186682,-0.061522,-0.2203969999999999
908,0.665235,0.743738,0.065661,-0.0012029999999999,-0.1144049999999999,-0.238742
909,0.657046,0.750962,0.065894,-0.267337,-0.043198,-0.13024
910,0.652138,0.75641,0.050556,-0.1972269999999999,-0.16179,0.088588
911,0.649618,0.759127,0.041451,-0.146109,-0.386019,0.191002
912,0.651183,0.757525,0.045962,-0.175017,-0.487124,0.062498
913,0.655195,0.7540640000000001,0.045857,-0.185804,-0.502035,-0.086659
914,0.6583760000000001,0.752158,0.028192,-0.110769,-0.40023,-0.141641
915,0.6616489999999999,0.749804,0.003348,-0.114041,-0.397875,-0.116797
916,0.665097,0.746567,-0.016748,-0.013211,-0.341919,-0.123251
917,0.66997,0.741727,-0.031255,-0.0992,-0.287611,-0.1044099999999999
918,0.6758770000000001,0.735549,-0.046402,-0.111165,-0.2479699999999999,-0.043487
919,0.682929,0.727653,-0.064223,-0.1150119999999999,-0.236381,0.021056
920,0.69425,0.714256,-0.088615,-0.068151,-0.204948,-0.171455
921,0.713148,0.6884560000000001,-0.13208,-0.087049,-0.179148,-0.12799
922,0.7401340000000001,0.647991,-0.1797369999999999,0.307244,0.197911,0.0032689999999999
923,0.768314,0.604146,-0.211419,0.720852,0.7938029999999999,0.1522
924,0.792093,0.570605,-0.216782,0.944159,0.979001,0.1229099999999999
925,0.814052,0.54656,-0.19644,1.350255,1.266535,-0.153505
926,0.830833,0.524367,-0.186421,0.522515,0.7847,-0.139675
927,0.846198,0.5029819999999999,-0.175939,-0.012778,0.187646,-0.018946
928,0.8602709999999999,0.482479,-0.1647539999999999,0.027561,0.0851929999999999,-0.193018
929,0.865792,0.474756,-0.158137,0.114417,0.044714,-0.2525989999999999
930,0.8677530000000001,0.473735,-0.150258,0.033355,0.132054,-0.248729
931,0.8674950000000001,0.475249,-0.14693,-0.171343,0.031693,-0.15112
932,0.86259,0.481927,-0.153891,-0.453395,0.078558,-0.016763
933,0.8546040000000001,0.493609,-0.161247,-0.728398,-0.053652,0.202674
934,0.847409,0.507656,-0.1555,-0.760037,-0.213848,0.101896
935,0.83565,0.529688,-0.145318,-0.694308,-0.246286,0.125741
936,0.816293,0.561728,-0.13463,-0.570855,-0.265005,0.160372
937,0.787737,0.602731,-0.127208,-0.289019,-0.1973359999999999,0.004406
938,0.754255,0.644388,-0.125943,-0.175626,-0.194071,-0.074192
939,0.726298,0.675759,-0.125854,0.081319,-0.18258,-0.174317
940,0.7123109999999999,0.6916899999999999,-0.119064,0.185379,-0.0393769999999999,-0.126603
941,0.705438,0.700788,-0.106072,0.008536,-0.051587,-0.113791
942,0.694695,0.713542,-0.090857,-0.371438,-0.0698039999999999,-0.110376
943,0.6800149999999999,0.729358,-0.074933,-0.278159,-0.119907,0.17172
944,0.668377,0.7423810000000001,-0.046271,-0.218319,-0.265056,0.093589
945,0.660305,0.750632,-0.023398,-0.218853,-0.314902,-0.213785
946,0.656404,0.7538739999999999,-0.02838,0.080794,-0.018187,-0.518587
947,0.66222,0.74834,-0.038066,0.381374,0.521633,-0.177724
948,0.669977,0.742338,-0.007886,0.043417,0.347017,0.081907
949,0.669188,0.7423109999999999,0.034035,0.029771,0.333662,0.0274269999999999
950,0.6676890000000001,0.742726,0.050464,0.239263,0.192027,-0.1095
951,0.678,0.734271,0.034048,0.6023189999999999,0.530667,0.369761
952,0.69462,0.719286,0.011354,1.70783,0.79669,-0.0140539999999999
953,0.703146,0.711036,-0.0033469999999999,1.291483,-0.0338199999999999,-0.363581
954,0.707176,0.7063689999999999,-0.0307199999999999,0.257256,-0.330377,-0.057048
955,0.720747,0.6905899999999999,-0.06006,-0.123884,0.089393,0.057725
956,0.728317,0.682566,-0.0604679999999999,-0.434326,0.235983,0.4180279999999999
957,0.726179,0.68686,-0.029763,-0.5007,0.288665,0.2351469999999999
958,0.715411,0.6986060000000001,-0.011578,-0.4097159999999999,0.431109,0.266201
959,0.705274,0.708868,-0.009576,-0.030485,-0.2011619999999999,-0.169303
960,0.694566,0.719425,-0.00185,-0.019776,-0.211719,-0.177029
961,0.68524,0.728258,0.009104,0.04323,-0.2058739999999999,-0.171794
962,0.6762,0.736488,0.018358,-0.200995,-0.143272,-0.030397
963,0.6692,0.742383,0.032197,-0.167277,-0.086499,0.137114
964,0.6615840000000001,0.747979,0.053203,-0.17547,-0.226159,0.049855
965,0.657447,0.751256,0.058102,-0.225791,-0.3759349999999999,0.109897
966,0.658194,0.751297,0.048281,-0.030844,-0.334808,-0.052416
967,0.65886,0.7514810000000001,0.034289,0.0129539999999999,-0.375459,-0.16994
968,0.658747,0.752046,0.021806,-0.037364,-0.370988,-0.099473
969,0.65758,0.7532770000000001,0.012613,-0.142352,-0.417965,-0.039972
970,0.657855,0.753132,0.004146,-0.200061,-0.535557,-0.013041
971,0.661154,0.750216,-0.007092,-0.167944,-0.5657979999999999,-0.047458
972,0.667358,0.74444,-0.021008,-0.004775,-0.377741,-0.0533789999999999
973,0.676383,0.7360399999999999,-0.027367,0.086571,0.044233,0.166191
974,0.686732,0.7264229999999999,-0.026595,-0.135554,-0.01251,0.145949
975,0.700792,0.712298,-0.038998,-0.331407,-0.154879,-0.043934
976,0.7255050000000001,0.68375,-0.078275,0.25208,0.116451,-0.127887
977,0.76771,0.629972,-0.117288,0.437399,0.344348,-0.018287
978,0.813761,0.56784,-0.123896,0.664511,0.679002,-0.039846
979,0.8470629999999999,0.518827,-0.115329,1.106626,0.850008,-0.189878
980,0.86525,0.489042,-0.110363,1.1465299999999998,0.880236,0.095165
981,0.875812,0.473017,-0.095953,0.362271,0.301214,-0.063532
982,0.886225,0.456384,-0.07948,0.061498,0.178137,-0.337528
983,0.8934610000000001,0.442514,-0.076859,0.157351,0.157568,-0.350677
984,0.8950670000000001,0.436612,-0.090681,-0.004153,0.198382,-0.312212
985,0.8891370000000001,0.441993,-0.118649,-0.119697,0.183328,-0.127994
986,0.878182,0.456046,-0.144281,-0.3281489999999999,0.234567,-0.003805
987,0.8670559999999999,0.474176,-0.152873,-0.665671,0.1348329999999999,-0.203282
988,0.857107,0.491782,-0.153352,-0.797399,-0.052238,0.071458
989,0.8481639999999999,0.5080560000000001,-0.149988,-0.774403,-0.153594,0.2791679999999999
990,0.8337600000000001,0.533133,-0.14357,-0.6236619999999999,-0.197653,0.405289
991,0.808264,0.574617,-0.128543,-0.5319119999999999,-0.276186,0.3146239999999999
992,0.771331,0.626785,-0.110399,-0.489822,-0.338378,0.017428
993,0.726966,0.677253,-0.113348,-0.423713,-0.146048,-0.369058
994,0.6832020000000001,0.716665,-0.140089,0.233638,0.069361,-0.197665
995,0.660954,0.738405,-0.133779,0.466732,0.117064,0.035345
996,0.659645,0.745746,-0.093434,0.228142,-0.035694,0.0032549999999999
997,0.659135,0.749893,-0.056565,-0.159608,-0.5158229999999999,-0.128799
998,0.658094,0.751899,-0.039471,0.018298,-0.48928,0.055035
999,0.661993,0.749058,-0.0259889999999999,-0.054144,-0.375111,0.108798
1000,0.6670229999999999,0.744911,-0.0136569999999999,-0.124771,-0.332451,-0.380798
1001,0.6724939999999999,0.739549,-0.028591,-0.049722,0.6898489999999999,-0.256642
1002,0.671983,0.740182,-0.0238169999999999,-0.097612,0.546622,0.13043
1003,0.664836,0.74674,0.019229,-0.073589,0.434504,0.267621
1004,0.657189,0.751758,0.054407,0.407676,0.597561,0.192068
1005,0.659176,0.750577,0.046027,0.4056889999999999,0.598742,0.200449
1006,0.6768569999999999,0.736038,0.010483,1.402611,0.4779359999999999,0.193176
1007,0.701455,0.712693,-0.00518,1.366324,-0.100617,-0.355583
1008,0.716033,0.6977359999999999,-0.021425,0.684373,-0.3517119999999999,-0.8229049999999999
1009,0.725254,0.687087,-0.043767,0.124249,0.183289,-0.199367
1010,0.727735,0.685221,-0.029516,-0.2570469999999999,0.481192,0.581121
1011,0.72033,0.6928810000000001,0.032202,-0.406732,0.3860679999999999,0.915902
1012,0.7019850000000001,0.707543,0.081217,-0.572926,0.226401,0.2636159999999999
1013,0.688134,0.720799,0.0831679999999999,-0.47268,-0.118306,-0.0877309999999999
1014,0.683913,0.727587,0.053627,-0.138564,-0.337832,-0.380013
1015,0.6816800000000001,0.73138,0.019819,0.0276709999999999,-0.056697,-0.402265
1016,0.67406,0.738422,0.019309,-0.098224,-0.133609,-0.01879
1017,0.667373,0.743784,0.03736,-0.074707,-0.23855,0.09617
1018,0.665111,0.745321,0.046064,-0.040767,-0.282155,0.186098
1019,0.6627890000000001,0.7475069999999999,0.044065,-0.065422,-0.383844,0.186052
1020,0.662853,0.747627,0.040957,0.0281569999999999,-0.393287,0.012556
1021,0.6630010000000001,0.747873,0.033364,0.070322,-0.343286,-0.1812369999999999
1022,0.66105,0.750109,0.018659,-0.162606,-0.390657,-0.018399
1023,0.659118,0.752038,0.0011099999999999,-0.2018569999999999,-0.46058,0.036869
1024,0.659291,0.751743,-0.01468,-0.221394,-0.5658,0.0265819999999999
1025,0.66337,0.747799,-0.027124,-0.119547,-0.366695,-0.0611179999999999
1026,0.671396,0.7401270000000001,-0.03792,-0.07464,-0.116164,-0.073026
1027,0.678995,0.732545,-0.048389,-0.077447,-0.105897,0.013248
1028,0.686779,0.724108,-0.0632419999999999,-0.1126369999999999,-0.283145,-0.018835
1029,0.697149,0.710994,-0.092035,-0.0093739999999999,-0.391017,-0.178824
1030,0.714696,0.6853739999999999,-0.139534,0.316676,-0.179637,-0.184288
1031,0.74411,0.641745,-0.185641,0.311234,0.158486,0.092623
1032,0.778179,0.59091,-0.212746,0.351337,0.5222640000000001,0.185342
1033,0.812232,0.54172,-0.216376,0.856042,1.034467,0.063208
1034,0.846368,0.493618,-0.200004,1.429999,1.623387,-0.40902
1035,0.872231,0.456103,-0.176586,0.610862,0.812437,-0.212009
1036,0.884748,0.445293,-0.137602,0.170077,0.025608,-0.069811
1037,0.889035,0.443189,-0.114892,0.097416,-0.119611,-0.139533
1038,0.8875940000000001,0.4456029999999999,-0.116676,0.076441,-0.016617,-0.168327
1039,0.880699,0.4562989999999999,-0.127124,-0.175575,0.133331,-0.209973
1040,0.866728,0.478016,-0.142419,-0.379652,0.152568,-0.180717
1041,0.8522290000000001,0.50039,-0.152692,-0.591685,0.139213,-0.200351
1042,0.8423430000000001,0.5177649999999999,-0.149587,-0.704785,-0.03548,-0.199839
1043,0.8307260000000001,0.535941,-0.150532,-0.5719069999999999,-0.390067,0.050724
1044,0.813546,0.559946,-0.156854,-0.55697,-0.450067,0.301111
1045,0.791938,0.591504,-0.151515,-0.5191560000000001,-0.336515,0.391994
1046,0.764097,0.632181,-0.128464,-0.44975,-0.158442,0.085053
1047,0.732371,0.671663,-0.111812,-0.418025,-0.197923,0.068401
1048,0.696332,0.706507,-0.126375,-0.190655,0.225836,-0.2132099999999999
1049,0.660673,0.738677,-0.13367,-0.143049,0.419008,0.0879539999999999
1050,0.639087,0.761223,-0.110028,-0.2263369999999999,0.232185,-0.052722
1051,0.626352,0.774705,-0.086689,-0.261606,-0.178742,-0.084011
1052,0.621414,0.780134,-0.07235,-0.097702,-0.404524,0.045236
1053,0.622772,0.779754,-0.064326,-0.054977,-0.552246,-0.0427149999999999
1054,0.628397,0.774714,-0.070243,0.227026,-0.3528239999999999,-0.44381
1055,0.6356850000000001,0.768854,-0.069047,0.168254,0.386771,-0.069427
1056,0.638662,0.768731,-0.034097,0.009272,0.2767699999999999,0.279275
1057,0.640795,0.767708,-0.002291,0.179716,0.510551,0.024401
1058,0.650709,0.759324,-0.002098,0.485506,0.583892,0.36634
1059,0.668999,0.743008,-0.019454,0.989494,0.819523,0.086669
1060,0.686149,0.727033,-0.024918,1.536919,0.841814,-0.2184289999999999
1061,0.689086,0.723857,-0.034519,0.529542,-0.180415,-0.156246
1062,0.6924640000000001,0.7197140000000001,-0.050052,0.254726,-0.122455,0.1092099999999999
1063,0.697431,0.714558,-0.054742,-0.0258149999999999,-0.088155,0.301904
1064,0.6955560000000001,0.7180340000000001,-0.0250659999999999,-0.4978939999999999,0.3416889999999999,0.289561
1065,0.680358,0.732651,0.018325,-0.480621,0.427368,0.167909
1066,0.6615300000000001,0.748988,0.037347,-0.266953,-0.100078,-0.054132
1067,0.649927,0.759092,0.037058,-0.061045,-0.3265659999999999,-0.161677
1068,0.6424479999999999,0.765628,0.032768,0.01574,-0.224017,-0.280036
1069,0.632601,0.77367,0.0353589999999999,-0.294039,-0.099964,-0.107228
1070,0.623471,0.7808,0.040423,-0.178067,-0.160637,0.226423
1071,0.618093,0.78423,0.0542529999999999,-0.192571,-0.3801469999999999,0.117225
1072,0.612955,0.788486,0.050742,-0.013941,-0.440814,0.062219
1073,0.615058,0.787667,0.03582,0.265252,-0.266686,-0.087364
1074,0.6181,0.785667,0.0260339999999999,0.255557,-0.2545389999999999,-0.127551
1075,0.6177560000000001,0.786151,0.018546,-0.053165,-0.358553,-0.07833
1076,0.615831,0.7878350000000001,0.008151,-0.136384,-0.360101,0.032986
1077,0.614796,0.7886810000000001,-0.002803,-0.161457,-0.581192,0.0500139999999999
1078,0.617001,0.786821,-0.014877,-0.13934,-0.7232069999999999,0.0220789999999999
1079,0.624066,0.780838,-0.028869,0.053364,-0.324875,0.015304
1080,0.635247,0.771366,-0.038127,0.0564789999999999,-0.004429,0.00526
1081,0.646438,0.7617430000000001,-0.043169,-0.06131,-0.041605,-0.113203
1082,0.6577350000000001,0.750785,-0.060872,-0.111241,-0.123344,-0.203944
1083,0.673125,0.733364,-0.095283,0.09665,-0.066829,-0.194527
1084,0.698385,0.703504,-0.131679,0.225901,0.191958,-0.012395
1085,0.7267020000000001,0.668551,-0.157936,0.27574,0.3805219999999999,0.215187
1086,0.753818,0.6354770000000001,-0.1671089999999999,0.433285,0.620672,0.174876
1087,0.776734,0.606805,-0.168734,0.712951,0.867728,-0.083585
1088,0.798158,0.578087,-0.1695839999999999,0.403228,0.574928,-0.275042
1089,0.816967,0.5532590000000001,-0.162686,0.254932,0.368906,-0.265979
1090,0.8311059999999999,0.537003,-0.144531,0.185481,0.153625,-0.163162
1091,0.8388709999999999,0.528211,-0.131476,0.137203,0.073885,-0.126352
1092,0.8412370000000001,0.5244310000000001,-0.131497,0.110271,0.04045,-0.082202
1093,0.838757,0.525764,-0.141624,-0.028454,0.009576,-0.101952
1094,0.830202,0.534402,-0.158669,-0.178423,0.05947,-0.016425
1095,0.8178529999999999,0.548038,-0.1754099999999999,-0.412839,0.123348,-0.002065
1096,0.8059729999999999,0.5647840000000001,-0.177267,-0.592518,0.0241289999999999,-0.012156
1097,0.794799,0.582784,-0.169273,-0.628127,-0.075964,-0.00599
1098,0.776721,0.606571,-0.169625,-0.427874,-0.141117,0.102715
1099,0.7532270000000001,0.635538,-0.169522,-0.3799659999999999,-0.213709,0.222012
1100,0.728941,0.666122,-0.15787,-0.292113,-0.281234,0.2195
1101,0.703861,0.696008,-0.141948,-0.242573,-0.331903,0.062083
1102,0.678667,0.720781,-0.141005,-0.1080349999999999,-0.321611,-0.309114
1103,0.65436,0.740409,-0.153638,0.25517,-0.1489319999999999,-0.117694
1104,0.643295,0.75251,-0.141059,0.169144,-0.153053,0.045524
1105,0.640424,0.760051,-0.11035,-0.117307,-0.1961619999999999,-0.096483
1106,0.634111,0.7683399999999999,-0.086912,0.089354,-0.472533,-0.019747
1107,0.6332979999999999,0.77088,-0.068364,0.1216,-0.505896,0.0020039999999999
1108,0.6380170000000001,0.768217,-0.0526679999999999,0.090987,-0.5045609999999999,-0.039373
1109,0.642948,0.763748,-0.057486,0.015744,0.039887,-0.674096
1110,0.6451439999999999,0.760965,-0.06869,-0.032947,0.587195,0.128978
