,gravity.x,gravity.y,gravity.z,userAcceleration.x,userAcceleration.y,userAcceleration.z
0,-0.4047679999999999,0.8807799999999999,0.245713,0.282683,-0.254346,-0.40767
1,-0.417081,0.867303,0.271686,0.256712,0.079154,-0.560291
2,-0.4320819999999999,0.855621,0.284961,0.2536,0.34668,-0.463275
3,-0.4453109999999999,0.848291,0.286507,0.411818,0.459372,-0.510293
4,-0.452661,0.8453719999999999,0.2836,0.311594,0.477305,-0.925049
5,-0.46001,0.846464,0.2680949999999999,0.43906,0.8654350000000001,-0.713026
6,-0.464458,0.8535790000000001,0.2359389999999999,0.6020310000000001,1.043683,-0.4848399999999999
7,-0.461525,0.8661110000000001,0.19192,0.598076,0.781274,-0.278391
8,-0.451187,0.882666,0.131596,-0.0258639999999999,0.590158,-0.174564
9,-0.4368109999999999,0.8971049999999999,0.06623,0.031401,0.466558,0.046685
10,-0.4114,0.911444,0.0031219999999999,0.225304,0.469034,0.666647
11,-0.376395,0.924675,-0.057371,-0.134148,0.7017439999999999,0.8544290000000001
12,-0.345434,0.932366,-0.1065779999999999,-0.262003,0.712623,0.6846270000000001
13,-0.324844,0.936317,-0.133331,-0.206742,0.383797,0.174804
14,-0.301888,0.940873,-0.153663,0.0034869999999999,0.241256,0.2081829999999999
15,-0.271109,0.946451,-0.175277,0.265082,0.074561,0.271804
16,-0.241134,0.951985,-0.188599,0.35083,0.082347,0.409516
17,-0.2147889999999999,0.955809,-0.200715,0.278632,0.037508,0.435822
18,-0.190123,0.95785,-0.21533,0.030699,-0.142238,0.367262
19,-0.174765,0.957845,-0.227994,-0.1143589999999999,-0.347143,0.520184
20,-0.165493,0.957112,-0.23778,-0.202488,-0.357778,0.5339689999999999
21,-0.160616,0.956248,-0.244509,-0.198499,-0.316294,0.506059
22,-0.159865,0.954774,-0.250682,-0.1396339999999999,-0.261339,0.481104
23,-0.160771,0.953802,-0.253783,-0.11523,-0.289099,0.453078
24,-0.1615329999999999,0.954257,-0.25158,-0.12254,-0.324802,0.383889
25,-0.1617569999999999,0.956046,-0.244546,-0.151399,-0.3183809999999999,0.255166
26,-0.163751,0.958316,-0.234111,-0.131354,-0.273685,0.178691
27,-0.169651,0.960149,-0.222088,-0.062679,-0.214346,0.155896
28,-0.179214,0.961295,-0.209252,0.032135,-0.0848299999999999,0.06292
29,-0.190605,0.961495,-0.197963,0.05027,0.11512,-0.184163
30,-0.202593,0.96049,-0.190803,0.052508,0.360753,-0.512841
31,-0.209276,0.959745,-0.187309,0.210527,0.343234,-0.441338
32,-0.203154,0.9613,-0.186071,0.206419,0.167072,-0.237558
33,-0.184465,0.964889,-0.1869579999999999,0.201951,0.111847,-0.142861
34,-0.154912,0.970722,-0.183552,0.265127,0.149654,-0.1151079999999999
35,-0.124395,0.975137,-0.183368,0.49085,0.165045,-0.341717
36,-0.1010809999999999,0.977508,-0.185075,0.5954050000000001,-0.037383,-0.1384109999999999
37,-0.089412,0.979093,-0.182685,0.4119069999999999,-0.310911,0.114157
38,-0.0825299999999999,0.981331,-0.173698,-0.198446,0.201012,0.5220100000000001
39,-0.074332,0.982912,-0.168376,-0.6185390000000001,0.8522780000000001,0.103099
40,-0.065416,0.977646,-0.1998049999999999,-0.8222790000000001,0.3638,-0.215982
41,-0.0631559999999999,0.97131,-0.229259,-0.894699,-0.946088,0.839519
42,-0.078319,0.972904,-0.217523,-0.424092,-1.0483129999999998,0.8799680000000001
43,-0.108172,0.975669,-0.190687,-0.077466,-0.457129,0.743834
44,-0.151327,0.974886,-0.163371,-0.2873179999999999,0.70558,0.394282
45,-0.198314,0.9709,-0.13422,0.412914,1.389726,-0.338391
46,-0.225304,0.965704,-0.129013,0.308938,0.44375,0.0666809999999999
47,-0.2448739999999999,0.962093,-0.120016,0.031876,-0.06477,0.414633
48,-0.256537,0.962044,-0.0930059999999999,-0.038461,0.029899,0.1741059999999999
49,-0.263934,0.963045,-0.053603,0.226077,-0.2619039999999999,0.168959
50,-0.265267,0.964104,-0.0112769999999999,0.22445,-0.258263,0.174714
51,-0.257416,0.965875,0.028482,0.2056889999999999,-0.174981,0.121802
52,-0.245141,0.967312,0.064818,0.05993,-0.201092,0.01613
53,-0.234506,0.967131,0.098243,-0.3554449999999999,-0.39685,0.0007099999999999
54,-0.229535,0.964919,0.127411,-0.57291,-0.200621,-0.04538
55,-0.233503,0.959855,0.155377,-0.196062,-0.0437629999999999,-0.135312
56,-0.240362,0.953517,0.181706,-0.000559,-0.1221119999999999,-0.079396
57,-0.249826,0.946457,0.204433,0.046868,-0.1630859999999999,-0.041027
58,-0.261306,0.939111,0.223103,0.06221,-0.033929,-0.020283
59,-0.273889,0.931871,0.237882,0.105844,0.101409,-0.245954
60,-0.287273,0.924356,0.2510489999999999,0.130519,0.172934,-0.3716239999999999
61,-0.298753,0.916725,0.265231,0.30568,0.2449869999999999,-0.5291319999999999
62,-0.304937,0.910809,0.278256,0.31783,0.386402,-0.384748
63,-0.306315,0.909309,0.281628,0.23025,0.380578,-0.399654
64,-0.305012,0.911664,0.275358,0.058918,0.395709,-0.52403
65,-0.302766,0.917539,0.257763,0.0767679999999999,0.567416,-0.514675
66,-0.298923,0.927757,0.223383,0.201053,0.578515,-0.5768979999999999
67,-0.29243,0.940738,0.17171,0.332576,0.5798,-0.3179349999999999
68,-0.2824,0.953992,0.100689,0.136022,0.315204,-0.101177
69,-0.2637219999999999,0.964177,0.028342,-0.152492,0.132717,0.319604
70,-0.243036,0.969126,-0.041447,-0.3542079999999999,0.353521,1.014545
71,-0.22698,0.967861,-0.1082369999999999,-0.330744,0.396122,0.825659
72,-0.2137,0.96448,-0.155245,-0.319717,0.354718,0.575075
73,-0.189183,0.964965,-0.181779,-0.301707,0.440171,0.1248789999999999
74,-0.1547349999999999,0.965074,-0.211376,-0.380833,0.228529,0.357739
75,-0.117644,0.966199,-0.22937,-0.0754259999999999,0.013949,0.4569859999999999
76,-0.081299,0.96648,-0.2435139999999999,0.079804,-0.117526,0.4915
77,-0.047781,0.964606,-0.259316,-0.036127,-0.296164,0.267723
78,-0.0235389999999999,0.961768,-0.272839,-0.197714,-0.4229189999999999,0.292706
79,-0.0075879999999999,0.959845,-0.280414,-0.2526199999999999,-0.4910489999999999,0.340442
80,-0.002098,0.9593,-0.282368,-0.357994,-0.487544,0.387364
81,-0.008672,0.959713,-0.280833,-0.355205,-0.496899,0.4111729999999999
82,-0.027185,0.960581,-0.276653,-0.285009,-0.545618,0.4159199999999999
83,-0.05506,0.963213,-0.263023,-0.1098109999999999,-0.5121020000000001,0.220344
84,-0.088557,0.967997,-0.2348,-0.009358,-0.3775429999999999,0.172864
85,-0.11662,0.973264,-0.197857,0.2222559999999999,0.351901,-0.340062
86,-0.1230339999999999,0.976007,-0.179618,0.352145,0.5574859999999999,-0.6454850000000001
87,-0.120986,0.978455,-0.167267,0.360686,0.144165,-0.210388
88,-0.109452,0.981322,-0.158165,0.332017,-0.015349,0.044182
89,-0.088948,0.982476,-0.163768,0.314854,-0.075173,-0.244206
90,-0.0719,0.983786,-0.164274,-0.079223,-0.355398,0.74629
91,-0.05837,0.985253,-0.160805,-0.614069,-0.00187,0.649269
92,-0.057115,0.987784,-0.144951,-0.166243,0.558832,-0.2491219999999999
93,-0.048956,0.990275,-0.130186,-0.0047539999999999,0.583974,-0.229448
94,-0.044611,0.98744,-0.151535,-0.81925,-0.277952,0.0683899999999999
95,-0.059909,0.9836,-0.170095,-0.661496,-0.394947,-0.028376
96,-0.0932289999999999,0.978872,-0.1819569999999999,-0.315478,-0.0427149999999999,0.434933
97,-0.131556,0.972972,-0.189763,-0.034841,0.409505,0.496892
98,-0.15616,0.96963,-0.1882059999999999,0.414171,0.526173,0.4119
99,-0.164847,0.969333,-0.1822359999999999,0.256919,0.450467,0.1320349999999999
100,-0.165413,0.971976,-0.167009,-0.212013,0.029688,0.062258
101,-0.163946,0.975269,-0.148199,-0.253946,-0.058078,-0.034525
102,-0.166265,0.977118,-0.1326119999999999,-0.237604,-0.0822659999999999,-0.1385819999999999
103,-0.167969,0.97743,-0.128091,-0.038513,0.170138,-0.52294
104,-0.162194,0.976674,-0.140682,0.001031,0.1605329999999999,-0.551136
105,-0.149336,0.97334,-0.174063,-0.071184,-0.1537599999999999,-0.305948
106,-0.137605,0.964992,-0.223264,-0.181166,-0.474681,-0.03023
107,-0.132144,0.950621,-0.2808,-0.098325,-0.948882,0.6881189999999999
108,-0.1293099999999999,0.933576,-0.334226,-0.007882,-1.110639,0.968122
109,-0.118478,0.925524,-0.359668,0.212747,-1.593355,0.826678
110,-0.107079,0.923978,-0.367139,0.084282,-1.5787790000000002,0.601804
111,-0.095256,0.924916,-0.368034,0.353389,-0.845311,0.630149
112,-0.074127,0.927951,-0.365246,0.3497619999999999,-0.6413909999999999,0.587353
113,-0.056684,0.931753,-0.358629,0.14903,-0.618185,0.307802
114,-0.050306,0.937512,-0.344286,-0.131411,-0.386075,0.143221
115,-0.0577019999999999,0.945236,-0.321235,-0.3126739999999999,0.007309,-0.080774
116,-0.083915,0.953755,-0.28862,-0.306894,0.831325,-0.293045
117,-0.116288,0.95772,-0.263137,-0.055312,1.502867,-0.2101449999999999
118,-0.13596,0.959814,-0.245484,0.1604809999999999,1.045328,-0.4908899999999999
119,-0.146286,0.963775,-0.223,0.068405,0.488587,-0.851295
120,-0.144431,0.970436,-0.193348,0.012961,0.094948,-0.314694
121,-0.127909,0.976461,-0.173646,-0.05831,-0.394063,0.664979
122,-0.110891,0.977115,-0.181489,-0.8570049999999999,0.009762,-0.148086
123,-0.108303,0.977546,-0.180731,-0.86774,0.090188,0.070364
124,-0.111797,0.979257,-0.168954,-0.468616,0.163794,0.130548
125,-0.103649,0.980902,-0.164551,0.1120869999999999,1.201898,-0.085953
126,-0.083703,0.984522,-0.153943,-0.566001,2.421621,-1.33559
127,-0.057385,0.982202,-0.178817,0.364865,0.8841620000000001,-0.223786
128,-0.041129,0.973759,-0.223811,-0.664667,-0.186329,0.058176
129,-0.043246,0.967041,-0.250902,-0.656812,0.067429,0.345918
130,-0.05717,0.962349,-0.265718,-0.0544929999999999,-0.266792,0.656755
131,-0.0744789999999999,0.963201,-0.258235,-0.017836,-0.2948969999999999,0.449932
132,-0.093399,0.968288,-0.231697,-0.09407,-0.131405,0.2323989999999999
133,-0.106223,0.972883,-0.205434,0.007926,0.434435,-0.39828
134,-0.113345,0.974671,-0.192761,0.067874,0.442275,-0.606418
135,-0.116738,0.973724,-0.1955039999999999,0.011361,-0.065659,-0.526725
136,-0.116245,0.970147,-0.2128179999999999,-0.061795,-0.2077719999999999,-0.49165
137,-0.110527,0.963669,-0.243137,-0.073799,-0.2480619999999999,-0.245114
138,-0.099638,0.951317,-0.291647,-0.0816669999999999,-0.223488,0.0281279999999999
139,-0.07951,0.933252,-0.350301,-0.239109,-0.262292,0.516454
140,-0.056594,0.91098,-0.408539,-0.262025,-0.240021,0.574692
141,-0.04533,0.8852620000000001,-0.462871,-0.093525,-0.4182659999999999,0.794795
142,-0.028593,0.862242,-0.505681,0.251752,-0.669982,0.564214
143,-0.0106319999999999,0.843051,-0.537722,0.055432,-0.2334929999999999,0.283282
144,0.0038909999999999,0.831609,-0.555343,0.068511,0.076213,0.390731
145,0.01783,0.8286879999999999,-0.5594210000000001,-0.1936109999999999,0.2312789999999999,0.530964
146,0.0297829999999999,0.833943,-0.551041,-0.534513,-0.285694,0.6030270000000001
147,0.040498,0.852239,-0.521576,-0.67273,-0.4598899999999999,0.497788
148,0.036948,0.883855,-0.466291,-0.29621,-0.4217729999999999,0.051939
149,0.0093709999999999,0.919007,-0.3941179999999999,-0.178316,-0.34401,-0.015276
150,-0.0380449999999999,0.949279,-0.312109,-0.114711,0.5727399999999999,-0.066751
151,-0.082384,0.967461,-0.239209,0.1771869999999999,1.043007,-0.201373
152,-0.098946,0.976484,-0.191514,0.5936670000000001,0.326083,-0.273604
153,-0.113553,0.979222,-0.167979,0.4123199999999999,0.0810039999999999,-0.623433
154,-0.126246,0.981477,-0.144054,0.273478,0.122405,-0.2645
155,-0.134741,0.98354,-0.120332,0.081289,0.034144,-0.083739
156,-0.134752,0.984744,-0.1100309999999999,-0.078261,-0.1188839999999999,-0.625061
157,-0.127772,0.986332,-0.103969,-0.389424,-0.457554,-0.462483
158,-0.109096,0.990465,-0.0840429999999999,-0.6459090000000001,-0.393099,-0.094683
159,-0.09079,0.991562,-0.092455,-0.474167,-0.217865,0.949801
160,-0.095737,0.990269,-0.100932,-1.119305,0.298137,-2.139806
161,-0.1073369999999999,0.985989,-0.127637,0.122168,1.4079620000000002,0.597287
162,-0.104172,0.980634,-0.165805,0.521972,1.32033,-0.89822
163,-0.113107,0.971648,-0.2075929999999999,0.131708,-0.252959,1.2396969999999998
164,-0.112981,0.968549,-0.221665,-0.198955,0.607363,0.118775
165,-0.116664,0.973671,-0.1958099999999999,-0.1370289999999999,0.475655,0.312112
166,-0.120433,0.975876,-0.182068,-0.076161,0.283203,0.384598
167,-0.132416,0.977335,-0.165133,-0.3215639999999999,0.300222,0.028674
168,-0.146538,0.977816,-0.1496289999999999,-0.3603739999999999,0.230146,-0.081939
169,-0.1572069999999999,0.976863,-0.144951,-0.345417,0.098347,-0.406853
170,-0.1645339999999999,0.973337,-0.1597829999999999,0.0324389999999999,-0.0544529999999999,-0.555396
171,-0.16805,0.966169,-0.1956109999999999,0.113393,-0.141966,-0.474387
172,-0.173612,0.95388,-0.244867,0.051634,-0.700508,0.35206
173,-0.179218,0.939007,-0.293488,0.003833,-0.875347,0.631074
174,-0.183336,0.925726,-0.330769,0.187715,-1.213858,0.815235
175,-0.180839,0.921073,-0.344834,0.41558,-1.446265,0.523438
176,-0.1686339999999999,0.922679,-0.34672,0.459405,-1.2408549999999998,0.439951
177,-0.148306,0.927237,-0.343839,0.487692,-0.76969,0.479185
178,-0.125148,0.933034,-0.337304,0.516567,-0.581472,0.534356
179,-0.1083819999999999,0.938602,-0.327519,0.347518,-0.519687,0.4241069999999999
180,-0.095086,0.946374,-0.308744,-0.230949,-0.309015,0.190381
181,-0.0997909999999999,0.953999,-0.2826929999999999,-0.541658,0.461147,-0.162071
182,-0.129853,0.959189,-0.251162,-0.466995,0.726984,-0.299894
183,-0.151308,0.962934,-0.2232739999999999,-0.186461,0.862002,-0.115288
184,-0.157885,0.965805,-0.2056199999999999,-0.0668769999999999,0.839173,-0.5986859999999999
185,-0.1556,0.969656,-0.188528,-0.161188,0.586604,-0.969081
186,-0.152665,0.974654,-0.163488,-0.033904,0.186433,-0.773783
187,-0.146618,0.978312,-0.146265,-0.330875,-0.132212,0.358927
188,-0.137421,0.978062,-0.156507,-0.544235,0.046504,-0.0668049999999999
189,-0.132867,0.976179,-0.171484,-0.59635,0.059145,0.186376
190,-0.137428,0.975552,-0.171456,-0.144707,-0.014691,0.356484
191,-0.131721,0.977736,-0.163301,-0.08474,3.219072,-1.764632
192,-0.10399,0.9776,-0.182948,-0.112472,3.219208,-1.744984
193,-0.092726,0.964942,-0.245509,-0.350007,-0.343101,1.518381
194,-0.090965,0.958188,-0.2712719999999999,-0.436867,-0.14993,0.704362
195,-0.100187,0.959891,-0.261837,-0.434329,0.2687469999999999,0.806774
196,-0.114871,0.962834,-0.244421,-0.128201,0.421535,0.131673
197,-0.121728,0.966043,-0.227877,-0.040717,0.437094,-0.273481
198,-0.122235,0.967263,-0.222363,-0.258976,0.549048,-0.468113
199,-0.125328,0.963461,-0.236688,-0.305061,0.276178,-0.526541
200,-0.131012,0.951423,-0.278595,-0.18042,0.02134,-0.563476
201,-0.132246,0.932304,-0.3366119999999999,-0.015673,-0.302207,-0.027051
202,-0.135895,0.90584,-0.4012159999999999,-0.047241,-0.7743399999999999,0.7286239999999999
203,-0.144062,0.8792139999999999,-0.454113,0.016071,-0.940585,1.059902
204,-0.142667,0.862843,-0.484911,0.333875,-1.32909,0.94478
205,-0.124863,0.855668,-0.5022270000000001,0.330719,-1.164872,0.588104
206,-0.1069599999999999,0.8510690000000001,-0.514034,0.147976,-0.688655,0.677028
207,-0.084877,0.849777,-0.520255,0.28164,-0.528961,0.7120270000000001
208,-0.0617809999999999,0.85403,-0.516532,0.189879,-0.437725,0.598762
209,-0.047748,0.8658950000000001,-0.497932,-0.004086,-0.393467,0.44477
210,-0.0571559999999999,0.8808010000000001,-0.470012,-0.084628,-0.270511,0.29153
211,-0.087646,0.896539,-0.4341939999999999,-0.132844,-0.03695,0.000875
212,-0.123856,0.912311,-0.390303,-0.301132,0.703778,-0.413912
213,-0.162497,0.927243,-0.337345,-0.264704,1.548068,-0.652523
214,-0.179137,0.941595,-0.285122,0.053114,1.447352,-0.73119
215,-0.173119,0.955942,-0.2370449999999999,0.224846,0.103613,-0.75583
216,-0.157866,0.966797,-0.2009119999999999,-0.00937,-0.260407,-0.313156
217,-0.138798,0.974233,-0.177732,-0.1059529999999999,-0.368001,0.080396
218,-0.120653,0.978731,-0.165865,-0.310774,-0.17827,0.141725
219,-0.10692,0.977514,-0.1817109999999999,-0.709929,0.281672,0.562128
220,-0.113366,0.97468,-0.192696,-1.018073,0.322638,-0.804344
221,-0.115102,0.971812,-0.20571,-0.072246,-0.7031810000000001,1.081961
222,-0.114548,0.970695,-0.211218,-0.0789639999999999,0.31472,0.855978
223,-0.132646,0.977622,-0.16323,-0.436171,3.624582,-3.052575
224,-0.132602,0.962709,-0.235781,0.286808,-0.412721,1.2532370000000002
225,-0.1437,0.953959,-0.263244,-0.008751,-0.0816139999999999,0.810333
226,-0.157577,0.9624,-0.221225,-0.292069,0.359744,0.355609
227,-0.177886,0.969048,-0.1711339999999999,-0.224717,0.507652,-0.269418
228,-0.189243,0.971179,-0.144848,-0.010754,0.521359,-0.2450449999999999
229,-0.1895329999999999,0.974131,-0.123001,0.110203,0.222464,-0.329041
230,-0.185128,0.975822,-0.1161089999999999,0.2215659999999999,0.201363,-0.615947
231,-0.177777,0.974779,-0.134849,0.0247,-0.147142,-0.864525
232,-0.168345,0.970488,-0.172616,0.2175239999999999,-0.36917,-0.304892
233,-0.1597,0.961245,-0.224694,0.048585,-0.7250850000000001,0.223428
234,-0.147878,0.949302,-0.277384,0.046422,-0.8439709999999999,0.687144
235,-0.13344,0.937831,-0.320395,0.079577,-0.815608,0.735052
236,-0.1096559999999999,0.930073,-0.350607,0.135703,-0.952641,0.747382
237,-0.0825019999999999,0.92263,-0.37674,0.009977,-0.698647,0.48871
238,-0.0643929999999999,0.913031,-0.402759,-0.0764,-0.575049,0.475284
239,-0.050523,0.90325,-0.426117,0.106889,-0.391836,0.63092
240,-0.033638,0.895508,-0.44376,0.215141,-0.142594,0.392261
241,-0.00866,0.8943639999999999,-0.447243,-0.197487,0.171279,0.28054
242,0.014122,0.8992610000000001,-0.43717,-0.405983,0.463074,0.151403
243,0.028486,0.908602,-0.416675,-0.445188,0.358701,0.084674
244,0.031692,0.921005,-0.388243,-0.381561,0.5052949999999999,0.164717
245,0.011997,0.935604,-0.352827,-0.2111849999999999,0.668628,0.082853
246,-0.029525,0.949164,-0.313371,-0.044846,0.360437,-0.309569
247,-0.079319,0.956577,-0.280453,0.148929,0.417141,-0.319523
248,-0.1221119999999999,0.956938,-0.263331,0.590282,0.200014,-0.4224449999999999
249,-0.1464339999999999,0.956173,-0.2535219999999999,0.6832229999999999,0.474704,-0.5345489999999999
250,-0.140211,0.96016,-0.241696,0.671293,0.7057640000000001,-0.989048
251,-0.112052,0.966022,-0.23287,0.455939,0.735119,-0.925135
252,-0.090405,0.966442,-0.240419,0.098721,0.071278,0.1038839999999999
253,-0.067061,0.961204,-0.2675329999999999,0.166991,-0.413139,0.143815
254,-0.054144,0.956519,-0.286575,-0.054025,-0.869941,-0.130905
255,-0.061102,0.956615,-0.284851,-0.311076,-0.635356,-0.12796
256,-0.073957,0.947813,-0.310106,-0.410968,0.055421,1.12697
257,-0.102,0.941797,-0.320312,-0.307851,-0.105524,1.316833
258,-0.130376,0.940815,-0.312818,-0.472423,0.44363,0.949735
259,-0.152892,0.943477,-0.294044,-1.533204,5.057225,-1.993447
260,-0.184496,0.918607,-0.349442,0.163668,-0.038587,1.339753
261,-0.222586,0.8920459999999999,-0.393315,0.122351,-0.563051,1.418538
262,-0.259587,0.8890459999999999,-0.3770929999999999,0.217182,0.6190869999999999,1.075809
263,-0.286528,0.903699,-0.318146,0.4041119999999999,1.012225,0.621887
264,-0.289231,0.915856,-0.278457,0.2464599999999999,0.796622,0.512984
265,-0.281692,0.927954,-0.243998,-0.298127,0.264123,0.436976
266,-0.275947,0.940426,-0.1985839999999999,-0.322396,-0.014721,0.428793
267,-0.276943,0.94992,-0.144697,-0.386921,-0.261291,0.15399
268,-0.288231,0.952559,-0.0976559999999999,-0.161644,-0.5729350000000001,-0.094971
269,-0.295299,0.95359,-0.058702,0.048305,-0.597145,-0.0635059999999999
270,-0.297309,0.954443,-0.025027,0.037742,-0.545263,-0.030118
271,-0.301805,0.953356,0.0023309999999999,0.043916,-0.463335,0.073139
272,-0.309247,0.950541,0.0285899999999999,0.067441,-0.366434,0.098378
273,-0.3185119999999999,0.946169,0.0573799999999999,0.0746759999999999,-0.304644,0.139153
274,-0.329101,0.940103,0.088751,0.055832,-0.220468,0.007441
275,-0.3411349999999999,0.93231,0.120005,0.07139,0.076937,-0.163554
276,-0.356173,0.922839,0.146583,0.134874,0.241056,-0.270622
277,-0.376145,0.912345,0.161606,0.329362,0.2901849999999999,-0.176086
278,-0.394543,0.90348,0.167436,0.331815,0.335625,-0.073411
279,-0.400702,0.895316,0.1944789999999999,0.1846529999999999,0.4881529999999999,-0.188101
280,-0.401819,0.888901,0.219934,0.267282,0.682892,-0.370126
281,-0.409462,0.885814,0.218283,0.34098,0.7329600000000001,-0.316565
282,-0.417861,0.8846040000000001,0.206982,0.411331,0.734338,-0.280422
283,-0.422738,0.8863969999999999,0.188593,0.514061,0.640153,-0.2701969999999999
284,-0.423944,0.892116,0.156123,0.487359,0.608082,-0.286601
285,-0.421826,0.900157,0.108421,0.374417,0.457554,-0.085289
286,-0.417585,0.907456,0.0460779999999999,0.172666,0.155685,0.137638
287,-0.406839,0.913179,-0.023755,0.127374,0.160582,0.366101
288,-0.391412,0.916026,-0.087595,0.078652,0.261357,0.503366
289,-0.371139,0.916412,-0.149751,0.042007,0.484253,0.72693
290,-0.34578,0.913659,-0.21365,-0.01358,0.363975,0.76202
291,-0.325311,0.908617,-0.261861,0.033868,0.370085,0.5585680000000001
292,-0.306249,0.906968,-0.289143,0.070653,0.18524,0.474476
293,-0.2822929999999999,0.910032,-0.303539,0.334005,0.253984,0.4799
294,-0.256414,0.910367,-0.324759,0.606771,0.266482,0.5407930000000001
295,-0.236502,0.906235,-0.350414,0.299902,0.117477,0.493968
296,-0.2234179999999999,0.901242,-0.371258,0.084975,-0.109678,0.617809
297,-0.215584,0.8973459999999999,-0.3850699999999999,0.077279,-0.171211,0.6368560000000001
298,-0.215988,0.8933770000000001,-0.393971,0.084747,-0.1047869999999999,0.6634260000000001
299,-0.222528,0.8897889999999999,-0.398426,0.0564669999999999,-0.080417,0.6558729999999999
300,-0.231392,0.8872049999999999,-0.399138,0.075432,-0.098341,0.618437
301,-0.239031,0.8866040000000001,-0.395959,0.015825,-0.175697,0.534524
302,-0.244188,0.8887219999999999,-0.3879829999999999,-0.062437,-0.245946,0.511289
303,-0.24874,0.892697,-0.375775,-0.139428,-0.262188,0.458554
304,-0.256104,0.8971299999999999,-0.359936,-0.132583,-0.3150219999999999,0.400936
305,-0.266816,0.902241,-0.338755,0.035462,-0.334416,0.294352
306,-0.278172,0.908234,-0.312594,0.10825,-0.304795,0.257159
307,-0.289809,0.914036,-0.283782,0.133483,-0.010578,-0.06627
308,-0.304721,0.917532,-0.2554659999999999,0.132373,0.601999,-0.7807430000000001
309,-0.313644,0.917664,-0.243932,0.421432,0.829024,-0.997691
310,-0.304876,0.91765,-0.254855,0.63143,0.8407110000000001,-0.899716
311,-0.276816,0.922738,-0.268162,0.589911,0.2085489999999999,-0.102779
312,-0.249123,0.92848,-0.275402,0.422722,-0.002912,-0.1098369999999999
313,-0.233585,0.931837,-0.277673,0.608692,-0.093793,-0.123328
314,-0.227965,0.934358,-0.273846,0.294356,0.081084,0.198193
315,-0.2177639999999999,0.93538,-0.278616,0.174139,1.377913,0.112265
316,-0.196625,0.931824,-0.305003,-0.70375,-0.625138,0.194377
317,-0.198243,0.929562,-0.310802,-0.6991569999999999,-1.177243,0.65855
318,-0.22034,0.933084,-0.284234,-0.143536,-0.40371,0.585854
319,-0.251838,0.933121,-0.256605,-0.15992,0.163147,0.8971690000000001
320,-0.29343,0.926856,-0.234136,-0.2251699999999999,0.315896,0.8252
321,-0.345562,0.915003,-0.208176,0.254803,0.575246,0.27501
322,-0.3875909999999999,0.905062,-0.17498,0.671481,0.6141949999999999,0.277076
323,-0.410854,0.8995549999999999,-0.148258,0.6947439999999999,0.6197020000000001,0.250354
324,-0.417617,0.900624,-0.120223,0.316222,0.11256,0.2525929999999999
325,-0.413659,0.906892,-0.080078,0.232125,-0.0265819999999999,0.347488
326,-0.39989,0.916051,-0.030292,0.132647,-0.138601,0.267383
327,-0.382162,0.923922,0.0172669999999999,0.059363,-0.203204,0.130514
328,-0.367956,0.927937,0.059321,0.015585,-0.136921,-0.054178
329,-0.359725,0.927842,0.098408,-0.026613,-0.151414,-0.086262
330,-0.358861,0.923942,0.132386,-0.165355,-0.171928,-0.178498
331,-0.364177,0.918127,0.156189,0.078883,-0.043523,-0.115021
332,-0.373356,0.911147,0.174335,0.160984,-0.034499,-0.0729409999999999
333,-0.384144,0.902861,0.1930059999999999,0.0893289999999999,-0.079527,0.138994
334,-0.3937,0.8933030000000001,0.2167599999999999,0.133385,0.0310589999999999,-0.006295
335,-0.401178,0.882375,0.245855,0.224238,0.146312,-0.214498
336,-0.406277,0.871967,0.273102,0.419049,0.26469,-0.660568
337,-0.410902,0.865553,0.2862699999999999,0.280134,0.402178,-0.566864
338,-0.417102,0.8620899999999999,0.287748,0.123554,0.322526,-0.431547
339,-0.424154,0.8597229999999999,0.284503,0.177313,0.350253,-0.319155
340,-0.430166,0.8602920000000001,0.273548,0.2695059999999999,0.3619679999999999,-0.226169
341,-0.432763,0.8628389999999999,0.2611489999999999,0.35447,0.3322449999999999,-0.251323
342,-0.4307319999999999,0.867809,0.247691,0.31977,0.433414,-0.3532969999999999
343,-0.4273189999999999,0.875178,0.2267969999999999,0.426801,0.443899,-0.615499
344,-0.423684,0.8871110000000001,0.183035,0.4635859999999999,0.427296,-0.307684
345,-0.415938,0.901823,0.116993,0.334441,0.404863,-0.061512
346,-0.400361,0.915087,0.048023,-0.015822,0.2065409999999999,0.201
347,-0.380469,0.924614,-0.017665,-0.204339,0.442619,0.477336
348,-0.361452,0.928784,-0.081821,-0.2853219999999999,0.466587,0.678882
349,-0.344516,0.929061,-0.134674,-0.244427,0.488008,0.738999
350,-0.320413,0.930453,-0.177698,-0.2158719999999999,0.360349,0.448343
351,-0.295612,0.931075,-0.21377,-0.149807,0.392991,0.204004
352,-0.264575,0.93438,-0.238577,0.2397639999999999,0.204933,0.339453
353,-0.228346,0.938075,-0.260495,0.398863,0.190739,0.37254
354,-0.199041,0.93757,-0.285184,0.302038,0.10459,0.322706
355,-0.178015,0.934962,-0.306827,-0.003428,-0.29571,0.415699
356,-0.1646369999999999,0.932008,-0.322865,-0.146948,-0.4787149999999999,0.358204
357,-0.158622,0.930449,-0.330288,-0.133324,-0.566527,0.395581
358,-0.160626,0.930111,-0.330271,-0.132236,-0.60812,0.447687
359,-0.168294,0.931221,-0.323253,-0.1040599999999999,-0.621925,0.448329
360,-0.17679,0.934704,-0.308318,-0.064619,-0.6165430000000001,0.4178
361,-0.185216,0.940086,-0.2862159999999999,-0.025157,-0.594169,0.309913
362,-0.195981,0.945654,-0.259452,0.013837,-0.5682590000000001,0.235114
363,-0.214358,0.949296,-0.2299409999999999,0.128329,-0.4444439999999999,0.047889
364,-0.2408489999999999,0.949805,-0.199615,0.065495,-0.064292,-0.190857
365,-0.267662,0.948175,-0.171191,0.082909,0.0320649999999999,-0.203977
366,-0.288378,0.946084,-0.147467,0.163226,0.070044,-0.080575
367,-0.296784,0.946626,-0.125708,0.394776,0.080794,-0.137598
368,-0.287494,0.951481,-0.109605,0.467182,0.1514849999999999,-0.362471
369,-0.273676,0.957685,-0.08901,0.482722,0.172732,-0.444742
370,-0.258968,0.962927,-0.075422,0.26675,0.091241,-0.037326
371,-0.242865,0.967795,-0.066118,0.098624,-0.0372529999999999,0.024492
372,-0.231905,0.971208,-0.054361,0.01964,-0.117525,-0.068671
373,-0.226117,0.973068,-0.044625,-0.011447,-0.136901,-0.074363
374,-0.225196,0.973623,-0.036399,-0.027489,-0.198614,-0.166421
375,-0.226963,0.973506,-0.027454,0.0275459999999999,-0.306392,-0.084012
376,-0.2298469999999999,0.973026,-0.019269,0.031513,-0.330494,0.180676
377,-0.236056,0.971661,-0.011547,-0.034193,-0.203488,0.309398
378,-0.244321,0.969684,-0.00115,-0.064746,0.010526,0.124273
379,-0.248754,0.96854,0.005679,0.219991,0.224438,-0.111408
380,-0.247553,0.968705,0.017534,-0.240819,2.358397,-0.736468
381,-0.245008,0.969319,0.019251,0.383238,0.982295,-1.447291
382,-0.242394,0.969261,-0.04195,-0.059044,-0.601585,1.056201
383,-0.2435969999999999,0.967297,-0.070561,-0.047632,-0.043744,0.5010720000000001
384,-0.248831,0.967127,-0.052246,-0.069025,0.391973,0.672425
385,-0.253712,0.967052,-0.020568,-0.119015,0.489903,0.132339
386,-0.260917,0.965318,0.008008,-0.166985,0.360534,-0.277234
387,-0.268451,0.962978,0.024246,-0.073056,0.349507,-0.4094239999999999
388,-0.271636,0.962106,0.0233759999999999,0.126632,0.394004,-0.82286
389,-0.27004,0.962825,-0.005226,-0.069223,0.21964,-1.120567
390,-0.266617,0.96164,-0.064386,-0.042755,-0.017228,-0.948309
391,-0.267934,0.952822,-0.142563,-0.169093,-0.252352,-0.315582
392,-0.275007,0.935814,-0.2204739999999999,0.081189,-0.6066819999999999,1.047546
393,-0.2828219999999999,0.9167,-0.282238,0.274491,-0.8632790000000001,0.828792
394,-0.287603,0.903331,-0.318221,0.321386,-1.042628,0.8753190000000001
395,-0.275886,0.897575,-0.343851,0.454322,-1.107047,0.673578
396,-0.256401,0.8960459999999999,-0.362419,0.3245159999999999,-1.05756,0.655967
397,-0.234327,0.896702,-0.375504,0.3224309999999999,-0.958302,0.681473
398,-0.20938,0.900847,-0.380293,0.4907979999999999,-0.721709,0.609114
399,-0.188329,0.909949,-0.369477,0.253897,-0.663046,0.176499
400,-0.183676,0.922226,-0.3402199999999999,0.142096,-0.476471,-0.048086
401,-0.201214,0.932858,-0.298788,-0.027194,0.203204,-0.18049
402,-0.227845,0.938456,-0.259562,-0.369705,0.946401,-0.152608
403,-0.2485889999999999,0.941121,-0.229086,0.092446,0.677455,-0.4076639999999999
404,-0.262712,0.943198,-0.2033309999999999,0.10753,0.736398,-0.74752
405,-0.2735329999999999,0.948797,-0.157947,0.38538,0.7185159999999999,-1.197979
406,-0.275446,0.9545,-0.1142,0.4768779999999999,-0.121858,-0.277539
407,-0.2682739999999999,0.958454,-0.096831,0.328897,-0.196949,-0.186159
408,-0.251678,0.963308,-0.09316,-0.064286,0.112223,0.090002
409,-0.231285,0.96734,-0.103653,-0.275627,-0.2367639999999999,0.66069
410,-0.217321,0.970399,-0.105265,-0.265757,-0.519029,0.395411
411,-0.223727,0.972945,-0.057504,-0.884366,1.27617,-0.848441
412,-0.2090159999999999,0.970861,-0.117146,0.7180949999999999,-0.7534850000000001,1.303364
413,-0.202807,0.956715,-0.208688,0.449114,-0.8527110000000001,1.8144
414,-0.211059,0.951348,-0.2244429999999999,-0.1210789999999999,-0.8697600000000001,0.459139
415,-0.237889,0.953889,-0.182996,-0.223124,0.909026,0.4526949999999999
416,-0.2455159999999999,0.96061,-0.130127,0.453874,0.891395,-0.371994
417,-0.237792,0.964635,-0.1136539999999999,0.019545,0.465404,-0.1333859999999999
418,-0.236638,0.967476,-0.089296,-0.200328,0.267295,-0.267866
419,-0.2468219999999999,0.966211,-0.074136,-0.291127,0.1110599999999999,-0.3748849999999999
420,-0.2590969999999999,0.962946,-0.0747299999999999,-0.068143,0.0591789999999999,-0.425911
421,-0.274289,0.957428,-0.089882,0.079877,0.1074069999999999,-0.65673
422,-0.286592,0.949066,-0.130851,0.115816,0.046708,-0.736612
423,-0.293162,0.936967,-0.1900859999999999,0.2316389999999999,-0.095246,-0.349724
424,-0.294417,0.920636,-0.256385,0.1222829999999999,-0.343625,0.343909
425,-0.295307,0.9011,-0.3174889999999999,0.152882,-0.6519689999999999,0.8154140000000001
426,-0.299023,0.880669,-0.367417,0.254757,-1.002724,0.745286
427,-0.295559,0.866822,-0.401561,0.480969,-1.205568,0.6002310000000001
428,-0.281485,0.859258,-0.4271189999999999,0.533987,-0.922811,0.6345930000000001
429,-0.265337,0.8536799999999999,-0.448126,0.575533,-0.6646989999999999,0.6938380000000001
430,-0.247212,0.853999,-0.457777,0.5503279999999999,-0.570705,0.585249
431,-0.231153,0.8624149999999999,-0.450331,0.202649,-0.623355,0.4085519999999999
432,-0.222009,0.877813,-0.424435,0.112741,-0.506963,0.370724
433,-0.225255,0.896107,-0.382414,-0.304225,0.007717,0.28958
434,-0.24719,0.911396,-0.329001,-0.23009,0.726254,-0.146829
435,-0.280842,0.922819,-0.263661,-0.021084,0.78235,-0.37289
436,-0.305852,0.929851,-0.20449,0.158147,1.52509,-0.866555
437,-0.307546,0.937844,-0.16077,0.536199,0.570411,-1.169201
438,-0.298417,0.946573,-0.122189,0.418549,0.2662719999999999,-0.945163
439,-0.287929,0.953601,-0.087891,-0.144749,-0.273043,-0.242217
440,-0.275294,0.959203,-0.064217,-0.333989,-0.201742,-0.078606
441,-0.263102,0.962801,-0.061426,-0.478384,0.277174,-0.047247
442,-0.256583,0.962463,-0.088387,-0.50802,0.232041,0.452401
443,-0.258107,0.961272,-0.096536,-0.021174,-0.4938189999999999,-0.285452
444,-0.258691,0.962342,-0.083415,0.331384,1.755797,-1.037847
445,-0.2325179999999999,0.964268,-0.126908,0.726735,1.661129,-0.978454
446,-0.222991,0.955951,-0.190829,-0.06189,-0.749591,1.496509
447,-0.238535,0.952272,-0.190425,-0.384252,-0.155947,0.344127
448,-0.266255,0.953317,-0.142405,0.146428,0.8402629999999999,0.268015
449,-0.276326,0.955898,-0.099424,0.4648029999999999,0.799,-0.445727
450,-0.276038,0.957958,-0.078113,0.092429,0.4946939999999999,-0.152005
451,-0.278978,0.958483,-0.058855,-0.221419,0.321165,-0.7162149999999999
452,-0.288173,0.955072,-0.069106,-0.319585,0.328436,-0.933213
453,-0.300687,0.946672,-0.115678,-0.187441,0.2164289999999999,-0.6763899999999999
454,-0.315211,0.931482,-0.18157,0.09904,-0.130396,-0.052408
455,-0.331565,0.910797,-0.245965,0.135627,-0.294174,0.442681
456,-0.3467,0.888877,-0.2994719999999999,0.245077,-0.750235,0.810214
457,-0.35254,0.8755639999999999,-0.330289,0.546922,-1.188995,0.8133819999999999
458,-0.339638,0.8747090000000001,-0.3457159999999999,0.680031,-1.28488,0.819028
459,-0.319793,0.8790209999999999,-0.353615,0.5907439999999999,-1.168159,0.671303
460,-0.294152,0.887782,-0.353984,0.491464,-0.926479,0.4780529999999999
461,-0.266696,0.899567,-0.345891,0.453097,-0.837967,0.483968
462,-0.243384,0.913157,-0.326947,0.382209,-0.872783,0.430051
463,-0.2335809999999999,0.924047,-0.302595,0.413101,-0.431493,0.2123699999999999
464,-0.249509,0.928872,-0.273728,0.132001,0.121467,0.088075
465,-0.302885,0.924872,-0.229906,-0.072024,0.930077,-0.5287
466,-0.348465,0.920702,-0.175681,-0.189377,1.379072,-0.540338
467,-0.359186,0.919402,-0.160216,0.149424,1.15822,-0.764649
468,-0.355059,0.922457,-0.151622,-0.016356,0.545438,-0.990315
469,-0.344375,0.929403,-0.132666,-0.217301,0.0188699999999999,-0.433893
470,-0.328484,0.937271,-0.1166359999999999,-0.562766,-0.173447,-0.404208
471,-0.31261,0.943675,-0.108331,-0.434339,-0.058436,-0.267036
472,-0.294176,0.947425,-0.125807,0.047701,-0.110481,0.959501
473,-0.283559,0.947976,-0.1446349999999999,0.093602,-0.258614,0.785474
474,-0.287983,0.948915,-0.128876,-0.160457,1.181029,-0.287139
475,-0.286482,0.952214,-0.105827,0.289931,2.581234,-2.538734
476,-0.2737,0.944815,-0.17999,0.067661,-0.326468,1.3978549999999998
477,-0.28688,0.934641,-0.2100719999999999,-0.2488409999999999,-0.067957,0.5046579999999999
478,-0.309225,0.934212,-0.177795,0.029226,0.720421,0.73085
479,-0.321585,0.937707,-0.131421,0.285848,0.70507,-0.076632
480,-0.328434,0.938339,-0.107857,0.12949,0.3140719999999999,-0.335029
481,-0.331389,0.939449,-0.087161,0.073165,0.215275,-0.5148590000000001
482,-0.3358239999999999,0.937858,-0.087319,-0.1866519999999999,0.257363,-0.7796390000000001
483,-0.343677,0.933157,-0.105292,-0.028805,0.080943,-0.883707
484,-0.352411,0.925954,-0.1356369999999999,0.160806,-0.2156269999999999,-0.426726
485,-0.362121,0.915969,-0.172775,0.3270409999999999,-0.859924,0.32663
486,-0.369092,0.904634,-0.213054,0.326947,-0.902147,0.423808
487,-0.3672829999999999,0.896459,-0.24789,0.32819,-0.922033,0.553233
488,-0.354994,0.894808,-0.270709,0.29077,-1.199358,0.686465
489,-0.350939,0.892424,-0.283561,0.140795,-0.962492,0.553596
490,-0.350669,0.8927430000000001,-0.28289,0.244529,-0.846585,0.488746
491,-0.343439,0.895233,-0.283889,0.6486,-0.651169,0.521881
492,-0.326045,0.90106,-0.285958,0.682185,-0.529569,0.196038
493,-0.308247,0.910535,-0.27549,0.266713,-0.404676,0.351968
494,-0.297151,0.922475,-0.246429,-0.092482,0.22227,0.635055
495,-0.315137,0.928699,-0.195424,-0.148654,0.507077,-0.021357
496,-0.337992,0.933279,-0.1213839999999999,-0.036444,0.656397,-0.6608729999999999
497,-0.338059,0.938752,-0.066659,-0.252685,2.087585,-0.993781
498,-0.322977,0.942298,-0.087991,-0.190039,1.250222,-1.597983
499,-0.319772,0.9447,-0.072591,0.083062,-0.245207,-2.0000720000000003
500,-0.306198,0.949438,-0.069224,-0.046341,-0.371435,0.279277
501,-0.284092,0.953008,-0.10512,0.057454,-0.304982,1.262057
502,-0.264554,0.956284,-0.1245609999999999,-0.283252,0.266448,0.654834
503,-0.265358,0.957565,-0.1124119999999999,-0.8220290000000001,2.07695,0.241013
504,-0.312266,0.949983,0.001839,-1.405141,4.591552,-1.533745
505,-0.33439,0.9405,-0.060208,0.426034,-0.661829,1.52203
506,-0.338384,0.928381,-0.153586,0.498174,-0.5356350000000001,0.978385
507,-0.322978,0.928767,-0.181826,0.217112,0.749929,0.8944270000000001
508,-0.3160719999999999,0.940788,-0.122475,0.040757,0.438485,0.777489
509,-0.308107,0.95001,-0.050328,-0.133055,0.364352,0.520405
510,-0.298905,0.953936,0.025319,-0.208007,0.101621,-0.4411819999999999
511,-0.298961,0.952788,0.052881,-0.153142,-0.167022,-0.237192
512,-0.302268,0.950351,0.073795,-0.0299,-0.234119,-0.257023
513,-0.308191,0.946523,0.095344,0.206735,-0.403616,-0.2016069999999999
514,-0.317546,0.941278,0.114624,0.289042,-0.500696,-0.1977529999999999
515,-0.328556,0.935477,0.130046,0.22359,-0.5705180000000001,-0.116496
516,-0.338755,0.929144,0.148034,0.065898,-0.525946,-0.12304
517,-0.350578,0.920681,0.17152,0.035164,-0.390606,-0.266705
518,-0.367533,0.909615,0.193643,0.128428,-0.395424,-0.505548
519,-0.392511,0.8967940000000001,0.204141,0.280908,-0.434681,-0.20675
520,-0.4162939999999999,0.885547,0.206116,0.50745,-0.193881,-0.047882
521,-0.428559,0.877331,0.215881,0.7090770000000001,0.132938,-0.511352
522,-0.436462,0.8711190000000001,0.2250079999999999,0.628448,0.117498,-0.574617
523,-0.444723,0.866367,0.2271699999999999,0.258321,0.0379759999999999,-0.619016
524,-0.458539,0.859999,0.223872,0.168592,0.129121,-0.5650430000000001
525,-0.4732689999999999,0.856541,0.2057409999999999,0.21863,0.134517,-0.57952
526,-0.4805899999999999,0.859375,0.174597,0.451171,0.8958889999999999,-0.482199
527,-0.4745399999999999,0.8699709999999999,0.133938,0.53173,1.074517,0.276341
528,-0.4529479999999999,0.887426,0.085384,0.554632,1.341379,0.7349439999999999
529,-0.420199,0.90689,0.031005,-0.028562,1.268723,0.583466
530,-0.3947219999999999,0.918744,-0.0092,-0.288903,1.027866,0.279067
531,-0.381548,0.92306,-0.0486,-0.404264,1.131032,0.194764
532,-0.36588,0.926473,-0.0880919999999999,-0.164958,0.755518,0.1021
533,-0.335974,0.935688,-0.1076609999999999,-0.204324,0.4332229999999999,0.3481849999999999
534,-0.292351,0.950852,-0.101949,-0.265281,0.142928,0.635946
535,-0.264515,0.95991,-0.092672,0.172565,0.179693,0.73557
536,-0.253732,0.961549,-0.1050079999999999,0.423944,0.0441579999999999,0.406018
537,-0.253806,0.960925,-0.110402,-0.17376,-0.505679,0.380254
538,-0.257654,0.959906,-0.110357,-0.212301,-0.776617,0.276739
539,-0.266098,0.958426,-0.1029289999999999,-0.145858,-0.894934,0.190392
540,-0.281099,0.955623,-0.088034,-0.096647,-0.850124,0.173788
541,-0.300196,0.951478,-0.067483,-0.030813,-0.711046,0.102868
542,-0.316426,0.947368,-0.048496,0.076832,-0.4379229999999999,-0.077907
543,-0.323292,0.944708,-0.054708,-0.048839,0.09701,-0.781993
544,-0.319766,0.942768,-0.094458,0.027087,0.889401,-1.42431
545,-0.30669,0.94377,-0.123385,0.653004,0.098772,-0.912641
546,-0.276889,0.951134,-0.136606,0.968295,-0.212365,0.377954
547,-0.2350989999999999,0.959549,-0.154852,1.095221,0.166748,-0.027093
548,-0.204425,0.963319,-0.173818,0.927325,0.15628,-0.349528
549,-0.188113,0.965761,-0.178616,0.488849,-0.085726,-0.015735
550,-0.1739609999999999,0.968212,-0.17969,-0.7122539999999999,1.388706,0.575625
551,-0.168234,0.963654,-0.2074949999999999,-1.19816,2.712692,-0.160563
552,-0.1630619999999999,0.956952,-0.240084,-0.8659450000000001,-1.544507,1.117449
553,-0.16709,0.960348,-0.223158,-0.6409090000000001,-1.490011,0.711622
554,-0.183942,0.965123,-0.186249,-0.361788,-0.84406,0.7339939999999999
555,-0.220466,0.961842,-0.161985,-0.110344,0.022014,0.901106
556,-0.280836,0.948412,-0.147074,-0.055544,1.6828740000000002,0.004358
557,-0.32438,0.9386,-0.117438,0.788141,0.7395,-0.198129
558,-0.334207,0.937365,-0.098162,0.641641,0.187894,0.439166
559,-0.32108,0.944474,-0.069712,0.05927,0.081771,0.1331119999999999
560,-0.301318,0.952985,-0.031769,0.059085,0.009753,0.056839
561,-0.277127,0.960776,0.009618,0.036481,-0.026373,0.0932419999999999
562,-0.251069,0.966526,0.052667,-0.153136,-0.075351,-0.138909
563,-0.233619,0.967967,0.091882,-0.336037,-0.280284,-0.203775
564,-0.226005,0.966371,0.122598,-0.1890339999999999,-0.329408,-0.144891
565,-0.221707,0.963832,0.147834,-0.055285,-0.229854,-0.151908
566,-0.219347,0.960376,0.1718869999999999,0.048281,-0.17084,-0.105847
567,-0.216702,0.956484,0.1953369999999999,0.084927,-0.260607,0.0608429999999999
568,-0.215115,0.951467,0.220036,0.05006,-0.3160139999999999,0.164226
569,-0.215204,0.945313,0.24505,-0.0564029999999999,-0.14914,0.07392
570,-0.21581,0.93801,0.271185,-0.204051,0.060708,-0.164221
571,-0.217087,0.928754,0.300446,-0.252579,0.1963069999999999,-0.379333
572,-0.22391,0.917326,0.329173,-0.157346,0.214403,-0.5227
573,-0.239336,0.904165,0.353809,0.105166,0.137186,-0.491458
574,-0.257973,0.8932209999999999,0.368216,0.267831,0.285826,-0.400946
575,-0.271279,0.885893,0.37627,0.290444,0.326281,-0.239032
576,-0.275073,0.880274,0.386561,0.158633,0.336736,-0.422739
577,-0.274506,0.8770700000000001,0.394173,0.086518,0.396169,-0.6733779999999999
578,-0.280287,0.877607,0.388876,0.140776,0.469211,-0.746023
579,-0.2903219999999999,0.8818889999999999,0.371434,0.350778,0.5247729999999999,-0.616842
580,-0.298621,0.8912690000000001,0.341238,0.466742,0.559689,-0.4522
581,-0.305286,0.90541,0.294977,0.597675,0.601304,-0.119425
582,-0.303279,0.924152,0.232259,0.331721,0.637768,0.053447
583,-0.290135,0.942219,0.1674109999999999,0.124028,0.575619,0.232934
584,-0.273579,0.956611,0.100162,0.13538,0.648187,0.478009
585,-0.255385,0.966227,0.034171,0.033186,0.532629,0.651147
586,-0.234765,0.971786,-0.022385,-0.024436,0.308564,0.529145
587,-0.2185889999999999,0.974056,-0.058457,-0.035882,0.2028849999999999,0.07013
588,-0.203843,0.975447,-0.083282,0.025117,0.167101,0.006347
589,-0.180217,0.977006,-0.113871,0.06866,0.101638,0.065882
590,-0.152818,0.978038,-0.141678,0.344728,-0.049633,0.27649
591,-0.1298089999999999,0.977459,-0.166463,0.227557,-0.143825,0.606648
592,-0.11265,0.973486,-0.199049,0.175241,-0.2848719999999999,0.525359
593,-0.100369,0.968599,-0.2274409999999999,-0.029468,-0.211015,0.4764029999999999
594,-0.0961,0.962364,-0.25418,-0.033737,-0.20478,0.503142
595,-0.098852,0.955071,-0.279384,-0.079355,-0.12249,0.5843470000000001
596,-0.105999,0.946638,-0.304349,-0.039097,-0.183089,0.444333
597,-0.113006,0.938962,-0.324914,-0.071427,-0.194241,0.3920679999999999
598,-0.117566,0.933171,-0.339645,-0.104266,-0.2282449999999999,0.353073
599,-0.118849,0.929952,-0.347926,-0.153704,-0.303671,0.38682
600,-0.120761,0.928635,-0.350774,-0.124081,-0.306595,0.400121
601,-0.124524,0.929513,-0.347114,-0.067477,-0.278802,0.391517
602,-0.1300589999999999,0.932536,-0.336823,-0.003196,-0.276912,0.331375
603,-0.136572,0.936407,-0.323231,0.04537,-0.250646,0.183171
604,-0.143611,0.940003,-0.30945,-0.011662,-0.199967,-0.0673049999999999
605,-0.152005,0.942176,-0.298643,0.092404,0.367776,-0.745654
606,-0.157763,0.939585,-0.303775,0.146822,0.663626,-0.928494
607,-0.15467,0.931139,-0.3302199999999999,0.127921,0.851484,-0.945934
608,-0.141495,0.921994,-0.360408,-0.0140229999999999,0.093997,-0.2305489999999999
609,-0.124841,0.915622,-0.382152,-0.007178,-0.197513,-0.127644
610,-0.112415,0.912248,-0.393898,0.080447,-0.401597,0.128044
611,-0.10993,0.912622,-0.393732,0.076727,-0.214136,0.000178
612,-0.106613,0.917258,-0.383745,-0.371567,0.96615,0.402819
613,-0.1035,0.916928,-0.385382,-0.624726,2.393146,-0.24795
614,-0.105824,0.905876,-0.410097,-0.345715,1.065712,0.0347
615,-0.1082849999999999,0.904597,-0.412271,-0.1849579999999999,-1.470546,1.134714
616,-0.097447,0.915086,-0.391294,-0.100872,-0.330506,0.487806
617,-0.085289,0.927933,-0.362842,-0.083061,0.3139639999999999,0.722186
618,-0.086834,0.937655,-0.336527,-0.0899539999999999,0.188794,0.409175
619,-0.0971279999999999,0.943622,-0.3164349999999999,0.06156,0.110455,0.34004
620,-0.111725,0.948301,-0.297034,0.0840149999999999,0.2422349999999999,0.309104
621,-0.128814,0.951271,-0.280138,0.084106,0.377556,0.005938
622,-0.143466,0.953729,-0.264208,-0.043912,0.015296,0.104189
623,-0.156872,0.956614,-0.245492,-0.0585059999999999,-0.115336,0.1351099999999999
624,-0.168552,0.959963,-0.223714,0.0286139999999999,0.003767,0.120015
625,-0.175998,0.963754,-0.200472,0.122973,0.1192839999999999,0.030688
626,-0.177877,0.967535,-0.179502,0.049306,0.0413759999999999,-0.062335
627,-0.1763289999999999,0.970864,-0.162223,-0.076815,-0.042779,-0.0309839999999999
628,-0.174938,0.973718,-0.145795,-0.1101569999999999,-0.057809,0.112408
629,-0.174492,0.976088,-0.129571,-0.070168,-0.078231,0.161706
630,-0.17628,0.977416,-0.1164839999999999,-0.056187,-0.110991,0.0787799999999999
631,-0.180918,0.978128,-0.102557,0.00535,-0.000498,-0.132596
632,-0.185369,0.978405,-0.0913549999999999,-0.0561929999999999,0.051715,-0.2534929999999999
633,-0.188047,0.978258,-0.087375,-0.103778,0.052183,-0.263928
634,-0.190407,0.977137,-0.094514,-0.122719,0.03481,-0.307998
635,-0.193263,0.973863,-0.119271,-0.3446849999999999,-0.022432,-0.536323
636,-0.1978599999999999,0.966175,-0.1653599999999999,-0.216142,-0.131397,-0.166473
637,-0.205855,0.95051,-0.232686,-0.0571,-0.287164,0.094929
638,-0.2102989999999999,0.927858,-0.3079659999999999,-0.0533419999999999,-0.4572,0.612028
639,-0.2082,0.902277,-0.377542,0.088617,-0.642863,1.148432
640,-0.203922,0.8815440000000001,-0.425777,0.160526,-0.988051,1.082622
641,-0.1975039999999999,0.8739530000000001,-0.44406,0.21203,-1.333044,0.565459
642,-0.189657,0.872131,-0.451008,0.476797,-0.83136,0.731632
643,-0.162962,0.8693280000000001,-0.466587,0.58145,-0.7875260000000001,0.7236819999999999
644,-0.133347,0.8713790000000001,-0.472131,0.642884,-0.686824,0.678201
645,-0.112746,0.8800790000000001,-0.461238,0.337553,-0.4658479999999999,0.417415
646,-0.1041059999999999,0.8970379999999999,-0.429506,0.014842,-0.251087,0.418642
647,-0.1186369999999999,0.916843,-0.3812,-0.396713,0.273511,0.101507
648,-0.159488,0.933453,-0.321275,-0.355862,0.256901,0.041581
649,-0.162489,0.949656,-0.267838,-0.024843,1.7568709999999998,-0.592986
650,-0.157458,0.959397,-0.233988,0.164432,0.8872059999999999,-1.196142
651,-0.152148,0.968275,-0.198195,0.079287,0.178545,-0.95099
652,-0.1399369999999999,0.975291,-0.1709099999999999,-0.323076,-0.554088,0.094662
653,-0.128998,0.978061,-0.16353,-0.481308,-0.564181,0.0795
654,-0.123514,0.977712,-0.16973,-0.702597,0.227534,0.55683
655,-0.11992,0.97453,-0.189465,-0.254348,-0.111844,0.330792
656,-0.114813,0.974169,-0.19442,0.158193,-0.44414,0.1694109999999999
657,-0.101265,0.976266,-0.191404,0.2180099999999999,2.315634,-1.365816
658,-0.0979039999999999,0.980808,-0.168571,-0.067165,4.788876,-2.988046
659,-0.077084,0.975103,-0.207891,0.011883,-0.779821,1.371114
660,-0.083126,0.961893,-0.260461,-0.483662,-0.175073,0.118996
661,-0.111015,0.961357,-0.251904,-0.180244,0.5257649999999999,0.844616
662,-0.132711,0.967601,-0.2147619999999999,0.140982,0.618871,0.008601
663,-0.143763,0.971041,-0.190782,-0.029501,0.4433109999999999,-0.548475
664,-0.142013,0.972327,-0.185471,-0.249604,0.443476,-0.606689
665,-0.1357809999999999,0.969241,-0.205233,-0.33332,0.225705,-0.640027
666,-0.1385569999999999,0.955023,-0.2621449999999999,-0.344628,-0.205267,-0.394059
667,-0.152344,0.929768,-0.335129,-0.207474,-0.507618,0.514405
668,-0.173522,0.8994969999999999,-0.400979,0.086806,-0.785636,1.010964
669,-0.189941,0.874141,-0.446978,0.4272149999999999,-1.161937,0.924578
670,-0.1795109999999999,0.861934,-0.47417,0.6138680000000001,-1.308924,0.7466
671,-0.159182,0.8570450000000001,-0.490027,0.409319,-0.8994639999999999,0.8055479999999999
672,-0.136936,0.853649,-0.502516,0.491688,-0.704052,0.724852
673,-0.1107829999999999,0.8557309999999999,-0.505413,0.3589219999999999,-0.6190060000000001,0.6276970000000001
674,-0.084282,0.867145,-0.4908619999999999,0.043709,-0.5212439999999999,0.429796
675,-0.067908,0.885858,-0.4589479999999999,-0.016229,-0.33552,0.31579
676,-0.073183,0.906792,-0.415164,-0.1983619999999999,-0.164864,0.122364
677,-0.10422,0.925681,-0.363649,-0.58154,0.594171,-0.194716
678,-0.126485,0.94338,-0.306631,-0.376766,1.290629,-0.163813
679,-0.132588,0.955869,-0.262146,-0.1079359999999999,1.2708,-0.649963
680,-0.131888,0.966882,-0.2184699999999999,0.229773,0.5938479999999999,-0.933416
681,-0.118538,0.977759,-0.172973,0.054908,-0.2118139999999999,-0.561814
682,-0.09726,0.983935,-0.149652,-0.439224,-0.234698,-0.088156
683,-0.083696,0.984466,-0.154293,-0.4818409999999999,-0.063674,0.022976
684,-0.076237,0.981093,-0.177846,-0.32861,-0.175704,0.731312
685,-0.073749,0.979911,-0.185256,-0.280163,0.1419,-0.281495
686,-0.077166,0.980272,-0.181925,-0.42645,2.877898,-2.017019
687,-0.0557059999999999,0.976824,-0.2066329999999999,-0.067325,0.476133,0.7420329999999999
688,-0.044806,0.964076,-0.261794,-0.2066739999999999,-0.61938,1.124876
689,-0.060752,0.957501,-0.281935,-0.343087,0.161975,0.675322
690,-0.082597,0.962972,-0.256609,-0.101516,0.70344,0.769411
691,-0.097896,0.971524,-0.215738,-0.018819,0.74007,0.392313
692,-0.10137,0.97524,-0.196512,-0.357614,0.57191,-0.509085
693,-0.101923,0.974639,-0.199188,-0.484411,0.490663,-0.5419470000000001
694,-0.110046,0.963559,-0.243782,-0.390686,0.380862,-0.924813
695,-0.126875,0.943503,-0.306093,-0.486147,-0.080145,0.126176
696,-0.152339,0.915273,-0.372902,0.182536,-0.6179859999999999,0.5346
697,-0.182267,0.8846299999999999,-0.429183,0.143784,-0.626604,0.614974
698,-0.1963619999999999,0.861355,-0.468508,0.428417,-0.8901479999999999,0.998156
699,-0.18716,0.848744,-0.494565,0.5084489999999999,-1.259236,0.7863439999999999
700,-0.17718,0.840462,-0.512077,0.253413,-1.034752,0.565696
701,-0.163233,0.8348450000000001,-0.525718,0.364329,-0.7770600000000001,0.629432
702,-0.1436339999999999,0.833866,-0.5329430000000001,0.450854,-0.665333,0.650786
703,-0.124227,0.8394450000000001,-0.529047,0.379598,-0.472502,0.544901
704,-0.108268,0.853633,-0.5094890000000001,0.1190869999999999,-0.310878,0.473952
705,-0.104968,0.874288,-0.473912,-0.270917,-0.174367,0.172749
706,-0.115502,0.898193,-0.424145,-0.799095,0.409028,-0.215061
707,-0.132848,0.921789,-0.364206,-0.297419,0.908869,-0.362357
708,-0.151529,0.940915,-0.302828,-0.0278379999999999,1.309191,-0.537122
709,-0.1571789999999999,0.956701,-0.244959,0.17494,0.575389,-0.680212
710,-0.141163,0.969845,-0.198645,-0.011104,-0.15237,-0.446572
711,-0.119932,0.977404,-0.174021,-0.524889,-0.45505,-0.240774
712,-0.106819,0.980542,-0.164658,-1.016853,0.172504,-0.468247
713,-0.1064529999999999,0.979197,-0.172702,-0.6360239999999999,0.259206,0.145007
714,-0.094316,0.977399,-0.189157,0.086336,-0.188321,0.71673
715,-0.073278,0.97919,-0.189214,0.315557,0.8865780000000001,-0.00561
716,-0.065172,0.979546,-0.190332,0.266572,2.8677740000000003,-1.783316
717,-0.0446149999999999,0.971651,-0.232142,-0.2158679999999999,-0.495668,1.558665
718,-0.044413,0.957626,-0.284547,-0.47222,-0.369933,0.600526
719,-0.067336,0.957281,-0.2811869999999999,-0.308137,0.664622,0.8055399999999999
720,-0.092986,0.965848,-0.2418199999999999,-0.043046,0.918551,0.771468
721,-0.100743,0.972971,-0.20776,0.186925,0.7570859999999999,-0.512516
722,-0.095081,0.976089,-0.195434,-0.341183,0.493988,-0.461503
723,-0.103272,0.972575,-0.208367,-0.648223,0.352742,-0.7954319999999999
724,-0.11942,0.958827,-0.257636,-0.6112770000000001,0.109548,-0.252801
725,-0.136228,0.936964,-0.321757,-0.1512619999999999,-0.263075,0.327327
726,-0.155604,0.910035,-0.384203,0.1640569999999999,-0.365556,0.399843
727,-0.177984,0.8844489999999999,-0.431349,0.256338,-0.620502,0.928861
728,-0.187219,0.867683,-0.460506,0.534982,-1.407905,0.913234
729,-0.169226,0.862867,-0.476249,0.519354,-1.544645,0.813239
730,-0.1460769999999999,0.8619559999999999,-0.4854729999999999,0.372609,-1.178835,0.631316
731,-0.119506,0.8644780000000001,-0.488249,0.4888,-0.741751,0.478178
732,-0.098063,0.869399,-0.484272,0.354884,-0.829833,0.505359
733,-0.0803659999999999,0.878791,-0.47038,0.2954699999999999,-0.8288639999999999,0.463727
734,-0.060363,0.894487,-0.4429869999999999,0.157058,-0.530733,0.4444979999999999
735,-0.051773,0.913046,-0.404544,-0.038758,-0.168035,0.2315699999999999
736,-0.082143,0.92865,-0.3617309999999999,-0.50851,0.612061,-0.303552
737,-0.125038,0.942566,-0.30971,-0.460991,1.099105,-0.322569
738,-0.141519,0.95142,-0.273419,0.069406,1.201824,-0.440677
739,-0.145497,0.95626,-0.253737,0.101383,0.901772,-0.740953
740,-0.142464,0.963034,-0.228593,-0.146919,0.258829,-0.629943
741,-0.137863,0.969672,-0.201775,-0.402863,-0.1575079999999999,-0.349846
742,-0.126727,0.973018,-0.192768,-1.026792,0.2010849999999999,-0.462506
743,-0.108307,0.972245,-0.207348,-0.402801,-0.198304,1.089123
744,-0.077784,0.97246,-0.219669,0.119226,-0.516833,0.883609
745,-0.080534,0.973944,-0.211968,-0.50548,4.005167,-3.330222
746,-0.0696649999999999,0.960458,-0.269542,0.116295,0.082236,1.638729
747,-0.054647,0.936201,-0.34717,-0.061991,-0.6008899999999999,1.34424
748,-0.066965,0.929484,-0.362715,-0.401632,0.777379,0.90103
749,-0.106454,0.939976,-0.324189,-0.158377,0.937541,0.8849799999999999
750,-0.140764,0.953165,-0.2676699999999999,0.289049,0.67684,-0.640732
751,-0.150252,0.959136,-0.239722,-0.121415,0.54802,-0.069788
752,-0.154045,0.963809,-0.217545,-0.303795,0.294965,-0.265441
753,-0.167981,0.966447,-0.1942839999999999,-0.344256,0.114928,-0.571112
754,-0.183611,0.963558,-0.194489,-0.234815,0.112644,-0.55403
755,-0.1955569999999999,0.956312,-0.2172739999999999,-0.079208,0.044344,-0.551098
756,-0.211015,0.942034,-0.260826,-0.019897,-0.079439,-0.341194
757,-0.227109,0.922523,-0.312025,0.153165,-0.5737979999999999,0.385023
758,-0.240508,0.902794,-0.356518,0.308959,-0.768059,0.6733979999999999
759,-0.251546,0.8861690000000001,-0.389123,0.346181,-0.85382,0.772729
760,-0.243077,0.883999,-0.399309,0.634984,-1.236523,0.747743
761,-0.2213389999999999,0.888935,-0.400988,0.372798,-1.124241,0.639879
762,-0.203529,0.8911680000000001,-0.405442,0.283454,-0.993982,0.6238100000000001
763,-0.188921,0.89374,-0.4068489999999999,0.367159,-0.7502770000000001,0.589893
764,-0.1777089999999999,0.894768,-0.409632,0.383459,-0.703133,0.582743
765,-0.1731589999999999,0.895918,-0.409067,0.146364,-0.548887,0.406778
766,-0.170166,0.9016,-0.397679,0.026657,-0.2480659999999999,0.247823
767,-0.179592,0.909001,-0.376101,-0.218938,0.71368,0.564211
768,-0.2139579999999999,0.910914,-0.352767,-0.8984530000000001,1.958455,0.279738
769,-0.259558,0.917371,-0.30174,-0.4611449999999999,1.190173,-0.539981
770,-0.279058,0.923111,-0.264534,-0.454264,1.084701,-1.010201
771,-0.265052,0.925321,-0.271134,-0.3356099999999999,0.278429,-1.417846
772,-0.25273,0.929608,-0.2682199999999999,-0.420152,-0.354352,-0.357421
773,-0.245515,0.929904,-0.273838,-0.029051,-0.675234,0.278568
774,-0.23165,0.929606,-0.2866309999999999,0.278998,-0.472651,0.691707
775,-0.206429,0.930997,-0.301028,0.229866,0.084094,1.046405
776,-0.186227,0.934243,-0.304132,-0.301627,0.525215,0.649515
777,-0.174214,0.939928,-0.29355,-0.486842,0.749907,0.444963
778,-0.175166,0.948366,-0.264395,-0.5284479999999999,1.643614,-0.488733
779,-0.209086,0.942161,-0.26192,-0.13735,1.653314,-0.768811
780,-0.214146,0.921444,-0.324144,0.095081,-0.140698,1.009843
781,-0.216561,0.908848,-0.356488,0.3804099999999999,0.155742,0.825253
782,-0.21556,0.914901,-0.341288,0.471938,0.7818609999999999,0.839564
783,-0.212356,0.930398,-0.29875,0.314513,0.585914,0.638731
784,-0.209727,0.94599,-0.247188,-0.134007,0.425729,0.262844
785,-0.205539,0.959654,-0.191838,-0.271497,0.358736,0.202199
786,-0.203066,0.966886,-0.15453,-0.355589,0.065616,-0.182384
787,-0.19687,0.971073,-0.135067,-0.261046,-0.0921049999999999,-0.083927
788,-0.182308,0.976099,-0.118226,0.182048,-0.520243,0.272111
789,-0.1671619999999999,0.9807,-0.101333,0.117617,-0.5832229999999999,0.27269
790,-0.159563,0.983969,-0.079553,0.036822,-0.613638,0.276986
791,-0.158956,0.985785,-0.054261,-0.013606,-0.354285,0.307511
792,-0.161817,0.986427,-0.0275589999999999,0.038007,-0.299797,0.257829
793,-0.16489,0.9863,0.002241,-0.007015,-0.152331,0.020921
794,-0.1681359999999999,0.985152,0.034442,-0.110947,-0.018569,-0.1670869999999999
795,-0.170096,0.983158,0.066687,-0.078897,0.045192,-0.25025
796,-0.174694,0.980039,0.094796,0.023387,0.099673,-0.214502
797,-0.1846809999999999,0.975559,0.118979,0.133961,0.124325,-0.139654
798,-0.197479,0.969803,0.143048,0.246338,0.2091829999999999,-0.18353
799,-0.210179,0.962562,0.1711079999999999,0.383702,0.329354,-0.265789
800,-0.2234719999999999,0.955077,0.194593,0.4536199999999999,0.326783,-0.204938
801,-0.236734,0.95025,0.2023849999999999,0.378915,0.264502,0.0084
802,-0.2452929999999999,0.947812,0.20362,0.110253,0.088061,0.043313
803,-0.245303,0.944686,0.217653,-0.078718,0.136079,-0.129626
804,-0.241134,0.940498,0.239367,-0.023484,0.189873,-0.4247
805,-0.243777,0.936876,0.250628,0.173037,0.267531,-0.460375
806,-0.255103,0.935652,0.243833,0.3010469999999999,0.269594,-0.221433
807,-0.26435,0.937482,0.226328,0.358878,0.251529,0.021231
808,-0.267903,0.941472,0.20454,0.26061,0.2438159999999999,0.103992
809,-0.266287,0.947277,0.178147,-0.010294,0.24564,-0.0604559999999999
810,-0.267923,0.953009,0.141316,-0.194723,0.102182,-0.124623
811,-0.275106,0.957045,0.091444,-0.090846,0.126191,0.005846
812,-0.279192,0.959668,0.032734,-0.064131,0.185123,0.183391
813,-0.275739,0.960793,-0.028792,-0.0160699999999999,0.164818,0.402068
