,gravity.x,gravity.y,gravity.z,userAcceleration.x,userAcceleration.y,userAcceleration.z
0,0.020733,0.995979,-0.087131,0.040699,-0.2947619999999999,-0.015179
1,0.010865,0.995616,-0.092878,0.0803519999999999,-0.3835409999999999,-0.224871
2,0.003842,0.995199,-0.097771,0.034763,-0.34899,-0.229759
3,-0.001948,0.994512,-0.1045869999999999,0.082332,-0.323171,0.039706
4,-0.0112129999999999,0.993675,-0.111715,0.1187109999999999,-0.354927,-0.005335
5,-0.0221139999999999,0.992994,-0.116063,0.08585,-0.295713,0.109547
6,-0.031985,0.992548,-0.1175619999999999,0.096347,-0.2036079999999999,0.092767
7,-0.0405279999999999,0.991989,-0.119631,0.102723,0.032074,0.036775
8,-0.047543,0.990703,-0.127447,0.280895,0.326588,0.023062
9,-0.049678,0.988493,-0.142861,0.4775189999999999,0.309282,-0.0214
10,-0.041161,0.98537,-0.165373,0.544747,0.285993,-0.128527
11,-0.025253,0.979231,-0.2011609999999999,0.140869,1.110308,-0.4298359999999999
12,-0.008506,0.968596,-0.248486,0.089698,1.282975,-0.4117619999999999
13,0.002955,0.952312,-0.305107,0.214498,1.037007,-0.046517
14,0.0066359999999999,0.930108,-0.367222,-0.621901,0.99755,0.38776
15,0.011805,0.908838,-0.416979,-0.763667,0.64408,0.422991
16,0.027238,0.894015,-0.447205,-0.411469,-0.050082,0.337601
17,0.052572,0.8861549999999999,-0.460395,-0.244467,-0.311463,0.297553
18,0.073887,0.8833120000000001,-0.462923,-0.216725,-0.314129,0.284411
19,0.084434,0.88265,-0.4623819999999999,-0.146644,-0.371984,0.367106
20,0.086467,0.884609,-0.4582449999999999,-0.201716,-0.538524,0.4907
21,0.080769,0.8894850000000001,-0.449766,-0.14188,-0.603826,0.489363
22,0.06927,0.897133,-0.436292,-0.153056,-0.717308,0.471281
23,0.053258,0.907476,-0.41671,-0.147511,-0.746725,0.430443
24,0.033806,0.9204,-0.389509,-0.134315,-0.7522479999999999,0.396956
25,0.010915,0.935125,-0.354145,-0.078329,-0.605352,0.360523
26,-0.014969,0.950768,-0.309535,-0.011612,-0.397576,0.335262
27,-0.044784,0.965733,-0.255638,0.042617,-0.261234,0.253716
28,-0.077039,0.97726,-0.197546,0.0617799999999999,0.07607,-0.048838
29,-0.10762,0.984058,-0.141576,0.039382,0.2431,-0.275829
30,-0.132038,0.9873,-0.0883159999999999,0.037403,0.313451,-0.4071369999999999
31,-0.145149,0.988729,-0.036623,0.298317,0.390009,-0.076109
32,-0.140757,0.990006,0.008391,0.06521,0.523528,0.070467
33,-0.127797,0.991171,0.035266,-0.064982,0.531702,-0.141253
34,-0.1152789999999999,0.992633,0.037206,-0.622438,0.341854,-0.437566
35,-0.111069,0.993562,0.022213,-0.649506,-0.026811,0.650135
36,-0.105916,0.994289,0.012881,-0.7606,-0.039699,0.213209
37,-0.0956149999999999,0.994985,0.029265,-0.1695829999999999,0.344721,0.453721
38,-0.101662,0.994502,0.02501,0.725762,1.022954,0.285155
39,-0.115518,0.993266,0.008532,1.176354,1.28159,-0.189303
40,-0.118723,0.992834,0.013409,0.8376709999999999,0.124842,0.407093
41,-0.1083079999999999,0.994107,-0.004004,0.011369,-0.071713,0.6594300000000001
42,-0.100984,0.994885,0.000424,-0.074126,0.1222559999999999,0.082676
43,-0.098885,0.994881,0.0206879999999999,-0.165489,0.193077,-0.26965
44,-0.101939,0.99432,0.030499,-0.166524,-0.081769,0.101917
45,-0.107179,0.993345,0.042098,-0.087478,-0.294325,0.099473
46,-0.1169299999999999,0.991486,0.0572549999999999,0.045916,-0.263138,0.02914
47,-0.129239,0.988856,0.073858,0.150845,-0.286906,0.025843
48,-0.140537,0.986417,0.085006,0.206409,-0.420331,-0.170486
49,-0.150868,0.984189,0.092762,0.303334,-0.546461,-0.178944
50,-0.161972,0.981471,0.1023429999999999,0.3685449999999999,-0.542354,0.018751
51,-0.174611,0.978077,0.113455,0.3491869999999999,-0.423618,-0.019934
52,-0.188851,0.974132,0.124088,0.33149,-0.1237289999999999,-0.223515
53,-0.2023609999999999,0.970714,0.12946,0.4894699999999999,-0.010081,-0.164219
54,-0.216676,0.967302,0.131807,0.545442,-0.020921,-0.1182119999999999
55,-0.230203,0.964342,0.130564,0.600808,0.190047,-0.237864
56,-0.238684,0.96304,0.1248109999999999,0.514547,0.242617,-0.232706
57,-0.2426699999999999,0.963415,0.113745,0.521662,0.164683,-0.276572
58,-0.247018,0.964265,0.09576,0.51925,0.124618,-0.157055
59,-0.252107,0.965284,0.068284,0.321336,0.80945,-0.216188
60,-0.252921,0.966802,0.036314,0.431785,0.798487,-0.30763
61,-0.2425949999999999,0.970053,-0.011834,0.7554890000000001,0.712198,-0.2133699999999999
62,-0.221261,0.972793,-0.0686539999999999,0.878076,0.953172,0.842625
63,-0.1869289999999999,0.974094,-0.127254,0.350091,0.8530690000000001,1.0097459999999998
64,-0.133394,0.974912,-0.1781829999999999,-0.7095319999999999,1.6001,0.949179
65,-0.101976,0.971608,-0.213483,-1.045378,0.736003,-0.115893
66,-0.093316,0.961888,-0.257021,-0.722464,0.38853,0.007921
67,-0.079684,0.948657,-0.306101,0.283419,-0.1001,0.415659
68,-0.064231,0.937342,-0.342433,0.474204,-0.086604,0.506984
69,-0.048779,0.932587,-0.357629,0.7903859999999999,0.055541,0.775841
70,-0.027062,0.926664,-0.374911,-0.151313,-0.161985,0.5964079999999999
71,-0.0161569999999999,0.921979,-0.386899,-0.180255,-0.298016,0.620862
72,-0.016549,0.919609,-0.392482,-0.163428,-0.498375,0.6282
73,-0.0256449999999999,0.918874,-0.393712,-0.18868,-0.570333,0.6907399999999999
74,-0.042368,0.920513,-0.388403,-0.285269,-0.616482,0.688239
75,-0.059855,0.92605,-0.372618,-0.363531,-0.627039,0.6582939999999999
76,-0.074087,0.935915,-0.344341,-0.554712,-0.544359,0.483883
77,-0.087963,0.948786,-0.3034199999999999,-0.523472,-0.557398,0.389373
78,-0.103743,0.962055,-0.2523559999999999,-0.439012,-0.4118989999999999,0.245047
79,-0.124497,0.972566,-0.196496,-0.308196,0.2205639999999999,-0.1119
80,-0.156393,0.976946,-0.145302,-0.135813,2.351972,-3.195152
81,-0.199415,0.964187,-0.174851,1.873823,1.702363,-0.953537
82,-0.186113,0.956232,-0.225782,1.111528,-0.360011,-0.187899
83,-0.158063,0.958517,-0.2371849999999999,0.212201,-0.352148,0.364291
84,-0.140378,0.961778,-0.235103,-0.550204,0.233596,1.237483
85,-0.11895,0.968964,-0.216694,-0.180717,-0.150864,0.50893
86,-0.115079,0.969252,-0.217492,-0.782153,0.793825,-1.366141
87,-0.12134,0.961486,-0.246612,0.4824239999999999,0.706803,0.9859
88,-0.131631,0.95691,-0.25883,0.492822,-0.459702,1.121867
89,-0.146244,0.95365,-0.2629849999999999,0.0552559999999999,-0.519415,0.713409
90,-0.159207,0.953481,-0.255974,0.180005,-0.424825,0.6946640000000001
91,-0.176901,0.955018,-0.2379949999999999,0.347296,0.06639,0.665714
92,-0.194474,0.959267,-0.204895,0.431886,0.5559310000000001,0.293487
93,-0.206629,0.964582,-0.163958,0.407144,0.517413,0.085253
94,-0.207998,0.968918,-0.133907,0.073919,0.20784,0.254497
95,-0.1998059999999999,0.974245,-0.1045,-0.240227,-0.114366,0.288354
96,-0.191088,0.978956,-0.071595,-0.381636,-0.231733,0.090364
97,-0.1854559999999999,0.981888,-0.038699,-0.354354,-0.261688,0.091586
98,-0.183754,0.982936,-0.008178,-0.149193,-0.194972,0.012572
99,-0.185574,0.982322,0.024524,-0.020023,-0.130012,-0.033786
100,-0.190549,0.980113,0.055361,0.151441,-0.0418199999999999,-0.048021
101,-0.197579,0.976603,0.084878,0.154915,0.0062759999999999,-0.0644769999999999
102,-0.20731,0.971598,0.1140849999999999,0.172032,-0.037806,-0.035761
103,-0.2188409999999999,0.965721,0.1396,0.200286,-0.170219,0.073047
104,-0.228848,0.959671,0.163269,0.264202,-0.104843,0.092789
105,-0.237723,0.953305,0.186264,0.286734,-0.023572,0.017136
106,-0.2451989999999999,0.94709,0.207109,0.309164,0.171104,-0.08951
107,-0.251671,0.941351,0.224759,0.4122699999999999,0.208444,-0.173398
108,-0.256629,0.937135,0.236469,0.444343,0.199935,-0.201221
109,-0.2594059999999999,0.934673,0.24309,0.394386,0.308354,-0.198626
110,-0.261945,0.933344,0.245463,0.311536,0.374365,-0.079859
111,-0.267267,0.932409,0.24327,0.4430479999999999,0.390528,-0.037779
112,-0.274173,0.931149,0.24039,0.6152529999999999,0.4794489999999999,-0.114368
113,-0.27912,0.931094,0.234848,0.623846,0.536099,-0.168274
114,-0.280505,0.933063,0.225187,0.69948,0.493649,-0.265349
115,-0.277944,0.937995,0.2071469999999999,0.760976,0.409707,-0.280786
116,-0.270491,0.946092,0.1781609999999999,0.645537,0.348005,-0.227813
117,-0.256485,0.956728,0.137423,0.578872,0.219847,-0.07622
118,-0.238389,0.967419,0.085253,0.209794,-0.071393,0.073896
119,-0.217837,0.975559,0.02878,-0.133252,0.313091,0.016676
120,-0.201283,0.979216,-0.0248819999999999,-0.259456,0.563036,0.120966
121,-0.194654,0.97808,-0.073936,-0.2322409999999999,0.390221,0.403755
122,-0.189362,0.974318,-0.121838,0.0037689999999999,0.112657,0.490429
123,-0.184082,0.968422,-0.168141,0.096634,0.067208,0.530384
124,-0.176693,0.961787,-0.2091489999999999,0.375316,0.034505,0.341977
125,-0.167175,0.954463,-0.247085,0.446014,0.002537,0.352431
126,-0.152606,0.948899,-0.276225,0.512286,0.007064,0.478969
127,-0.124097,0.948575,-0.2912119999999999,0.418668,0.087207,0.413176
128,-0.0888159999999999,0.94865,-0.3036,0.17843,-0.020199,0.448528
129,-0.060301,0.948064,-0.312311,0.107893,-0.078099,0.490396
130,-0.040099,0.947095,-0.3184369999999999,0.083037,-0.142957,0.555146
131,-0.0274269999999999,0.945992,-0.323026,-0.043023,-0.156395,0.617109
132,-0.020053,0.945668,-0.324513,-0.122082,-0.164021,0.617192
133,-0.0148849999999999,0.947441,-0.319582,-0.226051,-0.220253,0.5539109999999999
134,-0.010914,0.951539,-0.3073329999999999,-0.29353,-0.308152,0.504309
135,-0.007683,0.958108,-0.286304,-0.394631,-0.389748,0.39661
136,-0.005149,0.966899,-0.255107,-0.519875,-0.3735,0.229685
137,-0.004698,0.97642,-0.215828,-0.6140770000000001,-0.270258,0.031318
138,-0.010036,0.984635,-0.174333,-0.607167,-0.041855,-0.232223
139,-0.026194,0.989432,-0.1426049999999999,-0.330252,0.363351,-0.6030310000000001
140,-0.053074,0.989026,-0.137872,0.236958,0.709262,-0.997016
141,-0.076976,0.983875,-0.161437,0.804714,0.5383720000000001,-0.816285
142,-0.083513,0.979943,-0.180929,0.8502370000000001,0.155921,-0.349009
143,-0.0739539999999999,0.979581,-0.18695,0.647165,0.040744,0.240829
144,-0.049294,0.981026,-0.187499,0.4938439999999999,-0.149499,0.197615
145,-0.020956,0.98467,-0.1731609999999999,0.112265,-0.495946,0.401554
146,-0.001185,0.990262,-0.139203,-0.396367,-0.081342,0.744397
147,0.001422,0.993142,-0.1169,-0.903308,0.6470100000000001,-0.371626
148,-0.03258,0.992615,-0.116845,-1.248014,1.941177,-1.633368
149,-0.073763,0.988655,-0.130839,0.2549619999999999,-0.195396,1.386867
150,-0.07741,0.988036,-0.1333869999999999,0.208803,-0.2494489999999999,1.001643
151,-0.084213,0.988749,-0.123622,0.132996,-0.53715,0.578288
152,-0.092015,0.989864,-0.108176,-0.339901,-0.166072,0.453909
153,-0.099216,0.991225,-0.087339,-0.339886,-0.0722039999999999,0.262785
154,-0.108004,0.992206,-0.062135,-0.189176,0.152676,-0.008467
155,-0.117817,0.992168,-0.041493,0.5897560000000001,0.501958,-0.128155
156,-0.121838,0.992132,-0.0288019999999999,0.471127,0.223917,-0.159202
157,-0.11241,0.993541,-0.015456,-0.006762,-0.059337,-0.102449
158,-0.098723,0.995103,-0.0048579999999999,-0.113145,-0.160493,-0.167048
159,-0.090614,0.995885,-0.00106,-0.331169,-0.354619,-0.188256
160,-0.088236,0.996098,0.001425,0.0246979999999999,-0.345402,-0.157751
161,-0.092142,0.995745,-0.000666,0.139322,-0.283831,-0.2154599999999999
162,-0.096652,0.995286,-0.0080439999999999,0.248919,-0.182206,-0.25511
163,-0.0987649999999999,0.994802,-0.02478,0.188181,-0.220327,-0.18364
164,-0.100186,0.993774,-0.048741,0.141033,-0.329864,-0.064204
165,-0.103664,0.992014,-0.071845,0.10934,-0.441935,0.001105
166,-0.110527,0.989579,-0.092288,0.106423,-0.619309,0.09679
167,-0.118764,0.986739,-0.110643,0.096578,-0.6330399999999999,0.141954
168,-0.128158,0.983856,-0.124912,0.075378,-0.584045,0.127399
169,-0.137864,0.981342,-0.134022,-0.060607,-0.330127,-0.050991
170,-0.143352,0.980475,-0.134608,0.041485,0.092096,-0.202535
171,-0.144416,0.980302,-0.134731,0.145118,0.257125,-0.2243239999999999
172,-0.141769,0.978663,-0.148726,0.564666,0.422307,-0.227983
173,-0.135429,0.974997,-0.17618,0.443366,0.7576689999999999,-0.345976
174,-0.124163,0.967526,-0.220176,0.360552,0.8257180000000001,-0.35714
175,-0.1061609999999999,0.953828,-0.280965,-0.230402,1.063551,-0.208217
176,-0.08132,0.93373,-0.34862,-0.2110989999999999,0.730379,0.28609
177,-0.058922,0.909961,-0.4104859999999999,-0.1063609999999999,0.453839,0.550898
178,-0.050331,0.8852549999999999,-0.4623739999999999,-0.33828,0.095305,0.6805899999999999
179,-0.0391139999999999,0.8684149999999999,-0.494293,-0.365199,0.064523,0.134857
180,-0.017352,0.863619,-0.503847,-0.3869599999999999,0.069319,0.1444109999999999
181,0.007351,0.865276,-0.501242,-0.182583,-0.138882,0.321356
182,0.02978,0.8720450000000001,-0.488518,-0.1869299999999999,-0.368704,0.399361
183,0.042054,0.883446,-0.466642,-0.186555,-0.478279,0.434202
184,0.045321,0.899234,-0.435114,-0.168261,-0.559955,0.419276
185,0.036985,0.916962,-0.397257,-0.094114,-0.631271,0.329813
186,0.0191919999999999,0.934959,-0.354236,0.00249,-0.603996,0.204196
187,-0.002667,0.952156,-0.3056,0.041287,-0.48893,0.228344
188,-0.022275,0.9683,-0.248797,0.043012,-0.310081,0.270495
189,-0.040875,0.980664,-0.191382,-0.081027,-0.180295,0.191398
190,-0.057984,0.987711,-0.145136,-0.297103,0.0349019999999999,-0.188086
191,-0.077766,0.991068,-0.108331,-0.421379,0.177724,-0.281531
192,-0.0980149999999999,0.992308,-0.0756179999999999,-0.421577,0.277803,-0.234853
193,-0.108415,0.992746,-0.05197,-0.396437,0.612219,-0.37874
194,-0.100503,0.993362,-0.055955,-0.21099,0.643692,-1.147734
195,-0.09298,0.994046,-0.0568139999999999,-0.541984,0.287967,0.103094
196,-0.090214,0.994342,-0.056088,-0.622692,-0.056888,0.5614279999999999
197,-0.085441,0.99543,-0.042655,-0.012444,-0.132469,0.109122
198,-0.0781179999999999,0.996837,-0.01464,0.199547,0.633885,-0.494119
199,-0.062384,0.998009,-0.009303,1.103674,2.230766,0.432856
200,-0.043141,0.998717,-0.0265149999999999,0.688314,0.079179,-0.8498889999999999
201,-0.0277339999999999,0.999354,-0.022855,-0.12258,-0.043345,-0.1075309999999999
202,-0.019716,0.999271,-0.0327029999999999,-0.340803,-0.204028,0.444705
203,-0.0327779999999999,0.998619,-0.041054,-0.00157,0.091789,-0.070549
204,-0.045316,0.99864,-0.025771,0.010435,0.121416,-0.043107
205,-0.051009,0.99853,-0.018289,-0.037034,-0.11645,0.031809
206,-0.0532169999999999,0.998502,-0.012706,-0.08399,-0.227628,-0.21755
207,-0.0591429999999999,0.998221,-0.0075569999999999,-0.02678,-0.194952,-0.193951
208,-0.066983,0.997717,-0.008573,0.09065,-0.205618,-0.140124
209,-0.074983,0.997058,-0.015871,0.2255869999999999,-0.327899,-0.209852
210,-0.079719,0.996497,-0.025254,0.15969,-0.406913,-0.164108
211,-0.080499,0.996217,-0.03274,-0.020377,-0.475389,-0.175252
212,-0.080417,0.995832,-0.043041,-0.017621,-0.399045,-0.208531
213,-0.0814049999999999,0.995511,-0.04828,-0.003724,-0.293317,-0.053603
214,-0.083422,0.995143,-0.052252,0.235537,0.1277049999999999,-0.056772
215,-0.083533,0.994654,-0.060703,0.406622,0.184423,-0.152447
216,-0.079457,0.993953,-0.07579,0.6032,0.132024,-0.075913
217,-0.074394,0.992365,-0.098369,0.339607,0.443762,-0.30016
218,-0.066898,0.989141,-0.1308609999999999,0.179325,0.4795939999999999,-0.2190079999999999
219,-0.057396,0.983153,-0.17354,0.038506,0.586687,-0.289381
220,-0.044662,0.97199,-0.230739,-0.029969,1.069743,-0.381963
221,-0.032421,0.953596,-0.2993389999999999,-0.019535,0.611269,0.204597
222,-0.031569,0.928401,-0.370235,0.041975,0.452,0.562008
223,-0.038013,0.904788,-0.424163,-0.821682,0.410337,0.3441909999999999
224,-0.030514,0.8912049999999999,-0.452572,-0.2989989999999999,-0.048096,0.027966
225,-0.0159699999999999,0.886043,-0.463327,-0.116721,-0.166576,0.056559
226,0.006082,0.8863260000000001,-0.463021,-0.193155,-0.215153,0.278451
227,0.018557,0.8900969999999999,-0.4553939999999999,-0.173114,-0.3019469999999999,0.401896
228,0.021724,0.8969889999999999,-0.441518,-0.250103,-0.4096689999999999,0.449055
229,0.023515,0.907523,-0.419343,-0.259873,-0.521338,0.45276
230,0.0234139999999999,0.921157,-0.388486,-0.184303,-0.634414,0.433606
231,0.0186889999999999,0.936603,-0.349894,-0.095974,-0.702487,0.370218
232,0.006323,0.951638,-0.307155,-0.055609,-0.694909,0.396801
233,-0.013237,0.965384,-0.260494,-0.024117,-0.6017979999999999,0.322185
234,-0.039123,0.976419,-0.212307,0.017669,-0.470087,0.183529
235,-0.066074,0.984432,-0.16287,0.0336329999999999,-0.353908,0.039915
236,-0.090338,0.98932,-0.1143869999999999,0.041891,-0.1434339999999999,-0.209206
237,-0.11115,0.991497,-0.0676679999999999,-0.013637,0.226536,-0.780751
238,-0.1310349999999999,0.991054,-0.025303,0.016488,0.5247390000000001,-0.8544889999999999
239,-0.135895,0.990676,0.009632,-0.074737,0.736955,0.261151
240,-0.129235,0.99127,0.026075,-0.026099,1.026369,-0.577344
241,-0.1181319999999999,0.992931,0.011483,-0.275285,0.477192,0.109214
242,-0.112225,0.99343,-0.022402,-1.153293,-0.335883,-0.467375
243,-0.101372,0.994661,-0.019295,-1.055259,-0.168138,0.1764609999999999
244,-0.094461,0.99518,0.0263209999999999,-0.8899290000000001,1.79991,0.312531
245,-0.110848,0.993833,0.002833,1.87278,0.6350279999999999,-0.081324
246,-0.096819,0.994877,-0.029074,1.760118,0.18655,-0.263376
247,-0.079346,0.996369,-0.030843,0.188965,0.018188,0.547887
248,-0.063344,0.997289,-0.0374339999999999,-0.141078,-0.374562,0.301076
249,-0.06306,0.997646,-0.026891,-0.125661,-0.2280849999999999,0.023808
250,-0.067411,0.997724,0.00037,-0.0257899999999999,-0.050764,-0.142582
251,-0.066151,0.997723,0.013047,0.060596,-0.081235,-0.162904
252,-0.064829,0.99779,0.014473,-0.011098,-0.082828,-0.305932
253,-0.065496,0.997728,0.015693,-0.023157,-0.094179,-0.51377
254,-0.067522,0.997685,0.007976,-0.047652,-0.404286,-0.013363
255,-0.07216,0.997383,-0.004158,-0.0141889999999999,-0.486381,0.020043
256,-0.079316,0.996661,-0.019311,0.099901,-0.531695,-0.183265
257,-0.087991,0.995433,-0.037,0.149804,-0.518977,-0.141787
258,-0.096182,0.994084,-0.050432,0.144797,-0.4908189999999999,-0.136091
259,-0.100879,0.992909,-0.062868,0.231265,-0.2530409999999999,0.028734
260,-0.1047299999999999,0.99183,-0.072809,0.242105,-0.156991,0.000696
261,-0.1097009999999999,0.990428,-0.08376,0.237387,-0.008448,-0.007137
262,-0.115926,0.988126,-0.100824,0.573873,0.730838,-0.133856
263,-0.113521,0.986072,-0.121541,0.627865,0.543469,-0.012523
264,-0.100283,0.983274,-0.152025,0.5875729999999999,0.339144,-0.177
265,-0.084252,0.976853,-0.196615,0.002816,0.728729,-0.330714
266,-0.072107,0.965586,-0.249883,-0.219107,0.975133,-0.095652
267,-0.065349,0.948713,-0.309309,-0.006398,1.072284,0.031874
268,-0.069458,0.927081,-0.368367,-0.412811,0.902188,0.416554
269,-0.079597,0.90479,-0.418352,-0.558022,0.375408,0.4657
270,-0.083828,0.8899790000000001,-0.4482279999999999,-0.372135,-0.188212,0.350221
271,-0.071036,0.8851209999999999,-0.459905,-0.234948,-0.282979,0.179281
272,-0.057035,0.8855190000000001,-0.4610869999999999,-0.1791859999999999,-0.236853,0.262112
273,-0.045269,0.890359,-0.453001,-0.1938369999999999,-0.286767,0.383589
274,-0.031714,0.8993610000000001,-0.436054,-0.209665,-0.45797,0.499012
275,-0.019396,0.910647,-0.412729,-0.160383,-0.635683,0.51594
276,-0.01201,0.923259,-0.3839889999999999,-0.13658,-0.7065229999999999,0.485216
277,-0.010519,0.936855,-0.349557,-0.146463,-0.753979,0.387735
278,-0.0176419999999999,0.951654,-0.306663,-0.184079,-0.7474,0.316719
279,-0.034874,0.965971,-0.256286,-0.066368,-0.594648,0.359329
280,-0.061261,0.977588,-0.2014109999999999,0.075818,-0.278904,0.284175
281,-0.0920769999999999,0.984919,-0.146477,0.120443,0.082769,0.027932
282,-0.11355,0.989017,-0.094609,0.078287,0.198193,-0.3165239999999999
283,-0.124477,0.99121,-0.0448029999999999,-0.09029,0.39052,-0.964704
284,-0.1261509999999999,0.992003,-0.00361,0.22869,0.284059,-0.3560239999999999
285,-0.1146339999999999,0.99311,0.024271,0.177301,0.117318,-0.403147
286,-0.102238,0.994334,0.029092,0.013218,-0.003077,-0.434579
287,-0.093759,0.995299,0.02423,-0.631247,0.518373,-0.759994
288,-0.0916309999999999,0.995351,0.029632,-0.8221870000000001,0.561839,-0.42401
289,-0.087565,0.995668,0.031254,-0.719091,0.197204,0.680171
290,-0.082541,0.996433,0.017502,-0.149454,-0.254658,0.70906
291,-0.079372,0.996791,0.010302,-0.028645,-0.0879009999999999,0.497388
292,-0.080507,0.99653,0.021092,0.2353219999999999,0.7522800000000001,0.212307
293,-0.089152,0.994908,0.046984,1.670497,1.592739,-1.806734
294,-0.090103,0.995124,0.040096,0.869934,-0.0254889999999999,-0.123546
295,-0.082933,0.996466,0.013316,0.036637,-0.114477,0.562261
296,-0.079176,0.996725,0.016423,0.152418,-0.199407,0.223308
297,-0.077598,0.996403,0.034016,0.0556409999999999,0.064723,-0.037892
298,-0.077898,0.995755,0.048994,-0.100157,0.067217,-0.058058
299,-0.074547,0.994996,0.0665019999999999,-0.2291949999999999,-0.2160349999999999,-0.053288
300,-0.070313,0.994437,0.078421,-0.242767,-0.237006,-0.1070319999999999
301,-0.069252,0.994077,0.08375,-0.203727,-0.20947,-0.3220159999999999
302,-0.071708,0.99404,0.082098,-0.116448,-0.2033599999999999,-0.375067
303,-0.078753,0.994569,0.068026,0.153506,-0.245714,-0.196078
304,-0.087726,0.995044,0.046793,0.331531,-0.35683,-0.1957799999999999
305,-0.098452,0.99488,0.022794,0.093325,-0.509879,-0.2080659999999999
306,-0.111177,0.993799,0.000856,0.130342,-0.474756,-0.082445
307,-0.1221039999999999,0.99235,-0.01819,0.2176699999999999,-0.397684,0.181368
308,-0.128044,0.991242,-0.032291,0.35627,-0.231125,0.147037
309,-0.131631,0.990383,-0.042585,0.320535,-0.13319,0.1883369999999999
310,-0.137974,0.98916,-0.050237,0.457706,0.423254,-0.281763
311,-0.143966,0.987531,-0.063678,0.514678,0.478396,-0.309689
312,-0.142665,0.985916,-0.087259,0.488154,0.407776,-0.238577
313,-0.135191,0.98277,-0.126032,0.188627,0.387103,-0.320623
314,-0.120649,0.975927,-0.1816839999999999,0.145749,0.518458,-0.375811
315,-0.094952,0.964508,-0.246389,0.036511,1.220062,-0.378336
316,-0.06929,0.944407,-0.321392,-0.203751,0.643117,0.298885
317,-0.051116,0.916954,-0.395704,-0.4177869999999999,0.585228,0.641508
318,-0.0437209999999999,0.889592,-0.454659,-0.6892199999999999,0.434688,0.7007979999999999
319,-0.034155,0.869591,-0.49259,-0.463449,-0.293602,0.178793
320,-0.013447,0.8607229999999999,-0.508895,-0.204647,-0.286077,0.108291
321,0.00936,0.8578680000000001,-0.513783,-0.049979,-0.129109,0.206258
322,0.02448,0.858759,-0.511794,-0.075352,-0.272043,0.35089
323,0.030098,0.864684,-0.501412,-0.150444,-0.4878689999999999,0.4611439999999999
324,0.028293,0.8753860000000001,-0.482595,-0.118182,-0.55988,0.4543359999999999
325,0.0204479999999999,0.890301,-0.454912,-0.056886,-0.628216,0.361177
326,0.00698,0.907573,-0.419835,0.009973,-0.6867479999999999,0.2311139999999999
327,-0.008531,0.926198,-0.37694,0.115328,-0.663991,0.157915
328,-0.025636,0.944373,-0.327874,0.181108,-0.688422,0.176171
329,-0.042684,0.960556,-0.27479,0.191106,-0.618988,0.208475
330,-0.064073,0.972903,-0.222155,0.105821,-0.463702,0.21773
331,-0.088627,0.980113,-0.177543,0.107426,-0.09782,0.12841
332,-0.10985,0.984654,-0.135604,0.064669,0.23283,-0.06012
333,-0.126769,0.98801,-0.088116,-0.087419,0.788144,-0.262775
334,-0.132419,0.990337,-0.0411889999999999,-0.1845369999999999,0.805607,-0.334375
335,-0.120504,0.992432,-0.02358,-0.340342,0.564773,-0.81135
336,-0.101288,0.993959,-0.042251,-0.781738,0.1357259999999999,0.419662
337,-0.096121,0.994364,-0.044725,-1.44613,-0.042856,-0.661238
338,-0.091349,0.995758,-0.010967,-0.012365,0.278702,0.958141
339,-0.0980019999999999,0.995172,-0.005104,0.122325,0.761282,0.624382
340,-0.105972,0.994308,-0.010876,0.645934,2.413452,-1.228656
341,-0.097445,0.995201,-0.008771,0.6635,-0.084633,0.767224
342,-0.085296,0.995987,-0.02707,0.30931,-0.007904,0.6269239999999999
343,-0.075268,0.996865,-0.02434,0.135434,-0.063683,0.28583
344,-0.071118,0.997322,-0.016961,-0.133594,-0.05877,0.037545
345,-0.066639,0.997773,-0.0022489999999999,-0.176647,-0.114702,0.149618
346,-0.0627,0.997914,0.015303,-0.182158,-0.215748,0.061952
347,-0.065662,0.997505,0.0258639999999999,-0.070294,-0.18206,-0.150742
348,-0.072065,0.996922,0.030838,-0.039293,-0.159184,-0.200073
349,-0.079686,0.996385,0.029412,-0.013102,-0.205308,-0.242715
350,-0.088058,0.995866,0.022238,0.178893,-0.357392,-0.17832
351,-0.098024,0.995052,0.016123,0.226564,-0.361034,-0.196284
352,-0.110874,0.993787,0.009522,0.142262,-0.3254829999999999,-0.2818449999999999
353,-0.1285059999999999,0.991707,0.000722,0.172345,-0.137764,-0.261159
354,-0.153813,0.988068,-0.0077,0.239033,-0.146851,-0.1411339999999999
355,-0.183389,0.982875,-0.017929,0.500696,-0.198909,-0.137619
356,-0.210319,0.977272,-0.026513,0.600197,-0.1191329999999999,-0.170173
357,-0.224901,0.973818,-0.033089,0.652712,-0.033129,-0.201088
358,-0.225757,0.97326,-0.0423819999999999,0.6773100000000001,0.201346,-0.287726
359,-0.220413,0.973697,-0.057695,0.651443,0.22958,-0.421431
360,-0.2187,0.97243,-0.080916,0.627193,0.102963,-0.296937
361,-0.217955,0.969221,-0.11447,0.4403829999999999,0.11342,-0.183214
362,-0.2197489999999999,0.96266,-0.158091,-0.019936,0.689561,-0.248129
363,-0.226659,0.950729,-0.211513,-0.07867,0.8318639999999999,0.064494
364,-0.231102,0.93373,-0.273385,-0.419701,0.793443,0.4341819999999999
365,-0.22496,0.915315,-0.334051,-0.630127,0.702529,0.416234
366,-0.215563,0.898978,-0.381274,-0.371733,0.5561149999999999,0.407076
367,-0.192625,0.8889309999999999,-0.415566,-0.3865679999999999,0.6353449999999999,0.122475
368,-0.149675,0.8874209999999999,-0.435982,-0.248046,0.469818,0.018761
369,-0.103519,0.890329,-0.443392,0.1942019999999999,-0.0487149999999999,0.265688
370,-0.0614269999999999,0.89479,-0.4422399999999999,0.092127,-0.3503409999999999,0.370539
371,-0.035849,0.898231,-0.438058,0.037924,-0.5138159999999999,0.405404
372,-0.027404,0.9013,-0.432327,0.015396,-0.750375,0.442841
373,-0.032138,0.905842,-0.422393,0.033816,-0.8523139999999999,0.412902
374,-0.049164,0.912533,-0.406037,0.044311,-0.867916,0.392945
375,-0.070813,0.921817,-0.381102,-0.079074,-0.64905,0.386336
376,-0.089522,0.933102,-0.348288,-0.140641,-0.442456,0.341254
377,-0.1046,0.945124,-0.309514,-0.2208699999999999,-0.1807349999999999,0.207723
378,-0.116176,0.957558,-0.26379,-0.27956,0.074486,0.051494
379,-0.125975,0.969549,-0.210008,-0.212923,0.116449,-0.1095869999999999
380,-0.133041,0.979466,-0.15148,-0.1167609999999999,0.089306,-0.155496
381,-0.140721,0.985124,-0.098626,-0.039242,0.040663,-0.303886
382,-0.154042,0.98648,-0.0559179999999999,0.109745,0.346421,-0.6875819999999999
383,-0.166444,0.985178,-0.041476,0.264817,0.651587,-0.788083
384,-0.1663069999999999,0.983871,-0.065862,0.14377,0.495209,-0.667125
385,-0.1503799999999999,0.984584,-0.089325,-0.347072,-0.331432,-0.761475
386,-0.137054,0.98603,-0.0946559999999999,-1.203751,0.6654899999999999,0.015386
387,-0.135209,0.986926,-0.087719,-0.925261,0.2801639999999999,-0.190799
388,-0.133316,0.987672,-0.082034,0.532837,-0.263017,1.241366
389,-0.137051,0.986144,-0.093461,0.020825,1.403428,1.277436
390,-0.146394,0.984529,-0.096282,-0.120223,2.503814,1.158934
391,-0.16241,0.984731,-0.062666,1.319225,1.402461,-0.624575
392,-0.164192,0.984805,-0.056563,0.5368109999999999,-0.44385,0.231917
393,-0.171736,0.98145,-0.085213,0.351866,-0.339864,0.640679
394,-0.175858,0.980086,-0.09222,0.003129,0.163896,1.243115
395,-0.173237,0.982233,-0.072147,-0.306042,0.116934,1.260777
396,-0.153972,0.987919,-0.017544,-0.621938,-0.1300849999999999,0.5927399999999999
397,-0.1315859999999999,0.988993,0.067648,-1.062872,0.265142,-1.0633
398,-0.135927,0.984599,0.109941,-0.125486,-0.069377,-0.1583109999999999
399,-0.149612,0.98065,0.126255,0.101944,-0.087904,-0.299564
400,-0.161643,0.975286,0.150626,0.160743,-0.33605,-0.4159
401,-0.179739,0.970147,0.1628109999999999,0.173102,-0.259271,-0.211715
402,-0.201524,0.965524,0.164776,0.208406,-0.257455,0.030567
403,-0.222842,0.958829,0.176032,0.274631,-0.203062,0.288781
404,-0.239918,0.950755,0.196226,0.466725,0.054311,0.202837
405,-0.251485,0.941968,0.222378,0.754704,0.149402,-0.084637
406,-0.2565909999999999,0.933981,0.2486789999999999,1.067749,0.2718,-0.666846
407,-0.260637,0.928674,0.263881,0.402742,0.286033,-0.384319
408,-0.259999,0.928207,0.266144,0.180272,0.320527,-0.210007
409,-0.259389,0.929059,0.263755,-0.154109,0.439731,-0.267326
410,-0.264105,0.930104,0.255255,0.284094,0.529308,-0.485754
411,-0.271133,0.933283,0.2355199999999999,0.529937,0.56484,-0.361374
412,-0.2768469999999999,0.938522,0.206235,0.716575,0.547226,-0.249906
413,-0.277946,0.945889,0.167454,0.889503,0.445026,-0.266026
414,-0.272403,0.955687,0.111619,0.8372219999999999,0.393281,-0.049668
415,-0.262757,0.964002,0.040724,0.555924,0.3346119999999999,0.295321
416,-0.249444,0.96754,-0.040557,-0.2396309999999999,0.6072890000000001,0.27275
417,-0.240375,0.964402,-0.110221,-0.580029,0.889983,0.471473
418,-0.242521,0.955619,-0.167258,-0.039324,0.046944,0.636649
419,-0.241738,0.944819,-0.2210909999999999,0.224419,-0.042765,0.6173310000000001
420,-0.2321389999999999,0.934756,-0.268968,0.489967,-0.018984,0.3699659999999999
421,-0.21334,0.927742,-0.306235,0.8842540000000001,-0.00129,0.460914
422,-0.1804069999999999,0.925552,-0.332876,0.80614,0.116044,0.411246
423,-0.147506,0.921668,-0.358846,0.2841329999999999,0.298608,0.4264729999999999
424,-0.130968,0.914105,-0.383743,0.160631,0.223773,0.736634
425,-0.124331,0.905616,-0.405464,0.183047,0.130578,0.813515
426,-0.1230579999999999,0.898343,-0.421707,0.117352,0.0097989999999999,0.7893680000000001
427,-0.121866,0.89402,-0.431135,-0.061896,-0.129951,0.676832
428,-0.121476,0.893559,-0.432199,-0.222579,-0.315922,0.6175619999999999
429,-0.119957,0.8985879999999999,-0.422079,-0.359673,-0.397947,0.6051380000000001
430,-0.116045,0.908022,-0.402528,-0.397291,-0.3958,0.574724
431,-0.110393,0.91985,-0.376416,-0.410451,-0.383366,0.5285920000000001
432,-0.105456,0.93272,-0.344835,-0.425596,-0.440701,0.444902
433,-0.103223,0.946482,-0.305804,-0.460635,-0.444956,0.339694
434,-0.105956,0.960227,-0.258335,-0.435396,-0.322913,0.163486
435,-0.1187309999999999,0.971215,-0.206503,-0.3919809999999999,-0.002786,-0.156077
436,-0.144206,0.975595,-0.1655849999999999,-0.148046,0.840109,-0.989474
437,-0.177204,0.9679,-0.178235,0.5106850000000001,1.848933,-1.765033
438,-0.187451,0.95829,-0.2157349999999999,1.053784,0.8353959999999999,-0.631005
439,-0.172076,0.957664,-0.230802,0.411196,-0.185264,0.268689
440,-0.144466,0.962245,-0.230681,-0.287052,-0.075846,0.696258
441,-0.115977,0.97069,-0.210498,-0.415609,-0.037188,0.776416
442,-0.1085579999999999,0.97625,-0.1874809999999999,-0.568154,0.635764,0.082577
443,-0.11484,0.970611,-0.211482,0.158038,-0.363494,0.883266
444,-0.118518,0.968269,-0.220015,0.164508,-0.501839,1.01663
445,-0.136326,0.969485,-0.203748,0.11298,-0.438388,0.802824
446,-0.166394,0.968206,-0.186789,0.047803,-0.150777,0.84577
447,-0.194513,0.966927,-0.164973,0.014703,0.159431,0.6269939999999999
448,-0.219392,0.966646,-0.132143,0.119768,0.396574,0.374803
449,-0.237975,0.967091,-0.09001,0.094009,0.4672659999999999,0.003309
450,-0.241707,0.968212,-0.064358,-0.0995559999999999,-0.0607409999999999,-0.018573
451,-0.23298,0.971641,-0.040416,0.034097,-0.112891,0.024516
452,-0.219375,0.975603,-0.008419,-0.035676,-0.130694,-0.119603
453,-0.210061,0.977523,0.017887,-0.018943,-0.184829,-0.105778
454,-0.204123,0.978108,0.040458,0.162024,-0.208378,0.068887
455,-0.200736,0.977519,0.064487,0.163078,-0.205638,0.129452
456,-0.2010849999999999,0.975403,0.090289,0.185063,-0.1471559999999999,0.0785039999999999
457,-0.202914,0.972297,0.1160269999999999,0.170703,-0.045814,-0.0233759999999999
458,-0.205921,0.96853,0.139797,0.174244,0.088233,-0.112926
459,-0.208051,0.964727,0.1612869999999999,0.193906,0.073206,-0.127031
460,-0.2098469999999999,0.96096,0.180325,0.203515,0.032845,-0.089702
461,-0.209785,0.956948,0.200596,0.2102889999999999,0.035041,-0.078861
462,-0.208258,0.95244,0.2224489999999999,0.225409,0.07617,-0.119681
463,-0.207379,0.948812,0.238217,0.2357139999999999,0.321238,-0.331829
464,-0.207247,0.947865,0.2420679999999999,0.1753559999999999,0.3427989999999999,-0.407016
465,-0.2087639999999999,0.949469,0.2343579999999999,0.185448,0.256769,-0.262434
466,-0.209222,0.952842,0.219807,0.224801,0.215859,-0.169789
467,-0.208225,0.957009,0.201924,0.310093,0.2412639999999999,-0.4825779999999999
468,-0.207796,0.962864,0.172367,0.422517,0.326625,-0.572254
469,-0.207859,0.970666,0.120826,0.542363,0.402075,-0.4502939999999999
470,-0.207546,0.977155,0.045728,0.459118,0.799655,-0.2435429999999999
471,-0.2062699999999999,0.977706,-0.039274,0.129244,0.830781,0.361616
472,-0.200986,0.972241,-0.119798,-0.230426,0.3870119999999999,0.7368939999999999
473,-0.195961,0.962415,-0.188029,-0.789802,0.482882,0.740733
474,-0.195191,0.949653,-0.245069,-0.8960870000000001,0.335931,0.544798
475,-0.192896,0.934062,-0.300529,0.2398469999999999,0.200047,0.359611
476,-0.190541,0.916253,-0.352381,0.429738,0.144812,0.4182079999999999
477,-0.1761049999999999,0.901299,-0.395786,0.589557,0.195625,0.376819
478,-0.151053,0.8902209999999999,-0.429753,0.026129,-0.007683,0.322301
479,-0.131188,0.8793690000000001,-0.45771,-0.2186199999999999,-0.185292,0.407143
480,-0.109324,0.8709790000000001,-0.479001,-0.2183739999999999,-0.221107,0.464505
481,-0.093568,0.8653139999999999,-0.492418,-0.05432,-0.2112909999999999,0.62636
482,-0.084184,0.8622860000000001,-0.499375,-0.05113,-0.280041,0.658997
483,-0.0774919999999999,0.8615229999999999,-0.501768,-0.097511,-0.357037,0.664
484,-0.074945,0.863203,-0.4992609999999999,-0.209753,-0.623213,0.604913
485,-0.075821,0.868358,-0.490106,-0.157074,-0.735958,0.533258
486,-0.075593,0.8785459999999999,-0.471637,-0.1408839999999999,-0.79769,0.494738
487,-0.072871,0.8939159999999999,-0.44227,-0.1658369999999999,-0.817485,0.491342
488,-0.073333,0.912199,-0.403132,-0.193742,-0.7064189999999999,0.3951969999999999
489,-0.081857,0.928948,-0.361047,-0.192511,-0.607491,0.340615
490,-0.0976,0.942201,-0.320515,-0.219401,-0.063661,0.224004
491,-0.118709,0.950965,-0.285607,-0.010091,0.320794,-0.035605
492,-0.140588,0.95738,-0.252304,0.071236,0.399905,-0.126358
493,-0.156923,0.962314,-0.2220909999999999,0.164751,0.19865,-0.4071059999999999
494,-0.165675,0.965381,-0.201467,0.084925,0.001248,-0.228236
495,-0.162902,0.970365,-0.178474,-0.019456,0.018374,-0.140389
496,-0.1557579999999999,0.976486,-0.149036,-0.240497,0.1040339999999999,-0.032635
497,-0.147329,0.981452,-0.122653,-0.177424,0.104974,-0.062436
498,-0.14,0.984664,-0.1040859999999999,-0.297027,0.37555,-0.126169
499,-0.139741,0.986194,-0.088835,-0.292632,0.447842,0.125883
500,-0.140152,0.98678,-0.081362,0.0577549999999999,0.196966,-0.10684
501,-0.136167,0.98755,-0.078746,0.221082,0.3481889999999999,0.30656
502,-0.129991,0.9883,-0.07977,0.328996,0.472897,0.3941929999999999
503,-0.120914,0.989305,-0.081569,0.5405310000000001,1.391768,-1.14423
504,-0.114824,0.989397,-0.08892,0.6083390000000001,0.7930590000000001,-0.564339
505,-0.104248,0.987686,-0.116648,0.061462,-0.145767,0.6368050000000001
506,-0.099161,0.986289,-0.131902,0.2183469999999999,-0.395713,0.386952
507,-0.103887,0.984586,-0.140695,0.132604,-0.285337,0.140313
508,-0.1083599999999999,0.984655,-0.136786,-0.036217,-0.182424,0.019934
509,-0.107803,0.985991,-0.127272,0.078659,-0.20381,0.0481399999999999
510,-0.1074619999999999,0.986408,-0.124291,0.156213,-0.20084,-0.067634
511,-0.1066589999999999,0.98646,-0.124565,0.177643,-0.192347,-0.203545
512,-0.106169,0.986708,-0.1230079999999999,0.09764,-0.2142929999999999,-0.0280839999999999
513,-0.109018,0.986231,-0.124341,0.101999,-0.2272739999999999,0.017636
514,-0.116396,0.983975,-0.135063,0.142809,-0.313366,-0.126671
515,-0.125623,0.981127,-0.1469859999999999,0.052594,-0.410738,-0.085008
516,-0.1310589999999999,0.978949,-0.156459,-0.050048,-0.440863,0.042475
517,-0.134787,0.977187,-0.164115,-0.158274,-0.064559,-0.203835
518,-0.141366,0.973718,-0.178567,-0.029349,0.2857119999999999,-0.0584779999999999
519,-0.148843,0.967879,-0.202613,0.04049,0.6105510000000001,0.010688
520,-0.150727,0.95954,-0.237825,0.416505,0.983133,-0.289
521,-0.133798,0.949401,-0.2841349999999999,0.06785,1.113664,-0.306243
522,-0.106198,0.935588,-0.33674,-0.076739,1.013158,-0.176489
523,-0.086065,0.913713,-0.397138,-0.089091,0.638075,0.347151
524,-0.084161,0.886669,-0.454679,-0.44155,0.717259,0.561139
525,-0.088719,0.863122,-0.497139,-0.7338060000000001,0.6007,0.439065
526,-0.086534,0.850224,-0.519258,-0.12245,-0.193287,0.127077
527,-0.064022,0.8463950000000001,-0.528691,-0.17493,-0.278707,0.276356
528,-0.039481,0.848234,-0.528145,-0.198755,-0.275542,0.373452
529,-0.021156,0.85508,-0.518063,-0.239342,-0.458855,0.5409510000000001
530,-0.0028899999999999,0.8667389999999999,-0.498752,-0.245279,-0.623575,0.605228
531,0.012776,0.8812639999999999,-0.47245,-0.2398719999999999,-0.699348,0.57624
532,0.021481,0.897919,-0.439633,-0.167477,-0.758668,0.38287
533,0.019997,0.915783,-0.401173,-0.141366,-0.732769,0.288288
534,0.008115,0.933992,-0.357197,-0.063276,-0.531862,0.19434
535,-0.01294,0.951136,-0.308498,0.036683,-0.260477,0.228649
536,-0.039064,0.965469,-0.2575679999999999,0.122316,-0.076171,0.080703
537,-0.068346,0.974281,-0.214713,0.174349,0.1245339999999999,-0.279885
538,-0.0983179999999999,0.977243,-0.187953,0.274511,0.226706,-0.4175149999999999
539,-0.1226319999999999,0.979232,-0.16144,0.244534,0.075898,-0.028319
540,-0.13635,0.982615,-0.125991,0.136579,0.035925,0.136871
541,-0.139703,0.986066,-0.090306,-0.046699,0.264057,-0.049267
542,-0.133464,0.989087,-0.062374,-0.6832010000000001,0.444339,-0.948185
543,-0.129856,0.99042,-0.04693,-1.274197,0.634931,-1.257224
544,-0.139731,0.988852,-0.051412,-0.887383,-0.029273,0.365606
545,-0.140253,0.987984,-0.064917,-0.074652,-0.258415,0.774359
546,-0.1327009999999999,0.990102,-0.04566,-0.394002,0.751307,0.675589
547,-0.1280099999999999,0.991383,-0.0277339999999999,1.2189219999999998,2.040843,-1.016226
548,-0.09725,0.993007,-0.066903,1.396032,-0.118969,0.592156
549,-0.061346,0.993926,-0.091349,0.818746,-0.085418,-0.265554
550,-0.0502,0.994652,-0.090246,0.004317,-0.1187059999999999,0.753728
551,-0.052187,0.99275,-0.108261,-0.209608,0.185533,0.029679
552,-0.064842,0.993398,-0.09462,-0.251365,0.234645,0.1670839999999999
553,-0.066584,0.994445,-0.081497,-0.066061,0.045228,0.092941
554,-0.0604679999999999,0.995408,-0.074181,-0.160754,-0.153047,-0.16822
555,-0.0587559999999999,0.996701,-0.0559669999999999,-0.153661,-0.137997,-0.185793
556,-0.0644179999999999,0.99682,-0.046881,-0.0277149999999999,-0.141793,-0.163355
557,-0.075496,0.996156,-0.04438,0.302059,-0.281526,-0.226814
558,-0.086336,0.99506,-0.048978,0.345476,-0.320683,-0.241412
559,-0.093273,0.994084,-0.055621,0.2625699999999999,-0.425587,-0.126172
560,-0.097014,0.993341,-0.06212,0.064696,-0.516412,-0.043212
561,-0.103308,0.99212,-0.070876,0.058142,-0.557504,-0.064363
562,-0.112393,0.990542,-0.078694,0.118344,-0.3618949999999999,-0.128948
563,-0.120869,0.988828,-0.087219,0.164692,-0.179029,-0.117341
564,-0.122688,0.987426,-0.099678,0.282661,0.2570199999999999,-0.169777
565,-0.121681,0.985302,-0.1198849999999999,0.424827,0.343708,-0.1754339999999999
566,-0.1183869999999999,0.98105,-0.153371,0.381921,0.4768199999999999,-0.345088
567,-0.107634,0.973651,-0.201038,-0.151598,0.8198209999999999,-0.115521
568,-0.096666,0.960411,-0.2612739999999999,-0.367613,1.281487,-0.194964
569,-0.0868559999999999,0.941143,-0.326656,-0.310971,0.717381,0.476925
570,-0.086264,0.916495,-0.390633,-0.301508,0.5242399999999999,0.715431
571,-0.094647,0.8902690000000001,-0.4454899999999999,-0.3927489999999999,0.406758,0.379999
572,-0.091246,0.8735950000000001,-0.478022,-0.605348,0.559267,0.020899
573,-0.066233,0.868265,-0.491658,-0.393957,0.503012,-0.036617
574,-0.029723,0.869684,-0.492712,-0.16092,0.082098,0.294867
575,0.00535,0.873808,-0.486241,-0.160792,-0.237592,0.390217
576,0.025057,0.878842,-0.4764529999999999,-0.152605,-0.4276399999999999,0.425596
577,0.032632,0.886074,-0.462393,-0.17492,-0.7106279999999999,0.450491
578,0.032933,0.8966280000000001,-0.441558,-0.166096,-0.7710020000000001,0.42546
579,0.0263139999999999,0.910038,-0.4136869999999999,-0.128594,-0.8007850000000001,0.388235
580,0.010961,0.924994,-0.379821,-0.058248,-0.8551700000000001,0.308089
581,-0.01349,0.940018,-0.340854,-0.002227,-0.829942,0.268848
582,-0.044831,0.954212,-0.295749,0.041947,-0.7584420000000001,0.262912
583,-0.081326,0.965759,-0.246359,0.1733819999999999,-0.163681,0.309348
584,-0.1172,0.972543,-0.2010539999999999,0.085202,0.088141,-0.08569
585,-0.142654,0.975913,-0.16505,0.1106559999999999,0.084771,-0.121693
586,-0.16164,0.977392,-0.136289,-0.003857,0.349863,-0.5398430000000001
587,-0.18078,0.978469,-0.0995679999999999,0.26333,0.146622,-0.042064
588,-0.183481,0.981717,-0.050633,0.33198,0.165408,0.135625
589,-0.173121,0.984675,-0.02101,-0.063818,0.580785,-0.225679
590,-0.154961,0.987727,-0.019475,-0.8024819999999999,0.929295,-1.894511
591,-0.145044,0.988768,-0.0360129999999999,-0.76531,-0.126677,0.700396
592,-0.130903,0.989407,-0.0627409999999999,-0.975634,-0.2321889999999999,0.083355
593,-0.11899,0.991487,-0.052848,-1.446272,1.597823,-0.263574
594,-0.128717,0.99104,-0.035615,1.430399,1.074786,0.753617
595,-0.107208,0.989601,-0.095881,1.24913,0.187156,0.407588
596,-0.091584,0.989425,-0.112463,0.526917,-0.144363,0.4519859999999999
597,-0.083022,0.991338,-0.10175,0.097212,0.043894,0.589436
598,-0.084061,0.991945,-0.0947409999999999,-0.024506,0.128965,0.048369
599,-0.089507,0.993518,-0.070062,0.048552,0.038694,0.18934
600,-0.088187,0.994471,-0.056996,0.056616,-0.026926,-0.012584
601,-0.082116,0.995168,-0.053801,-0.012946,-0.194021,-0.515031
602,-0.0801,0.995603,-0.048546,-0.101129,-0.300336,-0.1035079999999999
603,-0.084473,0.995097,-0.051412,-0.030487,-0.361827,-0.036036
604,-0.093484,0.993977,-0.0571669999999999,0.099633,-0.403309,-0.043526
605,-0.1026099999999999,0.992565,-0.065454,0.211894,-0.4372359999999999,-0.252433
606,-0.1080059999999999,0.991137,-0.077325,0.184055,-0.449115,-0.212729
607,-0.112978,0.989988,-0.084603,0.327822,-0.449506,-0.051047
608,-0.115559,0.989341,-0.088591,0.37888,-0.339805,-0.012484
609,-0.1137,0.988854,-0.096112,0.378897,-0.197854,-7.900000000000001e-05
610,-0.1092289999999999,0.988443,-0.1051049999999999,0.474525,-0.113107,0.010623
611,-0.102062,0.987717,-0.118305,0.4713859999999999,-0.019089,0.0457959999999999
612,-0.092245,0.985988,-0.138982,0.329763,0.702702,-0.117442
613,-0.075634,0.982082,-0.1726,0.448147,1.086719,-0.207283
614,-0.0530919999999999,0.974864,-0.2163769999999999,0.207176,1.145315,-0.107018
615,-0.034325,0.96152,-0.272576,-0.255852,0.935452,0.183938
616,-0.029143,0.943212,-0.330907,-0.4820569999999999,0.661311,0.583287
617,-0.0434,0.921939,-0.384892,-0.709407,0.383007,0.589939
618,-0.06037,0.906895,-0.4170069999999999,-0.3775719999999999,-0.141453,0.258056
619,-0.061089,0.902646,-0.4260239999999999,-0.268958,-0.171841,0.23004
620,-0.048892,0.905327,-0.421889,-0.229566,-0.215324,0.3841239999999999
621,-0.034713,0.911866,-0.409015,-0.252366,-0.341233,0.5236390000000001
622,-0.020803,0.921709,-0.38732,-0.2919719999999999,-0.536013,0.523551
623,-0.0120349999999999,0.933233,-0.359066,-0.278599,-0.600256,0.465999
624,-0.0115129999999999,0.945465,-0.3255159999999999,-0.235023,-0.6651,0.398758
625,-0.021677,0.957509,-0.287581,-0.155112,-0.7863359999999999,0.293379
626,-0.042822,0.968233,-0.246351,-0.028848,-0.803956,0.308042
627,-0.070309,0.977209,-0.200287,0.0192379999999999,-0.743704,0.29039
628,-0.102224,0.982964,-0.1527329999999999,0.121389,-0.342095,0.169777
629,-0.135219,0.98444,-0.112201,0.131939,0.0623429999999999,-0.2682
630,-0.159718,0.984565,-0.071527,-0.005764,0.493401,-0.879416
631,-0.176862,0.983446,-0.039363,0.18585,0.574233,-0.742833
632,-0.178361,0.983892,-0.011761,0.372636,-0.073431,-0.1118349999999999
633,-0.167991,0.98578,0.003584,0.083473,-0.042207,0.2084369999999999
634,-0.147116,0.989113,0.002677,-0.532175,0.8882209999999999,-1.487327
635,-0.1285609999999999,0.991694,-0.003193,-0.412012,-0.08166,1.181767
636,-0.113087,0.993291,-0.024086,-0.806484,0.057277,0.246453
637,-0.101294,0.994835,-0.006115,-0.319116,0.339836,-0.08083
638,-0.105145,0.994294,0.017876,0.301525,3.003952,-0.060265
639,-0.120511,0.992701,0.00405,1.509656,0.493566,-0.6575989999999999
640,-0.107092,0.993867,-0.027497,-0.012156,-0.1223,0.63234
641,-0.09179,0.994832,-0.04336,-0.059638,-0.06786,0.5972390000000001
642,-0.08916,0.995054,-0.043752,-0.228192,-0.129819,0.288869
643,-0.0937559999999999,0.994897,-0.037214,-0.20083,-0.1005799999999999,0.018659
644,-0.096193,0.995111,-0.022289,-0.10652,-0.147348,0.143414
645,-0.0990809999999999,0.995017,-0.010946,0.100683,-0.154791,-0.03422
646,-0.102815,0.994663,-0.008405,0.248888,-0.198749,-0.253664
647,-0.106314,0.994233,-0.0139479999999999,0.105154,-0.32428,-0.320006
648,-0.111954,0.993479,-0.021495,0.099366,-0.41598,-0.0918929999999999
649,-0.119463,0.992306,-0.032449,0.1514,-0.591778,-0.033622
650,-0.129774,0.990578,-0.043701,0.110594,-0.6596,-0.162736
651,-0.139673,0.988532,-0.057377,0.135447,-0.616614,-0.179638
652,-0.1441599999999999,0.987436,-0.064689,0.120326,-0.188684,-0.149575
653,-0.142037,0.987513,-0.068112,0.11213,-0.139597,-0.1385829999999999
654,-0.141704,0.986527,-0.0817389999999999,0.136089,0.03302,-0.025622
655,-0.146143,0.983575,-0.105919,0.128229,0.545554,-0.164115
656,-0.153018,0.978061,-0.141345,0.231173,0.8943909999999999,-0.21864
657,-0.155813,0.969266,-0.190377,0.3443969999999999,1.1148870000000002,-0.313743
658,-0.153496,0.955929,-0.250271,0.148277,1.024097,-0.143284
659,-0.153688,0.935742,-0.3174329999999999,-0.045576,1.0514709999999998,0.074269
660,-0.160531,0.911634,-0.378352,-0.136801,1.298327,0.385051
661,-0.168619,0.8899530000000001,-0.4237329999999999,-0.8326020000000001,0.517579,0.417172
662,-0.167649,0.87545,-0.453298,-0.366913,-0.139748,0.161779
663,-0.159924,0.871092,-0.464351,-0.2116429999999999,-0.138548,0.137035
664,-0.147044,0.871949,-0.466992,-0.0937549999999999,-0.256729,0.325848
665,-0.134017,0.875793,-0.463706,-0.144669,-0.318619,0.4208439999999999
666,-0.123458,0.882424,-0.453964,-0.170335,-0.371759,0.459442
667,-0.115451,0.892083,-0.436872,-0.120038,-0.585747,0.5368930000000001
668,-0.110992,0.904218,-0.412392,-0.078034,-0.691221,0.5094380000000001
669,-0.111952,0.917373,-0.381957,-0.074663,-0.716934,0.455657
670,-0.1192049999999999,0.930797,-0.345549,-0.013226,-0.713832,0.388518
671,-0.133024,0.943663,-0.30299,0.060118,-0.575621,0.34457
672,-0.1520099999999999,0.954915,-0.255003,0.124315,-0.463308,0.267088
673,-0.174297,0.964045,-0.200586,0.2175099999999999,-0.329569,0.219599
674,-0.196148,0.97014,-0.142657,0.158001,-0.347215,0.061511
675,-0.214855,0.972619,-0.088571,0.1090049999999999,-0.312082,-0.102988
676,-0.227123,0.972995,-0.041139,-0.040135,0.140439,-1.059707
677,-0.237306,0.971432,-0.001036,0.191347,0.546848,-0.258424
678,-0.229142,0.972836,0.032873,0.1784069999999999,0.432285,-0.015753
679,-0.214,0.976074,0.038471,-0.181538,0.7763369999999999,-0.305149
680,-0.2077909999999999,0.978043,0.015778,-0.798205,0.497314,-0.8405610000000001
681,-0.201948,0.979387,-0.003578,-0.822832,-0.2477739999999999,0.964866
682,-0.191996,0.981317,-0.012203,-0.583501,-0.085031,-0.107075
683,-0.191761,0.980881,0.033103,0.1592589999999999,0.769592,1.378411
684,-0.206775,0.978211,0.018528,0.5793189999999999,2.689712,-0.071552
685,-0.2134989999999999,0.976905,0.008404,2.000654,0.540917,-0.621441
686,-0.198468,0.980104,-0.001545,0.013211,-0.103868,0.5074960000000001
687,-0.182453,0.983212,-0.001046,-0.110378,-0.175121,0.529718
688,-0.180094,0.983522,0.015699,-0.251165,-0.1365829999999999,0.128435
689,-0.184164,0.982226,0.036205,-0.140116,-0.01755,-0.06187
690,-0.186145,0.980755,0.058863,0.009418,-0.070599,-0.065409
691,-0.191803,0.978496,0.075837,0.044739,-0.35197,-0.077958
692,-0.198941,0.975771,0.091039,0.169553,-0.44092,-0.036855
693,-0.207663,0.97239,0.1064329999999999,0.152807,-0.397348,-0.0276209999999999
694,-0.217921,0.968524,0.120275,0.1557869999999999,-0.3804659999999999,-0.195715
695,-0.230856,0.964032,0.131692,0.302984,-0.430187,-0.19787
696,-0.245742,0.95927,0.1393,0.387802,-0.427486,-0.196277
697,-0.261876,0.954634,0.141727,0.4363149999999999,-0.398574,-0.283024
698,-0.277756,0.950749,0.13755,0.505005,-0.171254,-0.350074
699,-0.290277,0.947939,0.130937,0.574746,-0.013811,-0.319871
700,-0.299152,0.94658,0.120364,0.565601,0.240889,-0.2160969999999999
701,-0.305899,0.946588,0.101932,0.500174,0.30799,-0.327015
702,-0.311279,0.947439,0.07388,0.464859,0.320216,-0.126325
703,-0.314818,0.948168,0.04312,0.301177,0.848966,-0.153701
704,-0.316633,0.94853,0.005236,0.571195,0.625612,-0.2135949999999999
705,-0.311476,0.948837,-0.051827,0.629987,0.723969,-0.242805
706,-0.294632,0.948881,-0.113186,0.274933,1.368898,0.591076
707,-0.274044,0.945354,-0.176638,0.0955169999999999,1.33228,0.8858360000000001
708,-0.257716,0.937466,-0.233957,-0.091924,1.090732,1.0062799999999998
709,-0.235112,0.930637,-0.280414,-0.325969,0.54797,0.3557619999999999
710,-0.200079,0.929987,-0.308363,-0.288355,0.479742,0.156401
711,-0.165954,0.930377,-0.326884,0.084609,0.348035,0.237208
712,-0.137979,0.929626,-0.3416909999999999,0.136621,0.09459,0.487626
713,-0.117288,0.926136,-0.358486,0.0572909999999999,-0.04105,0.59338
714,-0.111298,0.921833,-0.371259,-0.010803,-0.180088,0.7202729999999999
715,-0.116405,0.918513,-0.377862,-0.0997509999999999,-0.430659,0.798623
716,-0.12389,0.91847,-0.37558,-0.092419,-0.486158,0.769501
717,-0.131441,0.922114,-0.363903,-0.122649,-0.5408430000000001,0.750576
718,-0.142145,0.92763,-0.345389,-0.345068,-0.6786220000000001,0.642004
719,-0.155412,0.934917,-0.3190179999999999,-0.411681,-0.692684,0.561327
720,-0.167367,0.944723,-0.281927,-0.509849,-0.620748,0.416768
721,-0.178099,0.956429,-0.231344,-0.503496,-0.469124,0.3028619999999999
722,-0.1922839999999999,0.966221,-0.171576,-0.523872,-0.30463,0.119559
723,-0.215465,0.96901,-0.1207859999999999,-0.623265,0.946365,-1.335848
724,-0.248613,0.960866,-0.1221569999999999,0.394075,1.7454330000000002,-2.273747
725,-0.259805,0.950062,-0.172855,1.038827,1.7610740000000005,-1.406857
726,-0.229096,0.95441,-0.191341,-0.124221,1.502026,0.624432
727,-0.202704,0.957262,-0.20629,0.300452,-0.711442,1.547538
728,-0.173625,0.958516,-0.226046,0.2394659999999999,-1.155568,0.658129
729,-0.158662,0.958464,-0.236996,-0.55725,-1.373992,0.481884
730,-0.170511,0.956047,-0.2385239999999999,-0.121695,-0.532845,1.330382
731,-0.206898,0.952638,-0.222863,0.025837,0.8495010000000001,0.8080229999999999
732,-0.2514639999999999,0.950162,-0.184263,0.8801260000000001,1.478839,0.205351
733,-0.273574,0.951311,-0.141978,0.91304,0.5503060000000001,-0.113103
734,-0.295584,0.945977,-0.133233,0.1771299999999999,0.1009429999999999,0.2290579999999999
735,-0.314789,0.941994,-0.1164019999999999,-0.330048,-0.137276,0.445747
736,-0.322152,0.942734,-0.086401,-0.233329,-0.216248,0.009955
737,-0.324772,0.944466,-0.050005,0.022693,-0.113152,0.1491559999999999
738,-0.318379,0.947828,-0.015802,0.267842,0.024386,-0.213233
739,-0.308143,0.95122,0.014851,0.25753,-0.060046,-0.092198
740,-0.298305,0.953542,0.042005,0.141231,-0.299428,-0.02017
741,-0.291346,0.954128,0.068921,0.1389099999999999,-0.310604,-0.065381
742,-0.289401,0.952207,0.097679,0.151889,-0.275052,-0.054283
743,-0.292332,0.947935,0.126308,0.162128,-0.121077,0.1469619999999999
744,-0.297914,0.94254,0.151187,0.146287,-0.063466,0.148053
745,-0.304134,0.936331,0.1754359999999999,0.104153,0.003244,0.0829559999999999
746,-0.309585,0.928381,0.205569,0.12242,-0.016119,-0.078219
747,-0.313454,0.918696,0.240281,0.199715,-0.021678,-0.2183699999999999
748,-0.318799,0.908177,0.271241,0.30705,0.146602,-0.392213
749,-0.326573,0.900359,0.287568,0.341023,0.377031,-0.304078
750,-0.336037,0.8968870000000001,0.287513,0.158074,0.32377,-0.301032
751,-0.343719,0.8946129999999999,0.285512,0.267242,0.397273,-0.461995
752,-0.350781,0.8947959999999999,0.276194,0.676617,0.410471,-0.348231
753,-0.350794,0.899251,0.261309,0.8273870000000001,0.473872,-0.326861
754,-0.343964,0.908317,0.2379949999999999,0.8371430000000001,0.653558,-0.416004
755,-0.3315619999999999,0.922722,0.196576,1.014499,0.574241,-0.0955169999999999
756,-0.310959,0.940271,0.138516,0.747925,0.4937649999999999,0.2615389999999999
757,-0.28505,0.956004,0.06925,0.2380519999999999,0.642262,0.141718
758,-0.263449,0.964666,0.002684,-0.454584,0.8221229999999999,0.476274
759,-0.255048,0.965438,-0.053599,-0.47745,0.604905,0.604807
760,-0.243751,0.963966,-0.106528,-0.04641,0.00457,0.52854
761,-0.23104,0.960678,-0.15399,0.058677,-0.041946,0.444868
762,-0.22098,0.955648,-0.194676,0.190996,-0.068731,0.3613929999999999
763,-0.2155699999999999,0.949803,-0.226713,0.78985,0.145275,0.266264
764,-0.207248,0.944264,-0.255753,0.8622620000000001,0.335415,0.278504
765,-0.192491,0.940591,-0.279696,0.773836,0.317236,0.466174
766,-0.175694,0.936948,-0.302085,0.279896,0.028094,0.688742
767,-0.162574,0.933571,-0.319391,0.223471,-0.048851,0.689767
768,-0.150804,0.930082,-0.334964,0.15091,-0.146772,0.620532
769,-0.1417759999999999,0.926787,-0.347794,-0.082436,-0.249602,0.637894
770,-0.136686,0.924736,-0.3552119999999999,-0.1323119999999999,-0.272042,0.6744100000000001
771,-0.132693,0.925331,-0.355176,-0.147779,-0.280007,0.653455
772,-0.128933,0.928482,-0.3482719999999999,-0.250401,-0.195968,0.546469
773,-0.126338,0.932967,-0.337056,-0.302617,-0.213164,0.5136609999999999
774,-0.125032,0.93785,-0.323728,-0.3895099999999999,-0.310058,0.424543
775,-0.124766,0.943476,-0.307054,-0.416524,-0.4398439999999999,0.262804
776,-0.125414,0.950426,-0.28453,-0.4295319999999999,-0.468919,0.165054
777,-0.1267339999999999,0.95844,-0.255592,-0.422766,-0.375111,0.039436
778,-0.130408,0.965697,-0.224541,-0.276681,-0.109358,-0.207665
779,-0.141846,0.969218,-0.201223,-0.0206599999999999,0.270528,-0.737529
780,-0.166051,0.965466,-0.200742,0.568913,0.787326,-1.2802
781,-0.1924259999999999,0.956273,-0.220246,1.155713,1.292689,-0.8327629999999999
782,-0.197132,0.951525,-0.2360809999999999,0.871876,0.914549,-0.254779
783,-0.176794,0.951792,-0.25066,0.5063840000000001,0.115453,-0.2213699999999999
784,-0.149344,0.954003,-0.259942,0.14852,-0.49601,-0.061744
785,-0.127339,0.958464,-0.2551989999999999,-0.365169,-0.349516,0.341838
786,-0.1190369999999999,0.965756,-0.2305219999999999,-0.699765,0.390521,0.4391859999999999
787,-0.115821,0.966723,-0.228095,-0.941781,0.909208,-1.029931
788,-0.123103,0.961006,-0.247604,-0.445424,0.2373429999999999,0.757568
789,-0.129429,0.958623,-0.253544,0.2470889999999999,-0.639501,1.210804
790,-0.129297,0.96128,-0.2433469999999999,-0.036337,-0.5029819999999999,0.953446
791,-0.13087,0.963822,-0.232194,-0.014744,-0.120896,0.84816
792,-0.135295,0.96805,-0.211112,0.1297869999999999,0.33618,0.534339
793,-0.145984,0.973159,-0.177886,0.2462489999999999,0.449006,0.247313
794,-0.159669,0.975709,-0.149971,0.246675,0.5150899999999999,-0.040154
795,-0.171247,0.975429,-0.1385839999999999,0.0242439999999999,0.23,0.0302
796,-0.172529,0.976792,-0.126905,-0.1670559999999999,-0.095871,0.141584
797,-0.166378,0.980638,-0.103251,-0.2126199999999999,-0.1446849999999999,-0.134252
798,-0.160743,0.983667,-0.080959,-0.256432,-0.255548,-0.159367
799,-0.158369,0.985329,-0.063548,-0.1005419999999999,-0.347786,-0.133672
800,-0.155202,0.986787,-0.0464399999999999,0.154531,-0.144563,-0.232292
801,-0.151731,0.987954,-0.030288,0.265134,-0.117959,-0.246598
802,-0.149913,0.988497,-0.019816,0.364207,-0.066881,-0.178533
803,-0.150312,0.988466,-0.018286,0.383481,-0.076326,-0.319955
804,-0.151328,0.988256,-0.021027,0.3407969999999999,-0.103978,-0.361358
805,-0.152267,0.987985,-0.0263079999999999,0.244903,-0.18847,-0.259108
806,-0.153843,0.98746,-0.035294,0.1402779999999999,-0.227725,-0.04895
807,-0.1559019999999999,0.986591,-0.048212,0.1026339999999999,-0.2457619999999999,-0.028311
808,-0.157121,0.985647,-0.0616909999999999,0.098375,-0.383275,-0.065232
809,-0.157271,0.984868,-0.07275,0.092634,-0.432866,0.018581
810,-0.157135,0.983863,-0.0855269999999999,0.16063,-0.506614,0.127581
811,-0.156277,0.983006,-0.096278,0.075345,-0.385838,-0.01795
812,-0.154066,0.982815,-0.101636,0.0984169999999999,-0.281292,0.0567149999999999
813,-0.153093,0.981727,-0.112991,0.244173,-0.115531,-0.095612
814,-0.150551,0.97986,-0.131156,0.23513,-0.115342,-0.180413
815,-0.144744,0.977384,-0.154149,0.1031789999999999,-0.150892,0.0252879999999999
816,-0.136998,0.973997,-0.180429,0.012471,0.293184,-0.4001989999999999
817,-0.1245759999999999,0.968159,-0.2171239999999999,-0.040082,0.998715,-0.329033
818,-0.1075579999999999,0.958573,-0.263745,0.037307,1.266494,-0.1216
819,-0.083853,0.943956,-0.319232,-0.020457,0.966093,0.13518
820,-0.058135,0.926889,-0.370797,-0.167634,0.630117,0.439752
821,-0.04262,0.909379,-0.4137729999999999,-0.134229,0.252944,0.42688
822,-0.038499,0.895299,-0.4437939999999999,-0.207229,0.109141,0.191581
823,-0.028693,0.8886569999999999,-0.457668,-0.386926,0.23764,-0.000492
824,-0.021527,0.8873040000000001,-0.460677,-0.218586,0.0283,0.131301
825,-0.0167669999999999,0.8915489999999999,-0.452608,-0.245761,-0.253167,0.34694
826,-0.009729,0.901287,-0.433106,-0.265463,-0.4835319999999999,0.479279
827,-0.002739,0.916636,-0.399705,-0.2281719999999999,-0.6786300000000001,0.5076609999999999
828,-0.002578,0.934582,-0.355729,-0.159043,-0.825116,0.429627
829,-0.012846,0.951867,-0.306233,-0.070162,-0.8614280000000001,0.3065989999999999
830,-0.034059,0.965974,-0.256372,-0.019377,-0.811372,0.263819
831,-0.063581,0.976221,-0.207224,-0.028872,-0.743967,0.239695
832,-0.098689,0.982506,-0.157905,0.025447,-0.343727,0.142631
833,-0.1323619999999999,0.985148,-0.109339,-0.00779,0.371465,-0.431249
834,-0.160296,0.985187,-0.060845,-0.109174,0.7346159999999999,-0.959525
835,-0.183894,0.982595,-0.026057,0.303691,0.549021,-0.815175
836,-0.181248,0.983432,-0.000587,0.406727,0.606503,0.039177
837,-0.16084,0.986893,0.012756,0.128339,0.564148,-0.121749
838,-0.146524,0.989149,0.010159,-0.335226,-0.251982,1.116687
839,-0.136321,0.99054,-0.015375,-1.173967,0.044448,-1.648138
840,-0.1330579999999999,0.990585,0.03203,-0.99095,0.8788459999999999,0.632246
841,-0.161042,0.986579,0.026763,0.20604,3.1427240000000003,-1.204238
842,-0.169995,0.985395,-0.009459,1.7832,0.087909,0.8354940000000001
843,-0.1484319999999999,0.988529,-0.027716,0.651224,-0.27721,0.228461
844,-0.129028,0.991,-0.035498,-0.1088869999999999,-0.446033,0.164954
845,-0.127237,0.990822,-0.0455389999999999,-0.172263,-0.442268,0.231238
846,-0.133471,0.990094,-0.043473,-0.058561,-0.273633,0.017137
847,-0.135952,0.990055,-0.036037,0.064434,-0.297108,-0.221729
848,-0.136096,0.990029,-0.036192,0.154544,-0.328317,-0.32715
849,-0.136607,0.989894,-0.037922,0.14918,-0.30009,-0.376247
850,-0.138866,0.989423,-0.041809,0.184673,-0.291959,-0.155578
851,-0.1424359999999999,0.988343,-0.0536639999999999,0.227732,-0.309449,-0.263719
852,-0.146584,0.986452,-0.0735919999999999,0.2025829999999999,-0.316652,-0.417421
853,-0.149569,0.984122,-0.095523,0.041735,-0.5204989999999999,-0.171842
854,-0.149205,0.981721,-0.118121,0.051121,-0.42003,-0.152722
855,-0.1482609999999999,0.976911,-0.153799,0.009009,0.2147239999999999,-0.35882
856,-0.1459349999999999,0.968577,-0.201378,-0.039596,1.19605,-0.298485
857,-0.134066,0.956408,-0.259426,0.335756,1.356244,0.118266
858,-0.115417,0.939217,-0.32333,0.2445369999999999,0.793326,0.220608
859,-0.097317,0.918623,-0.382956,-0.024204,0.375628,0.575629
860,-0.0983179999999999,0.8960870000000001,-0.432845,-0.248881,0.437943,0.4525439999999999
861,-0.121183,0.874481,-0.469672,-0.8550129999999999,0.263321,0.2218699999999999
862,-0.1236849999999999,0.864835,-0.486577,-0.626605,0.123492,-0.107219
863,-0.112665,0.8656940000000001,-0.487725,-0.400885,-0.106432,0.244515
864,-0.095012,0.8741559999999999,-0.476255,-0.274053,-0.345408,0.399686
865,-0.075761,0.889446,-0.45071,-0.131316,-0.572216,0.450603
866,-0.0578429999999999,0.909938,-0.410684,-0.0043219999999999,-0.70898,0.479058
867,-0.046164,0.932061,-0.35934,0.02793,-0.793846,0.423351
868,-0.044373,0.952092,-0.302562,0.049821,-0.824865,0.280773
869,-0.0536539999999999,0.96928,-0.2400199999999999,0.084782,-0.765423,0.178145
870,-0.076298,0.981894,-0.173364,0.111118,-0.67594,0.059869
871,-0.110089,0.987208,-0.115293,0.148495,-0.058283,-0.079332
872,-0.141924,0.987384,-0.070153,0.189211,0.362973,-0.332862
873,-0.161894,0.986181,-0.035023,0.196592,0.5481659999999999,-0.484859
874,-0.166244,0.986071,-0.004123,0.270461,0.2902349999999999,-0.17526
875,-0.155052,0.987724,0.018731,0.064476,0.46917,-0.180597
876,-0.137781,0.990174,0.023688,-0.28974,0.293029,0.234231
877,-0.127682,0.991592,0.020799,-0.8613629999999999,0.255448,-0.0287639999999999
878,-0.1179349999999999,0.992437,0.03391,-1.293381,0.1668339999999999,-0.852361
879,-0.117796,0.992734,0.024359,-0.083665,0.451526,0.837778
880,-0.13351,0.99089,0.017347,-0.087498,2.084335,-0.726835
881,-0.137239,0.990095,0.0294329999999999,1.468477,0.704225,0.170396
882,-0.126172,0.991946,0.010638,0.178204,0.003842,0.4740569999999999
883,-0.11877,0.992903,0.005219,0.106456,-0.205046,-0.003113
884,-0.118816,0.992903,0.004025,0.149746,-0.18582,0.045322
885,-0.123538,0.992286,0.00984,0.085269,-0.171119,0.205736
886,-0.1251779999999999,0.991783,0.026204,0.0869539999999999,-0.2284159999999999,0.025463
887,-0.130167,0.990689,0.0397519999999999,0.0324949999999999,-0.221295,-0.283496
888,-0.133768,0.990045,0.043667,0.082071,-0.261575,-0.391675
889,-0.135788,0.989973,0.038784,0.106964,-0.2612739999999999,-0.423397
890,-0.13849,0.990037,0.025214,0.0374769999999999,-0.37259,-0.247886
891,-0.143151,0.989675,0.006334,0.102227,-0.526601,-0.144731
892,-0.149397,0.988681,-0.013429,0.069349,-0.647876,-0.1902609999999999
893,-0.156795,0.987155,-0.0304839999999999,0.026562,-0.683383,-0.207782
894,-0.161446,0.986021,-0.041079,0.046334,-0.437468,-0.18939
895,-0.16473,0.984621,-0.058096,0.130184,-0.0560779999999999,-0.001917
896,-0.167668,0.982205,-0.084562,0.212178,0.562076,-0.1238269999999999
897,-0.163948,0.978796,-0.122759,0.367851,1.229975,-0.190153
898,-0.150288,0.972077,-0.180198,0.392765,1.131058,-0.250801
899,-0.131001,0.959479,-0.24946,0.125539,1.194894,-0.3059449999999999
900,-0.112518,0.941081,-0.318902,-0.143509,1.025334,-0.191383
901,-0.110789,0.915794,-0.386059,-0.784688,0.375909,0.542705
902,-0.117545,0.8913409999999999,-0.437822,-0.6935819999999999,-0.023543,0.3720719999999999
903,-0.114123,0.879912,-0.461221,-0.307736,-0.351637,0.08912
904,-0.098261,0.877416,-0.469553,-0.282614,-0.395711,0.225626
905,-0.081603,0.8803049999999999,-0.467331,-0.183885,-0.35139,0.365311
906,-0.0679159999999999,0.8890879999999999,-0.452664,-0.107789,-0.449375,0.463193
907,-0.0545659999999999,0.902545,-0.427116,-0.106888,-0.607364,0.489784
908,-0.04724,0.917797,-0.3942219999999999,-0.101502,-0.724788,0.468593
909,-0.048993,0.934072,-0.353696,-0.053195,-0.812612,0.375089
910,-0.060495,0.950156,-0.3058369999999999,0.00535,-0.79386,0.263738
911,-0.08062,0.96428,-0.2523019999999999,0.092659,-0.637452,0.213438
912,-0.104064,0.975759,-0.1925,0.19252,-0.350484,0.221721
