,gravity.x,gravity.y,gravity.z,userAcceleration.x,userAcceleration.y,userAcceleration.z
0,0.231627,0.935536,-0.266673,0.0016179999999999,-0.526692,0.015635
1,0.201018,0.947391,-0.2490679999999999,-0.040206,-0.283954,-0.060319
2,0.178895,0.956786,-0.229238,0.011626,0.010789,-0.078608
3,0.1653369999999999,0.963233,-0.211751,-0.059471,0.023126,0.134771
4,0.154079,0.968768,-0.194267,-0.204753,0.026501,0.148582
5,0.140785,0.973731,-0.17894,-0.221992,0.150842,0.005097
6,0.125953,0.978263,-0.164711,-0.224464,-0.0555789999999999,0.0716779999999999
7,0.1153589999999999,0.982269,-0.147759,-0.269656,-0.137268,0.073219
8,0.112132,0.985562,-0.126831,-0.139751,0.117572,-0.011002
9,0.113189,0.988046,-0.104623,-0.099823,0.323523,0.148401
10,0.115123,0.988354,-0.099475,-0.2279159999999999,0.231998,0.252582
11,0.111189,0.987188,-0.1144109999999999,-0.17523,0.648768,0.102295
12,0.102892,0.98729,-0.121096,-0.145952,1.111053,-0.0238169999999999
13,0.099132,0.989187,-0.108045,0.371235,0.700815,-0.04584
14,0.10357,0.989843,-0.09734,0.360953,0.399408,0.215031
15,0.1123869999999999,0.989598,-0.089761,0.27276,-0.2143449999999999,0.243829
16,0.11558,0.989221,-0.089865,0.065496,-0.377603,0.192267
17,0.115776,0.988776,-0.094387,-0.081368,-0.4260779999999999,0.024426
18,0.1155369999999999,0.988685,-0.095634,-0.066206,-0.2313599999999999,0.034706
19,0.115201,0.98934,-0.089034,-0.204221,-0.007422,0.086531
20,0.116501,0.989799,-0.08196,-0.09375,-0.130074,-0.031062
21,0.119791,0.989546,-0.080259,-0.044321,-0.197173,-0.059329
22,0.1248809999999999,0.988792,-0.0817799999999999,-0.010135,-0.287971,-0.066657
23,0.1282,0.988393,-0.081474,0.112935,-0.178456,0.020546
24,0.125221,0.988866,-0.080359,0.19117,-0.10088,0.098593
25,0.121793,0.989206,-0.081433,0.19971,-0.1555109999999999,0.003522
26,0.121456,0.988754,-0.087216,0.222004,-0.121673,-0.062228
27,0.117864,0.988468,-0.095042,0.387141,-0.1072109999999999,-0.078633
28,0.112401,0.988124,-0.104735,0.450831,-0.005229,0.0365589999999999
29,0.1091819999999999,0.987443,-0.11414,0.20373,-0.131715,0.221577
30,0.10779,0.986098,-0.126431,0.1158119999999999,-0.2071219999999999,0.317639
31,0.111038,0.982875,-0.147036,-0.088439,-0.286876,0.376177
32,0.120873,0.975547,-0.183552,-0.4740979999999999,-0.109885,0.041782
33,0.1391069999999999,0.963943,-0.226842,-0.515297,0.094621,-0.196223
34,0.1661619999999999,0.952469,-0.255319,-0.0054259999999999,0.46138,0.130288
35,0.19442,0.941005,-0.276954,0.091301,0.275395,0.21241
36,0.214692,0.930631,-0.296357,0.208876,0.100329,0.126145
37,0.22795,0.922852,-0.310447,-0.036895,0.873352,0.022316
38,0.2422,0.917969,-0.314113,-0.258695,0.4072719999999999,0.005092
39,0.2526,0.916245,-0.3109389999999999,-0.419775,0.222488,-0.0483139999999999
40,0.261917,0.917566,-0.29911,-0.195908,-0.210886,-0.016182
41,0.264462,0.921296,-0.285074,-0.035886,-0.31273,0.044763
42,0.25648,0.927536,-0.271826,-0.00233,-0.316711,0.033972
43,0.237557,0.936367,-0.258413,0.23928,-0.329739,0.042517
44,0.2090769999999999,0.946237,-0.2468119999999999,0.31404,-0.367899,0.019166
45,0.176554,0.955805,-0.235073,0.2893429999999999,-0.38537,-0.009403
46,0.148941,0.963946,-0.220496,0.050843,-0.226046,-0.074441
47,0.13083,0.970163,-0.204112,-0.032655,0.029319,-0.014318
48,0.120202,0.974743,-0.1882049999999999,-0.067651,0.11855,0.017429
49,0.109703,0.978785,-0.1730259999999999,-0.272621,0.201269,0.084434
50,0.096682,0.982683,-0.158052,-0.2210869999999999,0.001113,0.117189
51,0.084004,0.986024,-0.143851,-0.194264,-0.260285,0.040594
52,0.074971,0.988365,-0.1323089999999999,-0.183217,-0.283669,-0.042587
53,0.074642,0.990093,-0.118904,-0.11729,-0.131053,0.135933
54,0.0807,0.991187,-0.105019,-0.018032,0.13659,0.199715
55,0.084452,0.989997,-0.1129849999999999,0.094152,1.1134110000000002,-0.219931
56,0.085117,0.987165,-0.135105,0.118755,1.706912,-0.145092
57,0.070819,0.98902,-0.129682,-0.01871,1.979944,0.292982
58,0.0648919999999999,0.988325,-0.137822,0.545856,-0.2049239999999999,-0.074412
59,0.080673,0.985625,-0.148422,0.123352,-0.2823469999999999,0.184326
60,0.093512,0.985753,-0.139782,0.06051,-0.322896,0.271679
61,0.091537,0.987104,-0.131299,-0.028183,0.007387,0.03761
62,0.083061,0.989393,-0.119143,-0.068733,0.086565,0.064318
63,0.079859,0.991676,-0.100963,0.012762,0.0582809999999999,0.092311
64,0.081925,0.992498,-0.090718,0.072555,-0.035817,0.030842
65,0.08516,0.992151,-0.091519,-0.03946,-0.230005,-0.127658
66,0.086898,0.992038,-0.09111,-0.048781,-0.358142,-0.051041
67,0.0842779999999999,0.992743,-0.085733,0.028088,-0.371421,-0.022101
68,0.078898,0.993304,-0.084349,0.125997,-0.30762,-0.025454
69,0.072046,0.99375,-0.085214,0.233786,-0.194236,0.0595179999999999
70,0.064419,0.994048,-0.087815,0.2630349999999999,-0.170851,0.084199
71,0.058965,0.993814,-0.094071,0.2894239999999999,-0.176446,0.043488
72,0.0557419999999999,0.993028,-0.103823,0.308211,-0.220873,0.090776
73,0.0543639999999999,0.991737,-0.116163,0.233463,-0.247612,0.122098
74,0.0539269999999999,0.989653,-0.132933,0.1629,-0.387755,0.256499
75,0.057533,0.986254,-0.1548759999999999,0.022652,-0.445787,0.300369
76,0.070495,0.979898,-0.186608,-0.224761,-0.214319,0.1211329999999999
77,0.094609,0.970461,-0.221919,-0.14922,0.562742,0.100398
78,0.13007,0.959875,-0.248426,-0.001942,0.810633,0.104902
79,0.159968,0.949694,-0.269232,0.632192,1.075438,-0.379953
80,0.17861,0.943402,-0.279437,0.368204,1.152164,-0.226544
81,0.193976,0.938341,-0.286152,0.081247,1.057905,-0.165066
82,0.209676,0.93314,-0.292026,-0.12,0.2837179999999999,-0.102765
83,0.222351,0.929257,-0.295018,-0.180893,0.1609529999999999,-0.07661
84,0.226363,0.928575,-0.29411,-0.130904,0.043104,0.009595
85,0.22136,0.931018,-0.290169,-0.009538,-0.142078,0.132988
86,0.207503,0.935093,-0.2872929999999999,-0.006728,-0.214069,0.117432
87,0.188026,0.940583,-0.2827429999999999,-0.0008,-0.287827,0.1011789999999999
88,0.163653,0.947735,-0.273881,-0.017809,-0.447689,0.1196599999999999
89,0.136295,0.955404,-0.261955,-0.016986,-0.464117,0.1163859999999999
90,0.106857,0.962053,-0.251058,-0.044312,-0.5041359999999999,0.134496
91,0.078707,0.967458,-0.2404639999999999,-0.066316,-0.427572,0.169343
92,0.054824,0.971399,-0.2310219999999999,-0.042815,-0.3280119999999999,0.10207
93,0.034554,0.974204,-0.222992,0.003028,-0.124473,-0.03038
94,0.017484,0.976506,-0.2147619999999999,0.027392,-0.008428,0.0202889999999999
95,0.00526,0.977387,-0.211378,0.03368,-0.016083,0.038985
96,-0.00064,0.977547,-0.210701,-0.028886,-0.238198,-0.0566789999999999
97,-0.002407,0.97798,-0.208666,-0.038838,-0.307158,-0.034376
98,-0.001818,0.978872,-0.204448,-0.004301,-0.234533,-0.096028
99,-0.000151,0.979727,-0.200318,0.029525,-0.182516,-0.152282
100,0.000817,0.979314,-0.202327,0.183448,0.306773,-0.21996
101,0.010533,0.979079,-0.2031869999999999,0.0807,0.353547,0.165528
102,0.034048,0.979133,-0.200326,0.163736,0.629097,0.410654
103,0.045354,0.979685,-0.195326,0.084712,0.472647,0.6208020000000001
104,0.03573,0.977417,-0.208256,-0.212229,0.484283,-0.015728
105,-0.001041,0.975777,-0.2187469999999999,0.009098,1.338814,-0.149386
106,-0.021603,0.976355,-0.215073,0.907833,0.230494,0.631196
107,-0.009873,0.977286,-0.211676,0.27208,0.0566799999999999,0.104895
108,-0.004044,0.980504,-0.196438,-0.219283,0.17625,0.1282309999999999
109,-0.017786,0.985611,-0.168067,-0.3431599999999999,0.365128,0.290107
110,-0.035155,0.990564,-0.13243,0.122314,0.4194239999999999,0.3538199999999999
111,-0.048854,0.993757,-0.100249,0.1547339999999999,0.258425,0.231551
112,-0.060133,0.994786,-0.082311,0.219832,0.002132,0.083242
113,-0.072101,0.995084,-0.06782,0.229602,-0.239056,0.0523179999999999
114,-0.089091,0.994903,-0.047118,0.161631,-0.34642,0.107299
115,-0.107557,0.993797,-0.028051,0.139326,-0.422737,0.045599
116,-0.122896,0.992334,-0.012611,0.096956,-0.399576,-0.038659
117,-0.134522,0.990899,0.0032479999999999,0.13263,-0.288309,-0.043272
118,-0.145208,0.989244,0.01731,0.191778,-0.2679,-0.0462399999999999
119,-0.155393,0.987402,0.029649,0.157498,-0.26885,-0.071229
120,-0.164277,0.985473,0.042938,0.170808,-0.152801,-0.067733
121,-0.172034,0.98356,0.0547799999999999,0.3356989999999999,-0.011316,-0.017747
122,-0.1773829999999999,0.98232,0.0597419999999999,0.497558,-0.025991,0.030697
123,-0.179785,0.981951,0.0586299999999999,0.694419,-0.0300459999999999,0.026148
124,-0.17925,0.982231,0.055494,0.656453,0.023552,-0.0183699999999999
125,-0.173348,0.983648,0.048736,0.598274,-0.057668,0.2937619999999999
126,-0.160196,0.986557,0.032091,0.273782,0.038589,0.236951
127,-0.1335329999999999,0.991037,-0.0015949999999999,0.104571,0.314444,0.1956099999999999
128,-0.097609,0.994112,-0.046922,0.084532,0.668546,0.219728
129,-0.066211,0.993762,-0.089676,0.023593,0.655881,0.317612
130,-0.040394,0.992005,-0.119516,0.087452,0.682189,0.215738
131,-0.016074,0.989123,-0.146177,0.05094,0.4121979999999999,0.062726
132,0.007917,0.985786,-0.167792,0.007434,0.372781,0.150397
133,0.031871,0.982013,-0.186077,0.006292,0.245236,0.154476
134,0.049697,0.977862,-0.203243,0.0719,0.161039,0.124889
135,0.065088,0.973266,-0.220246,0.233496,0.020768,0.097123
136,0.0805559999999999,0.96797,-0.237775,0.1615859999999999,0.047869,0.274991
137,0.095653,0.963507,-0.249991,0.151845,-0.0133879999999999,0.268988
138,0.1079869999999999,0.959529,-0.2600659999999999,0.113418,-0.192347,0.288997
139,0.114476,0.956744,-0.267446,0.126293,-0.252154,0.321538
140,0.114383,0.95545,-0.272072,0.144833,-0.274084,0.337913
141,0.11104,0.955287,-0.274023,0.0805039999999999,-0.3209639999999999,0.408209
142,0.107068,0.955837,-0.273686,-0.070127,-0.268673,0.448033
143,0.101099,0.956881,-0.272303,-0.1534829999999999,-0.233279,0.44665
144,0.089087,0.95851,-0.270765,-0.260932,-0.180983,0.361326
145,0.072716,0.960668,-0.267996,-0.17997,-0.18015,0.201513
146,0.0550289999999999,0.962429,-0.265882,-0.084082,-0.155682,0.072798
147,0.036728,0.964672,-0.260865,0.241333,-0.0287899999999999,-0.1793809999999999
148,0.019223,0.967348,-0.252704,0.56853,0.092161,-0.036435
149,0.00774,0.968665,-0.248234,0.613826,0.174768,0.029942
150,0.007351,0.966106,-0.258025,0.56966,0.2604869999999999,0.011489
151,0.018558,0.963346,-0.267604,0.433377,0.193407,-0.068334
152,0.031982,0.963576,-0.2655,0.365646,-0.141311,-0.16083
153,0.041422,0.965461,-0.257217,0.345541,-0.192741,-0.273544
154,0.045262,0.96572,-0.2555929999999999,0.623378,0.728554,0.3995599999999999
155,0.05361,0.968497,-0.243171,-0.305396,0.408441,0.33271
156,0.050817,0.976646,-0.20874,-0.384573,0.407097,0.066467
157,0.030187,0.979366,-0.1998069999999999,-0.286184,0.18079,0.495629
158,0.0103489999999999,0.976287,-0.216212,0.023114,-0.171844,0.536632
159,-0.0076599999999999,0.974412,-0.224621,0.087326,-0.275834,0.5444760000000001
160,-0.0276019999999999,0.975519,-0.218158,0.075057,-0.279947,0.395816
161,-0.0463149999999999,0.979032,-0.198353,-0.031657,0.03435,0.193638
162,-0.064848,0.982424,-0.175015,-0.051516,0.264158,0.158719
163,-0.081422,0.985038,-0.151866,0.1692519999999999,0.102777,0.062724
164,-0.083159,0.988755,-0.1242559999999999,0.321791,-0.097382,0.057911
165,-0.083998,0.991892,-0.095321,0.130065,-0.263559,0.037323
166,-0.09387,0.993331,-0.066886,-0.006197,-0.332656,-0.0054399999999999
167,-0.108693,0.993254,-0.0402939999999999,-0.029323,-0.1528,0.034572
168,-0.1223109999999999,0.992375,-0.014948,0.068722,-0.023793,0.071467
169,-0.132043,0.991215,0.006906,0.142693,-0.066426,-0.006113
170,-0.1373349999999999,0.990167,0.02642,0.213171,-0.128366,-0.037956
171,-0.140301,0.989006,0.046612,0.179714,-0.085411,-0.048016
172,-0.142925,0.98744,0.067257,0.202785,-0.051161,-0.027157
173,-0.145851,0.985674,0.0846399999999999,0.254479,-0.1120319999999999,-0.0563799999999999
174,-0.14881,0.983982,0.098106,0.240058,-0.096226,-0.022788
175,-0.153197,0.981817,0.11205,0.210905,0.007639,0.062251
176,-0.159191,0.979108,0.126476,0.187923,0.201648,0.0427279999999999
177,-0.1676609999999999,0.976254,0.137142,0.219281,0.25066,0.007939
178,-0.1766059999999999,0.973843,0.1429349999999999,0.544571,0.040424,0.0519809999999999
179,-0.183631,0.971851,0.147563,0.626456,0.0247919999999999,0.039617
180,-0.186875,0.970457,0.152579,0.597962,0.004824,-0.054251
181,-0.1849049999999999,0.970062,0.157411,0.386977,0.185135,0.121947
182,-0.177319,0.971489,0.157344,0.2281159999999999,0.346596,-0.0300399999999999
183,-0.1595099999999999,0.976411,0.145491,0.071406,0.285369,0.142244
184,-0.1370289999999999,0.982378,0.127073,0.17925,-0.077394,0.215685
185,-0.1109049999999999,0.98909,0.0969049999999999,-0.0552929999999999,-0.01854,0.100879
186,-0.077515,0.995206,0.059552,-0.150696,0.114565,0.130603
187,-0.03678,0.99895,0.027144,-0.121621,0.332013,0.104478
188,0.003558,0.999989,0.0001409999999999,-0.2381309999999999,0.441204,-0.089619
189,0.04168,0.998904,-0.021092,-0.153863,0.53642,-0.03149
190,0.0760919999999999,0.996218,-0.041844,-0.149624,0.4233229999999999,0.060764
191,0.106646,0.992452,-0.060469,-0.131899,0.2625679999999999,0.0396399999999999
192,0.133394,0.988066,-0.076959,-0.01349,0.005998,-0.085531
193,0.1601,0.982503,-0.095117,-0.024266,-0.09995,0.045343
194,0.185965,0.976372,-0.1100319999999999,-0.0026609999999999,-0.2330239999999999,0.220094
195,0.21036,0.970548,-0.117374,-0.038836,-0.155241,-0.114544
196,0.222423,0.966022,-0.131615,-0.0009109999999999,-0.179431,0.020363
197,0.230811,0.961961,-0.146111,-0.040351,-0.3221449999999999,0.1411369999999999
198,0.236294,0.959101,-0.155827,-0.1168329999999999,-0.534327,0.160038
199,0.234517,0.958654,-0.161175,-0.058751,-0.653401,0.180111
200,0.225746,0.96042,-0.16317,-0.047386,-0.638948,0.094581
201,0.211634,0.963522,-0.163794,-0.040995,-0.632757,0.034369
202,0.193681,0.967341,-0.1635,-0.047853,-0.558588,-0.01956
203,0.175448,0.971391,-0.160029,0.0404029999999999,-0.259142,0.025432
204,0.158309,0.975464,-0.152977,0.084275,-0.157959,0.060814
205,0.141732,0.979003,-0.1464859999999999,0.071341,-0.020079,0.047273
206,0.126615,0.982168,-0.138949,-0.041684,0.080881,-0.007687
207,0.11145,0.986075,-0.123396,-0.125076,0.237817,0.016401
208,0.094176,0.990443,-0.10073,-0.173415,0.227163,0.0518559999999999
209,0.076884,0.993912,-0.07887,-0.083277,-0.127624,-0.030001
210,0.06308,0.996054,-0.062359,-0.065109,-0.309744,-0.025761
211,0.058485,0.99694,-0.051792,-0.058561,-0.690299,0.012195
212,0.0605299999999999,0.99742,-0.038497,-0.117216,-1.057784,-0.073152
213,0.065209,0.997571,-0.0243479999999999,-0.064309,-0.8505370000000001,-0.088109
214,0.074494,0.996915,-0.024551,0.0106959999999999,0.460421,-0.257584
215,0.0877179999999999,0.995665,-0.030793,-0.058314,2.647981,0.105546
216,0.087154,0.996151,-0.0088989999999999,-0.195323,0.6538430000000001,0.3988219999999999
217,0.096909,0.995207,-0.012794,0.088135,0.182054,-0.032601
218,0.095289,0.995291,-0.0175099999999999,0.349643,-0.137763,0.163079
219,0.096095,0.995258,-0.014806,0.379156,-0.269657,0.146246
220,0.095072,0.995335,-0.016165,0.371878,-0.397389,-0.076089
221,0.095164,0.995284,-0.018595,0.143819,0.484605,-0.183996
222,0.09252,0.995535,-0.018481,0.133722,0.588724,-0.065092
223,0.096638,0.9951,-0.020724,0.210552,-0.220625,-0.049955
224,0.104967,0.993904,-0.033592,0.164458,-0.3694989999999999,-0.038811
225,0.112325,0.992388,-0.050406,0.099345,-0.581759,0.100058
226,0.122625,0.989324,-0.078705,-0.1696069999999999,-0.656407,0.132538
227,0.135879,0.983519,-0.119252,-0.224959,-0.677199,0.236943
228,0.153926,0.975415,-0.157687,-0.183559,-0.693738,0.238879
229,0.177119,0.965849,-0.189097,-0.13441,-0.218626,0.027766
230,0.207246,0.95318,-0.220207,-0.0199139999999999,0.79566,-0.055291
231,0.23897,0.938125,-0.250618,-0.0327779999999999,1.247651,0.014702
232,0.258626,0.928689,-0.265791,0.173915,0.743904,-0.148836
233,0.270356,0.924182,-0.269795,0.0601639999999999,0.688992,-0.258281
234,0.284165,0.922847,-0.259996,-0.214981,0.6150100000000001,-0.284011
235,0.293057,0.923273,-0.248352,-0.07594,-0.088526,-0.233413
236,0.288997,0.927738,-0.236173,0.020665,-0.3093909999999999,-0.125567
237,0.269942,0.936993,-0.2217449999999999,0.079957,-0.359905,0.009098
238,0.243869,0.948778,-0.200855,0.1047029999999999,-0.382769,-0.0258149999999999
239,0.216441,0.960663,-0.173993,0.162144,-0.2529909999999999,-0.139926
240,0.189592,0.970552,-0.148588,0.233473,-0.087739,-0.267428
241,0.166338,0.978143,-0.124744,0.170042,-0.144708,-0.220532
242,0.145219,0.984049,-0.102721,0.034164,-0.202631,-0.081513
243,0.127959,0.988134,-0.084912,-0.137374,-0.256841,-0.004581
244,0.115214,0.990934,-0.0690559999999999,-0.234232,-0.161969,-0.016835
245,0.105244,0.99325,-0.0487,-0.291294,-0.353113,0.006754
246,0.101286,0.994606,-0.022179,-0.295637,-0.286461,0.063118
247,0.100901,0.994892,-0.000285,-0.20077,0.30598,-0.17629
248,0.097363,0.995236,0.0042689999999999,-0.095211,1.213535,0.123813
249,0.090956,0.995843,0.003973,0.079149,1.128043,-0.070181
250,0.090496,0.995889,0.002821,0.276508,1.066061,-0.099272
251,0.09619,0.995352,0.003766,0.424867,-0.150351,0.27962
252,0.1062369999999999,0.994324,-0.005157,0.602274,-0.379242,-0.019806
253,0.112704,0.993518,-0.014591,0.1768009999999999,-0.462207,-0.127025
254,0.117226,0.993047,-0.010467,-0.178048,-0.03951,-0.07396
255,0.110538,0.993866,0.0021899999999999,-0.222309,0.268631,0.052177
256,0.104296,0.994367,0.018674,-0.108767,0.181811,0.1543759999999999
257,0.106641,0.993952,0.026047,-0.126737,-0.081813,0.025558
258,0.109172,0.993878,0.016732,0.023045,-0.115292,-0.187493
259,0.109444,0.993989,0.000458,0.061424,-0.226518,-0.125931
260,0.11247,0.993581,-0.011817,0.052904,-0.4256029999999999,-0.144921
261,0.111577,0.993394,-0.026685,0.042247,-0.543702,-0.170214
262,0.106365,0.993477,-0.041016,0.061451,-0.436608,-0.118835
263,0.099958,0.993647,-0.0516379999999999,0.379977,-0.149882,-0.083143
264,0.095404,0.993483,-0.0623019999999999,0.403116,-0.218367,0.023224
265,0.0980559999999999,0.992271,-0.075999,0.220654,-0.4800939999999999,0.250452
266,0.111274,0.988784,-0.099579,0.062798,-0.40094,0.278992
267,0.134593,0.980812,-0.141019,-0.417826,0.307046,-0.363544
268,0.170542,0.968958,-0.17897,-0.4732149999999999,0.795004,0.046615
269,0.206082,0.956598,-0.206019,-0.409054,0.7645930000000001,0.2371469999999999
270,0.232929,0.944679,-0.230913,-0.0271639999999999,0.693688,-0.204955
271,0.261067,0.935885,-0.236553,0.520122,1.245786,-0.2398719999999999
272,0.280586,0.92927,-0.240255,0.442924,0.8712059999999999,-0.330912
273,0.290509,0.92724,-0.2362719999999999,0.127689,0.375998,-0.235255
274,0.296185,0.927563,-0.227801,-0.186703,-0.2327699999999999,-0.1345039999999999
275,0.28875,0.93138,-0.22169,-0.193322,-0.372695,-0.011098
276,0.271711,0.938866,-0.211416,-0.139173,-0.551582,0.1187339999999999
277,0.246829,0.948658,-0.197776,0.057599,-0.837834,-0.006219
278,0.216114,0.95953,-0.180523,0.0888019999999999,-0.915341,-0.075336
279,0.183248,0.96958,-0.1622559999999999,0.110072,-0.902487,-0.174826
280,0.151449,0.977379,-0.147594,0.127558,-0.533578,-0.011784
281,0.129243,0.98235,-0.135186,0.081893,-0.090245,0.05143
282,0.116763,0.985705,-0.121419,0.024488,-0.014453,0.06722
283,0.108024,0.98864,-0.104466,-0.20182,0.450737,-0.118968
284,0.096178,0.991511,-0.08745,-0.307314,0.337881,-0.141295
285,0.084703,0.994053,-0.068368,-0.2144489999999999,-0.02657,-0.1619789999999999
286,0.076931,0.99555,-0.05434,-0.294979,0.195933,-0.299374
287,0.07117,0.996311,-0.047852,-0.258716,0.345242,-0.066589
288,0.073054,0.996133,-0.048707,-0.0528519999999999,0.17382,0.046998
289,0.074033,0.996277,-0.044071,0.11214,-0.009155,0.157962
290,0.071599,0.996419,-0.0448579999999999,0.321361,0.208918,0.110075
291,0.072037,0.99623,-0.048241,0.371063,0.57744,-0.2221449999999999
292,0.073198,0.996311,-0.044686,0.458143,0.909832,0.051842
293,0.08751,0.995458,-0.037342,0.360519,-0.132238,0.160251
294,0.097827,0.994215,-0.044239,0.183057,-0.009031,-0.196453
295,0.0987649999999999,0.994105,-0.044623,0.02976,0.070806,-0.033105
296,0.097724,0.994807,-0.02828,-0.043677,0.078512,0.119528
297,0.096683,0.995264,-0.009567,-0.076663,-0.066828,0.057709
298,0.095545,0.995412,0.00391,-0.00677,-0.212865,-0.057865
299,0.092507,0.995678,0.007566,-0.074776,-0.236721,-0.097547
300,0.090584,0.995852,0.007947,-0.121025,-0.227816,-0.085904
301,0.089762,0.99592,0.008672,-0.106349,-0.267542,-0.088475
302,0.089642,0.995921,0.009704,-0.010799,-0.267681,-0.012756
303,0.087164,0.996175,0.005257,0.144251,-0.25916,-0.0774919999999999
304,0.083767,0.996469,-0.004774,0.234593,-0.18287,-0.1022049999999999
305,0.080496,0.996618,-0.016179,0.400064,-0.19721,-0.07014
306,0.080821,0.996358,-0.026989,0.536245,-0.268865,0.010479
307,0.0866919999999999,0.995379,-0.04117,0.288812,-0.379992,0.181551
308,0.097259,0.993212,-0.063736,0.100694,-0.5299550000000001,0.388764
309,0.111702,0.988584,-0.1010679999999999,-0.190239,-0.455702,0.339136
310,0.1337559999999999,0.978828,-0.154909,-0.412671,0.563683,-0.23181
311,0.174796,0.968,-0.180038,-0.332358,0.931734,-0.112107
312,0.2158769999999999,0.955445,-0.201281,-0.0081739999999999,0.836455,0.076815
313,0.2448219999999999,0.943646,-0.222681,0.313619,0.245059,-0.161261
314,0.263463,0.93781,-0.2260349999999999,0.288234,0.429743,-0.135827
315,0.27507,0.935437,-0.222007,-0.018402,0.5647310000000001,-0.345284
316,0.284721,0.934932,-0.211727,-0.194038,0.086156,-0.171147
317,0.288931,0.936005,-0.201013,-0.190069,-0.109253,-0.19187
318,0.284359,0.939193,-0.1924809999999999,-0.101391,-0.268142,-0.0291839999999999
319,0.269944,0.945545,-0.181844,0.038726,-0.298297,-0.158198
320,0.243721,0.955142,-0.168213,0.2175679999999999,-0.246829,-0.212952
321,0.209021,0.966148,-0.151198,0.329431,-0.187782,-0.2155619999999999
322,0.1754349999999999,0.975604,-0.131953,0.396357,-0.096514,-0.117742
323,0.152576,0.981988,-0.11141,0.322827,-0.129098,-0.141367
324,0.136603,0.986586,-0.089324,0.085656,-0.170058,-0.0863049999999999
325,0.120865,0.990373,-0.067406,-0.2136539999999999,-0.254823,-0.034767
326,0.104417,0.993183,-0.051719,-0.364534,-0.4745979999999999,0.062584
327,0.091853,0.994797,-0.04397,-0.342677,-0.889191,-0.059561
328,0.082311,0.99616,-0.029675,-0.205083,-0.988699,0.08598
329,0.080157,0.99677,-0.003872,-0.1332269999999999,-0.482839,-0.06612
330,0.083359,0.996504,0.004637,0.03447,1.233751,0.03232
331,0.086648,0.996189,-0.009542,0.201713,0.7833220000000001,-0.01504
332,0.09951,0.994827,-0.020197,0.258781,0.512467,-0.012701
333,0.112216,0.993239,-0.029577,0.201245,-0.140853,0.171727
334,0.124553,0.991596,-0.034839,0.446339,-0.311009,-0.024365
335,0.134645,0.989983,-0.042378,0.396361,-0.483162,-0.066021
336,0.1400829999999999,0.98934,-0.039677,0.269356,0.095834,-0.029827
337,0.1370019999999999,0.990242,-0.025362,0.081275,0.495201,0.1177849999999999
338,0.131305,0.991308,-0.0076549999999999,-0.161838,0.4187109999999999,-0.025747
339,0.127003,0.991897,-0.001064,0.011959,0.244873,-0.166767
340,0.122374,0.99248,-0.0002189999999999,0.159639,0.111967,-0.123743
341,0.118105,0.992996,-0.001545,0.176573,-0.093795,-0.098857
342,0.1135369999999999,0.993501,-0.00749,0.076282,-0.2194989999999999,-0.134722
343,0.105466,0.994232,-0.019265,0.0793789999999999,-0.295242,0.060372
344,0.099647,0.994305,-0.037659,0.040917,-0.433453,0.185837
345,0.10144,0.992779,-0.063962,-0.111633,-0.552426,0.119077
346,0.111783,0.989121,-0.09558,-0.1714,-0.621583,0.146789
347,0.12599,0.983282,-0.131437,-0.151533,-0.646047,0.055113
348,0.143897,0.975509,-0.16634,-0.099036,-0.346007,-0.073818
349,0.166277,0.965674,-0.199547,-0.020632,0.2439059999999999,0.052528
350,0.185967,0.954669,-0.232415,0.323509,0.829709,-0.01818
351,0.197954,0.946592,-0.254502,0.401335,0.793658,-0.08342
352,0.2043579999999999,0.943036,-0.262515,-0.0548679999999999,0.820895,-0.386518
353,0.213151,0.942099,-0.258861,-0.072328,0.754251,-0.273335
354,0.219636,0.942004,-0.253734,-0.309724,0.292371,-0.239292
355,0.2238349999999999,0.943737,-0.243417,-0.227054,-0.016582,-0.06214
356,0.221423,0.947866,-0.229161,-0.151859,-0.129888,0.007801
357,0.209073,0.95497,-0.210511,-0.021542,-0.081114,-0.04721
358,0.186988,0.964384,-0.1870609999999999,0.11625,-0.128691,-0.140988
359,0.159186,0.973997,-0.161191,0.181436,-0.176573,-0.124377
360,0.134577,0.981476,-0.13633,0.265844,-0.2965239999999999,0.016472
361,0.116721,0.986332,-0.116264,0.11892,-0.393467,-0.010811
362,0.1020269999999999,0.989846,-0.0989309999999999,0.030693,-0.379357,-0.053276
363,0.088131,0.99287,-0.0802129999999999,-0.117565,-0.305737,-0.090548
364,0.073826,0.995344,-0.061911,-0.215977,-0.051649,-0.102945
365,0.062097,0.996907,-0.048099,-0.212274,-0.004902,-0.055432
366,0.055973,0.997681,-0.0386139999999999,-0.14072,-0.535081,-0.0689
367,0.0537799999999999,0.998147,-0.0283279999999999,-0.187721,-0.697869,0.011741
368,0.056096,0.998334,-0.013199,-0.1310319999999999,-0.5458189999999999,-0.067413
369,0.062004,0.998065,0.0038079999999999,-0.16169,0.106367,0.056494
370,0.065884,0.997821,0.0020039999999999,-0.145931,0.923382,0.197871
371,0.066723,0.997639,-0.0160389999999999,-0.207928,1.427074,0.158145
372,0.058663,0.998111,-0.01806,0.386466,0.911252,-0.19805
373,0.054572,0.99802,-0.031156,0.799707,0.612835,0.043913
374,0.071003,0.997149,-0.025393,0.739849,0.312391,0.112399
375,0.081282,0.99633,-0.026673,0.392015,0.091469,-0.049362
376,0.080751,0.996511,-0.020929,0.149061,0.387858,0.015512
377,0.071556,0.997432,0.00133,-0.0624309999999999,0.1260119999999999,0.112149
378,0.061523,0.997707,0.028074,-0.0098409999999999,0.0146069999999999,0.053637
379,0.046087,0.997586,0.051857,0.026407,-0.139875,-0.0186689999999999
380,0.029269,0.996709,0.075529,0.009412,-0.249792,0.025301
381,0.01335,0.995263,0.096244,-0.0134569999999999,-0.281595,-0.041877
382,-0.003614,0.993886,0.1103079999999999,-0.038821,-0.274098,-0.107913
383,-0.020058,0.992733,0.118612,0.02253,-0.276989,-0.103354
384,-0.03441,0.991928,0.122011,0.1104599999999999,-0.371215,-0.1642009999999999
385,-0.04658,0.991362,0.122564,0.193079,-0.3532389999999999,-0.078436
386,-0.056739,0.991273,0.118951,0.242865,-0.347306,-0.019662
387,-0.0656279999999999,0.991671,0.1107799999999999,0.303207,-0.346651,-0.119188
388,-0.072983,0.992083,0.102153,0.437058,-0.256747,-0.170467
389,-0.07849,0.992522,0.09344,0.613494,-0.265151,-0.064677
390,-0.080996,0.99327,0.08274,0.686373,-0.339965,-0.140494
391,-0.0816559999999999,0.994133,0.070882,0.629645,-0.311729,-0.162328
392,-0.081302,0.994758,0.0619539999999999,0.40105,-0.2010569999999999,-0.1391329999999999
393,-0.079797,0.995511,0.050821,0.355569,-0.2957579999999999,0.058904
394,-0.074319,0.996546,0.03695,0.115838,-0.326166,0.167945
395,-0.05876,0.998058,0.020499,-0.200685,-0.1438559999999999,0.135889
396,-0.031684,0.999494,0.000218,-0.392388,0.319659,0.171138
397,0.006013,0.999816,-0.018021,-0.0010539999999999,0.832902,0.186936
398,0.038971,0.998773,-0.03045,0.207077,1.076026,0.17756
399,0.064764,0.996943,-0.043617,0.231577,1.072729,0.154518
400,0.092328,0.994169,-0.055637,-0.031583,1.421679,0.0729409999999999
401,0.116816,0.990833,-0.067799,-0.009531,1.056363,0.160908
402,0.135695,0.987048,-0.0855279999999999,0.16092,0.699445,-0.099454
403,0.149221,0.983493,-0.102308,0.217692,0.57385,-0.079485
404,0.162546,0.980361,-0.111644,0.203467,0.494676,0.021541
405,0.175505,0.977519,-0.116818,0.227464,0.008153,0.037763
406,0.180356,0.976386,-0.118891,0.1504849999999999,-0.285529,0.115351
407,0.179503,0.976809,-0.116689,0.098772,-0.384341,0.1517079999999999
408,0.173638,0.978214,-0.113756,-0.040719,-0.611408,0.262545
409,0.162731,0.980068,-0.113917,-0.157101,-0.705105,0.306163
410,0.147553,0.982248,-0.115798,-0.214799,-0.723856,0.326995
411,0.128522,0.984639,-0.1181619999999999,-0.336286,-0.6617930000000001,0.369322
412,0.107001,0.986277,-0.125711,-0.315314,-0.549616,0.072565
413,0.085966,0.987342,-0.133268,-0.095075,-0.392188,-0.426882
414,0.06816,0.989474,-0.127627,0.018816,-0.318362,-0.354535
415,0.060813,0.989115,-0.133969,0.350625,0.120199,-0.038363
416,0.068987,0.983899,-0.164859,0.353666,0.267704,0.007389
417,0.098619,0.977724,-0.185267,0.251098,0.026929,0.021784
418,0.132299,0.974324,-0.182167,0.424143,-0.247822,-0.367363
419,0.1448819999999999,0.972468,-0.182508,0.41156,-0.245967,-0.3670219999999999
420,0.146101,0.970938,-0.189548,0.645968,1.135965,0.0582909999999999
421,0.154527,0.971975,-0.177147,0.261443,1.360331,0.772896
422,0.154916,0.9793,-0.1302589999999999,-0.5796899999999999,0.001078,0.3579199999999999
423,0.146264,0.981297,-0.125129,-0.59414,-0.249027,0.195213
424,0.135185,0.976412,-0.16834,-0.182121,-0.435946,-0.054621
425,0.124793,0.97292,-0.194542,-0.123176,-0.4433029999999999,0.343452
426,0.1126,0.97487,-0.192209,0.041819,-0.180696,0.373376
427,0.085768,0.981377,-0.171862,0.194689,0.647483,0.326571
428,0.056523,0.987378,-0.14793,0.057704,0.858615,0.143444
429,0.038523,0.989297,-0.140713,0.185964,0.018241,0.024335
430,0.032858,0.991404,-0.126619,0.4097989999999999,-0.232477,-0.009673
431,0.029192,0.994932,-0.096179,0.203428,-0.257521,0.188251
432,0.016286,0.997786,-0.064419,-0.062475,-0.305327,0.211453
433,-0.002362,0.999447,-0.033042,-0.32677,-0.231396,0.1149819999999999
434,-0.021166,0.999769,0.002405,-0.409635,-0.13043,0.12055
435,-0.03787,0.998716,0.033543,-0.136522,-0.0323,0.168895
436,-0.05094,0.997089,0.056658,0.114554,-0.062732,0.055585
437,-0.063911,0.994744,0.079944,0.092765,-0.170342,-0.02106
438,-0.077956,0.99185,0.100738,0.1112359999999999,-0.1559579999999999,0.035462
439,-0.093001,0.988589,0.118461,0.136671,-0.13132,0.002358
440,-0.1067829999999999,0.985068,0.135017,0.100862,0.022576,-0.019569
441,-0.117253,0.982025,0.147884,0.086125,0.0560299999999999,0.009801
442,-0.125004,0.979896,0.15546,0.250203,0.109169,-0.0456279999999999
443,-0.128173,0.97938,0.156132,0.457992,0.15888,-0.174839
444,-0.125066,0.980638,0.1506569999999999,0.572179,0.013182,-0.0961679999999999
445,-0.115491,0.983118,0.14189,0.829679,-0.107706,0.201967
446,-0.101756,0.986546,0.127925,0.8293870000000001,0.07069,0.152852
447,-0.084591,0.990902,0.104643,0.102551,0.2266119999999999,0.29468
448,-0.065465,0.995309,0.071176,-0.399714,0.421729,0.232535
449,-0.039393,0.999021,0.019928,-0.497534,0.480807,0.21936
450,-0.002041,0.999547,-0.029899,-0.345844,0.54095,0.179069
451,0.033842,0.997514,-0.061751,-0.0907419999999999,0.563368,0.055938
452,0.06455,0.994416,-0.083448,0.019648,0.364715,0.088377
453,0.092047,0.989753,-0.109133,0.2559599999999999,0.006722,0.13225
454,0.118772,0.983645,-0.13539,0.318347,0.001829,0.1726069999999999
455,0.141016,0.976797,-0.16117,0.155081,0.0137729999999999,0.048179
456,0.156018,0.970386,-0.184401,0.0570409999999999,-0.005298,0.233046
457,0.174741,0.963541,-0.202606,-0.147596,-0.062952,-0.093552
458,0.193408,0.956547,-0.218186,-0.177981,-0.065007,0.1332549999999999
459,0.204985,0.949409,-0.237902,-0.13011,-0.064461,0.263156
460,0.21511,0.94246,-0.255911,-0.070258,-0.0723429999999999,0.294653
461,0.220076,0.936942,-0.2714789999999999,-0.057951,-0.068869,0.355296
462,0.220635,0.933981,-0.281059,-0.1009149999999999,-0.171575,0.356392
463,0.218665,0.933067,-0.285596,-0.216711,-0.2223429999999999,0.298246
464,0.2150679999999999,0.934186,-0.284669,-0.2498739999999999,-0.213941,0.270661
465,0.207139,0.937897,-0.278275,-0.208726,-0.203751,0.188172
466,0.1935,0.943852,-0.267759,-0.1469599999999999,-0.182225,0.14552
467,0.175886,0.950381,-0.256582,-0.081174,-0.090121,0.096349
468,0.15672,0.95622,-0.247135,0.012653,0.096682,-0.0151639999999999
469,0.137847,0.962354,-0.234234,0.1247109999999999,0.18677,-0.30199
470,0.1215,0.967617,-0.221241,0.186361,0.012088,-0.034481
471,0.111314,0.966346,-0.231901,0.255858,0.112695,0.1034369999999999
472,0.113402,0.960521,-0.254034,0.239992,0.218709,-0.042154
473,0.126592,0.959374,-0.25213,0.218654,-0.043312,0.120019
474,0.14227,0.960671,-0.2384599999999999,0.169284,-0.199242,-0.0674179999999999
475,0.151775,0.961676,-0.228334,0.427647,0.501352,0.077363
476,0.162402,0.962517,-0.217207,-0.073322,0.327659,0.234388
477,0.165842,0.96646,-0.196072,-0.193339,0.315812,0.185238
478,0.158465,0.970901,-0.179536,-0.224933,0.321061,0.080644
479,0.1439619999999999,0.971318,-0.1892309999999999,-0.035091,-0.053883,0.350272
480,0.1293089999999999,0.970849,-0.2018,0.050317,-0.179758,0.431537
481,0.113071,0.97214,-0.20531,0.018017,-0.20888,0.497119
482,0.097786,0.976075,-0.194186,-0.273903,0.012206,0.227801
483,0.086135,0.981007,-0.173778,-0.430709,0.071987,0.206554
484,0.076166,0.985179,-0.153668,-0.39895,0.1112109999999999,0.2635619999999999
485,0.080539,0.987418,-0.136062,0.171247,-0.029669,0.202423
486,0.093841,0.989288,-0.111784,0.167329,-0.131744,0.1712779999999999
487,0.099871,0.990976,-0.089361,0.140974,-0.1521539999999999,0.081808
488,0.096051,0.992324,-0.077849,-0.096997,-0.228758,0.091399
489,0.089209,0.99356,-0.069808,-0.04972,-0.22589,0.137893
490,0.086137,0.99443,-0.0606769999999999,-0.003785,-0.157775,0.144951
491,0.089181,0.994443,-0.055873,-0.07409,-0.150251,0.0317029999999999
492,0.096723,0.993527,-0.059502,-0.1229529999999999,-0.2052429999999999,-0.070274
493,0.104522,0.992106,-0.069227,-0.093414,-0.223735,-0.116503
494,0.109804,0.990852,-0.078402,-0.038592,-0.381065,0.013796
495,0.1183579999999999,0.989352,-0.084649,0.023426,-0.5823699999999999,0.138208
496,0.128511,0.987293,-0.093433,0.037383,-0.6710699999999999,0.010212
497,0.134095,0.985455,-0.104353,0.092788,-0.444241,-0.069247
498,0.13201,0.985042,-0.110717,0.196191,-0.054195,-7.7e-05
499,0.126478,0.985749,-0.110875,0.452089,-0.019334,0.100484
500,0.126064,0.98572,-0.1116119999999999,0.3839909999999999,-0.098512,0.117502
501,0.128175,0.984493,-0.1197369999999999,0.207747,-0.128292,0.121706
502,0.1331119999999999,0.98191,-0.1346359999999999,-0.017038,-0.303245,0.348518
503,0.14406,0.976931,-0.157625,-0.093202,-0.4046349999999999,0.4700029999999999
504,0.164696,0.966761,-0.195553,-0.242089,-0.454646,0.447506
505,0.194867,0.948314,-0.2504429999999999,-0.3960849999999999,0.055425,-0.481109
506,0.236494,0.929732,-0.282248,-0.154859,0.92119,0.217719
507,0.276802,0.910962,-0.305815,-0.0421519999999999,1.193316,-0.17705
508,0.301479,0.898597,-0.318792,0.198506,1.025017,-0.119838
509,0.319969,0.891382,-0.3210179999999999,0.159661,0.629797,-0.165265
510,0.327524,0.888698,-0.320841,-0.0579779999999999,-0.019572,-0.125753
511,0.331161,0.888616,-0.317315,0.040268,-0.04717,-0.009239
512,0.330638,0.891416,-0.309919,-0.096278,-0.00366,-0.059633
513,0.3254579999999999,0.897314,-0.298158,-0.166644,0.187799,-0.157531
514,0.312908,0.906892,-0.2821869999999999,-0.144268,0.156844,-0.192971
515,0.290624,0.918356,-0.268615,-0.061971,0.069544,-0.268067
516,0.263803,0.932042,-0.248392,0.166007,-0.094258,-0.002828
517,0.234041,0.945286,-0.227271,0.277587,0.019649,0.0594549999999999
518,0.207722,0.9566,-0.204354,-0.039082,-0.231091,0.181329
519,0.19107,0.964567,-0.181921,-0.13974,-0.449034,0.152197
520,0.1783799999999999,0.970247,-0.163687,-0.186727,-0.937593,0.133185
521,0.164859,0.975519,-0.145518,-0.13074,-1.219065,0.0112719999999999
522,0.147083,0.980991,-0.126553,-0.207248,-1.2150299999999998,0.062313
523,0.138626,0.984559,-0.1068559999999999,-0.409683,-0.900209,-0.043748
524,0.150817,0.982735,-0.107142,-0.184035,0.8833850000000001,-0.069524
525,0.172723,0.980491,-0.093789,-0.070688,2.139871,0.338616
526,0.186412,0.978225,-0.091206,0.222111,0.5952310000000001,0.160527
527,0.186853,0.974958,-0.1205619999999999,-0.095224,0.497591,-0.104718
528,0.19383,0.972774,-0.127019,0.208209,0.141118,0.1881
529,0.199043,0.970928,-0.132944,0.298073,-0.361431,0.086542
530,0.20115,0.969348,-0.141058,0.329398,0.014783,-0.24383
531,0.19707,0.971892,-0.128779,0.12692,0.507692,0.044139
532,0.192852,0.975522,-0.10564,0.030873,0.121097,0.359058
533,0.19399,0.97602,-0.098729,-0.030813,-0.1607579999999999,0.244664
534,0.192277,0.975136,-0.110153,0.029906,-0.054528,-0.108048
535,0.187166,0.974307,-0.125257,0.119902,0.085477,-0.085268
536,0.180998,0.97357,-0.139272,0.128145,-0.1884289999999999,0.072972
537,0.176386,0.971274,-0.159719,0.0518389999999999,-0.3542389999999999,0.143621
538,0.179927,0.966834,-0.181256,0.007801,-0.400076,0.073224
539,0.189754,0.96072,-0.202499,-0.0034289999999999,-0.448818,0.2475119999999999
540,0.203523,0.950993,-0.23278,0.005614,-0.48267,0.346061
541,0.2231989999999999,0.937282,-0.267731,-0.196039,-0.154277,-0.044509
542,0.250801,0.921938,-0.29517,-0.208153,0.4440439999999999,0.13065
543,0.273162,0.905842,-0.323771,-0.04193,0.643672,0.2555949999999999
544,0.284549,0.895847,-0.3413,0.191724,1.093197,-0.308388
545,0.300156,0.889446,-0.344657,-0.00647,1.2515459999999998,-0.144814
546,0.310218,0.8855940000000001,-0.3456639999999999,-0.168922,0.409786,-0.220818
547,0.3170389999999999,0.8855799999999999,-0.339457,-0.090339,-0.000966,-0.049886
548,0.316251,0.888605,-0.332208,-0.14401,-0.117548,0.013559
549,0.3110239999999999,0.89494,-0.3199099999999999,-0.141041,-0.197537,0.081568
550,0.300348,0.904456,-0.302898,-0.043177,-0.220892,0.088497
551,0.282458,0.915552,-0.2863159999999999,-0.0065489999999999,-0.3010199999999999,0.053238
552,0.256954,0.928293,-0.268779,-0.0299029999999999,-0.4177949999999999,0.0359
553,0.226827,0.941967,-0.247475,-0.028783,-0.4041099999999999,0.0745919999999999
554,0.198741,0.953863,-0.22504,0.004964,-0.364614,0.0378
555,0.176448,0.963157,-0.202956,0.035924,-0.241294,0.078765
556,0.156782,0.970764,-0.181749,0.008104,-0.188736,0.124468
557,0.138977,0.976191,-0.1665319999999999,-0.014633,-0.187556,0.09683
558,0.125932,0.979794,-0.155374,-0.17473,-0.090435,0.073663
559,0.119075,0.982718,-0.14171,-0.337215,-0.354575,-0.056533
560,0.121425,0.9853,-0.12015,-0.2971,-0.322519,0.1947809999999999
561,0.13147,0.986355,-0.099078,-0.2329409999999999,-0.0558279999999999,0.10924
562,0.135962,0.985677,-0.0997509999999999,-0.115377,0.6702060000000001,-0.03326
563,0.12573,0.986492,-0.1049819999999999,-0.096936,1.351734,0.004885
564,0.1154299999999999,0.987711,-0.1053559999999999,0.382189,2.233283,-0.04888
565,0.124942,0.986111,-0.109415,0.418606,-0.290127,0.457483
566,0.146329,0.980623,-0.130243,0.5928829999999999,-0.3753829999999999,-0.010702
567,0.155425,0.978168,-0.137934,-0.003432,-0.588062,-0.1820119999999999
568,0.156755,0.979107,-0.129516,0.089644,-0.038616,-0.021881
569,0.1491309999999999,0.982546,-0.111174,0.118264,0.408506,0.184142
570,0.146197,0.985217,-0.089275,-0.106951,0.226132,0.256526
571,0.14952,0.98567,-0.078073,-0.182052,-0.049573,-0.049689
572,0.1532599999999999,0.985745,-0.069381,-0.105271,-0.192334,-0.022202
573,0.1551529999999999,0.98597,-0.061545,-0.086946,-0.341942,0.1821809999999999
574,0.156788,0.985918,-0.0581309999999999,-0.144444,-0.451067,0.020686
575,0.157094,0.985835,-0.0587179999999999,-0.185704,-0.4759319999999999,-0.0373519999999999
576,0.152666,0.986366,-0.061425,-0.147051,-0.222236,0.037667
577,0.145135,0.986978,-0.069341,0.015815,0.197669,-0.014308
578,0.13694,0.987691,-0.075573,0.43441,0.205531,0.113079
579,0.135317,0.987386,-0.082194,0.511259,-0.2205099999999999,0.130366
580,0.137933,0.985686,-0.096926,0.452506,-0.4178,0.145861
581,0.144263,0.982573,-0.117203,0.136117,-0.448241,0.236436
582,0.157501,0.975767,-0.151886,-0.10611,-0.34004,0.260407
583,0.178817,0.962186,-0.205477,-0.295074,-0.090436,0.154406
584,0.207195,0.944256,-0.255831,-0.0872759999999999,0.411777,0.020876
585,0.23828,0.924067,-0.2988659999999999,0.02617,0.718847,0.08741
586,0.256561,0.90589,-0.336955,0.102082,0.937936,-0.387792
587,0.268292,0.896982,-0.351342,-0.063947,1.050085,-0.534446
588,0.275665,0.89261,-0.356729,-0.310501,0.5070640000000001,-0.058066
589,0.281736,0.891641,-0.3544,-0.173994,-0.020654,-0.096451
590,0.283497,0.893766,-0.3475789999999999,-0.1478,-0.084165,-0.063645
591,0.280115,0.899727,-0.334702,-0.117197,-0.540612,-0.033157
592,0.273884,0.909841,-0.311729,0.045787,-0.514318,0.0932539999999999
593,0.259885,0.921989,-0.287044,0.050067,-0.486778,-0.028645
594,0.233567,0.9349,-0.2672199999999999,0.067215,-0.454081,-0.08686
595,0.203395,0.948148,-0.244221,0.02683,-0.355863,0.099079
596,0.1748809999999999,0.959134,-0.222434,-0.061737,-0.275021,0.14762
597,0.153893,0.967112,-0.202506,-0.130089,-0.302577,0.171317
598,0.141956,0.972856,-0.182752,-0.200839,-0.2106179999999999,0.123883
599,0.136571,0.976385,-0.1673849999999999,-0.33048,0.097727,0.097485
600,0.137497,0.978447,-0.154057,-0.340973,0.16375,0.061665
601,0.141018,0.980765,-0.134948,-0.139248,-0.060919,0.123275
602,0.144111,0.982559,-0.117506,-0.100883,-0.107208,0.062238
603,0.14628,0.984217,-0.099575,0.036002,0.042516,-0.084171
604,0.145952,0.985397,-0.0876789999999999,-0.036516,0.210587,0.095675
605,0.144469,0.98534,-0.090723,-0.065139,0.208065,0.209803
606,0.1387789999999999,0.985242,-0.100174,0.061233,0.993746,0.073075
607,0.132774,0.986775,-0.092972,0.166863,0.481487,-0.009963
608,0.129684,0.987892,-0.085136,0.292969,0.497627,-0.176262
609,0.13104,0.988183,-0.079494,0.118426,-0.001504,0.2202869999999999
610,0.137547,0.987598,-0.075681,0.209774,-0.2200349999999999,0.14578
611,0.139079,0.987384,-0.075674,0.031347,-0.427417,0.140631
612,0.141571,0.987036,-0.0755909999999999,-0.021896,-0.4397029999999999,0.026839
613,0.1427,0.987001,-0.073913,-0.16687,-0.054613,0.068191
614,0.142983,0.987449,-0.0670559999999999,-0.2120139999999999,0.139397,-0.031332
615,0.143372,0.987793,-0.060876,-0.142991,0.076401,0.0039299999999999
616,0.145314,0.987715,-0.057447,-0.065389,0.010668,0.017424
617,0.147239,0.987448,-0.057138,0.050301,-0.115744,-0.061896
618,0.144366,0.987709,-0.059881,0.165066,-0.264824,-0.023554
619,0.138817,0.988182,-0.064985,0.230796,-0.274895,-0.079684
620,0.133191,0.988293,-0.074386,0.2988,-0.231564,-0.115266
621,0.130846,0.987667,-0.085958,0.387251,-0.273953,-0.010142
622,0.133507,0.986219,-0.0976929999999999,0.239509,-0.3931409999999999,0.144141
623,0.142626,0.982801,-0.1172859999999999,0.1040789999999999,-0.4448069999999999,0.261604
624,0.161001,0.974924,-0.15362,-0.100927,-0.371286,0.346262
625,0.188265,0.960365,-0.2055519999999999,-0.360933,-0.122047,-0.127548
626,0.222525,0.944971,-0.239812,-0.29949,0.420996,-0.012584
627,0.251808,0.930989,-0.264289,-0.207405,0.597499,0.207725
628,0.262843,0.919378,-0.292667,-0.133967,0.336466,0.073932
629,0.269383,0.911106,-0.311954,0.224865,0.283199,0.167774
630,0.272729,0.907081,-0.320655,0.100776,0.153069,0.0564179999999999
631,0.281188,0.908218,-0.309951,-0.30426,0.596008,-0.229645
632,0.29151,0.91177,-0.289302,-0.207998,0.751454,-0.263615
633,0.291248,0.91659,-0.273926,-0.193226,0.372992,-0.350555
634,0.276037,0.924997,-0.2611159999999999,0.133128,-0.0627679999999999,-0.167122
635,0.24869,0.936661,-0.246609,0.530317,-0.0608679999999999,0.044735
636,0.217448,0.949971,-0.224204,0.609883,0.06895,0.030631
637,0.193304,0.961807,-0.193796,0.189432,0.04953,-0.06249
638,0.1783,0.970033,-0.165051,0.006361,-0.156297,-0.111728
639,0.161676,0.976224,-0.144377,-0.272958,-0.783978,0.235136
640,0.141628,0.981092,-0.131894,-0.306682,-0.939054,0.339673
641,0.121702,0.984779,-0.124081,-0.155454,-1.056526,0.242657
642,0.101908,0.988334,-0.113172,-0.192133,-1.218635,-0.082552
643,0.095092,0.991694,-0.086589,-0.284255,-1.091929,0.033259
644,0.107769,0.991901,-0.067197,0.025867,0.418637,-0.23479
645,0.135258,0.987149,-0.085085,-0.001621,0.423389,-0.216902
646,0.14204,0.987298,-0.071161,-0.1844599999999999,0.5620029999999999,0.517663
647,0.138802,0.986154,-0.090719,0.031197,-0.184244,0.182074
648,0.120451,0.986791,-0.1083089999999999,0.553408,1.290446,-0.150755
649,0.118647,0.98801,-0.098772,0.64063,0.164471,0.303743
650,0.133597,0.98617,-0.098067,0.671366,-0.403833,0.0912159999999999
651,0.137353,0.984308,-0.110764,0.413505,-0.372293,-0.298401
652,0.133349,0.98363,-0.121188,0.1317569999999999,0.2760289999999999,-0.16139
653,0.12561,0.984106,-0.125517,0.070176,0.263346,0.106764
654,0.121637,0.983926,-0.130728,-0.094598,-0.1708619999999999,0.2285219999999999
655,0.119674,0.982231,-0.14456,-0.148162,-0.4399939999999999,0.320112
656,0.123964,0.977757,-0.169177,-0.249803,-0.5477489999999999,0.319904
657,0.134368,0.969016,-0.207242,-0.389769,-0.578224,0.291501
658,0.1478819999999999,0.957562,-0.247392,-0.385065,-0.509885,0.099733
659,0.169856,0.944899,-0.279844,0.1102799999999999,0.132845,0.289854
660,0.205401,0.928951,-0.30799,0.129011,0.334812,0.313316
661,0.241004,0.910397,-0.336293,0.1593099999999999,0.575993,0.26035
662,0.259216,0.8970520000000001,-0.357913,0.505005,1.337612,-0.396298
663,0.267897,0.892769,-0.362205,0.079973,1.375541,-0.4442069999999999
664,0.275181,0.8897450000000001,-0.364181,-0.088444,0.82342,-0.2075199999999999
665,0.279701,0.887258,-0.366796,-0.070793,0.188029,-0.166697
666,0.280359,0.888933,-0.362209,0.030279,-0.070924,-0.027851
667,0.26942,0.896473,-0.351776,-0.015361,-0.2073559999999999,0.141144
668,0.250959,0.907628,-0.336495,0.06708,-0.299138,0.129403
669,0.226683,0.919902,-0.319988,0.039781,-0.2999679999999999,0.018185
670,0.195947,0.93286,-0.302281,-0.024484,-0.281188,0.053914
671,0.163896,0.944602,-0.284365,-0.011766,-0.25521,0.11423
672,0.136768,0.95383,-0.267397,-0.027042,-0.257037,0.122637
673,0.114873,0.961499,-0.249644,-0.03066,-0.299801,0.152049
674,0.091561,0.968441,-0.231813,-0.036462,-0.262935,0.119066
675,0.063814,0.974467,-0.215268,-0.064974,-0.075556,0.077145
676,0.040825,0.978494,-0.202189,-0.1122359999999999,-0.035898,0.125712
677,0.028895,0.980869,-0.1925079999999999,-0.124995,-0.155887,0.0598789999999999
678,0.024923,0.982437,-0.184921,-0.086584,-0.276351,-0.010422
679,0.026547,0.983173,-0.180733,0.113376,-0.372776,-0.085289
680,0.03195,0.982596,-0.1829859999999999,0.1562069999999999,-0.3304809999999999,-0.108884
681,0.046721,0.981236,-0.1870619999999999,-0.008513,0.036785,-0.191753
682,0.067273,0.982118,-0.175832,-0.0125239999999999,0.381941,0.296636
683,0.078217,0.982517,-0.168943,0.106216,0.566922,0.4521
684,0.075398,0.981808,-0.174261,-0.025136,0.741382,0.140035
685,0.058194,0.980419,-0.188127,-0.171551,0.474675,0.437303
686,0.037239,0.981657,-0.186978,0.033425,0.662248,0.158841
687,0.026867,0.98523,-0.1691089999999999,0.463657,0.674148,0.505305
688,0.0267779999999999,0.988972,-0.1456569999999999,0.367326,0.323955,0.330227
689,0.024115,0.990196,-0.137579,-0.100974,0.4682229999999999,0.2407889999999999
690,0.012022,0.992745,-0.119627,-0.309233,0.311729,0.284621
691,-0.001233,0.995684,-0.092789,-0.06972,0.284192,0.250535
692,-0.0141229999999999,0.997112,-0.074611,-0.001807,0.127217,0.164699
693,-0.024893,0.997568,-0.0651009999999999,0.020453,-0.146264,0.092902
694,-0.036371,0.997876,-0.054026,0.0531409999999999,-0.365003,0.065592
695,-0.050642,0.997841,-0.041803,0.12747,-0.440529,0.042536
696,-0.066724,0.99729,-0.030961,0.254285,-0.4226439999999999,0.061036
697,-0.08154,0.996443,-0.021241,0.388639,-0.412947,0.008454
698,-0.09398,0.995512,-0.011101,0.4424899999999999,-0.405546,-0.0524059999999999
699,-0.10437,0.994538,-0.000537,0.3983,-0.322846,-0.037838
700,-0.114468,0.993365,0.01111,0.280911,-0.183016,0.037306
701,-0.126493,0.991624,0.0261019999999999,0.093183,-0.1254279999999999,0.067618
702,-0.141017,0.989059,0.04331,0.0823769999999999,-0.077972,0.03895
703,-0.156309,0.985997,0.058112,0.245329,0.083171,0.056329
704,-0.169261,0.983066,0.07023,0.417827,0.155972,0.0600039999999999
705,-0.17842,0.98081,0.078607,0.487884,0.217433,0.029135
706,-0.183056,0.979515,0.083908,0.558682,0.283195,0.035156
707,-0.182367,0.979956,0.080176,0.584299,0.134302,0.296274
708,-0.175736,0.982286,0.06504,0.5372170000000001,0.087263,0.345253
709,-0.159053,0.986633,0.0354639999999999,0.411662,0.132538,0.339124
710,-0.133115,0.991065,-0.008424,0.2048309999999999,0.045327,0.174928
711,-0.1038109999999999,0.992531,-0.064079,0.037908,0.386726,0.150947
712,-0.076565,0.99148,-0.10538,0.029263,0.531942,0.284686
713,-0.0538909999999999,0.989921,-0.130963,0.409467,0.670296,0.282284
714,-0.028162,0.986868,-0.159052,0.413278,0.467935,0.37118
715,-0.002349,0.982497,-0.186264,0.364165,0.276994,0.381469
716,0.018879,0.97741,-0.210507,0.142299,0.049644,0.281049
717,0.03207,0.972473,-0.2307969999999999,0.17873,-0.009049,0.210152
718,0.039693,0.968024,-0.247696,0.198512,-0.0293949999999999,0.2763219999999999
719,0.043985,0.963879,-0.262684,0.22721,-0.133236,0.3800699999999999
720,0.049288,0.959942,-0.275828,0.260892,-0.085156,0.339045
721,0.053898,0.956671,-0.28614,0.272045,0.057184,0.351982
722,0.054969,0.954697,-0.292458,0.262703,0.086379,0.388405
723,0.054785,0.954548,-0.29298,0.180414,0.028088,0.4302479999999999
724,0.053771,0.955333,-0.290599,-0.053069,-0.093684,0.496562
725,0.052244,0.956452,-0.287177,-0.120924,-0.091385,0.4967569999999999
726,0.049579,0.958422,-0.281013,-0.269611,-0.123385,0.42231
727,0.043568,0.961187,-0.272434,-0.284383,-0.3002829999999999,0.313648
728,0.032654,0.963981,-0.2639579999999999,-0.203689,-0.303291,0.123547
729,0.017349,0.966385,-0.2565119999999999,-0.084381,-0.276947,-0.0547519999999999
730,0.0004269999999999,0.96987,-0.243623,0.193955,-0.153265,-0.1366099999999999
731,-0.013608,0.97243,-0.2327949999999999,0.320981,0.178342,-0.275933
732,-0.022056,0.973272,-0.228593,0.377479,0.331217,-0.2496789999999999
733,-0.01927,0.971096,-0.2379099999999999,0.305601,0.419377,-0.218908
734,-0.007493,0.967616,-0.252313,0.247773,0.137151,-0.276038
735,0.006111,0.967768,-0.251769,0.293083,-0.130213,-0.294892
736,0.01444,0.970153,-0.242059,0.557413,-0.622467,-0.195365
737,0.019386,0.968859,-0.2468489999999999,0.4636,0.250821,0.3573989999999999
738,0.035701,0.967208,-0.251463,0.265812,1.326646,0.702284
739,0.02755,0.974487,-0.222744,-0.44735,0.916306,0.252208
740,-0.000269,0.973957,-0.22673,-0.329885,0.142971,0.262252
741,-0.012642,0.969585,-0.244429,0.129066,-0.16212,0.481871
742,-0.011724,0.969941,-0.243059,0.3239039999999999,-0.424058,0.558504
743,-0.013546,0.972526,-0.2324,0.303143,-0.459251,0.478875
744,-0.021825,0.978478,-0.205192,0.04572,-0.014352,0.212226
745,-0.038074,0.98501,-0.168243,-0.030499,0.570242,0.252136
746,-0.056351,0.98836,-0.141309,-0.02179,0.308621,0.155896
747,-0.0618909999999999,0.990673,-0.121393,0.131472,-0.057415,-0.015844
748,-0.060884,0.993822,-0.092787,0.067079,-0.253085,0.054747
749,-0.069925,0.995517,-0.063677,0.022088,-0.400364,0.065539
750,-0.087805,0.995467,-0.036531,0.050512,-0.413329,0.035189
751,-0.104822,0.994455,-0.008491,0.0796149999999999,-0.141259,0.152885
752,-0.114342,0.993324,0.015269,0.169289,-0.066185,0.084432
753,-0.118715,0.992311,0.035009,0.179918,-0.032899,-0.093374
754,-0.123188,0.990674,0.058216,0.171864,-0.070325,-0.108402
755,-0.1297569999999999,0.988164,0.081819,0.267422,-0.092305,-0.081941
756,-0.135515,0.985786,0.099297,0.335039,-0.1219099999999999,-0.1027
757,-0.140533,0.983829,0.1110369999999999,0.370925,-0.149021,-0.1280359999999999
758,-0.1466579999999999,0.98157,0.122516,0.13349,0.118039,-0.027744
759,-0.153007,0.979255,0.13284,0.149238,0.166603,0.0026739999999999
760,-0.156894,0.977804,0.1388579999999999,0.1968109999999999,0.145533,0.03085
761,-0.150941,0.979174,0.13577,0.5627,-0.0020469999999999,-0.003141
762,-0.145966,0.979973,0.135441,0.5751350000000001,-0.042794,0.052501
763,-0.136863,0.982237,0.128361,0.5687180000000001,0.024522,0.1027329999999999
764,-0.119915,0.986357,0.112776,-0.099461,0.318239,0.088594
765,-0.094398,0.992005,0.083747,-0.137795,0.350311,0.1511009999999999
766,-0.062044,0.99703,0.0456,-0.146971,0.226007,0.285317
767,-0.0273959999999999,0.999609,0.005441,-0.078027,0.189631,0.151862
768,0.007014,0.99946,-0.032073,-0.0037329999999999,0.310415,-0.001603
769,0.037431,0.997423,-0.061188,-0.008241,0.3352179999999999,0.015106
770,0.067345,0.994364,-0.0818769999999999,0.019065,0.119269,0.112303
771,0.097442,0.989829,-0.10364,-0.035492,0.097695,0.078325
772,0.1259539999999999,0.984165,-0.124715,-0.1079789999999999,0.187741,0.038915
773,0.152158,0.978034,-0.1424609999999999,-0.0883,0.1234369999999999,0.165044
774,0.175876,0.970741,-0.163486,-0.08089,0.017403,0.397449
775,0.204748,0.963137,-0.174483,-0.179846,-0.094896,-0.1693579999999999
776,0.225928,0.956217,-0.186021,-0.169897,-0.207407,0.015489
777,0.236471,0.950969,-0.19934,-0.115103,-0.258785,0.1031789999999999
778,0.241244,0.947511,-0.209815,-0.100222,-0.279756,0.133536
779,0.243851,0.945745,-0.2147099999999999,-0.093384,-0.298025,0.166554
780,0.247913,0.94517,-0.212584,0.03526,-0.360361,0.0791309999999999
781,0.249298,0.94593,-0.2075219999999999,0.0974889999999999,-0.435981,0.074771
782,0.242002,0.948493,-0.2044359999999999,0.0175199999999999,-0.476081,0.086425
783,0.2272469999999999,0.952383,-0.203279,0.024218,-0.466528,0.10042
784,0.208115,0.957019,-0.20199,0.011077,-0.442996,0.01771
785,0.18877,0.961759,-0.198452,0.02351,-0.371671,-0.024784
786,0.17123,0.966181,-0.192801,0.0083349999999999,-0.269709,0.024268
787,0.156646,0.970156,-0.185086,-0.11209,-0.170199,0.070172
788,0.142902,0.973825,-0.176755,-0.123295,0.033469,0.032117
789,0.123014,0.978972,-0.162725,-0.12779,0.225237,-0.026026
790,0.098346,0.985216,-0.140268,-0.028308,0.1978589999999999,-0.025518
791,0.077477,0.990403,-0.114448,0.051125,0.029129,-0.084145
792,0.063856,0.993638,-0.092757,0.068438,-0.109376,-0.123094
793,0.057319,0.995152,-0.079913,0.001122,-0.302052,-0.075162
794,0.0608649999999999,0.995673,-0.070204,-0.044584,-0.4692909999999999,0.025817
795,0.0689169999999999,0.995865,-0.059186,-0.076318,-0.50003,0.034375
796,0.075415,0.995876,-0.050418,-0.0259459999999999,-0.057735,0.01015
797,0.0773659999999999,0.996149,-0.041241,0.0143699999999999,0.920721,-0.042042
798,0.077962,0.996366,-0.034298,-0.0335279999999999,1.325457,0.177181
799,0.086012,0.995924,-0.0271529999999999,0.118547,0.908633,0.135598
800,0.095003,0.995142,-0.025799,-0.103563,0.153295,0.280072
801,0.10307,0.994339,-0.025812,0.088581,-0.3830719999999999,0.176065
802,0.1041849999999999,0.993998,-0.033343,0.229388,-0.727122,0.024386
803,0.104485,0.993957,-0.033635,0.100426,-0.50798,-0.22108
804,0.103973,0.99425,-0.025613,0.2060699999999999,0.316252,-0.2319699999999999
805,0.106099,0.99425,-0.0144219999999999,0.176463,0.61305,0.010317
806,0.111695,0.993695,-0.009666,0.0537559999999999,-0.0052,-0.027947
807,0.116588,0.993077,-0.01427,0.278142,-0.192021,-0.164685
808,0.113062,0.993371,-0.020749,0.317358,-0.28196,-0.1121549999999999
809,0.111122,0.993354,-0.0299709999999999,0.199379,-0.302131,0.0686679999999999
810,0.113809,0.992413,-0.046517,0.1477119999999999,-0.34547,0.1088339999999999
811,0.120577,0.99011,-0.0717049999999999,-0.045031,-0.5729810000000001,0.2898139999999999
812,0.1350579999999999,0.985185,-0.105682,-0.124606,-0.648698,0.381027
813,0.15945,0.975266,-0.153076,-0.3231159999999999,-0.5422520000000001,0.014297
814,0.19204,0.962863,-0.189776,-0.301781,0.4486819999999999,0.154574
815,0.224712,0.948864,-0.221725,-0.127528,0.742344,0.261886
816,0.2419079999999999,0.936722,-0.2530449999999999,0.229681,0.483627,0.084923
817,0.254537,0.927611,-0.273404,0.134669,0.7355970000000001,-0.3725159999999999
818,0.267536,0.922731,-0.277474,0.043102,0.941481,-0.435341
819,0.280205,0.920687,-0.2716989999999999,-0.001137,0.664579,-0.307159
820,0.282923,0.921554,-0.26588,-0.43545,-0.246826,-0.042485
821,0.2797469999999999,0.926018,-0.25344,-0.359016,-0.3835679999999999,0.052528
822,0.267939,0.93439,-0.234786,-0.2176,-0.4323909999999999,0.0063159999999999
823,0.244961,0.946632,-0.20948,0.135761,-0.491859,-0.127373
824,0.213916,0.959521,-0.183193,0.297528,-0.27048,-0.233067
825,0.181341,0.970678,-0.157799,0.421671,0.1136119999999999,-0.258736
826,0.1579829999999999,0.978382,-0.133456,0.368063,0.229046,-0.152738
827,0.147705,0.98283,-0.1105849999999999,0.254502,0.1092109999999999,-0.092785
828,0.136033,0.986675,-0.089259,-0.110596,-0.18597,0.0027719999999999
829,0.118748,0.989968,-0.076564,-0.291431,-0.344018,0.055416
830,0.102595,0.992696,-0.063473,-0.14828,-0.605733,0.046352
831,0.0927809999999999,0.995051,-0.035552,-0.122108,-0.7991739999999999,0.04927
832,0.091448,0.995791,-0.005993,-0.071916,-0.360553,-0.02071
833,0.09456,0.995507,0.0047799999999999,0.083846,1.067512,0.031124
834,0.093096,0.995654,0.002092,0.074156,1.732754,0.180022
835,0.104997,0.994438,-0.00823,0.116378,-0.169761,-0.085794
836,0.114106,0.993253,-0.020669,0.269958,0.8771540000000001,-0.2080449999999999
837,0.120157,0.992586,-0.018274,0.305777,-0.098039,0.197229
838,0.127875,0.991612,-0.018759,0.351618,-0.3710219999999999,0.070135
839,0.130765,0.991195,-0.020772,0.185031,-0.38832,-0.083415
840,0.133118,0.990966,-0.016284,0.173248,-0.024871,-0.146848
841,0.132232,0.991185,-0.008137,0.014695,0.2310289999999999,0.00031
842,0.132223,0.991219,0.00088,-0.1199549999999999,0.226753,-0.018413
843,0.135964,0.990713,0.000801,-0.136543,-0.097295,-0.062096
844,0.137822,0.990438,-0.0059409999999999,0.042156,-0.289007,-0.08047
845,0.134284,0.990766,-0.018703,0.191873,-0.328519,-0.047733
846,0.13054,0.990771,-0.0364699999999999,0.199477,-0.346332,0.0007639999999999
847,0.134649,0.989268,-0.056723,0.113658,-0.481761,0.166724
848,0.148978,0.985235,-0.084365,-0.055335,-0.5808770000000001,0.245375
849,0.172419,0.976827,-0.1268099999999999,-0.179026,-0.503454,0.160104
850,0.20319,0.963057,-0.176735,-0.265644,-0.287459,-0.143715
851,0.2413159999999999,0.94835,-0.205909,0.022493,0.969603,0.3065719999999999
852,0.265259,0.936269,-0.2303,0.066849,0.6667890000000001,0.20349
853,0.278904,0.92754,-0.248761,0.1426349999999999,0.485882,0.013104
854,0.286051,0.923311,-0.256265,-0.192774,0.7728109999999999,-0.415808
855,0.295633,0.922449,-0.248371,-0.1746,0.783605,-0.498867
856,0.3020219999999999,0.923816,-0.235258,0.091502,0.34831,-0.185427
857,0.306037,0.925944,-0.22129,-0.227011,-0.2726389999999999,-0.1314779999999999
858,0.299277,0.930762,-0.210034,-0.281806,-0.438422,-0.013599
859,0.281086,0.939704,-0.194798,-0.1169019999999999,-0.493537,0.0864
860,0.253413,0.951687,-0.173419,0.049062,-0.558178,-0.027035
861,0.21789,0.964701,-0.147902,0.126668,-0.453578,-0.068407
862,0.1829839999999999,0.975612,-0.1212299999999999,0.170897,-0.171291,-0.051499
863,0.157488,0.98267,-0.097758,0.174421,-0.149952,-0.06307
864,0.141045,0.986981,-0.077293,0.085136,-0.137646,-0.033974
865,0.126878,0.990195,-0.058437,-0.194932,-0.076346,-0.101108
866,0.113494,0.992465,-0.046164,-0.266433,-0.002307,-0.083337
867,0.103824,0.993983,-0.034879,-0.189471,-0.163493,0.010053
868,0.103424,0.994551,-0.013075,-0.261657,-0.086302,0.194242
869,0.110241,0.993854,0.009983,-0.116695,0.227154,0.0627549999999999
870,0.110747,0.993512,0.025836,0.061113,0.955844,-0.15108
871,0.1037849999999999,0.994576,0.006781,0.049917,0.840217,-0.100897
872,0.100235,0.994888,-0.012254,0.3205719999999999,0.8831030000000001,0.027712
873,0.103913,0.99443,-0.017606,0.5690609999999999,-0.415908,0.10893
874,0.11527,0.992833,-0.031541,0.620692,-0.314732,-0.028991
875,0.127885,0.991205,-0.034025,0.121627,-0.391061,-0.017657
876,0.135179,0.990434,-0.027681,0.018446,-0.0111709999999999,-0.027861
877,0.13471,0.990747,-0.01651,-0.1342829999999999,0.169669,0.060272
878,0.136788,0.9906,-0.000122,-0.15728,0.091187,-0.036728
879,0.137659,0.990423,0.010567,-0.077311,-0.015447,-0.1034009999999999
880,0.1389359999999999,0.990096,0.020137,-0.036031,-0.1213369999999999,-0.013484
881,0.139499,0.989814,0.0284269999999999,-0.0758539999999999,-0.1191779999999999,-0.033676
882,0.135026,0.990389,0.0299589999999999,-0.016953,-0.0603659999999999,-0.099646
883,0.125339,0.991794,0.025177,0.038007,-0.029331,-0.104477
884,0.116336,0.993089,0.01546,0.1476559999999999,-0.147783,-0.068622
885,0.111497,0.993764,-4.9e-05,0.271804,-0.370397,0.078845
886,0.116389,0.993042,-0.017918,0.1794339999999999,-0.578278,0.199894
887,0.133715,0.990099,-0.042703,-0.025057,-0.652483,0.180307
888,0.158404,0.984168,-0.079514,-0.195956,-0.643103,0.139725
889,0.184388,0.974848,-0.12519,-0.207688,-0.34791,-0.239419
890,0.2158,0.963109,-0.1607839999999999,0.1270339999999999,0.568721,-0.022993
891,0.250303,0.948917,-0.192105,0.1955589999999999,0.686383,0.017148
892,0.275212,0.935295,-0.222442,0.243252,0.655266,0.015243
893,0.290941,0.925689,-0.241769,0.15399,0.524644,-0.450507
894,0.3003699999999999,0.922782,-0.24135,-0.169893,0.840676,-0.526961
895,0.3080969999999999,0.921353,-0.237032,-0.01464,0.923236,-0.4266029999999999
896,0.311253,0.922178,-0.229586,-0.369907,-0.137876,-0.235319
897,0.309756,0.925541,-0.2177739999999999,-0.277011,-0.1087829999999999,-0.096526
898,0.295861,0.932777,-0.205895,-0.210488,-0.07621,-0.0579299999999999
899,0.271415,0.944455,-0.185304,0.193399,-0.16142,-0.19673
900,0.2368849999999999,0.958801,-0.156795,0.2838969999999999,-0.067993,-0.2208139999999999
901,0.200164,0.971266,-0.128749,0.3875429999999999,0.021471,-0.175145
902,0.174182,0.979189,-0.104154,0.1535619999999999,-0.247103,-0.050662
903,0.1576779999999999,0.984233,-0.080145,0.042945,-0.304927,-0.045725
904,0.136604,0.988827,-0.0596549999999999,-0.104545,-0.455579,0.004266
905,0.111728,0.992654,-0.04641,-0.209247,-0.586847,0.144112
906,0.093113,0.994831,-0.040512,-0.260548,-0.790485,0.185409
907,0.080737,0.996138,-0.034498,-0.258853,-1.07643,-0.015612
908,0.081609,0.996617,-0.009653,-0.25733,-1.0382280000000002,0.02717
909,0.094955,0.995389,0.013543,-0.152755,-0.286771,-0.1147849999999999
910,0.102736,0.994582,0.01588,-0.1351,3.069795,-0.071361
911,0.1033299999999999,0.994529,0.015304,0.107333,0.306741,0.325196
912,0.111027,0.993778,-0.008836,0.290432,0.268887,-0.302763
913,0.112667,0.993451,-0.018999,0.373006,-0.127179,0.165148
914,0.123348,0.991945,-0.028805,0.416843,-0.266405,0.04005
915,0.125925,0.991109,-0.0429649999999999,0.388403,-0.452824,-0.18378
916,0.11986,0.992004,-0.039505,0.1993849999999999,0.4890899999999999,-0.116348
917,0.109072,0.993718,-0.02504,-0.1153589999999999,0.331599,0.072266
918,0.104295,0.994467,-0.012542,-0.194352,-0.194235,-0.067017
919,0.100267,0.994887,-0.012069,0.022841,-0.174315,-0.037339
920,0.096055,0.995203,-0.018538,0.086257,-0.236933,-0.019929
921,0.094315,0.995191,-0.0264529999999999,0.083373,-0.317853,-0.053991
922,0.093415,0.994907,-0.037857,0.0729669999999999,-0.406482,0.0582429999999999
923,0.095779,0.993805,-0.0563629999999999,0.0840149999999999,-0.5235449999999999,0.137768
924,0.1062369999999999,0.990792,-0.0839299999999999,0.0327709999999999,-0.583779,0.195227
925,0.125443,0.985364,-0.115415,-0.034927,-0.6499,0.243497
926,0.149217,0.97627,-0.156938,-0.121294,-0.535551,0.0156259999999999
