,gravity.x,gravity.y,gravity.z,userAcceleration.x,userAcceleration.y,userAcceleration.z
0,0.208779,0.961642,-0.177892,-0.1993339999999999,-0.110323,-0.0739539999999999
1,0.2046619999999999,0.967269,-0.14998,-0.306118,-0.133574,-0.3011
2,0.200543,0.971626,-0.125362,-0.2212329999999999,0.4920739999999999,-0.03095
3,0.197179,0.97413,-0.110364,-0.026815,0.4366819999999999,0.043637
4,0.190405,0.975287,-0.1120289999999999,0.2916809999999999,0.5717399999999999,0.364242
5,0.180653,0.976971,-0.113494,0.539929,0.631931,0.253661
6,0.169452,0.979275,-0.110883,0.599881,1.583484,0.408369
7,0.17803,0.976372,-0.122443,-0.2419489999999999,-0.047768,0.233985
8,0.202256,0.967702,-0.150451,0.189132,-0.600087,0.081786
9,0.231255,0.957173,-0.1741589999999999,0.130394,-0.346928,2.5e-05
10,0.249054,0.950007,-0.1882839999999999,0.240448,-0.666132,-0.210367
11,0.2596,0.942811,-0.209062,0.197965,-0.3496559999999999,-0.123549
12,0.261804,0.940067,-0.21846,-0.054437,-0.043704,0.5743560000000001
13,0.256789,0.946553,-0.195161,-0.120604,-0.149968,0.394761
14,0.242548,0.957407,-0.156632,0.036704,0.19483,0.098313
15,0.225023,0.965981,-0.127415,0.129621,0.229926,-0.045269
16,0.2123239999999999,0.970786,-0.111722,0.314089,-0.077033,-0.055407
17,0.20234,0.973941,-0.102408,0.405159,-0.140964,-0.073099
18,0.199604,0.975225,-0.0953059999999999,0.466412,-0.20751,-0.118423
19,0.2021609999999999,0.974229,-0.099993,0.307742,-0.3098619999999999,-0.224608
20,0.203621,0.971502,-0.121294,0.141868,-0.205481,-0.128461
21,0.204587,0.967279,-0.150022,0.086245,-0.134561,-0.056948
22,0.2070199999999999,0.961465,-0.180882,-0.1053819999999999,-0.164377,0.1663099999999999
23,0.211296,0.953475,-0.215013,-0.19912,-0.2053829999999999,0.355775
24,0.216718,0.941738,-0.257205,-0.219846,-0.217404,0.353671
25,0.227326,0.923247,-0.309726,-0.231827,-0.153731,0.0715669999999999
26,0.24575,0.897782,-0.3654969999999999,-0.2382119999999999,0.0603029999999999,0.0884279999999999
27,0.273752,0.868107,-0.414058,-0.27366,0.152569,0.145305
28,0.307844,0.837355,-0.451733,-0.355116,0.120226,0.288937
29,0.343976,0.804782,-0.4837359999999999,-0.205289,0.225598,-0.0769929999999999
30,0.384775,0.782941,-0.488822,-0.02659,0.428485,-0.087228
31,0.428465,0.7788619999999999,-0.458024,0.419878,0.806649,-0.193297
32,0.4583529999999999,0.774462,-0.436022,0.323614,0.6594979999999999,-0.268278
33,0.472628,0.773835,-0.421658,0.245191,0.437575,-0.214679
34,0.474663,0.784842,-0.398385,0.199455,-0.177329,-0.102653
35,0.464812,0.8031510000000001,-0.372681,0.1542369999999999,-0.1240589999999999,-0.102477
36,0.441613,0.8249719999999999,-0.352694,0.200141,-0.317327,-0.051329
37,0.4100029999999999,0.847161,-0.337946,0.16153,-0.55671,0.014109
38,0.372792,0.8687010000000001,-0.326156,0.280055,-0.587634,0.133178
39,0.335658,0.8893639999999999,-0.310417,0.258657,-0.748739,0.183998
40,0.299537,0.909848,-0.287135,0.002862,-0.886441,0.143931
41,0.2645119999999999,0.928658,-0.260038,-0.214784,-0.523492,-0.023547
42,0.234585,0.942193,-0.239236,-0.269176,-0.073739,-0.166251
43,0.224153,0.947622,-0.227509,-0.176698,0.091898,-0.0416259999999999
44,0.224068,0.951447,-0.211032,-0.487343,-0.086624,0.09473
45,0.226793,0.956137,-0.185359,-0.633089,-0.042563,0.17094
46,0.2269389999999999,0.95999,-0.164039,-0.395075,-0.105498,0.016883
47,0.230348,0.961429,-0.150281,-0.331911,0.0444149999999999,0.221478
48,0.23448,0.961977,-0.14004,-0.193037,0.171843,0.582499
49,0.2326929999999999,0.962927,-0.136441,-0.070294,0.339426,0.261655
50,0.225894,0.965327,-0.130793,0.65669,1.05071,-0.384054
51,0.215271,0.970207,-0.111119,0.665313,1.918389,0.192067
52,0.217927,0.969773,-0.109717,0.171508,1.442931,0.124793
53,0.227054,0.964369,-0.135757,-0.057194,-0.401701,0.391586
54,0.238888,0.957178,-0.1635059999999999,0.134509,-0.533289,0.216653
55,0.246906,0.952822,-0.176521,0.110714,-0.5181899999999999,-0.0348889999999999
56,0.252308,0.949166,-0.188192,-0.044376,-0.166787,-0.00033
57,0.251604,0.949403,-0.187939,-0.121218,-0.1189279999999999,0.212337
58,0.245578,0.955974,-0.160615,-0.027607,0.09879,0.069031
59,0.2324159999999999,0.963594,-0.132142,0.033697,0.257033,0.015534
60,0.218525,0.968198,-0.121779,0.102917,-0.050138,0.159346
61,0.2050789999999999,0.971339,-0.120147,0.34471,-0.20965,0.132201
62,0.1953109999999999,0.973781,-0.116601,0.497088,-0.3578449999999999,0.014458
63,0.1953339999999999,0.974415,-0.111132,0.4737939999999999,-0.399647,-0.216551
64,0.2031,0.972122,-0.1171369999999999,0.227153,-0.239059,-0.270345
65,0.211186,0.967878,-0.136396,0.099422,-0.004606,-0.171587
66,0.218243,0.962603,-0.160489,-0.005719,-0.0609309999999999,0.145688
67,0.223845,0.956683,-0.186125,-0.084212,-0.349292,0.299223
68,0.229363,0.948887,-0.2167929999999999,-0.1107869999999999,-0.385822,0.294857
69,0.236305,0.936722,-0.258272,-0.130668,-0.4031679999999999,0.284441
70,0.249052,0.917487,-0.310137,-0.158857,-0.2079219999999999,-0.076902
71,0.270327,0.890599,-0.365719,-0.018786,0.207225,-0.0322
72,0.303381,0.8605229999999999,-0.4092119999999999,-0.049292,0.461163,0.076036
73,0.340236,0.8329549999999999,-0.436371,-0.191463,0.267829,0.216355
74,0.370573,0.806192,-0.461221,0.048739,0.131018,0.2074679999999999
75,0.401017,0.779645,-0.480973,-0.013932,0.2581969999999999,0.15799
76,0.435938,0.76246,-0.47813,0.104589,0.328971,-0.0690809999999999
77,0.467055,0.7537229999999999,-0.462338,0.110628,0.37738,-0.211673
78,0.487089,0.7542439999999999,-0.440289,0.107973,0.3905619999999999,-0.175952
79,0.49777,0.7640979999999999,-0.410334,0.1363089999999999,0.04593,-0.066976
80,0.494527,0.783066,-0.377155,0.237056,-0.135132,-0.026715
81,0.476438,0.805815,-0.3516579999999999,0.0222349999999999,-0.274702,-0.104595
82,0.444168,0.8295459999999999,-0.338471,0.063247,-0.482805,-0.030487
83,0.404007,0.8524860000000001,-0.3317219999999999,0.115158,-0.6269,0.092037
84,0.363374,0.875616,-0.318197,0.238692,-0.690146,0.161886
85,0.32602,0.9005049999999999,-0.28774,0.10057,-0.741356,0.057989
86,0.290456,0.924342,-0.247426,-0.030583,-0.353267,-0.19218
87,0.265611,0.939767,-0.215131,0.01689,0.56037,-0.2121
88,0.263762,0.945806,-0.189403,-0.269683,0.246486,0.010738
89,0.264132,0.949944,-0.1668329999999999,-0.617556,-0.163185,0.090829
90,0.257468,0.954868,-0.148088,-0.574469,-0.4213739999999999,0.099413
91,0.246736,0.959888,-0.133152,-0.387834,-0.34949,0.203983
92,0.2317659999999999,0.964296,-0.128098,-0.175201,0.218,0.262086
93,0.217736,0.967864,-0.12579,0.305274,1.244066,0.593136
94,0.217389,0.967562,-0.128678,0.204364,0.677076,0.340927
95,0.226225,0.96565,-0.1278089999999999,0.130434,1.673831,0.208833
96,0.247179,0.962299,-0.113467,0.11009,1.6771509999999998,0.024875
97,0.270958,0.955438,-0.117098,0.245125,-0.377282,0.074313
98,0.284981,0.948743,-0.136617,0.192329,-0.448377,-0.021006
99,0.283697,0.945746,-0.158343,0.396982,-0.491415,-0.018644
100,0.273481,0.945798,-0.175117,0.147006,-0.431089,0.235252
101,0.257884,0.948499,-0.18395,0.0451709999999999,-0.389692,0.28829
102,0.24013,0.95572,-0.1700819999999999,0.210126,0.3103619999999999,0.369133
103,0.227231,0.963779,-0.139602,0.005145,0.316525,0.151473
104,0.2211769999999999,0.967541,-0.122217,-0.204316,-0.166851,-0.06304
105,0.214128,0.969342,-0.1204869999999999,-0.145097,-0.282925,-0.121365
106,0.207088,0.970067,-0.126793,0.172505,-0.510671,-0.163902
107,0.207659,0.968782,-0.135392,0.250486,-0.458727,-0.114792
108,0.2166219999999999,0.96474,-0.1494839999999999,0.28379,-0.108844,-0.001456
109,0.22929,0.958696,-0.168286,0.038532,-0.076449,0.074567
110,0.242831,0.950678,-0.19297,-0.0988179999999999,-0.189524,0.234032
111,0.254612,0.940342,-0.225663,-0.193821,-0.27399,0.278977
112,0.265745,0.926251,-0.267266,-0.297545,-0.322019,0.20913
113,0.279478,0.90667,-0.3159659999999999,-0.28343,-0.143197,0.2091239999999999
114,0.29907,0.8801530000000001,-0.368623,-0.21414,-0.064769,0.192064
115,0.328112,0.846074,-0.420114,-0.172274,0.11584,0.280328
116,0.359362,0.8125640000000001,-0.458905,-0.086931,0.325574,0.186307
117,0.385073,0.78675,-0.48243,0.032805,0.583413,-0.042091
118,0.416776,0.776221,-0.473047,0.214525,0.531259,-0.377738
119,0.457306,0.774328,-0.4373579999999999,0.250656,0.710489,-0.461171
120,0.486969,0.769897,-0.412451,0.2555699999999999,0.7259680000000001,-0.400782
121,0.498961,0.772411,-0.392957,0.27643,0.177647,0.024045
122,0.495676,0.783936,-0.373823,0.264669,-0.098725,-0.0093099999999999
123,0.47746,0.8010149999999999,-0.36111,0.2149829999999999,-0.270406,0.063564
124,0.448201,0.8210559999999999,-0.353521,0.155864,-0.4883689999999999,0.056249
125,0.4132619999999999,0.842685,-0.345096,0.1728589999999999,-0.551303,-0.022488
126,0.374256,0.865441,-0.333075,0.2271389999999999,-0.4591449999999999,0.052649
127,0.334555,0.8887200000000001,-0.3134389999999999,0.150476,-0.552508,0.0277339999999999
128,0.294728,0.911484,-0.2869239999999999,-0.050542,-0.539566,-0.113726
129,0.257876,0.930715,-0.259351,-0.031741,0.031337,-0.028857
130,0.241642,0.941347,-0.2355179999999999,-0.045948,0.263121,-0.07216
131,0.2357719999999999,0.947489,-0.21603,-0.349084,-0.09817,0.0460779999999999
132,0.2343489999999999,0.952585,-0.194049,-0.63268,-0.067346,0.1231869999999999
133,0.229652,0.95716,-0.176347,-0.619224,-0.14617,0.13202
134,0.22134,0.961102,-0.165179,-0.353527,-0.237134,0.262164
135,0.2126579999999999,0.965119,-0.152692,-0.297543,-0.476426,0.428434
136,0.2046329999999999,0.969173,-0.137189,-0.12663,-0.400005,0.292951
137,0.199303,0.971771,-0.126227,0.224709,0.545945,0.0218259999999999
138,0.2016359999999999,0.97168,-0.1231829999999999,0.481317,0.877365,0.291151
139,0.206842,0.970399,-0.124642,0.023047,0.174743,0.125665
140,0.205679,0.971066,-0.12133,0.385065,0.057972,-0.882958
141,0.2098199999999999,0.972617,-0.099923,0.231449,2.20794,0.46592
142,0.221711,0.968801,-0.110733,0.185775,0.032923,0.246078
143,0.225921,0.965179,-0.131843,0.096528,-0.365844,0.149024
144,0.218596,0.963825,-0.152482,0.352663,-0.341328,0.057648
145,0.203676,0.965624,-0.161496,0.290907,-0.132021,0.1250119999999999
146,0.183873,0.97064,-0.15506,0.333415,-0.0973639999999999,0.105194
147,0.166623,0.9765,-0.136671,0.517352,0.049684,0.031339
148,0.154268,0.980842,-0.118931,0.186491,-0.04119,-0.073162
149,0.142239,0.983668,-0.110268,0.158374,-0.1587319999999999,-0.082939
150,0.132551,0.984885,-0.111471,0.201602,-0.221061,0.063222
151,0.12836,0.984139,-0.122426,0.371381,-0.485085,0.10793
152,0.1361089999999999,0.98096,-0.138511,0.427596,-0.4854159999999999,0.138054
153,0.161434,0.972367,-0.168628,0.312703,-0.356004,0.109271
154,0.194568,0.955313,-0.222519,-0.106342,-0.396994,0.107208
155,0.21973,0.93184,-0.2887679999999999,-0.26604,-0.438951,0.147533
156,0.233705,0.906914,-0.35055,-0.399629,-0.654075,-0.002691
157,0.2443139999999999,0.880807,-0.405569,-0.229207,-0.079171,-0.07699
158,0.259728,0.8511059999999999,-0.456241,-0.021127,0.351653,-0.0254639999999999
159,0.293662,0.8249879999999999,-0.48286,0.335107,1.841806,0.615123
160,0.310106,0.816092,-0.487672,0.490126,0.42048,0.648271
161,0.309181,0.811058,-0.496576,0.663475,-0.048607,-0.081824
162,0.319712,0.809756,-0.492013,0.640249,0.551984,-0.571174
163,0.339967,0.8149770000000001,-0.469289,0.291106,0.247478,-0.438487
164,0.367772,0.825464,-0.428192,-0.106069,0.0948389999999999,-0.238663
165,0.390842,0.8358540000000001,-0.385469,-0.386356,0.005775,-0.240783
166,0.393512,0.849134,-0.3523,0.07977,-0.279676,-0.044688
167,0.372138,0.867864,-0.3291199999999999,0.478647,-0.416952,0.246921
168,0.325356,0.890251,-0.318734,0.566764,-0.1881789999999999,0.248696
169,0.265215,0.911465,-0.3144639999999999,0.372892,-0.418041,0.133479
170,0.210744,0.930476,-0.299659,0.015543,-0.38586,-0.057351
171,0.172124,0.945951,-0.274854,-0.018544,-0.372053,-0.149585
172,0.15132,0.954995,-0.255109,-0.137984,-0.2428519999999999,-0.278719
173,0.148384,0.956952,-0.249437,-0.1912,-0.119229,-0.057737
174,0.155438,0.955821,-0.249479,-0.156796,-0.240092,0.151411
175,0.165582,0.955496,-0.244139,-0.10357,-0.47161,0.182585
176,0.173472,0.957254,-0.2314449999999999,-0.191447,-0.676294,0.158401
177,0.179521,0.960455,-0.212819,-0.299546,-0.629629,0.012273
178,0.184455,0.96265,-0.198177,-0.311805,-0.223789,-0.245442
179,0.185189,0.965641,-0.182311,0.135673,2.387784,0.831191
180,0.178776,0.971777,-0.153888,-0.145665,1.905481,0.531848
181,0.157352,0.976341,-0.148298,0.4172329999999999,2.013359,0.40225
182,0.134174,0.976899,-0.166312,0.960385,0.113113,0.825477
183,0.127826,0.975283,-0.180216,0.414441,-0.386766,0.772287
184,0.1330849999999999,0.973175,-0.187651,-0.27699,-0.434463,-0.074632
185,0.136061,0.971326,-0.194956,-0.2575969999999999,-0.0354279999999999,-0.338293
186,0.13426,0.973584,-0.184665,-0.637037,-0.228986,0.192874
187,0.116788,0.982422,-0.145607,-0.356962,0.100342,0.201973
188,0.085136,0.99055,-0.107492,0.005211,0.217473,0.101404
189,0.0531409999999999,0.994553,-0.08963,0.344503,0.512604,0.304093
190,0.028133,0.997086,-0.070853,0.442143,0.056472,0.079871
191,0.00656,0.998132,-0.060672,0.615297,0.01319,-0.055402
192,-0.011408,0.998464,-0.05415,0.7519319999999999,-0.157979,-0.257709
193,-0.026756,0.998384,-0.05005,0.624672,-0.029024,-0.334731
194,-0.03793,0.99798,-0.050894,0.5151789999999999,0.033911,-0.274119
195,-0.044597,0.997229,-0.059483,0.35702,0.003671,-0.210384
196,-0.046373,0.995669,-0.080535,0.340394,-0.308962,0.070083
197,-0.042815,0.992327,-0.115966,0.3441,-0.4153,0.2055809999999999
198,-0.036511,0.985642,-0.1648359999999999,0.447201,-0.522767,0.401836
199,-0.023813,0.975574,-0.2183639999999999,0.8465969999999999,-0.005374,0.245799
200,0.018527,0.964172,-0.264621,0.726468,0.397248,0.5326420000000001
201,0.075779,0.940657,-0.330783,-0.010028,0.77881,0.170871
202,0.131381,0.915733,-0.379695,-0.286029,1.4076620000000002,0.6486310000000001
203,0.176624,0.905127,-0.38671,-0.354892,1.028772,0.349677
204,0.202998,0.8997120000000001,-0.386402,0.320318,0.078834,0.260517
205,0.213976,0.900559,-0.378423,0.381528,0.019562,0.187032
206,0.219186,0.902619,-0.3704469999999999,0.385062,0.153579,0.120371
207,0.222516,0.902033,-0.36989,0.209888,-0.0297649999999999,0.070405
208,0.223359,0.905036,-0.361963,0.14656,-0.371131,0.002039
209,0.2182909999999999,0.910912,-0.350121,0.084337,-0.429634,0.044441
210,0.206838,0.914776,-0.346984,-0.093999,-0.5202760000000001,0.375579
211,0.191611,0.916251,-0.351802,-0.013586,-0.57215,0.349605
212,0.177676,0.916334,-0.35883,-0.0246,-0.5449649999999999,0.375767
213,0.164683,0.915088,-0.368088,-0.1085,-0.4347569999999999,0.497559
214,0.149202,0.91298,-0.37974,-0.041246,-0.23906,0.589915
215,0.130064,0.91101,-0.39133,0.028963,0.007065,0.695621
216,0.111894,0.912034,-0.39455,-0.039887,-0.0691389999999999,0.7401770000000001
217,0.102654,0.92173,-0.3739949999999999,-0.0463639999999999,-0.162453,0.413362
218,0.107367,0.937641,-0.330602,-0.090964,0.100766,-0.2792159999999999
219,0.119682,0.949723,-0.289307,0.4559399999999999,0.631027,-0.41484
220,0.143716,0.950938,-0.273966,0.630012,-0.039912,-0.3655
221,0.170654,0.944589,-0.2804,0.53508,-0.233255,-0.114314
222,0.183927,0.940448,-0.2858739999999999,0.324847,-0.4947229999999999,0.019333
223,0.183584,0.941889,-0.281315,0.280955,-0.237177,-0.128842
224,0.186141,0.946224,-0.264587,1.253633,2.276081,0.348998
225,0.191851,0.957466,-0.215513,1.278288,3.478447,1.253004
226,0.202561,0.958247,-0.201809,-1.000138,-0.313471,0.37521
227,0.199039,0.953628,-0.225769,-0.538181,-0.714889,0.1514589999999999
228,0.184473,0.951671,-0.245534,-0.365381,-0.959041,0.1122339999999999
229,0.164895,0.955087,-0.246198,-0.182229,-0.698358,0.238584
230,0.138455,0.961734,-0.236416,0.018649,-0.236896,0.1689109999999999
231,0.107216,0.967267,-0.229989,0.120765,-0.179043,0.2212449999999999
232,0.081125,0.976286,-0.200696,0.648703,0.407259,0.669354
233,0.065169,0.987175,-0.145713,-0.036864,0.172951,0.066841
234,0.063091,0.992799,-0.1018029999999999,-0.176922,0.193801,0.04269
235,0.06015,0.99532,-0.075583,-0.2694539999999999,0.219554,-0.03631
236,0.047122,0.996781,-0.0648059999999999,-0.075839,-0.0305639999999999,-0.117933
237,0.03159,0.997686,-0.060145,0.171352,-0.05039,-0.025411
238,0.019352,0.99819,-0.056877,0.289867,-0.11492,0.190239
239,0.012403,0.998767,-0.047992,0.211062,-0.244479,0.2630639999999999
240,0.009761,0.999338,-0.034927,0.067662,-0.231776,0.211669
241,0.009559,0.999744,-0.020306,-0.0667789999999999,-0.078571,0.102261
242,0.005314,0.999972,-0.004469,-0.104878,-0.0271329999999999,-0.095079
243,-0.007859,0.999899,0.011506,0.042787,-0.062338,-0.170961
244,-0.028935,0.99916,0.028881,0.249088,-0.054702,-0.1290089999999999
245,-0.056374,0.997372,0.045429,0.313073,-0.043636,-0.101352
246,-0.084974,0.994574,0.059945,0.337156,0.026116,-0.050378
247,-0.107858,0.991875,0.0674029999999999,0.323159,0.120948,0.096492
248,-0.119214,0.99062,0.066728,0.2726409999999999,0.121929,0.093413
249,-0.122478,0.990558,0.0615299999999999,0.456356,0.152035,-0.0869809999999999
250,-0.119125,0.991727,0.047753,0.543975,0.296603,-0.100899
251,-0.111509,0.993379,0.027496,0.5258619999999999,0.286375,-0.048645
252,-0.097233,0.995256,0.001937,0.4955029999999999,-0.114595,0.12697
253,-0.073916,0.996745,-0.03209,0.289431,-0.405558,0.1621109999999999
254,-0.038749,0.996498,-0.074062,0.245201,-0.393974,0.071773
255,0.0075049999999999,0.99307,-0.117266,0.180315,0.43558,0.009829
256,0.058644,0.985517,-0.159101,-0.049886,0.745654,0.036252
257,0.104347,0.975568,-0.193322,-0.0606,0.712374,0.054742
258,0.146266,0.965758,-0.214276,-0.001033,0.412905,-0.094394
259,0.179559,0.956294,-0.230773,-0.019448,0.245152,-0.027238
260,0.200265,0.947781,-0.248196,0.021613,0.120639,0.102002
261,0.213567,0.94053,-0.2641739999999999,0.1177319999999999,0.0515049999999999,0.105452
262,0.2234809999999999,0.934833,-0.275935,0.12329,-0.161166,0.071925
263,0.2333039999999999,0.930149,-0.283528,0.073977,-0.368061,0.038182
264,0.245585,0.92424,-0.2923429999999999,0.002706,-0.406616,0.025604
265,0.256796,0.916817,-0.305777,-0.017904,-0.359978,0.060171
266,0.265801,0.909119,-0.320701,0.006767,-0.353058,0.100013
267,0.273073,0.903472,-0.330401,0.021879,-0.312835,0.193499
268,0.279333,0.900158,-0.3341929999999999,-0.071065,-0.234158,0.167506
269,0.2856329999999999,0.8977200000000001,-0.335422,-0.067753,-0.182068,0.254032
270,0.291373,0.8956129999999999,-0.336117,0.006142,-0.2141559999999999,0.40144
271,0.293671,0.895792,-0.333631,0.017623,-0.200785,0.4487279999999999
272,0.290484,0.900795,-0.322776,-0.118426,-0.033867,0.231681
273,0.285049,0.910258,-0.300289,-0.109649,0.0490769999999999,0.0027429999999999
274,0.282259,0.920962,-0.2686159999999999,0.13162,0.492124,-0.366272
275,0.286335,0.92707,-0.241971,0.294079,0.673531,-0.481433
276,0.297015,0.925147,-0.236391,0.183835,0.1449359999999999,-0.304807
277,0.306756,0.919882,-0.244365,0.141517,-0.304144,-0.14867
278,0.310723,0.915894,-0.254138,-0.024804,-0.498551,-0.269253
279,0.309134,0.916146,-0.255167,-0.12374,-0.075005,-0.283667
280,0.308845,0.921497,-0.2354889999999999,0.636162,1.526974,0.6640010000000001
281,0.3221219999999999,0.928134,-0.18655,-0.43017,1.566846,0.316723
282,0.3403,0.925157,-0.168159,-0.886091,0.09616,0.303612
283,0.340814,0.924615,-0.170087,-0.464517,-0.4281399999999999,0.243573
284,0.326315,0.930008,-0.1691119999999999,-0.352605,-0.523514,0.132217
285,0.2999219999999999,0.938201,-0.1726869999999999,-0.033824,-0.271072,-0.000958
286,0.269758,0.94473,-0.1863109999999999,-0.029249,-0.113248,0.197145
287,0.242003,0.952752,-0.183558,-0.043516,0.046408,0.3981119999999999
288,0.227508,0.960745,-0.1587599999999999,-0.082214,-0.090414,0.222984
289,0.227934,0.964978,-0.1298369999999999,-0.228118,0.06412,0.083725
290,0.233481,0.966596,-0.105701,-0.264716,0.0549179999999999,0.07149
291,0.236219,0.967761,-0.087375,-0.2321599999999999,-0.071841,-0.082211
292,0.234014,0.969246,-0.07612,0.0258279999999999,-0.004128,-0.1027579999999999
293,0.2296679999999999,0.970877,-0.068162,0.089836,-0.011496,-0.075042
294,0.22621,0.972025,-0.063175,0.078859,-0.163843,0.164218
295,0.2258099999999999,0.97217,-0.062372,0.10909,-0.31415,0.1935059999999999
296,0.22905,0.971189,-0.065751,0.1167599999999999,-0.358274,0.162842
297,0.234338,0.96971,-0.06887,0.128013,-0.325285,-0.085275
298,0.239087,0.9686,-0.068157,0.142841,-0.188495,-0.192433
299,0.242,0.968076,-0.0652679999999999,0.172199,-0.106137,-0.220971
300,0.241116,0.968388,-0.063883,0.185031,-0.200978,-0.123968
301,0.2400389999999999,0.968641,-0.064111,0.132382,-0.172728,-0.021949
302,0.236178,0.969389,-0.067087,0.088636,-0.200864,-0.0007379999999999
303,0.231032,0.970095,-0.074397,0.0893559999999999,-0.3665489999999999,0.102336
304,0.227265,0.97014,-0.0847049999999999,0.130264,-0.4289409999999999,-0.0110739999999999
305,0.22608,0.969505,-0.094575,0.132074,-0.310249,-0.009994
306,0.228742,0.968099,-0.102254,0.147127,-0.204305,0.046056
307,0.236517,0.965064,-0.112718,0.131631,-0.066413,0.040498
308,0.250179,0.958543,-0.1363869999999999,-0.018749,0.028304,-0.044353
309,0.268329,0.946715,-0.178119,-0.072666,0.04471,-0.068524
310,0.291459,0.927621,-0.233593,0.020751,0.349188,-0.163028
311,0.321203,0.900608,-0.292796,-0.187872,0.672435,-0.06896
312,0.35228,0.870124,-0.344643,-0.333451,0.483971,0.385491
313,0.375218,0.842777,-0.385922,-0.448445,0.047192,0.237454
314,0.398452,0.817014,-0.4167979999999999,-0.14598,-0.2293219999999999,-0.167934
315,0.430595,0.798517,-0.4206609999999999,0.227181,0.350516,-0.256265
316,0.4674859999999999,0.7891239999999999,-0.398418,0.250425,0.473937,-0.233647
317,0.502135,0.780862,-0.371634,0.2776349999999999,0.361365,-0.223215
318,0.523223,0.775363,-0.35362,0.151658,0.047269,-0.095324
319,0.532104,0.77755,-0.33508,-0.021072,-0.091637,-0.139255
320,0.527991,0.788033,-0.316585,0.05909,-0.071984,-0.089024
321,0.511564,0.804815,-0.300951,-0.027509,-0.272757,0.019793
322,0.485771,0.8255540000000001,-0.2872,0.049553,-0.515648,0.009947
323,0.454691,0.848359,-0.271182,0.113394,-0.505265,0.033847
324,0.422079,0.871591,-0.249349,0.129846,-0.4638,-0.015452
325,0.389949,0.893904,-0.221069,0.039342,-0.450438,-0.190918
326,0.358666,0.91451,-0.187151,-0.0277329999999999,-0.096716,-0.246809
327,0.331839,0.930278,-0.156403,-0.0491389999999999,0.145253,-0.267837
328,0.315936,0.939181,-0.134605,-0.1986109999999999,-0.019503,-0.157799
329,0.306936,0.944892,-0.1138599999999999,-0.396993,-0.2074349999999999,-0.044129
330,0.301671,0.948981,-0.091789,-0.521184,-0.224433,-0.076714
331,0.294769,0.952887,-0.071506,-0.382019,-0.291998,0.0354649999999999
332,0.288306,0.956335,-0.047936,-0.256659,0.255717,0.277642
333,0.279436,0.95988,-0.023245,-0.060487,0.5128520000000001,0.271383
334,0.271325,0.962425,-0.010703,0.157187,0.713036,0.228278
335,0.267901,0.963337,-0.014325,0.22154,0.080059,0.163678
336,0.264592,0.964065,-0.023733,0.2895,-0.0092459999999999,-0.66456
337,0.260258,0.965485,-0.00996,0.230984,2.289871,0.367199
338,0.274966,0.961422,0.0073799999999999,-0.14554,0.510746,-0.0932559999999999
339,0.292255,0.956337,0.001081,-0.060672,-0.1079329999999999,0.220476
340,0.29886,0.95412,-0.018205,0.332365,-0.485706,0.016786
341,0.294505,0.954927,-0.037093,0.053991,-0.47603,0.070143
342,0.286146,0.956813,-0.051222,-0.073591,-0.372874,0.068694
343,0.274136,0.960046,-0.056176,-0.231762,-0.292337,0.0897299999999999
344,0.262912,0.96374,-0.04558,-0.1721369999999999,0.0011949999999999,0.002992
345,0.2540949999999999,0.966673,-0.0312029999999999,-0.071844,0.215532,-0.000871
346,0.248105,0.968406,-0.02507,-0.1080599999999999,0.174676,0.043594
347,0.241944,0.969947,-0.025692,0.057708,-0.340553,-0.040638
348,0.237473,0.97101,-0.027224,0.2087239999999999,-0.421388,-0.139219
349,0.2396309999999999,0.970394,-0.030118,0.254708,-0.41473,-0.192233
350,0.2504099999999999,0.967232,-0.041849,0.227068,-0.176247,-0.135458
351,0.266509,0.961755,-0.063208,0.012239,-0.01722,-0.010293
352,0.28357,0.954035,-0.096953,-0.0892039999999999,-0.147898,0.036711
353,0.299013,0.943322,-0.143979,-0.19243,-0.294442,0.020658
354,0.314689,0.928354,-0.1978,-0.272957,-0.20379,-0.064376
355,0.3340579999999999,0.907462,-0.254783,-0.128095,0.016595,-0.1251
356,0.362552,0.8793280000000001,-0.308764,-0.016834,0.412558,0.0159319999999999
357,0.393869,0.8518040000000001,-0.345389,-0.083033,0.50812,0.194296
358,0.410854,0.828834,-0.379776,0.018452,0.27108,0.079711
359,0.42563,0.808235,-0.406929,-0.018296,0.043144,-0.070366
360,0.4506819999999999,0.79525,-0.405536,0.03238,0.359184,-0.163266
361,0.4859739999999999,0.783483,-0.387272,0.000843,0.429956,-0.365749
362,0.5187649999999999,0.773784,-0.363509,-0.0016899999999999,0.194692,-0.337938
363,0.542551,0.77189,-0.331392,0.106649,0.034079,-0.255629
364,0.553413,0.779425,-0.293645,0.160317,-0.0250449999999999,-0.243144
365,0.548734,0.793556,-0.262975,0.154651,-0.165062,-0.114573
366,0.530062,0.8119310000000001,-0.244536,0.154752,-0.302425,-0.069154
367,0.501158,0.833001,-0.234408,0.1644769999999999,-0.4201899999999999,-0.036466
368,0.467891,0.8554139999999999,-0.222127,0.194188,-0.484321,-0.015071
369,0.4346399999999999,0.8772760000000001,-0.203643,0.172843,-0.52457,-0.065232
370,0.402188,0.897625,-0.180303,-0.039487,-0.5412100000000001,-0.141215
371,0.367176,0.917386,-0.15356,-0.212299,-0.480588,-0.274418
372,0.330277,0.935572,-0.124969,-0.211579,0.361165,-0.3784949999999999
373,0.300168,0.949007,-0.096333,-0.15614,0.447065,-0.125774
374,0.28296,0.957042,-0.063243,-0.346238,-0.146938,-0.024922
375,0.274072,0.961019,-0.0363519999999999,-0.451684,-0.302313,-0.0211729999999999
376,0.268864,0.963007,-0.018009,-0.329945,-0.277827,0.1213569999999999
377,0.266432,0.963838,-0.004993,-0.2247449999999999,-0.25313,0.193042
378,0.266953,0.9637,0.0035409999999999,-0.046707,0.18875,0.112472
379,0.269266,0.963007,0.010404,0.404532,0.691168,0.357516
380,0.278089,0.960516,0.008355,0.0540799999999999,0.41128,0.220878
381,0.2891579999999999,0.957278,-0.000499,-0.055928,-0.06708,-0.158192
382,0.301093,0.953582,0.0042829999999999,0.094796,0.8968510000000001,0.051702
383,0.320788,0.946832,0.024467,-0.016055,0.783805,0.030525
384,0.342063,0.939165,0.030917,0.071953,0.124358,0.0272029999999999
385,0.355104,0.934426,0.027262,0.189467,0.010856,-0.1706329999999999
386,0.355561,0.9345,0.016746,0.143996,-0.031012,-0.1208569999999999
387,0.3454239999999999,0.938427,0.005458,-0.0378839999999999,-0.119183,0.055333
388,0.328409,0.944531,0.001146,-0.0085849999999999,-0.073972,0.013808
389,0.309725,0.950794,0.007345,0.07353,0.059948,-0.035238
390,0.2932389999999999,0.955904,0.015867,0.00626,0.120848,-0.161054
391,0.277944,0.960388,0.019859,0.0502569999999999,-0.175278,-0.129219
392,0.2646139999999999,0.964173,0.01853,0.14188,-0.359848,-0.092459
393,0.255156,0.966817,0.012401,0.195192,-0.454244,-0.137767
394,0.251618,0.967823,-0.0002279999999999,0.169494,-0.341938,-0.178651
395,0.255265,0.966688,-0.018654,0.002456,0.016863,-0.101967
396,0.262447,0.963935,-0.04409,-0.152096,-0.079444,0.005943
397,0.270692,0.959153,-0.082133,-0.207292,-0.2498929999999999,0.033076
398,0.280504,0.950526,-0.133459,-0.176028,-0.4147899999999999,0.142828
399,0.293352,0.936071,-0.194191,-0.163332,-0.515447,0.1240619999999999
400,0.308852,0.916266,-0.255073,-0.285918,-0.415487,0.004707
401,0.329478,0.8919819999999999,-0.309527,-0.258601,-0.2254929999999999,-0.01312
402,0.362136,0.8624280000000001,-0.353654,-0.032683,0.04312,-0.076705
403,0.406435,0.829892,-0.382212,-0.171053,0.321155,-0.081075
404,0.449279,0.801154,-0.395344,0.178727,0.876382,0.268788
405,0.488002,0.776047,-0.399501,0.084263,0.594421,-0.03716
406,0.511788,0.759882,-0.400809,0.290839,0.298468,-0.3986449999999999
407,0.521163,0.757091,-0.393952,0.374436,0.518574,-0.454086
408,0.521516,0.767372,-0.373037,0.396346,0.2304,-0.29043
409,0.5165609999999999,0.786884,-0.337599,0.19459,-0.010151,-0.259157
410,0.505039,0.81053,-0.2966,0.065884,-0.14604,-0.288209
411,0.486525,0.8338629999999999,-0.260692,-0.035017,-0.293,-0.188175
412,0.459844,0.8562350000000001,-0.235371,0.056849,-0.5092810000000001,-0.046443
413,0.42682,0.879077,-0.212232,0.154051,-0.794879,0.010389
414,0.387148,0.903219,-0.18522,0.103193,-0.867575,-0.048026
415,0.346149,0.924998,-0.156698,-0.0264769999999999,-0.102809,-0.254664
416,0.318322,0.938903,-0.130866,-0.073159,0.103669,-0.087595
417,0.308241,0.945637,-0.103696,-0.4251689999999999,-0.069966,-0.0740379999999999
418,0.303325,0.949792,-0.076704,-0.745479,-0.177209,-0.078157
419,0.295398,0.953855,-0.053813,-0.772525,-0.328824,-0.08724
420,0.284815,0.957944,-0.034904,-0.4311779999999999,-0.55885,0.123725
421,0.274867,0.961295,-0.018799,-0.194316,-0.326255,0.247802
422,0.267621,0.963439,-0.01255,0.147617,0.632691,-0.083687
423,0.262032,0.965055,0.00108,0.709709,1.559587,0.4282109999999999
424,0.273362,0.961891,0.005697,0.116302,0.585411,-0.289678
425,0.288157,0.957563,0.005695,0.0055439999999999,0.4685539999999999,-0.502369
426,0.301573,0.953334,0.014246,0.023576,0.8762260000000001,0.011771
427,0.3174619999999999,0.948265,0.002375,0.007947,-0.428062,0.314244
428,0.329237,0.944145,-0.013721,0.2182639999999999,-0.453208,0.080311
429,0.3326389999999999,0.942613,-0.028772,0.274936,-0.528779,0.050317
430,0.329923,0.943234,-0.038151,0.14635,-0.282559,-0.080898
431,0.320679,0.94637,-0.039279,0.044036,-0.042669,-0.0326199999999999
432,0.307638,0.951064,-0.028824,0.0903419999999999,0.030244,0.041367
433,0.2961789999999999,0.954998,-0.01584,0.128366,0.310794,-0.067565
434,0.286682,0.957965,-0.010544,0.04573,0.104749,-0.024612
435,0.278287,0.960396,-0.013759,0.100085,-0.252678,-0.125066
436,0.271955,0.962032,-0.023006,0.157183,-0.2822679999999999,-0.118764
437,0.271798,0.961657,-0.036548,0.181022,-0.365908,-0.164609
438,0.278896,0.958732,-0.055177,0.047032,-0.386756,-0.076491
439,0.291625,0.953028,-0.081772,-0.146468,-0.1186319999999999,-0.014083
440,0.306553,0.944319,-0.119503,-0.293049,-0.315886,0.030957
441,0.323021,0.931562,-0.166865,-0.3433,-0.386213,0.0043289999999999
442,0.341831,0.914143,-0.2179219999999999,-0.310123,-0.237141,-0.05251
443,0.3672289999999999,0.890432,-0.268827,-0.203716,0.310816,-0.0591
444,0.401255,0.859532,-0.316534,-0.184337,0.474681,0.052679
445,0.433035,0.830044,-0.35143,-0.059744,0.530475,0.198949
446,0.448702,0.806702,-0.384571,0.220014,0.411987,-0.241833
447,0.462621,0.79214,-0.3981119999999999,0.2060949999999999,0.4265489999999999,-0.228292
448,0.4843989999999999,0.785317,-0.385528,0.201697,0.5020060000000001,-0.409867
449,0.507373,0.780355,-0.365534,0.10809,0.340128,-0.227758
450,0.524104,0.7796310000000001,-0.342764,0.067098,0.154481,-0.159327
451,0.532184,0.785976,-0.314671,-0.048145,-0.1102559999999999,-0.083873
452,0.527287,0.8000149999999999,-0.286253,-0.130894,-0.276501,-0.078523
453,0.506023,0.820732,-0.265207,-0.095729,-0.427559,-0.0730649999999999
454,0.471363,0.845484,-0.250938,0.07095,-0.6613399999999999,-0.117775
455,0.429625,0.8715040000000001,-0.236427,0.208436,-0.712508,-0.18528
456,0.385809,0.896315,-0.218554,0.279016,-0.618315,-0.048551
457,0.34354,0.919392,-0.191555,0.20158,-0.66219,0.013866
458,0.302869,0.940227,-0.155684,-0.026395,-0.395779,-0.13701
459,0.27731,0.952559,-0.125397,0.0203889999999999,0.344728,-0.179153
460,0.275694,0.955744,-0.102666,-0.28398,-0.023859,-0.111293
461,0.2765869999999999,0.957296,-0.084127,-0.5539609999999999,-0.350836,-0.066157
462,0.277504,0.958259,-0.068742,-0.559639,-0.384986,-0.109023
463,0.275059,0.959653,-0.0583259999999999,-0.251148,-0.0879799999999999,0.117256
464,0.269955,0.961297,-0.055009,-0.2383239999999999,0.345969,0.155549
465,0.265209,0.963004,-0.047766,0.434681,1.218164,0.536887
466,0.267142,0.962336,-0.050386,0.058176,0.200078,-0.337203
467,0.270862,0.96147,-0.046948,0.153439,0.409472,-0.556888
468,0.2869,0.957295,-0.035623,0.202022,1.801021,0.03785
469,0.305438,0.95129,-0.041837,0.254377,-0.330806,0.132123
470,0.317697,0.94645,-0.057418,0.203757,-0.424721,-0.035218
471,0.320816,0.943904,-0.078212,0.242508,-0.323268,-0.0048259999999999
472,0.314865,0.944453,-0.094145,0.011902,-0.223948,0.14717
473,0.299928,0.9495,-0.092124,-0.101259,-0.202903,0.283073
474,0.279244,0.957689,-0.069637,0.111686,0.239729,0.108303
475,0.260352,0.964353,-0.047271,-0.010565,0.370745,-0.062226
476,0.242496,0.969513,-0.035142,-0.0141789999999999,0.185471,-0.109038
477,0.223827,0.974145,-0.03063,0.2065469999999999,-0.2654809999999999,-0.169245
478,0.2077989999999999,0.977627,-0.032555,0.314555,-0.4355729999999999,-0.095176
479,0.196988,0.97979,-0.034661,0.312091,-0.4950029999999999,-0.0817789999999999
480,0.189237,0.981293,-0.035331,0.265246,-0.357971,-0.022302
481,0.183581,0.982242,-0.038653,0.101789,-0.289935,-0.0015689999999999
482,0.181923,0.982116,-0.048444,0.098992,-0.202178,0.027326
483,0.1854559999999999,0.98022,-0.0690679999999999,0.00209,-0.259212,0.071082
484,0.19367,0.975387,-0.105395,-0.028647,-0.368606,0.113329
485,0.207954,0.965045,-0.159494,0.05053,-0.416232,0.000559
486,0.228184,0.946985,-0.226156,-0.0514409999999999,-0.2993719999999999,-0.100123
487,0.249542,0.92377,-0.290473,-0.017669,-0.0991539999999999,-0.006601
488,0.2780849999999999,0.897201,-0.343068,-0.06907,0.236878,-0.0648909999999999
489,0.3150199999999999,0.867978,-0.383891,-0.114718,0.468112,-0.081837
490,0.344355,0.842733,-0.413785,0.1675309999999999,0.755671,0.182416
491,0.367084,0.825422,-0.428863,0.399593,0.513155,0.143249
492,0.387105,0.817808,-0.425836,0.520015,0.407153,-0.065252
493,0.413263,0.815229,-0.405724,0.384329,0.411013,-0.292854
494,0.440031,0.814646,-0.377785,0.091753,0.223303,-0.322257
495,0.466255,0.813743,-0.347024,0.0451279999999999,0.073663,-0.274665
496,0.48,0.817539,-0.318162,0.108196,-0.05997,-0.2847429999999999
497,0.470922,0.8297540000000001,-0.299562,-0.071371,-0.2153739999999999,-0.099485
498,0.441879,0.8483569999999999,-0.291598,0.017716,-0.540343,0.114764
499,0.400023,0.869294,-0.290355,0.1222849999999999,-0.6430520000000001,0.188914
500,0.3547119999999999,0.8904559999999999,-0.285069,0.120554,-0.6846909999999999,0.184773
501,0.310809,0.910936,-0.2712719999999999,0.033048,-0.6413439999999999,0.116747
502,0.269675,0.931034,-0.245859,0.0263459999999999,-0.39774,0.021113
503,0.236076,0.948437,-0.211497,-0.021979,-0.143826,0.008631
504,0.213094,0.959571,-0.18388,0.0152389999999999,0.073388,-0.048558
505,0.206023,0.964304,-0.1663369999999999,-0.041457,0.094579,0.012162
506,0.204525,0.96736,-0.1496019999999999,-0.120281,-0.023222,0.00945
507,0.206917,0.968705,-0.1370819999999999,-0.043068,-0.138902,-0.051181
508,0.2141739999999999,0.96879,-0.1247809999999999,-0.310717,-0.489649,-0.435522
509,0.224098,0.968857,-0.105319,-0.358772,-0.465256,-0.545545
510,0.2379619999999999,0.96658,-0.095357,-0.052904,0.611118,-0.000773
511,0.25956,0.960443,-0.100861,-0.340355,0.866614,0.4624029999999999
512,0.268304,0.958489,-0.096467,-0.33442,0.856376,0.655809
513,0.257573,0.961329,-0.097451,-0.137822,0.872258,0.774438
514,0.246402,0.96138,-0.1226,0.398679,-0.069519,0.399517
515,0.24025,0.960113,-0.143035,0.320236,0.051484,0.410064
516,0.248275,0.959493,-0.133146,0.033631,0.248515,0.005156
517,0.256084,0.957734,-0.1310059999999999,0.216359,0.396011,-0.246436
518,0.2574889999999999,0.957884,-0.127093,0.227924,0.425401,0.050082
519,0.246067,0.963215,-0.107997,-0.173206,0.08009,0.163844
520,0.216664,0.972481,-0.085625,0.1937819999999999,0.249565,0.106042
521,0.180503,0.981397,-0.065366,0.231408,0.186633,0.194623
522,0.146899,0.988333,-0.040154,0.471555,0.11268,-0.018012
523,0.117842,0.9929,-0.015998,0.562685,-0.038356,-0.176491
524,0.092566,0.995703,-0.000131,0.570337,-0.1118079999999999,-0.247092
525,0.068812,0.99759,0.00853,0.369283,-0.1335609999999999,-0.24849
526,0.04803,0.998759,0.0129449999999999,0.291585,-0.091899,-0.146642
527,0.032293,0.999415,0.011022,0.290476,-0.2379099999999999,-0.096303
528,0.024806,0.999689,0.000599,0.230413,-0.4646399999999999,-0.016499
529,0.024145,0.999473,-0.021571,0.2128239999999999,-0.578849,0.17361
530,0.029092,0.99786,-0.058516,0.353141,-0.4832109999999999,-0.040148
531,0.044424,0.993646,-0.10339,0.339228,-0.146783,0.163143
532,0.080035,0.986035,-0.146028,-0.085376,0.548419,0.201707
533,0.130594,0.970679,-0.2018,-0.318811,0.678232,0.080828
534,0.176339,0.949476,-0.259607,-0.0662929999999999,1.109347,0.440714
535,0.218325,0.932194,-0.288695,-0.4415159999999999,1.005505,0.145567
536,0.247665,0.919649,-0.304799,-0.261734,0.665754,0.150686
537,0.267235,0.910964,-0.314209,0.147362,0.123735,0.115219
538,0.279994,0.905316,-0.319378,0.0752309999999999,0.153598,0.090404
539,0.295386,0.898561,-0.324547,0.087213,0.1827369999999999,0.002342
540,0.310577,0.891769,-0.329067,0.16864,0.098633,-0.144047
541,0.320115,0.886893,-0.333082,0.158218,-0.188391,-0.035967
542,0.321554,0.8846219999999999,-0.337702,0.031825,-0.393777,0.175822
543,0.320455,0.882532,-0.344154,-0.06365,-0.39892,0.365257
544,0.320356,0.8808229999999999,-0.348594,-0.095961,-0.42721,0.38726
545,0.319869,0.880499,-0.349858,-0.125594,-0.4762479999999999,0.309423
546,0.319924,0.881549,-0.347153,-0.142037,-0.474308,0.227708
547,0.317696,0.883677,-0.3437739999999999,-0.149284,-0.404444,0.241875
548,0.309264,0.886194,-0.344983,-0.089446,-0.271707,0.3876
549,0.291779,0.889782,-0.350925,-0.033173,-0.1414,0.487476
550,0.269819,0.8967430000000001,-0.35078,-0.00662,-0.014648,0.59341
551,0.25419,0.907516,-0.334364,0.106238,0.17949,0.256209
552,0.254017,0.916284,-0.309669,0.249202,0.646552,-0.357033
553,0.27111,0.914462,-0.300425,0.330559,0.6495489999999999,-0.479071
554,0.297878,0.905133,-0.3033119999999999,0.112598,-0.249311,-0.534792
555,0.318157,0.8962629999999999,-0.309008,-0.156292,-0.175804,-0.323637
556,0.326307,0.89143,-0.3144409999999999,0.5005970000000001,1.251927,0.2239719999999999
557,0.342694,0.89008,-0.300525,0.727359,2.155773,0.780216
558,0.360646,0.8833629999999999,-0.299332,-0.733845,0.256636,0.669953
559,0.361602,0.8777790000000001,-0.314236,-0.517349,-0.575151,0.711499
560,0.351991,0.8813409999999999,-0.315176,-0.5060899999999999,-0.720208,0.463232
561,0.325152,0.8932209999999999,-0.31053,-0.483599,-0.631197,0.3574199999999999
562,0.281584,0.908229,-0.30956,0.019976,-0.128398,0.2016349999999999
563,0.236533,0.925784,-0.294911,0.547433,0.522092,0.67104
564,0.20117,0.946317,-0.253001,0.5503560000000001,0.55443,0.5045569999999999
565,0.180835,0.961107,-0.208727,0.3448449999999999,0.343352,0.340685
566,0.174249,0.968859,-0.1759069999999999,-0.153284,-0.185076,0.16254
567,0.170903,0.972872,-0.155909,-0.279912,-0.029039,0.088572
568,0.162741,0.976043,-0.144396,-0.227926,-0.0267779999999999,0.082613
569,0.149895,0.979259,-0.136298,-0.0707179999999999,-0.0333209999999999,0.182166
570,0.1371869999999999,0.982458,-0.126298,-0.034282,-0.072835,0.223252
571,0.125792,0.985495,-0.1138859999999999,0.005739,-0.0934509999999999,0.184992
572,0.118594,0.98754,-0.1034099999999999,-0.06827,-0.085502,0.196519
573,0.115072,0.988679,-0.09626,-0.047674,-0.050493,0.177299
574,0.11124,0.989666,-0.090449,0.071164,0.0784639999999999,0.149806
575,0.101672,0.991449,-0.081763,0.260923,0.04653,0.060249
576,0.0869419999999999,0.993826,-0.068892,0.3487119999999999,0.032023,-0.0463579999999999
577,0.068844,0.996246,-0.0524409999999999,0.278813,0.0562289999999999,-0.150196
578,0.048253,0.998093,-0.0384399999999999,0.291728,-0.015656,-0.147443
579,0.031414,0.99903,-0.030768,0.269337,-0.043693,-0.0447329999999999
580,0.018843,0.999388,-0.02936,0.2535719999999999,0.065126,0.022829
581,0.011804,0.99931,-0.035134,0.2893739999999999,0.157199,0.051125
582,0.010365,0.998664,-0.050564,0.431239,0.290292,0.103695
583,0.018987,0.99691,-0.07619,0.283869,0.050545,0.205432
584,0.0422899999999999,0.993147,-0.108927,0.096702,-0.398207,0.245829
585,0.079639,0.985838,-0.14757,0.041699,-0.363813,0.143282
586,0.126079,0.973837,-0.189053,0.029499,0.1308079999999999,0.097363
587,0.177062,0.95617,-0.233205,-0.126861,0.691963,0.0551039999999999
588,0.225733,0.934037,-0.276796,-0.117365,0.704757,0.131486
589,0.271794,0.912318,-0.306268,-0.125187,0.580861,0.111856
590,0.307189,0.893236,-0.328269,-0.086486,0.355574,0.172293
591,0.326684,0.8794270000000001,-0.3462389999999999,0.061515,0.151883,0.20273
592,0.335757,0.871967,-0.356283,0.21304,0.113278,0.166417
593,0.339617,0.865892,-0.367271,0.135923,0.0446149999999999,0.140297
594,0.3416599999999999,0.859906,-0.379244,0.065796,-0.030744,0.1252619999999999
595,0.343415,0.853967,-0.390901,0.003783,-0.101907,0.0960559999999999
596,0.342863,0.849397,-0.401207,-0.062193,-0.177384,0.139977
597,0.33735,0.848424,-0.407883,-0.0566799999999999,-0.1764119999999999,0.146653
598,0.329443,0.8516610000000001,-0.407601,-0.123495,-0.328773,0.170464
599,0.320153,0.8590110000000001,-0.399499,-0.089425,-0.413027,0.205788
600,0.31231,0.867624,-0.386897,-0.050866,-0.474817,0.242411
601,0.308708,0.874676,-0.373683,-0.034309,-0.484005,0.311305
602,0.3063,0.8809459999999999,-0.360711,-0.0243789999999999,-0.403361,0.369942
603,0.302537,0.888547,-0.3448969999999999,-0.037981,-0.173398,0.298342
604,0.298725,0.896056,-0.328398,-0.021106,0.217531,0.2009109999999999
605,0.298961,0.901642,-0.312508,0.177388,0.3176719999999999,0.217583
606,0.3055179999999999,0.906508,-0.291376,-0.045157,0.035051,0.031397
607,0.312202,0.91284,-0.263153,-0.5005569999999999,0.107042,-0.723587
608,0.313296,0.923806,-0.220057,0.404157,1.7546,0.476786
609,0.313436,0.930357,-0.19024,-0.10262,1.021929,-0.007804
610,0.3150219999999999,0.928609,-0.19607,-0.544193,-0.005803,0.425746
611,0.297856,0.931662,-0.208052,0.028926,-0.3406119999999999,0.475889
612,0.273811,0.936318,-0.21985,-0.1199099999999999,-0.251213,0.425386
613,0.252831,0.939097,-0.232746,-0.294534,-0.119441,0.29108
614,0.240054,0.941297,-0.237342,-0.2793,0.1246819999999999,0.139121
615,0.2354969999999999,0.94554,-0.224708,-0.001198,0.164461,0.242423
616,0.237898,0.949901,-0.202707,-0.047743,-0.123973,0.1476839999999999
617,0.240777,0.953257,-0.182552,-0.055642,-0.07017,0.143215
618,0.240153,0.956265,-0.166978,-0.006892,-0.0698059999999999,0.2097639999999999
619,0.237405,0.958889,-0.1554589999999999,-0.1036619999999999,-0.168499,0.170916
620,0.233782,0.961336,-0.145523,-0.101855,-0.171144,0.141068
621,0.230837,0.963143,-0.138088,-0.036715,-0.114601,0.100063
622,0.229669,0.963497,-0.13756,0.007423,-0.057766,0.108171
623,0.229088,0.963026,-0.141766,0.048194,-0.156095,0.148099
624,0.228942,0.962371,-0.146375,0.0822,-0.317718,0.118421
625,0.22882,0.961641,-0.151279,0.181642,-0.328905,-0.007794
626,0.228309,0.961018,-0.155941,0.149331,-0.150105,0.0016899999999999
627,0.228397,0.96037,-0.159754,-0.072422,-0.13313,0.05836
628,0.2288599999999999,0.959026,-0.167007,-0.111078,-0.315563,0.116744
629,0.230657,0.956558,-0.178304,0.043406,-0.338287,0.088017
630,0.2337679999999999,0.953594,-0.189764,0.129315,-0.269329,0.094717
631,0.237581,0.950629,-0.199643,0.177442,-0.25109,0.080747
632,0.24105,0.947527,-0.209969,0.235681,-0.227464,0.1633069999999999
633,0.248205,0.942571,-0.223503,0.220255,-0.205983,0.1207049999999999
634,0.265211,0.932485,-0.2452219999999999,0.180239,-0.072423,0.1039869999999999
635,0.292462,0.914712,-0.278867,0.133411,0.138495,-0.099764
636,0.324762,0.8879239999999999,-0.32576,0.141821,0.525574,-0.207946
637,0.361196,0.8531790000000001,-0.376327,0.075114,0.941529,0.18634
638,0.394467,0.819908,-0.414905,-0.315365,0.373421,-0.009655
639,0.421062,0.790176,-0.4453399999999999,-0.218746,0.172318,-0.131946
640,0.447289,0.768306,-0.457862,-0.078942,0.190556,-0.216042
641,0.472757,0.755732,-0.453177,0.039206,0.155889,-0.027353
642,0.495519,0.74751,-0.442367,0.132929,0.138888,-0.038697
643,0.506893,0.74362,-0.435992,0.188176,0.157396,-0.0541049999999999
644,0.507029,0.747045,-0.429936,0.175008,-0.119863,0.08849
645,0.499531,0.758734,-0.41808,0.088054,-0.160238,0.115697
646,0.487843,0.774366,-0.402946,-0.0604139999999999,-0.273802,0.136482
647,0.472772,0.791456,-0.387405,-0.181146,-0.416075,0.064621
648,0.451627,0.810768,-0.372408,-0.139707,-0.4459609999999999,0.031298
649,0.423023,0.8322379999999999,-0.3583739999999999,-0.079624,-0.4571,0.011114
650,0.388886,0.854619,-0.344084,0.0201259999999999,-0.092534,0.007917
651,0.353488,0.8766010000000001,-0.326524,0.0580419999999999,0.04767,-0.01303
652,0.325251,0.895435,-0.303987,0.073125,0.135266,-0.033019
653,0.305542,0.910544,-0.278486,-0.16394,-0.144308,-0.017001
654,0.292981,0.921573,-0.254685,-0.216244,-0.130451,-0.005249
655,0.287661,0.929262,-0.231782,-0.3633909999999999,-0.084993,0.0592809999999999
656,0.281683,0.936566,-0.208563,-0.335851,-0.117047,0.122549
657,0.273918,0.943925,-0.184321,-0.333336,-0.192933,0.16508
658,0.265216,0.951398,-0.156531,-0.376864,-0.298001,0.0667789999999999
659,0.255725,0.958253,-0.127885,-0.331881,-0.280961,-0.074996
660,0.245272,0.964214,-0.10066,-0.103075,0.125783,-0.043154
661,0.23608,0.968268,-0.081986,0.195622,0.95852,0.09105
662,0.227841,0.970834,-0.074623,0.450702,0.949744,0.356834
663,0.22459,0.971455,-0.076377,0.569706,0.185695,0.133139
664,0.226078,0.97024,-0.086726,0.4824029999999999,0.857671,0.1819869999999999
665,0.235461,0.968008,-0.086704,0.370221,1.2372379999999998,0.399997
666,0.259176,0.961904,-0.086989,-0.386435,0.3119,-0.1038829999999999
667,0.277738,0.955552,-0.0989,0.329318,-0.226289,-0.083748
668,0.287477,0.950978,-0.114004,0.2356099999999999,-0.372762,-0.053644
669,0.289034,0.948485,-0.129743,0.024091,-0.416915,0.17317
670,0.285525,0.947639,-0.143017,-0.123415,-0.221992,0.158734
671,0.27708,0.949527,-0.147051,-0.1176869999999999,-0.134875,0.321947
672,0.264215,0.955438,-0.131629,-0.062555,0.02497,0.187491
673,0.25025,0.961673,-0.112063,0.022653,0.028867,0.061465
674,0.2401869999999999,0.965243,-0.103029,0.052919,-0.041735,-0.074904
675,0.234134,0.967099,-0.099489,0.045727,-0.2696199999999999,-0.1329789999999999
676,0.229636,0.968172,-0.0995429999999999,0.172112,-0.356325,-0.196264
677,0.231153,0.966894,-0.108089,0.191943,-0.2372179999999999,-0.134953
678,0.2422389999999999,0.961521,-0.129596,0.008234,0.058651,0.075122
679,0.257459,0.952828,-0.160727,-0.157194,-0.188408,0.180274
680,0.273605,0.939934,-0.204117,-0.207046,-0.268227,0.111923
681,0.291888,0.920871,-0.258451,-0.27878,-0.0793799999999999,0.077894
682,0.314827,0.8954200000000001,-0.314812,-0.228401,0.072643,0.119118
683,0.345986,0.862482,-0.369347,-0.298852,0.239859,0.117119
684,0.382343,0.825498,-0.41517,-0.353412,0.292834,0.17962
685,0.411913,0.792419,-0.449889,0.379148,0.306107,0.194686
686,0.431253,0.763387,-0.4808949999999999,0.344412,0.415049,0.00328
687,0.455329,0.7431760000000001,-0.4902689999999999,0.392815,0.441333,-0.188808
688,0.4810359999999999,0.73339,-0.480357,0.1706369999999999,0.5027550000000001,-0.344197
689,0.4996239999999999,0.732849,-0.4618529999999999,0.169397,0.266709,-0.200668
690,0.505304,0.7431409999999999,-0.438645,0.1556,-0.038918,-0.096329
691,0.500355,0.761989,-0.411118,0.141002,-0.153041,-0.0491029999999999
692,0.482044,0.786555,-0.3859599999999999,0.034206,-0.331965,-0.093075
693,0.454064,0.81366,-0.363019,0.084312,-0.595276,-0.094134
694,0.416479,0.8394510000000001,-0.349096,0.2393739999999999,-0.734241,0.089437
695,0.372925,0.862821,-0.341273,0.405547,-0.832425,0.291285
696,0.331352,0.886286,-0.323579,0.251915,-0.829615,0.277055
697,0.294523,0.910629,-0.2898469999999999,0.140948,-0.7513880000000001,0.189994
698,0.266081,0.930059,-0.2533579999999999,0.022142,0.4174899999999999,-0.175368
699,0.258675,0.938296,-0.229536,0.037651,0.4139529999999999,-0.038653
700,0.265925,0.942113,-0.204222,-0.370265,0.2735849999999999,0.0968909999999999
701,0.269196,0.947526,-0.172417,-0.618164,-0.042726,0.0606159999999999
702,0.265889,0.953435,-0.142352,-0.5011180000000001,-0.03951,0.042361
703,0.25944,0.958357,-0.119343,-0.420496,0.173204,0.387134
704,0.250963,0.962336,-0.1045339999999999,-0.27643,0.751287,0.322628
705,0.244242,0.964625,-0.099218,0.168799,0.7164659999999999,0.286596
706,0.238978,0.966306,-0.0956149999999999,0.235357,0.7025170000000001,-0.324567
707,0.2378809999999999,0.967247,-0.088571,0.4598569999999999,1.759986,0.176156
708,0.255111,0.962257,-0.094761,-0.015258,0.352044,0.1678049999999999
709,0.271254,0.954768,-0.121814,0.10132,-0.645015,0.36684
710,0.28071,0.948289,-0.148153,0.158102,-0.730379,0.189108
711,0.285256,0.945389,-0.157695,0.132056,-0.697159,0.156413
712,0.2855,0.945912,-0.154076,-0.074212,0.059001,0.224419
713,0.28012,0.949579,-0.140825,-0.126769,0.2811329999999999,0.2249929999999999
714,0.268665,0.956441,-0.114194,-0.048236,0.471431,0.095013
715,0.256677,0.961931,-0.093842,-0.078164,0.202513,0.088609
716,0.246311,0.965246,-0.087355,0.063183,-0.115454,0.010939
717,0.236107,0.967617,-0.089271,0.2082139999999999,-0.332257,-0.031395
718,0.229246,0.968726,-0.094954,0.219438,-0.437262,-0.0513159999999999
719,0.2281969999999999,0.967899,-0.10534,0.13075,-0.4753449999999999,-0.04679
720,0.229503,0.965995,-0.119084,0.1172069999999999,-0.312934,-0.084727
721,0.237007,0.962038,-0.1353099999999999,0.116005,0.007658,-0.028203
722,0.248996,0.955754,-0.156634,-0.039524,-0.044316,0.162982
723,0.261484,0.946244,-0.190391,-0.181177,-0.4314729999999999,0.2443
724,0.274345,0.931395,-0.2392429999999999,-0.268257,-0.485289,0.097733
725,0.289902,0.909368,-0.2983389999999999,-0.177902,-0.215658,0.0140069999999999
726,0.311277,0.878967,-0.36128,0.081698,0.195664,0.011991
727,0.34523,0.840111,-0.418365,-0.141205,0.496025,0.190002
728,0.38509,0.804106,-0.452901,-0.074681,0.491839,0.157719
729,0.4096329999999999,0.776559,-0.478702,0.327534,0.5143340000000001,0.118152
730,0.432618,0.755376,-0.492187,0.143706,0.344386,-0.074601
731,0.4638,0.741467,-0.484888,0.209616,0.292377,-0.305426
732,0.494001,0.730326,-0.47179,0.201388,0.4293109999999999,-0.337047
733,0.514324,0.727001,-0.4549069999999999,0.206395,0.298848,-0.110858
734,0.522726,0.736187,-0.429867,0.128,-0.0608029999999999,-0.0709419999999999
735,0.518187,0.7539359999999999,-0.403811,0.027971,-0.142501,-0.034941
736,0.504288,0.774474,-0.381946,-0.048295,-0.2238909999999999,-0.040417
737,0.481821,0.797078,-0.364026,-0.047602,-0.552845,0.0316899999999999
738,0.450495,0.820298,-0.3523719999999999,0.064169,-0.664521,0.119111
739,0.411272,0.8457549999999999,-0.339934,0.152419,-0.650045,0.172682
740,0.368167,0.874627,-0.315407,0.083661,-0.28553,-0.011543
741,0.326864,0.902714,-0.279763,0.124964,-0.313618,-0.047187
742,0.293904,0.924153,-0.244054,0.1082559999999999,0.228878,-0.0182449999999999
743,0.280939,0.93556,-0.214013,-0.401636,-0.039777,0.029794
744,0.275968,0.942844,-0.18678,-0.464261,-0.087146,-0.007877
745,0.271201,0.948404,-0.164252,-0.481955,-0.217325,0.00199
746,0.266028,0.952624,-0.147431,-0.372534,-0.177539,-0.142837
747,0.262651,0.955854,-0.13175,-0.212358,0.242709,0.103933
748,0.261233,0.958214,-0.116549,-0.146441,0.487755,0.3346429999999999
749,0.259535,0.95957,-0.1089329999999999,0.134325,0.56962,0.238892
750,0.256176,0.96089,-0.1051859999999999,0.33054,0.630754,0.2615119999999999
751,0.2521489999999999,0.961184,-0.1120099999999999,0.290438,0.015776,-0.150121
752,0.250851,0.961957,-0.108217,0.7870520000000001,1.251452,0.110872
753,0.27383,0.957262,-0.093086,-0.064021,0.995969,-0.069557
754,0.294183,0.950593,-0.099136,-0.132348,0.2324659999999999,0.063522
755,0.300419,0.947004,-0.113717,0.053112,-0.320478,0.104058
756,0.294456,0.946889,-0.129218,0.036797,-0.331486,0.229728
757,0.280734,0.950044,-0.136396,-0.180056,-0.326219,0.373807
758,0.262548,0.956687,-0.125768,-0.2511489999999999,-0.030677,0.239584
759,0.245946,0.963839,-0.102588,-0.199514,0.107847,0.121143
760,0.233688,0.968648,-0.084327,-0.170715,0.2093,0.008597
761,0.2250889999999999,0.971214,-0.077967,-0.099433,-0.007545,-0.007375
762,0.21528,0.973231,-0.080472,0.06745,-0.348903,0.024121
763,0.206661,0.9746,-0.086293,0.157383,-0.4205069999999999,0.03957
764,0.2033029999999999,0.974854,-0.091258,0.258062,-0.353394,0.004344
765,0.205277,0.973999,-0.095851,0.238815,-0.306351,0.0183669999999999
766,0.212465,0.971495,-0.105148,0.169921,-0.290785,-0.007691
767,0.222334,0.967033,-0.124155,-0.056975,-0.312446,0.091394
768,0.234946,0.960069,-0.1518779999999999,-0.0793529999999999,-0.295915,0.143958
769,0.2500179999999999,0.949781,-0.188165,-0.077502,-0.302153,0.187646
770,0.267515,0.934773,-0.233742,-0.021009,-0.360264,0.107338
771,0.287938,0.913762,-0.286584,-0.069112,-0.275731,0.018868
772,0.313361,0.8861680000000001,-0.341337,0.005914,0.134523,-0.124529
773,0.34804,0.853873,-0.386999,0.280454,0.5720609999999999,-0.02273
774,0.389463,0.8249790000000001,-0.409546,-0.1198099999999999,0.625674,0.161438
775,0.423833,0.800897,-0.423,0.1895859999999999,0.227652,0.069393
776,0.453193,0.777573,-0.4358859999999999,0.209298,0.306503,0.06081
777,0.482807,0.7561899999999999,-0.441671,0.202267,0.575063,-0.06312
778,0.505318,0.7422270000000001,-0.440172,0.491676,0.61727,-0.187513
779,0.5154489999999999,0.7407020000000001,-0.4308979999999999,0.4145439999999999,0.477743,-0.169597
780,0.520874,0.7508130000000001,-0.406165,0.184372,0.104839,-0.099405
781,0.5223979999999999,0.7669279999999999,-0.372722,-0.125425,-0.08396,-0.093068
782,0.51526,0.784799,-0.344379,-0.210451,-0.297433,-0.1172599999999999
783,0.495393,0.804441,-0.32781,-0.150956,-0.437986,-0.087076
784,0.463371,0.8271459999999999,-0.317988,0.011467,-0.726377,0.110514
785,0.420459,0.8528969999999999,-0.309482,0.124997,-0.738258,0.2071869999999999
786,0.3698099999999999,0.8808370000000001,-0.295576,0.2133659999999999,-0.649987,0.212247
787,0.31774,0.908493,-0.271442,0.211328,-0.1963349999999999,0.0205419999999999
788,0.273735,0.931251,-0.240498,0.177971,-0.038185,-0.006786
789,0.24906,0.945388,-0.21026,-0.0851659999999999,-0.005141,0.011422
790,0.241379,0.952507,-0.185648,-0.4441989999999999,-0.127754,-0.050237
791,0.2417889999999999,0.955428,-0.169395,-0.603773,-0.143889,-0.052133
792,0.242109,0.95718,-0.15871,-0.468076,-0.332287,0.002704
793,0.2410409999999999,0.95867,-0.151161,-0.303892,-0.350012,-0.0299
794,0.240294,0.960117,-0.142944,-0.115446,0.252499,0.303146
795,0.237974,0.962205,-0.132394,0.215334,0.930663,0.337121
796,0.238031,0.96337,-0.123522,0.273108,0.7351770000000001,0.429201
797,0.237632,0.964185,-0.117802,-0.259162,0.153323,0.182103
798,0.2325199999999999,0.964702,-0.123625,0.470254,0.586842,-0.658083
799,0.24133,0.964654,-0.105834,0.478305,2.059684,0.338927
800,0.263678,0.95873,-0.106348,0.281992,-0.06928,0.1756839999999999
801,0.275737,0.953331,-0.122996,0.289723,-0.174125,0.176066
802,0.273477,0.951066,-0.143818,0.20069,-0.388657,0.171101
803,0.260202,0.953095,-0.154611,-0.124642,-0.383682,0.374459
804,0.237904,0.960713,-0.142941,-0.0934789999999999,-0.359242,0.364575
805,0.215088,0.969488,-0.117594,-0.052994,-0.250814,0.239542
806,0.196762,0.975818,-0.095196,0.071091,0.228787,-0.033573
807,0.182697,0.979717,-0.0823059999999999,0.072171,0.1136359999999999,-0.007294
808,0.169497,0.982405,-0.07842,0.111479,-0.090285,-0.015284
809,0.1584819999999999,0.983939,-0.082126,0.27917,-0.5143810000000001,0.017444
810,0.151108,0.984799,-0.085646,0.334213,-0.510357,-0.031374
811,0.147759,0.985093,-0.0880789999999999,0.286506,-0.345521,-0.032908
812,0.146581,0.984849,-0.09266,0.185465,-0.266557,0.036935
813,0.146384,0.983733,-0.104119,0.110895,-0.271773,-0.003578
814,0.1478539999999999,0.981313,-0.123136,0.148777,-0.274541,0.097227
815,0.151382,0.977402,-0.14754,0.165925,-0.328827,0.262896
816,0.157016,0.971169,-0.1793789999999999,0.102948,-0.4932939999999999,0.183651
817,0.1685289999999999,0.96035,-0.222092,0.107839,-0.419029,0.049789
818,0.184568,0.942832,-0.277492,0.161105,-0.11135,-0.093922
819,0.207009,0.918417,-0.337132,0.281074,0.352168,-0.079936
820,0.243288,0.8923110000000001,-0.380252,0.030378,0.953865,0.243167
821,0.273595,0.8693719999999999,-0.411506,-0.08286,0.7814760000000001,0.221015
822,0.2904739999999999,0.848485,-0.442377,-0.134118,0.5517529999999999,0.051966
823,0.31567,0.8359969999999999,-0.4488439999999999,0.2126199999999999,0.623781,0.033973
824,0.351448,0.82988,-0.433339,0.179573,0.610152,-0.07278
825,0.383504,0.8271719999999999,-0.410743,0.193888,0.435309,-0.2862929999999999
826,0.408008,0.8253379999999999,-0.390316,0.510418,0.004802,-0.17014
827,0.4250029999999999,0.825433,-0.371526,0.361008,-0.156,-0.091807
828,0.4236729999999999,0.8316969999999999,-0.358862,0.178332,-0.2309429999999999,-0.025568
829,0.40223,0.84335,-0.356329,-0.024026,-0.459729,0.099264
830,0.36617,0.857865,-0.360537,-0.059026,-0.634003,0.159121
831,0.325917,0.8739129999999999,-0.36063,-0.099217,-0.650524,0.170552
832,0.285039,0.890208,-0.355362,-0.097997,-0.694056,0.255875
833,0.242813,0.90622,-0.346132,-0.10051,-0.663788,0.286515
834,0.199876,0.921758,-0.332282,-0.022874,-0.399633,0.234275
835,0.161833,0.936748,-0.310344,-0.015883,-0.159068,0.041683
836,0.136143,0.949693,-0.282044,0.231136,0.083724,0.1057289999999999
837,0.135996,0.958433,-0.250823,0.257712,0.1212029999999999,-0.021669
838,0.15208,0.962238,-0.225763,-0.096233,0.186184,-0.222738
839,0.169459,0.963375,-0.2078289999999999,-0.040171,0.124638,-0.170406
840,0.186851,0.962506,-0.196647,-0.176261,-0.291592,-0.365731
841,0.201431,0.960718,-0.190908,-0.311569,-0.165094,-0.6160979999999999
842,0.212652,0.956553,-0.199461,0.387201,1.423024,0.067182
843,0.222966,0.952983,-0.205205,0.188609,1.1436959999999998,0.206029
844,0.209588,0.958807,-0.191733,-0.297616,0.596842,0.983008
845,0.177458,0.96944,-0.169396,0.089693,1.009793,0.677529
846,0.149326,0.972037,-0.181233,0.352902,0.546655,0.432897
847,0.140247,0.971284,-0.192192,0.314221,0.111953,0.632897
848,0.146145,0.971352,-0.187392,0.0614049999999999,-0.244363,-0.227738
849,0.153938,0.971521,-0.18014,0.120003,-0.048272,-0.311895
850,0.155575,0.972883,-0.171157,-0.002407,0.263155,0.101562
851,0.145277,0.979345,-0.14063,-0.301969,-0.057745,0.346883
852,0.120226,0.986933,-0.107272,-0.25255,0.030004,0.263659
853,0.092898,0.991744,-0.088392,-0.061358,0.146608,0.213453
854,0.064875,0.994975,-0.076251,0.071355,0.1305589999999999,0.259753
855,0.0398209999999999,0.996838,-0.068755,0.4167979999999999,-0.130123,0.045837
856,0.017067,0.997453,-0.069246,0.568473,-0.269044,-0.015181
857,-0.00447,0.997577,-0.069412,0.556579,-0.202335,-0.156067
858,-0.022503,0.997539,-0.066385,0.486431,-0.205974,-0.241476
859,-0.032548,0.997392,-0.064409,0.472627,-0.201433,-0.2194809999999999
860,-0.033451,0.997046,-0.069137,0.53458,-0.139914,-0.105316
861,-0.025685,0.995645,-0.089609,0.713032,-0.030969,0.11648
862,-0.00863,0.992183,-0.1244859999999999,0.826074,0.107457,0.24703
863,0.021678,0.98595,-0.165627,0.352453,-0.347736,0.255822
864,0.059778,0.975203,-0.213086,0.313711,0.066164,0.009686
865,0.102835,0.959255,-0.263162,0.059519,0.918858,0.039056
866,0.142567,0.941556,-0.305197,-0.13126,1.112399,0.221106
867,0.174571,0.92743,-0.330754,-0.165889,0.683181,0.19228
868,0.19931,0.915639,-0.349112,-0.003066,0.25474,0.211387
869,0.2157329999999999,0.90621,-0.36365,0.112072,0.184045,0.348178
870,0.229059,0.8975879999999999,-0.376653,0.160498,0.08784,0.416754
871,0.239721,0.890917,-0.385745,0.2380929999999999,0.046064,0.300662
872,0.2487329999999999,0.886324,-0.39059,0.176194,-0.063433,0.123592
873,0.258659,0.881149,-0.395817,0.1136549999999999,-0.077102,0.092838
874,0.267119,0.8765120000000001,-0.400466,0.05243,-0.122728,0.181823
875,0.270914,0.874819,-0.401617,-0.047311,-0.272097,0.229711
876,0.268567,0.8774,-0.397542,-0.067593,-0.398656,0.3099719999999999
877,0.262673,0.883135,-0.388684,-0.070229,-0.400591,0.37254
878,0.255214,0.8898280000000001,-0.378246,-0.099544,-0.4118159999999999,0.352977
879,0.246966,0.895648,-0.369894,-0.1713589999999999,-0.378833,0.344396
880,0.235502,0.8997,-0.36753,-0.165037,-0.336833,0.5371779999999999
881,0.219602,0.904132,-0.3664969999999999,-0.108152,-0.243808,0.654399
882,0.20247,0.910659,-0.360145,-0.171922,-0.10437,0.66584
883,0.187728,0.92122,-0.34075,-0.171431,0.0410899999999999,0.4285489999999999
884,0.182703,0.93255,-0.311399,0.076346,0.508841,-0.213336
885,0.189579,0.937316,-0.2923989999999999,0.5620689999999999,0.769288,-0.528325
886,0.2082429999999999,0.933347,-0.2923969999999999,0.634484,0.321032,-0.367606
887,0.226326,0.926725,-0.299927,0.375709,-0.285398,-0.437408
888,0.23393,0.921681,-0.309483,0.311313,-0.252919,-0.143429
889,0.238314,0.921263,-0.307374,0.352613,-0.091902,0.2197739999999999
890,0.250463,0.927129,-0.278746,0.7204689999999999,1.129573,0.485014
891,0.269241,0.934432,-0.23312,0.21431,1.7193310000000002,0.399929
892,0.281556,0.933638,-0.221459,-0.649277,0.227998,-0.1418839999999999
893,0.277937,0.931823,-0.233354,-0.628447,-0.454956,-0.0277089999999999
894,0.262708,0.933556,-0.243837,-0.5442020000000001,-0.548683,0.018938
895,0.2351889999999999,0.938555,-0.252584,-0.323553,-0.601733,0.108068
896,0.198315,0.946267,-0.255436,0.2944219999999999,-0.182305,0.373768
897,0.162231,0.9561,-0.244034,0.502976,-0.0014789999999999,0.5620729999999999
898,0.134295,0.968661,-0.208947,0.644788,0.1358319999999999,0.626641
899,0.115867,0.979941,-0.162138,0.055276,0.168497,0.225233
900,0.106694,0.987005,-0.120144,-0.019979,0.118601,0.071667
901,0.102174,0.99046,-0.09245,-0.077775,0.112659,-0.0223879999999999
902,0.094669,0.992303,-0.079805,-0.118549,-0.021783,0.019899
903,0.084776,0.993656,-0.073874,-0.005476,-0.08794,-0.009775
904,0.075145,0.994951,-0.0665,0.072834,-0.067446,0.134966
905,0.066997,0.996407,-0.051775,0.0512279999999999,-0.103692,0.179201
906,0.060153,0.997613,-0.033871,0.055951,-0.086113,0.157742
907,0.055219,0.998288,-0.019219,0.025424,-0.078442,0.141747
908,0.050253,0.998693,-0.009117,-0.095542,-0.1253109999999999,0.034447
909,0.041249,0.999147,-0.000794,-0.082143,-0.095613,0.010346
910,0.026804,0.999611,0.007492,0.078009,-0.049828,-0.016876
911,0.007754,0.999814,0.017562,0.217573,0.034594,-0.023299
912,-0.014458,0.999472,0.029029,0.337136,0.0632409999999999,-0.031135
913,-0.036696,0.998551,0.039336,0.383391,0.028229,0.002839
914,-0.055874,0.997364,0.046265,0.403973,0.027218,0.058486
915,-0.069269,0.996298,0.050881,0.295602,0.021188,0.1070619999999999
916,-0.079467,0.995365,0.054124,0.381637,0.1099049999999999,0.064803
917,-0.088745,0.994587,0.054028,0.372238,0.269833,-0.036313
918,-0.099632,0.99387,0.047885,0.624641,0.278896,-0.091693
919,-0.1067299999999999,0.993635,0.03598,0.632761,0.231539,-0.080475
920,-0.103239,0.994468,0.019294,0.553007,0.1036609999999999,-0.0141509999999999
921,-0.087057,0.996194,-0.0040729999999999,0.316748,-0.113351,0.088485
922,-0.0587669999999999,0.997674,-0.034505,0.106146,-0.323907,0.082661
923,-0.022233,0.997276,-0.070316,0.0617539999999999,-0.288337,-0.044904
924,0.019955,0.994143,-0.106199,0.067951,0.115186,-0.027956
925,0.0661419999999999,0.988156,-0.138454,-0.066813,0.5174890000000001,-0.020024
926,0.109843,0.980085,-0.165423,-0.054102,0.52112,-0.015638
927,0.148692,0.971546,-0.184356,0.1655319999999999,0.4316979999999999,-0.14824
928,0.179,0.963457,-0.199264,0.050858,0.231459,-0.092667
929,0.199976,0.956374,-0.212969,0.091818,0.117265,0.008456
930,0.215434,0.94964,-0.227528,0.1062819999999999,-0.013269,0.073033
931,0.2283329999999999,0.943092,-0.2417409999999999,0.081512,-0.143425,0.064953
932,0.242747,0.936002,-0.254893,0.029943,-0.2350739999999999,0.049479
933,0.258553,0.927645,-0.269484,-0.0705799999999999,-0.303912,0.052778
934,0.273019,0.918951,-0.284581,-0.077966,-0.300894,0.071187
935,0.287315,0.910872,-0.296241,0.034127,-0.142897,0.1241829999999999
936,0.302602,0.903342,-0.303977,0.0188389999999999,-0.135367,0.131919
937,0.317197,0.8969209999999999,-0.308085,-0.019574,-0.175226,0.115122
938,0.330898,0.891617,-0.309068,-0.086406,-0.2510989999999999,0.138658
939,0.34247,0.887599,-0.308026,-0.097978,-0.247081,0.137616
940,0.348624,0.886716,-0.303635,-0.050085,-0.297421,0.331391
941,0.347026,0.890985,-0.292772,0.0146069999999999,-0.216745,0.320146
942,0.339441,0.899379,-0.27549,0.033667,-0.133448,0.247048
943,0.331269,0.909459,-0.251283,0.176895,0.055889,-0.06996
944,0.327781,0.917114,-0.226844,0.346627,0.3322449999999999,-0.2745599999999999
945,0.331395,0.918895,-0.214024,0.35554,0.3747,-0.34315
946,0.338339,0.916322,-0.214188,0.202677,-0.056673,-0.224807
947,0.34263,0.914561,-0.214894,-0.068994,-0.357752,-0.35255
948,0.340291,0.915551,-0.2143929999999999,-0.294224,0.243979,-0.461281
949,0.339865,0.920035,-0.195,1.0287110000000002,1.988245,0.720757
950,0.355407,0.918416,-0.173764,-0.6579430000000001,1.097422,0.393597
951,0.359419,0.916287,-0.176729,-0.834226,-0.147228,0.330157
952,0.348666,0.920464,-0.176563,-0.493579,-0.448159,0.277286
953,0.327415,0.929346,-0.170624,-0.318428,-0.521463,0.185548
954,0.300197,0.937557,-0.1756839999999999,-0.0499379999999999,-0.141674,0.010385
955,0.273935,0.943789,-0.1849849999999999,-0.07908,-0.01224,0.151004
956,0.257407,0.951473,-0.1686369999999999,-0.071631,0.077336,0.2747159999999999
957,0.257029,0.955995,-0.141445,-0.154398,-0.106813,0.138287
958,0.264307,0.956959,-0.119863,-0.1922859999999999,-0.005452,0.118749
959,0.268677,0.957991,-0.100314,-0.142975,0.011843,-0.0517549999999999
960,0.268561,0.959645,-0.08338,-0.061988,-0.001424,-0.045725
961,0.26465,0.961881,-0.068853,0.010069,-0.0632,-0.006861
962,0.260208,0.963898,-0.056461,-0.019943,-0.115022,0.034947
963,0.254976,0.965783,-0.047398,-0.009966,-0.100488,0.087864
964,0.251698,0.966894,-0.041954,-0.046376,-0.127798,0.130134
965,0.250759,0.967348,-0.03678,0.003285,-0.116763,0.091391
966,0.251819,0.967284,-0.030747,0.0189639999999999,-0.132521,-0.073394
967,0.253037,0.967101,-0.026149,0.1897579999999999,-0.181502,-0.2126969999999999
968,0.255836,0.96645,-0.022765,0.266961,-0.196476,-0.2470099999999999
969,0.259243,0.965564,-0.021787,0.233342,-0.199176,-0.164996
970,0.2617489999999999,0.964745,-0.027406,0.0374,-0.2434619999999999,-0.1107619999999999
971,0.261783,0.964284,-0.040274,0.017117,-0.171514,-0.072306
972,0.259789,0.964094,-0.055026,0.011268,-0.090422,0.066425
973,0.256896,0.963994,-0.0686789999999999,-0.016921,-0.128865,0.166457
974,0.2518849999999999,0.964411,-0.080377,-0.042779,-0.294551,0.110909
975,0.246238,0.965165,-0.088426,0.033211,-0.337495,0.084901
976,0.242055,0.965835,-0.092569,0.152782,-0.3158559999999999,0.047464
977,0.2413239999999999,0.965558,-0.097244,0.1794069999999999,-0.196241,-0.0088659999999999
978,0.244467,0.96378,-0.106583,0.137872,-0.0669299999999999,-0.049743
979,0.252119,0.959686,-0.124239,0.1031059999999999,-0.0538789999999999,-0.044768
980,0.266162,0.951458,-0.154539,-0.034824,-0.143871,-0.138506
981,0.2886039999999999,0.936617,-0.198627,-0.0572649999999999,-0.129031,-0.094418
982,0.317954,0.914578,-0.2498989999999999,-0.021842,0.1307559999999999,-0.1151369999999999
983,0.3521019999999999,0.886157,-0.301243,-0.280111,0.515409,-0.002682
984,0.389817,0.8547899999999999,-0.3426,-0.317826,0.546776,0.038675
985,0.424213,0.826691,-0.369625,-0.252033,0.309128,0.2979699999999999
986,0.451425,0.8045220000000001,-0.38595,-0.005441,0.18472,-0.091757
987,0.4788189999999999,0.789248,-0.384471,0.155352,0.266492,-0.211553
988,0.504376,0.782357,-0.365404,0.332401,0.423164,-0.330671
989,0.524525,0.780179,-0.340869,0.382762,0.311786,-0.261761
990,0.537004,0.7812279999999999,-0.318288,0.263396,0.121268,-0.192546
991,0.541041,0.7859550000000001,-0.299243,0.108983,-0.140325,-0.125104
992,0.535866,0.794795,-0.28486,-0.05822,-0.2264199999999999,-0.098929
993,0.5201020000000001,0.808679,-0.2748239999999999,-0.144889,-0.370661,0.018461
994,0.4941109999999999,0.8271799999999999,-0.267626,-0.119782,-0.556504,0.113513
995,0.461078,0.8483,-0.260364,-0.063556,-0.654636,0.155857
996,0.424637,0.870663,-0.248246,-0.007767,-0.562893,0.103959
997,0.387658,0.8932889999999999,-0.227491,-0.032097,-0.4246149999999999,-0.033419
998,0.353354,0.914588,-0.196635,-0.039222,-0.211417,-0.176534
999,0.324777,0.931845,-0.161802,-0.072519,0.053064,-0.245119
1000,0.302822,0.94366,-0.13342,-0.088298,0.243123,-0.255267
1001,0.2883969999999999,0.95115,-0.1101619999999999,-0.152136,-0.060358,-0.149345
1002,0.281147,0.9555,-0.089284,-0.2393989999999999,-0.265207,-0.083323
1003,0.281388,0.956799,-0.073152,-0.275254,-0.147946,-0.153044
1004,0.286309,0.95645,-0.0567929999999999,-0.259438,-0.088027,-0.171326
1005,0.292846,0.955683,-0.030124,-0.150359,0.391974,0.09151
1006,0.294909,0.95552,-0.002091,0.013837,0.592179,0.148728
1007,0.294609,0.95561,0.0030329999999999,0.146828,0.330339,0.033725
1008,0.286283,0.958121,-0.0064819999999999,0.5339689999999999,0.377191,0.061139
1009,0.276712,0.960856,-0.013455,0.41561,0.4812369999999999,-0.039356
1010,0.274215,0.961569,-0.013618,0.283204,0.8278139999999999,0.164802
1011,0.292003,0.956413,0.001743,-0.2431289999999999,0.695946,-0.033862
1012,0.311583,0.950213,0.002449,-0.032943,-0.182391,-0.0259779999999999
1013,0.319342,0.947579,-0.0104879999999999,0.150338,-0.4510729999999999,-0.063471
1014,0.320245,0.947015,-0.024485,-0.008859,-0.482706,-0.011892
1015,0.316445,0.948099,-0.031055,-0.21911,-0.307138,0.119266
1016,0.30968,0.950457,-0.026887,-0.318866,-0.045977,0.143296
1017,0.301678,0.953239,-0.017905,-0.2594869999999999,0.103127,0.0972809999999999
1018,0.293191,0.955978,-0.011783,-0.0949179999999999,0.144989,0.108386
1019,0.284732,0.958565,-0.008666,-0.080996,0.001991,0.070769
1020,0.273796,0.961766,-0.006002,0.040291,-0.271703,-0.031519
1021,0.2621989999999999,0.965008,-0.002612,0.197045,-0.330929,-0.2097909999999999
1022,0.25376,0.967264,0.000796,0.295297,-0.2456,-0.259051
1023,0.250513,0.96811,0.000182,0.250357,-0.170945,-0.186004
1024,0.251742,0.967765,-0.0072099999999999,0.196485,-0.168357,-0.107368
1025,0.256179,0.966409,-0.020531,0.089097,-0.254159,-0.037758
1026,0.2640969999999999,0.963585,-0.041856,0.091234,-0.202446,-0.008223
1027,0.27562,0.958321,-0.075163,0.090576,-0.2210619999999999,0.01573
1028,0.291526,0.948482,-0.1240579999999999,0.011056,-0.296169,-0.12405
1029,0.311465,0.932174,-0.18449,-0.125994,-0.274978,-0.150822
1030,0.3342989999999999,0.90941,-0.247416,0.099783,0.19908,-0.118612
1031,0.367016,0.879192,-0.3038369999999999,0.102863,0.664768,0.060475
1032,0.404897,0.8493120000000001,-0.338709,-0.316992,0.618232,0.175761
1033,0.428902,0.8248690000000001,-0.36828,-0.126916,0.367162,0.151758
1034,0.448726,0.802379,-0.393484,-0.146297,0.374837,0.0505279999999999
1035,0.473129,0.786378,-0.397186,0.051407,0.3372489999999999,-0.066315
1036,0.498593,0.7740090000000001,-0.390271,0.139682,0.155693,-0.307071
1037,0.52065,0.768756,-0.371396,0.158091,0.161863,-0.361545
1038,0.534864,0.772813,-0.341579,0.125322,0.101134,-0.260121
1039,0.536559,0.7845270000000001,-0.3108329999999999,0.250229,-0.071652,-0.202351
1040,0.5265489999999999,0.800638,-0.2858699999999999,0.0289019999999999,-0.194544,-0.125522
1041,0.506069,0.819164,-0.269926,-0.138393,-0.4401819999999999,-0.082231
1042,0.475534,0.839298,-0.263517,-0.116128,-0.6694680000000001,0.021681
1043,0.4392689999999999,0.861075,-0.2560989999999999,-0.044173,-0.73838,0.046245
1044,0.400571,0.884439,-0.239386,0.004001,-0.6137630000000001,0.005927
1045,0.362493,0.908127,-0.2095219999999999,-0.037969,-0.303787,-0.176663
1046,0.3290869999999999,0.9284,-0.172541,-0.0685429999999999,0.080435,-0.182424
1047,0.307482,0.941272,-0.139485,-0.020281,0.292722,-0.076396
1048,0.302085,0.947328,-0.106341,-0.334785,-0.054444,-0.078809
1049,0.302965,0.950014,-0.075352,-0.519762,-0.07506,-0.104458
1050,0.302402,0.951778,-0.051609,-0.5322,-0.152584,-0.093899
1051,0.300431,0.953276,-0.0316,-0.339448,-0.167769,0.0068049999999999
1052,0.296551,0.954937,-0.012034,-0.160763,-0.111553,0.103541
1053,0.2898409999999999,0.957059,0.004836,0.014359,0.274814,0.076097
1054,0.282029,0.959309,0.013307,0.435897,0.596126,-0.122575
1055,0.278443,0.960414,0.008159,0.479263,0.715672,0.136006
1056,0.283583,0.958933,-0.004594,0.158388,0.433859,-0.084517
1057,0.29494,0.955511,-0.001042,0.183866,1.230554,0.419331
1058,0.318762,0.947812,0.005973,-0.092734,0.353717,-0.144797
1059,0.339341,0.94065,-0.004194,0.1968369999999999,-0.176352,-0.194231
1060,0.347088,0.937581,-0.02155,0.152302,-0.402867,-0.208812
1061,0.343356,0.938482,-0.036758,0.1376619999999999,-0.389745,-0.044769
1062,0.3331639999999999,0.941733,-0.0462,-0.02016,-0.2310849999999999,0.136379
1063,0.318087,0.946918,-0.046475,-0.02933,-0.214252,0.227933
1064,0.302498,0.952407,-0.0375389999999999,0.082695,0.0749669999999999,0.140566
1065,0.289409,0.956833,-0.026583,0.008915,0.181595,0.079104
1066,0.27986,0.959798,-0.021438,-0.047149,-0.1155289999999999,-0.153321
1067,0.272669,0.961917,-0.01899,-0.001703,-0.337421,-0.268348
1068,0.268202,0.963144,-0.020373,0.144427,-0.403573,-0.281828
1069,0.271782,0.961974,-0.027092,0.2309949999999999,-0.298201,-0.208779
1070,0.28486,0.957636,-0.0422019999999999,0.182089,-0.205866,-0.077977
1071,0.302278,0.950854,-0.067063,0.09381,-0.159625,-0.002303
1072,0.32111,0.941009,-0.106694,-0.0938919999999999,-0.315109,0.071461
1073,0.340414,0.926642,-0.159524,-0.2242489999999999,-0.348654,-0.030341
1074,0.359271,0.907357,-0.218225,-0.29227,-0.129296,-0.039207
1075,0.381605,0.881267,-0.278821,-0.104399,0.230321,-0.017352
1076,0.41116,0.847491,-0.335711,-0.172864,0.546354,0.13637
1077,0.4337399999999999,0.816387,-0.381285,-0.181375,0.485234,0.132276
1078,0.446262,0.7938069999999999,-0.413179,0.059933,0.5285810000000001,-0.010725
1079,0.4642729999999999,0.783035,-0.413886,0.026815,0.307266,-0.1975029999999999
1080,0.492506,0.775936,-0.394154,0.066759,0.314076,-0.305415
1081,0.519129,0.7690670000000001,-0.372875,0.112203,0.332511,-0.2540929999999999
1082,0.536539,0.768716,-0.3481329999999999,0.007162,-0.0286649999999999,-0.129818
1083,0.542855,0.778273,-0.315585,-0.063119,-0.101973,-0.162717
1084,0.535663,0.794783,-0.285271,-0.012714,-0.156325,-0.086403
1085,0.517047,0.815109,-0.261256,0.019101,-0.447952,-0.055013
1086,0.485776,0.839576,-0.243163,0.166918,-0.6122810000000001,-0.049531
1087,0.447422,0.864741,-0.228104,0.261104,-0.610117,-0.0128469999999999
1088,0.408416,0.8890319999999999,-0.206913,-0.016891,-0.464152,-0.117489
1089,0.372161,0.911578,-0.174691,-0.110275,-0.245761,-0.215309
1090,0.340541,0.929733,-0.140085,-0.139979,-0.019927,-0.255377
1091,0.323067,0.939798,-0.111368,-0.4622729999999999,0.0381839999999999,-0.102209
1092,0.315114,0.945031,-0.087259,-0.515767,-0.06733,-0.0778259999999999
1093,0.31066,0.948427,-0.063007,-0.5886140000000001,-0.107973,-0.076626
1094,0.304208,0.951656,-0.04244,-0.379694,-0.338543,0.038656
1095,0.298612,0.953992,-0.026893,-0.288831,-0.376295,0.090461
1096,0.29644,0.954967,-0.0124879999999999,-0.254997,-0.34315,0.1004549999999999
1097,0.298011,0.954559,-0.000951,0.305444,0.957733,0.139394
1098,0.305317,0.952175,0.011817,0.528454,0.998311,0.122018
1099,0.326821,0.945024,0.010623,0.45623,0.4845109999999999,-0.49982
1100,0.346862,0.93782,0.0132629999999999,0.418305,1.337113,0.1131099999999999
1101,0.365299,0.930672,0.020023,0.1031609999999999,0.5958939999999999,-0.0966679999999999
1102,0.383844,0.92337,0.0068239999999999,-0.053171,-0.252182,-0.031802
1103,0.391191,0.920246,-0.010569,0.263762,-0.384769,-0.066259
1104,0.387412,0.921555,-0.025355,0.287011,-0.301163,-0.0214129999999999
1105,0.375815,0.926032,-0.034969,-0.0177979999999999,-0.2005829999999999,0.168956
1106,0.358725,0.932738,-0.036197,0.1668339999999999,-0.260573,-0.007947
1107,0.34102,0.939677,-0.026573,0.274275,-0.007411,-0.031197
1108,0.327736,0.94471,-0.010317,-0.041344,0.111122,-0.034696
1109,0.318338,0.947973,-0.001233,-0.0759669999999999,-0.235983,-0.172519
1110,0.310147,0.950684,-0.001605,-0.016934,-0.3043679999999999,-0.17381
1111,0.303696,0.952743,-0.006626,0.130768,-0.562454,-0.2103699999999999
1112,0.302706,0.95296,-0.015156,0.143202,-0.503558,-0.1814079999999999
1113,0.309484,0.950443,-0.029517,0.0915779999999999,-0.253498,-0.065728
1114,0.323024,0.945153,-0.048313,-0.054713,-0.067453,-0.056347
1115,0.339642,0.937526,-0.075387,-0.190793,-0.169703,0.0618059999999999
1116,0.356272,0.927041,-0.116872,-0.249857,-0.340646,-0.095683
1117,0.372637,0.912118,-0.170812,-0.339694,-0.133249,-0.155513
1118,0.388693,0.892275,-0.2296909999999999,-0.120291,0.1617559999999999,-0.005157
1119,0.407396,0.8665209999999999,-0.288385,-0.11197,0.48286,0.045359
1120,0.430122,0.8365819999999999,-0.3392949999999999,-0.203758,0.5142479999999999,0.193253
1121,0.443258,0.8126979999999999,-0.378206,0.13003,0.303909,0.00783
1122,0.45291,0.7960649999999999,-0.401433,0.179109,0.309571,-0.089336
1123,0.476799,0.786255,-0.393016,0.299766,0.584046,-0.413533
1124,0.509365,0.778131,-0.3674969999999999,0.10651,0.380636,-0.473491
1125,0.536887,0.770752,-0.343058,0.0721059999999999,0.317276,-0.378896
1126,0.550134,0.768335,-0.3271239999999999,0.041953,0.0521149999999999,-0.066401
1127,0.550615,0.774331,-0.311816,0.026488,-0.179391,0.0007509999999999
1128,0.539937,0.787767,-0.296457,-0.041142,-0.2491929999999999,0.006342
1129,0.518159,0.808158,-0.279978,-0.094972,-0.529944,-0.0146539999999999
1130,0.486762,0.833043,-0.262861,0.074196,-0.497564,-0.047472
1131,0.448925,0.8597950000000001,-0.24334,0.260395,-0.424492,-0.017097
1132,0.408955,0.88607,-0.218245,0.305919,-0.398109,-0.1157089999999999
1133,0.371175,0.909685,-0.186272,0.222179,-0.230821,-0.126076
1134,0.340285,0.928058,-0.151356,0.079057,0.073849,-0.1562309999999999
1135,0.326706,0.936881,-0.124541,-0.3226469999999999,-0.046775,-0.132798
1136,0.322338,0.940791,-0.104897,-0.541607,-0.293513,-0.02932
1137,0.32391,0.941951,-0.0883419999999999,-0.73492,-0.313533,0.0324029999999999
1138,0.3246949999999999,0.942557,-0.078444,-0.562,-0.397223,0.0190259999999999
1139,0.322023,0.94404,-0.071292,-0.330781,-0.4503109999999999,0.170719
1140,0.317505,0.94635,-0.060041,-0.250138,-0.11528,0.105146
1141,0.311981,0.948532,-0.054288,-0.240723,0.726716,0.135327
1142,0.307311,0.950339,-0.049068,0.254594,0.429666,0.066783
1143,0.306225,0.950646,-0.049907,0.115147,0.058845,-0.341649
1144,0.30423,0.951442,-0.046841,0.836852,1.456075,-0.0507699999999999
1145,0.3155679999999999,0.9482,-0.036416,0.411224,-0.02631,-0.081473
1146,0.333396,0.941472,-0.049694,0.361001,-0.25208,-0.192326
1147,0.342742,0.936308,-0.076475,0.397034,-0.306791,-0.1682
1148,0.3440829999999999,0.933029,-0.105144,0.192919,-0.116257,-0.009236
1149,0.336305,0.93297,-0.12829,0.08435,-0.067248,0.202036
1150,0.320446,0.939354,-0.122155,-0.062435,-0.124076,0.36416
1151,0.2982849999999999,0.950005,-0.092244,-0.017508,-0.01925,-0.002208
1152,0.279001,0.957615,-0.071585,0.00405,0.019573,-0.007592
1153,0.261169,0.963407,-0.060256,0.033585,-0.148633,-0.110124
1154,0.243326,0.968572,-0.051514,0.163641,-0.321126,-0.195999
1155,0.229454,0.972148,-0.047657,0.183144,-0.472545,-0.139889
1156,0.22216,0.973786,-0.04877,0.207421,-0.37909,-0.114499
1157,0.217962,0.974558,-0.0521679999999999,0.196253,-0.128153,-0.032137
1158,0.217221,0.974375,-0.058315,0.0145449999999999,-0.251063,0.0875809999999999
1159,0.219792,0.972782,-0.073344,-0.08791,-0.364613,0.081645
1160,0.224906,0.968938,-0.1028119999999999,-0.1129829999999999,-0.360951,0.162199
1161,0.233117,0.96115,-0.147789,-0.124901,-0.372435,0.132851
1162,0.2434619999999999,0.947835,-0.205738,-0.18586,-0.281362,0.114827
1163,0.25518,0.928974,-0.2681139999999999,-0.061225,-0.124958,0.1405809999999999
1164,0.271392,0.905547,-0.326078,-0.080138,0.224489,-0.048144
1165,0.3009449999999999,0.877142,-0.374231,-0.170818,0.493829,-0.074728
1166,0.3356969999999999,0.851492,-0.402821,0.096157,1.008051,0.243367
1167,0.366148,0.833045,-0.414689,0.412539,0.724694,0.126268
1168,0.393554,0.817064,-0.421329,0.474381,0.5045310000000001,-0.008389
1169,0.41596,0.805601,-0.421877,0.118555,0.016817,-0.431822
1170,0.4417109999999999,0.800906,-0.404273,0.1269839999999999,0.140286,-0.568383
1171,0.463502,0.804213,-0.372026,0.211211,0.2352469999999999,-0.370284
1172,0.474149,0.81323,-0.337394,0.204958,-0.03938,-0.235253
1173,0.4677229999999999,0.8298620000000001,-0.304234,0.185506,-0.142347,-0.160747
1174,0.4436,0.852707,-0.275871,0.130069,-0.417297,0.0824049999999999
1175,0.403803,0.876337,-0.262623,0.132818,-0.613214,0.280079
1176,0.355084,0.8988010000000001,-0.257033,0.005328,-0.630033,0.222502
1177,0.304556,0.920361,-0.245307,-0.025457,-0.558178,0.08036
1178,0.260424,0.94013,-0.219838,-0.084139,-0.43659,-0.088832
1179,0.2305559999999999,0.954823,-0.1874839999999999,-0.130443,-0.128895,-0.113603
1180,0.218046,0.961498,-0.167246,-0.02931,0.0316209999999999,-0.043432
1181,0.222767,0.962788,-0.15299,-0.3341409999999999,0.0052439999999999,-0.002421
1182,0.234902,0.962614,-0.134866,-0.2731409999999999,-0.119764,0.077036
1183,0.250193,0.961388,-0.1145839999999999,-0.3155159999999999,-0.372338,0.072974
1184,0.266175,0.95909,-0.096377,-0.411469,-0.65332,-0.132367
1185,0.279649,0.956612,-0.081751,-0.272904,-0.629814,-0.2365469999999999
1186,0.29397,0.952253,-0.082389,0.160681,1.160707,-0.23974
1187,0.301992,0.949256,-0.087786,0.057597,1.640023,0.737337
1188,0.295152,0.951756,-0.0839,0.336043,1.307292,0.515601
1189,0.28786,0.95352,-0.089053,0.306744,0.522845,0.5950810000000001
1190,0.282986,0.953543,-0.1032839999999999,0.29427,0.460092,0.55293
1191,0.294998,0.9497,-0.10507,0.0530389999999999,-0.1067589999999999,-0.297975
1192,0.308981,0.945579,-0.102005,0.283945,0.39663,-0.45488
1193,0.309934,0.943751,-0.115192,0.200991,0.17423,0.004627
1194,0.296566,0.948173,-0.114067,-0.03416,-0.0144419999999999,0.118965
1195,0.271538,0.958172,-0.090376,-0.001809,0.123692,0.201353
1196,0.238904,0.96945,-0.055554,0.08472,0.186953,0.234723
1197,0.208064,0.977791,-0.025055,0.064657,0.056435,0.111954
1198,0.179917,0.983664,-0.005272,0.369582,-0.045981,-0.007759
1199,0.151603,0.988422,0.0055829999999999,0.5312279999999999,-0.325382,-0.193541
1200,0.126591,0.991868,0.012834,0.432918,-0.464143,-0.250337
1201,0.106458,0.994151,0.017946,0.285144,-0.479137,-0.28647
1202,0.093968,0.995379,0.019572,0.104564,-0.276064,-0.2728219999999999
1203,0.089019,0.995873,0.017481,-0.04605,-0.219597,-0.146296
1204,0.089573,0.995944,0.008043,0.019558,-0.246691,0.157408
1205,0.095897,0.995241,-0.017106,0.275181,-0.134569,0.112245
1206,0.111843,0.992003,-0.058439,0.100269,0.142565,0.31355
