,gravity.x,gravity.y,gravity.z,userAcceleration.x,userAcceleration.y,userAcceleration.z
0,-0.1225049999999999,0.936806,-0.3276989999999999,0.302116,-0.081368,0.296632
1,-0.093489,0.951022,-0.294648,0.207121,-0.1549549999999999,0.569673
2,-0.085661,0.962242,-0.258365,-0.105348,-0.186378,0.975803
3,-0.102358,0.966645,-0.234778,-1.918577,1.248199,-0.5351199999999999
4,-0.170692,0.940807,-0.292826,-0.618844,1.884862,-1.623342
5,-0.27081,0.887389,-0.373098,1.096737,1.7360240000000002,-0.2242829999999999
6,-0.195314,0.895325,-0.400306,-0.302153,0.8204040000000001,-1.103585
7,-0.137894,0.905779,-0.400686,-0.237228,-0.164858,0.53681
8,-0.160068,0.8976780000000001,-0.410551,0.24683,-0.116825,0.420652
9,-0.1844589999999999,0.893128,-0.410239,0.298595,0.323836,-0.430749
10,-0.195271,0.8810030000000001,-0.430932,0.00948,0.020181,-0.327766
11,-0.1976109999999999,0.8689530000000001,-0.45373,-0.190695,-0.180141,-0.246115
12,-0.2151829999999999,0.852598,-0.476207,-0.12228,-0.412336,0.156002
13,-0.2494989999999999,0.827458,-0.503054,0.00455,-0.385075,0.4479689999999999
14,-0.287997,0.801303,-0.5243760000000001,0.013888,-0.515521,0.772637
15,-0.323357,0.778349,-0.5381560000000001,0.166024,-0.412184,0.722483
16,-0.35643,0.751895,-0.5546270000000001,0.321015,-0.1840089999999999,0.7028810000000001
17,-0.388552,0.7098810000000001,-0.587449,0.231325,0.174976,0.328843
18,-0.407625,0.671516,-0.618795,0.197725,0.3296739999999999,-0.29661
19,-0.416409,0.666298,-0.618587,-0.008487,0.022606,0.164852
20,-0.405438,0.677384,-0.613816,-0.091174,0.048354,0.103333
21,-0.382886,0.7025560000000001,-0.599845,-0.115116,-0.117122,-0.022378
22,-0.354224,0.735641,-0.577372,-0.182809,-0.489806,-0.192343
23,-0.318708,0.776616,-0.543409,-0.029085,-0.378636,-0.291125
24,-0.277075,0.8235520000000001,-0.494967,0.095373,-0.2211199999999999,-0.257292
25,-0.232875,0.8664870000000001,-0.441554,0.198237,0.161864,0.0080209999999999
26,-0.187265,0.898229,-0.3976389999999999,0.128168,0.199733,0.01002
27,-0.145404,0.921098,-0.361158,0.2868989999999999,-0.216676,0.31677
28,-0.119614,0.940884,-0.316905,0.026825,-0.191815,0.7914680000000001
29,-0.113856,0.953925,-0.277603,-0.298116,0.218438,0.5058739999999999
30,-0.136183,0.954223,-0.266293,-0.854463,0.8125,0.248806
31,-0.205037,0.927779,-0.311745,-0.881008,2.7955330000000003,-1.305015
32,-0.263791,0.883609,-0.386845,0.976514,0.283886,0.779805
33,-0.199518,0.8854879999999999,-0.419647,0.438043,0.5070439999999999,-0.69806
34,-0.181634,0.8865290000000001,-0.42553,0.441446,-0.092401,0.27105
35,-0.182357,0.896667,-0.403403,0.494384,-0.053436,0.191733
36,-0.174923,0.914764,-0.364155,0.346249,0.15889,-0.058773
37,-0.1738579999999999,0.926783,-0.332938,-0.09781,0.22225,-0.1754089999999999
38,-0.176276,0.931358,-0.318588,-0.099191,0.1163859999999999,-0.207337
39,-0.180038,0.931778,-0.315238,-0.10991,-0.18483,-0.305535
40,-0.188634,0.927699,-0.322167,-0.257395,-0.525492,-0.164405
41,-0.200709,0.918084,-0.341814,-0.163289,-0.5827720000000001,0.0686659999999999
42,-0.210746,0.904004,-0.3719719999999999,0.043845,-0.5493439999999999,0.262567
43,-0.2235579999999999,0.8861450000000001,-0.405917,0.01703,-0.299124,0.624071
44,-0.253635,0.867041,-0.428846,0.004017,-0.260306,0.833707
45,-0.315334,0.841211,-0.439237,0.075359,-0.314416,0.492795
46,-0.395861,0.797875,-0.454631,0.354983,0.060371,-0.05132
47,-0.442885,0.746486,-0.4965989999999999,0.3383469999999999,0.3412219999999999,-0.909651
48,-0.44426,0.7297130000000001,-0.519762,-0.0273279999999999,0.94114,0.2203389999999999
49,-0.452739,0.7201529999999999,-0.525744,0.040233,1.019425,0.032488
50,-0.447191,0.720549,-0.529933,-0.321486,0.323289,-0.034459
51,-0.418191,0.734297,-0.534717,-0.188819,-0.114745,-0.017407
52,-0.381378,0.757383,-0.5300199999999999,0.054764,-0.307722,-0.088357
53,-0.34342,0.78964,-0.508459,0.26209,-0.398054,-0.172052
54,-0.305923,0.8263290000000001,-0.472854,0.2457119999999999,-0.492314,-0.317108
55,-0.266775,0.8641110000000001,-0.426781,0.240088,-0.501089,-0.310478
56,-0.226638,0.8976149999999999,-0.378048,0.193405,-0.524157,0.351666
57,-0.1816019999999999,0.931546,-0.315027,0.1197579999999999,-0.092694,0.52073
58,-0.13321,0.959874,-0.246769,0.007447,-0.074682,0.447712
59,-0.086674,0.978217,-0.188621,0.081578,-0.649436,0.3926159999999999
60,-0.059333,0.98854,-0.1388039999999999,-0.0826799999999999,-0.8269799999999999,0.402231
61,-0.051309,0.992816,-0.108091,-0.386771,-0.681185,-0.241579
62,-0.085379,0.986411,-0.140368,-0.8418059999999999,0.064813,0.964328
63,-0.149333,0.973013,-0.1759089999999999,-0.671086,1.667246,-1.208414
64,-0.216702,0.952659,-0.2132619999999999,0.230633,3.131677,-1.11439
65,-0.202578,0.946578,-0.2509,1.078203,2.175736,-0.0771179999999999
66,-0.173559,0.928898,-0.327146,-0.530787,0.067394,0.004651
67,-0.188771,0.929479,-0.3169119999999999,0.548756,0.182688,-0.230787
68,-0.202379,0.940606,-0.272583,0.6459520000000001,0.022849,-0.10817
69,-0.181276,0.957908,-0.222598,0.371355,0.132927,-0.034894
70,-0.1539029999999999,0.972273,-0.176061,0.3330869999999999,-0.14836,-0.029032
71,-0.139907,0.981682,-0.129329,0.324142,-0.314659,0.056437
72,-0.140929,0.985983,-0.089303,0.003127,-0.2220219999999999,-0.245413
73,-0.150846,0.987106,-0.05355,0.110395,-0.227386,-0.4922109999999999
74,-0.163431,0.986323,-0.021363,0.165644,-0.31837,-0.544585
75,-0.180222,0.983609,-0.00583,0.202957,-0.357007,-0.286848
76,-0.205071,0.978658,-0.013212,0.269554,-0.4302109999999999,0.137098
77,-0.229321,0.972912,-0.029212,0.304928,-0.436108,0.200782
78,-0.252681,0.966276,-0.049636,0.306437,-0.449659,0.284926
79,-0.276209,0.958162,-0.0750639999999999,0.199518,0.277648,0.282919
80,-0.2938739999999999,0.950033,-0.10524,0.142538,1.469569,0.234634
81,-0.294832,0.94524,-0.13998,-0.253538,2.284008,-0.108418
82,-0.279375,0.938845,-0.201292,-0.8344860000000001,1.107435,0.323042
83,-0.252735,0.92629,-0.279483,0.18079,0.629328,0.157916
84,-0.228461,0.922243,-0.311886,0.350074,0.819319,-0.280628
85,-0.222675,0.919027,-0.325276,0.495975,0.990442,-0.179287
86,-0.219493,0.914311,-0.34038,0.375407,0.8349260000000001,0.024828
87,-0.2087989999999999,0.909695,-0.358968,0.163114,0.503803,0.248219
88,-0.201865,0.904853,-0.37482,-0.126367,-0.160499,0.614963
89,-0.2078969999999999,0.8991389999999999,-0.385132,-0.088383,-0.355881,0.671341
90,-0.223744,0.893915,-0.388399,0.213536,-0.583856,0.5115529999999999
91,-0.242882,0.890225,-0.385366,0.327111,-0.699307,0.450643
92,-0.259727,0.8890100000000001,-0.377096,0.309715,-0.732776,0.466314
93,-0.270135,0.891494,-0.363681,0.1089869999999999,-0.747024,0.451694
94,-0.274513,0.8989659999999999,-0.3413219999999999,0.114097,-0.742549,0.409864
95,-0.272275,0.909929,-0.312881,0.0716059999999999,-0.7458819999999999,0.304321
96,-0.261739,0.922867,-0.282503,0.140417,-0.4883729999999999,0.114992
97,-0.2456969999999999,0.936154,-0.2514909999999999,0.084748,0.034076,-0.00565
98,-0.231688,0.94578,-0.227638,-0.158876,0.326086,-0.135018
99,-0.22391,0.947511,-0.228223,-0.492963,1.030776,-0.622653
100,-0.230303,0.941006,-0.2479219999999999,-0.370008,0.8853790000000001,-0.705036
101,-0.253195,0.926429,-0.278602,0.050985,-0.312446,-0.6829149999999999
102,-0.26934,0.914351,-0.30235,0.24311,-0.356307,-0.5712149999999999
103,-0.274391,0.910611,-0.3090239999999999,0.326133,-0.419934,-0.313168
104,-0.287707,0.905133,-0.31298,0.451571,1.963839,-0.1454089999999999
105,-0.292615,0.896891,-0.331604,1.298902,1.284094,0.682984
106,-0.263026,0.903194,-0.339199,0.987833,-0.374172,1.7673150000000002
107,-0.238641,0.911018,-0.3362949999999999,0.3375329999999999,-1.046501,1.579077
108,-0.247848,0.919106,-0.30629,-0.603669,0.075157,-0.7365109999999999
109,-0.312613,0.908738,-0.276524,-0.133249,0.6758109999999999,-0.540492
110,-0.33274,0.909944,-0.247555,1.045829,0.6910229999999999,0.443585
111,-0.28256,0.93584,-0.2106199999999999,0.495069,0.453763,0.284518
112,-0.232846,0.956377,-0.176416,0.261578,0.362913,0.1298619999999999
113,-0.200435,0.967127,-0.156488,-0.004323,-0.006235,0.251474
114,-0.184335,0.973299,-0.13677,-0.035422,-0.333346,0.0707909999999999
115,-0.181178,0.97745,-0.1084599999999999,-0.015584,-0.363558,-0.195419
116,-0.182567,0.979901,-0.08038,0.223216,-0.311123,-0.176349
117,-0.181177,0.981851,-0.056038,0.054026,-0.3190699999999999,-0.11599
118,-0.176956,0.983701,-0.031847,0.100662,-0.329221,0.011492
119,-0.173255,0.984873,-0.001787,0.131446,-0.304133,0.03145
120,-0.170796,0.984743,0.033264,0.117283,-0.2250989999999999,0.051926
121,-0.169547,0.982702,0.074472,0.13018,0.001459,-0.096109
122,-0.168286,0.978611,0.118305,0.130963,0.050106,-0.286182
123,-0.167709,0.973763,0.153799,0.069611,0.139548,-0.5395409999999999
124,-0.173266,0.969846,0.171388,0.232257,0.358234,-0.352342
125,-0.181667,0.968061,0.172771,0.432857,0.342989,-0.29002
126,-0.18842,0.967888,0.166389,0.716512,0.394279,-0.142448
127,-0.195011,0.967384,0.161663,0.384709,0.571328,-0.147563
128,-0.200617,0.966378,0.160817,0.255884,0.446876,-0.597981
129,-0.2141969999999999,0.965963,0.14502,0.562982,0.338541,-0.498963
130,-0.2308489999999999,0.965452,0.120859,0.660903,0.5692010000000001,-0.200373
131,-0.241661,0.96546,0.0973769999999999,0.4567029999999999,0.059763,-0.009242
132,-0.251482,0.965786,0.063321,0.117617,-0.038632,0.080996
133,-0.2591,0.965646,0.019756,0.018225,0.1211,0.195271
134,-0.263176,0.964445,-0.024087,0.163155,0.293642,0.079187
135,-0.264919,0.96131,-0.075477,0.307536,0.409997,0.2726969999999999
136,-0.256971,0.957552,-0.130605,0.383817,0.516966,0.381582
137,-0.243309,0.956481,-0.161065,0.426613,0.438691,0.39158
138,-0.244578,0.950331,-0.192484,0.432231,0.467028,0.2509699999999999
139,-0.2732219999999999,0.936543,-0.219621,0.4239479999999999,0.33546,0.0993049999999999
140,-0.293494,0.923861,-0.24564,0.294669,0.096189,-0.061153
141,-0.296848,0.917817,-0.263611,0.277789,0.006469,0.2248389999999999
142,-0.29856,0.913238,-0.277228,0.277472,-0.047088,0.346289
143,-0.296017,0.908475,-0.295032,0.233334,-0.163724,0.383899
144,-0.295413,0.905191,-0.3055449999999999,0.4404479999999999,-0.320154,0.392154
145,-0.298308,0.902152,-0.311658,0.505995,-0.323371,0.367276
146,-0.300919,0.901016,-0.312435,0.445557,-0.292098,0.2908739999999999
147,-0.299118,0.903724,-0.3062809999999999,0.179992,-0.30001,0.278159
148,-0.291073,0.910711,-0.293051,0.174023,-0.293203,0.288336
149,-0.279465,0.919739,-0.2756369999999999,0.131318,-0.335862,0.2482469999999999
150,-0.265542,0.929352,-0.2564929999999999,0.01426,-0.351731,0.203621
151,-0.248326,0.939448,-0.236153,-0.035167,-0.353434,0.124413
152,-0.2291369999999999,0.950508,-0.209823,-0.009297,-0.275215,-0.002091
153,-0.210425,0.961327,-0.177671,-0.072626,-0.043923,-0.209277
154,-0.195217,0.968744,-0.1530359999999999,-0.14922,0.653234,-0.6039979999999999
155,-0.1907839999999999,0.970238,-0.149111,-0.204922,1.323005,-0.8876780000000001
156,-0.191662,0.966672,-0.169725,0.006146,0.271426,-0.704466
157,-0.194599,0.961007,-0.196449,0.009236,-0.4983,-0.794167
158,-0.203736,0.955322,-0.214121,0.285584,0.4032139999999999,-0.313116
159,-0.213786,0.953997,-0.210195,0.4665479999999999,1.552397,0.588232
160,-0.205835,0.962778,-0.175177,0.676431,0.16944,1.182455
161,-0.180421,0.973104,-0.14322,0.65349,-0.4692739999999999,1.143647
162,-0.168622,0.977476,-0.126895,0.182065,-0.595534,0.612857
163,-0.1636119999999999,0.978689,-0.124073,-0.028648,-0.5669,0.1835369999999999
164,-0.169203,0.97827,-0.1198099999999999,-0.256822,-0.086867,-0.11188
165,-0.179299,0.978746,-0.099522,-0.233879,0.395689,-0.343807
166,-0.178702,0.981398,-0.070136,0.391211,0.5421,0.018531
167,-0.16885,0.984224,-0.05281,0.496685,0.194899,0.016677
168,-0.157173,0.986437,-0.047256,0.055519,-0.2405119999999999,-0.021164
169,-0.149793,0.98819,-0.032207,0.075253,-0.1993869999999999,0.057628
170,-0.146865,0.989137,-0.005801,0.162231,-0.043153,0.064929
171,-0.138718,0.98995,0.0273899999999999,0.277344,-0.020926,-0.009293
172,-0.125006,0.990149,0.063024,0.21218,-0.08306,-0.071172
173,-0.109096,0.989324,0.096596,0.119395,-0.079534,-0.156151
174,-0.095815,0.987277,0.126876,0.080938,-0.120196,-0.195922
175,-0.086341,0.984149,0.154885,0.002692,-0.130572,-0.223244
176,-0.081211,0.980289,0.180089,-0.043514,-0.1145359999999999,-0.216344
177,-0.081212,0.975636,0.203793,-0.094798,-0.0356029999999999,-0.288312
178,-0.084031,0.970302,0.226817,-0.145201,0.064748,-0.538905
179,-0.09112,0.966353,0.240523,-0.1144,0.110017,-0.554381
180,-0.103451,0.965697,0.238157,0.184475,0.127687,-0.3495769999999999
181,-0.11413,0.966962,0.22793,0.262231,0.223743,-0.1248259999999999
182,-0.1195529999999999,0.968812,0.217032,0.040222,0.195662,-0.120413
183,-0.12745,0.97154,0.199648,-0.088111,0.25368,-0.342867
184,-0.14392,0.97561,0.16573,0.094191,0.119056,-0.205052
185,-0.1657539999999999,0.979835,0.111547,0.137617,0.026513,-0.19457
186,-0.189772,0.981088,0.0380389999999999,-0.467852,0.587683,0.174531
187,-0.213585,0.975971,-0.0431,-0.444038,0.592801,0.255671
188,-0.235969,0.964263,-0.120458,-0.073616,0.707368,0.245061
189,-0.248358,0.954447,-0.1653599999999999,0.3808809999999999,0.650976,0.281128
190,-0.2556489999999999,0.946152,-0.1985829999999999,0.507984,0.51683,0.3088889999999999
191,-0.25673,0.933371,-0.250807,0.585511,0.632608,-0.03708
192,-0.251996,0.920898,-0.29739,0.036786,0.049149,0.0088
193,-0.240736,0.912249,-0.331428,-0.03914,-0.067034,0.155357
194,-0.236248,0.904275,-0.355626,0.006115,-0.217187,0.352819
195,-0.23754,0.8952680000000001,-0.376919,0.2349,-0.4571119999999999,0.381603
196,-0.236008,0.8882040000000001,-0.394196,0.16594,-0.550817,0.4374399999999999
197,-0.225863,0.8854799999999999,-0.406089,0.042697,-0.625638,0.345893
198,-0.2173,0.88641,-0.408725,0.250884,-0.537304,0.283588
199,-0.211684,0.8886870000000001,-0.406722,0.140975,-0.559722,0.2479699999999999
200,-0.205618,0.892543,-0.401354,-0.042582,-0.615916,0.20885
201,-0.1991369999999999,0.8996290000000001,-0.3885989999999999,-0.036306,-0.61754,0.156925
202,-0.193482,0.910207,-0.366176,-0.0091849999999999,-0.60616,0.165981
203,-0.187601,0.924286,-0.332411,0.0393009999999999,-0.6013649999999999,0.166625
204,-0.179744,0.939527,-0.291509,0.143489,-0.463468,0.112081
205,-0.170281,0.95229,-0.253269,0.20414,-0.23206,-0.131527
206,-0.161858,0.961549,-0.221863,0.182442,0.0028829999999999,-0.309616
207,-0.155803,0.96761,-0.198629,0.149104,0.177928,-0.417201
208,-0.152647,0.970326,-0.187521,0.085798,0.182491,-0.454691
209,-0.151653,0.969732,-0.191361,-0.047368,-0.0342,-0.338104
210,-0.147066,0.968278,-0.202008,-0.089247,-0.226319,-0.158999
211,-0.135898,0.96851,-0.20861,-0.091458,-0.354817,-0.033867
212,-0.119778,0.97062,-0.208679,-0.107394,-0.541085,0.09758
213,-0.10126,0.975119,-0.197198,-0.023389,-0.831046,0.437509
214,-0.085177,0.982392,-0.1662819999999999,-0.045225,-0.8480690000000001,0.759772
215,-0.0871919999999999,0.988267,-0.125399,-0.2087679999999999,0.014633,0.7366659999999999
216,-0.11052,0.989826,-0.089599,0.120652,1.200863,-0.4437569999999999
217,-0.157556,0.977312,-0.14155,-0.469427,5.945814,-0.518912
218,-0.180753,0.957453,-0.224971,1.040433,-0.6351720000000001,0.145244
219,-0.146681,0.959009,-0.2424579999999999,-0.505694,-0.440347,0.065975
220,-0.155843,0.954055,-0.255914,-0.287975,-0.389907,0.219354
221,-0.155694,0.957556,-0.242583,0.8377,0.177347,0.295607
222,-0.131605,0.969794,-0.205376,0.463743,0.4346399999999999,0.078819
223,-0.105495,0.979186,-0.173396,0.053494,0.006502,0.074656
224,-0.088615,0.986043,-0.140945,-0.1491019999999999,-0.209508,-0.187608
225,-0.084004,0.989518,-0.117464,-0.064052,-0.236893,-0.301848
226,-0.087587,0.989476,-0.115173,0.009492,-0.373174,-0.586869
227,-0.093053,0.987603,-0.126419,-0.116801,-0.479638,-0.36734
228,-0.1034079999999999,0.982946,-0.152067,-0.078598,-0.522329,0.006575
229,-0.116589,0.974983,-0.189247,-0.052082,-0.585274,0.201759
230,-0.138366,0.962471,-0.233462,-0.1824349999999999,-0.47158,0.342028
231,-0.178222,0.94573,-0.271719,-0.32515,-0.157431,0.452963
232,-0.239794,0.921277,-0.306181,-0.2818739999999999,0.043505,0.4038219999999999
233,-0.310552,0.8760530000000001,-0.368901,-0.127772,0.526138,-0.027217
234,-0.3417739999999999,0.8345469999999999,-0.432113,-0.105751,1.310106,-0.567628
235,-0.33849,0.8193809999999999,-0.462645,0.039326,1.111161,0.0576919999999999
236,-0.35186,0.802178,-0.4823949999999999,0.264915,0.524772,0.209476
237,-0.355169,0.791982,-0.496608,-0.101847,-0.378728,-0.038945
238,-0.3342219999999999,0.798711,-0.500356,0.101358,-0.530095,0.018896
239,-0.3104139999999999,0.81423,-0.490584,0.085073,-0.565481,-0.062654
240,-0.283055,0.837125,-0.468082,0.244481,-0.563901,-0.073925
241,-0.25126,0.865244,-0.433845,0.233865,-0.651758,-0.022653
242,-0.218403,0.896962,-0.384394,0.201237,-0.6985979999999999,0.086344
243,-0.180649,0.927122,-0.328346,0.091736,-0.242719,0.274848
244,-0.139199,0.952243,-0.271765,-0.009986,-0.0176419999999999,0.09545
245,-0.10615,0.970706,-0.215549,0.126765,0.080686,-0.165951
246,-0.08106,0.981233,-0.174958,0.357808,-0.907793,-0.161513
247,-0.050593,0.987401,-0.14993,0.100611,-1.09966,0.0282259999999999
248,-0.033401,0.991095,-0.128901,-0.7096560000000001,-0.6743680000000001,0.960185
249,-0.033211,0.99416,-0.102674,-0.529792,2.009471,-2.653613
250,-0.0640559999999999,0.989696,-0.128053,-0.310135,2.317402,-0.509536
251,-0.09224,0.981296,-0.168963,0.58455,2.582226,-1.112714
252,-0.107347,0.960086,-0.258284,-0.237273,-0.4889409999999999,0.295561
253,-0.1116809999999999,0.94873,-0.2957,-0.195875,-0.262634,-0.0160979999999999
254,-0.1353599999999999,0.943692,-0.301867,0.2510219999999999,-0.367825,0.138873
255,-0.135707,0.949091,-0.2842699999999999,0.5042979999999999,0.220419,0.021682
256,-0.124037,0.957114,-0.261817,0.213103,0.456003,-0.03277
257,-0.123988,0.955564,-0.267439,0.11999,0.157839,-0.23839
258,-0.1280059999999999,0.949949,-0.284974,-0.082595,-0.489073,-0.330703
259,-0.133469,0.941926,-0.308158,-0.112472,-0.342835,-0.10119
260,-0.145646,0.930405,-0.336351,-0.1302019999999999,-0.25525,0.024294
261,-0.1706099999999999,0.912556,-0.371663,-0.36917,0.190944,0.345402
262,-0.213418,0.8867209999999999,-0.410097,-0.226356,0.294203,0.270784
263,-0.2731,0.8459530000000001,-0.458017,0.1335589999999999,0.730234,-0.239844
264,-0.309925,0.80298,-0.5090859999999999,-0.016246,0.989027,-0.390832
265,-0.334881,0.7758109999999999,-0.534764,0.048,0.534034,-0.008586
266,-0.362394,0.749594,-0.553876,-0.343188,0.222254,-0.072406
267,-0.373317,0.7348819999999999,-0.5662,-0.311223,0.105511,-0.0275339999999999
268,-0.379671,0.730767,-0.5673,-0.154738,-0.328332,-0.101584
269,-0.375917,0.7381439999999999,-0.5602050000000001,-0.060835,-0.480911,0.031869
270,-0.36023,0.755185,-0.547659,0.126877,-0.386502,0.234533
271,-0.3381429999999999,0.778468,-0.528816,0.1678089999999999,-0.362971,0.332634
272,-0.313596,0.805859,-0.5022439999999999,0.12219,-0.462185,0.3144079999999999
273,-0.287569,0.8353790000000001,-0.46845,0.057497,-0.583487,0.293615
274,-0.26332,0.8658399999999999,-0.4254199999999999,0.041259,-0.723308,0.136754
275,-0.237877,0.8974549999999999,-0.3714679999999999,0.218559,-0.6121,-0.0334089999999999
276,-0.209532,0.927462,-0.309692,0.278868,-0.43558,-0.115906
277,-0.180444,0.951873,-0.247742,0.234063,0.323304,-0.287628
278,-0.144492,0.971473,-0.188047,0.1837369999999999,0.2650079999999999,-0.1655599999999999
279,-0.099607,0.985303,-0.138763,-0.060336,-0.07562,-0.0376899999999999
280,-0.060752,0.992826,-0.102974,-0.535928,-0.189192,0.00518
281,-0.048273,0.994368,-0.094343,-1.148443,-0.0662669999999999,-0.088793
282,-0.075537,0.991388,-0.106964,0.0378779999999999,0.2386989999999999,0.50618
283,-0.095578,0.989427,-0.109072,0.4640319999999999,0.319639,-0.388395
284,-0.118022,0.979995,-0.160249,0.760936,1.033021,-0.8396129999999999
285,-0.138297,0.963568,-0.228931,0.070762,0.5950409999999999,-0.814847
286,-0.127769,0.953722,-0.27219,0.0334389999999999,-0.054537,0.0138129999999999
287,-0.122041,0.950744,-0.284938,0.116517,0.126496,0.348384
288,-0.123011,0.952358,-0.279072,0.468775,-0.016323,0.187169
289,-0.1158109999999999,0.958335,-0.261112,0.4476279999999999,-0.003333,0.095829
290,-0.106618,0.963872,-0.244094,0.1749619999999999,-0.074513,-0.09282
291,-0.102867,0.966983,-0.233151,-0.020347,-0.1474339999999999,-0.086322
292,-0.1041349999999999,0.968588,-0.225814,0.009989,-0.299047,-0.1710819999999999
293,-0.110668,0.969095,-0.220467,0.025554,-0.343302,-0.217551
294,-0.11993,0.967918,-0.220795,-0.0651429999999999,-0.381996,-0.252502
295,-0.1292829999999999,0.965096,-0.227757,-0.080235,-0.4186029999999999,-0.229854
296,-0.138781,0.960496,-0.241218,-0.097272,-0.412781,-0.183129
297,-0.15054,0.952608,-0.264339,0.046094,-0.310548,0.033122
298,-0.162955,0.941206,-0.295932,0.111228,-0.24777,0.2376889999999999
299,-0.182996,0.927798,-0.3251179999999999,0.025388,0.0857059999999999,0.205886
300,-0.217587,0.903103,-0.370215,-0.044833,0.416004,0.000265
301,-0.251064,0.869358,-0.425655,-0.088245,0.783886,-0.421284
302,-0.25774,0.842008,-0.4739109999999999,-0.188244,0.994113,-0.16914
303,-0.262181,0.818813,-0.510691,0.073461,0.604344,-0.272924
304,-0.270712,0.799798,-0.535759,-0.363566,0.485129,-0.08445
305,-0.263563,0.788812,-0.5552560000000001,-0.2662219999999999,0.10311,0.017689
306,-0.252915,0.785898,-0.564267,-0.004104,-0.310969,-0.003665
307,-0.24894,0.78879,-0.561994,0.048333,-0.610446,0.160993
308,-0.242556,0.797147,-0.552922,0.0841539999999999,-0.537274,0.205998
309,-0.2313869999999999,0.81098,-0.537373,0.212238,-0.376502,0.333287
310,-0.219419,0.828722,-0.514854,0.155882,-0.4747479999999999,0.390358
311,-0.208052,0.847724,-0.487932,-0.052263,-0.613883,0.310976
312,-0.195838,0.869296,-0.453842,-0.155648,-0.728014,0.235733
313,-0.180854,0.8959809999999999,-0.405596,-0.0020989999999999,-0.593522,0.176852
314,-0.164181,0.923389,-0.346982,0.129407,-0.32619,0.058622
315,-0.149967,0.9459,-0.28772,0.143696,-0.0298389999999999,-0.134628
316,-0.137198,0.963133,-0.231411,0.209006,0.179338,-0.250324
317,-0.121028,0.97582,-0.1820109999999999,0.12559,0.125392,-0.2419239999999999
318,-0.0956809999999999,0.984736,-0.145398,0.046212,-0.100733,-0.29349
319,-0.072483,0.989459,-0.12537,-0.32426,-0.159136,0.068714
320,-0.062841,0.989847,-0.127489,-0.698283,0.431753,0.307741
321,-0.076533,0.984765,-0.156144,-0.424108,0.812675,0.749894
322,-0.101108,0.978932,-0.177395,0.496464,0.960872,-1.76865
323,-0.137632,0.962669,-0.233077,0.5503060000000001,1.061852,-0.080125
324,-0.131764,0.955711,-0.263162,-0.207546,0.755165,-0.483741
325,-0.130027,0.951399,-0.279167,0.320334,0.247942,0.0072549999999999
326,-0.126883,0.953747,-0.272519,0.4093989999999999,0.073963,0.040311
327,-0.108298,0.961708,-0.251773,0.2180239999999999,0.086647,0.1066309999999999
328,-0.090503,0.9703,-0.224338,0.127933,0.045218,0.08356
329,-0.07904,0.976386,-0.2010539999999999,-0.009034,-0.148963,0.030095
330,-0.075608,0.979679,-0.185772,-0.06398,-0.363606,-0.079914
331,-0.076282,0.981758,-0.174163,-0.059857,-0.4119489999999999,-0.09601
332,-0.0797929999999999,0.983177,-0.164306,-0.079784,-0.415321,-0.148911
333,-0.085969,0.983686,-0.158025,-0.086288,-0.276014,-0.158137
334,-0.096448,0.982941,-0.156605,-0.040408,-0.265991,-0.203625
335,-0.1122259999999999,0.980383,-0.1620319999999999,0.012647,-0.2372639999999999,-0.3611
336,-0.130132,0.976282,-0.173027,0.09287,-0.171976,-0.372398
337,-0.145075,0.971392,-0.188019,0.101939,-0.202898,-0.287094
338,-0.160075,0.965222,-0.206692,0.143657,-0.197217,0.020306
339,-0.179602,0.956438,-0.230147,0.0152039999999999,-0.153872,0.1942279999999999
340,-0.208069,0.942089,-0.2630099999999999,-0.066955,0.041187,0.265833
341,-0.249356,0.919186,-0.304825,-0.065768,0.11237,0.283661
342,-0.29945,0.886711,-0.3522389999999999,-0.084446,0.640007,-0.403589
343,-0.334527,0.854176,-0.3980889999999999,-0.064674,1.164089,-0.503645
344,-0.349116,0.8337190000000001,-0.42782,-0.051168,1.121313,-0.176627
345,-0.368705,0.816258,-0.4447239999999999,-0.170754,0.248272,-0.108239
346,-0.379848,0.804562,-0.456503,-0.086171,-0.1203579999999999,-0.027353
347,-0.376722,0.804563,-0.459084,0.0330639999999999,-0.165998,0.0521779999999999
348,-0.369012,0.812038,-0.452132,0.073907,-0.339092,0.153426
349,-0.355378,0.8253940000000001,-0.438668,0.150117,-0.387787,0.146249
350,-0.334176,0.843535,-0.420446,0.188988,-0.544478,0.156194
351,-0.307832,0.864649,-0.397015,0.1748819999999999,-0.703913,0.1493799999999999
352,-0.28033,0.8870049999999999,-0.366928,0.1395829999999999,-0.8446319999999999,0.0938259999999999
353,-0.252057,0.910356,-0.328205,0.142575,-0.804796,0.0631299999999999
354,-0.219854,0.935184,-0.277658,0.2146199999999999,-0.451557,0.117059
355,-0.189459,0.957774,-0.216272,0.210166,0.1262869999999999,-0.022391
356,-0.164154,0.97402,-0.156001,0.149094,0.412927,-0.190114
357,-0.136802,0.984905,-0.106047,0.071632,0.134846,-0.4177109999999999
358,-0.107582,0.991264,-0.076301,-0.091804,-0.366355,-0.437631
359,-0.082884,0.994484,-0.0642809999999999,-0.4190239999999999,-0.7689739999999999,-0.011632
360,-0.073494,0.995311,-0.062878,-0.59539,-0.552761,0.852261
361,-0.090011,0.994298,-0.057173,-0.44487,0.617045,0.607206
362,-0.115659,0.992483,-0.039996,0.340039,2.013071,-1.833753
363,-0.141849,0.987073,-0.074602,1.591007,1.228274,0.915788
364,-0.13583,0.985662,-0.1001,-0.390934,1.633616,-1.744093
365,-0.12253,0.984376,-0.126452,-0.1223279999999999,0.202193,-0.414839
366,-0.128227,0.982212,-0.137176,0.074577,0.286999,0.053528
367,-0.128885,0.983826,-0.124393,0.254266,-0.106339,0.086612
368,-0.123669,0.987216,-0.100546,0.354306,-0.144443,0.1832339999999999
369,-0.115439,0.99054,-0.074187,0.188605,-0.12027,0.052962
370,-0.1086869999999999,0.992857,-0.04921,-0.016771,-0.325621,-0.003005
371,-0.111175,0.99339,-0.028574,-0.065339,-0.561871,-0.0344449999999999
372,-0.122046,0.992485,-0.008846,0.189566,-0.535683,-0.093434
373,-0.137849,0.990406,0.0097019999999999,0.279435,-0.460804,-0.161542
374,-0.1532329999999999,0.987796,0.0279089999999999,0.296513,-0.392688,-0.300523
375,-0.168227,0.984728,0.044824,0.272338,-0.344531,-0.330209
376,-0.186491,0.980955,0.054288,0.273146,-0.269881,-0.284497
377,-0.205637,0.97692,0.0577919999999999,0.24531,-0.055762,-0.359611
378,-0.222403,0.973064,0.060688,0.305838,-0.04385,-0.462406
379,-0.241665,0.968708,0.0565909999999999,0.276958,-0.080372,-0.429272
380,-0.264835,0.963508,0.038893,0.2452889999999999,-0.246757,-0.14569
381,-0.290749,0.956784,0.005346,0.327919,0.5361060000000001,0.093653
382,-0.3119159999999999,0.949195,-0.041671,0.390651,1.216775,0.244155
383,-0.315265,0.94447,-0.0926429999999999,-0.066922,2.099643,0.078376
384,-0.29439,0.945543,-0.1388579999999999,-0.5306069999999999,0.838607,-0.110181
385,-0.267425,0.946308,-0.181608,0.313202,0.445003,-0.358461
386,-0.23986,0.948669,-0.2061349999999999,0.518471,0.559372,-0.393596
387,-0.215268,0.952212,-0.216678,0.371838,0.874814,0.084964
388,-0.188435,0.955383,-0.227452,0.216252,0.7525029999999999,0.309453
389,-0.154807,0.957465,-0.243501,0.045188,0.6283350000000001,0.321565
390,-0.1148059999999999,0.959076,-0.258827,-0.273683,0.01648,0.375069
391,-0.085489,0.957445,-0.27566,-0.26177,-0.144823,0.392085
392,-0.073379,0.954337,-0.289576,-0.091844,-0.379005,0.385584
393,-0.0700409999999999,0.951874,-0.298375,0.04285,-0.549424,0.521443
394,-0.074846,0.949979,-0.303211,0.033663,-0.677701,0.498477
395,-0.084184,0.94947,-0.302355,-0.044692,-0.667243,0.484911
396,-0.093682,0.951036,-0.294538,-0.215294,-0.6220720000000001,0.477064
397,-0.102835,0.954105,-0.281261,-0.019358,-0.55289,0.295848
398,-0.113352,0.957602,-0.264856,0.0128569999999999,-0.467734,0.20765
399,-0.12584,0.960709,-0.247386,-0.03096,-0.221925,0.0305279999999999
400,-0.136536,0.963442,-0.23051,-0.144745,0.148054,-0.07343
401,-0.142871,0.965587,-0.217321,-0.358319,0.5260060000000001,-0.5928899999999999
402,-0.14894,0.965566,-0.2133,-0.2887119999999999,0.906718,-0.832858
403,-0.15503,0.960516,-0.231025,-0.220764,0.349726,-0.824258
404,-0.157278,0.951626,-0.263951,-0.106135,-0.223461,-0.6426189999999999
405,-0.157923,0.944748,-0.287245,0.072534,-0.4751439999999999,-0.156435
406,-0.159024,0.942398,-0.29427,0.055142,-0.32425,0.199391
407,-0.159188,0.944429,-0.287593,0.083978,0.777342,0.424068
408,-0.156719,0.946481,-0.282154,0.1563369999999999,1.769095,0.511112
409,-0.145819,0.952508,-0.267327,0.606695,0.141929,0.24334
410,-0.137724,0.953922,-0.266576,0.153883,-0.5728489999999999,0.8723350000000001
411,-0.142996,0.955408,-0.258351,-0.337778,-0.6846720000000001,0.5747260000000001
412,-0.159165,0.959555,-0.232203,-0.1285849999999999,0.11564,0.101298
413,-0.1816299999999999,0.962056,-0.2036099999999999,0.447759,0.36726,0.36285
414,-0.1862359999999999,0.966127,-0.178642,0.58713,0.3347159999999999,0.274101
415,-0.1682519999999999,0.974625,-0.147629,0.395425,0.276977,0.172898
416,-0.145469,0.982956,-0.112396,0.196464,0.110824,0.050125
417,-0.121513,0.989113,-0.082986,-0.023736,-0.151558,-0.075202
418,-0.108294,0.992033,-0.064343,-0.13748,-0.222227,-0.086307
419,-0.104751,0.993225,-0.050276,-0.064835,-0.2590949999999999,-0.172335
420,-0.105778,0.993692,-0.037196,0.036518,-0.136331,-0.200948
421,-0.107526,0.993984,-0.020748,0.016553,-0.1076309999999999,-0.223896
422,-0.107216,0.994233,0.001268,0.113563,-0.102158,-0.114961
423,-0.107064,0.993835,0.028727,0.1521839999999999,-0.055587,-0.045832
424,-0.106852,0.99245,0.060177,0.166163,-0.043002,-0.0451779999999999
425,-0.1062369999999999,0.989999,0.092795,0.235357,0.026114,-0.018622
426,-0.1056589999999999,0.986681,0.1236579999999999,0.158668,0.053526,-0.164216
427,-0.104554,0.983301,0.1489359999999999,0.050858,0.06368,-0.291697
428,-0.103404,0.980134,0.169234,-0.192205,0.256896,-0.35591
429,-0.103972,0.978263,0.179404,-0.169344,0.128701,-0.2427889999999999
430,-0.112033,0.977897,0.176524,0.486743,0.045465,-0.100337
431,-0.126292,0.978381,0.163752,0.39503,0.434796,-0.050135
432,-0.133353,0.978802,0.155426,0.151603,0.582797,-0.325684
433,-0.137099,0.978978,0.150998,0.1028579999999999,0.3659469999999999,-0.432004
434,-0.143455,0.980691,0.132896,0.21276,0.251899,-0.259803
435,-0.15352,0.982988,0.100802,0.350267,0.159056,-0.074847
436,-0.161521,0.984759,0.064463,0.181251,-0.033877,-0.0689029999999999
437,-0.164985,0.986063,0.0213159999999999,0.07566,-0.052515,-0.038498
438,-0.172015,0.984625,-0.030338,0.1857329999999999,0.2596989999999999,0.06824
439,-0.181954,0.979729,-0.0837779999999999,0.495965,0.454078,0.183311
440,-0.187441,0.973631,-0.130012,0.605318,0.4859479999999999,0.19091
441,-0.185112,0.968286,-0.167787,0.530205,0.444907,0.251115
442,-0.175365,0.963384,-0.202819,0.159908,0.31039,0.314422
443,-0.169163,0.956678,-0.236955,-0.040447,0.113925,0.310609
444,-0.171731,0.947393,-0.270094,-0.061713,-0.09432,0.275923
445,-0.176068,0.937361,-0.300582,0.204755,-0.151396,0.273056
446,-0.180664,0.927902,-0.3261199999999999,0.257431,-0.139664,0.306818
447,-0.187256,0.918192,-0.3490769999999999,0.286041,-0.130305,0.337801
448,-0.194993,0.907837,-0.371223,0.035829,-0.088974,0.27613
449,-0.1963329999999999,0.899474,-0.39038,-0.023866,-0.040877,0.234084
450,-0.187556,0.895491,-0.403628,-0.011739,-0.091063,0.226505
451,-0.173521,0.895432,-0.4099859999999999,0.044233,-0.233888,0.195264
452,-0.157841,0.8985299999999999,-0.409544,0.0299259999999999,-0.282869,0.2366619999999999
453,-0.142812,0.903603,-0.40386,0.003454,-0.35624,0.272665
454,-0.129702,0.909528,-0.394884,-0.019285,-0.3381619999999999,0.253374
455,-0.117613,0.91595,-0.383665,-0.097444,-0.343319,0.240675
456,-0.104567,0.924169,-0.367388,-0.149019,-0.3583119999999999,0.194628
457,-0.096592,0.935443,-0.340019,-0.120815,-0.2899199999999999,0.11605
458,-0.094641,0.947654,-0.304944,-0.130854,0.003807,-0.107608
459,-0.095054,0.957483,-0.272375,-0.125863,0.673087,-0.49975
460,-0.100978,0.961029,-0.25734,-0.066442,1.21431,-0.808578
461,-0.108272,0.956889,-0.269513,-0.026112,0.380361,-0.7615850000000001
462,-0.1133849999999999,0.949889,-0.291292,0.295056,0.2315219999999999,-0.716246
463,-0.123177,0.939114,-0.320764,0.327462,0.5340159999999999,-0.372168
464,-0.13005,0.934133,-0.332384,0.412109,0.886409,0.929491
465,-0.107118,0.948721,-0.297406,0.271959,-0.414572,0.892926
466,-0.074777,0.960558,-0.26783,0.133768,-0.445192,0.6943739999999999
467,-0.061599,0.963783,-0.259468,-0.040177,-0.535469,0.4484479999999999
468,-0.062273,0.965907,-0.251281,-0.122923,-0.288691,0.191513
469,-0.075666,0.968191,-0.2384869999999999,-0.063647,-0.042364,0.173118
470,-0.097719,0.969338,-0.225455,0.035555,0.100333,0.161964
471,-0.115283,0.970657,-0.211025,0.18442,0.3729099999999999,0.128399
472,-0.120214,0.973081,-0.196619,0.2943159999999999,0.232196,0.157801
473,-0.120699,0.976239,-0.179957,0.295001,0.138842,0.116068
474,-0.121305,0.979481,-0.1609259999999999,0.13455,-0.044041,0.02114
475,-0.117526,0.983482,-0.137645,0.179477,-0.042793,0.048442
476,-0.1055099999999999,0.988663,-0.1068109999999999,0.161357,-0.056,0.115097
477,-0.091691,0.993214,-0.071516,0.104768,-0.0201,0.115339
478,-0.079914,0.996169,-0.035439,0.084248,-0.062911,0.083962
479,-0.071373,0.997442,-0.003387,0.041801,-0.053854,0.0129539999999999
480,-0.065617,0.997586,0.022645,0.028553,-0.043927,-0.062165
481,-0.062103,0.997007,0.04601,0.05194,-0.015165,-0.21848
482,-0.060832,0.995933,0.066433,0.086039,-0.012336,-0.43298
483,-0.062878,0.994711,0.081193,0.024411,-0.063498,-0.516953
484,-0.065982,0.994158,0.085392,-0.020276,0.068189,-0.424946
485,-0.0711649999999999,0.994579,0.07579,-0.003573,0.12569,-0.222655
486,-0.075389,0.995409,0.058953,0.018763,-0.023042,-0.212945
487,-0.08255,0.996002,0.0341029999999999,-0.006058,-0.087326,-0.014434
488,-0.093801,0.995582,-0.0040079999999999,-0.033305,-0.071219,0.027308
489,-0.110175,0.992244,-0.057547,-0.256006,0.300969,0.13999
490,-0.133523,0.98184,-0.134761,-0.412101,0.755007,0.30012
491,-0.154114,0.960393,-0.232146,-0.348175,0.668482,0.47975
492,-0.171817,0.934502,-0.311744,-0.283368,0.66433,0.381904
493,-0.199733,0.914145,-0.352767,0.448223,0.742853,0.077697
494,-0.225736,0.8950540000000001,-0.384605,0.591001,0.675487,-0.043557
495,-0.230958,0.8766219999999999,-0.422127,0.370729,0.569637,-0.013267
496,-0.226518,0.8602280000000001,-0.456833,-0.118926,-0.043791,0.295578
497,-0.2245869999999999,0.844295,-0.486545,0.062569,-0.12318,0.414814
498,-0.224028,0.830528,-0.509935,0.1218099999999999,-0.207008,0.429826
499,-0.221726,0.8187800000000001,-0.529562,0.11229,-0.455102,0.39791
500,-0.217334,0.8147340000000001,-0.537563,0.178394,-0.46282,0.422909
501,-0.214853,0.814354,-0.539133,0.193903,-0.5730970000000001,0.442255
502,-0.214388,0.816301,-0.536367,0.168688,-0.641787,0.359014
503,-0.212054,0.821694,-0.5290100000000001,0.12688,-0.6289140000000001,0.255053
504,-0.203151,0.831952,-0.516319,0.014736,-0.658108,0.208473
505,-0.188099,0.848575,-0.494509,0.041737,-0.6244689999999999,0.3033619999999999
506,-0.1726859999999999,0.8701540000000001,-0.461531,0.053301,-0.591757,0.313246
507,-0.159653,0.8919379999999999,-0.423033,0.092087,-0.301743,0.270858
508,-0.149049,0.909187,-0.388797,0.074586,-0.2051,0.159564
509,-0.14294,0.922161,-0.3594239999999999,0.007473,-0.0340839999999999,0.025608
510,-0.140279,0.932918,-0.33164,-0.066341,0.215565,-0.218165
511,-0.140747,0.941842,-0.30516,-0.054428,0.247687,-0.263733
512,-0.142996,0.947613,-0.285624,-0.073008,0.200291,-0.20931
513,-0.14153,0.951106,-0.27453,-0.149226,-0.173472,0.052987
514,-0.128485,0.95592,-0.26402,-0.204309,-0.275287,0.136259
515,-0.109445,0.962824,-0.246964,-0.2340449999999999,-0.365,0.096482
516,-0.094762,0.968815,-0.22895,-0.19282,-0.084522,0.050498
517,-0.092528,0.970854,-0.22109,-0.157579,0.333086,-0.040354
518,-0.109967,0.967351,-0.22834,-0.076541,1.606654,-0.4777909999999999
519,-0.158913,0.949561,-0.270332,1.289971,0.5623859999999999,-0.249931
520,-0.1559569999999999,0.933707,-0.322286,0.60455,-0.372825,0.109395
521,-0.129344,0.925254,-0.356616,-0.8396040000000001,-0.160545,0.283877
522,-0.130133,0.92026,-0.369035,0.6843319999999999,-0.358721,0.744859
523,-0.1133779999999999,0.933677,-0.3396949999999999,0.914205,0.274194,0.4853399999999999
524,-0.092064,0.947869,-0.305069,0.48452,0.659995,-0.104401
525,-0.081468,0.952539,-0.2933119999999999,-0.300871,-0.067972,0.299187
526,-0.0729809999999999,0.956141,-0.283669,-0.435472,-0.399454,0.03547
527,-0.077698,0.954745,-0.287097,-0.38971,-0.4352439999999999,-0.077191
528,-0.089115,0.954025,-0.286171,-0.0199699999999999,-0.242691,-0.197151
529,-0.096325,0.95505,-0.280358,0.066982,-0.27225,-0.163627
530,-0.098229,0.954805,-0.280531,0.062828,-0.259737,-0.084215
531,-0.103572,0.952645,-0.285903,0.052348,-0.1959,-0.088761
532,-0.115893,0.947324,-0.298573,0.090625,-0.244306,-0.095592
533,-0.133746,0.93694,-0.322887,0.09711,-0.260319,0.003215
534,-0.157815,0.921392,-0.35515,-0.06742,-0.151052,0.217851
535,-0.198427,0.895984,-0.397291,-0.14897,0.053571,0.360425
536,-0.255667,0.856643,-0.448105,-0.194208,0.2312179999999999,-0.019943
537,-0.313243,0.808379,-0.498399,-0.256627,1.090867,-0.628203
538,-0.341922,0.775134,-0.531278,0.085376,1.229474,-0.191592
539,-0.356909,0.757149,-0.547122,0.020727,0.7670819999999999,0.171511
540,-0.372871,0.737017,-0.563714,-0.084038,0.324919,0.271081
541,-0.37564,0.725525,-0.576635,-0.011125,-0.141861,0.01824
542,-0.366338,0.728562,-0.578786,0.051916,-0.292313,-0.040873
543,-0.348738,0.741653,-0.5730029999999999,0.1157059999999999,-0.40889,0.038518
544,-0.325526,0.764592,-0.556265,0.1556809999999999,-0.490651,0.2254699999999999
545,-0.298131,0.79583,-0.527041,0.168828,-0.472649,0.293597
546,-0.2704539999999999,0.8323450000000001,-0.483795,0.127448,-0.5111319999999999,0.3316949999999999
547,-0.237951,0.8685299999999999,-0.434781,0.114766,-0.661667,0.463284
548,-0.194397,0.903555,-0.381837,0.190628,-0.746694,0.361039
549,-0.144713,0.938149,-0.314538,0.467817,-0.699761,0.171868
550,-0.097514,0.964746,-0.2444489999999999,0.427622,-0.760355,0.0631289999999999
551,-0.056525,0.979018,-0.195775,0.30767,-0.919341,-0.036311
552,-0.029894,0.985287,-0.168273,-0.288664,-0.144573,-0.1406869999999999
553,-0.035894,0.983532,-0.177136,-0.7691140000000001,0.443287,-0.064487
554,-0.085657,0.974956,-0.2052409999999999,-2.139486,1.5492290000000002,-0.224477
555,-0.140901,0.954796,-0.261747,1.684602,2.179756,-0.132799
556,-0.134797,0.925092,-0.355014,1.814134,0.192126,0.801074
557,-0.0795299999999999,0.917272,-0.390239,-1.046462,-1.173498,0.691203
558,-0.137918,0.8994629999999999,-0.4146609999999999,0.8843479999999999,0.184674,-0.212521
559,-0.181694,0.891388,-0.415229,0.756371,0.13588,-0.109292
560,-0.173947,0.895415,-0.409847,-0.1086309999999999,0.280672,-0.381596
561,-0.172998,0.88999,-0.421889,0.066659,-0.059789,0.1631
562,-0.18212,0.8739110000000001,-0.4506779999999999,0.064063,-0.054728,0.195734
563,-0.208807,0.844548,-0.49309,-0.1327,0.047755,0.30353
564,-0.245744,0.801553,-0.54509,-0.175734,0.073905,0.2190099999999999
565,-0.291992,0.754721,-0.587484,-0.0604559999999999,0.171869,0.1786849999999999
566,-0.337276,0.709344,-0.6189319999999999,0.151897,0.639213,-0.403422
567,-0.360071,0.682645,-0.63588,-0.551596,0.653826,0.3378
568,-0.357666,0.6702560000000001,-0.650255,-0.384872,0.022004,0.348878
569,-0.365794,0.66461,-0.6515270000000001,0.040629,0.267915,-0.089409
570,-0.3780429999999999,0.665557,-0.643519,-0.234918,-0.141464,0.018962
571,-0.3737,0.680975,-0.629779,-0.085391,-0.212454,0.343387
572,-0.349986,0.706647,-0.614947,0.033138,-0.180799,0.42467
573,-0.315996,0.734681,-0.600325,0.137575,-0.247468,0.395369
574,-0.2835789999999999,0.763154,-0.580671,0.068033,-0.470521,0.296827
575,-0.256058,0.793172,-0.55255,-0.008744,-0.543737,0.212096
576,-0.234587,0.8260639999999999,-0.512432,0.0616289999999999,-0.529067,-0.084782
577,-0.2166469999999999,0.8615649999999999,-0.459096,0.177997,-0.298439,-0.1224619999999999
578,-0.189184,0.8966770000000001,-0.4002239999999999,0.199377,-0.17602,-0.184874
579,-0.153977,0.926418,-0.343569,0.1908119999999999,0.371448,-0.147519
580,-0.112064,0.949688,-0.292463,0.224201,-0.084789,0.080778
581,-0.060881,0.967508,-0.245402,-0.136751,-0.271692,0.385981
582,-0.020674,0.980219,-0.196831,-0.6441979999999999,-0.334254,0.785515
583,0.003964,0.987349,-0.158513,-0.800351,0.243913,0.257131
584,-0.015316,0.983731,-0.178992,-0.934681,0.552081,0.161338
585,-0.093015,0.96364,-0.250492,-0.0613429999999999,2.256178,-1.119305
586,-0.1973599999999999,0.922313,-0.332246,1.218005,0.616352,-0.455031
587,-0.154595,0.901521,-0.404179,1.499657,-0.559739,1.516636
588,-0.063187,0.91029,-0.409121,-0.787933,-0.000317,0.246401
589,-0.106869,0.901921,-0.41847,0.453838,0.541255,-0.243701
590,-0.145045,0.906367,-0.396814,0.115183,0.634679,-0.218741
591,-0.139523,0.911252,-0.387495,-0.002537,0.317782,-0.203173
592,-0.121428,0.915135,-0.384426,-0.142274,-0.332279,-0.032337
593,-0.122753,0.917282,-0.378848,0.1454119999999999,-0.381988,-0.102292
594,-0.140483,0.915277,-0.377534,0.049846,-0.185907,-0.396773
595,-0.148453,0.912102,-0.382141,-0.089585,-0.1340869999999999,-0.314285
596,-0.1454099999999999,0.905775,-0.39803,0.011773,-0.210188,-0.015102
597,-0.148911,0.893708,-0.4232149999999999,-0.0230259999999999,-0.115464,0.282926
598,-0.171648,0.8751479999999999,-0.4523859999999999,0.006319,0.016774,0.340142
599,-0.2122239999999999,0.849311,-0.483354,0.032369,0.113167,0.420488
600,-0.254005,0.8162520000000001,-0.518859,-0.24067,0.5643630000000001,0.017394
601,-0.288919,0.774989,-0.562066,-0.416556,0.656316,0.055031
602,-0.3062269999999999,0.747901,-0.588956,0.096831,0.335885,0.239056
603,-0.312065,0.7287819999999999,-0.609502,-0.046105,0.390359,0.112569
604,-0.307793,0.718481,-0.623737,0.161645,0.157267,0.169422
605,-0.303661,0.718141,-0.62615,0.129696,-0.095613,0.093481
606,-0.292726,0.729042,-0.618715,-0.03958,-0.4974449999999999,0.121492
607,-0.2694,0.7519600000000001,-0.601647,0.062201,-0.374091,0.184335
608,-0.2374909999999999,0.782434,-0.575669,0.0891909999999999,-0.386132,0.2378699999999999
609,-0.203429,0.8170109999999999,-0.539546,-0.0281079999999999,-0.392404,0.2626449999999999
610,-0.175221,0.852666,-0.492197,-0.007701,-0.314382,0.032114
611,-0.151497,0.887346,-0.435506,0.078423,-0.034227,-0.206202
612,-0.131988,0.917568,-0.37503,0.189513,0.188191,-0.402756
613,-0.113602,0.940596,-0.319959,0.20015,0.175402,-0.5042439999999999
614,-0.082384,0.957807,-0.275352,0.085802,0.052478,-0.024956
615,-0.043426,0.970486,-0.237217,-0.390992,-0.48373,0.301029
616,-0.02318,0.977882,-0.207866,-0.659834,-0.874351,0.722804
617,-0.022793,0.982517,-0.184769,-0.4851729999999999,-0.653492,0.968888
618,-0.03277,0.985852,-0.164383,-0.479879,0.305332,-0.145309
619,-0.071281,0.981629,-0.176982,0.0485149999999999,1.653274,-1.744603
620,-0.1519329999999999,0.965507,-0.211452,1.428223,1.573708,0.468105
621,-0.122251,0.961646,-0.245542,0.7164590000000001,1.06199,-0.020938
622,-0.054129,0.963305,-0.262894,-0.5011680000000001,0.386945,-0.031585
623,-0.062796,0.951301,-0.3018,-0.074411,0.310677,-0.355228
624,-0.081751,0.9492,-0.303869,0.329676,0.4908939999999999,0.0885669999999999
625,-0.090887,0.945956,-0.311298,0.375722,0.326871,0.326435
626,-0.095444,0.940458,-0.326233,0.0281839999999999,0.194323,0.03888
627,-0.116923,0.921654,-0.369976,-0.18044,-0.213265,0.479916
628,-0.1546789999999999,0.8893610000000001,-0.4302439999999999,-0.180145,-0.7784909999999999,0.423256
629,-0.204197,0.852884,-0.480512,0.085835,-0.7367640000000001,0.334776
630,-0.252986,0.811026,-0.527479,0.382411,-0.8135439999999999,0.230757
631,-0.285296,0.776262,-0.56216,0.244662,-0.980623,0.365489
632,-0.311898,0.749184,-0.58433,0.276391,-0.919991,0.556345
633,-0.33828,0.724963,-0.599995,0.378655,-0.729587,0.545491
634,-0.362228,0.70477,-0.609991,0.261841,-0.572156,0.266302
635,-0.379665,0.6951930000000001,-0.6103770000000001,0.222194,-0.459338,0.142817
636,-0.38148,0.705789,-0.5969369999999999,-0.241537,0.529684,-0.033464
637,-0.358672,0.7341989999999999,-0.576459,-0.23253,0.530708,-0.27695
638,-0.327633,0.767127,-0.5515180000000001,-0.223423,0.6755,-0.3793289999999999
639,-0.286603,0.7999189999999999,-0.527245,-0.140826,0.5342180000000001,-0.4723739999999999
640,-0.2482909999999999,0.827541,-0.503514,-0.041382,0.363209,-0.546794
641,-0.226032,0.853203,-0.4700569999999999,0.237598,-0.146064,-0.573095
642,-0.209132,0.8801950000000001,-0.4260489999999999,0.255717,-0.23542,-0.3223789999999999
643,-0.18969,0.902978,-0.385548,0.273705,-0.256585,-0.182354
644,-0.15769,0.922728,-0.351716,0.207373,-0.103057,0.3266449999999999
645,-0.1082119999999999,0.948998,-0.296125,-0.428318,-0.116524,0.6256229999999999
646,-0.069631,0.970225,-0.231976,-0.549021,-0.6285189999999999,0.165143
647,-0.067576,0.976925,-0.202602,-0.729574,-0.384824,0.7718
648,-0.1228869999999999,0.965856,-0.228075,0.2216719999999999,0.3528239999999999,0.515733
649,-0.16794,0.954146,-0.24779,0.539736,3.201372,-2.457334
650,-0.215267,0.930167,-0.2973989999999999,0.5814020000000001,2.943337,-0.760935
651,-0.19346,0.922269,-0.33465,-0.03356,-0.341489,-0.3078059999999999
652,-0.151143,0.912178,-0.380901,-0.972605,0.000847,-0.3412969999999999
653,-0.174371,0.907245,-0.382753,0.518548,0.443127,0.049562
654,-0.184477,0.915177,-0.358354,0.0932289999999999,0.089309,0.084245
655,-0.174717,0.927612,-0.330163,0.004002,-0.14003,0.1083609999999999
656,-0.170665,0.938048,-0.301559,0.09788,-0.244307,0.2000569999999999
657,-0.16768,0.949802,-0.2641159999999999,0.243578,-0.313144,0.125352
658,-0.164922,0.960942,-0.222237,0.344503,-0.356099,0.190117
659,-0.157717,0.971206,-0.178556,0.406039,-0.361129,0.118604
660,-0.149422,0.979466,-0.135343,0.2085949999999999,-0.253025,-0.143618
661,-0.150336,0.984017,-0.095434,0.018806,-0.108391,-0.3069409999999999
662,-0.159001,0.985638,-0.056864,0.170994,-0.114301,-0.28919
663,-0.173521,0.984442,-0.02761,0.221067,-0.1203829999999999,-0.263085
664,-0.191408,0.981413,-0.013739,0.18799,-0.108412,-0.128855
665,-0.2095449999999999,0.977731,-0.011433,0.268764,-0.202813,-0.044048
666,-0.229255,0.973127,-0.021504,0.283485,-0.255537,-0.063197
667,-0.251301,0.967055,-0.040611,0.054798,0.183473,0.126472
668,-0.275721,0.958595,-0.071211,0.154993,0.531349,0.134443
669,-0.293198,0.949831,-0.108871,0.21431,1.37161,0.199599
670,-0.29534,0.942803,-0.154576,0.022391,1.424506,0.29073
671,-0.2862389999999999,0.933804,-0.21465,-0.037125,0.730106,0.3094679999999999
672,-0.268758,0.924366,-0.270768,0.244603,0.8404809999999999,0.04451
673,-0.263592,0.916951,-0.29953,0.513714,0.719813,-0.248536
674,-0.268362,0.911697,-0.311109,0.48876,0.7887270000000001,-0.013354
675,-0.259546,0.911771,-0.318291,0.400934,0.963062,0.345894
676,-0.238894,0.915996,-0.322303,0.123949,0.808979,0.484306
677,-0.21708,0.918485,-0.330545,-0.234596,0.130633,0.474756
678,-0.196364,0.919587,-0.340294,-0.154298,-0.400483,0.361001
679,-0.185321,0.921405,-0.341566,0.088519,-0.486621,0.343367
680,-0.185841,0.924434,-0.332993,0.202046,-0.4352979999999999,0.454682
681,-0.195363,0.927499,-0.318713,0.180165,-0.40223,0.539737
682,-0.209011,0.930314,-0.301377,0.0475279999999999,-0.4149029999999999,0.520005
683,-0.22261,0.932745,-0.283603,-0.089341,-0.4612479999999999,0.4276
684,-0.2321619999999999,0.935182,-0.267459,-0.0305949999999999,-0.5602729999999999,0.188068
685,-0.2383449999999999,0.937136,-0.254886,-0.035489,-0.510881,0.079211
686,-0.242312,0.938291,-0.246765,-0.124555,-0.283262,-0.20253
687,-0.243675,0.939397,-0.241152,-0.181969,-0.071385,-0.434278
688,-0.245698,0.940359,-0.235277,-0.109404,0.070307,-0.642744
689,-0.256037,0.937688,-0.2349139999999999,0.241999,0.3930619999999999,-0.753017
690,-0.269468,0.931077,-0.245927,0.153837,0.109389,-0.7312770000000001
691,-0.275094,0.924756,-0.262961,0.148644,0.018573,-0.712091
692,-0.2755309999999999,0.920964,-0.275512,0.18912,0.5434680000000001,-0.372803
693,-0.28,0.917581,-0.282211,0.853822,1.792441,0.419754
694,-0.281174,0.914875,-0.28973,1.232941,1.951168,0.924373
695,-0.246457,0.91827,-0.309899,0.295957,-0.6681020000000001,1.207131
696,-0.207751,0.927164,-0.311778,-0.953474,-1.250513,0.734614
697,-0.201467,0.938151,-0.281571,-1.123133,-1.156046,0.009186
698,-0.261036,0.931707,-0.2525489999999999,0.150776,0.734492,0.315537
699,-0.336361,0.912377,-0.233298,0.757458,0.7052069999999999,0.5417850000000001
700,-0.334727,0.919864,-0.204469,0.658015,0.503827,0.298799
701,-0.29728,0.940629,-0.163832,0.46824,0.390151,-0.035311
702,-0.276721,0.951448,-0.1348,0.328524,0.306761,-0.100964
703,-0.268104,0.956639,-0.113841,0.238654,-0.0505269999999999,0.069819
704,-0.258488,0.962333,-0.084243,0.172718,-0.328498,0.005615
705,-0.240581,0.969991,-0.035155,0.139354,-0.380026,-0.069307
706,-0.2198949999999999,0.975366,0.017455,0.176514,-0.329309,-0.041289
707,-0.203158,0.977276,0.060473,0.187808,-0.340588,-0.0412019999999999
708,-0.194129,0.976572,0.092837,0.2343969999999999,-0.308893,0.177808
709,-0.190113,0.974183,0.121747,0.225071,-0.18036,0.24248
710,-0.187202,0.970856,0.149639,0.1821809999999999,-0.099366,0.16074
711,-0.183758,0.966665,0.178297,0.095425,0.058375,-0.197523
712,-0.176171,0.962182,0.207769,0.017678,0.189979,-0.535573
713,-0.16655,0.956528,0.239402,0.015716,0.280472,-0.608954
714,-0.165166,0.950361,0.263687,0.115743,0.319994,-0.433639
715,-0.179969,0.947436,0.264525,0.365348,0.267468,-0.267775
716,-0.195351,0.945854,0.259223,0.525597,0.390374,-0.04119
717,-0.2028589999999999,0.945433,0.254956,0.460702,0.42795,-0.119458
718,-0.206486,0.945319,0.252455,0.307179,0.561776,-0.462859
719,-0.2093199999999999,0.947183,0.242959,0.378082,0.429908,-0.311471
720,-0.218888,0.952266,0.212782,0.442155,0.370976,-0.137343
721,-0.2280199999999999,0.959219,0.167045,0.20919,0.055643,0.045724
722,-0.2316949999999999,0.965589,0.118127,0.09258,-0.041425,0.0366579999999999
723,-0.234458,0.969585,0.070242,-0.0685809999999999,0.175862,0.00265
724,-0.235585,0.971713,0.016513,0.063421,0.418927,0.018567
725,-0.231902,0.971891,-0.040601,0.310104,0.432696,0.247236
726,-0.219514,0.972478,-0.078095,0.411881,0.405024,0.099365
727,-0.19914,0.976395,-0.083641,0.336606,0.373428,0.1537089999999999
728,-0.184516,0.978298,-0.094271,0.310066,0.211598,0.287462
729,-0.176598,0.977348,-0.1166329999999999,0.3341449999999999,0.023018,0.357417
730,-0.175699,0.973408,-0.146993,0.336344,-0.149632,0.5406850000000001
731,-0.1811809999999999,0.9641,-0.194125,0.263548,-0.18169,0.490084
732,-0.194024,0.947637,-0.253651,0.139901,-0.189306,0.066044
733,-0.208028,0.931379,-0.298759,-0.034587,-0.318449,-0.048378
734,-0.2094059999999999,0.924377,-0.318867,0.168512,-0.269882,0.259907
735,-0.20703,0.921088,-0.329752,0.265028,-0.235052,0.25416
736,-0.2046,0.920918,-0.331736,0.2401989999999999,-0.240025,0.249888
737,-0.198742,0.923933,-0.326879,0.185772,-0.310773,0.2561239999999999
738,-0.189582,0.929919,-0.315134,0.057685,-0.3533199999999999,0.237406
739,-0.177926,0.938154,-0.2969989999999999,-0.009925,-0.370161,0.183611
740,-0.164447,0.947934,-0.2727219999999999,-0.049207,-0.28906,0.1025099999999999
741,-0.153278,0.958316,-0.241113,-0.035779,-0.14989,-0.035605
742,-0.146764,0.967539,-0.2057389999999999,-0.038477,-0.0779509999999999,-0.16563
743,-0.144523,0.973842,-0.17534,-0.086969,0.45023,-0.552229
744,-0.145949,0.977297,-0.153588,-0.117295,0.912794,-0.713676
745,-0.153926,0.975964,-0.154277,0.153666,0.314762,-0.631993
746,-0.164249,0.970258,-0.177825,0.279697,-0.318799,-0.6283569999999999
747,-0.163659,0.964007,-0.209536,0.204263,0.000745,-0.739149
748,-0.164069,0.958879,-0.231586,0.432746,1.020674,0.047306
749,-0.161065,0.962984,-0.216148,0.723916,0.944182,1.210273
750,-0.140213,0.973291,-0.18178,0.627915,-0.377054,1.133089
751,-0.1149859999999999,0.979152,-0.167446,0.454662,-0.7753260000000001,0.91061
752,-0.100802,0.981868,-0.16054,-0.179471,-0.4962109999999999,0.606951
753,-0.1065369999999999,0.982685,-0.151588,-0.559036,-0.108799,0.007591
754,-0.1300059999999999,0.980626,-0.146527,-0.515807,0.364284,-0.54584
755,-0.1582599999999999,0.978138,-0.134902,-0.077519,0.530224,-0.366471
756,-0.1728589999999999,0.979542,-0.103039,0.600899,0.336285,0.301098
757,-0.172247,0.981179,-0.087283,0.5499930000000001,-0.0274899999999999,0.177508
758,-0.167327,0.981975,-0.0879,0.280181,-0.040782,0.050363
759,-0.158115,0.984481,-0.076126,0.070239,-0.022476,-0.021972
760,-0.154721,0.986372,-0.055947,0.1618619999999999,-0.13101,-0.121696
761,-0.1537329999999999,0.987388,-0.037793,0.158067,-0.116447,-0.211292
762,-0.149282,0.988542,-0.0223009999999999,0.180166,-0.0681929999999999,-0.225563
763,-0.1403839999999999,0.990064,-0.007937,0.1195859999999999,-0.087644,-0.26077
764,-0.128795,0.991667,0.002285,0.067409,-0.133757,-0.293392
765,-0.1165559999999999,0.993169,0.005363,0.019205,-0.166768,-0.3545
766,-0.109226,0.994016,-0.000182,-0.013318,-0.118772,-0.496888
767,-0.109473,0.993754,-0.0215789999999999,-0.062783,-0.013682,-0.4885529999999999
768,-0.118849,0.991054,-0.060697,-0.09186,0.080937,-0.424029
769,-0.140494,0.982577,-0.1216589999999999,-0.324853,0.31738,0.07045
770,-0.170672,0.968016,-0.183885,-0.362516,0.467393,0.577653
771,-0.209638,0.951005,-0.227244,-0.249423,0.498565,0.715388
772,-0.26281,0.926975,-0.267667,0.295876,0.5577810000000001,-0.029254
773,-0.295238,0.898749,-0.324165,0.395687,0.547281,-0.312142
774,-0.295781,0.879545,-0.37271,0.1955,0.422228,-0.318498
775,-0.297184,0.869569,-0.394372,-0.066479,0.1917859999999999,0.0883419999999999
776,-0.302973,0.861518,-0.407422,-0.0278829999999999,9e-06,0.260434
777,-0.306013,0.856377,-0.415901,0.0834179999999999,-0.2817,0.268486
778,-0.301769,0.855039,-0.421713,0.1428019999999999,-0.5277229999999999,0.278784
779,-0.2913699999999999,0.858146,-0.422714,0.181812,-0.619193,0.317429
780,-0.277863,0.8656200000000001,-0.416524,0.193909,-0.552845,0.3064929999999999
781,-0.262242,0.875883,-0.405038,0.194966,-0.5210859999999999,0.278924
782,-0.2447099999999999,0.8869940000000001,-0.391608,0.153538,-0.514756,0.192771
783,-0.22779,0.8988649999999999,-0.374368,-0.027062,-0.609833,0.117105
784,-0.216108,0.912012,-0.348611,-0.068712,-0.6545350000000001,0.180536
785,-0.209891,0.926275,-0.312984,-0.060739,-0.625768,0.188304
786,-0.2063719999999999,0.939052,-0.274937,0.076642,-0.337642,0.093555
787,-0.202994,0.949275,-0.240143,0.121847,-0.193019,-0.049225
788,-0.200633,0.955889,-0.214522,0.135295,0.046873,-0.355013
789,-0.1968599999999999,0.960308,-0.197614,0.032081,0.08675,-0.330737
790,-0.188066,0.96447,-0.185545,-0.012175,0.0054399999999999,-0.291506
791,-0.176862,0.967804,-0.179092,-0.091998,-0.197815,-0.07341
792,-0.164089,0.971111,-0.173252,-0.148991,-0.259441,-0.0074569999999999
793,-0.146957,0.97545,-0.164009,-0.164765,-0.331071,0.02755
794,-0.126248,0.980507,-0.150546,-0.280078,-0.215783,0.128055
795,-0.113621,0.984204,-0.13576,-0.397441,0.250369,0.3532889999999999
796,-0.117463,0.985038,-0.1261,0.3169869999999999,0.5212180000000001,0.325334
797,-0.1160269999999999,0.986712,-0.1137359999999999,0.742919,1.319898,-0.771778
798,-0.1158839999999999,0.98568,-0.122492,0.278482,2.994026,-1.706853
799,-0.131118,0.974745,-0.180773,0.210234,0.794237,-0.539609
800,-0.099221,0.970589,-0.2193409999999999,-0.490531,-0.085472,-0.063039
801,-0.088322,0.972434,-0.215802,0.316319,-0.233176,0.275235
802,-0.08837,0.976659,-0.195771,0.536429,-0.065999,0.385651
803,-0.071172,0.985617,-0.153268,0.2258659999999999,0.204477,0.04728
804,-0.0541549999999999,0.990634,-0.125335,-0.046492,-0.249606,0.156326
805,-0.040686,0.993935,-0.102158,-0.162409,-0.452996,0.035996
806,-0.035469,0.99601,-0.08188,-0.0262069999999999,-0.381813,0.024706
807,-0.036497,0.996355,-0.077093,0.050336,-0.32445,-0.233302
808,-0.045272,0.995308,-0.085506,-0.161439,-0.368935,-0.335942
809,-0.0568059999999999,0.993888,-0.094649,-0.163927,-0.4665439999999999,-0.295824
810,-0.066002,0.992903,-0.098928,0.076775,-0.374662,-0.1243539999999999
811,-0.073055,0.991363,-0.108912,0.224987,-0.262298,-0.126241
812,-0.081225,0.98809,-0.130686,0.165179,-0.175575,-0.177007
813,-0.09321,0.982469,-0.161446,0.135751,-0.193483,0.0515679999999999
814,-0.114347,0.971914,-0.2056849999999999,-0.023089,-0.0137539999999999,-0.046573
815,-0.146845,0.953766,-0.262233,-0.203497,0.249588,0.12292
816,-0.193661,0.92397,-0.32981,-0.414356,0.470851,-0.116158
817,-0.239488,0.8842760000000001,-0.400875,-0.2721389999999999,0.850541,-0.6180770000000001
818,-0.257442,0.852251,-0.455402,0.1711079999999999,1.053724,-0.298535
819,-0.269675,0.8275239999999999,-0.492422,0.385657,0.945288,-0.053278
820,-0.285917,0.8043,-0.5209159999999999,-0.193438,0.276328,0.143124
821,-0.29164,0.786341,-0.544622,-0.234758,-0.209407,0.175344
822,-0.2956809999999999,0.778602,-0.5534899999999999,0.169628,-0.372703,-0.014183
823,-0.297532,0.782423,-0.5470729999999999,0.148668,-0.617796,-0.023377
824,-0.289953,0.795706,-0.53177,0.2309929999999999,-0.470236,0.067476
825,-0.275183,0.817371,-0.506142,0.13294,-0.388171,0.245461
826,-0.257185,0.841728,-0.47471,0.016645,-0.4468,0.333917
827,-0.240123,0.8663190000000001,-0.437986,-0.064107,-0.657304,0.355802
828,-0.220938,0.893337,-0.391324,-0.021555,-0.7020069999999999,0.270474
829,-0.1955049999999999,0.922141,-0.333815,0.157557,-0.446021,0.100538
830,-0.167648,0.94823,-0.269729,0.194916,-0.293109,-0.043595
831,-0.141348,0.968206,-0.206391,0.2160239999999999,-0.0566309999999999,-0.135757
832,-0.1144329999999999,0.981914,-0.150829,0.1783819999999999,0.243245,-0.1517069999999999
833,-0.080676,0.991224,-0.104722,0.057147,-0.1189549999999999,-0.092436
834,-0.0488069999999999,0.996021,-0.074566,-0.432181,-0.4626649999999999,-0.0218389999999999
835,-0.028048,0.997458,-0.065505,-0.6788770000000001,-0.200446,-0.282121
836,-0.0307269999999999,0.995352,-0.091271,-0.747471,0.283869,0.7007680000000001
837,-0.059868,0.990953,-0.120118,-0.27436,2.94937,-1.799087
838,-0.136564,0.972383,-0.189269,0.70831,4.160903,-3.071397
839,-0.117827,0.951762,-0.283314,-0.727525,-0.1633099999999999,0.20438
840,-0.079173,0.960561,-0.266558,0.15742,-0.003759,-0.087934
841,-0.119989,0.951651,-0.282777,1.148676,0.45997,-0.0603169999999999
842,-0.1032339999999999,0.961609,-0.254264,0.262338,0.669036,-0.283013
843,-0.0677519999999999,0.968365,-0.240163,-0.116101,0.03809,0.1285609999999999
844,-0.042032,0.974057,-0.2223619999999999,-0.343695,-0.221906,0.007106
845,-0.036614,0.978573,-0.202618,-0.207344,-0.390133,-0.064258
846,-0.045114,0.98075,-0.1899829999999999,-0.116935,-0.329871,-0.300206
847,-0.055666,0.981961,-0.180702,-0.151335,-0.214551,-0.417091
848,-0.063804,0.982224,-0.176536,-0.079659,-0.241486,-0.427804
849,-0.074564,0.980342,-0.18267,0.041483,-0.371181,-0.279946
850,-0.089308,0.975431,-0.201388,-0.018373,-0.363722,-0.210858
851,-0.1085839999999999,0.966639,-0.231987,-0.0308209999999999,-0.415278,0.071862
852,-0.1383349999999999,0.952657,-0.270754,0.005598,-0.432592,0.339953
853,-0.181698,0.934807,-0.305159,-0.081363,-0.187324,0.327605
854,-0.24928,0.906151,-0.341688,0.026913,-0.070991,0.429533
855,-0.313402,0.8663639999999999,-0.388834,0.276934,0.351989,-0.0385649999999999
856,-0.351665,0.825788,-0.440916,0.024821,0.936145,-0.383868
857,-0.387902,0.794609,-0.467043,-0.105263,0.56675,0.015627
858,-0.41845,0.765101,-0.489407,-0.301246,0.2776079999999999,-0.260059
859,-0.421363,0.752356,-0.506373,-0.1375809999999999,-0.148535,0.03306
860,-0.4154319999999999,0.75144,-0.512595,-0.143513,-0.147619,0.039283
861,-0.4031349999999999,0.7621439999999999,-0.506575,0.091535,-0.427946,-0.0036479999999999
862,-0.380003,0.782754,-0.492843,0.186887,-0.359185,0.009734
863,-0.350503,0.811776,-0.467085,0.1240319999999999,-0.360451,0.0553409999999999
864,-0.316758,0.845719,-0.429446,0.021684,-0.393677,0.180575
865,-0.277526,0.8802770000000001,-0.384828,-0.041413,-0.350674,0.201647
866,-0.236409,0.911563,-0.336397,0.028936,-0.216709,0.051683
867,-0.199375,0.937738,-0.2844219999999999,0.178333,0.0041259999999999,-0.202577
868,-0.1635,0.958685,-0.232787,0.435198,-0.212348,-0.272493
869,-0.120068,0.974544,-0.189331,0.552899,-0.805447,0.030518
870,-0.0713179999999999,0.987557,-0.1401609999999999,0.229369,-0.626839,0.408151
871,-0.042566,0.994338,-0.097365,-0.05924,-0.462111,0.333251
872,-0.045107,0.993062,-0.108599,-0.523771,0.5265920000000001,0.053133
873,-0.090955,0.983961,-0.153452,-1.077319,2.15941,-1.334463
874,-0.174378,0.95803,-0.22753,-0.308456,1.8962330000000005,-1.0149629999999998
875,-0.163197,0.942478,-0.291722,1.286061,-0.600666,0.445378
876,-0.130379,0.939265,-0.317461,0.107521,0.050694,0.2468739999999999
877,-0.156395,0.935919,-0.315587,0.510704,-0.035986,0.269307
878,-0.166374,0.940302,-0.296903,0.616554,0.636572,-0.167483
879,-0.160398,0.939358,-0.303114,-0.063967,0.210544,-0.443193
880,-0.158613,0.93343,-0.321792,-0.276171,-0.001667,-0.278779
881,-0.170841,0.921452,-0.348911,-0.137203,-0.323598,0.151752
882,-0.193222,0.904079,-0.381191,-0.089752,-0.417293,0.287441
883,-0.219607,0.8797379999999999,-0.421703,-0.03636,-0.7163930000000001,0.469753
884,-0.2447659999999999,0.856441,-0.454531,-0.104553,-0.587902,0.643633
885,-0.275785,0.836103,-0.474209,0.277158,-0.583418,0.58865
886,-0.29879,0.80724,-0.5090060000000001,0.333885,-0.421101,0.3800389999999999
887,-0.3231219999999999,0.7712600000000001,-0.548407,0.398271,-0.2243389999999999,-0.517862
888,-0.34364,0.752637,-0.561649,0.081433,0.0090049999999999,-0.00433
889,-0.349013,0.7542439999999999,-0.556153,0.066085,0.236754,0.064057
890,-0.339846,0.770777,-0.538894,-0.364332,0.794042,0.001968
891,-0.3095989999999999,0.796906,-0.518738,-0.371462,0.406601,-0.218277
892,-0.275068,0.826018,-0.491968,-0.530153,-0.086851,-0.4349729999999999
893,-0.232506,0.859195,-0.455768,-0.068336,-0.349551,-0.727917
894,-0.1968859999999999,0.8922370000000001,-0.406384,0.252992,-0.45138,-0.631549
895,-0.162882,0.920864,-0.354229,0.287287,-0.330822,-0.1842079999999999
896,-0.115623,0.943561,-0.3103579999999999,0.3047559999999999,-0.045276,0.2672219999999999
897,-0.064748,0.967524,-0.244342,0.052679,0.28275,0.4831569999999999
898,-0.017909,0.986851,-0.160631,-0.373311,0.017116,0.541078
899,0.019989,0.995905,-0.088159,-0.6141810000000001,-0.33671,0.535363
900,0.031049,0.998527,-0.044486,-0.7591979999999999,-0.2573,0.1842869999999999
901,0.005772,0.998085,-0.06157,-0.770176,0.037849,-0.1307819999999999
902,-0.059618,0.990713,-0.122196,-0.018919,0.143625,-0.115994
903,-0.112968,0.978678,-0.171543,0.750373,2.449835,-2.386715
904,-0.105266,0.972553,-0.207507,0.3750719999999999,1.573086,0.0555909999999999
905,-0.061909,0.972044,-0.226487,0.2491809999999999,-0.524443,2.056138
906,-0.037232,0.960157,-0.27697,-0.6818529999999999,-0.415921,-0.708199
907,-0.085188,0.95722,-0.276535,0.5408609999999999,-0.304602,-0.073028
908,-0.1060079999999999,0.965171,-0.23918,0.65682,0.656304,-0.094408
909,-0.085797,0.974133,-0.209053,0.423413,0.573032,-0.020424
910,-0.0620299999999999,0.980517,-0.186381,-0.176831,-0.412051,0.1223549999999999
911,-0.052552,0.983925,-0.170673,-0.273742,-0.47631,0.132618
912,-0.06077,0.983759,-0.168893,-0.293203,-0.530725,0.065561
913,-0.076794,0.980703,-0.179786,-0.1275369999999999,-0.296331,-0.346123
914,-0.090774,0.97879,-0.183659,0.052077,-0.390182,-0.416164
915,-0.099019,0.978506,-0.180889,0.154438,-0.357077,-0.214375
916,-0.106689,0.976901,-0.185155,0.170424,-0.2655659999999999,-0.0565289999999999
917,-0.119546,0.973386,-0.195522,0.194527,-0.2383539999999999,-0.034275
918,-0.139532,0.96678,-0.214164,0.062048,-0.263243,-0.0696649999999999
919,-0.1680579999999999,0.955297,-0.243236,0.044904,-0.259969,0.170375
920,-0.207309,0.938155,-0.277285,-0.022153,0.153245,0.120654
921,-0.261676,0.90968,-0.322503,-0.125074,0.503528,-0.103263
922,-0.3136489999999999,0.8724120000000001,-0.374861,-0.21902,0.685693,-0.332079
923,-0.34335,0.8421489999999999,-0.415807,-0.180057,0.946929,-0.436945
924,-0.365687,0.8202149999999999,-0.439909,-0.066915,1.020743,0.032621
925,-0.381171,0.800379,-0.462712,-0.318368,0.768774,0.128269
926,-0.393201,0.784377,-0.479735,-0.1165799999999999,-0.052154,0.138625
927,-0.401237,0.774342,-0.489289,0.238121,-0.519764,-0.014907
928,-0.395877,0.7741640000000001,-0.4939149999999999,0.2342409999999999,-0.542367,0.031406
929,-0.3874579999999999,0.77949,-0.49221,0.212943,-0.332789,0.0424579999999999
930,-0.376473,0.790374,-0.4832979999999999,0.032188,-0.259368,0.227286
931,-0.360616,0.80606,-0.46928,-0.005656,-0.272308,0.284465
932,-0.342385,0.8260219999999999,-0.4477279999999999,-0.030555,-0.282321,0.2152909999999999
933,-0.319445,0.850814,-0.417218,0.000246,-0.301452,0.054776
934,-0.289423,0.8778540000000001,-0.381583,0.0646,-0.361695,-0.116067
935,-0.258263,0.903747,-0.341381,0.1207049999999999,-0.363403,-0.187962
936,-0.230898,0.927,-0.295562,0.254519,-0.347166,-0.150513
937,-0.203421,0.948001,-0.244771,0.299094,-0.073169,0.057714
938,-0.1726359999999999,0.967102,-0.186838,0.17404,0.052932,0.077341
939,-0.13671,0.981885,-0.13119,0.050315,-0.179471,0.061061
940,-0.098572,0.990907,-0.09157,-0.1569819999999999,-0.4046949999999999,-0.05409
941,-0.072649,0.995205,-0.065475,-0.267332,-0.469052,0.245376
942,-0.0643929999999999,0.996443,-0.054345,-0.6327510000000001,-0.004194,0.247934
943,-0.096623,0.992266,-0.077918,-1.516414,0.98509,-0.239267
944,-0.137916,0.984626,-0.107194,-0.09945,1.711282,-1.0026389999999998
945,-0.164839,0.979645,-0.114552,2.795316,0.4994659999999999,0.967747
946,-0.133623,0.980435,-0.144537,0.804171,1.339786,-1.6637970000000002
947,-0.109963,0.981226,-0.158437,-0.5582050000000001,0.3457389999999999,0.417302
948,-0.106196,0.980843,-0.163305,-0.132757,-0.071465,0.072851
949,-0.11208,0.982796,-0.146795,0.123554,-0.122094,-0.048273
950,-0.111989,0.98578,-0.125278,0.167958,-0.222078,0.106052
951,-0.1090859999999999,0.988504,-0.1046839999999999,0.085832,-0.297144,0.05166
952,-0.106543,0.990677,-0.0849029999999999,0.066427,-0.323654,-0.1112799999999999
953,-0.109653,0.991636,-0.068071,0.069965,-0.3652019999999999,-0.1383049999999999
954,-0.117533,0.991611,-0.053783,0.1806579999999999,-0.377796,-0.199742
955,-0.125544,0.991336,-0.038616,0.30691,-0.380359,-0.321385
956,-0.134123,0.990637,-0.025488,0.289427,-0.373877,-0.371607
957,-0.142905,0.989653,-0.012884,0.26319,-0.305494,-0.385447
958,-0.155703,0.987777,-0.007275,0.269411,-0.233398,-0.278721
959,-0.171778,0.985073,-0.011115,0.346629,-0.151562,-0.203348
960,-0.188748,0.981852,-0.018462,0.425885,-0.121119,-0.215623
961,-0.207027,0.977871,-0.0301529999999999,0.3745219999999999,-0.320324,-0.170988
962,-0.229169,0.972055,-0.0509019999999999,0.211423,-0.070977,0.013884
963,-0.254621,0.963355,-0.084358,0.126386,1.055948,-0.089836
964,-0.276098,0.952981,-0.124885,0.0503589999999999,1.558859,-0.1105119999999999
965,-0.275364,0.946229,-0.169777,-0.535259,1.6397389999999998,-0.139946
966,-0.2513309999999999,0.942855,-0.2187599999999999,-0.380551,0.581666,-0.031271
967,-0.233514,0.940911,-0.2452679999999999,0.148263,0.477302,-0.118211
968,-0.232785,0.937064,-0.260235,0.33659,0.403802,-0.1089359999999999
969,-0.2355539999999999,0.9318,-0.276156,0.3835949999999999,0.394997,0.131305
970,-0.232239,0.926857,-0.294958,0.213303,0.528007,0.268728
971,-0.226885,0.924002,-0.307804,-0.206923,0.373392,0.32706
972,-0.220811,0.923041,-0.3150199999999999,-0.287398,0.1608369999999999,0.276126
973,-0.220097,0.92208,-0.318318,-0.200893,0.14306,0.342686
974,-0.226113,0.919766,-0.320785,-0.0651009999999999,-0.0589409999999999,0.363754
975,-0.231778,0.9166,-0.325764,0.188291,-0.143773,0.307652
976,-0.232177,0.914395,-0.331625,0.1982259999999999,-0.153225,0.2338309999999999
977,-0.228498,0.912751,-0.3386349999999999,0.088453,-0.286255,0.13316
978,-0.2229989999999999,0.912732,-0.342331,0.069953,-0.4534729999999999,0.185166
