,gravity.x,gravity.y,gravity.z,userAcceleration.x,userAcceleration.y,userAcceleration.z
0,0.033538,0.921579,-0.386739,-0.067855,-0.048792,0.4130609999999999
1,0.024456,0.911373,-0.4108529999999999,-0.160289,-0.187298,0.645487
2,0.012515,0.904429,-0.42644,-0.2177,-0.2620949999999999,0.58739
3,-0.001892,0.900013,-0.43586,-0.186981,-0.207996,0.391212
4,-0.017945,0.89941,-0.436738,-0.1537619999999999,-0.193431,0.46486
5,-0.033166,0.902036,-0.430384,-0.104941,-0.233198,0.476252
6,-0.047007,0.907486,-0.417444,-0.053396,-0.290161,0.366342
7,-0.058119,0.915831,-0.397336,-1.7e-05,-0.263808,0.258603
8,-0.067531,0.926759,-0.369538,0.025554,-0.25676,0.203202
9,-0.077525,0.939075,-0.334855,0.053813,-0.1073799999999999,0.034638
10,-0.087723,0.951122,-0.296095,0.1079869999999999,0.133168,-0.246477
11,-0.099465,0.959485,-0.263621,0.193383,0.270542,-0.550268
12,-0.112022,0.961552,-0.250736,0.510703,0.4748189999999999,-0.523694
13,-0.1103809999999999,0.956251,-0.270925,0.6190939999999999,0.162142,-0.2331489999999999
14,-0.089234,0.949244,-0.301616,0.585359,-0.03947,-0.061055
15,-0.055237,0.945219,-0.32173,0.377777,-0.2286659999999999,0.8183739999999999
16,-0.03158,0.950249,-0.3098869999999999,0.034525,0.859383,0.92886
17,-0.0534929999999999,0.957876,-0.282155,-0.122243,1.033808,1.15952
18,-0.070467,0.951409,-0.2997579999999999,-0.899992,0.353034,0.51625
19,-0.07524,0.934109,-0.348969,-0.638704,-0.0177879999999999,-1.888244
20,-0.1112089999999999,0.937669,-0.329257,0.045062,-0.465363,0.705234
21,-0.139594,0.950867,-0.276342,0.412802,-0.371262,1.268468
22,-0.155854,0.958073,-0.24043,0.500077,0.017529,0.96214
23,-0.15333,0.957135,-0.245729,0.568705,0.490512,0.1320049999999999
24,-0.141992,0.959847,-0.2419349999999999,0.581415,0.335685,-0.894708
25,-0.133675,0.968992,-0.20781,0.287911,-0.040083,-0.183456
26,-0.123517,0.977392,-0.1716059999999999,0.021374,-0.203344,0.292333
27,-0.118324,0.983487,-0.136939,-0.19529,-0.289121,0.286369
28,-0.114023,0.987234,-0.111207,-0.193091,-0.159643,0.158097
29,-0.11317,0.989611,-0.088667,-0.186894,-0.102496,-0.138354
30,-0.11385,0.991332,-0.065572,-0.037029,-0.128462,0.001317
31,-0.1151529999999999,0.992324,-0.045096,0.08845,-0.07994,0.160316
32,-0.116487,0.992694,-0.031436,0.10753,-0.101017,0.13277
33,-0.117288,0.992882,-0.020719,0.024393,-0.052925,0.061841
34,-0.119627,0.992753,-0.011432,0.0041789999999999,-0.0073709999999999,0.047869
35,-0.1248339999999999,0.992177,-0.000867,0.047701,0.001796,0.08473
36,-0.130909,0.991312,0.0127599999999999,0.136371,-0.066737,0.1380279999999999
37,-0.13675,0.990186,0.02883,0.284394,-0.0342839999999999,0.130197
38,-0.141774,0.988747,0.047735,0.348973,0.006156,0.101298
39,-0.145994,0.986889,0.068825,0.4349189999999999,0.056507,0.1185369999999999
40,-0.1507619999999999,0.984706,0.087315,0.389059,0.0576669999999999,0.095119
41,-0.156419,0.982407,0.102031,0.329317,0.097092,0.069661
42,-0.162985,0.980038,0.113852,0.269293,0.138722,0.005579
43,-0.1701339999999999,0.977489,0.124776,0.3166489999999999,0.130924,-0.110356
44,-0.176114,0.975133,0.1345329999999999,0.44058,0.136515,-0.053722
45,-0.1807109999999999,0.973492,0.140203,0.505204,0.209003,-0.107122
46,-0.183199,0.97348,0.137023,0.350085,0.356248,-0.085998
47,-0.18262,0.97535,0.123859,0.269733,0.375373,-0.183323
48,-0.178324,0.978588,0.102795,0.129191,0.442341,-0.133649
49,-0.171198,0.982471,0.073768,-0.035269,0.4502069999999999,0.0140159999999999
50,-0.162266,0.986133,0.034807,-0.019847,0.253247,0.0041789999999999
51,-0.152554,0.988269,-0.007206,0.010922,-0.047992,0.211094
52,-0.14109,0.988715,-0.050362,-0.0028309999999999,0.0525299999999999,0.311776
53,-0.129148,0.986785,-0.097862,-0.109942,0.3522349999999999,0.341453
54,-0.1183099999999999,0.982191,-0.145955,-0.340919,0.466081,0.1299789999999999
55,-0.1059119999999999,0.976446,-0.18798,-0.312682,0.200236,0.275626
56,-0.089351,0.969898,-0.226529,-0.228169,0.079953,0.319943
57,-0.071079,0.962017,-0.263574,-0.169338,-0.061382,0.391473
58,-0.048942,0.9519,-0.3024739999999999,-0.151162,-0.027706,0.329391
59,-0.025224,0.940438,-0.339027,-0.140593,0.070975,0.268746
60,-0.0037909999999999,0.928587,-0.371096,-0.118295,0.020388,0.245669
61,0.009558,0.916344,-0.400278,-0.076163,-0.0859,0.324198
62,0.014302,0.904011,-0.427271,-0.078084,-0.180836,0.364771
63,0.011746,0.89346,-0.4489899999999999,-0.15469,-0.280468,0.315201
64,0.004036,0.888065,-0.4597,-0.105858,-0.413608,0.378951
65,-0.005017,0.8892969999999999,-0.4573029999999999,0.008542,-0.642638,0.284864
66,-0.014783,0.896453,-0.442893,0.09715,-0.822081,0.285544
67,-0.021685,0.907873,-0.418685,0.051897,-0.810308,0.213607
68,-0.025862,0.920342,-0.390259,0.0412279999999999,-0.743233,0.114166
69,-0.029342,0.931823,-0.361725,0.116729,-0.570419,0.130417
70,-0.0339,0.941719,-0.334689,0.169398,-0.348442,0.194934
71,-0.040991,0.948848,-0.31306,0.211981,-0.076107,0.15713
72,-0.052483,0.951953,-0.301713,0.084207,0.123364,0.095765
73,-0.063251,0.952691,-0.297286,-0.133984,0.142234,-0.06572
74,-0.070097,0.955454,-0.286694,-0.180925,0.043798,-0.24393
75,-0.07915,0.960105,-0.268204,-0.038937,-0.021949,-0.160827
76,-0.092125,0.96345,-0.251548,-0.035713,0.016973,-0.058694
77,-0.107771,0.965163,-0.2384219999999999,-0.067262,0.197816,-0.089458
78,-0.120915,0.966533,-0.226262,-0.1194109999999999,0.3027849999999999,0.019322
79,-0.123241,0.968273,-0.21739,-0.075108,0.069721,0.08415
80,-0.116014,0.971648,-0.206012,-0.140898,0.21927,0.135623
81,-0.106873,0.976299,-0.188198,-0.3275139999999999,0.769825,0.373714
82,-0.09241,0.980351,-0.174275,-0.243588,-0.0150949999999999,0.540211
83,-0.073109,0.983227,-0.167091,-0.048579,-0.479351,0.617988
84,-0.0581169999999999,0.984544,-0.165217,0.0121269999999999,-0.482529,0.6090800000000001
85,-0.04073,0.982307,-0.182796,0.014455,-0.251853,0.472469
86,-0.011031,0.975611,-0.219229,0.156615,1.171148,-1.577158
87,-0.006084,0.976065,-0.2173949999999999,0.309062,1.091928,-0.050031
88,-0.002502,0.976374,-0.216071,0.206085,-0.1140849999999999,0.541068
89,-0.00257,0.974549,-0.224161,0.2710329999999999,-0.2415469999999999,0.488535
90,-0.0035399999999999,0.973113,-0.230302,0.093307,-0.150084,0.136506
91,-0.0068879999999999,0.975663,-0.2191659999999999,0.096228,0.4791859999999999,-0.083264
92,-0.017138,0.980342,-0.1965599999999999,0.270968,0.523442,0.111263
93,-0.022369,0.982841,-0.183095,0.453551,0.361031,0.084569
94,-0.024654,0.983573,-0.178822,0.332469,-0.03562,0.010136
95,-0.0256959999999999,0.982592,-0.183994,0.211792,-0.051424,0.101505
96,-0.021446,0.978263,-0.206254,0.02729,-0.053337,-0.085143
97,-0.015237,0.968139,-0.249951,-0.037116,-0.137649,-0.29607
98,-0.0155819999999999,0.950873,-0.309188,-0.105421,-0.163398,-0.201997
99,-0.029893,0.921919,-0.386227,-0.199981,-0.2292159999999999,0.066464
100,-0.070677,0.890091,-0.45027,-0.057176,-0.360489,0.574187
101,-0.102828,0.872361,-0.477926,0.297484,-0.749787,0.96285
102,-0.128552,0.857878,-0.497513,0.326703,-0.9000229999999999,0.873078
103,-0.147015,0.84115,-0.520436,0.191861,-0.8115939999999999,0.757359
104,-0.136444,0.834677,-0.53357,-0.047089,-0.007513,0.394563
105,-0.10397,0.8412379999999999,-0.530575,0.0035979999999999,0.496134,0.027966
106,-0.077838,0.8571209999999999,-0.5092,0.017123,0.548045,-0.007554
107,-0.0678769999999999,0.873194,-0.4826229999999999,-0.071421,0.2274989999999999,0.221072
108,-0.0654309999999999,0.8903979999999999,-0.450456,-0.065581,0.081023,0.339494
109,-0.065863,0.916205,-0.395259,-0.089639,0.040032,0.189326
110,-0.07728,0.942899,-0.32399,0.031962,0.351779,-0.468613
111,-0.09694,0.962547,-0.253192,0.087571,0.690163,-1.485959
112,-0.1209349999999999,0.972427,-0.1994,0.250375,-0.058975,-0.845248
113,-0.130678,0.973764,-0.186296,0.220888,-0.187448,-0.433455
114,-0.129755,0.970984,-0.200881,-0.01882,-0.0279759999999999,-0.173844
115,-0.130351,0.968846,-0.210584,-0.079182,0.060039,-0.121982
116,-0.122116,0.97177,-0.201869,-0.105942,-0.1832869999999999,0.33845
117,-0.103947,0.97676,-0.187443,0.04189,-0.497085,0.522358
118,-0.083255,0.981453,-0.172683,-0.184018,-0.3382949999999999,0.368392
119,-0.0720529999999999,0.985774,-0.151848,-0.457442,0.26476,0.322502
120,-0.071418,0.989565,-0.12514,-0.442162,0.147855,0.381534
121,-0.064105,0.99124,-0.115469,0.235751,-0.107222,0.382436
122,-0.04551,0.990888,-0.126764,0.61744,0.264971,0.26153
123,-0.0186789999999999,0.988829,-0.147877,0.3265099999999999,0.523515,-0.508099
124,0.002003,0.986833,-0.161732,0.1180529999999999,0.7673479999999999,-0.98605
125,0.00564,0.986245,-0.165195,-0.041177,1.375114,-0.279706
126,-0.002641,0.986398,-0.164353,0.2274179999999999,-0.233957,0.294419
127,-0.005354,0.984468,-0.17548,0.543806,-0.391252,0.161213
128,-0.000587,0.980605,-0.195994,0.434303,0.133546,-0.557851
129,0.004878,0.978952,-0.204034,0.341145,0.606589,-0.209098
130,0.005214,0.979654,-0.200627,0.433537,0.239569,0.0069019999999999
131,0.010386,0.977742,-0.209552,0.4691369999999999,0.097316,0.034747
132,0.020298,0.970016,-0.242193,0.20155,-0.185394,0.159246
133,0.030693,0.951971,-0.304645,0.079949,-0.139242,0.121753
134,0.032333,0.91569,-0.400582,-0.199508,0.0894669999999999,-0.135673
135,0.00132,0.8759129999999999,-0.482468,-0.408516,-0.22154,0.7529600000000001
136,-0.042179,0.850183,-0.524795,-0.395107,-0.6256649999999999,1.073028
137,-0.083735,0.815493,-0.572677,-0.31246,-0.5536220000000001,0.72821
138,-0.105364,0.774696,-0.623494,0.012331,0.175087,0.330189
139,-0.102084,0.761584,-0.639975,0.246493,0.373319,0.307395
140,-0.090143,0.7735350000000001,-0.62731,0.370401,-0.0311639999999999,0.112525
141,-0.087351,0.7956270000000001,-0.599457,0.0085849999999999,-0.2912929999999999,0.291092
142,-0.081761,0.8232430000000001,-0.561771,-0.1053119999999999,-0.3411409999999999,0.300983
143,-0.06819,0.856291,-0.511973,-0.110765,-0.3119639999999999,-0.031514
144,-0.0549529999999999,0.893418,-0.445852,0.062765,-0.18036,-0.25413
145,-0.0531409999999999,0.926327,-0.372953,0.262507,0.1322819999999999,-0.311587
146,-0.069222,0.952142,-0.297713,0.2872389999999999,0.538412,-0.231263
147,-0.095682,0.967639,-0.2334929999999999,-0.082587,0.712124,-0.053693
148,-0.10769,0.974424,-0.197234,-0.366874,0.690554,-0.029283
149,-0.098454,0.977849,-0.184713,-0.153896,0.132549,-0.1336619999999999
150,-0.083027,0.980194,-0.179793,-0.10638,-0.504181,-0.048768
151,-0.06295,0.983671,-0.1686079999999999,-0.028251,-0.839674,0.138564
152,-0.042517,0.988163,-0.147397,-0.1213619999999999,-0.551106,0.182309
153,-0.041468,0.991097,-0.126521,-0.328313,0.212166,0.253245
154,-0.051715,0.991489,-0.1194809999999999,-0.422712,0.6179319999999999,0.414602
155,-0.051233,0.989789,-0.133014,0.122094,-0.05351,0.324497
156,-0.031286,0.987643,-0.153566,0.5676329999999999,0.13017,0.179261
157,-0.00916,0.985851,-0.167372,0.217381,0.346989,-0.063387
158,0.0114939999999999,0.983548,-0.180283,0.213833,0.259464,-0.6518550000000001
159,0.027024,0.97663,-0.213223,0.0713029999999999,0.6402979999999999,0.024609
160,0.027275,0.9787,-0.203474,0.114952,0.407896,0.496015
161,0.038883,0.979734,-0.196494,0.526806,0.139742,0.448706
162,0.064703,0.973202,-0.220661,0.5328609999999999,0.397175,-0.681133
163,0.071188,0.970343,-0.231014,0.239619,0.370584,-0.135091
164,0.065291,0.969314,-0.236996,-0.011824,0.0224919999999999,0.249554
165,0.0610809999999999,0.966807,-0.248101,0.109528,-0.195383,0.055413
166,0.06002,0.959213,-0.2762409999999999,0.109444,-0.171844,-0.056126
167,0.0590299999999999,0.941981,-0.330434,0.081321,0.024495,-0.269282
168,0.045594,0.916169,-0.3981909999999999,-0.054185,-0.023423,0.108945
169,0.015044,0.8808790000000001,-0.473103,-0.044036,-0.235569,0.556248
170,-0.023728,0.842334,-0.538434,0.025223,-0.2495139999999999,0.83772
171,-0.055232,0.804092,-0.591933,-0.270543,0.032654,0.290283
172,-0.0702899999999999,0.772254,-0.631414,-0.174675,0.419336,0.162557
173,-0.08185,0.751871,-0.654209,-0.039839,0.616583,0.093723
174,-0.095194,0.743183,-0.6622819999999999,0.113047,0.085598,0.368794
175,-0.102125,0.748579,-0.655133,0.072737,-0.1426069999999999,0.421155
176,-0.101821,0.765989,-0.634739,-0.04944,-0.313138,0.351582
177,-0.091918,0.793572,-0.601494,-0.089127,-0.17263,0.163079
178,-0.081356,0.82425,-0.560351,-0.061008,-0.087754,-0.005475
179,-0.07495,0.854909,-0.513335,-0.071397,-0.067983,-0.105699
180,-0.081852,0.8853719999999999,-0.457621,0.07314,0.026661,-0.302129
181,-0.103465,0.914873,-0.39026,0.143748,0.138487,-0.312163
182,-0.12648,0.938626,-0.320912,0.194947,0.542957,-0.303234
183,-0.142981,0.95423,-0.262682,0.146583,0.692056,-0.094069
184,-0.143156,0.963379,-0.226733,0.011748,0.3688659999999999,0.053408
185,-0.126077,0.966947,-0.221628,-0.07682,-0.1852079999999999,-0.086997
186,-0.097952,0.969509,-0.224627,-0.1128319999999999,-0.45715,-0.313459
187,-0.071025,0.97546,-0.208406,-0.155584,-0.569988,-0.0107099999999999
188,-0.0601289999999999,0.981834,-0.179964,-0.214437,-0.316688,0.40967
189,-0.065812,0.986981,-0.146759,-0.478042,0.270771,0.708176
190,-0.071471,0.989612,-0.1247369999999999,-0.299973,-0.196888,0.473675
191,-0.065163,0.987881,-0.140875,0.297508,-0.200435,-0.02778
192,-0.05227,0.984722,-0.166105,0.611367,0.221135,-0.137484
193,-0.034154,0.986023,-0.16307,0.409307,0.613952,0.292846
194,-0.010981,0.984132,-0.177097,0.340678,0.963179,0.104984
195,0.004711,0.979927,-0.199303,0.286747,0.167901,-0.426139
196,0.008877,0.975079,-0.221681,0.076953,-0.118252,0.213151
197,0.003849,0.975408,-0.2203719999999999,0.046642,-0.102789,0.69521
198,-5.5e-05,0.977478,-0.211037,0.120249,0.130844,0.5221939999999999
199,-0.00377,0.980008,-0.198922,0.473893,0.425983,-0.3367989999999999
200,-0.006254,0.983194,-0.182454,0.508238,0.231787,0.190633
201,-0.008934,0.984087,-0.1774609999999999,0.231803,0.07118,-0.256926
202,-0.012881,0.983138,-0.182411,0.192172,0.031159,-0.2255329999999999
203,-0.014145,0.980365,-0.196686,0.175995,-0.07973,-0.027496
204,-0.013631,0.974275,-0.224951,0.04511,-0.27292,-0.088312
205,-0.014162,0.961938,-0.272902,-0.001539,-0.263283,-0.097871
206,-0.018122,0.940941,-0.3380849999999999,-0.080877,-0.200264,-0.258945
207,-0.034222,0.909358,-0.414604,-0.014987,-0.212337,0.123192
208,-0.070755,0.880951,-0.467888,0.172394,-0.3246,0.373054
209,-0.120364,0.856073,-0.502644,0.344684,-0.375467,0.887043
210,-0.165555,0.833039,-0.5278619999999999,0.071973,-0.512818,0.676284
211,-0.187052,0.817734,-0.5443560000000001,-0.059072,-0.246506,0.548933
212,-0.189201,0.8166140000000001,-0.545293,-0.1302569999999999,0.2229219999999999,0.466726
213,-0.179609,0.8316629999999999,-0.5254310000000001,0.070096,0.269869,0.341197
214,-0.173892,0.85085,-0.4957979999999999,0.022021,0.283336,0.323496
215,-0.171931,0.8688629999999999,-0.464239,0.027979,0.228244,0.0288439999999999
216,-0.168877,0.891552,-0.420257,0.163262,0.1628609999999999,-0.132737
217,-0.165787,0.920552,-0.353692,0.307877,0.125529,-0.231986
218,-0.158559,0.947408,-0.277986,0.1831559999999999,0.537195,-0.612074
219,-0.1601119999999999,0.964105,-0.2118159999999999,-0.220228,0.625571,-0.767676
220,-0.16885,0.972173,-0.162384,-0.321171,0.367365,-0.1650839999999999
221,-0.167326,0.976464,-0.1360859999999999,-0.252443,0.188514,-0.096397
222,-0.163681,0.9779,-0.13008,-0.190735,-0.1162049999999999,0.052398
223,-0.158867,0.978257,-0.133323,-0.036278,-0.440568,0.1504589999999999
224,-0.149079,0.979762,-0.133575,0.02675,-0.8145399999999999,0.225372
225,-0.135183,0.983136,-0.123164,0.024556,-1.031262,0.296305
226,-0.123124,0.987677,-0.0966149999999999,-0.01213,-1.145804,0.5380060000000001
227,-0.121616,0.989811,-0.074056,-0.255947,-0.014911,0.248739
228,-0.126592,0.989188,-0.074043,-0.125544,0.696802,-0.262322
229,-0.124447,0.989782,-0.069605,0.493847,0.477793,0.164973
230,-0.110989,0.992756,-0.046012,0.4923979999999999,-0.143116,0.550956
231,-0.091252,0.995596,-0.0214819999999999,0.577381,0.033777,0.270032
232,-0.075275,0.996845,-0.025164,0.185138,0.746273,-0.660841
233,-0.076646,0.996394,-0.036387,-0.177627,1.495183,-1.676839
234,-0.090685,0.994752,-0.047387,0.152117,0.072357,0.4973229999999999
235,-0.09651,0.99297,-0.068527,0.5430590000000001,-0.47234,0.1773829999999999
236,-0.102842,0.991253,-0.082713,0.548948,-0.450008,-0.191289
237,-0.118444,0.990626,-0.068052,0.4114279999999999,-0.232173,0.233427
238,-0.132287,0.990047,-0.048026,0.4287189999999999,0.167698,-0.0633789999999999
239,-0.140762,0.989816,-0.021227,0.659377,0.167105,-0.1657539999999999
240,-0.146472,0.989201,0.005194,0.779895,0.137889,-0.0036369999999999
241,-0.1527079999999999,0.988207,0.011266,0.770964,0.114408,-0.041661
242,-0.156167,0.987727,-0.002779,0.5911489999999999,-0.031123,-0.126738
243,-0.154117,0.987227,-0.0403829999999999,0.5022310000000001,-0.056639,-0.237236
244,-0.147107,0.985302,-0.086827,0.276303,-0.0191919999999999,-0.128261
245,-0.137197,0.980163,-0.143031,0.07729,0.3377239999999999,0.219112
246,-0.127571,0.969821,-0.207782,-0.179847,0.518476,-0.037991
247,-0.118588,0.9576,-0.2625639999999999,-0.126621,0.616634,0.104681
248,-0.111713,0.945057,-0.307226,-0.031399,0.8177,0.305822
249,-0.0986669999999999,0.931185,-0.350942,0.076405,0.987776,0.101995
250,-0.077189,0.915122,-0.395719,0.1837869999999999,0.848672,0.071607
251,-0.062133,0.8997200000000001,-0.432021,0.35939,0.492964,0.164443
252,-0.061022,0.8851760000000001,-0.461238,0.130052,0.249468,0.496302
253,-0.063328,0.8737940000000001,-0.482155,-0.043758,0.279755,0.4990159999999999
254,-0.070898,0.8675200000000001,-0.492324,-0.263117,0.276447,0.232971
255,-0.088131,0.867561,-0.48946,-0.126911,-0.18415,0.363316
256,-0.10617,0.875597,-0.471231,-0.022446,-0.4563609999999999,0.437417
257,-0.119065,0.88931,-0.441532,0.053788,-0.4920479999999999,0.37009
258,-0.128067,0.906332,-0.4026929999999999,0.157486,-0.47228,0.184584
259,-0.13175,0.926103,-0.353518,0.2313889999999999,-0.45453,-0.024336
260,-0.132038,0.943792,-0.3030219999999999,0.388523,-0.455679,-0.216631
261,-0.135712,0.954886,-0.264151,0.39029,-0.008246,-0.287546
262,-0.146194,0.958136,-0.246178,0.323532,0.123239,-0.250023
263,-0.156127,0.956219,-0.247525,0.1236869999999999,0.172168,-0.350756
264,-0.158595,0.953183,-0.257468,0.383754,-0.2787449999999999,-0.4919979999999999
265,-0.155612,0.953723,-0.257286,0.503879,-0.5201600000000001,-0.01255
266,-0.152621,0.955438,-0.252676,0.491763,-0.5617,0.485159
267,-0.148828,0.951638,-0.268765,0.391565,0.244162,0.897244
268,-0.145542,0.948181,-0.282437,0.063099,0.677246,1.097744
269,-0.14534,0.951365,-0.271626,-0.32814,0.224157,0.774097
270,-0.141189,0.959515,-0.243715,-0.468476,0.480274,0.78232
271,-0.141367,0.960318,-0.2404239999999999,-0.452077,1.182275,0.6545479999999999
272,-0.149624,0.952312,-0.265923,0.11456,0.28214,-0.080971
273,-0.145868,0.94998,-0.276153,0.542917,0.21718,-0.477783
274,-0.1628609999999999,0.949157,-0.269403,0.633671,-0.15103,-0.086569
275,-0.181076,0.954347,-0.237555,0.681733,-0.042085,0.139624
276,-0.185495,0.963025,-0.195384,0.400003,0.592258,0.305903
277,-0.1812869999999999,0.969979,-0.162096,0.228131,0.426291,0.0264459999999999
278,-0.175422,0.976142,-0.12796,0.15029,0.063744,0.022232
279,-0.170995,0.980961,-0.092066,0.000707,-0.066944,0.040842
280,-0.16937,0.983805,-0.058658,-0.097536,-0.071055,0.0460089999999999
281,-0.170451,0.98491,-0.029961,-0.068593,-0.100923,0.01838
282,-0.173983,0.984741,-0.003799,0.026781,-0.158386,0.0682059999999999
283,-0.178265,0.983726,0.022454,0.119015,-0.231834,0.052528
284,-0.182118,0.981985,0.050386,0.155187,-0.259283,0.0252669999999999
285,-0.188431,0.978873,0.079384,0.184097,-0.2212739999999999,0.045952
286,-0.194961,0.974836,0.108099,0.244598,-0.153318,0.026971
287,-0.199464,0.970226,0.1373849999999999,0.27115,-0.146069,-0.0081739999999999
288,-0.203855,0.964816,0.166051,0.297621,-0.155627,-0.054494
289,-0.208079,0.959146,0.191682,0.3607889999999999,-0.12536,-0.170182
290,-0.2113449999999999,0.953828,0.213414,0.42596,-0.0223699999999999,-0.264821
291,-0.213758,0.949216,0.230861,0.388258,0.128024,-0.28422
292,-0.2149869999999999,0.946256,0.2416199999999999,0.3678349999999999,0.161654,-0.2913179999999999
293,-0.214606,0.945119,0.246364,0.337317,0.1539869999999999,-0.332347
294,-0.212996,0.945792,0.2451719999999999,0.34175,0.131707,-0.445642
295,-0.211811,0.948318,0.236282,0.339924,0.177308,-0.456711
296,-0.21215,0.953444,0.21433,0.26168,0.430421,-0.166631
297,-0.212992,0.961059,0.176066,0.171763,0.619599,0.326269
298,-0.213003,0.969537,0.120949,0.134985,0.291877,-0.085991
299,-0.208482,0.976455,0.055412,0.191072,0.203873,-0.442909
300,-0.202767,0.979195,-0.007881,0.261757,0.404289,-0.251548
301,-0.1983849999999999,0.977915,-0.065762,0.271231,0.490697,-0.03693
302,-0.197572,0.974699,-0.104538,0.2120369999999999,0.3976159999999999,0.38475
303,-0.193617,0.973097,-0.1248789999999999,0.355925,0.3164389999999999,0.375596
304,-0.182896,0.971415,-0.151335,0.556584,0.211111,0.129332
305,-0.157192,0.969309,-0.189025,0.534191,0.2128659999999999,-0.062593
306,-0.122117,0.968006,-0.219208,0.1224369999999999,0.07481,-0.36029
307,-0.093297,0.965552,-0.242909,0.007634,0.061547,-0.134472
308,-0.073024,0.96603,-0.247896,-0.225712,-0.297299,0.471041
309,-0.0505199999999999,0.963394,-0.263286,-0.055651,-0.2083739999999999,0.334438
310,-0.031913,0.958012,-0.284945,-0.000771,-0.136143,0.278415
311,-0.017408,0.952738,-0.303295,-0.011461,-0.138071,0.2182579999999999
312,-0.0068909999999999,0.948552,-0.316546,-0.074545,-0.168721,0.300966
313,-0.0003549999999999,0.947659,-0.319283,-0.094967,-0.198163,0.420709
314,0.001998,0.950964,-0.309295,-0.174849,-0.248129,0.318633
315,-0.000707,0.957003,-0.290076,-0.162379,-0.2436239999999999,0.191428
316,-0.009043,0.964488,-0.263972,0.041788,-0.202525,0.076273
317,-0.018665,0.973216,-0.229134,0.131397,-0.173762,0.02546
318,-0.027736,0.982003,-0.186819,0.196071,-0.1602559999999999,-0.047602
319,-0.037138,0.988586,-0.146007,0.162107,-0.166534,-0.428334
320,-0.052949,0.991024,-0.122751,0.123414,-0.127697,-0.7092649999999999
321,-0.069866,0.988442,-0.134539,0.269573,0.369834,0.166872
322,-0.075083,0.983597,-0.164009,0.117335,1.110107,0.449928
323,-0.0773399999999999,0.981216,-0.176731,-0.094275,0.8754280000000001,0.25861
324,-0.070367,0.982105,-0.174697,-0.295371,-0.387836,-0.108872
325,-0.065363,0.984403,-0.1633349999999999,-0.059896,-0.427228,-0.558131
326,-0.080606,0.985131,-0.151725,0.219492,-0.161339,-0.025414
327,-0.101211,0.985465,-0.136434,0.5131220000000001,0.142769,0.388692
328,-0.11383,0.98724,-0.111358,0.5591729999999999,0.37238,0.540771
329,-0.115407,0.989168,-0.090706,0.4397939999999999,0.402205,0.3648
330,-0.105918,0.992104,-0.067158,0.2039099999999999,0.167075,0.105168
331,-0.090721,0.995174,-0.037399,0.005318,-0.036968,-0.092422
332,-0.078733,0.99686,-0.008405,-0.076022,-0.080402,-0.110049
333,-0.075585,0.996997,0.016819,-0.244254,-0.1522859999999999,0.0603289999999999
334,-0.0788669999999999,0.996152,0.038225,-0.193014,-0.177549,0.077818
335,-0.086073,0.994623,0.057597,-0.050142,-0.126443,-0.0566049999999999
336,-0.095161,0.992257,0.079817,0.123923,-0.082513,-0.261443
337,-0.104202,0.989115,0.103893,0.162307,-0.052912,-0.344448
338,-0.112418,0.985579,0.126478,0.23928,0.029375,-0.391569
339,-0.1179819999999999,0.982114,0.1467369999999999,0.365113,0.094592,-0.305596
340,-0.119875,0.979621,0.161159,0.439317,0.119729,-0.266842
341,-0.120597,0.978648,0.166444,0.39846,0.07665,-0.105577
342,-0.11863,0.979611,0.162139,0.339654,0.016056,-0.214324
343,-0.112744,0.9827,0.1469359999999999,0.177777,0.228848,-0.297327
344,-0.105201,0.987846,0.114422,-0.006692,0.327705,0.043125
345,-0.09291,0.994107,0.055846,-0.030182,0.232242,0.086916
346,-0.070003,0.997275,-0.023288,-0.104451,0.294351,-0.292356
347,-0.045704,0.993501,-0.104243,-0.43211,0.349501,-0.484471
348,-0.040561,0.982062,-0.184145,-0.338498,0.40159,0.149798
349,-0.060622,0.96828,-0.242403,-0.22014,0.4166229999999999,0.731951
350,-0.088028,0.952678,-0.290957,-0.03891,0.347584,0.549196
351,-0.09082,0.935551,-0.341314,0.288117,0.2239489999999999,-0.121653
352,-0.069175,0.923624,-0.377007,0.361076,0.147193,0.071129
353,-0.051798,0.91494,-0.400252,0.2102909999999999,-0.002571,0.288161
354,-0.038835,0.908327,-0.416454,-0.135619,-0.474505,0.240001
355,-0.027887,0.905179,-0.4241149999999999,-0.10372,-0.492596,0.1913119999999999
356,-0.0207849999999999,0.906945,-0.420735,-0.037565,-0.4889159999999999,0.281667
357,-0.016874,0.913127,-0.407326,-0.0008869999999999,-0.602168,0.443535
358,-0.011836,0.921823,-0.38743,-0.001531,-0.701272,0.408442
359,-0.001196,0.933455,-0.358692,-0.001032,-0.709929,0.36179
360,0.012697,0.948481,-0.31658,-0.030886,-0.700175,0.332815
361,0.026067,0.964404,-0.263146,-0.02419,-0.738558,0.166772
362,0.034303,0.978201,-0.204807,0.087188,-0.634634,0.08997
363,0.029267,0.988278,-0.149832,0.0485839999999999,-0.252896,-0.140863
364,0.00829,0.994318,-0.1061319999999999,-0.093876,0.069373,-0.410225
365,-0.014674,0.996461,-0.0827659999999999,-0.289921,0.395171,-0.705976
366,-0.024812,0.996936,-0.074188,-0.018736,0.536146,-0.656692
367,-0.028762,0.997254,-0.068239,0.125701,0.182403,-0.1485119999999999
368,-0.026905,0.99743,-0.06641,-0.062496,0.019614,0.097065
369,-0.018751,0.997609,-0.0665149999999999,-0.2205369999999999,0.103419,0.16794
370,-0.009229,0.998208,-0.059124,-0.464862,0.106498,0.097637
371,-0.002109,0.999071,-0.043035,-0.516599,0.2647989999999999,0.099371
372,-0.001625,0.999633,-0.0270389999999999,-0.5299,0.102311,0.263138
373,0.0094939999999999,0.999857,-0.01403,-0.032947,-0.618417,0.1036599999999999
374,0.024106,0.999687,0.0066739999999999,0.188952,-0.4321819999999999,0.004892
375,0.033199,0.99936,0.013303,0.250172,0.509414,-0.091062
376,0.04639,0.998921,0.002179,0.526746,0.608074,-0.2052739999999999
377,0.071484,0.997402,-0.008878,0.2375679999999999,1.289585,-0.996218
378,0.0916,0.995707,-0.0132719999999999,0.0921309999999999,0.304677,-0.3205139999999999
379,0.10574,0.994196,-0.019832,-0.0394259999999999,-0.395701,0.458751
380,0.1136619999999999,0.993061,-0.030177,-0.139587,-0.388615,0.287638
381,0.109021,0.99362,-0.028865,-0.190381,-0.17462,0.1094619999999999
382,0.096461,0.995045,-0.024116,0.135915,0.370312,-0.347008
383,0.082675,0.996527,-0.009935,0.27612,0.367426,-0.125288
384,0.0814,0.996642,0.008887,0.6204729999999999,0.251207,0.007669
385,0.091004,0.995659,0.0195569999999999,0.491608,0.1199269999999999,-0.398555
386,0.095742,0.995356,0.009978,0.1987529999999999,0.085424,-0.492827
387,0.096608,0.995195,-0.015943,-0.027929,0.065535,-0.4599789999999999
388,0.099616,0.993304,-0.058516,-0.2302469999999999,-0.142184,-0.120179
389,0.10002,0.988048,-0.117293,-0.257704,-0.395015,-0.183915
390,0.090535,0.976389,-0.19613,-0.257847,-0.420268,-0.153937
391,0.069815,0.957215,-0.280828,-0.159246,-0.425386,0.341192
392,0.041817,0.934893,-0.352458,0.031761,-0.414523,0.374323
393,0.006285,0.911278,-0.4117449999999999,0.157335,-0.312797,0.578477
394,-0.019743,0.8880459999999999,-0.45933,0.183928,-0.208648,0.6709390000000001
395,-0.022155,0.868717,-0.494812,0.012862,0.169796,0.15329
396,-0.020015,0.861275,-0.507744,0.000667,0.366951,-0.069816
397,-0.02269,0.8633059999999999,-0.504171,-0.074371,0.051779,0.129415
398,-0.021437,0.8715940000000001,-0.489759,-0.172945,-0.099347,0.486402
399,-0.011065,0.887368,-0.46093,-0.2141699999999999,-0.062325,0.2990489999999999
400,-0.000319,0.910636,-0.41321,-0.289796,-0.02912,0.091722
401,0.006846,0.936625,-0.350267,-0.3224889999999999,0.164511,-0.219526
402,0.003114,0.961968,-0.273146,-0.125489,0.1098859999999999,-0.719179
403,-0.011884,0.982528,-0.1857329999999999,-0.038897,0.00116,-0.827909
404,-0.028642,0.992896,-0.1154869999999999,0.186463,-0.2696139999999999,-0.34629
405,-0.032724,0.996814,-0.072733,0.239542,0.069866,-0.272192
406,-0.034835,0.998076,-0.051284,0.121307,0.228868,-0.136354
407,-0.031092,0.998541,-0.044143,-0.3256429999999999,-0.089896,-0.033097
408,-0.010407,0.998868,-0.046414,-0.168456,-0.549604,-0.275165
409,0.0130509999999999,0.998736,-0.048541,-0.23113,-0.8358030000000001,-0.354627
410,0.034093,0.998529,-0.0421529999999999,-0.191778,-0.4592229999999999,-0.233787
411,0.0438949999999999,0.998572,-0.030455,-0.079311,0.2589349999999999,0.281767
412,0.040819,0.999121,-0.009511,-0.153566,0.324975,0.226384
413,0.0446509999999999,0.998989,0.005233,0.016201,0.614643,0.683503
414,0.060897,0.998143,-0.001359,0.48491,0.864604,0.4582529999999999
415,0.079167,0.996855,-0.003571,0.229763,0.282717,-1.011078
416,0.086962,0.996174,-0.0085989999999999,-0.191043,0.955303,-0.765312
417,0.087184,0.996151,-0.009105,0.201512,0.546269,0.3598739999999999
418,0.10039,0.994824,-0.015726,0.442212,-0.244626,0.120218
419,0.121667,0.991782,-0.039561,0.408592,-0.68357,-0.310735
420,0.144341,0.987542,-0.062655,-0.0796279999999999,-0.177087,-1.076383
421,0.148695,0.984556,-0.092407,-0.057661,0.322756,0.286605
422,0.137883,0.984176,-0.11129,0.101939,0.060273,0.120873
423,0.132875,0.981363,-0.138822,0.202269,-0.214273,0.02725
424,0.134077,0.973945,-0.1829049999999999,0.099413,-0.443367,0.297574
425,0.1331109999999999,0.961163,-0.241757,-0.081811,-0.442685,0.0870789999999999
426,0.127519,0.937449,-0.323927,-0.174898,-0.278773,-0.051195
427,0.1034109999999999,0.9122,-0.396481,-0.2740039999999999,-0.075179,0.677762
428,0.073068,0.8934030000000001,-0.443274,-0.1897829999999999,-0.1223609999999999,0.7599239999999999
429,0.049707,0.8762620000000001,-0.479264,-0.176599,0.077305,0.196213
430,0.031343,0.8680479999999999,-0.49549,-0.047945,0.032587,0.332496
431,0.022036,0.870691,-0.491336,-0.00516,-0.004511,0.349735
432,0.015078,0.883754,-0.467709,0.001523,-0.04893,0.320111
433,0.006298,0.905638,-0.424006,-0.2065699999999999,-0.200163,-0.064245
434,-0.000261,0.932106,-0.362187,-0.203124,-0.109153,-0.260265
435,-0.005553,0.958441,-0.285236,-0.10727,-0.048102,-0.279919
436,-0.012365,0.980099,-0.198126,0.007864,0.225254,-0.391046
437,-0.0158169999999999,0.993155,-0.115728,0.191766,0.2388699999999999,-0.6221720000000001
438,-0.014608,0.998396,-0.054701,0.211904,0.316607,-0.450258
439,-0.012457,0.999601,-0.025363,-0.116632,0.233676,-0.016339
440,0.000151,0.999672,-0.025604,-0.4187149999999999,-0.171074,0.025543
441,0.026344,0.998712,-0.043352,-0.2365489999999999,-0.521173,-0.476973
442,0.0560419999999999,0.997611,-0.040386,-0.062085,-0.703086,-0.534154
443,0.0701929999999999,0.997262,-0.023252,0.008496,-0.567163,0.184309
444,0.06522,0.99776,-0.01488,-0.477421,0.425275,0.402331
445,0.053666,0.998458,-0.014184,-0.548722,0.608536,0.5916520000000001
446,0.055846,0.997773,-0.03648,0.074632,0.08699,0.464443
447,0.078778,0.995238,-0.057398,0.611545,0.370866,-0.6957300000000001
448,0.096549,0.994102,-0.049392,0.371621,0.062462,-0.8672030000000001
449,0.1118369999999999,0.992668,-0.045852,0.212839,0.5534899999999999,-0.4314119999999999
450,0.123787,0.991493,-0.040219,0.2866889999999999,0.4856789999999999,0.030713
451,0.138018,0.989186,-0.049622,0.420438,0.240917,0.119644
452,0.1513789999999999,0.986239,-0.066468,0.335132,-0.413301,-0.139572
453,0.16163,0.983344,-0.083131,-0.254388,0.105493,-0.534103
454,0.161589,0.98066,-0.110429,-0.193189,0.287208,-0.298201
455,0.154258,0.976927,-0.1477099999999999,0.053582,-0.113356,0.024663
456,0.149919,0.968659,-0.198051,0.058348,-0.408051,0.146202
457,0.145679,0.954296,-0.260955,-0.032871,-0.393596,0.088607
458,0.131787,0.933438,-0.333656,-0.0633659999999999,-0.282513,0.025123
459,0.108082,0.908881,-0.402807,-0.1935319999999999,-0.0325839999999999,0.28655
460,0.074874,0.8840629999999999,-0.461331,-0.139572,0.069672,0.4351319999999999
461,0.042687,0.8644200000000001,-0.500955,-0.123772,0.154821,0.4379659999999999
462,0.0237639999999999,0.8516729999999999,-0.5235350000000001,-0.102301,0.20776,0.093054
463,0.010748,0.8477889999999999,-0.530225,-0.085135,0.0954179999999999,0.089612
464,8e-05,0.854627,-0.519243,-0.145542,0.047763,0.331819
465,-0.007511,0.8706659999999999,-0.491818,-0.167843,-0.145232,0.157772
466,-0.013072,0.8924120000000001,-0.451032,-0.184408,-0.287294,0.024732
467,-0.01089,0.917695,-0.3971369999999999,-0.1814619999999999,-0.381333,-0.113453
468,-0.004098,0.944983,-0.3270929999999999,-0.048728,-0.31832,-0.240396
469,-0.003379,0.970108,-0.242651,0.062384,-0.142166,-0.280283
470,-0.0150229999999999,0.987693,-0.1556809999999999,0.086221,0.0274279999999999,-0.391926
471,-0.031418,0.995883,-0.0850279999999999,-0.090302,0.470334,-0.441553
472,-0.036298,0.998343,-0.044653,-0.095049,0.402506,-0.177362
473,-0.027808,0.998797,-0.040394,-0.0514909999999999,-0.122759,-0.098156
474,-0.010971,0.998613,-0.051485,-0.184082,-0.489367,-0.301115
475,0.009318,0.998745,-0.0492089999999999,-0.1420539999999999,-0.194927,0.078612
476,0.017348,0.999308,-0.032909,-0.251509,-0.004603,0.316784
477,0.019234,0.99962,-0.019722,-0.392662,0.045149,0.395989
478,0.026175,0.999149,-0.031862,-0.074973,-0.054951,0.119768
479,0.032698,0.997525,-0.062248,0.041704,0.144916,-0.156884
480,0.042725,0.996327,-0.074215,0.116989,0.403911,-0.543095
481,0.05621,0.995647,-0.074345,0.592441,1.475178,-0.330776
482,0.077825,0.993983,-0.077074,0.537273,0.072011,0.138552
483,0.089477,0.991604,-0.093361,0.438889,0.062931,-0.017296
484,0.090044,0.992397,-0.0839039999999999,-0.022143,0.00861,0.375285
485,0.090942,0.992241,-0.084783,0.1263119999999999,0.06855,-0.641383
486,0.090192,0.992238,-0.085612,0.260806,0.106288,-0.221028
487,0.090352,0.991927,-0.088982,0.390331,0.134996,-0.357429
488,0.089344,0.9905,-0.1045329999999999,0.38873,0.1077359999999999,-0.44872
489,0.083759,0.987774,-0.1314789999999999,0.056576,-0.098812,-0.1370299999999999
490,0.07755,0.983236,-0.165022,-0.012303,-0.216192,-0.021807
491,0.069625,0.974672,-0.212524,-0.089965,-0.3109,0.176925
492,0.055576,0.960583,-0.272383,-0.08614,-0.491405,0.269957
493,0.038092,0.940955,-0.336381,-0.026373,-0.494162,0.231294
494,0.013702,0.917731,-0.396966,-0.013778,-0.2471829999999999,0.188195
495,-0.015596,0.8926850000000001,-0.450412,-0.033842,-0.093521,0.448947
496,-0.041095,0.872811,-0.486325,-0.038007,-0.101296,0.419675
497,-0.0554039999999999,0.8631270000000001,-0.501938,-0.047333,-0.00128,0.2510679999999999
498,-0.063159,0.86395,-0.499602,-0.0307889999999999,0.080081,0.082381
499,-0.069779,0.8721530000000001,-0.484232,-0.057296,0.060876,0.224542
500,-0.070431,0.8891020000000001,-0.4522569999999999,-0.05611,0.0816009999999999,0.214098
501,-0.068069,0.910992,-0.406767,-0.145279,0.0598789999999999,-0.033037
502,-0.06612,0.932494,-0.355081,-0.153866,0.083558,-0.16973
503,-0.065757,0.954802,-0.289878,-0.153664,0.099138,-0.281823
504,-0.067912,0.975058,-0.211305,-0.056645,0.042795,-0.461958
505,-0.071111,0.988369,-0.134424,0.092641,-0.16415,-0.473455
506,-0.074282,0.994329,-0.07611,0.015826,0.092601,-0.297105
507,-0.079613,0.99609,-0.0382949999999999,-0.255577,0.5786020000000001,-0.116322
508,-0.077948,0.996692,-0.023022,-0.529275,0.417539,-0.209567
509,-0.0659299999999999,0.997318,-0.031788,-0.320102,-0.120426,-0.8137479999999999
510,-0.056672,0.997589,-0.040047,-0.009292,-0.526779,-0.36721
511,-0.050939,0.99806,-0.035786,0.0463149999999999,-0.760969,0.261982
512,-0.039368,0.998956,-0.023191,0.193696,-0.8850180000000001,0.560178
513,-0.034447,0.999403,-0.002684,-0.039268,-0.027159,0.420546
514,-0.039214,0.999026,0.020238,-0.402788,0.063306,0.325237
515,-0.0273269999999999,0.999069,0.033388,-0.125779,0.069794,0.018019
516,-0.012367,0.998943,0.044282,0.414954,0.255299,0.009856
517,0.0039369999999999,0.998457,0.0553899999999999,0.393738,0.55205,-0.094162
518,0.017292,0.998296,0.055732,0.142666,0.228419,-0.4453189999999999
519,0.024978,0.998586,0.046916,-0.092025,-0.123693,-0.407497
520,0.019069,0.998462,0.052061,-0.13055,0.554044,0.03261
521,0.003434,0.997641,0.068559,0.058151,0.6658569999999999,-0.018754
522,-0.007092,0.996007,0.088994,0.275449,0.460475,-0.053197
523,-0.007539,0.995368,0.095843,0.827974,-0.176398,-0.238269
524,-0.008481,0.995377,0.09567,0.828916,-0.1764069999999999,-0.238096
525,-0.012324,0.995907,0.089545,0.385615,0.000584,-0.589087
526,-0.015639,0.995923,0.088847,0.405104,0.014102,-0.088557
527,-0.017746,0.996015,0.087402,0.4559479999999999,-0.121747,0.069412
528,-0.01576,0.997497,0.068923,0.486967,-0.242584,0.125229
529,-0.010975,0.99969,0.022336,0.271122,-0.118709,-0.640652
530,-0.004285,0.999264,-0.038122,0.12219,-0.014858,-0.64593
531,-0.007661,0.995006,-0.099524,-0.144926,0.1215869999999999,0.306403
532,-0.021997,0.984591,-0.173484,-0.4843659999999999,0.212415,0.4626989999999999
533,-0.0304769999999999,0.970267,-0.24011,-0.487421,0.466302,0.228895
534,-0.026644,0.956242,-0.291361,-0.21066,0.7099409999999999,0.313639
535,-0.00999,0.941968,-0.335555,-0.1066329999999999,0.945621,0.035735
536,0.017285,0.9256,-0.378108,0.196414,0.799925,-0.145421
537,0.039209,0.906406,-0.420585,0.373755,0.5684170000000001,0.052039
538,0.050151,0.888279,-0.456558,0.149052,0.178829,0.415512
539,0.063694,0.878875,-0.472781,-0.194676,0.084092,0.251101
540,0.071521,0.878229,-0.472863,-0.47179,0.239798,0.0568929999999999
541,0.0649049999999999,0.882843,-0.4651619999999999,-0.467875,0.104569,0.08267
542,0.05191,0.893487,-0.446079,-0.252548,-0.178445,0.182362
543,0.038637,0.908748,-0.415554,0.025557,-0.363322,0.197048
544,0.0288959999999999,0.926217,-0.375881,0.0364569999999999,-0.391763,0.060574
545,0.023905,0.945751,-0.324013,0.056387,-0.27119,-0.107521
546,0.016491,0.964008,-0.265361,0.253986,-0.047184,-0.369496
547,-8e-05,0.975664,-0.219269,0.301792,0.149214,-0.598175
548,-0.013644,0.975475,-0.219689,0.413806,0.395268,-0.581275
549,-0.001515,0.96941,-0.245444,0.430699,-0.032291,-0.297189
550,0.021848,0.962621,-0.269969,0.344836,-0.148519,0.106899
551,0.0381839999999999,0.953851,-0.2978429999999999,0.168756,-0.2409909999999999,0.518684
552,0.050684,0.946517,-0.3186469999999999,0.060857,-0.034454,1.301726
553,0.051634,0.952699,-0.299498,-0.42076,0.543578,1.033995
554,0.032372,0.959052,-0.2813719999999999,-0.792,0.268319,0.676605
555,0.027722,0.952897,-0.302026,-0.346509,0.082519,0.003915
556,0.023224,0.947914,-0.31768,0.06163,0.103676,-0.311318
557,0.000318,0.948408,-0.317052,0.177172,0.0329,-0.202967
558,-0.031439,0.955852,-0.292162,0.494116,0.0937539999999999,0.3588429999999999
559,-0.052671,0.966865,-0.249794,0.61395,0.430229,0.72216
560,-0.057155,0.972244,-0.226879,0.376506,0.5230100000000001,0.374767
561,-0.049486,0.976046,-0.211862,0.055483,0.220823,0.080072
562,-0.0400779999999999,0.981207,-0.188749,-0.148689,-0.024191,-0.090471
563,-0.034444,0.986642,-0.159218,-0.184657,-0.0859159999999999,-0.037804
564,-0.034293,0.990967,-0.129647,-0.171625,-0.044251,0.126183
565,-0.03714,0.993935,-0.103506,-0.087647,-0.114266,0.111029
566,-0.042759,0.996144,-0.076609,-0.02148,-0.1713609999999999,0.09112
567,-0.0484459999999999,0.997653,-0.048397,0.055358,-0.236651,0.128063
568,-0.054734,0.998223,-0.023542,0.084046,-0.272653,0.158048
569,-0.062614,0.998037,0.001344,0.077201,-0.271185,0.149092
570,-0.071859,0.997062,0.026536,0.055517,-0.2016359999999999,0.070922
571,-0.079304,0.99554,0.051092,0.107609,-0.1037859999999999,-0.011999
572,-0.085475,0.993514,0.074989,0.2246659999999999,-0.047546,-0.089088
573,-0.092095,0.991154,0.095562,0.291558,-0.008976,-0.218884
574,-0.098929,0.988968,0.110249,0.329947,0.084655,-0.346288
575,-0.1052859999999999,0.98737,0.118389,0.357773,0.133556,-0.275326
576,-0.11033,0.986704,0.119345,0.349191,0.081015,-0.098486
577,-0.113675,0.987071,0.112996,0.257825,0.060902,-0.2044109999999999
578,-0.116875,0.988376,0.097228,0.167152,0.113873,-0.429519
579,-0.120338,0.990231,0.07044,0.058448,0.372135,-0.197821
580,-0.121543,0.992093,0.031274,0.049018,0.602557,0.410926
581,-0.1170829999999999,0.993012,-0.0148,0.147463,0.2798,0.3014969999999999
582,-0.108753,0.992106,-0.062436,0.283283,-0.072062,-0.0289029999999999
583,-0.096884,0.989221,-0.109796,0.318762,-0.008142,0.042352
584,-0.082823,0.984186,-0.156586,0.294218,0.447821,0.117966
585,-0.071932,0.977781,-0.196903,0.073152,0.572955,0.254276
586,-0.061936,0.971913,-0.2270449999999999,0.053453,0.430492,0.43693
587,-0.045961,0.965716,-0.255502,0.102556,0.228041,0.380731
588,-0.022337,0.958463,-0.284341,0.166121,0.121188,0.268349
589,0.00671,0.950006,-0.312161,0.070728,0.096991,0.093914
590,0.031127,0.939778,-0.340364,-0.011535,0.085231,0.135012
591,0.04685,0.931774,-0.360002,0.007792,0.090366,0.365587
592,0.059808,0.929598,-0.36369,0.025427,-0.003771,0.453427
593,0.066551,0.919745,-0.386834,-0.000771,-0.1150109999999999,0.454675
594,0.068774,0.910905,-0.4068449999999999,-0.088229,-0.198518,0.3643639999999999
595,0.0675559999999999,0.905311,-0.419342,-0.187703,-0.255623,0.32019
596,0.0624049999999999,0.904138,-0.422658,-0.216351,-0.302637,0.353826
597,0.054352,0.90637,-0.4189739999999999,-0.246628,-0.296019,0.381086
598,0.044255,0.911493,-0.408927,-0.247213,-0.242167,0.259192
599,0.031197,0.919708,-0.391361,-0.115868,-0.2427679999999999,0.2093989999999999
600,0.019969,0.930465,-0.3658349999999999,0.028219,-0.1640319999999999,0.08338
601,0.012438,0.942246,-0.33469,0.09921,0.036666,-0.118801
602,0.00415,0.951807,-0.30667,0.198151,0.153402,-0.469392
603,-0.009974,0.955915,-0.2934739999999999,0.294916,0.134814,-0.706832
604,-0.017667,0.953216,-0.301772,0.531751,-0.087326,0.138
605,-0.005855,0.949957,-0.312325,0.35374,-0.106573,0.778313
606,0.010527,0.947022,-0.320996,-0.0502,1.194213,0.8025180000000001
607,0.011753,0.946083,-0.323711,-0.743793,0.970466,0.152705
608,0.0304339999999999,0.94718,-0.319256,-0.565529,-0.02593,-0.538334
609,0.0280589999999999,0.94388,-0.3290949999999999,-0.441587,-0.071413,-0.717002
610,0.005763,0.946926,-0.321399,-0.05601,-0.360073,0.6723210000000001
611,-0.008013,0.95735,-0.288819,0.139955,-0.194472,1.059983
612,-0.013811,0.969006,-0.2466489999999999,0.212312,-0.0133789999999999,0.981848
613,-0.008773,0.976766,-0.214131,0.389952,0.558391,-0.1181599999999999
614,-0.001925,0.981606,-0.190908,0.383105,0.55355,-0.1413829999999999
615,-0.003019,0.98612,-0.166008,0.161664,0.0693,-0.199684
616,-0.004713,0.989829,-0.142182,-0.014772,-0.173881,0.173707
617,-0.0079329999999999,0.992351,-0.123193,-0.0294509999999999,-0.195339,0.187113
618,-0.014237,0.994204,-0.106563,-0.025513,-0.2129849999999999,0.163844
619,-0.022693,0.99565,-0.090361,0.025165,-0.125533,0.072951
620,-0.031861,0.996691,-0.074782,0.050568,-0.086321,0.020018
621,-0.041333,0.997469,-0.057861,0.097073,-0.071459,-0.0294959999999999
622,-0.05074,0.997978,-0.038282,0.1058089999999999,-0.073387,-0.0517139999999999
623,-0.0591559999999999,0.998106,-0.016876,0.140852,-0.075529,-0.13414
624,-0.064858,0.997888,0.0037189999999999,0.232705,-0.06849,-0.162013
625,-0.0674,0.99753,0.019749,0.321413,0.028806,-0.104115
626,-0.0675279999999999,0.997286,0.029319,0.324913,0.1308869999999999,-0.062995
627,-0.065114,0.997373,0.031747,0.288549,0.1153589999999999,-0.066034
628,-0.060472,0.997831,0.026,0.212846,0.140688,-0.022369
629,-0.0519639999999999,0.998629,0.006296,0.067421,0.378614,0.322439
630,-0.032823,0.99889,-0.033792,-0.014708,-0.026218,0.216332
631,0.0001199999999999,0.995883,-0.090647,-0.010221,-0.057422,-0.02918
632,0.0323279999999999,0.985453,-0.166845,-0.078135,0.137853,-0.510309
633,0.049937,0.963604,-0.26263,-0.4030559999999999,0.5005229999999999,-0.518666
634,0.040926,0.936271,-0.348886,-0.404863,0.547036,-0.134939
635,-0.001223,0.914108,-0.405469,-0.242521,0.423386,0.503415
636,-0.037993,0.8939870000000001,-0.44648,0.270018,0.169704,0.90464
637,-0.034607,0.872346,-0.487663,0.394302,0.135924,0.456001
638,-0.021543,0.854117,-0.519634,0.513151,0.3077789999999999,-0.008594
639,-0.024463,0.841716,-0.539367,0.137317,0.009099,0.458358
640,-0.026788,0.8351709999999999,-0.549337,-0.159598,-0.40025,0.408056
641,-0.026323,0.8336969999999999,-0.5515939999999999,-0.176467,-0.5291170000000001,0.305729
642,-0.027624,0.838851,-0.54366,-0.091456,-0.485442,0.405233
643,-0.02588,0.8505149999999999,-0.525313,-0.042357,-0.503225,0.475616
644,-0.021794,0.865517,-0.500406,0.004277,-0.5488970000000001,0.4298189999999999
645,-0.017309,0.881876,-0.471163,-0.008768,-0.556635,0.368258
646,-0.011739,0.898908,-0.437979,-0.011576,-0.533293,0.320425
647,-0.008512,0.915613,-0.401972,-0.002337,-0.496667,0.270853
648,-0.008678,0.932976,-0.359833,-0.009953,-0.396126,0.197876
649,-0.01335,0.951262,-0.308094,-0.0217,-0.172499,0.029362
650,-0.027913,0.965821,-0.257704,-0.132762,0.02391,-0.185198
651,-0.049259,0.972578,-0.227301,-0.116192,0.14583,-0.371027
652,-0.069428,0.97366,-0.217178,-0.049088,0.410679,-0.338562
653,-0.079894,0.974893,-0.2078469999999999,0.058135,0.342413,-0.273995
654,-0.07837,0.977524,-0.195717,0.144395,-0.02945,-0.0320509999999999
655,-0.070911,0.979812,-0.186922,-0.009273,-0.148651,0.096575
656,-0.061374,0.98207,-0.178248,-0.115765,-0.115889,0.036814
657,-0.054666,0.984887,-0.164347,-0.189566,-0.079857,-0.028616
658,-0.051341,0.987061,-0.151901,-0.1731619999999999,0.622283,0.220581
659,-0.046192,0.988126,-0.146535,-0.0515399999999999,0.325335,0.320714
660,-0.033615,0.989542,-0.140275,0.0673059999999999,-0.158472,0.557557
661,-0.01899,0.99001,-0.139713,0.01194,-0.154606,0.392353
662,-0.000294,0.990032,-0.140839,-0.03445,-0.031536,0.222977
663,0.024921,0.987933,-0.152861,-0.0210759999999999,0.256375,-0.016038
664,0.043462,0.985812,-0.162131,0.288249,0.3745699999999999,-0.203149
665,0.062053,0.983009,-0.172752,0.18781,-0.152137,0.207389
666,0.079557,0.979108,-0.187129,0.197344,-0.390592,0.4577739999999999
667,0.089347,0.978309,-0.186892,-0.15763,-0.320869,0.567355
668,0.093819,0.978322,-0.18462,-0.245888,-0.014745,0.085789
669,0.08611,0.979687,-0.181101,-0.175725,0.133823,-0.187292
670,0.079185,0.981924,-0.171917,0.417839,-0.0584159999999999,0.262554
671,0.081995,0.982728,-0.165899,0.5060939999999999,-0.055268,0.206625
672,0.085874,0.982357,-0.166134,0.353655,0.107197,-0.242222
673,0.087823,0.982175,-0.166193,0.2301389999999999,0.024219,-0.192816
674,0.0883159999999999,0.981396,-0.170479,0.0831929999999999,-0.017544,-0.040306
675,0.089002,0.97996,-0.178203,0.042666,-0.067393,-0.078709
676,0.091971,0.976166,-0.196576,-0.005835,-0.024704,-0.2066219999999999
677,0.093476,0.969775,-0.225386,-0.107469,-0.189166,-0.204149
678,0.088986,0.961786,-0.258938,-0.092237,-0.251062,0.258297
679,0.07849,0.950717,-0.299962,-0.0353389999999999,-0.156451,0.302831
680,0.059311,0.934294,-0.351536,0.060104,-0.168226,0.136707
681,0.037192,0.90864,-0.415922,0.016595,0.14205,0.139066
682,0.013026,0.874202,-0.485388,0.045339,0.579762,-0.0805
683,-0.0104319999999999,0.842944,-0.5379,0.066264,0.646649,-0.058413
684,-0.038277,0.8236049999999999,-0.56587,0.165063,0.459735,0.099745
685,-0.061635,0.808144,-0.585751,0.1152089999999999,0.105888,0.7504850000000001
686,-0.080207,0.796218,-0.599669,-0.005761,-0.107818,0.596449
687,-0.088697,0.794068,-0.601322,-0.1444109999999999,-0.275681,0.409138
688,-0.087398,0.806129,-0.585249,-0.262166,-0.1515119999999999,0.188719
689,-0.082304,0.8293799999999999,-0.552589,-0.243242,-0.2327159999999999,0.186774
690,-0.074537,0.855433,-0.512522,-0.213396,-0.338984,0.141825
691,-0.066436,0.880569,-0.469238,-0.140808,-0.323456,0.0784909999999999
692,-0.064052,0.904249,-0.422174,0.007701,-0.18083,0.018381
693,-0.070811,0.927588,-0.366832,0.114757,0.039728,-0.073399
694,-0.081983,0.951853,-0.295389,0.166318,0.323187,-0.121206
695,-0.085448,0.971656,-0.2204159999999999,0.120619,0.617791,-0.2138789999999999
696,-0.077922,0.981129,-0.176959,0.087275,0.636059,-0.4715399999999999
697,-0.066634,0.981076,-0.181796,-0.0073709999999999,0.1030609999999999,-0.689329
698,-0.049343,0.978049,-0.202447,-0.004627,-0.107627,-0.562034
699,-0.02911,0.980048,-0.196617,-0.072742,-0.4845649999999999,0.130867
700,-0.009553,0.986385,-0.164172,-0.0014789999999999,-0.669308,0.670169
701,-0.0108659999999999,0.992217,-0.12405,-0.2326639999999999,0.015855,0.690364
702,-0.029917,0.994054,-0.1047,-0.820715,0.389308,0.545557
703,-0.029439,0.993524,-0.109738,-0.110927,0.10372,-0.447329
704,-0.021299,0.992432,-0.120938,0.595212,-0.032074,0.043942
705,-0.005301,0.992204,-0.1245069999999999,0.53385,0.128447,0.273906
706,0.0188909999999999,0.991188,-0.131106,0.132873,0.319359,0.161181
707,0.046758,0.987881,-0.148003,0.167292,1.321964,-1.086876
708,0.062529,0.984807,-0.1620059999999999,0.06801,0.053264,0.162205
709,0.07236,0.98169,-0.176209,-0.15665,-0.341202,0.362244
710,0.07346,0.981153,-0.178727,-0.119771,-0.26106,0.424729
711,0.070053,0.982199,-0.174292,-0.100479,-0.074622,0.2596489999999999
712,0.060186,0.984441,-0.1650859999999999,0.275843,0.344477,0.018082
713,0.059799,0.985747,-0.157248,0.41571,0.199388,0.206259
714,0.068229,0.985205,-0.157216,0.504555,0.073023,0.161351
715,0.074232,0.98373,-0.163599,0.181567,-0.174328,-0.188391
716,0.078277,0.980973,-0.177664,0.07779,-0.146287,-0.13804
717,0.082687,0.976713,-0.197978,0.038361,-0.150403,0.188274
718,0.089598,0.96973,-0.227147,0.071001,-0.304981,0.0767559999999999
719,0.095761,0.957781,-0.271082,-0.079541,-0.2711199999999999,-0.130148
720,0.093935,0.941182,-0.324582,-0.155474,-0.141117,0.143506
721,0.08142,0.917127,-0.390191,-0.241546,0.026873,0.209404
722,0.058537,0.8844059999999999,-0.463033,-0.098897,0.28042,0.304723
723,0.032109,0.8482719999999999,-0.528587,0.044719,0.3713329999999999,0.20861
724,0.0139759999999999,0.8225379999999999,-0.568539,0.085572,0.300555,0.292767
725,-0.001477,0.804914,-0.59339,0.00813,0.2410449999999999,0.324026
726,-0.0149139999999999,0.792098,-0.610212,-0.017953,0.237611,0.369855
727,-0.019717,0.790231,-0.612492,-0.023007,0.225623,0.291691
728,-0.017721,0.801348,-0.5979359999999999,-0.179255,0.077589,0.119557
729,-0.015194,0.8222809999999999,-0.568879,-0.201908,0.044632,0.0997779999999999
730,-0.0154449999999999,0.8492209999999999,-0.5278109999999999,-0.156689,-0.077233,0.080286
731,-0.018294,0.878727,-0.4769739999999999,-0.077638,-0.334018,0.016266
732,-0.021564,0.90902,-0.416195,-0.019375,-0.525917,0.068691
733,-0.0218289999999999,0.936926,-0.348844,0.04371,-0.452964,0.004972
734,-0.025252,0.960032,-0.278751,0.050993,-0.1246589999999999,-0.175214
735,-0.040586,0.976327,-0.212457,-0.077837,0.463813,-0.347952
736,-0.053652,0.985175,-0.162947,-0.188932,0.761636,-0.420656
737,-0.049806,0.987852,-0.147201,0.179567,0.332155,-0.457276
738,-0.036942,0.987889,-0.1507,0.150833,-0.233067,-0.380123
739,-0.0187759999999999,0.989008,-0.146662,0.024513,-0.471278,0.253443
740,-0.003144,0.990899,-0.134569,-0.0289149999999999,-0.526895,0.5428029999999999
741,0.009979,0.99241,-0.12257,-0.185593,-0.163186,0.525143
742,0.015187,0.993365,-0.113996,-0.475469,0.349988,0.229062
743,0.019725,0.994584,-0.102048,-0.335597,0.095748,0.167142
744,0.023606,0.992324,-0.121387,-0.045853,0.007843,-0.034588
745,0.033195,0.988972,-0.144338,0.402764,0.297177,-0.040477
746,0.055159,0.986876,-0.151767,0.5348069999999999,0.339601,0.252658
747,0.081725,0.983601,-0.160777,0.186006,0.354549,-0.106084
748,0.098885,0.98103,-0.166738,0.0507279999999999,0.413806,-0.193522
749,0.107799,0.981397,-0.158871,0.04514,0.115298,0.4137689999999999
750,0.1145369999999999,0.979798,-0.16394,0.0554,0.019744,0.099487
751,0.1155359999999999,0.978888,-0.1686119999999999,0.044086,0.029794,-0.089109
752,0.115239,0.978635,-0.170272,0.0854289999999999,0.122973,-0.008927
753,0.115166,0.978768,-0.1695559999999999,0.190238,0.01905,-0.0145569999999999
754,0.111813,0.978622,-0.172616,0.187793,-0.0717309999999999,-0.137245
755,0.1073349999999999,0.977474,-0.181724,0.066096,-0.0570179999999999,-0.085427
756,0.102658,0.974546,-0.199303,-0.086148,0.129153,-0.168708
757,0.095718,0.97025,-0.222381,0.070145,-0.086827,0.028426
758,0.090191,0.96249,-0.255888,0.153752,-0.25497,0.045408
759,0.0848169999999999,0.94946,-0.302213,0.13993,-0.30972,0.113782
760,0.07037,0.92958,-0.361842,0.073979,-0.183883,0.257609
761,0.04492,0.901327,-0.430804,-0.108794,-0.0074519999999999,0.1950859999999999
762,0.010545,0.8701709999999999,-0.4926359999999999,-0.153215,0.086616,0.34014
763,-0.024121,0.8371069999999999,-0.546507,-0.011035,0.023641,0.611128
764,-0.048311,0.8143279999999999,-0.578391,0.0833909999999999,0.026019,0.638694
765,-0.059844,0.796955,-0.601067,0.043761,0.2499199999999999,0.192895
766,-0.064542,0.790779,-0.60869,-0.045825,0.320412,0.290147
767,-0.065317,0.8008029999999999,-0.595356,-0.086019,0.288034,0.278461
768,-0.068601,0.823641,-0.5629460000000001,-0.138309,-0.081103,0.011967
769,-0.076083,0.850002,-0.521256,-0.125654,-0.2168389999999999,-0.0035399999999999
770,-0.082403,0.875862,-0.4754739999999999,-0.069285,-0.219108,-0.002309
771,-0.08793,0.902282,-0.422085,-0.01789,-0.282012,-0.036304
772,-0.089042,0.928336,-0.360921,-0.001,-0.335776,-0.132182
773,-0.080935,0.951549,-0.296655,0.040469,-0.279003,-0.157584
774,-0.076425,0.968162,-0.238373,-0.0560059999999999,0.6837850000000001,-0.330231
775,-0.07754,0.976948,-0.198897,-0.144429,0.916652,-0.311556
776,-0.069373,0.98,-0.186513,-0.025811,0.363933,-0.380457
777,-0.054707,0.981379,-0.1841269999999999,-0.003017,-0.286417,-0.456575
778,-0.042013,0.984393,-0.170894,0.065909,-0.431018,-0.055638
779,-0.030774,0.988504,-0.14803,0.021848,-0.686441,0.44286
780,-0.017393,0.992124,-0.124046,-0.0066549999999999,-0.302122,0.524513
781,-0.017537,0.994228,-0.105843,-0.433971,0.2858469999999999,0.378151
782,-0.01526,0.995033,-0.098371,-0.248411,-0.071266,0.193616
783,-0.004186,0.993541,-0.113393,0.2258349999999999,-0.086361,-0.00619
784,0.012437,0.993525,-0.112927,0.2409349999999999,0.2174579999999999,0.268368
785,0.0364279999999999,0.991965,-0.121154,0.3276159999999999,0.499108,0.031706
786,0.055914,0.989359,-0.134323,0.12182,0.101492,-0.393493
787,0.0650289999999999,0.989731,-0.127295,-0.098247,0.32225,0.371802
788,0.071649,0.990145,-0.120327,0.055487,0.513166,0.4939229999999999
789,0.080607,0.98917,-0.1226589999999999,0.292607,0.173626,-0.0103819999999999
790,0.08454,0.988322,-0.126778,0.231683,0.104894,-0.20565
791,0.085953,0.987974,-0.128529,0.195327,0.029391,0.197484
792,0.089734,0.986746,-0.135201,0.145465,-0.060126,-0.107704
793,0.091344,0.985805,-0.14087,0.107615,-0.190456,0.006059
794,0.0913679999999999,0.984396,-0.150387,0.127565,-0.21195,-0.068958
795,0.090684,0.982258,-0.164154,0.179732,-0.0156439999999999,-0.181153
796,0.091196,0.978175,-0.186698,0.146643,-0.02737,0.017768
797,0.095286,0.970269,-0.222484,0.092809,-0.112999,0.205882
798,0.103084,0.955755,-0.275509,-0.110515,-0.135763,0.0768549999999999
799,0.10733,0.931525,-0.347478,-0.1244349999999999,-0.106666,-0.146342
800,0.1034549999999999,0.900723,-0.4218939999999999,-0.083573,-0.216611,0.088047
801,0.087837,0.8674569999999999,-0.489697,-0.104194,-0.054072,0.097836
802,0.059064,0.8358459999999999,-0.5457770000000001,0.068591,-0.0072019999999999,0.374391
803,0.034835,0.812701,-0.581639,0.159532,0.056989,0.519872
804,0.022879,0.795673,-0.605294,0.14483,0.152401,0.5876239999999999
805,0.018985,0.786031,-0.617895,-0.08292,0.383967,0.519278
806,0.016108,0.78773,-0.6158100000000001,-0.006403,0.362782,0.457485
807,0.012579,0.805816,-0.592032,-0.024649,0.214478,0.28205
808,0.009732,0.8388950000000001,-0.5442060000000001,-0.14642,-0.331067,-0.482145
809,0.006774,0.8798299999999999,-0.4752399999999999,-0.10559,-0.404931,-0.419108
810,0.001582,0.920293,-0.391226,0.036504,-0.333822,-0.4833159999999999
811,-0.000833,0.947638,-0.319347,0.1176089999999999,-0.319769,0.075191
812,0.010208,0.963428,-0.2677739999999999,0.1000669999999999,-0.172611,0.085294
813,0.015871,0.973286,-0.2290449999999999,-0.144472,0.299556,0.0724139999999999
814,0.007753,0.980411,-0.1968109999999999,-0.463656,0.323087,-0.255185
815,0.002435,0.984723,-0.174111,0.02648,0.033801,-0.738853
816,-0.0034479999999999,0.98797,-0.154606,0.150146,-0.2163179999999999,-0.397106
817,-0.006581,0.990403,-0.138051,0.178501,-0.277436,-0.084865
818,-0.006266,0.991618,-0.129051,0.116373,0.003209,0.362373
819,-0.002288,0.992209,-0.124567,-0.184617,0.2646429999999999,0.7298979999999999
820,0.000177,0.991556,-0.129681,-0.171488,0.125556,0.499371
821,0.000811,0.988898,-0.148594,-0.1484849999999999,0.044961,0.230351
822,0.009895,0.986562,-0.1630859999999999,0.159691,0.2503309999999999,-0.0605919999999999
823,0.0276279999999999,0.98694,-0.158699,0.188986,0.225615,0.216057
824,0.049332,0.986389,-0.156855,0.255127,0.338913,0.177241
825,0.0662,0.985623,-0.15545,0.452797,0.586688,-0.0213229999999999
826,0.082161,0.985837,-0.146202,0.349389,0.4372279999999999,-0.084511
827,0.091745,0.985877,-0.140104,0.175894,0.294763,0.051985
828,0.0906759999999999,0.985764,-0.141591,-0.062706,0.029495,-0.094371
829,0.08136,0.98617,-0.144389,-0.063354,-0.2352699999999999,-0.218129
830,0.068749,0.988235,-0.136619,0.030159,-0.188019,0.195671
831,0.06265,0.990025,-0.126196,0.2717,-0.297505,0.1748559999999999
832,0.062919,0.990863,-0.119297,0.4916,-0.359378,-0.004406
833,0.06766,0.99096,-0.115844,0.486372,-0.355935,-0.114365
834,0.071547,0.99078,-0.115044,0.1877,-0.1180539999999999,-0.1161109999999999
835,0.0694419999999999,0.990943,-0.1149369999999999,0.112229,-0.198188,0.039085
836,0.065247,0.991069,-0.1163,0.150421,-0.2098489999999999,0.075849
837,0.060635,0.990771,-0.121227,0.375415,0.088269,-0.127521
838,0.052696,0.989819,-0.132219,0.385384,-0.069683,-0.3134139999999999
839,0.043698,0.987943,-0.148524,0.481738,-0.188657,-0.130178
840,0.029518,0.985512,-0.167014,0.5011979999999999,-0.035882,0.2169719999999999
841,0.010161,0.980494,-0.196288,0.362702,0.388922,0.5198510000000001
842,-0.003626,0.969041,-0.2468739999999999,0.0967659999999999,0.667129,-0.106825
843,0.000924,0.95586,-0.2938199999999999,0.077338,0.645519,-0.070728
844,0.011578,0.940007,-0.340958,-0.228848,0.403819,0.203934
845,0.024536,0.924837,-0.3795719999999999,-0.210495,0.347944,0.4107
846,0.037494,0.912805,-0.406672,-0.067386,0.3171449999999999,0.2468659999999999
847,0.048995,0.90161,-0.429767,0.172227,0.508257,0.311008
848,0.065549,0.890164,-0.4509,0.201037,0.5688810000000001,0.200457
849,0.085913,0.8839809999999999,-0.4595619999999999,0.046762,0.169395,-0.177599
850,0.103017,0.888175,-0.447809,-0.153554,0.111566,0.004602
851,0.113963,0.897278,-0.4265029999999999,-0.199168,0.1744079999999999,0.089268
852,0.118211,0.903592,-0.411761,-0.182451,-0.20654,0.59946
853,0.120998,0.90517,-0.407465,0.1121559999999999,-0.208209,0.3555239999999999
854,0.110397,0.91146,-0.396298,0.064835,-0.142478,0.198804
855,0.091825,0.923771,-0.371773,0.003634,-0.062748,0.148293
856,0.065319,0.938174,-0.339945,0.2475929999999999,0.179364,0.1196079999999999
857,0.024941,0.951227,-0.307483,0.295311,0.0332089999999999,0.034732
858,-0.027326,0.960041,-0.278521,-0.018451,-0.058079,-0.165601
859,-0.063633,0.96512,-0.253956,0.095173,-0.120195,-0.389659
860,-0.072035,0.970865,-0.228544,0.281294,-0.159341,-0.220491
861,-0.080403,0.973038,-0.216178,0.388661,-0.213165,-0.111001
862,-0.077359,0.972925,-0.21779,0.405575,0.056784,-0.120344
863,-0.062816,0.972534,-0.224124,0.31483,-0.084198,-0.1214109999999999
864,-0.045106,0.970896,-0.2352179999999999,0.51439,-0.126245,0.134601
865,-0.0325839999999999,0.967469,-0.2508829999999999,0.32984,-0.0384529999999999,0.319456
866,-0.024066,0.966497,-0.255548,0.0148949999999999,0.362696,0.348413
867,-0.023324,0.973099,-0.229203,-0.038962,0.8736870000000001,0.232179
868,-0.019949,0.977828,-0.208459,-0.568842,0.49228,0.218469
869,-0.00299,0.971389,-0.237474,0.037139,0.187333,-1.109648
870,0.005771,0.966563,-0.256365,0.086544,0.226537,-0.018309
871,0.000433,0.968736,-0.248094,0.094324,0.4611189999999999,0.262467
872,-0.0119189999999999,0.971749,-0.2357139999999999,0.200747,0.110358,0.142742
873,-0.002737,0.970415,-0.241427,0.477621,0.37483,0.6863739999999999
874,0.031876,0.968517,-0.2468969999999999,0.74034,0.392307,0.698741
875,0.084285,0.967879,-0.236869,0.0647929999999999,0.48253,0.72747
876,0.1312279999999999,0.970466,-0.202425,-0.0159169999999999,0.283136,0.088015
877,0.156452,0.977151,-0.143871,0.044247,0.186088,-0.2138719999999999
878,0.175443,0.980362,-0.090059,0.026385,-0.137482,-0.396269
879,0.197774,0.978221,-0.062998,0.1160839999999999,-0.134654,-0.099294
880,0.216121,0.975174,-0.048236,0.126317,-0.201142,-0.168942
881,0.23548,0.971004,-0.041245,0.438745,-0.4160569999999999,0.292069
882,0.2704789999999999,0.961913,-0.039554,0.1089619999999999,0.002259,-0.017636
883,0.306194,0.95138,-0.033495,-0.179653,0.043844,-0.049482
884,0.334924,0.942082,-0.017559,-0.244119,-0.1406589999999999,0.0930899999999999
885,0.358357,0.933558,0.006992,0.497096,0.206853,0.77792
886,0.389904,0.919287,0.0537179999999999,-0.355801,-0.079947,-0.585441
887,0.4240649999999999,0.9004719999999999,0.09654,0.272698,0.19276,0.006533
888,0.4183779999999999,0.906461,0.057335,-0.649259,-0.106153,-0.622337
889,0.4374659999999999,0.8976459999999999,0.053435,-0.154889,0.034102,-0.128523
890,0.437537,0.897749,0.051067,0.186899,-0.569731,-0.124615
891,0.456895,0.88802,0.051653,-0.0964059999999999,0.013729,0.154142
892,0.468005,0.881684,0.060034,-0.200854,-0.3335579999999999,-0.291555
893,0.472055,0.8792209999999999,0.0643,-0.066385,-0.490427,-0.6503899999999999
894,0.474605,0.8790600000000001,0.044769,0.042943,-0.474351,-0.6547229999999999
895,0.468336,0.88355,-0.000548,0.370684,-0.591192,-0.995012
