,"id,Attitude Roll,Attitude Pitch,Attitude Azimuth,Gravity X,Gravity Y,Gravity Z,Rotation Rate X,Rotation Rate Y,Rotation Rate Z,User Acceleration X,User Acceleration Y,User Acceleration Z"
0,"1,1.1061751,1.5689881,-2.5708842,4.189007,-8.680822,1.8071885,0.0037932391,0.0012967065,-0.00075481524,-0.1040619,0.031386577,0.13119692"
1,"2,1.1061751,1.5689881,-2.5708842,4.189007,-8.680822,1.8071885,0.0037932391,0.0012967065,-0.00075481524,-0.1040619,0.031386577,0.13119692"
2,"3,1.0982224,1.6562432,-2.559034,4.20885,-8.65867,1.8663836,0.00053124514,0.0010795242,0.004482048,-0.09813425,-0.0034519897,0.13625483"
3,"4,1.0982224,1.6562432,-2.559034,4.20885,-8.65867,1.8663836,0.00053124514,0.0010795242,0.004482048,-0.09813425,-0.0034519897,0.13625483"
4,"5,1.0982224,1.6562432,-2.559034,4.20885,-8.65867,1.8663836,0.00053124514,0.0010795242,0.004482048,-0.09813425,-0.0034519897,0.13625483"
5,"6,1.0982224,1.6562432,-2.559034,4.20885,-8.65867,1.8663836,0.00053124514,0.0010795242,0.004482048,-0.09813425,-0.0034519897,0.13625483"
6,"7,1.0913273,1.7366635,-2.5473382,4.233232,-8.635857,1.916276,0.00086660025,-0.0036761311,0.003975289,-0.07905289,-0.07580792,0.21162914"
7,"8,1.0913273,1.7366635,-2.5473382,4.233232,-8.635857,1.916276,0.00086660025,-0.0036761311,0.003975289,-0.07905289,-0.07580792,0.21162914"
8,"9,1.0913273,1.7366635,-2.5473382,4.233232,-8.635857,1.916276,0.00086660025,-0.0036761311,0.003975289,-0.07905289,-0.07580792,0.21162914"
9,"10,1.0913273,1.7366635,-2.5473382,4.233232,-8.635857,1.916276,0.00086660025,-0.0036761311,0.003975289,-0.07905289,-0.07580792,0.21162914"
10,"11,1.085397,1.8110267,-2.5354052,4.263109,-8.611177,1.9605922,-0.0028042076,-0.0029330268,0.00026083176,-0.07600731,-0.13918759,-0.007897791"
11,"12,1.085397,1.8110267,-2.5354052,4.263109,-8.611177,1.9605922,-0.0028042076,-0.0029330268,0.00026083176,-0.07600731,-0.13918759,-0.007897791"
12,"13,1.085397,1.8110267,-2.5354052,4.263109,-8.611177,1.9605922,-0.0028042076,-0.0029330268,0.00026083176,-0.07600731,-0.13918759,-0.007897791"
13,"14,1.085397,1.8110267,-2.5354052,4.263109,-8.611177,1.9605922,-0.0028042076,-0.0029330268,0.00026083176,-0.07600731,-0.13918759,-0.007897791"
14,"15,1.0796274,1.881435,-2.5226524,4.2895274,-8.585009,2.016922,0.00024379785,0.00341317,-0.0043063858,0.0492023,-0.37569594,-0.55811775"
15,"16,1.0796274,1.881435,-2.5226524,4.2895274,-8.585009,2.016922,0.00024379785,0.00341317,-0.0043063858,0.0492023,-0.37569594,-0.55811775"
16,"17,1.0796274,1.881435,-2.5226524,4.2895274,-8.585009,2.016922,0.00024379785,0.00341317,-0.0043063858,0.0492023,-0.37569594,-0.55811775"
17,"18,1.0796274,1.881435,-2.5226524,4.2895274,-8.585009,2.016922,0.00024379785,0.00341317,-0.0043063858,0.0492023,-0.37569594,-0.55811775"
18,"19,1.0796274,1.881435,-2.5226524,4.2895274,-8.585009,2.016922,0.00024379785,0.00341317,-0.0043063858,0.0492023,-0.37569594,-0.55811775"
19,"20,1.0728939,1.9449041,-2.5106955,4.2959895,-8.564811,2.087791,0.002271898,-0.0027541707,-0.0045991563,0.044003658,0.89741224,-0.8706084"
20,"21,1.0728939,1.9449041,-2.5106955,4.2959895,-8.564811,2.087791,0.002271898,-0.0027541707,-0.0045991563,0.044003658,0.89741224,-0.8706084"
21,"22,1.0728939,1.9449041,-2.5106955,4.2959895,-8.564811,2.087791,0.002271898,-0.0027541707,-0.0045991563,0.044003658,0.89741224,-0.8706084"
22,"23,1.0728939,1.9449041,-2.5106955,4.2959895,-8.564811,2.087791,0.002271898,-0.0027541707,-0.0045991563,0.044003658,0.89741224,-0.8706084"
23,"24,1.0728939,1.9449041,-2.5106955,4.2959895,-8.564811,2.087791,0.002271898,-0.0027541707,-0.0045991563,0.044003658,0.89741224,-0.8706084"
24,"25,1.0664201,2.0086062,-2.4963198,4.3032804,-8.538402,2.1789575,-0.001082718,0.0010326809,0.0026274808,-0.06703125,-0.44611457,-0.27606624"
25,"26,1.0664201,2.0086062,-2.4963198,4.3032804,-8.538402,2.1789575,-0.001082718,0.0010326809,0.0026274808,-0.06703125,-0.44611457,-0.27606624"
26,"27,1.0664201,2.0086062,-2.4963198,4.3032804,-8.538402,2.1789575,-0.001082718,0.0010326809,0.0026274808,-0.06703125,-0.44611457,-0.27606624"
27,"28,1.0664201,2.0086062,-2.4963198,4.3032804,-8.538402,2.1789575,-0.001082718,0.0010326809,0.0026274808,-0.06703125,-0.44611457,-0.27606624"
28,"29,1.0664201,2.0086062,-2.4963198,4.3032804,-8.538402,2.1789575,-0.001082718,0.0010326809,0.0026274808,-0.06703125,-0.44611457,-0.27606624"
29,"30,1.0615458,2.0644124,-2.481651,4.3252397,-8.507691,2.254302,0.05157123,0.036112957,-0.023403531,0.06699803,0.06026162,-0.33818617"
30,"31,1.0615458,2.0644124,-2.481651,4.3252397,-8.507691,2.254302,0.05157123,0.036112957,-0.023403531,0.06699803,0.06026162,-0.33818617"
31,"32,1.0615458,2.0644124,-2.481651,4.3252397,-8.507691,2.254302,0.05157123,0.036112957,-0.023403531,0.06699803,0.06026162,-0.33818617"
32,"33,1.0615458,2.0644124,-2.481651,4.3252397,-8.507691,2.254302,0.05157123,0.036112957,-0.023403531,0.06699803,0.06026162,-0.33818617"
33,"34,1.0615458,2.0644124,-2.481651,4.3252397,-8.507691,2.254302,0.05157123,0.036112957,-0.023403531,0.06699803,0.06026162,-0.33818617"
34,"35,1.0571932,2.1177862,-2.4645805,4.3473845,-8.469762,2.3523984,0.07916617,0.047345757,-0.032911647,-0.28218684,0.11977303,-0.080224566"
35,"36,1.0571932,2.1177862,-2.4645805,4.3473845,-8.469762,2.3523984,0.07916617,0.047345757,-0.032911647,-0.28218684,0.11977303,-0.080224566"
36,"37,1.0571932,2.1177862,-2.4645805,4.3473845,-8.469762,2.3523984,0.07916617,0.047345757,-0.032911647,-0.28218684,0.11977303,-0.080224566"
37,"38,1.0571932,2.1177862,-2.4645805,4.3473845,-8.469762,2.3523984,0.07916617,0.047345757,-0.032911647,-0.28218684,0.11977303,-0.080224566"
38,"39,1.0542735,2.1638849,-2.4469347,4.3817415,-8.426491,2.4423285,0.088741355,0.04977948,-0.04060991,-0.11272576,-0.35709658,-0.1159639"
39,"40,1.0542735,2.1638849,-2.4469347,4.3817415,-8.426491,2.4423285,0.088741355,0.04977948,-0.04060991,-0.11272576,-0.35709658,-0.1159639"
40,"41,1.0542735,2.1638849,-2.4469347,4.3817415,-8.426491,2.4423285,0.088741355,0.04977948,-0.04060991,-0.11272576,-0.35709658,-0.1159639"
41,"42,1.0542735,2.1638849,-2.4469347,4.3817415,-8.426491,2.4423285,0.088741355,0.04977948,-0.04060991,-0.11272576,-0.35709658,-0.1159639"
42,"43,1.0542735,2.1638849,-2.4469347,4.3817415,-8.426491,2.4423285,0.088741355,0.04977948,-0.04060991,-0.11272576,-0.35709658,-0.1159639"
43,"44,1.0529076,2.2032468,-2.4286427,4.431197,-8.376823,2.5226405,0.080762036,0.042391017,-0.04785571,-0.5655355,0.35573187,-0.23615116"
44,"45,1.0529076,2.2032468,-2.4286427,4.431197,-8.376823,2.5226405,0.080762036,0.042391017,-0.04785571,-0.5655355,0.35573187,-0.23615116"
45,"46,1.0529076,2.2032468,-2.4286427,4.431197,-8.376823,2.5226405,0.080762036,0.042391017,-0.04785571,-0.5655355,0.35573187,-0.23615116"
46,"47,1.0529076,2.2032468,-2.4286427,4.431197,-8.376823,2.5226405,0.080762036,0.042391017,-0.04785571,-0.5655355,0.35573187,-0.23615116"
47,"48,1.0529076,2.2032468,-2.4286427,4.431197,-8.376823,2.5226405,0.080762036,0.042391017,-0.04785571,-0.5655355,0.35573187,-0.23615116"
48,"49,1.0545136,2.2337914,-2.4099965,4.516223,-8.316579,2.5707266,0.06796105,0.032490056,-0.05263266,0.3471192,-0.12233624,-0.031122616"
49,"50,1.0545136,2.2337914,-2.4099965,4.516223,-8.316579,2.5707266,0.06796105,0.032490056,-0.05263266,0.3471192,-0.12233624,-0.031122616"
50,"51,1.0545136,2.2337914,-2.4099965,4.516223,-8.316579,2.5707266,0.06796105,0.032490056,-0.05263266,0.3471192,-0.12233624,-0.031122616"
51,"52,1.0545136,2.2337914,-2.4099965,4.516223,-8.316579,2.5707266,0.06796105,0.032490056,-0.05263266,0.3471192,-0.12233624,-0.031122616"
52,"53,1.0545136,2.2337914,-2.4099965,4.516223,-8.316579,2.5707266,0.06796105,0.032490056,-0.05263266,0.3471192,-0.12233624,-0.031122616"
53,"54,1.0566583,2.2518759,-2.397611,4.6017785,-8.271777,2.563538,0.049448382,0.02266362,-0.051719215,0.2504078,-0.69032717,0.12141244"
54,"55,1.0566583,2.2518759,-2.397611,4.6017785,-8.271777,2.563538,0.049448382,0.02266362,-0.051719215,0.2504078,-0.69032717,0.12141244"
55,"56,1.0566583,2.2518759,-2.397611,4.6017785,-8.271777,2.563538,0.049448382,0.02266362,-0.051719215,0.2504078,-0.69032717,0.12141244"
56,"57,1.0566583,2.2518759,-2.397611,4.6017785,-8.271777,2.563538,0.049448382,0.02266362,-0.051719215,0.2504078,-0.69032717,0.12141244"
57,"58,1.0566583,2.2518759,-2.397611,4.6017785,-8.271777,2.563538,0.049448382,0.02266362,-0.051719215,0.2504078,-0.69032717,0.12141244"
58,"59,1.0572957,2.2668781,-2.388141,4.6613803,-8.2398405,2.5586984,0.020596128,0.012259093,-0.040221322,-0.09593502,-0.102310926,0.5470427"
59,"60,1.0572957,2.2668781,-2.388141,4.6613803,-8.2398405,2.5586984,0.020596128,0.012259093,-0.040221322,-0.09593502,-0.102310926,0.5470427"
60,"61,1.0572957,2.2668781,-2.388141,4.6613803,-8.2398405,2.5586984,0.020596128,0.012259093,-0.040221322,-0.09593502,-0.102310926,0.5470427"
61,"62,1.0572957,2.2668781,-2.388141,4.6613803,-8.2398405,2.5586984,0.020596128,0.012259093,-0.040221322,-0.09593502,-0.102310926,0.5470427"
62,"63,1.0572957,2.2668781,-2.388141,4.6613803,-8.2398405,2.5586984,0.020596128,0.012259093,-0.040221322,-0.09593502,-0.102310926,0.5470427"
63,"64,1.0583783,2.2764668,-2.3819928,4.726021,-8.2153,2.518725,-0.014879121,0.00022889319,-0.017761046,-0.061035153,0.08616219,0.020197747"
64,"65,1.0583783,2.2764668,-2.3819928,4.726021,-8.2153,2.518725,-0.014879121,0.00022889319,-0.017761046,-0.061035153,0.08616219,0.020197747"
65,"66,1.0583783,2.2764668,-2.3819928,4.726021,-8.2153,2.518725,-0.014879121,0.00022889319,-0.017761046,-0.061035153,0.08616219,0.020197747"
66,"67,1.0583783,2.2764668,-2.3819928,4.726021,-8.2153,2.518725,-0.014879121,0.00022889319,-0.017761046,-0.061035153,0.08616219,0.020197747"
67,"68,1.0583783,2.2764668,-2.3819928,4.726021,-8.2153,2.518725,-0.014879121,0.00022889319,-0.017761046,-0.061035153,0.08616219,0.020197747"
68,"69,1.0582978,2.2832572,-2.3796675,4.774052,-8.205115,2.4606695,-0.0366442,-0.007763205,0.0089992285,-0.06346071,-0.1285461,-0.039900914"
69,"70,1.0582978,2.2832572,-2.3796675,4.774052,-8.205115,2.4606695,-0.0366442,-0.007763205,0.0089992285,-0.06346071,-0.1285461,-0.039900914"
70,"71,1.0582978,2.2832572,-2.3796675,4.774052,-8.205115,2.4606695,-0.0366442,-0.007763205,0.0089992285,-0.06346071,-0.1285461,-0.039900914"
71,"72,1.0582978,2.2832572,-2.3796675,4.774052,-8.205115,2.4606695,-0.0366442,-0.007763205,0.0089992285,-0.06346071,-0.1285461,-0.039900914"
72,"73,1.0582978,2.2832572,-2.3796675,4.774052,-8.205115,2.4606695,-0.0366442,-0.007763205,0.0089992285,-0.06346071,-0.1285461,-0.039900914"
73,"74,1.057555,2.2891276,-2.3789558,4.8123403,-8.20117,2.3984535,-0.0312551,-0.008281675,0.02557216,-0.22795711,0.44831887,-0.07845855"
74,"75,1.057555,2.2891276,-2.3789558,4.8123403,-8.20117,2.3984535,-0.0312551,-0.008281675,0.02557216,-0.22795711,0.44831887,-0.07845855"
75,"76,1.057555,2.2891276,-2.3789558,4.8123403,-8.20117,2.3984535,-0.0312551,-0.008281675,0.02557216,-0.22795711,0.44831887,-0.07845855"
76,"77,1.057555,2.2891276,-2.3789558,4.8123403,-8.20117,2.3984535,-0.0312551,-0.008281675,0.02557216,-0.22795711,0.44831887,-0.07845855"
77,"78,1.057555,2.2891276,-2.3789558,4.8123403,-8.20117,2.3984535,-0.0312551,-0.008281675,0.02557216,-0.22795711,0.44831887,-0.07845855"
78,"79,1.056979,2.2949018,-2.3776238,4.849109,-8.194567,2.346405,-0.0047663013,-0.0050516194,0.01807511,0.54310644,-0.32955006,-0.06375152"
79,"80,1.056979,2.2949018,-2.3776238,4.849109,-8.194567,2.346405,-0.0047663013,-0.0050516194,0.01807511,0.54310644,-0.32955006,-0.06375152"
80,"81,1.056979,2.2949018,-2.3776238,4.849109,-8.194567,2.346405,-0.0047663013,-0.0050516194,0.01807511,0.54310644,-0.32955006,-0.06375152"
81,"82,1.056979,2.2949018,-2.3776238,4.849109,-8.194567,2.346405,-0.0047663013,-0.0050516194,0.01807511,0.54310644,-0.32955006,-0.06375152"
82,"83,1.056979,2.2949018,-2.3776238,4.849109,-8.194567,2.346405,-0.0047663013,-0.0050516194,0.01807511,0.54310644,-0.32955006,-0.06375152"
83,"84,1.0571599,2.3000782,-2.3749177,4.88829,-8.181683,2.3097763,0.03280199,-0.00022782857,-0.010199055,-0.35981572,0.046634965,-0.23978963"
84,"85,1.0571599,2.3000782,-2.3749177,4.88829,-8.181683,2.3097763,0.03280199,-0.00022782857,-0.010199055,-0.35981572,0.046634965,-0.23978963"
85,"86,1.0571599,2.3000782,-2.3749177,4.88829,-8.181683,2.3097763,0.03280199,-0.00022782857,-0.010199055,-0.35981572,0.046634965,-0.23978963"
86,"87,1.0571599,2.3000782,-2.3749177,4.88829,-8.181683,2.3097763,0.03280199,-0.00022782857,-0.010199055,-0.35981572,0.046634965,-0.23978963"
87,"88,1.0571599,2.3000782,-2.3749177,4.88829,-8.181683,2.3097763,0.03280199,-0.00022782857,-0.010199055,-0.35981572,0.046634965,-0.23978963"
88,"89,1.0571599,2.3000782,-2.3749177,4.88829,-8.181683,2.3097763,0.03280199,-0.00022782857,-0.010199055,-0.35981572,0.046634965,-0.23978963"
89,"90,1.0571599,2.3000782,-2.3749177,4.9420495,-8.157808,2.2796276,0.066565335,0.001924832,-0.040375695,0.28607017,-0.25356215,-0.03150948"
90,"91,1.0571599,2.3000782,-2.3749177,4.9420495,-8.157808,2.2796276,0.066565335,0.001924832,-0.040375695,0.28607017,-0.25356215,-0.03150948"
91,"92,1.0571599,2.3000782,-2.3749177,4.9420495,-8.157808,2.2796276,0.066565335,0.001924832,-0.040375695,0.28607017,-0.25356215,-0.03150948"
92,"93,1.0571599,2.3000782,-2.3749177,4.9420495,-8.157808,2.2796276,0.066565335,0.001924832,-0.040375695,0.28607017,-0.25356215,-0.03150948"
93,"94,1.0571599,2.3000782,-2.3749177,4.9420495,-8.157808,2.2796276,0.066565335,0.001924832,-0.040375695,0.28607017,-0.25356215,-0.03150948"
94,"95,1.0571599,2.3000782,-2.3749177,4.9420495,-8.157808,2.2796276,0.066565335,0.001924832,-0.040375695,0.28607017,-0.25356215,-0.03150948"
95,"96,1.0613308,2.3063056,-2.3651412,4.9927874,-8.130406,2.2669268,0.08179578,-0.003418493,-0.051406216,0.02424379,-0.31617618,-0.29443333"
96,"97,1.0613308,2.3063056,-2.3651412,4.9927874,-8.130406,2.2669268,0.08179578,-0.003418493,-0.051406216,0.02424379,-0.31617618,-0.29443333"
97,"98,1.0613308,2.3063056,-2.3651412,4.9927874,-8.130406,2.2669268,0.08179578,-0.003418493,-0.051406216,0.02424379,-0.31617618,-0.29443333"
98,"99,1.0613308,2.3063056,-2.3651412,4.9927874,-8.130406,2.2669268,0.08179578,-0.003418493,-0.051406216,0.02424379,-0.31617618,-0.29443333"
99,"100,1.0613308,2.3063056,-2.3651412,4.9927874,-8.130406,2.2669268,0.08179578,-0.003418493,-0.051406216,0.02424379,-0.31617618,-0.29443333"
100,"101,1.0613308,2.3063056,-2.3651412,4.9927874,-8.130406,2.2669268,0.08179578,-0.003418493,-0.051406216,0.02424379,-0.31617618,-0.29443333"
101,"102,1.0613308,2.3063056,-2.3651412,5.029067,-8.103169,2.2841866,0.08074713,-0.014035943,-0.037948363,-0.008666527,-0.15329833,0.1910472"
102,"103,1.0613308,2.3063056,-2.3651412,5.029067,-8.103169,2.2841866,0.08074713,-0.014035943,-0.037948363,-0.008666527,-0.15329833,0.1910472"
103,"104,1.0613308,2.3063056,-2.3651412,5.029067,-8.103169,2.2841866,0.08074713,-0.014035943,-0.037948363,-0.008666527,-0.15329833,0.1910472"
104,"105,1.0613308,2.3063056,-2.3651412,5.029067,-8.103169,2.2841866,0.08074713,-0.014035943,-0.037948363,-0.008666527,-0.15329833,0.1910472"
105,"106,1.0613308,2.3063056,-2.3651412,5.029067,-8.103169,2.2841866,0.08074713,-0.014035943,-0.037948363,-0.008666527,-0.15329833,0.1910472"
106,"107,1.0613308,2.3063056,-2.3651412,5.029067,-8.103169,2.2841866,0.08074713,-0.014035943,-0.037948363,-0.008666527,-0.15329833,0.1910472"
107,"108,1.0656183,2.3114128,-2.3529406,5.0625806,-8.077061,2.3025548,0.08214923,-0.019465502,-0.011633097,0.1948765,-0.006155039,-0.0013498234"
108,"109,1.0656183,2.3114128,-2.3529406,5.0625806,-8.077061,2.3025548,0.08214923,-0.019465502,-0.011633097,0.1948765,-0.006155039,-0.0013498234"
109,"110,1.0656183,2.3114128,-2.3529406,5.0625806,-8.077061,2.3025548,0.08214923,-0.019465502,-0.011633097,0.1948765,-0.006155039,-0.0013498234"
110,"111,1.0656183,2.3114128,-2.3529406,5.0625806,-8.077061,2.3025548,0.08214923,-0.019465502,-0.011633097,0.1948765,-0.006155039,-0.0013498234"
111,"112,1.0656183,2.3114128,-2.3529406,5.0625806,-8.077061,2.3025548,0.08214923,-0.019465502,-0.011633097,0.1948765,-0.006155039,-0.0013498234"
112,"113,1.0656183,2.3114128,-2.3529406,5.0625806,-8.077061,2.3025548,0.08214923,-0.019465502,-0.011633097,0.1948765,-0.006155039,-0.0013498234"
113,"114,1.0656183,2.3114128,-2.3529406,5.094402,-8.065569,2.272456,0.092588894,-0.011727848,0.018224156,0.1332011,-0.35252094,-0.12644656"
114,"115,1.0656183,2.3114128,-2.3529406,5.094402,-8.065569,2.272456,0.092588894,-0.011727848,0.018224156,0.1332011,-0.35252094,-0.12644656"
115,"116,1.0656183,2.3114128,-2.3529406,5.094402,-8.065569,2.272456,0.092588894,-0.011727848,0.018224156,0.1332011,-0.35252094,-0.12644656"
116,"117,1.0656183,2.3114128,-2.3529406,5.094402,-8.065569,2.272456,0.092588894,-0.011727848,0.018224156,0.1332011,-0.35252094,-0.12644656"
117,"118,1.0656183,2.3114128,-2.3529406,5.094402,-8.065569,2.272456,0.092588894,-0.011727848,0.018224156,0.1332011,-0.35252094,-0.12644656"
118,"119,1.0656183,2.3114128,-2.3529406,5.094402,-8.065569,2.272456,0.092588894,-0.011727848,0.018224156,0.1332011,-0.35252094,-0.12644656"
119,"120,1.0656183,2.3114128,-2.3529406,5.1164937,-8.055288,2.2592473,0.09851563,0.0014329778,0.04894375,-0.35754225,0.3079692,0.23194712"
120,"121,1.0656183,2.3114128,-2.3529406,5.1164937,-8.055288,2.2592473,0.09851563,0.0014329778,0.04894375,-0.35754225,0.3079692,0.23194712"
121,"122,1.0656183,2.3114128,-2.3529406,5.1164937,-8.055288,2.2592473,0.09851563,0.0014329778,0.04894375,-0.35754225,0.3079692,0.23194712"
122,"123,1.0656183,2.3114128,-2.3529406,5.1164937,-8.055288,2.2592473,0.09851563,0.0014329778,0.04894375,-0.35754225,0.3079692,0.23194712"
123,"124,1.0656183,2.3114128,-2.3529406,5.1164937,-8.055288,2.2592473,0.09851563,0.0014329778,0.04894375,-0.35754225,0.3079692,0.23194712"
124,"125,1.0656183,2.3114128,-2.3529406,5.1164937,-8.055288,2.2592473,0.09851563,0.0014329778,0.04894375,-0.35754225,0.3079692,0.23194712"
125,"126,1.0730997,2.2973843,-2.3534586,5.1305814,-8.047963,2.2534032,0.091310285,0.00074629823,0.07421782,0.0021696333,0.062218353,-0.30655038"
126,"127,1.0730997,2.2973843,-2.3534586,5.1305814,-8.047963,2.2534032,0.091310285,0.00074629823,0.07421782,0.0021696333,0.062218353,-0.30655038"
127,"128,1.0730997,2.2973843,-2.3534586,5.1305814,-8.047963,2.2534032,0.091310285,0.00074629823,0.07421782,0.0021696333,0.062218353,-0.30655038"
128,"129,1.0730997,2.2973843,-2.3534586,5.1305814,-8.047963,2.2534032,0.091310285,0.00074629823,0.07421782,0.0021696333,0.062218353,-0.30655038"
129,"130,1.0730997,2.2973843,-2.3534586,5.1305814,-8.047963,2.2534032,0.091310285,0.00074629823,0.07421782,0.0021696333,0.062218353,-0.30655038"
130,"131,1.0730997,2.2973843,-2.3534586,5.1305814,-8.047963,2.2534032,0.091310285,0.00074629823,0.07421782,0.0021696333,0.062218353,-0.30655038"
131,"132,1.0730997,2.2973843,-2.3534586,5.140243,-8.044674,2.2431011,0.08225676,-0.022962777,0.086385354,0.054406486,-0.09071421,0.26544547"
132,"133,1.0730997,2.2973843,-2.3534586,5.140243,-8.044674,2.2431011,0.08225676,-0.022962777,0.086385354,0.054406486,-0.09071421,0.26544547"
133,"134,1.0730997,2.2973843,-2.3534586,5.140243,-8.044674,2.2431011,0.08225676,-0.022962777,0.086385354,0.054406486,-0.09071421,0.26544547"
134,"135,1.0730997,2.2973843,-2.3534586,5.140243,-8.044674,2.2431011,0.08225676,-0.022962777,0.086385354,0.054406486,-0.09071421,0.26544547"
135,"136,1.0730997,2.2973843,-2.3534586,5.140243,-8.044674,2.2431011,0.08225676,-0.022962777,0.086385354,0.054406486,-0.09071421,0.26544547"
136,"137,1.0730997,2.2973843,-2.3534586,5.140243,-8.044674,2.2431011,0.08225676,-0.022962777,0.086385354,0.054406486,-0.09071421,0.26544547"
137,"138,1.0799044,2.2797468,-2.356722,5.161924,-8.034233,2.2306998,0.086819716,-0.059928495,0.08421247,-0.05906651,0.023592599,-0.25761274"
138,"139,1.0799044,2.2797468,-2.356722,5.161924,-8.034233,2.2306998,0.086819716,-0.059928495,0.08421247,-0.05906651,0.023592599,-0.25761274"
139,"140,1.0799044,2.2797468,-2.356722,5.161924,-8.034233,2.2306998,0.086819716,-0.059928495,0.08421247,-0.05906651,0.023592599,-0.25761274"
140,"141,1.0799044,2.2797468,-2.356722,5.161924,-8.034233,2.2306998,0.086819716,-0.059928495,0.08421247,-0.05906651,0.023592599,-0.25761274"
141,"142,1.0799044,2.2797468,-2.356722,5.161924,-8.034233,2.2306998,0.086819716,-0.059928495,0.08421247,-0.05906651,0.023592599,-0.25761274"
142,"143,1.0799044,2.2797468,-2.356722,5.161924,-8.034233,2.2306998,0.086819716,-0.059928495,0.08421247,-0.05906651,0.023592599,-0.25761274"
143,"144,1.0856705,2.265237,-2.358721,5.189955,-8.020442,2.2152328,0.10578378,-0.09290189,0.07493537,0.17808571,-0.3332774,-0.09713547"
144,"145,1.0856705,2.265237,-2.358721,5.189955,-8.020442,2.2152328,0.10578378,-0.09290189,0.07493537,0.17808571,-0.3332774,-0.09713547"
145,"146,1.0856705,2.265237,-2.358721,5.189955,-8.020442,2.2152328,0.10578378,-0.09290189,0.07493537,0.17808571,-0.3332774,-0.09713547"
146,"147,1.0856705,2.265237,-2.358721,5.189955,-8.020442,2.2152328,0.10578378,-0.09290189,0.07493537,0.17808571,-0.3332774,-0.09713547"
147,"148,1.0856705,2.265237,-2.358721,5.189955,-8.020442,2.2152328,0.10578378,-0.09290189,0.07493537,0.17808571,-0.3332774,-0.09713547"
148,"149,1.0856705,2.265237,-2.358721,5.189955,-8.020442,2.2152328,0.10578378,-0.09290189,0.07493537,0.17808571,-0.3332774,-0.09713547"
149,"150,1.0930904,2.2491207,-2.357741,5.220541,-7.9942446,2.2379427,0.13034987,-0.119237386,0.062324952,-0.5431578,0.8677132,0.16973735"
150,"151,1.0930904,2.2491207,-2.357741,5.220541,-7.9942446,2.2379427,0.13034987,-0.119237386,0.062324952,-0.5431578,0.8677132,0.16973735"
151,"152,1.0930904,2.2491207,-2.357741,5.220541,-7.9942446,2.2379427,0.13034987,-0.119237386,0.062324952,-0.5431578,0.8677132,0.16973735"
152,"153,1.0930904,2.2491207,-2.357741,5.220541,-7.9942446,2.2379427,0.13034987,-0.119237386,0.062324952,-0.5431578,0.8677132,0.16973735"
153,"154,1.0930904,2.2491207,-2.357741,5.220541,-7.9942446,2.2379427,0.13034987,-0.119237386,0.062324952,-0.5431578,0.8677132,0.16973735"
154,"155,1.0930904,2.2491207,-2.357741,5.220541,-7.9942446,2.2379427,0.13034987,-0.119237386,0.062324952,-0.5431578,0.8677132,0.16973735"
155,"156,1.1027321,2.2289765,-2.355336,5.2621927,-7.9560122,2.2763085,0.15338612,-0.15583473,0.046923105,-0.18746985,-0.1260947,-0.10896983"
156,"157,1.1027321,2.2289765,-2.355336,5.2621927,-7.9560122,2.2763085,0.15338612,-0.15583473,0.046923105,-0.18746985,-0.1260947,-0.10896983"
157,"158,1.1027321,2.2289765,-2.355336,5.2621927,-7.9560122,2.2763085,0.15338612,-0.15583473,0.046923105,-0.18746985,-0.1260947,-0.10896983"
158,"159,1.1027321,2.2289765,-2.355336,5.2621927,-7.9560122,2.2763085,0.15338612,-0.15583473,0.046923105,-0.18746985,-0.1260947,-0.10896983"
159,"160,1.1027321,2.2289765,-2.355336,5.2621927,-7.9560122,2.2763085,0.15338612,-0.15583473,0.046923105,-0.18746985,-0.1260947,-0.10896983"
160,"161,1.1027321,2.2289765,-2.355336,5.2621927,-7.9560122,2.2763085,0.15338612,-0.15583473,0.046923105,-0.18746985,-0.1260947,-0.10896983"
161,"162,1.1141045,2.2007217,-2.355616,5.305233,-7.920128,2.3014033,0.17342332,-0.21231812,0.03784403,-0.020540452,-0.27228782,-0.2318571"
162,"163,1.1141045,2.2007217,-2.355616,5.305233,-7.920128,2.3014033,0.17342332,-0.21231812,0.03784403,-0.020540452,-0.27228782,-0.2318571"
163,"164,1.1141045,2.2007217,-2.355616,5.305233,-7.920128,2.3014033,0.17342332,-0.21231812,0.03784403,-0.020540452,-0.27228782,-0.2318571"
164,"165,1.1141045,2.2007217,-2.355616,5.305233,-7.920128,2.3014033,0.17342332,-0.21231812,0.03784403,-0.020540452,-0.27228782,-0.2318571"
165,"166,1.1141045,2.2007217,-2.355616,5.305233,-7.920128,2.3014033,0.17342332,-0.21231812,0.03784403,-0.020540452,-0.27228782,-0.2318571"
166,"167,1.1141045,2.2007217,-2.355616,5.305233,-7.920128,2.3014033,0.17342332,-0.21231812,0.03784403,-0.020540452,-0.27228782,-0.2318571"
167,"168,1.1268314,2.1650774,-2.3571124,5.3396454,-7.8850617,2.3418746,0.19378737,-0.27443868,0.045987304,-0.3562719,0.44246903,0.39412585"
168,"169,1.1268314,2.1650774,-2.3571124,5.3396454,-7.8850617,2.3418746,0.19378737,-0.27443868,0.045987304,-0.3562719,0.44246903,0.39412585"
169,"170,1.1268314,2.1650774,-2.3571124,5.3396454,-7.8850617,2.3418746,0.19378737,-0.27443868,0.045987304,-0.3562719,0.44246903,0.39412585"
170,"171,1.1268314,2.1650774,-2.3571124,5.3396454,-7.8850617,2.3418746,0.19378737,-0.27443868,0.045987304,-0.3562719,0.44246903,0.39412585"
171,"172,1.1268314,2.1650774,-2.3571124,5.3396454,-7.8850617,2.3418746,0.19378737,-0.27443868,0.045987304,-0.3562719,0.44246903,0.39412585"
172,"173,1.1411176,2.1183462,-2.3615475,5.3673673,-7.8555493,2.3774192,0.21061048,-0.31686056,0.07121985,0.10342884,0.03741402,-0.39494824"
173,"174,1.1411176,2.1183462,-2.3615475,5.3673673,-7.8555493,2.3774192,0.21061048,-0.31686056,0.07121985,0.10342884,0.03741402,-0.39494824"
174,"175,1.1411176,2.1183462,-2.3615475,5.3673673,-7.8555493,2.3774192,0.21061048,-0.31686056,0.07121985,0.10342884,0.03741402,-0.39494824"
175,"176,1.1411176,2.1183462,-2.3615475,5.3673673,-7.8555493,2.3774192,0.21061048,-0.31686056,0.07121985,0.10342884,0.03741402,-0.39494824"
176,"177,1.1411176,2.1183462,-2.3615475,5.3673673,-7.8555493,2.3774192,0.21061048,-0.31686056,0.07121985,0.10342884,0.03741402,-0.39494824"
177,"178,1.1582162,2.0576115,-2.367697,5.400842,-7.8229623,2.4088469,0.21872501,-0.32547972,0.10064806,0.20055908,-0.34341004,-0.06177943"
178,"179,1.1582162,2.0576115,-2.367697,5.400842,-7.8229623,2.4088469,0.21872501,-0.32547972,0.10064806,0.20055908,-0.34341004,-0.06177943"
179,"180,1.1582162,2.0576115,-2.367697,5.400842,-7.8229623,2.4088469,0.21872501,-0.32547972,0.10064806,0.20055908,-0.34341004,-0.06177943"
180,"181,1.1582162,2.0576115,-2.367697,5.400842,-7.8229623,2.4088469,0.21872501,-0.32547972,0.10064806,0.20055908,-0.34341004,-0.06177943"
181,"182,1.1582162,2.0576115,-2.367697,5.400842,-7.8229623,2.4088469,0.21872501,-0.32547972,0.10064806,0.20055908,-0.34341004,-0.06177943"
182,"183,1.1582162,2.0576115,-2.367697,5.400842,-7.8229623,2.4088469,0.21872501,-0.32547972,0.10064806,0.20055908,-0.34341004,-0.06177943"
183,"184,1.179546,1.9759954,-2.3761246,5.446632,-7.7852573,2.4278295,0.22289512,-0.31317484,0.11876576,-0.4410364,0.63568556,-0.25460193"
184,"185,1.179546,1.9759954,-2.3761246,5.446632,-7.7852573,2.4278295,0.22289512,-0.31317484,0.11876576,-0.4410364,0.63568556,-0.25460193"
185,"186,1.179546,1.9759954,-2.3761246,5.446632,-7.7852573,2.4278295,0.22289512,-0.31317484,0.11876576,-0.4410364,0.63568556,-0.25460193"
186,"187,1.179546,1.9759954,-2.3761246,5.446632,-7.7852573,2.4278295,0.22289512,-0.31317484,0.11876576,-0.4410364,0.63568556,-0.25460193"
187,"188,1.179546,1.9759954,-2.3761246,5.446632,-7.7852573,2.4278295,0.22289512,-0.31317484,0.11876576,-0.4410364,0.63568556,-0.25460193"
188,"189,1.179546,1.9759954,-2.3761246,5.446632,-7.7852573,2.4278295,0.22289512,-0.31317484,0.11876576,-0.4410364,0.63568556,-0.25460193"
189,"190,1.2054683,1.8643708,-2.3890896,5.492801,-7.753759,2.4246094,0.23575678,-0.3159631,0.12229497,-0.048279297,-0.12256168,-0.051874705"
190,"191,1.2054683,1.8643708,-2.3890896,5.492801,-7.753759,2.4246094,0.23575678,-0.3159631,0.12229497,-0.048279297,-0.12256168,-0.051874705"
191,"192,1.2054683,1.8643708,-2.3890896,5.492801,-7.753759,2.4246094,0.23575678,-0.3159631,0.12229497,-0.048279297,-0.12256168,-0.051874705"
192,"193,1.2054683,1.8643708,-2.3890896,5.492801,-7.753759,2.4246094,0.23575678,-0.3159631,0.12229497,-0.048279297,-0.12256168,-0.051874705"
193,"194,1.2054683,1.8643708,-2.3890896,5.492801,-7.753759,2.4246094,0.23575678,-0.3159631,0.12229497,-0.048279297,-0.12256168,-0.051874705"
194,"195,1.2054683,1.8643708,-2.3890896,5.492801,-7.753759,2.4246094,0.23575678,-0.3159631,0.12229497,-0.048279297,-0.12256168,-0.051874705"
195,"196,1.2343264,1.7215905,-2.4057908,5.5051165,-7.731156,2.4684591,0.27217424,-0.36598957,0.12346179,-0.32915393,1.1171119,-0.22263779"
196,"197,1.2343264,1.7215905,-2.4057908,5.5051165,-7.731156,2.4684591,0.27217424,-0.36598957,0.12346179,-0.32915393,1.1171119,-0.22263779"
197,"198,1.2343264,1.7215905,-2.4057908,5.5051165,-7.731156,2.4684591,0.27217424,-0.36598957,0.12346179,-0.32915393,1.1171119,-0.22263779"
198,"199,1.2343264,1.7215905,-2.4057908,5.5051165,-7.731156,2.4684591,0.27217424,-0.36598957,0.12346179,-0.32915393,1.1171119,-0.22263779"
199,"200,1.2343264,1.7215905,-2.4057908,5.5051165,-7.731156,2.4684591,0.27217424,-0.36598957,0.12346179,-0.32915393,1.1171119,-0.22263779"
200,"201,1.2343264,1.7215905,-2.4057908,5.5051165,-7.731156,2.4684591,0.27217424,-0.36598957,0.12346179,-0.32915393,1.1171119,-0.22263779"
201,"202,1.2699444,1.5451366,-2.4278605,5.5230064,-7.718506,2.4680877,0.32967326,-0.4534768,0.13105147,0.45560485,-0.50018525,0.33377448"
202,"203,1.2699444,1.5451366,-2.4278605,5.5230064,-7.718506,2.4680877,0.32967326,-0.4534768,0.13105147,0.45560485,-0.50018525,0.33377448"
203,"204,1.2699444,1.5451366,-2.4278605,5.5230064,-7.718506,2.4680877,0.32967326,-0.4534768,0.13105147,0.45560485,-0.50018525,0.33377448"
204,"205,1.2699444,1.5451366,-2.4278605,5.5230064,-7.718506,2.4680877,0.32967326,-0.4534768,0.13105147,0.45560485,-0.50018525,0.33377448"
205,"206,1.2699444,1.5451366,-2.4278605,5.5230064,-7.718506,2.4680877,0.32967326,-0.4534768,0.13105147,0.45560485,-0.50018525,0.33377448"
206,"207,1.2699444,1.5451366,-2.4278605,5.5230064,-7.718506,2.4680877,0.32967326,-0.4534768,0.13105147,0.45560485,-0.50018525,0.33377448"
207,"208,1.312682,1.3617016,-2.4513874,5.5393586,-7.6917844,2.5144258,0.38508564,-0.5184782,0.13981329,-0.5409217,0.17369564,-1.0306622"
208,"209,1.312682,1.3617016,-2.4513874,5.5393586,-7.6917844,2.5144258,0.38508564,-0.5184782,0.13981329,-0.5409217,0.17369564,-1.0306622"
209,"210,1.312682,1.3617016,-2.4513874,5.5393586,-7.6917844,2.5144258,0.38508564,-0.5184782,0.13981329,-0.5409217,0.17369564,-1.0306622"
210,"211,1.312682,1.3617016,-2.4513874,5.5393586,-7.6917844,2.5144258,0.38508564,-0.5184782,0.13981329,-0.5409217,0.17369564,-1.0306622"
211,"212,1.4320245,1.0603791,-2.5166986,5.525865,-7.6804056,2.5780942,0.38526025,-0.46508753,0.14166573,-0.070290804,-0.058951117,0.25663954"
212,"213,1.4320245,1.0603791,-2.5166986,5.525865,-7.6804056,2.5780942,0.38526025,-0.46508753,0.14166573,-0.070290804,-0.058951117,0.25663954"
213,"214,1.4320245,1.0603791,-2.5166986,5.525865,-7.6804056,2.5780942,0.38526025,-0.46508753,0.14166573,-0.070290804,-0.058951117,0.25663954"
214,"215,1.4320245,1.0603791,-2.5166986,5.525865,-7.6804056,2.5780942,0.38526025,-0.46508753,0.14166573,-0.070290804,-0.058951117,0.25663954"
215,"216,1.4320245,1.0603791,-2.5166986,5.525865,-7.6804056,2.5780942,0.38526025,-0.46508753,0.14166573,-0.070290804,-0.058951117,0.25663954"
216,"217,1.4320245,1.0603791,-2.5166986,5.525865,-7.6804056,2.5780942,0.38526025,-0.46508753,0.14166573,-0.070290804,-0.058951117,0.25663954"
217,"218,1.522314,0.9922552,-2.5562477,5.5010495,-7.676784,2.6411796,0.3392133,-0.41712004,0.14107485,-0.06940362,0.35143387,0.1200528"
218,"219,1.522314,0.9922552,-2.5562477,5.5010495,-7.676784,2.6411796,0.3392133,-0.41712004,0.14107485,-0.06940362,0.35143387,0.1200528"
219,"220,1.522314,0.9922552,-2.5562477,5.5010495,-7.676784,2.6411796,0.3392133,-0.41712004,0.14107485,-0.06940362,0.35143387,0.1200528"
220,"221,1.522314,0.9922552,-2.5562477,5.5010495,-7.676784,2.6411796,0.3392133,-0.41712004,0.14107485,-0.06940362,0.35143387,0.1200528"
221,"222,1.522314,0.9922552,-2.5562477,5.5010495,-7.676784,2.6411796,0.3392133,-0.41712004,0.14107485,-0.06940362,0.35143387,0.1200528"
222,"223,1.522314,0.9922552,-2.5562477,5.5010495,-7.676784,2.6411796,0.3392133,-0.41712004,0.14107485,-0.06940362,0.35143387,0.1200528"
223,"224,1.6642313,1.0003377,-2.5964415,5.504346,-7.662099,2.6767168,0.29431617,-0.3963046,0.1389584,0.14570262,0.035656724,0.07144714"
224,"225,1.6642313,1.0003377,-2.5964415,5.504346,-7.662099,2.6767168,0.29431617,-0.3963046,0.1389584,0.14570262,0.035656724,0.07144714"
225,"226,1.6642313,1.0003377,-2.5964415,5.504346,-7.662099,2.6767168,0.29431617,-0.3963046,0.1389584,0.14570262,0.035656724,0.07144714"
226,"227,1.6642313,1.0003377,-2.5964415,5.504346,-7.662099,2.6767168,0.29431617,-0.3963046,0.1389584,0.14570262,0.035656724,0.07144714"
227,"228,1.6642313,1.0003377,-2.5964415,5.504346,-7.662099,2.6767168,0.29431617,-0.3963046,0.1389584,0.14570262,0.035656724,0.07144714"
228,"229,1.6642313,1.0003377,-2.5964415,5.504346,-7.662099,2.6767168,0.29431617,-0.3963046,0.1389584,0.14570262,0.035656724,0.07144714"
229,"230,1.911428,1.0725929,-2.6418629,5.5018253,-7.636912,2.7527971,0.26060608,-0.38590646,0.13415696,0.012678619,-0.14384241,-0.40012556"
230,"231,1.911428,1.0725929,-2.6418629,5.5018253,-7.636912,2.7527971,0.26060608,-0.38590646,0.13415696,0.012678619,-0.14384241,-0.40012556"
231,"232,1.911428,1.0725929,-2.6418629,5.5018253,-7.636912,2.7527971,0.26060608,-0.38590646,0.13415696,0.012678619,-0.14384241,-0.40012556"
232,"233,1.911428,1.0725929,-2.6418629,5.5018253,-7.636912,2.7527971,0.26060608,-0.38590646,0.13415696,0.012678619,-0.14384241,-0.40012556"
233,"234,1.911428,1.0725929,-2.6418629,5.5018253,-7.636912,2.7527971,0.26060608,-0.38590646,0.13415696,0.012678619,-0.14384241,-0.40012556"
234,"235,2.3953965,1.2191168,-2.6907082,5.509523,-7.613843,2.8008823,0.2371163,-0.3597658,0.13002837,-0.13443527,0.13478178,-0.23365812"
235,"236,2.3953965,1.2191168,-2.6907082,5.509523,-7.613843,2.8008823,0.2371163,-0.3597658,0.13002837,-0.13443527,0.13478178,-0.23365812"
236,"237,2.3953965,1.2191168,-2.6907082,5.509523,-7.613843,2.8008823,0.2371163,-0.3597658,0.13002837,-0.13443527,0.13478178,-0.23365812"
237,"238,2.3953965,1.2191168,-2.6907082,5.509523,-7.613843,2.8008823,0.2371163,-0.3597658,0.13002837,-0.13443527,0.13478178,-0.23365812"
238,"239,2.3953965,1.2191168,-2.6907082,5.509523,-7.613843,2.8008823,0.2371163,-0.3597658,0.13002837,-0.13443527,0.13478178,-0.23365812"
239,"240,2.3953965,1.2191168,-2.6907082,5.509523,-7.613843,2.8008823,0.2371163,-0.3597658,0.13002837,-0.13443527,0.13478178,-0.23365812"
240,"241,3.0589383,1.4237503,-2.7443414,5.520502,-7.5852575,2.856279,0.22563227,-0.31084013,0.12493629,0.11903892,-0.19666252,-0.05717124"
241,"242,3.0589383,1.4237503,-2.7443414,5.520502,-7.5852575,2.856279,0.22563227,-0.31084013,0.12493629,0.11903892,-0.19666252,-0.05717124"
242,"243,3.0589383,1.4237503,-2.7443414,5.520502,-7.5852575,2.856279,0.22563227,-0.31084013,0.12493629,0.11903892,-0.19666252,-0.05717124"
243,"244,3.0589383,1.4237503,-2.7443414,5.520502,-7.5852575,2.856279,0.22563227,-0.31084013,0.12493629,0.11903892,-0.19666252,-0.05717124"
244,"245,3.0589383,1.4237503,-2.7443414,5.520502,-7.5852575,2.856279,0.22563227,-0.31084013,0.12493629,0.11903892,-0.19666252,-0.05717124"
245,"246,-2.7821336,1.6405785,-2.8034909,5.5199003,-7.560088,2.9233797,0.22717384,-0.2527822,0.11529935,0.2029332,-0.26340902,0.0038494756"
246,"247,-2.7821336,1.6405785,-2.8034909,5.5199003,-7.560088,2.9233797,0.22717384,-0.2527822,0.11529935,0.2029332,-0.26340902,0.0038494756"
247,"248,-2.7821336,1.6405785,-2.8034909,5.5199003,-7.560088,2.9233797,0.22717384,-0.2527822,0.11529935,0.2029332,-0.26340902,0.0038494756"
248,"249,-2.7821336,1.6405785,-2.8034909,5.5199003,-7.560088,2.9233797,0.22717384,-0.2527822,0.11529935,0.2029332,-0.26340902,0.0038494756"
249,"250,-2.562692,1.8337266,-2.8669298,5.502124,-7.547944,2.9875674,0.23153238,-0.20379372,0.102960415,-0.0038868303,0.2776831,-0.31371525"
250,"251,-2.562692,1.8337266,-2.8669298,5.502124,-7.547944,2.9875674,0.23153238,-0.20379372,0.102960415,-0.0038868303,0.2776831,-0.31371525"
251,"252,-2.562692,1.8337266,-2.8669298,5.502124,-7.547944,2.9875674,0.23153238,-0.20379372,0.102960415,-0.0038868303,0.2776831,-0.31371525"
252,"253,-2.562692,1.8337266,-2.8669298,5.502124,-7.547944,2.9875674,0.23153238,-0.20379372,0.102960415,-0.0038868303,0.2776831,-0.31371525"
253,"254,-2.562692,1.8337266,-2.8669298,5.502124,-7.547944,2.9875674,0.23153238,-0.20379372,0.102960415,-0.0038868303,0.2776831,-0.31371525"
254,"255,-2.4450502,1.9926091,-2.9327176,5.494452,-7.5256433,3.0571337,0.22692896,-0.17025289,0.091287926,-0.06861181,-0.47613242,-0.14505808"
255,"256,-2.4450502,1.9926091,-2.9327176,5.494452,-7.5256433,3.0571337,0.22692896,-0.17025289,0.091287926,-0.06861181,-0.47613242,-0.14505808"
256,"257,-2.4450502,1.9926091,-2.9327176,5.494452,-7.5256433,3.0571337,0.22692896,-0.17025289,0.091287926,-0.06861181,-0.47613242,-0.14505808"
257,"258,-2.4450502,1.9926091,-2.9327176,5.494452,-7.5256433,3.0571337,0.22692896,-0.17025289,0.091287926,-0.06861181,-0.47613242,-0.14505808"
258,"259,-2.4450502,1.9926091,-2.9327176,5.494452,-7.5256433,3.0571337,0.22692896,-0.17025289,0.091287926,-0.06861181,-0.47613242,-0.14505808"
259,"260,-2.4450502,1.9926091,-2.9327176,5.494452,-7.5256433,3.0571337,0.22692896,-0.17025289,0.091287926,-0.06861181,-0.47613242,-0.14505808"
260,"261,-2.375629,2.1214323,-2.9972212,5.4978743,-7.508197,3.0936615,0.21045397,-0.14660342,0.08312762,-0.8536386,1.009025,0.32920748"
261,"262,-2.375629,2.1214323,-2.9972212,5.4978743,-7.508197,3.0936615,0.21045397,-0.14660342,0.08312762,-0.8536386,1.009025,0.32920748"
262,"263,-2.375629,2.1214323,-2.9972212,5.4978743,-7.508197,3.0936615,0.21045397,-0.14660342,0.08312762,-0.8536386,1.009025,0.32920748"
263,"264,-2.375629,2.1214323,-2.9972212,5.4978743,-7.508197,3.0936615,0.21045397,-0.14660342,0.08312762,-0.8536386,1.009025,0.32920748"
264,"265,-2.375629,2.1214323,-2.9972212,5.4978743,-7.508197,3.0936615,0.21045397,-0.14660342,0.08312762,-0.8536386,1.009025,0.32920748"
265,"266,-2.375629,2.1214323,-2.9972212,5.4978743,-7.508197,3.0936615,0.21045397,-0.14660342,0.08312762,-0.8536386,1.009025,0.32920748"
266,"267,-2.3326957,2.2232683,-3.057129,5.5143614,-7.4991274,3.0863087,0.18599115,-0.12917773,0.0739293,0.27607384,-0.28989854,0.0844009"
267,"268,-2.3326957,2.2232683,-3.057129,5.5143614,-7.4991274,3.0863087,0.18599115,-0.12917773,0.0739293,0.27607384,-0.28989854,0.0844009"
268,"269,-2.3326957,2.2232683,-3.057129,5.5143614,-7.4991274,3.0863087,0.18599115,-0.12917773,0.0739293,0.27607384,-0.28989854,0.0844009"
269,"270,-2.3326957,2.2232683,-3.057129,5.5143614,-7.4991274,3.0863087,0.18599115,-0.12917773,0.0739293,0.27607384,-0.28989854,0.0844009"
270,"271,-2.3326957,2.2232683,-3.057129,5.5143614,-7.4991274,3.0863087,0.18599115,-0.12917773,0.0739293,0.27607384,-0.28989854,0.0844009"
271,"272,-2.3326957,2.2232683,-3.057129,5.5143614,-7.4991274,3.0863087,0.18599115,-0.12917773,0.0739293,0.27607384,-0.28989854,0.0844009"
272,"273,-2.3059583,2.298676,-3.1168578,5.514327,-7.5048566,3.0724113,0.15651716,-0.121042974,0.057336148,-0.38874117,1.2461008,-0.7629175"
273,"274,-2.3059583,2.298676,-3.1168578,5.514327,-7.5048566,3.0724113,0.15651716,-0.121042974,0.057336148,-0.38874117,1.2461008,-0.7629175"
274,"275,-2.3059583,2.298676,-3.1168578,5.514327,-7.5048566,3.0724113,0.15651716,-0.121042974,0.057336148,-0.38874117,1.2461008,-0.7629175"
275,"276,-2.3059583,2.298676,-3.1168578,5.514327,-7.5048566,3.0724113,0.15651716,-0.121042974,0.057336148,-0.38874117,1.2461008,-0.7629175"
276,"277,-2.3059583,2.298676,-3.1168578,5.514327,-7.5048566,3.0724113,0.15651716,-0.121042974,0.057336148,-0.38874117,1.2461008,-0.7629175"
277,"278,-2.3059583,2.298676,-3.1168578,5.514327,-7.5048566,3.0724113,0.15651716,-0.121042974,0.057336148,-0.38874117,1.2461008,-0.7629175"
278,"279,-2.2873085,2.3508282,3.1010787,5.5000343,-7.501403,3.10628,0.12605627,-0.118748724,0.039989237,0.4757164,-0.12612416,0.026398672"
279,"280,-2.2873085,2.3508282,3.1010787,5.5000343,-7.501403,3.10628,0.12605627,-0.118748724,0.039989237,0.4757164,-0.12612416,0.026398672"
280,"281,-2.2873085,2.3508282,3.1010787,5.5000343,-7.501403,3.10628,0.12605627,-0.118748724,0.039989237,0.4757164,-0.12612416,0.026398672"
281,"282,-2.2873085,2.3508282,3.1010787,5.5000343,-7.501403,3.10628,0.12605627,-0.118748724,0.039989237,0.4757164,-0.12612416,0.026398672"
282,"283,-2.2873085,2.3508282,3.1010787,5.5000343,-7.501403,3.10628,0.12605627,-0.118748724,0.039989237,0.4757164,-0.12612416,0.026398672"
283,"284,-2.2873085,2.3508282,3.1010787,5.5000343,-7.501403,3.10628,0.12605627,-0.118748724,0.039989237,0.4757164,-0.12612416,0.026398672"
284,"285,-2.2873085,2.3508282,3.1010787,5.5000343,-7.501403,3.10628,0.12605627,-0.118748724,0.039989237,0.4757164,-0.12612416,0.026398672"
285,"286,-2.2734878,2.390568,3.0396156,5.502508,-7.4883456,3.1332858,0.10494167,-0.10969413,0.032936133,0.15527757,-0.24438107,-0.30374232"
286,"287,-2.2734878,2.390568,3.0396156,5.502508,-7.4883456,3.1332858,0.10494167,-0.10969413,0.032936133,0.15527757,-0.24438107,-0.30374232"
287,"288,-2.2734878,2.390568,3.0396156,5.502508,-7.4883456,3.1332858,0.10494167,-0.10969413,0.032936133,0.15527757,-0.24438107,-0.30374232"
288,"289,-2.2734878,2.390568,3.0396156,5.502508,-7.4883456,3.1332858,0.10494167,-0.10969413,0.032936133,0.15527757,-0.24438107,-0.30374232"
289,"290,-2.2734878,2.390568,3.0396156,5.502508,-7.4883456,3.1332858,0.10494167,-0.10969413,0.032936133,0.15527757,-0.24438107,-0.30374232"
290,"291,-2.2643507,2.422274,2.9779725,5.4873166,-7.485906,3.1655898,0.09986131,-0.0861192,0.038970396,-0.28118074,0.40554756,-0.064202085"
291,"292,-2.2643507,2.422274,2.9779725,5.4873166,-7.485906,3.1655898,0.09986131,-0.0861192,0.038970396,-0.28118074,0.40554756,-0.064202085"
292,"293,-2.2643507,2.422274,2.9779725,5.4873166,-7.485906,3.1655898,0.09986131,-0.0861192,0.038970396,-0.28118074,0.40554756,-0.064202085"
293,"294,-2.2643507,2.422274,2.9779725,5.4873166,-7.485906,3.1655898,0.09986131,-0.0861192,0.038970396,-0.28118074,0.40554756,-0.064202085"
294,"295,-2.2643507,2.422274,2.9779725,5.4873166,-7.485906,3.1655898,0.09986131,-0.0861192,0.038970396,-0.28118074,0.40554756,-0.064202085"
295,"296,-2.2643507,2.422274,2.9779725,5.4873166,-7.485906,3.1655898,0.09986131,-0.0861192,0.038970396,-0.28118074,0.40554756,-0.064202085"
296,"297,-2.2573206,2.4467862,2.9183848,5.4753156,-7.4777455,3.2054074,0.107078366,-0.055547588,0.04448193,-0.03346585,-0.019744266,0.13949548"
297,"298,-2.2573206,2.4467862,2.9183848,5.4753156,-7.4777455,3.2054074,0.107078366,-0.055547588,0.04448193,-0.03346585,-0.019744266,0.13949548"
298,"299,-2.2573206,2.4467862,2.9183848,5.4753156,-7.4777455,3.2054074,0.107078366,-0.055547588,0.04448193,-0.03346585,-0.019744266,0.13949548"
299,"300,-2.2573206,2.4467862,2.9183848,5.4753156,-7.4777455,3.2054074,0.107078366,-0.055547588,0.04448193,-0.03346585,-0.019744266,0.13949548"
300,"301,-2.2573206,2.4467862,2.9183848,5.4753156,-7.4777455,3.2054074,0.107078366,-0.055547588,0.04448193,-0.03346585,-0.019744266,0.13949548"
301,"302,-2.2573206,2.4467862,2.9183848,5.4753156,-7.4777455,3.2054074,0.107078366,-0.055547588,0.04448193,-0.03346585,-0.019744266,0.13949548"
302,"303,-2.2522292,2.466107,2.8601565,5.4546247,-7.4694867,3.259484,0.112314165,-0.03420729,0.035874482,-0.0077525163,-0.18046817,-0.26159123"
303,"304,-2.2522292,2.466107,2.8601565,5.4546247,-7.4694867,3.259484,0.112314165,-0.03420729,0.035874482,-0.0077525163,-0.18046817,-0.26159123"
304,"305,-2.2522292,2.466107,2.8601565,5.4546247,-7.4694867,3.259484,0.112314165,-0.03420729,0.035874482,-0.0077525163,-0.18046817,-0.26159123"
305,"306,-2.2522292,2.466107,2.8601565,5.4546247,-7.4694867,3.259484,0.112314165,-0.03420729,0.035874482,-0.0077525163,-0.18046817,-0.26159123"
306,"307,-2.2522292,2.466107,2.8601565,5.4546247,-7.4694867,3.259484,0.112314165,-0.03420729,0.035874482,-0.0077525163,-0.18046817,-0.26159123"
307,"308,-2.2522292,2.466107,2.8601565,5.4546247,-7.4694867,3.259484,0.112314165,-0.03420729,0.035874482,-0.0077525163,-0.18046817,-0.26159123"
308,"309,-2.2477267,2.4806714,2.8033698,5.4325256,-7.4521136,3.3352766,0.10347569,-0.02931962,0.017563028,0.12861921,0.3621332,-0.46668294"
309,"310,-2.2477267,2.4806714,2.8033698,5.4325256,-7.4521136,3.3352766,0.10347569,-0.02931962,0.017563028,0.12861921,0.3621332,-0.46668294"
310,"311,-2.2477267,2.4806714,2.8033698,5.4325256,-7.4521136,3.3352766,0.10347569,-0.02931962,0.017563028,0.12861921,0.3621332,-0.46668294"
311,"312,-2.2477267,2.4806714,2.8033698,5.4325256,-7.4521136,3.3352766,0.10347569,-0.02931962,0.017563028,0.12861921,0.3621332,-0.46668294"
312,"313,-2.2477267,2.4806714,2.8033698,5.4325256,-7.4521136,3.3352766,0.10347569,-0.02931962,0.017563028,0.12861921,0.3621332,-0.46668294"
313,"314,-2.2477267,2.4806714,2.8033698,5.4325256,-7.4521136,3.3352766,0.10347569,-0.02931962,0.017563028,0.12861921,0.3621332,-0.46668294"
314,"315,-2.2452586,2.494185,2.7561154,5.4159923,-7.4467087,3.3740113,0.08330541,-0.031900257,0.005405073,0.33242992,-0.10200047,0.23722126"
315,"316,-2.2452586,2.494185,2.7561154,5.4159923,-7.4467087,3.3740113,0.08330541,-0.031900257,0.005405073,0.33242992,-0.10200047,0.23722126"
316,"317,-2.2452586,2.494185,2.7561154,5.4159923,-7.4467087,3.3740113,0.08330541,-0.031900257,0.005405073,0.33242992,-0.10200047,0.23722126"
317,"318,-2.2452586,2.494185,2.7561154,5.4159923,-7.4467087,3.3740113,0.08330541,-0.031900257,0.005405073,0.33242992,-0.10200047,0.23722126"
318,"319,-2.2452586,2.494185,2.7561154,5.4159923,-7.4467087,3.3740113,0.08330541,-0.031900257,0.005405073,0.33242992,-0.10200047,0.23722126"
319,"320,-2.2452586,2.494185,2.7561154,5.4159923,-7.4467087,3.3740113,0.08330541,-0.031900257,0.005405073,0.33242992,-0.10200047,0.23722126"
320,"321,-2.2448275,2.5071657,2.7137935,5.3889375,-7.45534,3.3981807,0.05927482,-0.028589291,0.01516444,-0.19895561,0.16118947,-0.18692674"
321,"322,-2.2448275,2.5071657,2.7137935,5.3889375,-7.45534,3.3981807,0.05927482,-0.028589291,0.01516444,-0.19895561,0.16118947,-0.18692674"
322,"323,-2.2448275,2.5071657,2.7137935,5.3889375,-7.45534,3.3981807,0.05927482,-0.028589291,0.01516444,-0.19895561,0.16118947,-0.18692674"
323,"324,-2.2448275,2.5071657,2.7137935,5.3889375,-7.45534,3.3981807,0.05927482,-0.028589291,0.01516444,-0.19895561,0.16118947,-0.18692674"
324,"325,-2.2448275,2.5071657,2.7137935,5.3889375,-7.45534,3.3981807,0.05927482,-0.028589291,0.01516444,-0.19895561,0.16118947,-0.18692674"
325,"326,-2.2448275,2.5071657,2.7137935,5.3889375,-7.45534,3.3981807,0.05927482,-0.028589291,0.01516444,-0.19895561,0.16118947,-0.18692674"
326,"327,-2.244638,2.518229,2.6751254,5.366851,-7.461578,3.4193773,0.03414767,-0.019161021,0.041330658,-0.005473274,-0.050799828,0.6455161"
327,"328,-2.244638,2.518229,2.6751254,5.366851,-7.461578,3.4193773,0.03414767,-0.019161021,0.041330658,-0.005473274,-0.050799828,0.6455161"
328,"329,-2.244638,2.518229,2.6751254,5.366851,-7.461578,3.4193773,0.03414767,-0.019161021,0.041330658,-0.005473274,-0.050799828,0.6455161"
329,"330,-2.244638,2.518229,2.6751254,5.366851,-7.461578,3.4193773,0.03414767,-0.019161021,0.041330658,-0.005473274,-0.050799828,0.6455161"
330,"331,-2.244638,2.518229,2.6751254,5.366851,-7.461578,3.4193773,0.03414767,-0.019161021,0.041330658,-0.005473274,-0.050799828,0.6455161"
331,"332,-2.244638,2.518229,2.6751254,5.366851,-7.461578,3.4193773,0.03414767,-0.019161021,0.041330658,-0.005473274,-0.050799828,0.6455161"
332,"333,-2.244638,2.518229,2.6751254,5.3480806,-7.4699893,3.4304044,0.0050122286,-0.016863573,0.059988115,0.15759593,-0.43629122,0.3537717"
333,"334,-2.244638,2.518229,2.6751254,5.3480806,-7.4699893,3.4304044,0.0050122286,-0.016863573,0.059988115,0.15759593,-0.43629122,0.3537717"
334,"335,-2.244638,2.518229,2.6751254,5.3480806,-7.4699893,3.4304044,0.0050122286,-0.016863573,0.059988115,0.15759593,-0.43629122,0.3537717"
335,"336,-2.244638,2.518229,2.6751254,5.3480806,-7.4699893,3.4304044,0.0050122286,-0.016863573,0.059988115,0.15759593,-0.43629122,0.3537717"
336,"337,-2.244638,2.518229,2.6751254,5.3480806,-7.4699893,3.4304044,0.0050122286,-0.016863573,0.059988115,0.15759593,-0.43629122,0.3537717"
337,"338,-2.244638,2.518229,2.6751254,5.3480806,-7.4699893,3.4304044,0.0050122286,-0.016863573,0.059988115,0.15759593,-0.43629122,0.3537717"
338,"339,-2.2467122,2.5381007,2.6053739,5.3044925,-7.4865403,3.4618597,-0.028522221,-0.027893031,0.060411833,-0.06649866,0.9775527,-0.17213757"
339,"340,-2.2467122,2.5381007,2.6053739,5.3044925,-7.4865403,3.4618597,-0.028522221,-0.027893031,0.060411833,-0.06649866,0.9775527,-0.17213757"
340,"341,-2.2467122,2.5381007,2.6053739,5.3044925,-7.4865403,3.4618597,-0.028522221,-0.027893031,0.060411833,-0.06649866,0.9775527,-0.17213757"
341,"342,-2.2467122,2.5381007,2.6053739,5.3044925,-7.4865403,3.4618597,-0.028522221,-0.027893031,0.060411833,-0.06649866,0.9775527,-0.17213757"
342,"343,-2.2467122,2.5381007,2.6053739,5.3044925,-7.4865403,3.4618597,-0.028522221,-0.027893031,0.060411833,-0.06649866,0.9775527,-0.17213757"
343,"344,-2.2467122,2.5381007,2.6053739,5.3044925,-7.4865403,3.4618597,-0.028522221,-0.027893031,0.060411833,-0.06649866,0.9775527,-0.17213757"
344,"345,-2.2467122,2.5381007,2.6053739,5.2600923,-7.5066004,3.486083,-0.055621047,-0.04297443,0.05015316,0.4839611,-0.26039723,0.11539033"
345,"346,-2.2467122,2.5381007,2.6053739,5.2600923,-7.5066004,3.486083,-0.055621047,-0.04297443,0.05015316,0.4839611,-0.26039723,0.11539033"
346,"347,-2.2467122,2.5381007,2.6053739,5.2600923,-7.5066004,3.486083,-0.055621047,-0.04297443,0.05015316,0.4839611,-0.26039723,0.11539033"
347,"348,-2.2467122,2.5381007,2.6053739,5.2600923,-7.5066004,3.486083,-0.055621047,-0.04297443,0.05015316,0.4839611,-0.26039723,0.11539033"
348,"349,-2.2467122,2.5381007,2.6053739,5.2600923,-7.5066004,3.486083,-0.055621047,-0.04297443,0.05015316,0.4839611,-0.26039723,0.11539033"
349,"350,-2.2467122,2.5381007,2.6053739,5.2600923,-7.5066004,3.486083,-0.055621047,-0.04297443,0.05015316,0.4839611,-0.26039723,0.11539033"
350,"351,-2.25107,2.5561182,2.5427477,5.2224183,-7.5211115,3.5113556,-0.05997108,-0.04686455,0.04146906,-0.04509008,-0.018795598,-0.23396379"
351,"352,-2.25107,2.5561182,2.5427477,5.2224183,-7.5211115,3.5113556,-0.05997108,-0.04686455,0.04146906,-0.04509008,-0.018795598,-0.23396379"
352,"353,-2.25107,2.5561182,2.5427477,5.2224183,-7.5211115,3.5113556,-0.05997108,-0.04686455,0.04146906,-0.04509008,-0.018795598,-0.23396379"
353,"354,-2.25107,2.5561182,2.5427477,5.2224183,-7.5211115,3.5113556,-0.05997108,-0.04686455,0.04146906,-0.04509008,-0.018795598,-0.23396379"
354,"355,-2.25107,2.5561182,2.5427477,5.2224183,-7.5211115,3.5113556,-0.05997108,-0.04686455,0.04146906,-0.04509008,-0.018795598,-0.23396379"
355,"356,-2.25107,2.5561182,2.5427477,5.2224183,-7.5211115,3.5113556,-0.05997108,-0.04686455,0.04146906,-0.04509008,-0.018795598,-0.23396379"
356,"357,-2.25107,2.5561182,2.5427477,5.1872983,-7.5485854,3.5044522,-0.043139447,-0.037251037,0.037773766,0.23053119,-0.2251398,0.9538905"
357,"358,-2.25107,2.5561182,2.5427477,5.1872983,-7.5485854,3.5044522,-0.043139447,-0.037251037,0.037773766,0.23053119,-0.2251398,0.9538905"
358,"359,-2.25107,2.5561182,2.5427477,5.1872983,-7.5485854,3.5044522,-0.043139447,-0.037251037,0.037773766,0.23053119,-0.2251398,0.9538905"
359,"360,-2.25107,2.5561182,2.5427477,5.1872983,-7.5485854,3.5044522,-0.043139447,-0.037251037,0.037773766,0.23053119,-0.2251398,0.9538905"
360,"361,-2.25107,2.5561182,2.5427477,5.1872983,-7.5485854,3.5044522,-0.043139447,-0.037251037,0.037773766,0.23053119,-0.2251398,0.9538905"
361,"362,-2.25107,2.5561182,2.5427477,5.1872983,-7.5485854,3.5044522,-0.043139447,-0.037251037,0.037773766,0.23053119,-0.2251398,0.9538905"
362,"363,-2.256682,2.5719926,2.4977224,5.183248,-7.5735183,3.45632,-0.0373905,-0.033289585,0.034308426,-0.11937139,-0.6045055,-0.13267691"
363,"364,-2.256682,2.5719926,2.4977224,5.183248,-7.5735183,3.45632,-0.0373905,-0.033289585,0.034308426,-0.11937139,-0.6045055,-0.13267691"
364,"365,-2.256682,2.5719926,2.4977224,5.183248,-7.5735183,3.45632,-0.0373905,-0.033289585,0.034308426,-0.11937139,-0.6045055,-0.13267691"
365,"366,-2.256682,2.5719926,2.4977224,5.183248,-7.5735183,3.45632,-0.0373905,-0.033289585,0.034308426,-0.11937139,-0.6045055,-0.13267691"
366,"367,-2.256682,2.5719926,2.4977224,5.183248,-7.5735183,3.45632,-0.0373905,-0.033289585,0.034308426,-0.11937139,-0.6045055,-0.13267691"
367,"368,-2.256682,2.5719926,2.4977224,5.183248,-7.5735183,3.45632,-0.0373905,-0.033289585,0.034308426,-0.11937139,-0.6045055,-0.13267691"
368,"369,-2.256682,2.5719926,2.4977224,5.1393394,-7.6077676,3.446657,-0.07197786,-0.051786285,0.031260423,-0.27467456,1.3254235,-0.30059698"
369,"370,-2.256682,2.5719926,2.4977224,5.1393394,-7.6077676,3.446657,-0.07197786,-0.051786285,0.031260423,-0.27467456,1.3254235,-0.30059698"
370,"371,-2.256682,2.5719926,2.4977224,5.1393394,-7.6077676,3.446657,-0.07197786,-0.051786285,0.031260423,-0.27467456,1.3254235,-0.30059698"
371,"372,-2.256682,2.5719926,2.4977224,5.1393394,-7.6077676,3.446657,-0.07197786,-0.051786285,0.031260423,-0.27467456,1.3254235,-0.30059698"
372,"373,-2.256682,2.5719926,2.4977224,5.1393394,-7.6077676,3.446657,-0.07197786,-0.051786285,0.031260423,-0.27467456,1.3254235,-0.30059698"
373,"374,-2.256682,2.5719926,2.4977224,5.1393394,-7.6077676,3.446657,-0.07197786,-0.051786285,0.031260423,-0.27467456,1.3254235,-0.30059698"
374,"375,-2.2673311,2.5903602,2.4573512,5.097238,-7.665623,3.3803525,-0.12799494,-0.084786296,0.022740273,0.68847597,-0.7315299,0.28960773"
375,"376,-2.2673311,2.5903602,2.4573512,5.097238,-7.665623,3.3803525,-0.12799494,-0.084786296,0.022740273,0.68847597,-0.7315299,0.28960773"
376,"377,-2.2673311,2.5903602,2.4573512,5.097238,-7.665623,3.3803525,-0.12799494,-0.084786296,0.022740273,0.68847597,-0.7315299,0.28960773"
377,"378,-2.2673311,2.5903602,2.4573512,5.097238,-7.665623,3.3803525,-0.12799494,-0.084786296,0.022740273,0.68847597,-0.7315299,0.28960773"
378,"379,-2.2673311,2.5903602,2.4573512,5.097238,-7.665623,3.3803525,-0.12799494,-0.084786296,0.022740273,0.68847597,-0.7315299,0.28960773"
379,"380,-2.2673311,2.5903602,2.4573512,5.097238,-7.665623,3.3803525,-0.12799494,-0.084786296,0.022740273,0.68847597,-0.7315299,0.28960773"
380,"381,-2.2721903,2.5981224,2.4395702,5.0625753,-7.7065887,3.339041,-0.14456043,-0.09624586,0.010905962,-0.4045282,0.056991614,-0.68887925"
381,"382,-2.2721903,2.5981224,2.4395702,5.0625753,-7.7065887,3.339041,-0.14456043,-0.09624586,0.010905962,-0.4045282,0.056991614,-0.68887925"
382,"383,-2.2721903,2.5981224,2.4395702,5.0625753,-7.7065887,3.339041,-0.14456043,-0.09624586,0.010905962,-0.4045282,0.056991614,-0.68887925"
383,"384,-2.2721903,2.5981224,2.4395702,5.0625753,-7.7065887,3.339041,-0.14456043,-0.09624586,0.010905962,-0.4045282,0.056991614,-0.68887925"
384,"385,-2.2721903,2.5981224,2.4395702,5.0625753,-7.7065887,3.339041,-0.14456043,-0.09624586,0.010905962,-0.4045282,0.056991614,-0.68887925"
385,"386,-2.2721903,2.5981224,2.4395702,5.0625753,-7.7065887,3.339041,-0.14456043,-0.09624586,0.010905962,-0.4045282,0.056991614,-0.68887925"
386,"387,-2.2769163,2.60491,2.4268105,5.0460544,-7.751544,3.2590318,-0.10134751,-0.06957395,0.008502051,0.34060237,-0.14430103,1.4384643"
387,"388,-2.2769163,2.60491,2.4268105,5.0460544,-7.751544,3.2590318,-0.10134751,-0.06957395,0.008502051,0.34060237,-0.14430103,1.4384643"
388,"389,-2.2769163,2.60491,2.4268105,5.0460544,-7.751544,3.2590318,-0.10134751,-0.06957395,0.008502051,0.34060237,-0.14430103,1.4384643"
389,"390,-2.2769163,2.60491,2.4268105,5.0460544,-7.751544,3.2590318,-0.10134751,-0.06957395,0.008502051,0.34060237,-0.14430103,1.4384643"
390,"391,-2.2769163,2.60491,2.4268105,5.0460544,-7.751544,3.2590318,-0.10134751,-0.06957395,0.008502051,0.34060237,-0.14430103,1.4384643"
391,"392,-2.2769163,2.60491,2.4268105,5.0460544,-7.751544,3.2590318,-0.10134751,-0.06957395,0.008502051,0.34060237,-0.14430103,1.4384643"
392,"393,-2.2769163,2.60491,2.4268105,5.0600414,-7.756746,3.2247894,-0.045468833,-0.03356639,0.012874443,-0.124608964,-0.16582018,-0.09721662"
393,"394,-2.2769163,2.60491,2.4268105,5.0600414,-7.756746,3.2247894,-0.045468833,-0.03356639,0.012874443,-0.124608964,-0.16582018,-0.09721662"
394,"395,-2.2769163,2.60491,2.4268105,5.0600414,-7.756746,3.2247894,-0.045468833,-0.03356639,0.012874443,-0.124608964,-0.16582018,-0.09721662"
395,"396,-2.2769163,2.60491,2.4268105,5.0600414,-7.756746,3.2247894,-0.045468833,-0.03356639,0.012874443,-0.124608964,-0.16582018,-0.09721662"
396,"397,-2.2769163,2.60491,2.4268105,5.0600414,-7.756746,3.2247894,-0.045468833,-0.03356639,0.012874443,-0.124608964,-0.16582018,-0.09721662"
397,"398,-2.2769163,2.60491,2.4268105,5.0600414,-7.756746,3.2247894,-0.045468833,-0.03356639,0.012874443,-0.124608964,-0.16582018,-0.09721662"
398,"399,-2.2831087,2.614755,2.3964243,4.9968243,-7.796897,3.2265348,-0.019553866,-0.016490955,0.0115106655,-0.5361878,2.0573516,0.28027356"
399,"400,-2.2831087,2.614755,2.3964243,4.9968243,-7.796897,3.2265348,-0.019553866,-0.016490955,0.0115106655,-0.5361878,2.0573516,0.28027356"
400,"401,-2.2831087,2.614755,2.3964243,4.9968243,-7.796897,3.2265348,-0.019553866,-0.016490955,0.0115106655,-0.5361878,2.0573516,0.28027356"
401,"402,-2.2831087,2.614755,2.3964243,4.9968243,-7.796897,3.2265348,-0.019553866,-0.016490955,0.0115106655,-0.5361878,2.0573516,0.28027356"
402,"403,-2.2831087,2.614755,2.3964243,4.9968243,-7.796897,3.2265348,-0.019553866,-0.016490955,0.0115106655,-0.5361878,2.0573516,0.28027356"
403,"404,-2.2831087,2.614755,2.3964243,4.9968243,-7.796897,3.2265348,-0.019553866,-0.016490955,0.0115106655,-0.5361878,2.0573516,0.28027356"
404,"405,-2.2831087,2.614755,2.3964243,4.9501452,-7.8432045,3.1859996,-0.017204251,-0.014459662,0.0024166862,0.41575757,-0.45578727,0.40353933"
405,"406,-2.2831087,2.614755,2.3964243,4.9501452,-7.8432045,3.1859996,-0.017204251,-0.014459662,0.0024166862,0.41575757,-0.45578727,0.40353933"
406,"407,-2.2831087,2.614755,2.3964243,4.9501452,-7.8432045,3.1859996,-0.017204251,-0.014459662,0.0024166862,0.41575757,-0.45578727,0.40353933"
407,"408,-2.2831087,2.614755,2.3964243,4.9501452,-7.8432045,3.1859996,-0.017204251,-0.014459662,0.0024166862,0.41575757,-0.45578727,0.40353933"
408,"409,-2.2831087,2.614755,2.3964243,4.9501452,-7.8432045,3.1859996,-0.017204251,-0.014459662,0.0024166862,0.41575757,-0.45578727,0.40353933"
409,"410,-2.2831087,2.614755,2.3964243,4.9501452,-7.8432045,3.1859996,-0.017204251,-0.014459662,0.0024166862,0.41575757,-0.45578727,0.40353933"
410,"411,-2.2951896,2.627517,2.384552,4.9170814,-7.8981676,3.100265,-0.015077141,-0.0060001956,0.017285163,-0.37835783,0.10677487,-0.35689598"
411,"412,-2.2951896,2.627517,2.384552,4.9170814,-7.8981676,3.100265,-0.015077141,-0.0060001956,0.017285163,-0.37835783,0.10677487,-0.35689598"
412,"413,-2.2951896,2.627517,2.384552,4.9170814,-7.8981676,3.100265,-0.015077141,-0.0060001956,0.017285163,-0.37835783,0.10677487,-0.35689598"
413,"414,-2.2951896,2.627517,2.384552,4.9170814,-7.8981676,3.100265,-0.015077141,-0.0060001956,0.017285163,-0.37835783,0.10677487,-0.35689598"
414,"415,-2.2951896,2.627517,2.384552,4.9170814,-7.8981676,3.100265,-0.015077141,-0.0060001956,0.017285163,-0.37835783,0.10677487,-0.35689598"
415,"416,-2.2951896,2.627517,2.384552,4.9170814,-7.8981676,3.100265,-0.015077141,-0.0060001956,0.017285163,-0.37835783,0.10677487,-0.35689598"
416,"417,-2.3009577,2.6322105,2.391018,4.9096994,-7.9584475,2.9543786,-0.02411363,0.0025646684,0.06085152,0.081181355,-0.086317584,0.23935173"
417,"418,-2.3009577,2.6322105,2.391018,4.9096994,-7.9584475,2.9543786,-0.02411363,0.0025646684,0.06085152,0.081181355,-0.086317584,0.23935173"
418,"419,-2.3009577,2.6322105,2.391018,4.9096994,-7.9584475,2.9543786,-0.02411363,0.0025646684,0.06085152,0.081181355,-0.086317584,0.23935173"
419,"420,-2.3009577,2.6322105,2.391018,4.9096994,-7.9584475,2.9543786,-0.02411363,0.0025646684,0.06085152,0.081181355,-0.086317584,0.23935173"
420,"421,-2.3009577,2.6322105,2.391018,4.9096994,-7.9584475,2.9543786,-0.02411363,0.0025646684,0.06085152,0.081181355,-0.086317584,0.23935173"
421,"422,-2.3009577,2.6322105,2.391018,4.9096994,-7.9584475,2.9543786,-0.02411363,0.0025646684,0.06085152,0.081181355,-0.086317584,0.23935173"
422,"423,-2.305477,2.6352766,2.4033039,4.9158387,-8.010234,2.800188,-0.058622207,-0.011081624,0.07891492,-0.37311524,-0.112097315,0.12747557"
423,"424,-2.305477,2.6352766,2.4033039,4.9158387,-8.010234,2.800188,-0.058622207,-0.011081624,0.07891492,-0.37311524,-0.112097315,0.12747557"
424,"425,-2.305477,2.6352766,2.4033039,4.9158387,-8.010234,2.800188,-0.058622207,-0.011081624,0.07891492,-0.37311524,-0.112097315,0.12747557"
425,"426,-2.305477,2.6352766,2.4033039,4.9158387,-8.010234,2.800188,-0.058622207,-0.011081624,0.07891492,-0.37311524,-0.112097315,0.12747557"
426,"427,-2.305477,2.6352766,2.4033039,4.9158387,-8.010234,2.800188,-0.058622207,-0.011081624,0.07891492,-0.37311524,-0.112097315,0.12747557"
427,"428,-2.305477,2.6352766,2.4033039,4.9158387,-8.010234,2.800188,-0.058622207,-0.011081624,0.07891492,-0.37311524,-0.112097315,0.12747557"
428,"429,-2.3116443,2.6393764,2.4230711,4.9089446,-8.074325,2.6225839,-0.101170786,-0.04197901,0.036979556,0.3729967,0.39047256,0.16745675"
429,"430,-2.3116443,2.6393764,2.4230711,4.9089446,-8.074325,2.6225839,-0.101170786,-0.04197901,0.036979556,0.3729967,0.39047256,0.16745675"
430,"431,-2.3116443,2.6393764,2.4230711,4.9089446,-8.074325,2.6225839,-0.101170786,-0.04197901,0.036979556,0.3729967,0.39047256,0.16745675"
431,"432,-2.3116443,2.6393764,2.4230711,4.9089446,-8.074325,2.6225839,-0.101170786,-0.04197901,0.036979556,0.3729967,0.39047256,0.16745675"
432,"433,-2.3116443,2.6393764,2.4230711,4.9089446,-8.074325,2.6225839,-0.101170786,-0.04197901,0.036979556,0.3729967,0.39047256,0.16745675"
433,"434,-2.3116443,2.6393764,2.4230711,4.9089446,-8.074325,2.6225839,-0.101170786,-0.04197901,0.036979556,0.3729967,0.39047256,0.16745675"
434,"435,-2.3157206,2.6413152,2.4505947,4.925836,-8.124067,2.4302404,-0.12352354,-0.0627508,-0.03377718,0.58509576,-0.56886125,-0.038121622"
435,"436,-2.3157206,2.6413152,2.4505947,4.925836,-8.124067,2.4302404,-0.12352354,-0.0627508,-0.03377718,0.58509576,-0.56886125,-0.038121622"
436,"437,-2.3157206,2.6413152,2.4505947,4.925836,-8.124067,2.4302404,-0.12352354,-0.0627508,-0.03377718,0.58509576,-0.56886125,-0.038121622"
437,"438,-2.3157206,2.6413152,2.4505947,4.925836,-8.124067,2.4302404,-0.12352354,-0.0627508,-0.03377718,0.58509576,-0.56886125,-0.038121622"
438,"439,-2.3157206,2.6413152,2.4505947,4.925836,-8.124067,2.4302404,-0.12352354,-0.0627508,-0.03377718,0.58509576,-0.56886125,-0.038121622"
439,"440,-2.3157206,2.6413152,2.4505947,4.925836,-8.124067,2.4302404,-0.12352354,-0.0627508,-0.03377718,0.58509576,-0.56886125,-0.038121622"
440,"441,-2.3210633,2.644201,2.486517,4.9274125,-8.1799555,2.23144,-0.113647066,-0.056130998,-0.07127095,-0.4402714,1.1392103,-0.47865295"
441,"442,-2.3210633,2.644201,2.486517,4.9274125,-8.1799555,2.23144,-0.113647066,-0.056130998,-0.07127095,-0.4402714,1.1392103,-0.47865295"
442,"443,-2.3210633,2.644201,2.486517,4.9274125,-8.1799555,2.23144,-0.113647066,-0.056130998,-0.07127095,-0.4402714,1.1392103,-0.47865295"
443,"444,-2.3210633,2.644201,2.486517,4.9274125,-8.1799555,2.23144,-0.113647066,-0.056130998,-0.07127095,-0.4402714,1.1392103,-0.47865295"
444,"445,-2.3210633,2.644201,2.486517,4.9274125,-8.1799555,2.23144,-0.113647066,-0.056130998,-0.07127095,-0.4402714,1.1392103,-0.47865295"
445,"446,-2.3210633,2.644201,2.486517,4.9274125,-8.1799555,2.23144,-0.113647066,-0.056130998,-0.07127095,-0.4402714,1.1392103,-0.47865295"
446,"447,-2.3239145,2.6452923,2.5151677,4.926324,-8.208698,2.1257896,-0.08511313,-0.032031205,-0.06007967,-0.13140611,-0.02445494,0.23396252"
447,"448,-2.3239145,2.6452923,2.5151677,4.926324,-8.208698,2.1257896,-0.08511313,-0.032031205,-0.06007967,-0.13140611,-0.02445494,0.23396252"
448,"449,-2.3239145,2.6452923,2.5151677,4.926324,-8.208698,2.1257896,-0.08511313,-0.032031205,-0.06007967,-0.13140611,-0.02445494,0.23396252"
449,"450,-2.3239145,2.6452923,2.5151677,4.926324,-8.208698,2.1257896,-0.08511313,-0.032031205,-0.06007967,-0.13140611,-0.02445494,0.23396252"
450,"451,-2.3239145,2.6452923,2.5151677,4.926324,-8.208698,2.1257896,-0.08511313,-0.032031205,-0.06007967,-0.13140611,-0.02445494,0.23396252"
451,"452,-2.3239145,2.6452923,2.5151677,4.926324,-8.208698,2.1257896,-0.08511313,-0.032031205,-0.06007967,-0.13140611,-0.02445494,0.23396252"
452,"453,-2.3261766,2.6457973,2.5451415,4.925047,-8.23095,2.041014,-0.05939725,-0.007983581,-0.027830217,-0.07198637,-0.35717654,0.9203953"
453,"454,-2.3261766,2.6457973,2.5451415,4.925047,-8.23095,2.041014,-0.05939725,-0.007983581,-0.027830217,-0.07198637,-0.35717654,0.9203953"
454,"455,-2.3261766,2.6457973,2.5451415,4.925047,-8.23095,2.041014,-0.05939725,-0.007983581,-0.027830217,-0.07198637,-0.35717654,0.9203953"
455,"456,-2.3261766,2.6457973,2.5451415,4.925047,-8.23095,2.041014,-0.05939725,-0.007983581,-0.027830217,-0.07198637,-0.35717654,0.9203953"
456,"457,-2.3261766,2.6457973,2.5451415,4.925047,-8.23095,2.041014,-0.05939725,-0.007983581,-0.027830217,-0.07198637,-0.35717654,0.9203953"
457,"458,-2.3261766,2.6457973,2.5451415,4.925047,-8.23095,2.041014,-0.05939725,-0.007983581,-0.027830217,-0.07198637,-0.35717654,0.9203953"
458,"459,-2.3261766,2.6457973,2.5451415,4.9292927,-8.2429,1.9816843,-0.042991463,0.010040427,-0.002397523,0.069999546,0.6368701,-0.5441376"
459,"460,-2.3261766,2.6457973,2.5451415,4.9292927,-8.2429,1.9816843,-0.042991463,0.010040427,-0.002397523,0.069999546,0.6368701,-0.5441376"
460,"461,-2.3261766,2.6457973,2.5451415,4.9292927,-8.2429,1.9816843,-0.042991463,0.010040427,-0.002397523,0.069999546,0.6368701,-0.5441376"
461,"462,-2.3261766,2.6457973,2.5451415,4.9292927,-8.2429,1.9816843,-0.042991463,0.010040427,-0.002397523,0.069999546,0.6368701,-0.5441376"
462,"463,-2.3261766,2.6457973,2.5451415,4.9292927,-8.2429,1.9816843,-0.042991463,0.010040427,-0.002397523,0.069999546,0.6368701,-0.5441376"
463,"464,-2.3261766,2.6457973,2.5451415,4.9292927,-8.2429,1.9816843,-0.042991463,0.010040427,-0.002397523,0.069999546,0.6368701,-0.5441376"
464,"465,-2.328948,2.6452193,2.6037998,4.9275513,-8.258431,1.9204022,-0.028432792,0.024016751,-0.00102097,0.33340368,-0.26772428,-0.009065945"
465,"466,-2.328948,2.6452193,2.6037998,4.9275513,-8.258431,1.9204022,-0.028432792,0.024016751,-0.00102097,0.33340368,-0.26772428,-0.009065945"
466,"467,-2.328948,2.6452193,2.6037998,4.9275513,-8.258431,1.9204022,-0.028432792,0.024016751,-0.00102097,0.33340368,-0.26772428,-0.009065945"
467,"468,-2.328948,2.6452193,2.6037998,4.9275513,-8.258431,1.9204022,-0.028432792,0.024016751,-0.00102097,0.33340368,-0.26772428,-0.009065945"
468,"469,-2.328948,2.6452193,2.6037998,4.9275513,-8.258431,1.9204022,-0.028432792,0.024016751,-0.00102097,0.33340368,-0.26772428,-0.009065945"
469,"470,-2.328948,2.6452193,2.6037998,4.9275513,-8.258431,1.9204022,-0.028432792,0.024016751,-0.00102097,0.33340368,-0.26772428,-0.009065945"
470,"471,-2.3289325,2.6433353,2.648537,4.955612,-8.265586,1.8144957,-0.011924803,0.03439892,-0.022217544,-0.40127638,0.83321995,-0.14823572"
471,"472,-2.3289325,2.6433353,2.648537,4.955612,-8.265586,1.8144957,-0.011924803,0.03439892,-0.022217544,-0.40127638,0.83321995,-0.14823572"
472,"473,-2.3289325,2.6433353,2.648537,4.955612,-8.265586,1.8144957,-0.011924803,0.03439892,-0.022217544,-0.40127638,0.83321995,-0.14823572"
473,"474,-2.3289325,2.6433353,2.648537,4.955612,-8.265586,1.8144957,-0.011924803,0.03439892,-0.022217544,-0.40127638,0.83321995,-0.14823572"
474,"475,-2.3289325,2.6433353,2.648537,4.955612,-8.265586,1.8144957,-0.011924803,0.03439892,-0.022217544,-0.40127638,0.83321995,-0.14823572"
475,"476,-2.3289325,2.6433353,2.648537,4.955612,-8.265586,1.8144957,-0.011924803,0.03439892,-0.022217544,-0.40127638,0.83321995,-0.14823572"
476,"477,-2.3289325,2.6433353,2.648537,4.9934354,-8.2572365,1.7475829,0.0024220094,0.040108476,-0.049054474,0.09899129,-0.031355225,0.11389429"
477,"478,-2.3289325,2.6433353,2.648537,4.9934354,-8.2572365,1.7475829,0.0024220094,0.040108476,-0.049054474,0.09899129,-0.031355225,0.11389429"
478,"479,-2.3289325,2.6433353,2.648537,4.9934354,-8.2572365,1.7475829,0.0024220094,0.040108476,-0.049054474,0.09899129,-0.031355225,0.11389429"
479,"480,-2.3289325,2.6433353,2.648537,4.9934354,-8.2572365,1.7475829,0.0024220094,0.040108476,-0.049054474,0.09899129,-0.031355225,0.11389429"
480,"481,-2.3289325,2.6433353,2.648537,4.9934354,-8.2572365,1.7475829,0.0024220094,0.040108476,-0.049054474,0.09899129,-0.031355225,0.11389429"
481,"482,-2.3289325,2.6433353,2.648537,4.9934354,-8.2572365,1.7475829,0.0024220094,0.040108476,-0.049054474,0.09899129,-0.031355225,0.11389429"
482,"483,-2.3251944,2.6364691,2.723599,5.027498,-8.247187,1.6966351,0.012688135,0.04376544,-0.06224085,-0.051780578,-0.27145916,-0.9075528"
483,"484,-2.3251944,2.6364691,2.723599,5.027498,-8.247187,1.6966351,0.012688135,0.04376544,-0.06224085,-0.051780578,-0.27145916,-0.9075528"
484,"485,-2.3251944,2.6364691,2.723599,5.027498,-8.247187,1.6966351,0.012688135,0.04376544,-0.06224085,-0.051780578,-0.27145916,-0.9075528"
485,"486,-2.3251944,2.6364691,2.723599,5.027498,-8.247187,1.6966351,0.012688135,0.04376544,-0.06224085,-0.051780578,-0.27145916,-0.9075528"
486,"487,-2.3251944,2.6364691,2.723599,5.027498,-8.247187,1.6966351,0.012688135,0.04376544,-0.06224085,-0.051780578,-0.27145916,-0.9075528"
487,"488,-2.3251944,2.6364691,2.723599,5.027498,-8.247187,1.6966351,0.012688135,0.04376544,-0.06224085,-0.051780578,-0.27145916,-0.9075528"
488,"489,-2.3251944,2.6364691,2.723599,5.0448756,-8.244896,1.6556922,0.026542028,0.052092895,-0.053168163,0.052982975,-0.009596433,-0.3103698"
489,"490,-2.3251944,2.6364691,2.723599,5.0448756,-8.244896,1.6556922,0.026542028,0.052092895,-0.053168163,0.052982975,-0.009596433,-0.3103698"
490,"491,-2.3251944,2.6364691,2.723599,5.0448756,-8.244896,1.6556922,0.026542028,0.052092895,-0.053168163,0.052982975,-0.009596433,-0.3103698"
491,"492,-2.3251944,2.6364691,2.723599,5.0448756,-8.244896,1.6556922,0.026542028,0.052092895,-0.053168163,0.052982975,-0.009596433,-0.3103698"
492,"493,-2.3251944,2.6364691,2.723599,5.0448756,-8.244896,1.6556922,0.026542028,0.052092895,-0.053168163,0.052982975,-0.009596433,-0.3103698"
493,"494,-2.3251944,2.6364691,2.723599,5.0448756,-8.244896,1.6556922,0.026542028,0.052092895,-0.053168163,0.052982975,-0.009596433,-0.3103698"
494,"495,-2.324213,2.6319826,2.7860382,5.059898,-8.241514,1.6264236,0.051653206,0.06738616,-0.034937616,0.009119692,-0.26063052,-0.21377805"
495,"496,-2.324213,2.6319826,2.7860382,5.059898,-8.241514,1.6264236,0.051653206,0.06738616,-0.034937616,0.009119692,-0.26063052,-0.21377805"
496,"497,-2.324213,2.6319826,2.7860382,5.059898,-8.241514,1.6264236,0.051653206,0.06738616,-0.034937616,0.009119692,-0.26063052,-0.21377805"
497,"498,-2.324213,2.6319826,2.7860382,5.059898,-8.241514,1.6264236,0.051653206,0.06738616,-0.034937616,0.009119692,-0.26063052,-0.21377805"
498,"499,-2.324213,2.6319826,2.7860382,5.059898,-8.241514,1.6264236,0.051653206,0.06738616,-0.034937616,0.009119692,-0.26063052,-0.21377805"
499,"500,-2.324213,2.6319826,2.7860382,5.059898,-8.241514,1.6264236,0.051653206,0.06738616,-0.034937616,0.009119692,-0.26063052,-0.21377805"
500,"501,-2.324213,2.6319826,2.7860382,5.0584254,-8.242995,1.623495,0.08573274,0.084265694,-0.0273192,-0.32538867,0.33227724,0.4609853"
501,"502,-2.324213,2.6319826,2.7860382,5.0584254,-8.242995,1.623495,0.08573274,0.084265694,-0.0273192,-0.32538867,0.33227724,0.4609853"
502,"503,-2.324213,2.6319826,2.7860382,5.0584254,-8.242995,1.623495,0.08573274,0.084265694,-0.0273192,-0.32538867,0.33227724,0.4609853"
503,"504,-2.324213,2.6319826,2.7860382,5.0584254,-8.242995,1.623495,0.08573274,0.084265694,-0.0273192,-0.32538867,0.33227724,0.4609853"
504,"505,-2.324213,2.6319826,2.7860382,5.0584254,-8.242995,1.623495,0.08573274,0.084265694,-0.0273192,-0.32538867,0.33227724,0.4609853"
505,"506,-2.324213,2.6319826,2.7860382,5.0584254,-8.242995,1.623495,0.08573274,0.084265694,-0.0273192,-0.32538867,0.33227724,0.4609853"
506,"507,-2.324222,2.6283438,2.8062866,5.0498567,-8.235434,1.6873014,0.11813976,0.09644494,-0.03085906,-0.0050829574,-0.14969687,-0.06845982"
507,"508,-2.324222,2.6283438,2.8062866,5.0498567,-8.235434,1.6873014,0.11813976,0.09644494,-0.03085906,-0.0050829574,-0.14969687,-0.06845982"
508,"509,-2.324222,2.6283438,2.8062866,5.0498567,-8.235434,1.6873014,0.11813976,0.09644494,-0.03085906,-0.0050829574,-0.14969687,-0.06845982"
509,"510,-2.324222,2.6283438,2.8062866,5.0498567,-8.235434,1.6873014,0.11813976,0.09644494,-0.03085906,-0.0050829574,-0.14969687,-0.06845982"
510,"511,-2.324222,2.6283438,2.8062866,5.0498567,-8.235434,1.6873014,0.11813976,0.09644494,-0.03085906,-0.0050829574,-0.14969687,-0.06845982"
511,"512,-2.324222,2.6283438,2.8062866,5.0498567,-8.235434,1.6873014,0.11813976,0.09644494,-0.03085906,-0.0050829574,-0.14969687,-0.06845982"
512,"513,-2.3234627,2.6258492,2.8033915,5.0418057,-8.225366,1.7589604,0.13590506,0.102183245,-0.027789762,-0.1108482,-0.030546984,-0.45652762"
513,"514,-2.3234627,2.6258492,2.8033915,5.0418057,-8.225366,1.7589604,0.13590506,0.102183245,-0.027789762,-0.1108482,-0.030546984,-0.45652762"
514,"515,-2.3234627,2.6258492,2.8033915,5.0418057,-8.225366,1.7589604,0.13590506,0.102183245,-0.027789762,-0.1108482,-0.030546984,-0.45652762"
515,"516,-2.3234627,2.6258492,2.8033915,5.0418057,-8.225366,1.7589604,0.13590506,0.102183245,-0.027789762,-0.1108482,-0.030546984,-0.45652762"
516,"517,-2.3234627,2.6258492,2.8033915,5.0418057,-8.225366,1.7589604,0.13590506,0.102183245,-0.027789762,-0.1108482,-0.030546984,-0.45652762"
517,"518,-2.3234627,2.6258492,2.8033915,5.0418057,-8.225366,1.7589604,0.13590506,0.102183245,-0.027789762,-0.1108482,-0.030546984,-0.45652762"
518,"519,-2.3234627,2.6258492,2.8033915,5.049276,-8.21642,1.7792268,0.13026685,0.10078966,-0.009347359,0.21646163,-0.0955305,-0.16647437"
519,"520,-2.3234627,2.6258492,2.8033915,5.049276,-8.21642,1.7792268,0.13026685,0.10078966,-0.009347359,0.21646163,-0.0955305,-0.16647437"
520,"521,-2.3234627,2.6258492,2.8033915,5.049276,-8.21642,1.7792268,0.13026685,0.10078966,-0.009347359,0.21646163,-0.0955305,-0.16647437"
521,"522,-2.3234627,2.6258492,2.8033915,5.049276,-8.21642,1.7792268,0.13026685,0.10078966,-0.009347359,0.21646163,-0.0955305,-0.16647437"
522,"523,-2.3234627,2.6258492,2.8033915,5.049276,-8.21642,1.7792268,0.13026685,0.10078966,-0.009347359,0.21646163,-0.0955305,-0.16647437"
523,"524,-2.3234627,2.6258492,2.8033915,5.049276,-8.21642,1.7792268,0.13026685,0.10078966,-0.009347359,0.21646163,-0.0955305,-0.16647437"
524,"525,-2.3193374,2.6180296,2.821999,5.0750203,-8.190486,1.8249639,0.1078747,0.09083547,0.006067266,0.19077532,-0.48484257,-0.15644282"
525,"526,-2.3193374,2.6180296,2.821999,5.0750203,-8.190486,1.8249639,0.1078747,0.09083547,0.006067266,0.19077532,-0.48484257,-0.15644282"
526,"527,-2.3193374,2.6180296,2.821999,5.0750203,-8.190486,1.8249639,0.1078747,0.09083547,0.006067266,0.19077532,-0.48484257,-0.15644282"
527,"528,-2.3193374,2.6180296,2.821999,5.0750203,-8.190486,1.8249639,0.1078747,0.09083547,0.006067266,0.19077532,-0.48484257,-0.15644282"
528,"529,-2.3193374,2.6180296,2.821999,5.0750203,-8.190486,1.8249639,0.1078747,0.09083547,0.006067266,0.19077532,-0.48484257,-0.15644282"
529,"530,-2.3193374,2.6180296,2.821999,5.0750203,-8.190486,1.8249639,0.1078747,0.09083547,0.006067266,0.19077532,-0.48484257,-0.15644282"
530,"531,-2.3193374,2.6180296,2.821999,5.078057,-8.181291,1.857476,0.08724876,0.0758584,0.0029138636,-0.19940649,0.34637702,0.49850377"
531,"532,-2.3193374,2.6180296,2.821999,5.078057,-8.181291,1.857476,0.08724876,0.0758584,0.0029138636,-0.19940649,0.34637702,0.49850377"
532,"533,-2.3193374,2.6180296,2.821999,5.078057,-8.181291,1.857476,0.08724876,0.0758584,0.0029138636,-0.19940649,0.34637702,0.49850377"
533,"534,-2.3193374,2.6180296,2.821999,5.078057,-8.181291,1.857476,0.08724876,0.0758584,0.0029138636,-0.19940649,0.34637702,0.49850377"
534,"535,-2.3193374,2.6180296,2.821999,5.078057,-8.181291,1.857476,0.08724876,0.0758584,0.0029138636,-0.19940649,0.34637702,0.49850377"
535,"536,-2.3193374,2.6180296,2.821999,5.078057,-8.181291,1.857476,0.08724876,0.0758584,0.0029138636,-0.19940649,0.34637702,0.49850377"
536,"537,-2.3160186,2.6104438,2.8315945,5.0913835,-8.1585455,1.9199837,0.079141684,0.06258685,-0.013324778,-0.07846003,0.07974467,-0.018382763"
537,"538,-2.3160186,2.6104438,2.8315945,5.0913835,-8.1585455,1.9199837,0.079141684,0.06258685,-0.013324778,-0.07846003,0.07974467,-0.018382763"
538,"539,-2.3160186,2.6104438,2.8315945,5.0913835,-8.1585455,1.9199837,0.079141684,0.06258685,-0.013324778,-0.07846003,0.07974467,-0.018382763"
539,"540,-2.3160186,2.6104438,2.8315945,5.0913835,-8.1585455,1.9199837,0.079141684,0.06258685,-0.013324778,-0.07846003,0.07974467,-0.018382763"
540,"541,-2.3160186,2.6104438,2.8315945,5.0913835,-8.1585455,1.9199837,0.079141684,0.06258685,-0.013324778,-0.07846003,0.07974467,-0.018382763"
541,"542,-2.3160186,2.6104438,2.8315945,5.0913835,-8.1585455,1.9199837,0.079141684,0.06258685,-0.013324778,-0.07846003,0.07974467,-0.018382763"
542,"543,-2.3143408,2.6065586,2.8253293,5.087056,-8.140362,2.0066779,0.074752256,0.054095443,-0.023721851,-0.010565175,-0.16538754,0.08026756"
543,"544,-2.3143408,2.6065586,2.8253293,5.087056,-8.140362,2.0066779,0.074752256,0.054095443,-0.023721851,-0.010565175,-0.16538754,0.08026756"
544,"545,-2.3143408,2.6065586,2.8253293,5.087056,-8.140362,2.0066779,0.074752256,0.054095443,-0.023721851,-0.010565175,-0.16538754,0.08026756"
545,"546,-2.3143408,2.6065586,2.8253293,5.087056,-8.140362,2.0066779,0.074752256,0.054095443,-0.023721851,-0.010565175,-0.16538754,0.08026756"
546,"547,-2.3143408,2.6065586,2.8253293,5.087056,-8.140362,2.0066779,0.074752256,0.054095443,-0.023721851,-0.010565175,-0.16538754,0.08026756"
547,"548,-2.3143408,2.6065586,2.8253293,5.087056,-8.140362,2.0066779,0.074752256,0.054095443,-0.023721851,-0.010565175,-0.16538754,0.08026756"
548,"549,-2.3143408,2.6065586,2.8253293,5.1247063,-8.106086,2.049183,0.058637112,0.047137093,-0.018214574,0.044036664,0.37796074,-0.5997357"
549,"550,-2.3143408,2.6065586,2.8253293,5.1247063,-8.106086,2.049183,0.058637112,0.047137093,-0.018214574,0.044036664,0.37796074,-0.5997357"
550,"551,-2.3143408,2.6065586,2.8253293,5.1247063,-8.106086,2.049183,0.058637112,0.047137093,-0.018214574,0.044036664,0.37796074,-0.5997357"
551,"552,-2.3143408,2.6065586,2.8253293,5.1247063,-8.106086,2.049183,0.058637112,0.047137093,-0.018214574,0.044036664,0.37796074,-0.5997357"
552,"553,-2.3143408,2.6065586,2.8253293,5.1247063,-8.106086,2.049183,0.058637112,0.047137093,-0.018214574,0.044036664,0.37796074,-0.5997357"
553,"554,-2.3143408,2.6065586,2.8253293,5.1247063,-8.106086,2.049183,0.058637112,0.047137093,-0.018214574,0.044036664,0.37796074,-0.5997357"
554,"555,-2.3042748,2.5920308,2.8301294,5.1680503,-8.05639,2.1345284,0.032544352,0.03885648,-0.005004776,0.38720623,-0.33352503,0.11233668"
555,"556,-2.3042748,2.5920308,2.8301294,5.1680503,-8.05639,2.1345284,0.032544352,0.03885648,-0.005004776,0.38720623,-0.33352503,0.11233668"
556,"557,-2.3042748,2.5920308,2.8301294,5.1680503,-8.05639,2.1345284,0.032544352,0.03885648,-0.005004776,0.38720623,-0.33352503,0.11233668"
557,"558,-2.3042748,2.5920308,2.8301294,5.1680503,-8.05639,2.1345284,0.032544352,0.03885648,-0.005004776,0.38720623,-0.33352503,0.11233668"
558,"559,-2.3042748,2.5920308,2.8301294,5.1680503,-8.05639,2.1345284,0.032544352,0.03885648,-0.005004776,0.38720623,-0.33352503,0.11233668"
559,"560,-2.3042748,2.5920308,2.8301294,5.1680503,-8.05639,2.1345284,0.032544352,0.03885648,-0.005004776,0.38720623,-0.33352503,0.11233668"
560,"561,-2.3042748,2.5920308,2.8301294,5.20566,-8.02868,2.1475108,0.008358328,0.02931962,0.004862117,-0.10488395,0.7490082,-0.047417615"
561,"562,-2.3042748,2.5920308,2.8301294,5.20566,-8.02868,2.1475108,0.008358328,0.02931962,0.004862117,-0.10488395,0.7490082,-0.047417615"
562,"563,-2.3042748,2.5920308,2.8301294,5.20566,-8.02868,2.1475108,0.008358328,0.02931962,0.004862117,-0.10488395,0.7490082,-0.047417615"
563,"564,-2.3042748,2.5920308,2.8301294,5.20566,-8.02868,2.1475108,0.008358328,0.02931962,0.004862117,-0.10488395,0.7490082,-0.047417615"
564,"565,-2.3042748,2.5920308,2.8301294,5.20566,-8.02868,2.1475108,0.008358328,0.02931962,0.004862117,-0.10488395,0.7490082,-0.047417615"
565,"566,-2.3042748,2.5920308,2.8301294,5.20566,-8.02868,2.1475108,0.008358328,0.02931962,0.004862117,-0.10488395,0.7490082,-0.047417615"
566,"567,-2.2974207,2.579509,2.8514073,5.2379837,-7.9947762,2.194874,-0.008609578,0.017963324,0.0030224547,-0.15040037,0.0061376863,0.06430745"
567,"568,-2.2974207,2.579509,2.8514073,5.2379837,-7.9947762,2.194874,-0.008609578,0.017963324,0.0030224547,-0.15040037,0.0061376863,0.06430745"
568,"569,-2.2974207,2.579509,2.8514073,5.2379837,-7.9947762,2.194874,-0.008609578,0.017963324,0.0030224547,-0.15040037,0.0061376863,0.06430745"
569,"570,-2.2974207,2.579509,2.8514073,5.2379837,-7.9947762,2.194874,-0.008609578,0.017963324,0.0030224547,-0.15040037,0.0061376863,0.06430745"
570,"571,-2.2974207,2.579509,2.8514073,5.2379837,-7.9947762,2.194874,-0.008609578,0.017963324,0.0030224547,-0.15040037,0.0061376863,0.06430745"
571,"572,-2.2974207,2.579509,2.8514073,5.2379837,-7.9947762,2.194874,-0.008609578,0.017963324,0.0030224547,-0.15040037,0.0061376863,0.06430745"
572,"573,-2.2974207,2.579509,2.8514073,5.2431936,-7.9908485,2.1967323,-0.025850026,0.003494081,-0.00938675,0.13860616,-0.07253645,0.42033207"
573,"574,-2.2974207,2.579509,2.8514073,5.2431936,-7.9908485,2.1967323,-0.025850026,0.003494081,-0.00938675,0.13860616,-0.07253645,0.42033207"
574,"575,-2.2974207,2.579509,2.8514073,5.2431936,-7.9908485,2.1967323,-0.025850026,0.003494081,-0.00938675,0.13860616,-0.07253645,0.42033207"
575,"576,-2.2974207,2.579509,2.8514073,5.2431936,-7.9908485,2.1967323,-0.025850026,0.003494081,-0.00938675,0.13860616,-0.07253645,0.42033207"
576,"577,-2.2974207,2.579509,2.8514073,5.2431936,-7.9908485,2.1967323,-0.025850026,0.003494081,-0.00938675,0.13860616,-0.07253645,0.42033207"
577,"578,-2.2974207,2.579509,2.8514073,5.2431936,-7.9908485,2.1967323,-0.025850026,0.003494081,-0.00938675,0.13860616,-0.07253645,0.42033207"
578,"579,-2.2974207,2.579509,2.8514073,5.320524,-7.9484596,2.1643467,-0.044803448,-0.01035236,-0.0237836,-0.07267426,0.40281472,-0.90038925"
579,"580,-2.2974207,2.579509,2.8514073,5.320524,-7.9484596,2.1643467,-0.044803448,-0.01035236,-0.0237836,-0.07267426,0.40281472,-0.90038925"
580,"581,-2.2974207,2.579509,2.8514073,5.320524,-7.9484596,2.1643467,-0.044803448,-0.01035236,-0.0237836,-0.07267426,0.40281472,-0.90038925"
581,"582,-2.2974207,2.579509,2.8514073,5.320524,-7.9484596,2.1643467,-0.044803448,-0.01035236,-0.0237836,-0.07267426,0.40281472,-0.90038925"
582,"583,-2.2974207,2.579509,2.8514073,5.320524,-7.9484596,2.1643467,-0.044803448,-0.01035236,-0.0237836,-0.07267426,0.40281472,-0.90038925"
583,"584,-2.2974207,2.579509,2.8514073,5.320524,-7.9484596,2.1643467,-0.044803448,-0.01035236,-0.0237836,-0.07267426,0.40281472,-0.90038925"
584,"585,-2.2885244,2.5606406,2.9103997,5.3731766,-7.9091763,2.1781416,-0.05057581,-0.014209476,-0.030444924,0.42520013,-0.5079068,0.34082684"
585,"586,-2.2885244,2.5606406,2.9103997,5.3731766,-7.9091763,2.1781416,-0.05057581,-0.014209476,-0.030444924,0.42520013,-0.5079068,0.34082684"
586,"587,-2.2885244,2.5606406,2.9103997,5.3731766,-7.9091763,2.1781416,-0.05057581,-0.014209476,-0.030444924,0.42520013,-0.5079068,0.34082684"
587,"588,-2.2885244,2.5606406,2.9103997,5.3731766,-7.9091763,2.1781416,-0.05057581,-0.014209476,-0.030444924,0.42520013,-0.5079068,0.34082684"
588,"589,-2.2885244,2.5606406,2.9103997,5.3731766,-7.9091763,2.1781416,-0.05057581,-0.014209476,-0.030444924,0.42520013,-0.5079068,0.34082684"
589,"590,-2.2885244,2.5606406,2.9103997,5.3731766,-7.9091763,2.1781416,-0.05057581,-0.014209476,-0.030444924,0.42520013,-0.5079068,0.34082684"
590,"591,-2.2832289,2.5519598,2.9085598,5.41622,-7.857531,2.257025,-0.029775277,-0.0018471148,-0.023293875,-0.18299541,0.6810345,-0.5165584"
591,"592,-2.2832289,2.5519598,2.9085598,5.41622,-7.857531,2.257025,-0.029775277,-0.0018471148,-0.023293875,-0.18299541,0.6810345,-0.5165584"
592,"593,-2.2832289,2.5519598,2.9085598,5.41622,-7.857531,2.257025,-0.029775277,-0.0018471148,-0.023293875,-0.18299541,0.6810345,-0.5165584"
593,"594,-2.2832289,2.5519598,2.9085598,5.41622,-7.857531,2.257025,-0.029775277,-0.0018471148,-0.023293875,-0.18299541,0.6810345,-0.5165584"
594,"595,-2.2832289,2.5519598,2.9085598,5.41622,-7.857531,2.257025,-0.029775277,-0.0018471148,-0.023293875,-0.18299541,0.6810345,-0.5165584"
595,"596,-2.2832289,2.5519598,2.9085598,5.41622,-7.857531,2.257025,-0.029775277,-0.0018471148,-0.023293875,-0.18299541,0.6810345,-0.5165584"
596,"597,-2.2776597,2.5429215,2.8846436,5.426765,-7.800697,2.4227529,0.015413561,0.023830442,-0.0071638245,-0.33177155,0.43837798,-0.065243036"
597,"598,-2.2776597,2.5429215,2.8846436,5.426765,-7.800697,2.4227529,0.015413561,0.023830442,-0.0071638245,-0.33177155,0.43837798,-0.065243036"
598,"599,-2.2776597,2.5429215,2.8846436,5.426765,-7.800697,2.4227529,0.015413561,0.023830442,-0.0071638245,-0.33177155,0.43837798,-0.065243036"
599,"600,-2.2776597,2.5429215,2.8846436,5.426765,-7.800697,2.4227529,0.015413561,0.023830442,-0.0071638245,-0.33177155,0.43837798,-0.065243036"
600,"601,-2.2776597,2.5429215,2.8846436,5.426765,-7.800697,2.4227529,0.015413561,0.023830442,-0.0071638245,-0.33177155,0.43837798,-0.065243036"
601,"602,-2.2776597,2.5429215,2.8846436,5.426765,-7.800697,2.4227529,0.015413561,0.023830442,-0.0071638245,-0.33177155,0.43837798,-0.065243036"
602,"603,-2.2721841,2.533969,2.8553884,5.42025,-7.7426076,2.615971,0.06333634,0.0509282,0.007844117,-0.03370981,-0.4518782,-0.029439226"
603,"604,-2.2721841,2.533969,2.8553884,5.42025,-7.7426076,2.615971,0.06333634,0.0509282,0.007844117,-0.03370981,-0.4518782,-0.029439226"
604,"605,-2.2721841,2.533969,2.8553884,5.42025,-7.7426076,2.615971,0.06333634,0.0509282,0.007844117,-0.03370981,-0.4518782,-0.029439226"
605,"606,-2.2721841,2.533969,2.8553884,5.42025,-7.7426076,2.615971,0.06333634,0.0509282,0.007844117,-0.03370981,-0.4518782,-0.029439226"
606,"607,-2.2721841,2.533969,2.8553884,5.42025,-7.7426076,2.615971,0.06333634,0.0509282,0.007844117,-0.03370981,-0.4518782,-0.029439226"
607,"608,-2.2721841,2.533969,2.8553884,5.42025,-7.7426076,2.615971,0.06333634,0.0509282,0.007844117,-0.03370981,-0.4518782,-0.029439226"
608,"609,-2.2659817,2.5242994,2.8249166,5.4103312,-7.6757603,2.8251388,0.0911112,0.0672946,0.01510908,-0.3207558,1.1788917,-0.56359124"
609,"610,-2.2659817,2.5242994,2.8249166,5.4103312,-7.6757603,2.8251388,0.0911112,0.0672946,0.01510908,-0.3207558,1.1788917,-0.56359124"
610,"611,-2.2659817,2.5242994,2.8249166,5.4103312,-7.6757603,2.8251388,0.0911112,0.0672946,0.01510908,-0.3207558,1.1788917,-0.56359124"
611,"612,-2.2659817,2.5242994,2.8249166,5.4103312,-7.6757603,2.8251388,0.0911112,0.0672946,0.01510908,-0.3207558,1.1788917,-0.56359124"
612,"613,-2.2659817,2.5242994,2.8249166,5.4103312,-7.6757603,2.8251388,0.0911112,0.0672946,0.01510908,-0.3207558,1.1788917,-0.56359124"
613,"614,-2.2659817,2.5242994,2.8249166,5.4103312,-7.6757603,2.8251388,0.0911112,0.0672946,0.01510908,-0.3207558,1.1788917,-0.56359124"
614,"615,-2.2644987,2.5193603,2.795203,5.3373485,-7.650089,3.0264254,0.088922344,0.06782584,0.015018587,0.45181102,-0.2799051,0.24669595"
615,"616,-2.2644987,2.5193603,2.795203,5.3373485,-7.650089,3.0264254,0.088922344,0.06782584,0.015018587,0.45181102,-0.2799051,0.24669595"
616,"617,-2.2644987,2.5193603,2.795203,5.3373485,-7.650089,3.0264254,0.088922344,0.06782584,0.015018587,0.45181102,-0.2799051,0.24669595"
617,"618,-2.2644987,2.5193603,2.795203,5.3373485,-7.650089,3.0264254,0.088922344,0.06782584,0.015018587,0.45181102,-0.2799051,0.24669595"
618,"619,-2.2644987,2.5193603,2.795203,5.3373485,-7.650089,3.0264254,0.088922344,0.06782584,0.015018587,0.45181102,-0.2799051,0.24669595"
619,"620,-2.2644987,2.5193603,2.795203,5.3373485,-7.650089,3.0264254,0.088922344,0.06782584,0.015018587,0.45181102,-0.2799051,0.24669595"
620,"621,-2.2656784,2.5172296,2.7743092,5.247548,-7.6489353,3.1823602,0.05097398,0.056548327,0.024664039,-0.34174243,0.17757541,-0.54572564"
621,"622,-2.2656784,2.5172296,2.7743092,5.247548,-7.6489353,3.1823602,0.05097398,0.056548327,0.024664039,-0.34174243,0.17757541,-0.54572564"
622,"623,-2.2656784,2.5172296,2.7743092,5.247548,-7.6489353,3.1823602,0.05097398,0.056548327,0.024664039,-0.34174243,0.17757541,-0.54572564"
623,"624,-2.2656784,2.5172296,2.7743092,5.247548,-7.6489353,3.1823602,0.05097398,0.056548327,0.024664039,-0.34174243,0.17757541,-0.54572564"
624,"625,-2.2656784,2.5172296,2.7743092,5.247548,-7.6489353,3.1823602,0.05097398,0.056548327,0.024664039,-0.34174243,0.17757541,-0.54572564"
625,"626,-2.2656784,2.5172296,2.7743092,5.247548,-7.6489353,3.1823602,0.05097398,0.056548327,0.024664039,-0.34174243,0.17757541,-0.54572564"
626,"627,-2.270129,2.5183356,2.776342,5.1816163,-7.6826863,3.208981,-0.028296521,0.035464603,0.05574454,0.18602173,0.108239554,0.4000246"
627,"628,-2.270129,2.5183356,2.776342,5.1816163,-7.6826863,3.208981,-0.028296521,0.035464603,0.05574454,0.18602173,0.108239554,0.4000246"
628,"629,-2.270129,2.5183356,2.776342,5.1816163,-7.6826863,3.208981,-0.028296521,0.035464603,0.05574454,0.18602173,0.108239554,0.4000246"
629,"630,-2.270129,2.5183356,2.776342,5.1816163,-7.6826863,3.208981,-0.028296521,0.035464603,0.05574454,0.18602173,0.108239554,0.4000246"
630,"631,-2.270129,2.5183356,2.776342,5.1816163,-7.6826863,3.208981,-0.028296521,0.035464603,0.05574454,0.18602173,0.108239554,0.4000246"
631,"632,-2.270129,2.5183356,2.776342,5.1816163,-7.6826863,3.208981,-0.028296521,0.035464603,0.05574454,0.18602173,0.108239554,0.4000246"
632,"633,-2.270129,2.5183356,2.776342,5.13337,-7.7155213,3.2077453,-0.135558,-0.0019535767,0.086288475,0.18744913,-0.024457809,0.38671955"
633,"634,-2.270129,2.5183356,2.776342,5.13337,-7.7155213,3.2077453,-0.135558,-0.0019535767,0.086288475,0.18744913,-0.024457809,0.38671955"
634,"635,-2.270129,2.5183356,2.776342,5.13337,-7.7155213,3.2077453,-0.135558,-0.0019535767,0.086288475,0.18744913,-0.024457809,0.38671955"
635,"636,-2.270129,2.5183356,2.776342,5.13337,-7.7155213,3.2077453,-0.135558,-0.0019535767,0.086288475,0.18744913,-0.024457809,0.38671955"
636,"637,-2.270129,2.5183356,2.776342,5.13337,-7.7155213,3.2077453,-0.135558,-0.0019535767,0.086288475,0.18744913,-0.024457809,0.38671955"
637,"638,-2.270129,2.5183356,2.776342,5.13337,-7.7155213,3.2077453,-0.135558,-0.0019535767,0.086288475,0.18744913,-0.024457809,0.38671955"
638,"639,-2.280396,2.5231793,2.7975214,5.094748,-7.767649,3.1428573,-0.22593355,-0.05098463,0.08453505,0.06343606,0.11031722,0.10529682"
639,"640,-2.280396,2.5231793,2.7975214,5.094748,-7.767649,3.1428573,-0.22593355,-0.05098463,0.08453505,0.06343606,0.11031722,0.10529682"
640,"641,-2.280396,2.5231793,2.7975214,5.094748,-7.767649,3.1428573,-0.22593355,-0.05098463,0.08453505,0.06343606,0.11031722,0.10529682"
641,"642,-2.280396,2.5231793,2.7975214,5.094748,-7.767649,3.1428573,-0.22593355,-0.05098463,0.08453505,0.06343606,0.11031722,0.10529682"
642,"643,-2.280396,2.5231793,2.7975214,5.094748,-7.767649,3.1428573,-0.22593355,-0.05098463,0.08453505,0.06343606,0.11031722,0.10529682"
643,"644,-2.280396,2.5231793,2.7975214,5.094748,-7.767649,3.1428573,-0.22593355,-0.05098463,0.08453505,0.06343606,0.11031722,0.10529682"
644,"645,-2.2856765,2.5265496,2.813569,5.0703835,-7.8130403,3.0688732,-0.2510703,-0.086422615,0.04568282,0.061928652,0.1408344,0.4042908"
645,"646,-2.2856765,2.5265496,2.813569,5.0703835,-7.8130403,3.0688732,-0.2510703,-0.086422615,0.04568282,0.061928652,0.1408344,0.4042908"
646,"647,-2.2856765,2.5265496,2.813569,5.0703835,-7.8130403,3.0688732,-0.2510703,-0.086422615,0.04568282,0.061928652,0.1408344,0.4042908"
647,"648,-2.2856765,2.5265496,2.813569,5.0703835,-7.8130403,3.0688732,-0.2510703,-0.086422615,0.04568282,0.061928652,0.1408344,0.4042908"
648,"649,-2.2856765,2.5265496,2.813569,5.0703835,-7.8130403,3.0688732,-0.2510703,-0.086422615,0.04568282,0.061928652,0.1408344,0.4042908"
649,"650,-2.2856765,2.5265496,2.813569,5.0703835,-7.8130403,3.0688732,-0.2510703,-0.086422615,0.04568282,0.061928652,0.1408344,0.4042908"
650,"651,-2.2856765,2.5265496,2.813569,5.037058,-7.8495216,3.0304193,-0.20398855,-0.08707949,0.006621933,0.25914645,-0.2148147,0.039166458"
651,"652,-2.2856765,2.5265496,2.813569,5.037058,-7.8495216,3.0304193,-0.20398855,-0.08707949,0.006621933,0.25914645,-0.2148147,0.039166458"
652,"653,-2.2856765,2.5265496,2.813569,5.037058,-7.8495216,3.0304193,-0.20398855,-0.08707949,0.006621933,0.25914645,-0.2148147,0.039166458"
653,"654,-2.2856765,2.5265496,2.813569,5.037058,-7.8495216,3.0304193,-0.20398855,-0.08707949,0.006621933,0.25914645,-0.2148147,0.039166458"
654,"655,-2.2856765,2.5265496,2.813569,5.037058,-7.8495216,3.0304193,-0.20398855,-0.08707949,0.006621933,0.25914645,-0.2148147,0.039166458"
655,"656,-2.2856765,2.5265496,2.813569,5.037058,-7.8495216,3.0304193,-0.20398855,-0.08707949,0.006621933,0.25914645,-0.2148147,0.039166458"
656,"657,-2.294788,2.534514,2.8281379,5.004588,-7.889089,2.9810672,-0.12549734,-0.062876426,0.0010167116,-0.5202649,0.07450855,-0.51011163"
657,"658,-2.294788,2.534514,2.8281379,5.004588,-7.889089,2.9810672,-0.12549734,-0.062876426,0.0010167116,-0.5202649,0.07450855,-0.51011163"
658,"659,-2.294788,2.534514,2.8281379,5.004588,-7.889089,2.9810672,-0.12549734,-0.062876426,0.0010167116,-0.5202649,0.07450855,-0.51011163"
659,"660,-2.294788,2.534514,2.8281379,5.004588,-7.889089,2.9810672,-0.12549734,-0.062876426,0.0010167116,-0.5202649,0.07450855,-0.51011163"
660,"661,-2.294788,2.534514,2.8281379,5.004588,-7.889089,2.9810672,-0.12549734,-0.062876426,0.0010167116,-0.5202649,0.07450855,-0.51011163"
661,"662,-2.294788,2.534514,2.8281379,5.004588,-7.889089,2.9810672,-0.12549734,-0.062876426,0.0010167116,-0.5202649,0.07450855,-0.51011163"
662,"663,-2.3004434,2.5406332,2.8306863,4.9534254,-7.9351544,2.9440267,-0.06312129,-0.0395059,0.023614325,-0.07592715,0.20941341,0.6922426"
663,"664,-2.3004434,2.5406332,2.8306863,4.9534254,-7.9351544,2.9440267,-0.06312129,-0.0395059,0.023614325,-0.07592715,0.20941341,0.6922426"
664,"665,-2.3004434,2.5406332,2.8306863,4.9534254,-7.9351544,2.9440267,-0.06312129,-0.0395059,0.023614325,-0.07592715,0.20941341,0.6922426"
665,"666,-2.3004434,2.5406332,2.8306863,4.9534254,-7.9351544,2.9440267,-0.06312129,-0.0395059,0.023614325,-0.07592715,0.20941341,0.6922426"
666,"667,-2.3004434,2.5406332,2.8306863,4.9534254,-7.9351544,2.9440267,-0.06312129,-0.0395059,0.023614325,-0.07592715,0.20941341,0.6922426"
667,"668,-2.3004434,2.5406332,2.8306863,4.9534254,-7.9351544,2.9440267,-0.06312129,-0.0395059,0.023614325,-0.07592715,0.20941341,0.6922426"
668,"669,-2.3062103,2.5471785,2.8354883,4.908976,-7.982148,2.8909595,-0.032397434,-0.028224127,0.053115994,-0.075577036,-0.119972855,0.25534025"
669,"670,-2.3062103,2.5471785,2.8354883,4.908976,-7.982148,2.8909595,-0.032397434,-0.028224127,0.053115994,-0.075577036,-0.119972855,0.25534025"
670,"671,-2.3062103,2.5471785,2.8354883,4.908976,-7.982148,2.8909595,-0.032397434,-0.028224127,0.053115994,-0.075577036,-0.119972855,0.25534025"
671,"672,-2.3062103,2.5471785,2.8354883,4.908976,-7.982148,2.8909595,-0.032397434,-0.028224127,0.053115994,-0.075577036,-0.119972855,0.25534025"
672,"673,-2.3062103,2.5471785,2.8354883,4.908976,-7.982148,2.8909595,-0.032397434,-0.028224127,0.053115994,-0.075577036,-0.119972855,0.25534025"
673,"674,-2.3062103,2.5471785,2.8354883,4.908976,-7.982148,2.8909595,-0.032397434,-0.028224127,0.053115994,-0.075577036,-0.119972855,0.25534025"
674,"675,-2.312377,2.5545354,2.8384638,4.8584332,-8.0312,2.8400428,-0.023693107,-0.026586743,0.07123156,-0.040215746,0.4334295,-0.11642375"
675,"676,-2.312377,2.5545354,2.8384638,4.8584332,-8.0312,2.8400428,-0.023693107,-0.026586743,0.07123156,-0.040215746,0.4334295,-0.11642375"
676,"677,-2.312377,2.5545354,2.8384638,4.8584332,-8.0312,2.8400428,-0.023693107,-0.026586743,0.07123156,-0.040215746,0.4334295,-0.11642375"
677,"678,-2.312377,2.5545354,2.8384638,4.8584332,-8.0312,2.8400428,-0.023693107,-0.026586743,0.07123156,-0.040215746,0.4334295,-0.11642375"
678,"679,-2.312377,2.5545354,2.8384638,4.8584332,-8.0312,2.8400428,-0.023693107,-0.026586743,0.07123156,-0.040215746,0.4334295,-0.11642375"
679,"680,-2.312377,2.5545354,2.8384638,4.8584332,-8.0312,2.8400428,-0.023693107,-0.026586743,0.07123156,-0.040215746,0.4334295,-0.11642375"
680,"681,-2.312377,2.5545354,2.8384638,4.829254,-8.066691,2.7887607,-0.016956195,-0.026350398,0.07150517,0.38342163,-0.4883311,0.18488438"
681,"682,-2.312377,2.5545354,2.8384638,4.829254,-8.066691,2.7887607,-0.016956195,-0.026350398,0.07150517,0.38342163,-0.4883311,0.18488438"
682,"683,-2.312377,2.5545354,2.8384638,4.829254,-8.066691,2.7887607,-0.016956195,-0.026350398,0.07150517,0.38342163,-0.4883311,0.18488438"
683,"684,-2.312377,2.5545354,2.8384638,4.829254,-8.066691,2.7887607,-0.016956195,-0.026350398,0.07150517,0.38342163,-0.4883311,0.18488438"
684,"685,-2.3235462,2.5682669,2.8682773,4.825251,-8.124157,2.62401,0.0015362459,-0.02206211,0.057791803,0.15555237,0.12571605,-0.35663247"
685,"686,-2.3235462,2.5682669,2.8682773,4.825251,-8.124157,2.62401,0.0015362459,-0.02206211,0.057791803,0.15555237,0.12571605,-0.35663247"
686,"687,-2.3235462,2.5682669,2.8682773,4.825251,-8.124157,2.62401,0.0015362459,-0.02206211,0.057791803,0.15555237,0.12571605,-0.35663247"
687,"688,-2.3235462,2.5682669,2.8682773,4.825251,-8.124157,2.62401,0.0015362459,-0.02206211,0.057791803,0.15555237,0.12571605,-0.35663247"
688,"689,-2.3269916,2.5731022,2.8902586,4.8416257,-8.155502,2.4933565,0.030126601,-0.0149461925,0.035246357,-0.22204317,0.5305842,0.09375757"
689,"690,-2.3269916,2.5731022,2.8902586,4.8416257,-8.155502,2.4933565,0.030126601,-0.0149461925,0.035246357,-0.22204317,0.5305842,0.09375757"
690,"691,-2.3269916,2.5731022,2.8902586,4.8416257,-8.155502,2.4933565,0.030126601,-0.0149461925,0.035246357,-0.22204317,0.5305842,0.09375757"
691,"692,-2.3269916,2.5731022,2.8902586,4.8416257,-8.155502,2.4933565,0.030126601,-0.0149461925,0.035246357,-0.22204317,0.5305842,0.09375757"
692,"693,-2.3276002,2.5755794,2.90164,4.8643093,-8.16497,2.4170532,0.053587623,-0.010869765,0.01019799,0.17661783,-0.31579462,-0.50122184"
693,"694,-2.3276002,2.5755794,2.90164,4.8643093,-8.16497,2.4170532,0.053587623,-0.010869765,0.01019799,0.17661783,-0.31579462,-0.50122184"
694,"695,-2.3276002,2.5755794,2.90164,4.8643093,-8.16497,2.4170532,0.053587623,-0.010869765,0.01019799,0.17661783,-0.31579462,-0.50122184"
695,"696,-2.3276002,2.5755794,2.90164,4.8643093,-8.16497,2.4170532,0.053587623,-0.010869765,0.01019799,0.17661783,-0.31579462,-0.50122184"
696,"697,-2.3276002,2.5755794,2.90164,4.859037,-8.189037,2.3451695,0.059852906,-0.012860604,-0.009577317,0.43673334,0.1942719,-0.26742107"
697,"698,-2.3276002,2.5755794,2.90164,4.859037,-8.189037,2.3451695,0.059852906,-0.012860604,-0.009577317,0.43673334,0.1942719,-0.26742107"
698,"699,-2.3276002,2.5755794,2.90164,4.859037,-8.189037,2.3451695,0.059852906,-0.012860604,-0.009577317,0.43673334,0.1942719,-0.26742107"
699,"700,-2.3276002,2.5755794,2.90164,4.859037,-8.189037,2.3451695,0.059852906,-0.012860604,-0.009577317,0.43673334,0.1942719,-0.26742107"
700,"701,-2.3301332,2.5822737,2.9168882,4.880879,-8.192032,2.2886698,0.06341832,-0.013303485,-0.022850992,0.17342573,-0.28682575,-0.0100869285"
701,"702,-2.3301332,2.5822737,2.9168882,4.880879,-8.192032,2.2886698,0.06341832,-0.013303485,-0.022850992,0.17342573,-0.28682575,-0.0100869285"
702,"703,-2.3301332,2.5822737,2.9168882,4.880879,-8.192032,2.2886698,0.06341832,-0.013303485,-0.022850992,0.17342573,-0.28682575,-0.0100869285"
703,"704,-2.3301332,2.5822737,2.9168882,4.880879,-8.192032,2.2886698,0.06341832,-0.013303485,-0.022850992,0.17342573,-0.28682575,-0.0100869285"
704,"705,-2.3301332,2.5822737,2.9168882,4.880879,-8.192032,2.2886698,0.06341832,-0.013303485,-0.022850992,0.17342573,-0.28682575,-0.0100869285"
705,"706,-2.332094,2.5861344,2.9299476,4.8890996,-8.210588,2.203032,0.07687192,-0.0068529556,-0.030066984,-0.367543,0.27456632,0.933006"
706,"707,-2.332094,2.5861344,2.9299476,4.8890996,-8.210588,2.203032,0.07687192,-0.0068529556,-0.030066984,-0.367543,0.27456632,0.933006"
707,"708,-2.332094,2.5861344,2.9299476,4.8890996,-8.210588,2.203032,0.07687192,-0.0068529556,-0.030066984,-0.367543,0.27456632,0.933006"
708,"709,-2.332094,2.5861344,2.9299476,4.8890996,-8.210588,2.203032,0.07687192,-0.0068529556,-0.030066984,-0.367543,0.27456632,0.933006"
709,"710,-2.332094,2.5861344,2.9299476,4.8890996,-8.210588,2.203032,0.07687192,-0.0068529556,-0.030066984,-0.367543,0.27456632,0.933006"
710,"711,-2.332094,2.5861344,2.9299476,4.8890996,-8.210588,2.203032,0.07687192,-0.0068529556,-0.030066984,-0.367543,0.27456632,0.933006"
711,"712,-2.332094,2.5861344,2.9299476,4.8994284,-8.2163925,2.157981,0.07718172,-0.0039603845,-0.029799763,0.21680632,0.0064881933,-0.17228375"
712,"713,-2.332094,2.5861344,2.9299476,4.8994284,-8.2163925,2.157981,0.07718172,-0.0039603845,-0.029799763,0.21680632,0.0064881933,-0.17228375"
713,"714,-2.332094,2.5861344,2.9299476,4.8994284,-8.2163925,2.157981,0.07718172,-0.0039603845,-0.029799763,0.21680632,0.0064881933,-0.17228375"
714,"715,-2.332094,2.5861344,2.9299476,4.8994284,-8.2163925,2.157981,0.07718172,-0.0039603845,-0.029799763,0.21680632,0.0064881933,-0.17228375"
715,"716,-2.332094,2.5861344,2.9299476,4.8994284,-8.2163925,2.157981,0.07718172,-0.0039603845,-0.029799763,0.21680632,0.0064881933,-0.17228375"
716,"717,-2.332094,2.5861344,2.9299476,4.8994284,-8.2163925,2.157981,0.07718172,-0.0039603845,-0.029799763,0.21680632,0.0064881933,-0.17228375"
717,"718,-2.3348732,2.5928068,2.937088,4.8848667,-8.237062,2.1117003,0.029455893,-0.02010108,-0.021152925,0.06254222,-0.17378055,0.48146453"
718,"719,-2.3348732,2.5928068,2.937088,4.8848667,-8.237062,2.1117003,0.029455893,-0.02010108,-0.021152925,0.06254222,-0.17378055,0.48146453"
719,"720,-2.3348732,2.5928068,2.937088,4.8848667,-8.237062,2.1117003,0.029455893,-0.02010108,-0.021152925,0.06254222,-0.17378055,0.48146453"
720,"721,-2.3348732,2.5928068,2.937088,4.8848667,-8.237062,2.1117003,0.029455893,-0.02010108,-0.021152925,0.06254222,-0.17378055,0.48146453"
721,"722,-2.3348732,2.5928068,2.937088,4.8848667,-8.237062,2.1117003,0.029455893,-0.02010108,-0.021152925,0.06254222,-0.17378055,0.48146453"
722,"723,-2.3348732,2.5928068,2.937088,4.8848667,-8.237062,2.1117003,0.029455893,-0.02010108,-0.021152925,0.06254222,-0.17378055,0.48146453"
723,"724,-2.340787,2.6000297,2.9489582,4.8480463,-8.280442,2.0251143,-0.048565812,-0.049918942,-0.011803436,0.19790138,0.33285302,-0.5685092"
724,"725,-2.340787,2.6000297,2.9489582,4.8480463,-8.280442,2.0251143,-0.048565812,-0.049918942,-0.011803436,0.19790138,0.33285302,-0.5685092"
725,"726,-2.340787,2.6000297,2.9489582,4.8480463,-8.280442,2.0251143,-0.048565812,-0.049918942,-0.011803436,0.19790138,0.33285302,-0.5685092"
726,"727,-2.340787,2.6000297,2.9489582,4.8480463,-8.280442,2.0251143,-0.048565812,-0.049918942,-0.011803436,0.19790138,0.33285302,-0.5685092"
727,"728,-2.340787,2.6000297,2.9489582,4.8480463,-8.280442,2.0251143,-0.048565812,-0.049918942,-0.011803436,0.19790138,0.33285302,-0.5685092"
728,"729,-2.340787,2.6000297,2.9489582,4.814769,-8.304786,2.0047245,-0.090796076,-0.066054314,-0.011146566,0.108113006,-0.3324875,0.14157082"
729,"730,-2.340787,2.6000297,2.9489582,4.814769,-8.304786,2.0047245,-0.090796076,-0.066054314,-0.011146566,0.108113006,-0.3324875,0.14157082"
730,"731,-2.340787,2.6000297,2.9489582,4.814769,-8.304786,2.0047245,-0.090796076,-0.066054314,-0.011146566,0.108113006,-0.3324875,0.14157082"
731,"732,-2.340787,2.6000297,2.9489582,4.814769,-8.304786,2.0047245,-0.090796076,-0.066054314,-0.011146566,0.108113006,-0.3324875,0.14157082"
732,"733,-2.340787,2.6000297,2.9489582,4.814769,-8.304786,2.0047245,-0.090796076,-0.066054314,-0.011146566,0.108113006,-0.3324875,0.14157082"
733,"734,-2.340787,2.6000297,2.9489582,4.814769,-8.304786,2.0047245,-0.090796076,-0.066054314,-0.011146566,0.108113006,-0.3324875,0.14157082"
734,"735,-2.3486207,2.6109138,2.945829,4.777608,-8.336299,1.962392,-0.0695122,-0.053510968,-0.012796726,-0.64395404,0.85285807,0.5628911"
735,"736,-2.3486207,2.6109138,2.945829,4.777608,-8.336299,1.962392,-0.0695122,-0.053510968,-0.012796726,-0.64395404,0.85285807,0.5628911"
736,"737,-2.3486207,2.6109138,2.945829,4.7571483,-8.352683,1.9423226,-0.02784193,-0.029972233,-0.0075087612,0.2213392,-0.1269928,-0.08883463"
737,"738,-2.3486207,2.6109138,2.945829,4.7571483,-8.352683,1.9423226,-0.02784193,-0.029972233,-0.0075087612,0.2213392,-0.1269928,-0.08883463"
738,"739,-2.3486207,2.6109138,2.945829,4.7571483,-8.352683,1.9423226,-0.02784193,-0.029972233,-0.0075087612,0.2213392,-0.1269928,-0.08883463"
739,"740,-2.3486207,2.6109138,2.945829,4.7571483,-8.352683,1.9423226,-0.02784193,-0.029972233,-0.0075087612,0.2213392,-0.1269928,-0.08883463"
740,"741,-2.3486207,2.6109138,2.945829,4.7571483,-8.352683,1.9423226,-0.02784193,-0.029972233,-0.0075087612,0.2213392,-0.1269928,-0.08883463"
741,"742,-2.3486207,2.6109138,2.945829,4.7571483,-8.352683,1.9423226,-0.016331263,-0.020201154,8.091108e-05,0.2213392,-0.1269928,-0.08883463"
742,"743,-2.3486207,2.6109138,2.945829,4.716112,-8.377663,1.9347972,-0.016331263,-0.020201154,8.091108e-05,-0.08108166,-0.17883871,-0.37856534"
743,"744,-2.3486207,2.6109138,2.945829,4.716112,-8.377663,1.9347972,-0.016331263,-0.020201154,8.091108e-05,-0.08108166,-0.17883871,-0.37856534"
744,"745,-2.3486207,2.6109138,2.945829,4.716112,-8.377663,1.9347972,-0.016331263,-0.020201154,8.091108e-05,-0.08108166,-0.17883871,-0.37856534"
745,"746,-2.3486207,2.6109138,2.945829,4.716112,-8.377663,1.9347972,-0.016331263,-0.020201154,8.091108e-05,-0.08108166,-0.17883871,-0.37856534"
746,"747,-2.3486207,2.6109138,2.945829,4.716112,-8.377663,1.9347972,-0.016331263,-0.020201154,8.091108e-05,-0.08108166,-0.17883871,-0.37856534"
747,"748,-2.3592577,2.6258445,2.9327157,4.6746545,-8.408243,1.9024816,-0.031354107,-0.025819153,-0.0046768733,0.14557028,0.2944435,-0.83482933"
748,"749,-2.3592577,2.6258445,2.9327157,4.6746545,-8.408243,1.9024816,-0.031354107,-0.025819153,-0.0046768733,0.14557028,0.2944435,-0.83482933"
749,"750,-2.3592577,2.6258445,2.9327157,4.6746545,-8.408243,1.9024816,-0.031354107,-0.025819153,-0.0046768733,0.14557028,0.2944435,-0.83482933"
750,"751,-2.3592577,2.6258445,2.9327157,4.6746545,-8.408243,1.9024816,-0.031354107,-0.025819153,-0.0046768733,0.14557028,0.2944435,-0.83482933"
751,"752,-2.3592577,2.6258445,2.9327157,4.6746545,-8.408243,1.9024816,-0.031354107,-0.025819153,-0.0046768733,0.14557028,0.2944435,-0.83482933"
752,"753,-2.3592577,2.6258445,2.9327157,4.6669526,-8.415651,1.8885854,-0.039790154,-0.032425117,-0.02729578,0.19506095,-0.39699325,0.26640394"
753,"754,-2.3592577,2.6258445,2.9327157,4.6669526,-8.415651,1.8885854,-0.039790154,-0.032425117,-0.02729578,0.19506095,-0.39699325,0.26640394"
754,"755,-2.3592577,2.6258445,2.9327157,4.6669526,-8.415651,1.8885854,-0.039790154,-0.032425117,-0.02729578,0.19506095,-0.39699325,0.26640394"
755,"756,-2.3592577,2.6258445,2.9327157,4.6669526,-8.415651,1.8885854,-0.039790154,-0.032425117,-0.02729578,0.19506095,-0.39699325,0.26640394"
756,"757,-2.3623881,2.6316864,2.957083,4.6830463,-8.434791,1.7589126,-0.031532966,-0.03269766,-0.05621404,-0.4583477,1.2059749,0.35422513"
757,"758,-2.3623881,2.6316864,2.957083,4.6830463,-8.434791,1.7589126,-0.031532966,-0.03269766,-0.05621404,-0.4583477,1.2059749,0.35422513"
758,"759,-2.3623881,2.6316864,2.957083,4.6830463,-8.434791,1.7589126,-0.031532966,-0.03269766,-0.05621404,-0.4583477,1.2059749,0.35422513"
759,"760,-2.3638074,2.6341712,2.9973147,4.7140436,-8.448714,1.6023166,-0.01759603,-0.028202835,-0.0739836,0.12615602,-0.109935656,-0.07809912"
760,"761,-2.3638074,2.6341712,2.9973147,4.7140436,-8.448714,1.6023166,-0.01759603,-0.028202835,-0.0739836,0.12615602,-0.109935656,-0.07809912"
761,"762,-2.3638074,2.6341712,2.9973147,4.7140436,-8.448714,1.6023166,-0.01759603,-0.028202835,-0.0739836,0.12615602,-0.109935656,-0.07809912"
762,"763,-2.3638074,2.6341712,2.9973147,4.7140436,-8.448714,1.6023166,-0.01759603,-0.028202835,-0.0739836,0.12615602,-0.109935656,-0.07809912"
763,"764,-2.3638074,2.6341712,2.9973147,4.7140436,-8.448714,1.6023166,-0.01759603,-0.028202835,-0.0739836,0.12615602,-0.109935656,-0.07809912"
764,"765,-2.364267,2.6360493,3.0317,4.743384,-8.455742,1.4734693,-0.006586801,-0.02119764,-0.0720279,-0.059753332,-0.15799908,-0.32748067"
765,"766,-2.364267,2.6360493,3.0317,4.743384,-8.455742,1.4734693,-0.006586801,-0.02119764,-0.0720279,-0.059753332,-0.15799908,-0.32748067"
766,"767,-2.364267,2.6360493,3.0317,4.743384,-8.455742,1.4734693,-0.006586801,-0.02119764,-0.0720279,-0.059753332,-0.15799908,-0.32748067"
767,"768,-2.364267,2.6360493,3.0317,4.743384,-8.455742,1.4734693,-0.006586801,-0.02119764,-0.0720279,-0.059753332,-0.15799908,-0.32748067"
768,"769,-2.364267,2.6360493,3.0317,4.743384,-8.455742,1.4734693,-0.006586801,-0.02119764,-0.0720279,-0.059753332,-0.15799908,-0.32748067"
769,"770,-2.3631432,2.6367748,3.0578504,4.777575,-8.452846,1.3764336,0.004621513,-0.012227154,-0.061608464,-0.023076195,0.36848322,-0.78350854"
770,"771,-2.3631432,2.6367748,3.0578504,4.777575,-8.452846,1.3764336,0.004621513,-0.012227154,-0.061608464,-0.023076195,0.36848322,-0.78350854"
771,"772,-2.3631432,2.6367748,3.0578504,4.777575,-8.452846,1.3764336,0.004621513,-0.012227154,-0.061608464,-0.023076195,0.36848322,-0.78350854"
772,"773,-2.3631432,2.6367748,3.0578504,4.777575,-8.452846,1.3764336,0.004621513,-0.012227154,-0.061608464,-0.023076195,0.36848322,-0.78350854"
773,"774,-2.3631432,2.6367748,3.0578504,4.777575,-8.452846,1.3764336,0.004621513,-0.012227154,-0.061608464,-0.023076195,0.36848322,-0.78350854"
774,"775,-2.3631432,2.6367748,3.0578504,4.777575,-8.452846,1.3764336,0.004621513,-0.012227154,-0.061608464,-0.023076195,0.36848322,-0.78350854"
775,"776,-2.355126,2.63182,3.0565462,4.8566895,-8.40844,1.3715346,0.027003009,0.0009251543,-0.058045182,0.26418975,-0.44506952,0.10191929"
776,"777,-2.355126,2.63182,3.0565462,4.8566895,-8.40844,1.3715346,0.027003009,0.0009251543,-0.058045182,0.26418975,-0.44506952,0.10191929"
777,"778,-2.355126,2.63182,3.0565462,4.8566895,-8.40844,1.3715346,0.027003009,0.0009251543,-0.058045182,0.26418975,-0.44506952,0.10191929"
778,"779,-2.355126,2.63182,3.0565462,4.8566895,-8.40844,1.3715346,0.027003009,0.0009251543,-0.058045182,0.26418975,-0.44506952,0.10191929"
779,"780,-2.355126,2.63182,3.0565462,4.8566895,-8.40844,1.3715346,0.027003009,0.0009251543,-0.058045182,0.26418975,-0.44506952,0.10191929"
780,"781,-2.3481076,2.6277661,3.0331619,4.911005,-8.368202,1.4232315,0.06390592,0.019528314,-0.058656275,-0.07683455,0.48840147,-0.19495355"
781,"782,-2.3481076,2.6277661,3.0331619,4.911005,-8.368202,1.4232315,0.06390592,0.019528314,-0.058656275,-0.07683455,0.48840147,-0.19495355"
782,"783,-2.3481076,2.6277661,3.0331619,4.911005,-8.368202,1.4232315,0.06390592,0.019528314,-0.058656275,-0.07683455,0.48840147,-0.19495355"
783,"784,-2.3394818,2.6223307,2.9877884,4.965268,-8.315318,1.5401195,0.10462974,0.0402852,-0.052829612,-0.06007652,-0.0045721927,0.051744547"
784,"785,-2.3394818,2.6223307,2.9877884,4.965268,-8.315318,1.5401195,0.10462974,0.0402852,-0.052829612,-0.06007652,-0.0045721927,0.051744547"
785,"786,-2.3394818,2.6223307,2.9877884,4.965268,-8.315318,1.5401195,0.10462974,0.0402852,-0.052829612,-0.06007652,-0.0045721927,0.051744547"
786,"787,-2.3394818,2.6223307,2.9877884,4.965268,-8.315318,1.5401195,0.10462974,0.0402852,-0.052829612,-0.06007652,-0.0045721927,0.051744547"
787,"788,-2.3394818,2.6223307,2.9877884,4.965268,-8.315318,1.5401195,0.10462974,0.0402852,-0.052829612,-0.06007652,-0.0045721927,0.051744547"
788,"789,-2.3394818,2.6223307,2.9877884,4.965268,-8.315318,1.5401195,0.10462974,0.0402852,-0.052829612,-0.06007652,-0.0045721927,0.051744547"
789,"790,-2.3308778,2.61689,2.9266918,5.004544,-8.258437,1.709718,0.13024981,0.056507874,-0.035801023,0.004941413,-0.23892613,0.32431656"
790,"791,-2.3308778,2.61689,2.9266918,5.004544,-8.258437,1.709718,0.13024981,0.056507874,-0.035801023,0.004941413,-0.23892613,0.32431656"
791,"792,-2.3308778,2.61689,2.9266918,5.004544,-8.258437,1.709718,0.13024981,0.056507874,-0.035801023,0.004941413,-0.23892613,0.32431656"
792,"793,-2.3308778,2.61689,2.9266918,5.004544,-8.258437,1.709718,0.13024981,0.056507874,-0.035801023,0.004941413,-0.23892613,0.32431656"
793,"794,-2.3308778,2.61689,2.9266918,5.004544,-8.258437,1.709718,0.13024981,0.056507874,-0.035801023,0.004941413,-0.23892613,0.32431656"
794,"795,-2.3308778,2.61689,2.9266918,5.004544,-8.258437,1.709718,0.13024981,0.056507874,-0.035801023,0.004941413,-0.23892613,0.32431656"
795,"796,-2.3233297,2.612231,2.8681173,5.03043,-8.204697,1.883643,0.12974517,0.061743673,-0.017903706,0.22039792,0.89653623,-0.3432663"
796,"797,-2.3233297,2.612231,2.8681173,5.03043,-8.204697,1.883643,0.12974517,0.061743673,-0.017903706,0.22039792,0.89653623,-0.3432663"
797,"798,-2.3233297,2.612231,2.8681173,5.03043,-8.204697,1.883643,0.12974517,0.061743673,-0.017903706,0.22039792,0.89653623,-0.3432663"
798,"799,-2.3233297,2.612231,2.8681173,5.03043,-8.204697,1.883643,0.12974517,0.061743673,-0.017903706,0.22039792,0.89653623,-0.3432663"
799,"800,-2.3233297,2.612231,2.8681173,5.03043,-8.204697,1.883643,0.12974517,0.061743673,-0.017903706,0.22039792,0.89653623,-0.3432663"
800,"801,-2.3233297,2.612231,2.8681173,5.03043,-8.204697,1.883643,0.12974517,0.061743673,-0.017903706,0.22039792,0.89653623,-0.3432663"
801,"802,-2.315023,2.6066203,2.8158808,5.0643396,-8.142135,2.0563312,0.11434439,0.058120772,-0.009063106,0.66901463,-0.48674738,-0.013269998"
802,"803,-2.315023,2.6066203,2.8158808,5.0643396,-8.142135,2.0563312,0.11434439,0.058120772,-0.009063106,0.66901463,-0.48674738,-0.013269998"
803,"804,-2.315023,2.6066203,2.8158808,5.0643396,-8.142135,2.0563312,0.11434439,0.058120772,-0.009063106,0.66901463,-0.48674738,-0.013269998"
804,"805,-2.315023,2.6066203,2.8158808,5.0643396,-8.142135,2.0563312,0.11434439,0.058120772,-0.009063106,0.66901463,-0.48674738,-0.013269998"
805,"806,-2.315023,2.6066203,2.8158808,5.0643396,-8.142135,2.0563312,0.11434439,0.058120772,-0.009063106,0.66901463,-0.48674738,-0.013269998"
806,"807,-2.315023,2.6066203,2.8158808,5.0643396,-8.142135,2.0563312,0.11434439,0.058120772,-0.009063106,0.66901463,-0.48674738,-0.013269998"
807,"808,-2.310873,2.603843,2.7993557,5.0924687,-8.111455,2.1074736,0.099795304,0.052088637,-0.0059863552,-0.14961405,0.27979052,-0.7172866"
808,"809,-2.310873,2.603843,2.7993557,5.0924687,-8.111455,2.1074736,0.099795304,0.052088637,-0.0059863552,-0.14961405,0.27979052,-0.7172866"
809,"810,-2.310873,2.603843,2.7993557,5.0924687,-8.111455,2.1074736,0.099795304,0.052088637,-0.0059863552,-0.14961405,0.27979052,-0.7172866"
810,"811,-2.310873,2.603843,2.7993557,5.0924687,-8.111455,2.1074736,0.099795304,0.052088637,-0.0059863552,-0.14961405,0.27979052,-0.7172866"
811,"812,-2.310873,2.603843,2.7993557,5.0924687,-8.111455,2.1074736,0.099795304,0.052088637,-0.0059863552,-0.14961405,0.27979052,-0.7172866"
812,"813,-2.310873,2.603843,2.7993557,5.0924687,-8.111455,2.1074736,0.099795304,0.052088637,-0.0059863552,-0.14961405,0.27979052,-0.7172866"
813,"814,-2.310873,2.603843,2.7993557,5.1395445,-8.082238,2.1054444,0.08474052,0.044802383,-0.0029000235,0.35452548,-0.3669111,0.52036405"
814,"815,-2.310873,2.603843,2.7993557,5.1395445,-8.082238,2.1054444,0.08474052,0.044802383,-0.0029000235,0.35452548,-0.3669111,0.52036405"
815,"816,-2.310873,2.603843,2.7993557,5.1395445,-8.082238,2.1054444,0.08474052,0.044802383,-0.0029000235,0.35452548,-0.3669111,0.52036405"
816,"817,-2.310873,2.603843,2.7993557,5.1395445,-8.082238,2.1054444,0.08474052,0.044802383,-0.0029000235,0.35452548,-0.3669111,0.52036405"
817,"818,-2.310873,2.603843,2.7993557,5.1395445,-8.082238,2.1054444,0.08474052,0.044802383,-0.0029000235,0.35452548,-0.3669111,0.52036405"
