,gravity.x,gravity.y,gravity.z,userAcceleration.x,userAcceleration.y,userAcceleration.z
0,0.278976,0.855786,-0.435658,-0.4673449999999999,-1.027142,0.5473060000000001
1,0.27146,0.8665379999999999,-0.418826,-0.580374,-1.385261,0.813357
2,0.266232,0.8864209999999999,-0.378645,-0.618786,-1.079246,0.875975
3,0.255223,0.90838,-0.33121,-0.5363359999999999,-1.069238,0.786257
4,0.2423679999999999,0.924563,-0.293996,-0.441053,-1.085085,0.441396
5,0.2313059999999999,0.935998,-0.265323,-0.568312,-1.049295,0.159931
6,0.2282269999999999,0.942358,-0.244673,-1.060747,-0.610663,-0.7679
7,0.246952,0.944999,-0.214437,-1.6776919999999995,3.096734,1.417165
8,0.242659,0.948779,-0.2023049999999999,-0.451491,5.689268,0.3825409999999999
9,0.250786,0.941231,-0.226235,0.389443,-0.695168,0.734033
10,0.265457,0.935301,-0.233958,0.463974,-1.6670060000000002,0.992183
11,0.263945,0.949094,-0.1718839999999999,0.613359,-0.5986,0.208353
12,0.2276119999999999,0.967422,-0.1108059999999999,0.270038,-0.4307859999999999,-0.276767
13,0.178771,0.981861,-0.063082,0.170182,0.703609,-0.2575659999999999
14,0.1165089999999999,0.993173,-0.004806,0.427757,1.69065,-0.108261
15,0.051101,0.997109,0.0561309999999999,0.769211,0.488639,-0.309747
16,-0.00029,0.992241,0.124279,1.268188,0.947838,-0.119655
17,-0.026476,0.985463,0.167778,0.5408649999999999,0.094463,-0.596398
18,-0.037474,0.984366,0.172065,0.303008,0.260522,-0.5405340000000001
19,-0.050345,0.986012,0.158851,-0.376627,0.460201,-0.199546
20,-0.07036,0.987736,0.1393329999999999,-0.242552,-0.5314220000000001,-0.237508
21,-0.085376,0.98986,0.113476,-0.2064639999999999,-0.768195,-0.1948349999999999
22,-0.089219,0.992744,0.08055,0.253922,-1.631828,-0.171569
23,-0.069743,0.996354,0.04902,0.277187,-1.352983,-0.081765
24,-0.036778,0.999318,0.001191,0.09737,-0.9417,0.3605489999999999
25,0.004634,0.997842,-0.065419,0.155339,-0.229989,-0.8880870000000001
26,0.059471,0.982856,-0.174495,1.755455,1.877374,0.101009
27,0.152918,0.94883,-0.276277,0.594244,2.5623240000000003,0.401018
28,0.22489,0.90605,-0.358456,-1.127814,1.4713459999999998,0.050244
29,0.252714,0.869324,-0.424742,-0.6595439999999999,1.034988,0.013319
30,0.28221,0.833349,-0.4752699999999999,-0.412596,0.917246,0.386723
31,0.309688,0.7968149999999999,-0.51882,0.4600729999999999,0.089187,-0.485544
32,0.318355,0.77082,-0.551798,0.348393,0.128167,-0.666937
33,0.319675,0.763622,-0.560967,0.46069,0.572239,-0.776771
34,0.311634,0.772667,-0.55305,0.531734,-0.384529,-0.003407
35,0.307202,0.78445,-0.5387569999999999,0.488559,-0.465313,-0.186417
36,0.299631,0.7876890000000001,-0.538296,0.141196,-0.665038,0.308239
37,0.281076,0.7982130000000001,-0.532772,-0.515115,-1.864604,0.989849
38,0.275825,0.822916,-0.496713,-0.6889270000000001,-1.372507,0.7879729999999999
39,0.28231,0.852556,-0.439821,-0.709861,-1.063601,0.694292
40,0.291444,0.8746799999999999,-0.387284,-0.61229,-0.986847,0.536454
41,0.29438,0.8902200000000001,-0.347622,-0.6618569999999999,-1.003501,0.322811
42,0.294986,0.900879,-0.318422,-0.8508180000000001,-0.8490139999999999,0.2154559999999999
43,0.304657,0.905419,-0.295621,-1.940522,5.444923,1.701215
44,0.315873,0.912751,-0.259038,-1.951738,5.437591,1.664632
45,0.3270389999999999,0.907233,-0.2645079999999999,0.666721,-0.8110569999999999,0.334485
46,0.343671,0.8973540000000001,-0.276834,0.593386,-1.278335,0.7534420000000001
47,0.342361,0.909033,-0.237567,0.538285,-1.398718,0.52051
48,0.318976,0.929074,-0.187255,0.14834,-0.937772,0.4800399999999999
49,0.2742719999999999,0.951472,-0.139519,0.183797,0.140524,-0.137138
50,0.22638,0.970015,-0.088377,0.584411,1.4787,0.2384929999999999
51,0.157068,0.987452,-0.01599,0.4581659999999999,1.223059,0.0358879999999999
52,0.10007,0.992972,0.063072,0.951383,0.861215,-0.2097699999999999
53,0.061366,0.991063,0.118378,1.565877,0.979534,-0.853791
54,0.035615,0.98973,0.138383,0.58232,0.3466349999999999,-0.830232
55,0.018529,0.990106,0.13903,-0.300572,0.228934,-0.126212
56,-0.010201,0.989902,0.141328,-0.295646,0.190121,-0.067354
57,-0.04092,0.989349,0.139629,-0.245975,-0.250625,-0.394207
58,-0.062837,0.990661,0.1209349999999999,-0.01985,-0.640121,-0.192148
59,-0.073063,0.993387,0.088474,0.228931,-1.392084,-0.116428
60,-0.0604899999999999,0.996293,0.0610389999999999,0.496571,-1.510041,0.091076
61,-0.02682,0.999255,0.027464,0.128108,-1.103106,0.048235
62,0.015174,0.99949,-0.027837,-0.135368,-0.8791899999999999,-0.190486
63,0.067692,0.992685,-0.099909,0.182614,-0.402414,-0.996984
64,0.148136,0.964739,-0.2175389999999999,1.116573,1.937117,0.107874
65,0.2366989999999999,0.923924,-0.3005469999999999,-0.190877,1.892849,0.613169
66,0.290967,0.877049,-0.382248,-0.589398,1.694316,-0.034516
67,0.317255,0.8410700000000001,-0.438113,-0.675821,0.522486,0.375567
68,0.348758,0.8068810000000001,-0.476763,-0.1043579999999999,0.139027,0.166857
69,0.3712519999999999,0.774005,-0.512914,0.624873,0.175534,-0.606379
70,0.375621,0.756347,-0.535576,0.814504,0.528412,-0.431618
71,0.381294,0.7536970000000001,-0.535304,1.012627,0.529812,-0.198629
72,0.381869,0.759822,-0.526155,0.357038,-0.169048,-0.114897
73,0.382102,0.764575,-0.519054,0.066629,-0.580218,-0.0033159999999999
74,0.368079,0.770559,-0.520336,-0.505332,-0.773672,0.4191399999999999
75,0.342045,0.787804,-0.5122140000000001,-0.6544840000000001,-1.3693620000000002,0.619835
76,0.335781,0.81679,-0.469145,-0.786053,-1.340914,1.018904
77,0.343709,0.85355,-0.391544,-0.7863359999999999,-1.06548,0.973759
78,0.343696,0.878973,-0.330559,-0.660667,-1.027548,0.728966
79,0.336846,0.894575,-0.293699,-0.76043,-0.841551,0.109403
80,0.33166,0.902173,-0.275814,-1.186,-0.405958,-0.588321
81,0.341096,0.901655,-0.265818,-1.418642,3.451433,1.392695
82,0.361501,0.902047,-0.2358289999999999,-0.106496,6.183646,0.224476
83,0.37721,0.892683,-0.246613,0.18854,-1.0874,0.535111
84,0.384509,0.8807370000000001,-0.276485,-0.503634,-0.969741,0.623165
85,0.378892,0.8923909999999999,-0.245086,0.818893,-1.7618060000000002,0.413925
86,0.3429,0.91791,-0.199619,0.652385,-0.88135,0.4172399999999999
87,0.299023,0.942864,-0.146896,0.020908,0.008094,-0.17749
88,0.2489289999999999,0.964107,-0.092287,0.783801,1.52132,0.059786
89,0.180267,0.983487,-0.015518,0.7689060000000001,1.636966,-0.076126
90,0.124965,0.99001,0.065169,0.8061560000000001,0.71281,-0.427489
91,0.08366,0.988852,0.123099,1.153324,0.268655,-0.4610359999999999
92,0.05822,0.987094,0.149122,0.314751,0.330457,-0.692213
93,0.038839,0.98717,0.154816,-0.239309,0.523465,-0.081162
94,0.0140419999999999,0.98711,0.15937,-0.3800699999999999,0.181546,-0.194694
95,-0.010295,0.988306,0.152072,-0.220113,-0.375101,-0.150515
96,-0.029549,0.990953,0.130845,-0.0920179999999999,-0.637545,-0.276292
97,-0.040684,0.994387,0.097582,0.1109049999999999,-1.310503,-0.235812
98,-0.032912,0.997225,0.066649,0.228286,-1.1161219999999998,-0.066832
99,-0.009109,0.999447,0.031702,0.038543,-1.016659,-0.048242
100,0.021039,0.999472,-0.024427,-0.09564,-0.993247,0.195829
101,0.057606,0.994238,-0.090313,-0.266652,-0.5736760000000001,-0.137287
102,0.104255,0.976169,-0.190292,0.8941120000000001,0.985196,-1.415619
103,0.186154,0.943819,-0.273023,-0.313458,1.780058,0.3733039999999999
104,0.2536239999999999,0.908372,-0.332451,-0.512688,1.957396,0.1167839999999999
105,0.270957,0.8811700000000001,-0.387442,-0.7891600000000001,1.281931,0.082572
106,0.284099,0.8533229999999999,-0.437171,0.048451,0.024225,-0.022118
107,0.293686,0.82604,-0.4810399999999999,0.325928,-0.049794,-0.5426880000000001
108,0.29362,0.8167810000000001,-0.4966359999999999,0.176045,0.106742,-0.509101
109,0.300006,0.81604,-0.4940319999999999,0.428616,0.393738,-0.117296
110,0.308831,0.8210649999999999,-0.480071,0.775459,-0.447118,0.27748
111,0.322111,0.823792,-0.466479,0.335924,-0.665696,0.178057
112,0.337124,0.821414,-0.4600189999999999,0.069751,-0.689029,0.181286
113,0.345696,0.826917,-0.443502,-0.5874560000000001,-1.183454,0.454244
114,0.350698,0.841467,-0.411016,-0.8504079999999999,-1.324622,0.615408
115,0.353391,0.861151,-0.365409,-0.620069,-0.99642,0.581214
116,0.35398,0.8801260000000001,-0.316332,-0.603049,-0.965178,0.483278
117,0.348463,0.894115,-0.281285,-0.625059,-1.001903,-0.0260269999999999
118,0.339113,0.904353,-0.259105,-0.8074060000000001,-0.788493,-0.195195
119,0.339648,0.910055,-0.237542,-0.839007,-0.407461,-1.343269
120,0.348498,0.919524,-0.181693,-2.447878,4.678804,4.996741
121,0.317969,0.929847,-0.185114,1.153543,0.148553,0.615274
122,0.323343,0.917354,-0.2321619999999999,0.153479,-1.259898,1.554168
123,0.339401,0.912927,-0.2266239999999999,1.018433,-1.847803,0.514634
124,0.320754,0.932809,-0.16423,0.331529,-0.949746,0.312821
125,0.289927,0.950917,-0.1081,-0.14767,-0.886677,0.045905
126,0.2486989999999999,0.967147,-0.052534,0.3857,1.915604,-0.033953
127,0.179245,0.983121,0.03644,0.606568,1.586596,-0.366183
128,0.113936,0.987435,0.10942,0.265443,0.771446,-0.437835
129,0.066748,0.985034,0.158853,1.148309,0.410443,-0.670664
130,0.044673,0.984964,0.166829,0.454197,-0.0019309999999999,-0.412297
131,0.0339029999999999,0.987159,0.15604,0.047274,0.023003,-0.42606
132,0.0255759999999999,0.990926,0.131886,-0.07268,-0.241704,-0.421147
133,0.0194319999999999,0.994473,0.103095,-0.123421,-1.107373,-0.194709
134,0.019693,0.997144,0.072792,-0.002252,-1.269727,-0.264106
135,0.033326,0.998664,0.039267,0.123748,-1.134956,-0.2436739999999999
136,0.0595169999999999,0.998218,-0.001669,0.003425,-1.019275,0.073141
137,0.0948799999999999,0.993777,-0.0582149999999999,-0.198152,-0.6455569999999999,-0.199521
138,0.137874,0.983137,-0.120076,0.166554,-0.3576789999999999,-0.753947
139,0.188435,0.95472,-0.230194,2.127376,1.975593,0.7119449999999999
140,0.275938,0.911478,-0.305048,0.03998,2.00617,0.581324
141,0.335948,0.868749,-0.363874,-0.8945110000000001,2.340052,-0.14844
142,0.368768,0.8326290000000001,-0.4131939999999999,-0.948022,0.927487,0.3259599999999999
143,0.406439,0.7959930000000001,-0.4485449999999999,-0.053015,-0.1554289999999999,-0.086703
144,0.434691,0.763005,-0.478391,0.2435929999999999,-0.108174,-0.410677
145,0.446078,0.7430640000000001,-0.4988609999999999,0.066084,-0.122794,-0.297693
146,0.451652,0.740679,-0.4973899999999999,1.088799,0.2740309999999999,-0.073518
147,0.4485689999999999,0.755303,-0.477802,1.04316,-0.4329149999999999,-0.14079
148,0.440119,0.767352,-0.4663229999999999,0.344229,-0.52251,-0.091279
149,0.420432,0.7799649999999999,-0.463554,-0.385932,-0.94325,0.37664
150,0.397921,0.803269,-0.443179,-0.783312,-1.572999,0.562198
151,0.3873769999999999,0.8343959999999999,-0.3920619999999999,-0.934252,-1.2961120000000002,0.814867
152,0.385138,0.8626149999999999,-0.327951,-0.8293360000000001,-0.951651,0.616373
153,0.381216,0.8816,-0.278288,-0.63262,-0.912178,0.296736
154,0.375816,0.891365,-0.2534119999999999,-0.815254,-1.047188,-0.030188
155,0.375952,0.890383,-0.256642,-1.071798,-0.548769,-1.831462
156,0.38602,0.89359,-0.229068,-2.601398,5.040751,4.157108
157,0.392405,0.893493,-0.218348,0.929983,4.548982,-0.095998
158,0.407041,0.87479,-0.262769,0.048785,-0.968525,1.410962
159,0.409664,0.875439,-0.256455,0.6733140000000001,-2.493023,1.194306
160,0.392136,0.901544,-0.182848,0.2868949999999999,-0.468622,-0.019377
161,0.350005,0.929335,-0.117547,0.039522,-0.440535,-0.294639
162,0.289718,0.955741,-0.051048,0.405564,1.085107,-0.390251
163,0.207015,0.97809,0.021587,0.717255,0.814818,-0.049038
164,0.148292,0.984718,0.091213,0.7846920000000001,0.380058,-0.4037739999999999
165,0.112018,0.982449,0.149082,1.591992,0.323215,-0.339466
166,0.096343,0.98216,0.161431,0.054475,-0.650388,-0.8764120000000001
167,0.090391,0.985635,0.142591,-0.26338,-0.289819,-0.571012
168,0.083878,0.989038,0.12144,-0.474549,0.0491389999999999,-0.007961
169,0.073208,0.992,0.102749,-0.3466909999999999,-0.522899,-0.01234
170,0.062971,0.994753,0.0805029999999999,-0.212141,-1.111269,-0.149549
171,0.0624039999999999,0.99658,0.0539929999999999,-0.095149,-1.294843,-0.121864
172,0.0806419999999999,0.996586,0.017178,0.045594,-0.7236819999999999,0.05814
173,0.114347,0.992916,-0.0320089999999999,0.0579559999999999,-0.277203,-0.689792
174,0.167667,0.980005,-0.1070589999999999,1.779523,0.95162,-0.00018
175,0.257893,0.942208,-0.213824,0.085582,1.434974,0.176333
176,0.332328,0.8928389999999999,-0.303948,-0.149589,1.31433,0.147943
177,0.360098,0.8615450000000001,-0.357852,-0.682669,1.821225,0.0942559999999999
178,0.3840719999999999,0.8306110000000001,-0.40319,-0.384805,0.67389,0.3592599999999999
179,0.404956,0.79955,-0.443532,0.410306,-0.026967,-0.164881
180,0.417568,0.776163,-0.472439,0.302509,-0.008279,-0.413471
181,0.424634,0.7595649999999999,-0.492684,0.182864,0.480196,-0.261284
182,0.426501,0.752594,-0.501688,0.463163,0.129624,0.088068
183,0.4275319999999999,0.756394,-0.495052,0.4977149999999999,-0.538315,0.005077
184,0.4316609999999999,0.765836,-0.4766069999999999,0.03921,-0.638288,-0.087083
185,0.4263479999999999,0.78055,-0.457121,-0.5018630000000001,-1.41878,0.6801590000000001
186,0.406729,0.8011050000000001,-0.439081,-0.587332,-1.546284,0.8325440000000001
187,0.388763,0.8297969999999999,-0.400363,-0.72821,-1.3411799999999998,1.064426
188,0.377565,0.8578620000000001,-0.348578,-0.656771,-1.159909,0.690589
189,0.373262,0.87765,-0.300656,-0.550401,-1.12321,0.287717
190,0.374262,0.885757,-0.274499,-0.7251529999999999,-1.060226,-0.077415
191,0.381423,0.884468,-0.268739,-1.122009,-0.688393,-0.438414
192,0.3977199999999999,0.87525,-0.2752159999999999,-1.42514,1.172464,-1.7078919999999995
193,0.407058,0.8800180000000001,-0.244664,0.519853,7.049258,0.570134
194,0.42954,0.8608379999999999,-0.272841,0.187113,-0.293546,1.217039
195,0.442007,0.838542,-0.318537,-0.444113,-3.004741,1.546656
196,0.453412,0.8501219999999999,-0.267765,0.3855159999999999,-2.150278,0.300357
197,0.424996,0.884642,-0.191765,0.32241,-0.252714,-0.621147
198,0.376949,0.915065,-0.143359,-0.128185,0.447881,0.16466
199,0.3188269999999999,0.945191,-0.070341,0.501974,1.7015220000000002,0.259291
200,0.247261,0.968907,-0.008032,0.171104,0.949016,-0.100229
201,0.197675,0.978815,0.053167,0.779833,0.358801,-0.059042
202,0.169066,0.980018,0.104698,1.277589,0.274422,-0.302437
203,0.1527359999999999,0.980555,0.123145,0.621678,-0.387232,-0.804984
204,0.1454619999999999,0.982263,0.118243,-0.195099,-0.067926,-0.466235
205,0.135599,0.984891,0.1076299999999999,-0.37237,-0.136868,-0.178828
206,0.122121,0.988473,0.089382,-0.3527119999999999,-0.3780449999999999,-0.110623
207,0.108412,0.992036,0.063981,-0.306944,-0.8608100000000001,-0.052888
208,0.103463,0.994051,0.0337779999999999,0.010765,-1.25934,-0.141291
209,0.110871,0.993826,0.001189,0.105392,-1.184744,-0.135879
210,0.129374,0.990888,-0.037262,0.123251,-0.949796,0.271759
211,0.159208,0.98381,-0.082197,0.1842369999999999,-0.470046,-0.494997
212,0.203381,0.968528,-0.143445,0.91312,-0.113013,-0.633914
213,0.288823,0.926929,-0.239523,0.717677,1.833249,0.449941
214,0.368523,0.875994,-0.31115,-0.455193,2.2863900000000004,-0.237952
215,0.40312,0.842132,-0.358185,-0.796248,1.437607,0.26709
216,0.4344,0.81084,-0.392206,-0.714704,0.981534,0.258585
217,0.456279,0.781249,-0.4259699999999999,0.396123,-0.043776,-0.194437
218,0.467531,0.756714,-0.456934,0.541776,-0.054276,-0.309652
219,0.471398,0.7390760000000001,-0.481189,0.75013,0.234481,-0.261685
220,0.4699859999999999,0.734224,-0.489918,0.900833,-0.12459,-0.046794
221,0.465433,0.743838,-0.479655,0.673056,-0.355761,-0.1852619999999999
222,0.464679,0.7558090000000001,-0.461321,0.160901,-0.473537,0.023775
223,0.462262,0.768835,-0.4418109999999999,-0.4994479999999999,-0.786063,0.177254
224,0.451502,0.786157,-0.422012,-0.697001,-1.221033,0.503112
225,0.441767,0.809054,-0.387638,-0.7899109999999999,-1.1333950000000002,0.769856
226,0.4346239999999999,0.8350709999999999,-0.337266,-0.704338,-0.928089,0.5767680000000001
227,0.427796,0.856967,-0.287378,-0.57222,-0.8021729999999999,0.30871
228,0.422121,0.870977,-0.251397,-0.565966,-0.831426,-0.035712
229,0.416386,0.877607,-0.237521,-0.839023,-0.736952,-0.230283
230,0.418465,0.8758309999999999,-0.240405,-0.7708510000000001,-0.293495,-2.16969
231,0.4165109999999999,0.882559,-0.218164,-1.337425,5.333979,3.276193
232,0.414415,0.8836379999999999,-0.2177869999999999,1.240355,4.105467,-0.1156789999999999
233,0.432654,0.862166,-0.2635699999999999,-0.2159329999999999,-0.963957,1.460851
234,0.4519149999999999,0.846525,-0.2813489999999999,-0.010723,-2.592542,1.180732
235,0.449731,0.8635879999999999,-0.2279139999999999,0.3604489999999999,-0.789431,0.157632
236,0.431802,0.8853770000000001,-0.172165,0.25727,-0.145128,-0.414489
237,0.404945,0.907938,-0.1079599999999999,-0.078239,0.778296,0.168889
238,0.352321,0.935169,-0.036244,0.286854,1.541714,-0.188869
239,0.289256,0.957065,0.018491,0.2271929999999999,0.185513,-0.348829
240,0.244219,0.967636,0.063412,0.752943,0.449402,-0.047513
241,0.2188449999999999,0.97062,0.099938,0.98135,0.1936109999999999,-0.498299
242,0.2087429999999999,0.971469,0.112509,0.462064,-0.098025,-0.6843319999999999
243,0.2053829999999999,0.973364,0.101801,-0.226501,0.008447,-0.309076
244,0.192001,0.978245,0.078455,-0.212189,-0.287907,-0.1677799999999999
245,0.174513,0.983257,0.0523,-0.345182,-0.667797,-0.156014
246,0.158317,0.987068,0.024852,-0.291038,-1.067268,-0.101314
247,0.151331,0.988461,-0.005362,-0.032694,-1.332288,-0.107904
248,0.1587589999999999,0.98651,-0.039737,0.175683,-1.128814,0.146808
249,0.177643,0.98052,-0.083728,0.0589289999999999,-0.739279,0.127216
250,0.206713,0.969115,-0.13444,1.374417,0.285127,-0.55274
251,0.261667,0.938683,-0.224487,2.232749,1.78849,0.105956
252,0.346201,0.8881600000000001,-0.302171,0.848715,2.294335,0.533692
253,0.388332,0.8456520000000001,-0.366145,-1.256252,1.123373,0.225687
254,0.4231729999999999,0.813599,-0.398715,-0.645142,0.7074739999999999,0.306643
255,0.455563,0.780994,-0.427203,-0.299405,0.358563,0.281665
256,0.480965,0.751997,-0.450739,0.458397,0.144701,-0.045263
257,0.496256,0.732111,-0.466622,0.321401,0.336264,-0.2066719999999999
258,0.498502,0.722242,-0.4794319999999999,0.6517970000000001,0.48102,-0.334396
259,0.490065,0.729954,-0.47644,0.694017,-0.4419439999999999,-0.081238
260,0.479952,0.745849,-0.461895,0.56709,-0.372558,0.0006519999999999
261,0.470767,0.763105,-0.4427649999999999,0.106366,-0.450651,0.1085049999999999
262,0.460901,0.78191,-0.4197369999999999,-0.652125,-1.006549,0.29849
263,0.449524,0.803066,-0.391156,-0.689408,-1.120464,0.291623
264,0.439503,0.823735,-0.358174,-0.712055,-0.976475,0.401692
265,0.430788,0.841685,-0.325542,-0.5946520000000001,-0.8797709999999999,0.19305
266,0.419997,0.8544120000000001,-0.305897,-0.5825640000000001,-0.869075,0.112416
267,0.406385,0.8610709999999999,-0.305611,-0.669493,-0.446611,-0.244865
268,0.394843,0.8614569999999999,-0.319344,-0.576788,1.294839,-0.336387
269,0.382473,0.8684639999999999,-0.315396,0.2499579999999999,4.177068,0.556546
270,0.382544,0.8634139999999999,-0.328887,0.150964,0.8229879999999999,0.340057
271,0.391405,0.852434,-0.346625,-0.557405,-0.5153979999999999,0.745826
272,0.402255,0.8484799999999999,-0.343894,0.102963,-1.268203,0.464743
273,0.392023,0.864668,-0.314096,0.559393,-0.283232,-0.0651149999999999
274,0.380335,0.883249,-0.274237,0.103735,0.4538029999999999,0.428015
275,0.36733,0.902478,-0.224923,0.037226,0.7605930000000001,0.411705
276,0.328388,0.930485,-0.162318,0.06213,0.978649,0.19575
277,0.269154,0.957383,-0.104696,0.390209,0.0677789999999999,-0.235255
278,0.219051,0.973898,-0.059375,0.813237,0.363215,-0.101117
279,0.183131,0.983011,-0.011722,1.246022,0.253729,-0.216488
280,0.167371,0.985526,0.026645,0.7928189999999999,0.132272,-0.5499149999999999
281,0.152473,0.987314,0.044136,0.245324,0.127158,-0.439659
282,0.129417,0.990479,0.046756,0.256555,-0.244004,-0.228198
283,0.101774,0.993785,0.0449139999999999,-0.0608649999999999,-0.151286,-0.0957409999999999
284,0.074393,0.9966,0.035193,-0.078788,-0.5242939999999999,-0.168936
285,0.0534049999999999,0.998472,0.013655,0.029786,-0.819852,-0.2083719999999999
286,0.042893,0.998941,-0.016189,0.0899799999999999,-1.022683,-0.104813
287,0.0423959999999999,0.997906,-0.048701,0.066796,-1.24081,0.034953
288,0.052074,0.99488,-0.086532,0.007481,-1.130134,0.078704
289,0.067333,0.98868,-0.134027,-0.054638,-0.95151,0.169076
290,0.084695,0.977251,-0.194407,0.111411,-0.540956,-0.399556
291,0.111972,0.951362,-0.286984,1.695188,1.262001,-0.4499689999999999
292,0.188383,0.922982,-0.335568,0.4403859999999999,2.616355,0.45805
293,0.225662,0.890832,-0.394315,-0.612366,1.5191709999999998,0.1650059999999999
294,0.244668,0.8651629999999999,-0.437745,-0.491357,0.8378549999999999,0.466157
295,0.268173,0.8361290000000001,-0.478502,0.366043,0.319664,0.2258619999999999
296,0.299736,0.808024,-0.507196,0.7460100000000001,0.2397659999999999,0.051965
297,0.332069,0.7885949999999999,-0.517532,0.555504,0.406198,-0.518829
298,0.348973,0.780203,-0.519127,1.005641,-0.107428,-0.052971
299,0.358856,0.778428,-0.515038,0.847565,-0.133851,-0.020332
300,0.358203,0.7847970000000001,-0.505744,0.326139,-0.524833,-0.078088
301,0.348034,0.79691,-0.493759,-0.149853,-0.592061,0.308105
302,0.33125,0.8106479999999999,-0.4828199999999999,-0.352719,-0.778864,0.475099
303,0.311507,0.82631,-0.4692199999999999,-0.667708,-1.076905,0.8416110000000001
304,0.300937,0.845118,-0.4418189999999999,-0.7768729999999999,-0.926875,0.623215
305,0.298647,0.862411,-0.408715,-0.68123,-0.999069,0.430245
306,0.3054,0.87498,-0.3756739999999999,-0.66859,-0.961619,0.239611
307,0.317178,0.8819309999999999,-0.348691,-0.8673790000000001,-0.885242,0.134702
308,0.332956,0.884064,-0.327962,-1.061548,-0.629533,0.074895
309,0.351458,0.8849790000000001,-0.305415,-0.781985,-0.09732,0.0588179999999999
310,0.342755,0.8921600000000001,-0.294207,1.039722,4.315985,0.7354149999999999
311,0.342486,0.891151,-0.297559,0.923246,1.819252,0.5251600000000001
312,0.345156,0.8925379999999999,-0.290227,0.66638,-0.364523,0.411031
313,0.348736,0.8988430000000001,-0.26543,0.587619,-1.290215,0.235461
314,0.33537,0.913761,-0.22925,0.477832,-0.767658,-0.017637
315,0.317395,0.927483,-0.197539,0.4187649999999999,-0.125726,-0.144701
316,0.28918,0.946705,-0.141812,0.562261,0.976665,0.246655
317,0.243179,0.967359,-0.071171,0.727128,1.002901,0.2033579999999999
318,0.199994,0.979772,0.005683,0.750156,0.448054,0.083047
319,0.167776,0.982737,0.0778539999999999,0.8742770000000001,0.744237,-0.365116
320,0.152274,0.980444,0.124597,0.4185109999999999,0.6597850000000001,-0.73388
321,0.1363329999999999,0.980574,0.140956,0.332447,0.766206,-0.242168
322,0.113969,0.982549,0.1469359999999999,-0.0578929999999999,0.377177,-0.257059
323,0.087601,0.985926,0.1423309999999999,-0.05452,-0.273401,-0.434201
324,0.063224,0.990857,0.1191059999999999,-0.036857,-0.674725,-0.282375
325,0.045301,0.995673,0.081021,-0.043837,-1.004646,-0.097637
326,0.036517,0.998491,0.040816,0.0532659999999999,-1.419008,-0.085341
327,0.04133,0.999131,0.003553,0.058203,-1.485536,0.211855
328,0.0597419999999999,0.99747,-0.038333,0.023525,-1.011889,0.258563
329,0.090982,0.992054,-0.086809,0.2143159999999999,-0.71085,-0.289946
330,0.138075,0.977156,-0.16152,0.8596969999999999,-0.006986,-0.535608
331,0.222753,0.936896,-0.269436,0.8722639999999999,2.134851,0.033337
332,0.303195,0.886534,-0.349457,-0.265323,1.951357,-0.014846
333,0.345785,0.841621,-0.414846,-0.425238,1.228905,-0.057352
334,0.38233,0.803574,-0.456163,-0.778753,1.107452,0.504609
335,0.40209,0.76147,-0.508409,0.085887,0.5174,0.071626
336,0.41344,0.731582,-0.542077,0.8315549999999999,0.332536,-0.1565619999999999
337,0.4305,0.7157979999999999,-0.5498149999999999,0.70155,0.186577,-0.393514
338,0.438381,0.71257,-0.5477770000000001,0.997455,0.3719639999999999,-0.550429
339,0.424954,0.721925,-0.5461060000000001,0.51575,-0.2544869999999999,-0.555137
340,0.401086,0.7339060000000001,-0.548184,0.66291,-0.855457,-0.107349
341,0.3915389999999999,0.7372449999999999,-0.5506,0.101824,-0.973893,0.366426
342,0.384936,0.740834,-0.550439,-0.634127,-1.113758,0.826501
343,0.386603,0.7544770000000001,-0.5303720000000001,-0.933036,-1.4282290000000002,0.92678
344,0.401411,0.779123,-0.4814859999999999,-0.833723,-1.011133,0.869151
345,0.4176649999999999,0.8038569999999999,-0.42351,-0.753953,-0.764901,0.758608
346,0.427054,0.823484,-0.373483,-0.8394229999999999,-0.744733,0.55903
347,0.431397,0.839527,-0.330273,-1.068237,-0.667057,0.1652799999999999
348,0.4382819999999999,0.8506940000000001,-0.290202,-0.912022,-0.199312,-0.384801
349,0.458097,0.855243,-0.242269,-0.546049,4.992322,-0.128992
350,0.451497,0.863099,-0.226269,0.6648970000000001,0.537185,0.22662
351,0.454329,0.8623120000000001,-0.223586,0.01903,0.039619,0.569258
352,0.4494479999999999,0.8678,-0.211913,0.161804,-1.118395,0.473372
353,0.432167,0.882756,-0.184282,0.4337229999999999,-1.315129,0.300767
354,0.401977,0.904519,-0.142291,0.281632,-0.4634939999999999,0.2117639999999999
355,0.364616,0.92644,-0.093543,-0.023765,0.490095,0.125693
356,0.310208,0.950257,-0.027707,0.059939,0.778884,-0.027239
357,0.23939,0.969841,0.045653,0.980733,1.067467,-0.199538
358,0.19868,0.972816,0.118903,1.203023,0.4001699999999999,-0.284781
359,0.172826,0.971454,0.162451,1.284709,0.238507,-0.629293
360,0.159218,0.971436,0.1759099999999999,0.51461,0.292877,-0.688591
361,0.139485,0.973515,0.181094,0.071696,0.472988,-0.228823
362,0.116166,0.97519,0.18839,-0.121202,0.255156,-0.36057
363,0.092093,0.978431,0.18486,-0.221106,-0.451225,-0.529755
364,0.074456,0.983716,0.163529,-0.060723,-0.8177,-0.137498
365,0.067005,0.988812,0.133207,0.085125,-1.198055,-0.112928
366,0.076058,0.991438,0.106058,0.118111,-1.346983,-0.046473
367,0.101836,0.992024,0.0741629999999999,-0.100371,-0.8272139999999999,-0.091283
368,0.141511,0.989422,0.031656,-0.089875,-0.539547,-0.727533
369,0.202946,0.977973,-0.0486529999999999,1.137142,0.939157,-0.278571
370,0.286428,0.945725,-0.153462,0.457483,1.606674,0.5212289999999999
371,0.352517,0.907292,-0.229217,-0.003168,1.755916,0.262207
372,0.376607,0.875624,-0.30239,-0.436146,1.169176,0.054572
373,0.400405,0.839965,-0.366231,-0.633605,0.902024,0.386586
374,0.427079,0.808242,-0.405387,0.136917,0.011506,-0.280923
375,0.4482319999999999,0.777289,-0.441476,0.224513,-0.027411,-0.391364
376,0.460417,0.758366,-0.461399,0.206117,0.384502,-0.233807
377,0.472833,0.752257,-0.4588359999999999,0.87876,0.015535,-0.186886
378,0.484426,0.7482310000000001,-0.453292,0.344905,-0.3038949999999999,-0.169663
379,0.488385,0.747093,-0.450914,0.188632,-0.541618,-0.0573409999999999
380,0.492575,0.747021,-0.446454,-0.370581,-0.766796,0.126157
381,0.4840859999999999,0.7535970000000001,-0.444684,-0.8684700000000001,-1.481762,0.642163
382,0.478687,0.77361,-0.4151829999999999,-0.926716,-1.668462,0.985556
383,0.48415,0.805149,-0.342525,-0.964985,-1.150257,0.935802
384,0.488083,0.82976,-0.270669,-0.865555,-0.834887,0.5111319999999999
385,0.486885,0.8443649999999999,-0.223561,-0.680702,-0.932927,0.096608
386,0.486534,0.8497600000000001,-0.202931,-1.104759,-0.470701,-0.35522
387,0.504512,0.8419120000000001,-0.191416,-0.383662,0.686805,-1.090201
388,0.552165,0.817439,-0.163997,0.998342,7.114155,0.577907
389,0.581966,0.795138,-0.170471,-0.14561,0.073301,0.121414
390,0.5827260000000001,0.788068,-0.198413,-1.033684,-0.710386,0.781558
391,0.558096,0.812717,-0.1673599999999999,0.2321869999999999,-2.250888,0.526796
392,0.508667,0.854189,-0.1077299999999999,-0.1017,-0.081103,0.796771
393,0.446585,0.89317,-0.0528789999999999,-0.011267,0.509983,0.235725
394,0.381121,0.924487,0.007568,0.5037659999999999,1.51843,0.235031
395,0.3059469999999999,0.947578,0.092066,0.932761,0.376259,-0.371271
396,0.261988,0.949552,0.1723299999999999,1.588064,0.4239529999999999,-0.727247
397,0.233152,0.948271,0.2154199999999999,1.144335,0.2446,-1.26669
398,0.219376,0.951207,0.216941,-0.099289,0.360576,-0.624091
399,0.204037,0.957234,0.2050739999999999,-0.38844,0.530208,-0.018321
400,0.178261,0.964083,0.196854,-0.251366,-0.111895,-0.090912
401,0.150865,0.972046,0.179865,-0.174669,-0.3935389999999999,-0.219965
402,0.128147,0.979038,0.158265,-0.074238,-0.8321569999999999,-0.241029
403,0.119782,0.983199,0.137683,0.285232,-1.624694,-0.17052
404,0.1375569999999999,0.983604,0.116559,0.293625,-1.105415,-0.2349369999999999
405,0.169593,0.982514,0.076744,-0.221534,-0.76294,-0.013755
406,0.2119849999999999,0.976958,0.024523,-0.2933449999999999,-0.701232,-0.667223
407,0.266895,0.962327,-0.051775,0.918865,1.089278,-1.1844
408,0.343412,0.925064,-0.162216,0.461306,2.223481,0.809371
409,0.4209449999999999,0.877973,-0.2279429999999999,-0.245911,2.322833,-0.067314
410,0.448531,0.84186,-0.300136,-0.3654469999999999,0.7068,0.384731
411,0.467168,0.810728,-0.352798,-0.358739,0.210192,0.222656
412,0.4835569999999999,0.7856029999999999,-0.385995,0.33526,-0.030766,-0.425605
413,0.493938,0.760536,-0.421429,0.600453,0.086983,-0.54555
414,0.506332,0.7346229999999999,-0.451608,0.4877479999999999,0.290539,-0.452856
415,0.515388,0.7249220000000001,-0.457007,0.776283,-0.297172,-0.102792
416,0.510193,0.7299479999999999,-0.45483,0.414901,-0.5525800000000001,-0.249546
417,0.502495,0.73936,-0.44815,-0.313636,-0.660579,0.035171
418,0.480501,0.755667,-0.445061,-0.8814860000000001,-1.164724,0.641991
419,0.454775,0.778586,-0.432407,-0.910952,-1.355643,0.66875
420,0.4491699999999999,0.8057979999999999,-0.385911,-0.822995,-0.969769,0.846406
421,0.4595609999999999,0.831466,-0.312184,-0.791013,-0.793593,0.462346
422,0.468287,0.8479610000000001,-0.248311,-0.6295109999999999,-0.8428959999999999,0.036778
423,0.4725789999999999,0.855992,-0.209612,-1.01483,-0.28368,-0.241057
424,0.482361,0.852878,-0.199789,-0.337036,0.302411,-0.548273
425,0.519371,0.8371860000000001,-0.171354,0.165841,6.106082,0.5050180000000001
426,0.5585060000000001,0.816257,-0.147594,-0.160435,3.847058,0.322322
427,0.574341,0.802465,-0.16177,-0.606064,0.077829,0.314785
428,0.5568420000000001,0.817022,-0.149638,0.4979979999999999,-2.043141,0.261775
429,0.517887,0.848619,-0.107826,-0.120915,-0.446,0.536354
430,0.461081,0.885423,-0.05846,0.026514,0.09761,0.091999
431,0.396881,0.917844,-0.005815,1.153748,1.449603,0.181032
432,0.320484,0.945125,0.063358,1.202496,1.238225,0.085369
433,0.255517,0.956139,0.143157,0.875709,0.098061,-0.290831
434,0.221874,0.951845,0.211531,0.910801,0.493834,-0.8542770000000001
435,0.200295,0.949067,0.243178,0.63021,0.302062,-1.0044540000000002
436,0.181285,0.952337,0.245299,0.254613,0.286188,-0.700286
437,0.156306,0.95661,0.245862,-0.4968979999999999,-0.0117849999999999,-0.479489
438,0.120318,0.962219,0.2442119999999999,-0.525836,-0.214034,-0.523097
439,0.085463,0.969153,0.231125,-0.409652,-0.299948,-0.309235
440,0.058141,0.976851,0.2058219999999999,0.105524,-1.449385,-0.19743
441,0.045572,0.983319,0.176034,0.357977,-1.589077,-0.087198
442,0.060938,0.986824,0.149819,0.337988,-1.136833,-0.197411
443,0.092562,0.989715,0.10899,-0.113176,-0.928817,0.1115299999999999
444,0.134792,0.989554,0.050956,0.144169,-0.585562,-0.859916
445,0.194451,0.980164,-0.038103,1.916893,1.4716790000000002,-0.499845
446,0.297051,0.942867,-0.15083,-0.13865,2.500264,0.459851
447,0.36923,0.898545,-0.237221,-0.404676,1.883666,-0.348808
448,0.39186,0.864915,-0.313618,-0.535064,1.106658,0.383748
449,0.426904,0.829015,-0.361215,-0.461008,0.997111,0.2687469999999999
450,0.453113,0.79191,-0.409337,0.434857,-0.021265,-0.321711
451,0.470516,0.761772,-0.44532,0.423192,0.373788,-0.474815
452,0.484797,0.743,-0.461426,0.699041,0.381847,-0.069473
453,0.499477,0.733024,-0.461725,0.691426,0.101845,0.029077
454,0.508829,0.725793,-0.4629359999999999,-0.010736,-0.699593,-0.386338
455,0.51905,0.7204510000000001,-0.459924,-0.242286,-0.731224,-0.232673
456,0.510473,0.727395,-0.4585899999999999,-0.88561,-1.729455,0.8470030000000001
457,0.492309,0.748117,-0.444909,-1.013259,-1.540643,1.239526
458,0.484027,0.783968,-0.3887199999999999,-1.026706,-1.402162,1.100603
459,0.476067,0.8206690000000001,-0.3159949999999999,-0.711098,-0.928289,0.536957
460,0.4657229999999999,0.8430790000000001,-0.268902,-0.601114,-0.8430639999999999,0.151257
461,0.459604,0.853367,-0.246004,-1.068597,-0.41135,-0.0693039999999999
462,0.465618,0.8538379999999999,-0.232699,-1.04417,1.266874,-1.183164
463,0.494789,0.845987,-0.198692,1.047616,7.041648,0.597877
464,0.5194880000000001,0.8325229999999999,-0.192419,-0.5659810000000001,-1.5750309999999998,0.584906
465,0.549083,0.797837,-0.248903,-1.011851,-1.6851200000000002,1.156512
466,0.554817,0.793089,-0.25135,0.553795,-2.251463,0.7718729999999999
467,0.536295,0.823895,-0.183225,0.464208,-0.974866,0.563901
468,0.482407,0.868091,-0.116995,0.106689,0.699429,-0.636988
469,0.412842,0.908142,-0.069462,0.870941,2.076584,0.558384
470,0.328691,0.944384,-0.009228,0.538008,1.959302,-0.11266
471,0.275091,0.960575,0.0400579999999999,0.32522,-0.10944,-0.090732
472,0.242978,0.965937,0.088948,1.572986,0.04505,-0.460362
473,0.223546,0.965824,0.131122,1.026347,-0.029057,-0.693088
474,0.2096309999999999,0.965569,0.153993,-0.1743829999999999,-0.070549,-0.54506
475,0.193923,0.966021,0.170821,-0.267882,0.063322,-0.314986
476,0.171663,0.968263,0.181606,-0.7325,0.221907,-0.1665
477,0.144141,0.973137,0.179469,-0.403983,-0.2111289999999999,-0.2386579999999999
478,0.122829,0.979738,0.158144,-0.190014,-0.682878,-0.197283
479,0.111924,0.985698,0.12592,0.155533,-1.1527969999999998,-0.01888
480,0.117844,0.98828,0.096948,0.346755,-1.100066,-0.036661
481,0.143324,0.987672,0.062829,-0.051161,-0.867158,0.113257
482,0.179412,0.983703,0.011182,-0.107848,-0.621276,-0.5133800000000001
483,0.2300989999999999,0.971426,-0.058074,1.780384,0.808024,-0.562135
484,0.322008,0.931468,-0.169312,0.178648,1.994588,0.1425789999999999
485,0.4073239999999999,0.875449,-0.260127,-0.1630619999999999,1.866739,-0.137303
486,0.435306,0.8376620000000001,-0.329882,-0.75722,1.220642,0.170779
487,0.452553,0.8084020000000001,-0.376396,-0.414757,0.3195429999999999,0.165855
488,0.4674529999999999,0.774741,-0.425741,0.234176,0.037576,-0.062662
489,0.478835,0.742333,-0.46867,0.29448,-0.204704,-0.346027
490,0.481937,0.727521,-0.488306,0.1567049999999999,0.189944,-0.211523
491,0.485689,0.724579,-0.488962,0.8045640000000001,0.025375,0.193048
492,0.495606,0.7243310000000001,-0.479283,0.271514,-0.23875,-0.133068
493,0.503061,0.731028,-0.460999,-0.216577,-0.520426,0.0189669999999999
494,0.512785,0.742397,-0.431149,-0.676298,-0.780742,0.032223
495,0.514818,0.760464,-0.395788,-0.8316969999999999,-1.285748,0.414419
496,0.5132220000000001,0.779834,-0.358403,-0.950416,-1.254657,0.7870229999999999
497,0.514312,0.8005180000000001,-0.307643,-0.8426809999999999,-0.936168,0.6112770000000001
498,0.511731,0.8191930000000001,-0.258929,-0.66084,-0.892236,0.1968099999999999
499,0.501024,0.833283,-0.233675,-0.955049,-0.635849,-0.223463
500,0.486763,0.839724,-0.240655,-0.410987,-0.095324,-1.758445
501,0.483124,0.8375309999999999,-0.255191,-0.96309,3.056039,2.079089
502,0.492912,0.8447819999999999,-0.208253,0.353676,1.961492,0.047258
503,0.509117,0.831685,-0.221557,-0.4032969999999999,-1.017568,1.069351
504,0.513566,0.821984,-0.246133,-0.493302,-1.364587,1.185006
505,0.503065,0.8387370000000001,-0.208407,0.625933,-0.534615,0.3719659999999999
506,0.473489,0.868771,-0.145021,0.5269229999999999,-0.342359,0.16881
507,0.434404,0.897523,-0.075712,0.0285629999999999,0.351485,0.0996679999999999
508,0.383999,0.92332,-0.003207,0.087864,1.2397200000000002,-0.201566
509,0.322957,0.944207,0.064465,0.358119,0.612571,-0.376263
510,0.275617,0.953873,0.1189279999999999,0.8718440000000001,0.451202,-0.32274
511,0.241436,0.955762,0.167958,0.8545729999999999,0.013141,-0.794271
512,0.22388,0.956386,0.187578,-0.05582,-0.125514,-0.664812
513,0.211863,0.959882,0.183637,-0.290614,0.293323,-0.198041
514,0.191717,0.965563,0.175827,-0.2559099999999999,-0.264803,-0.185928
515,0.168924,0.972519,0.160164,-0.236596,-0.6472939999999999,-0.311699
516,0.150389,0.979005,0.1375279999999999,-0.145781,-1.145753,-0.231202
517,0.142786,0.983475,0.1112269999999999,0.164129,-1.341583,-0.197958
518,0.1524859999999999,0.98476,0.083538,0.177638,-0.981357,-0.03506
519,0.177265,0.983229,0.042661,-0.005558,-0.77954,0.208971
520,0.212456,0.977131,-0.007844,0.48838,-0.334949,-1.209502
521,0.262216,0.961243,-0.085086,1.481345,2.088119,0.38309
522,0.348401,0.919533,-0.18183,0.325336,2.073844,0.4245359999999999
523,0.405436,0.8755809999999999,-0.262617,-0.792887,1.836837,0.117766
524,0.4294449999999999,0.847217,-0.312712,-0.629625,1.268231,0.49861
525,0.455874,0.81645,-0.3543699999999999,-0.4537529999999999,1.07532,0.319641
526,0.476331,0.787311,-0.391459,0.616016,-0.157947,-0.148672
527,0.491139,0.761761,-0.422484,0.361751,0.071735,-0.493913
528,0.495266,0.7442770000000001,-0.448056,0.587696,0.4423689999999999,0.061673
529,0.4899979999999999,0.7462989999999999,-0.450478,1.063057,-0.262474,-0.257423
530,0.490033,0.750063,-0.4441449999999999,0.274875,-0.5998399999999999,-0.140449
531,0.497554,0.7563310000000001,-0.424729,-0.152964,-0.623106,-0.044708
532,0.5012479999999999,0.766045,-0.402388,-0.623471,-1.022515,0.315397
533,0.490836,0.782007,-0.384103,-0.8613040000000001,-1.26156,0.783502
534,0.475674,0.804595,-0.355458,-0.8870049999999999,-1.071472,0.8434950000000001
535,0.462016,0.828356,-0.316791,-0.795481,-1.042284,0.575259
536,0.453921,0.845965,-0.279796,-0.761019,-0.991733,0.35722
537,0.452401,0.853826,-0.257492,-0.904915,-0.957006,-0.009186
538,0.457459,0.850089,-0.260897,-1.012299,-0.4975199999999999,-1.898664
539,0.474122,0.8419969999999999,-0.257366,-0.5805060000000001,5.859389,3.113354
540,0.499274,0.835825,-0.228273,0.902535,3.916647,-0.202345
541,0.5306069999999999,0.801316,-0.27629,-0.99368,-2.213288,1.542724
542,0.534572,0.789018,-0.302772,0.401219,-1.754747,0.617866
543,0.528846,0.818078,-0.225958,0.5643699999999999,-0.442193,0.365515
544,0.495555,0.8550719999999999,-0.152522,0.150319,0.5432279999999999,-0.446371
545,0.4522989999999999,0.8855139999999999,-0.1061859999999999,0.288866,1.851714,0.477601
546,0.398994,0.916084,-0.039721,-0.038398,1.450234,-0.071195
547,0.351721,0.936052,0.009062,0.345361,-0.137025,0.13402
548,0.312683,0.947565,0.065817,1.328918,0.410727,-0.281088
549,0.283304,0.950284,0.129154,1.167807,0.274814,-0.7278020000000001
550,0.265835,0.951187,0.1567049999999999,-0.000408,0.50322,-0.630918
551,0.258808,0.950701,0.17078,-0.400928,0.479246,-0.131825
552,0.239945,0.955073,0.173902,-0.284027,-0.128825,-0.262662
553,0.214836,0.963226,0.161313,-0.23159,-0.598586,-0.486935
554,0.193766,0.971885,0.1337,-0.192881,-0.790244,-0.350314
555,0.182092,0.978077,0.100938,-0.036279,-1.224064,-0.0699169999999999
556,0.184122,0.980175,0.073067,0.282873,-1.108181,-0.182259
557,0.201854,0.97842,0.043947,0.134984,-0.970211,-0.12845
558,0.2272269999999999,0.973831,-0.002255,-0.131204,-0.6091,-0.128268
559,0.259105,0.964101,-0.057944,0.731923,-0.017599,-1.526468
560,0.300858,0.941228,-0.153497,1.544968,2.7558860000000003,0.676706
561,0.37984,0.894667,-0.235118,-0.526995,1.811464,0.0868179999999999
562,0.431662,0.8491879999999999,-0.304196,-1.083197,1.612802,0.297086
563,0.4620069999999999,0.8187760000000001,-0.3407989999999999,-0.465989,1.12913,0.25245
564,0.486545,0.790373,-0.372254,0.293072,-0.052046,0.079651
565,0.502541,0.7630859999999999,-0.406376,0.694999,-0.10296,-0.22694
566,0.508959,0.739262,-0.440957,0.144331,0.2791099999999999,-0.145041
567,0.5153909999999999,0.728353,-0.4515149999999999,0.849691,-0.461049,0.098946
568,0.513608,0.736116,-0.44083,0.4454979999999999,-0.451021,-0.226208
569,0.505084,0.74947,-0.42799,-0.1471579999999999,-0.7067,-0.124622
570,0.497696,0.7684340000000001,-0.4022409999999999,-0.546158,-0.709047,-0.097942
571,0.492781,0.786361,-0.3725469999999999,-0.708281,-0.767288,0.154621
572,0.485431,0.8009689999999999,-0.350421,-0.795245,-0.934437,0.489108
573,0.475145,0.815785,-0.329728,-0.77437,-1.002324,0.627045
574,0.460418,0.831781,-0.3100719999999999,-0.6145470000000001,-0.990396,0.591017
575,0.448796,0.843985,-0.293699,-0.5202829999999999,-0.975943,0.336301
576,0.441953,0.849449,-0.288272,-0.781141,-0.800423,0.227146
577,0.446988,0.8487819999999999,-0.282416,-0.319714,-0.668683,-1.842371
578,0.472564,0.852875,-0.221977,0.556138,6.935318,0.713036
579,0.499983,0.840952,-0.206886,-0.100111,1.382268,0.038383
580,0.514514,0.817764,-0.257921,-0.7007479999999999,-1.436112,1.389879
581,0.5042369999999999,0.815876,-0.282983,0.110021,-2.4835700000000003,0.922967
582,0.479697,0.846866,-0.229555,0.77488,-0.325976,0.536592
583,0.451838,0.876409,-0.16654,0.113867,0.276728,-0.2278079999999999
584,0.4152939999999999,0.903854,-0.102781,0.312658,1.4159700000000002,0.620527
585,0.364153,0.931075,-0.02181,-0.024034,0.873964,-0.384791
586,0.317906,0.947735,0.026788,-0.136784,-0.041561,-0.179482
587,0.277801,0.957302,0.0798789999999999,1.321549,0.59145,-0.189346
588,0.252984,0.957973,0.13516,1.129447,0.251347,-0.455335
589,0.238333,0.958147,0.158529,0.801538,-0.0294819999999999,-0.554129
590,0.222216,0.959883,0.170953,-0.328753,0.267839,-0.389947
591,0.198811,0.964369,0.174494,-0.405858,0.057574,-0.38537
592,0.169576,0.972209,0.16135,-0.315206,-0.20396,-0.398563
593,0.146302,0.980451,0.131501,-0.070237,-1.041486,-0.158525
594,0.132458,0.986349,0.097735,0.056385,-1.238714,-0.080966
595,0.131553,0.988765,0.070852,0.365136,-1.191158,0.050288
596,0.148992,0.987881,0.043297,-0.038977,-0.79498,0.0449139999999999
597,0.177739,0.984063,0.003475,0.6165729999999999,-0.54989,-1.069165
598,0.217444,0.974629,-0.052925,2.032556,2.034297,0.136681
599,0.297129,0.942698,-0.151725,0.6234029999999999,2.263372,0.499976
600,0.358008,0.905271,-0.228696,-0.510733,1.9135,0.218915
601,0.376052,0.8790889999999999,-0.292876,-0.592788,0.96106,0.322158
602,0.402909,0.8484139999999999,-0.343288,-0.484071,1.153463,0.345363
603,0.4303869999999999,0.819501,-0.3783849999999999,0.378253,0.111438,0.091108
604,0.4592779999999999,0.792126,-0.401983,0.334652,0.1296119999999999,-0.329538
605,0.473026,0.7711720000000001,-0.426066,0.271893,0.417549,-0.455496
606,0.474362,0.757545,-0.4484399999999999,0.97324,0.043847,0.021575
607,0.474914,0.7546430000000001,-0.4527279999999999,-0.037002,-0.650257,-0.054352
608,0.4802439999999999,0.7579229999999999,-0.441485,0.0286209999999999,-0.516514,-0.004499
609,0.485631,0.7639199999999999,-0.4249479999999999,-0.377705,-0.76894,0.2118429999999999
610,0.4877399999999999,0.775295,-0.4012719999999999,-0.6859970000000001,-1.140117,0.42448
611,0.487026,0.793571,-0.364747,-0.8452559999999999,-1.049583,0.640519
612,0.481647,0.816658,-0.317923,-0.942325,-1.114601,0.5937560000000001
613,0.473638,0.8379719999999999,-0.27103,-0.808859,-1.11971,0.416446
614,0.465826,0.8531209999999999,-0.2348989999999999,-0.716925,-1.051852,0.045324
615,0.45878,0.859275,-0.226176,-0.972604,-0.507804,-0.595724
616,0.4615229999999999,0.8533709999999999,-0.242366,-0.663275,0.972221,-1.532948
617,0.484881,0.84336,-0.231564,2.233396,7.087762,0.144314
618,0.521334,0.812995,-0.259302,-0.657229,-0.226539,0.8451629999999999
619,0.5382680000000001,0.777846,-0.324364,-0.904021,-2.638,1.7177360000000002
620,0.546246,0.7750739999999999,-0.317594,-0.224819,-2.03989,0.986448
621,0.530876,0.814362,-0.2344639999999999,0.442009,-0.020325,0.224348
622,0.496239,0.852007,-0.166787,0.121788,0.261152,-0.413657
623,0.459126,0.880496,-0.117968,0.3190719999999999,2.005109,0.662936
624,0.404392,0.913393,-0.046547,-0.316303,0.491926,-0.20272
625,0.355456,0.934679,-0.0033009999999999,0.175183,-0.1741349999999999,-0.228831
626,0.315613,0.947511,0.050956,1.538422,0.526443,0.005578
627,0.292084,0.950234,0.108286,1.274612,0.358665,-0.41897
628,0.279744,0.95052,0.135049,0.0832929999999999,0.231731,-0.627358
629,0.262189,0.952983,0.151863,-0.033796,0.535664,-0.0913929999999999
630,0.233878,0.959014,0.159925,-0.112739,0.158342,-0.214521
631,0.199552,0.967952,0.152418,0.004977,-0.378169,-0.393904
632,0.171778,0.97667,0.128808,-0.012537,-0.797013,-0.395181
633,0.155972,0.982907,0.097723,0.0062439999999999,-1.083539,-0.098914
634,0.1524849999999999,0.985954,0.068032,0.1431839999999999,-1.308372,-0.082421
635,0.163541,0.985758,0.039001,0.083957,-1.095484,0.218217
636,0.186526,0.982442,-0.001468,-0.18175,-0.7150770000000001,-0.1079069999999999
637,0.2221119999999999,0.973836,-0.047909,1.046992,-0.5002800000000001,-0.923069
638,0.292562,0.946757,-0.1343349999999999,1.181636,2.445073,0.481259
639,0.371407,0.902957,-0.216135,-0.199898,1.916043,0.392725
640,0.403335,0.868555,-0.287964,-0.739318,1.025351,0.350861
641,0.420813,0.8387540000000001,-0.345542,-0.434058,0.524299,0.202476
642,0.4427439999999999,0.808157,-0.388395,0.13207,0.001474,0.045408
643,0.47118,0.7769149999999999,-0.417592,0.218807,0.245606,-0.272868
644,0.49351,0.7478600000000001,-0.444011,0.007528,0.588566,-0.3537639999999999
645,0.4989479999999999,0.727633,-0.470739,1.288391,-0.3765739999999999,0.302282
646,0.5070560000000001,0.727753,-0.461804,0.710519,-0.1718299999999999,-0.371448
647,0.5106930000000001,0.734062,-0.447592,0.374058,-0.232673,-0.245187
648,0.503868,0.744989,-0.437151,-0.2799,-0.779458,0.230791
649,0.494953,0.758258,-0.424333,-0.584446,-1.225559,0.322908
650,0.49005,0.773618,-0.401694,-0.6553640000000001,-1.14221,0.376151
651,0.487781,0.793298,-0.364334,-0.8940469999999999,-0.908944,0.48796
652,0.480164,0.813396,-0.32836,-0.7324069999999999,-0.8457600000000001,0.4602569999999999
653,0.467999,0.830298,-0.302611,-0.501095,-0.847052,0.2347699999999999
654,0.459184,0.840316,-0.288115,-0.651475,-0.7561180000000001,0.0249169999999999
655,0.454914,0.8416600000000001,-0.290951,-0.651035,-0.397523,-1.009617
656,0.468473,0.838691,-0.277707,-0.112668,3.617486,1.663998
657,0.492114,0.83472,-0.2470969999999999,1.240628,6.433835,0.091076
658,0.5128010000000001,0.814488,-0.271357,-0.506927,-0.21378,0.78593
659,0.516321,0.798921,-0.30843,-0.470362,-1.518419,1.293584
660,0.496542,0.816872,-0.293525,0.299707,-1.080422,0.8203959999999999
661,0.4702949999999999,0.847383,-0.2464869999999999,0.139141,-0.275346,0.408978
662,0.4424369999999999,0.8765290000000001,-0.189571,0.327704,1.391278,0.24316
663,0.406408,0.904499,-0.129245,0.155375,1.229183,0.285144
664,0.36228,0.929685,-0.066548,-0.071752,0.421252,-0.1684369999999999
665,0.319453,0.947365,-0.020923,1.312673,0.395393,0.019489
666,0.285942,0.957778,0.0297769999999999,1.346184,0.38498,-0.031211
667,0.268492,0.96089,0.067757,0.6227739999999999,-0.09361,-0.4684069999999999
668,0.257053,0.963042,0.0803779999999999,0.002666,-0.007705,-0.277979
669,0.24314,0.966392,0.083411,-0.147162,0.030388,-0.2010569999999999
670,0.227803,0.97041,0.079983,-0.281789,-0.08006,-0.209744
671,0.212544,0.975028,0.064296,-0.2394599999999999,-0.626013,-0.3123579999999999
672,0.203271,0.978342,0.0389399999999999,-0.252023,-0.952433,-0.168822
673,0.202694,0.979199,0.008603,-0.188046,-1.112561,-0.080075
674,0.212258,0.976866,-0.0258569999999999,0.009925,-0.92285,0.2218409999999999
675,0.2340219999999999,0.970274,-0.06159,-0.032224,-0.6890850000000001,-0.151179
676,0.272478,0.955778,-0.1106089999999999,2.025664,0.665941,0.345014
677,0.345315,0.917744,-0.196202,0.253486,1.286175,0.194935
678,0.4047409999999999,0.871216,-0.277777,-0.128603,1.69812,0.200445
679,0.420683,0.840382,-0.341726,-0.858885,0.951,0.270513
680,0.444704,0.806503,-0.3895949999999999,-0.53586,1.0145110000000002,0.342552
681,0.4765029999999999,0.773079,-0.418674,-0.192262,0.464806,0.2431829999999999
682,0.510159,0.7428640000000001,-0.433456,0.384998,0.2497199999999999,-0.112106
683,0.5322020000000001,0.716878,-0.450379,0.3370599999999999,0.682597,-0.4511409999999999
684,0.5374180000000001,0.700375,-0.469736,0.882489,0.628925,-0.232855
685,0.536656,0.6994859999999999,-0.471926,0.672038,-0.347436,0.029207
686,0.538134,0.7056479999999999,-0.460942,0.160795,-0.305593,-0.071467
687,0.535806,0.71408,-0.450551,0.0008759999999999,-0.5139,0.195439
688,0.530234,0.72645,-0.437169,-0.438025,-1.053187,0.398381
689,0.523655,0.747594,-0.408512,-0.63985,-1.120611,0.363636
690,0.51772,0.773622,-0.365333,-0.716604,-0.910844,0.487526
691,0.5112909999999999,0.796624,-0.3224349999999999,-0.690444,-0.7298359999999999,0.3693869999999999
692,0.502722,0.81388,-0.291311,-0.5511689999999999,-0.7629,0.1088609999999999
693,0.495855,0.8250299999999999,-0.271007,-0.559469,-0.8147,-0.010655
694,0.488606,0.8279549999999999,-0.2752219999999999,-0.7801560000000001,-0.3179909999999999,-0.917878
695,0.489461,0.8235299999999999,-0.2867369999999999,-0.649174,2.42061,1.1728
696,0.4953649999999999,0.8258540000000001,-0.269391,0.395596,4.740416000000001,1.264829
697,0.517926,0.805946,-0.2867,-0.2570159999999999,0.7482989999999999,0.533343
698,0.527037,0.784999,-0.32558,-0.310698,-0.100642,1.1193879999999998
699,0.526269,0.786096,-0.324171,0.12699,-1.352029,0.758207
700,0.509595,0.808433,-0.294519,0.19408,-0.422325,0.273126
701,0.495621,0.829253,-0.258247,0.00798,-0.111297,0.0131139999999999
702,0.477915,0.8522219999999999,-0.212853,0.239142,1.0780299999999998,0.384362
703,0.449143,0.8801110000000001,-0.15384,-0.21988,0.395463,-0.131271
704,0.413685,0.903632,-0.110923,-0.125462,0.2106719999999999,-0.192834
705,0.37505,0.923725,-0.077837,0.646968,0.0854,0.035128
706,0.349839,0.936026,-0.038165,0.771011,-0.101783,-0.144224
707,0.3371119999999999,0.941408,-0.009772,0.236573,-0.209657,-0.350458
708,0.328969,0.944332,0.002368,-0.123998,0.001408,-0.288226
709,0.318911,0.947779,-0.000268,-0.248446,-0.114923,-0.083076
710,0.305516,0.952047,-0.015983,-0.249348,-0.484502,-0.020516
711,0.29184,0.955612,-0.04029,-0.279221,-0.8036810000000001,-0.128777
712,0.283038,0.956565,-0.069731,-0.233188,-1.060935,0.094969
713,0.283853,0.953352,-0.102658,-0.148279,-0.902952,0.068798
714,0.295578,0.945868,-0.134007,0.4246979999999999,-0.552878,-0.641536
715,0.323964,0.928902,-0.179387,2.015926,1.093055,0.449864
716,0.3875409999999999,0.8865290000000001,-0.252727,0.3277,1.290671,0.3292199999999999
717,0.4384949999999999,0.8381379999999999,-0.324409,-0.060992,1.689496,0.099235
718,0.449685,0.80792,-0.380845,-0.8374719999999999,0.921557,0.5008100000000001
719,0.4708989999999999,0.777125,-0.417522,-0.555601,0.735997,0.302532
720,0.493179,0.751492,-0.4382109999999999,-0.100815,0.270023,0.32049
721,0.516943,0.729197,-0.44837,0.304407,0.204625,0.196661
722,0.53359,0.707412,-0.4635149999999999,0.2373,0.34752,-0.03676
723,0.542247,0.695921,-0.470804,0.274174,0.298082,-0.149648
724,0.548953,0.6931229999999999,-0.467146,0.441952,-0.161934,0.069196
725,0.5505329999999999,0.698812,-0.4566939999999999,0.075535,-0.3133599999999999,0.067228
726,0.538754,0.7143189999999999,-0.44664,-0.120739,-0.333765,0.276611
727,0.523265,0.73463,-0.431864,-0.392085,-0.649151,0.299006
728,0.508792,0.758999,-0.406257,-0.628375,-0.920956,0.245231
729,0.494258,0.786347,-0.370622,-0.495509,-0.8623360000000001,0.214692
730,0.480752,0.808443,-0.339544,-0.3433469999999999,-0.701083,0.270101
731,0.468847,0.821766,-0.323846,-0.204413,-0.344852,-0.104743
732,0.4566199999999999,0.824034,-0.3353489999999999,-0.22052,-0.253035,-0.226983
733,0.4461779999999999,0.814331,-0.371191,-0.096538,-0.154007,-0.113504
734,0.450063,0.798403,-0.399985,1.625559,2.164838,1.320121
735,0.4770569999999999,0.801241,-0.361141,1.299966,2.859297,2.11343
736,0.48616,0.8069390000000001,-0.335397,-0.393692,0.737617,0.637323
737,0.475955,0.8028350000000001,-0.3590489999999999,-0.391238,-0.70791,0.5207470000000001
738,0.451881,0.808769,-0.376417,0.162957,-0.220619,0.103865
739,0.435313,0.824729,-0.3609969999999999,0.0465449999999999,0.650751,-0.083995
740,0.418641,0.836195,-0.354276,0.01448,0.529513,0.013364
741,0.4062739999999999,0.847686,-0.34112,0.201849,-0.0172259999999999,0.589305
742,0.394581,0.868289,-0.300622,0.125454,-0.028964,0.453866
743,0.378424,0.8879540000000001,-0.261391,-0.079626,0.043457,0.415901
744,0.356335,0.906509,-0.226405,0.054965,0.137452,0.421122
745,0.335525,0.921861,-0.193873,0.217942,0.057951,0.081797
746,0.319821,0.933046,-0.164715,0.2176239999999999,0.0518169999999999,-0.065662
747,0.308013,0.940547,-0.143148,0.233705,0.025029,-0.072627
748,0.297579,0.945474,-0.132351,0.227461,-0.153283,-0.095249
749,0.287666,0.94871,-0.131104,0.115974,-0.199061,-0.07785
750,0.275479,0.951407,-0.137578,0.046268,-0.221914,0.015844
751,0.261471,0.953365,-0.150728,0.024768,-0.283626,0.138796
752,0.246434,0.954534,-0.167708,0.0134849999999999,-0.2428489999999999,0.2412409999999999
753,0.2314969999999999,0.954475,-0.188091,0.022257,-0.2302929999999999,0.283977
754,0.219136,0.951975,-0.213812,0.06277,-0.371408,0.2195949999999999
755,0.2118739999999999,0.946301,-0.244165,0.094416,-0.4200399999999999,0.1591119999999999
756,0.212367,0.937137,-0.276887,0.127644,-0.39075,0.249055
757,0.218967,0.923991,-0.313507,0.0966,-0.3245639999999999,0.122254
758,0.232384,0.906193,-0.353278,0.246376,0.108868,-0.157434
759,0.256807,0.884913,-0.388552,0.864607,0.426443,0.202303
760,0.293184,0.8646459999999999,-0.407951,0.353026,0.68284,0.027183
761,0.317825,0.849194,-0.4217229999999999,0.058015,0.602695,0.088395
762,0.331095,0.839658,-0.430515,0.263632,0.4115319999999999,0.052113
763,0.332893,0.8373649999999999,-0.433584,0.4577569999999999,0.24874,0.157018
764,0.327758,0.842168,-0.428159,0.467209,0.184077,0.210446
765,0.32943,0.848543,-0.4140569999999999,0.465538,0.177702,0.196345
766,0.338865,0.8549680000000001,-0.392673,0.259447,-0.070102,0.1312289999999999
767,0.350936,0.8620969999999999,-0.365546,0.171616,-0.16416,0.251701
768,0.36056,0.870692,-0.33449,0.09844,-0.221004,0.219256
769,0.363579,0.8811629999999999,-0.302245,0.036125,-0.260802,0.268096
770,0.359284,0.89394,-0.267914,-0.163208,-0.4938079999999999,0.2786099999999999
771,0.347573,0.90814,-0.233379,-0.189873,-0.526212,0.217892
772,0.330676,0.921643,-0.203021,-0.2024099999999999,-0.569928,0.164187
773,0.3105949999999999,0.933174,-0.180848,-0.241961,-0.4569319999999999,0.05716
774,0.290707,0.941959,-0.167907,-0.176968,-0.4246399999999999,0.022475
775,0.276227,0.94713,-0.163199,-0.107297,-0.326051,-0.0336399999999999
776,0.272507,0.946552,-0.172539,0.619217,1.110516,-0.038872
777,0.280593,0.942332,-0.182398,0.758714,1.625799,0.861383
778,0.3041,0.936706,-0.173482,-0.035591,0.5148020000000001,0.519414
779,0.324634,0.931484,-0.164139,-0.479739,-0.2308,0.626618
780,0.321536,0.935346,-0.147417,-0.302631,-0.258405,0.264635
781,0.298622,0.945223,-0.13179,-0.140282,-0.268022,0.024505
782,0.268923,0.95611,-0.116296,0.397565,0.4337979999999999,-0.3075469999999999
783,0.2436179999999999,0.964731,-0.09967,0.62862,0.333182,-0.020401
784,0.233585,0.969584,-0.07304,0.551251,-0.099207,0.185116
785,0.2327489999999999,0.971473,-0.045368,0.392388,-0.273108,0.166752
786,0.233951,0.972022,-0.020734,0.323132,-0.147269,0.231794
787,0.234057,0.97218,0.008481,0.073423,0.204501,0.1040529999999999
788,0.229778,0.972436,0.039478,0.012501,0.322821,-0.034641
789,0.219203,0.973472,0.0655,0.080525,0.27578,-0.077784
790,0.20586,0.974918,0.08453,0.209286,-0.045032,-0.191403
791,0.191438,0.976895,0.094955,0.317626,-0.141995,-0.138321
792,0.179561,0.97857,0.100732,0.312367,-0.179757,-0.084985
793,0.169627,0.979794,0.10592,0.275167,-0.153561,-0.103616
794,0.160173,0.980786,0.111319,0.263289,-0.162305,-0.180914
795,0.151077,0.981873,0.114407,0.200195,-0.212327,-0.301526
796,0.144271,0.983445,0.109589,0.197022,-0.284883,-0.2224429999999999
797,0.141542,0.985496,0.093548,0.199263,-0.311393,-0.151806
798,0.143703,0.987325,0.067281,0.253606,-0.404516,-0.042806
799,0.152409,0.987747,0.033414,0.2510949999999999,-0.406692,0.00159
800,0.169348,0.985531,-0.006265,0.272119,-0.305859,-0.024558
801,0.195457,0.979343,-0.0517,0.399391,0.100826,-0.072201
802,0.231318,0.967315,-0.103844,0.359091,0.648117,-0.084373
803,0.270811,0.948788,-0.162649,0.123095,0.596134,-0.0060979999999999
804,0.3062809999999999,0.927435,-0.2145889999999999,-0.064414,0.7471720000000001,0.015111
805,0.3356369999999999,0.906236,-0.257053,-0.068348,0.753645,0.0396
806,0.355135,0.8875629999999999,-0.293432,0.004102,0.5395,0.242071
807,0.366715,0.8734540000000001,-0.320297,0.230285,0.347951,0.212036
808,0.380111,0.859884,-0.340746,0.369294,0.269419,0.0113239999999999
809,0.397551,0.8462219999999999,-0.354759,0.319795,0.106216,-0.197731
810,0.420371,0.83252,-0.360821,0.376581,0.032226,-0.285984
811,0.442625,0.8211360000000001,-0.360294,0.403918,-0.0496519999999999,-0.234173
812,0.456838,0.815199,-0.356007,0.248423,-0.217467,-0.07455
813,0.4654939999999999,0.8143699999999999,-0.346567,0.005117,-0.433785,0.006495
814,0.46953,0.8188529999999999,-0.330171,-0.170366,-0.608785,0.0585039999999999
815,0.4690859999999999,0.826153,-0.3121239999999999,-0.275177,-0.697567,0.238669
816,0.465501,0.833885,-0.29654,-0.3280349999999999,-0.6931069999999999,0.358491
817,0.460896,0.8421569999999999,-0.279887,-0.366872,-0.6357510000000001,0.401393
818,0.456752,0.849814,-0.263031,-0.542949,-0.685843,0.221817
819,0.45695,0.8547819999999999,-0.24604,-0.5064649999999999,-0.6943199999999999,0.166633
820,0.46182,0.857735,-0.225841,-0.483152,-0.717109,0.175655
821,0.471289,0.859159,-0.1993069999999999,-0.551153,-0.403821,-0.412006
822,0.485947,0.861877,-0.144957,-0.721817,0.11528,-0.018754
823,0.4774739999999999,0.87298,-0.099561,1.347324,3.901266000000001,-0.103305
824,0.472251,0.875074,-0.105891,0.157647,0.540133,0.207148
825,0.469406,0.875115,-0.117557,-0.445709,-0.4386069999999999,0.385822
826,0.454606,0.880185,-0.136367,-0.321626,-0.515301,0.393905
827,0.438927,0.886764,-0.144851,0.200737,0.200898,0.291228
828,0.436511,0.889917,-0.132263,0.010175,0.183096,0.236251
829,0.4367029999999999,0.893827,-0.101741,-0.244244,0.203005,0.277537
830,0.42621,0.902769,-0.057807,-0.077532,0.137011,0.035605
831,0.403233,0.914867,-0.020252,0.180599,0.36826,-0.059735
832,0.374285,0.927258,0.009547,0.346128,0.335651,-0.051708
833,0.346678,0.93708,0.041011,0.294329,0.06266,-0.167812
834,0.3254829999999999,0.943142,0.0673049999999999,0.30318,0.026844,-0.204192
835,0.310694,0.946604,0.086001,0.035025,0.035604,-0.23897
836,0.299175,0.94914,0.09805,0.0943799999999999,0.008898,-0.334347
837,0.290752,0.951547,0.100038,0.102726,-0.024056,-0.312196
838,0.283859,0.954181,0.094587,0.187775,-0.270771,-0.301527
839,0.279663,0.956427,0.083789,0.129868,-0.484885,-0.260868
840,0.28092,0.957519,0.065015,0.049432,-0.676467,-0.1814859999999999
841,0.289654,0.956456,0.035741,-0.0245169999999999,-0.7598010000000001,-0.081243
842,0.306142,0.951965,-0.005004,-0.026204,-0.7883760000000001,-0.085603
843,0.328487,0.942861,-0.055639,-0.018047,-0.721487,-0.177363
844,0.35469,0.928062,-0.113507,0.005448,-0.2964239999999999,-0.313525
845,0.38108,0.906205,-0.18319,0.327401,0.4710229999999999,-0.305061
846,0.413805,0.874706,-0.252278,0.525099,1.056859,0.082723
847,0.453322,0.843299,-0.288681,0.281267,1.226754,0.129303
848,0.468575,0.8271139999999999,-0.310338,-0.061272,0.750889,0.042852
849,0.469898,0.8178979999999999,-0.3320079999999999,0.014813,0.433704,-0.075691
850,0.463338,0.8117439999999999,-0.3554989999999999,0.2223619999999999,0.2149739999999999,-0.0919649999999999
851,0.457553,0.807804,-0.371602,0.413479,0.268261,-0.209896
852,0.457207,0.806912,-0.37396,0.197563,0.3531829999999999,-0.184131
853,0.463635,0.808615,-0.362181,0.132725,0.067285,-0.2456989999999999
854,0.467474,0.81329,-0.346435,0.21174,-0.096005,-0.04712
855,0.466163,0.821578,-0.328163,0.29255,-0.151168,0.020073
856,0.460788,0.833218,-0.305634,0.070737,-0.406994,0.1173559999999999
857,0.4522319999999999,0.848391,-0.275152,-0.314735,-0.772417,0.090674
858,0.441631,0.8651629999999999,-0.237581,-0.304134,-0.789189,0.0531019999999999
859,0.42927,0.880302,-0.20195,-0.475046,-0.637566,-0.022141
860,0.417498,0.8916780000000001,-0.1749119999999999,-0.46329,-0.702728,-0.0705409999999999
861,0.4087699999999999,0.8983700000000001,-0.160708,-0.466371,-0.72001,-0.067991
862,0.4026659999999999,0.90175,-0.157142,-0.46213,-0.709825,-0.054085
863,0.397129,0.904509,-0.155369,-0.483555,-0.688429,0.213154
864,0.390296,0.90874,-0.147813,-0.445014,-0.555255,0.099671
865,0.38027,0.914536,-0.1378609999999999,-0.27854,-0.116974,-0.081117
866,0.363319,0.925407,-0.107743,0.305077,1.491219,0.492371
867,0.345484,0.935701,-0.071352,0.389227,0.7755270000000001,0.229066
868,0.341719,0.938546,-0.048419,0.11815,0.3397739999999999,0.031527
869,0.327511,0.943573,-0.048916,0.46976,-0.304031,0.163708
870,0.326383,0.944452,-0.0383279999999999,0.423922,-0.192057,-0.116854
871,0.329238,0.94381,-0.028433,0.383729,0.115928,-0.258524
872,0.329003,0.944221,-0.013699,0.5259159999999999,0.242653,0.087322
873,0.322963,0.946232,0.01798,0.136907,0.310039,0.194819
874,0.301721,0.951589,0.058529,0.12612,0.256007,-0.006069
875,0.276328,0.956237,0.096106,0.416741,0.297394,-0.010138
876,0.254551,0.958419,0.128918,0.336956,0.373933,-0.1668059999999999
877,0.234217,0.960634,0.14936,0.452047,-0.116121,-0.500678
878,0.2163949999999999,0.963542,0.157301,0.344427,-0.314936,-0.473371
879,0.202062,0.967097,0.154523,0.2580659999999999,-0.323328,-0.452283
880,0.193398,0.970539,0.143646,-0.023583,-0.517918,-0.316452
881,0.190662,0.973404,0.126948,-0.071125,-0.611618,-0.2625679999999999
882,0.19425,0.975582,0.10242,-0.186377,-0.789898,0.0245629999999999
883,0.204396,0.976423,0.0693169999999999,-0.134297,-0.8364389999999999,-0.233197
884,0.223282,0.974078,0.036084,-0.0321959999999999,-0.7433350000000001,-0.2199219999999999
885,0.253696,0.967255,-0.0064239999999999,0.6958270000000001,0.7344510000000001,-0.0936429999999999
886,0.304075,0.95013,-0.069127,0.11017,1.053426,0.15392
887,0.353911,0.926711,-0.126254,0.026292,1.092454,0.135456
888,0.385025,0.906203,-0.174758,-0.480667,0.938203,-0.002351
889,0.40514,0.887394,-0.219959,-0.322132,0.875973,0.132206
890,0.421817,0.869641,-0.256482,-0.017032,0.408053,0.123181
891,0.438683,0.8546790000000001,-0.277615,0.4131229999999999,0.140713,0.027691
892,0.456226,0.839209,-0.295931,0.365093,0.26452,-0.141798
893,0.471875,0.824938,-0.311128,0.307513,0.152693,-0.257201
894,0.486517,0.813399,-0.318861,0.4439329999999999,-0.112929,-0.285387
895,0.498067,0.806175,-0.319376,0.232646,-0.204811,-0.173285
896,0.507825,0.802416,-0.313419,0.09447,-0.305605,-0.0933799999999999
897,0.5156029999999999,0.8006340000000001,-0.305169,-0.151269,-0.548467,0.068535
898,0.5205609999999999,0.8025140000000001,-0.291506,-0.346276,-0.819116,0.124895
899,0.521457,0.807713,-0.2750829999999999,-0.3830139999999999,-0.763707,0.203794
900,0.518504,0.816098,-0.255197,-0.396358,-0.729092,0.238092
901,0.511397,0.826313,-0.2359409999999999,-0.438262,-0.596958,0.267679
902,0.505067,0.834996,-0.218348,-0.347627,-0.5314840000000001,0.134303
903,0.505803,0.839384,-0.198958,-0.248861,-0.511152,-0.043565
904,0.512464,0.840831,-0.174271,-0.242948,-0.446804,-0.142013
905,0.523628,0.839642,-0.144226,-0.51345,-0.339596,-0.169449
906,0.535375,0.8377129999999999,-0.107678,-0.6552640000000001,-0.172964,-0.4380529999999999
907,0.538157,0.839966,-0.069484,0.304479,2.002517,0.136302
908,0.516404,0.855028,-0.047317,0.335677,2.637084,0.1736599999999999
909,0.5107520000000001,0.857498,-0.061761,-0.8616590000000001,-0.087875,0.445474
910,0.505895,0.859821,-0.069005,-0.283925,-0.30312,0.454809
911,0.495146,0.8664790000000001,-0.063473,0.0282149999999999,-0.6450130000000001,0.377285
912,0.486147,0.8727299999999999,-0.044578,0.043745,-0.2221409999999999,0.163215
913,0.476332,0.878875,-0.0258779999999999,0.132738,0.445679,0.019607
914,0.462308,0.8866430000000001,0.010844,0.070254,0.218994,0.146108
915,0.4409109999999999,0.8959010000000001,0.054222,-0.0539929999999999,0.196582,-0.040977
916,0.41428,0.906278,0.083747,-0.0055119999999999,0.258411,0.238366
917,0.385838,0.915693,0.112318,0.373195,0.11574,0.199969
918,0.365208,0.918872,0.149256,0.449291,-0.009631,-0.052973
919,0.350529,0.918331,0.183784,0.312328,0.115757,-0.563713
920,0.33413,0.919331,0.2077639999999999,0.334525,0.087001,-0.601562
921,0.315635,0.921556,0.226025,0.175698,0.0464,-0.5236930000000001
922,0.294548,0.925483,0.238121,0.130287,-0.07508,-0.425956
923,0.267902,0.931628,0.245513,0.1554839999999999,-0.025164,-0.395873
924,0.2409329999999999,0.938141,0.248636,0.3576539999999999,0.002304,-0.245111
925,0.221475,0.942838,0.248964,0.306723,-0.197049,-0.231066
926,0.213035,0.946543,0.242177,0.144296,-0.397761,-0.28774
927,0.214135,0.950828,0.223723,0.0212009999999999,-0.546287,-0.14012
928,0.223255,0.955591,0.1923079999999999,-0.019657,-0.583612,-0.315172
929,0.2409,0.957398,0.159171,0.063177,-0.664353,-0.33303
930,0.271364,0.954347,0.1247549999999999,0.186033,-0.348207,-0.2365719999999999
931,0.319494,0.944743,0.073251,0.320841,0.4233449999999999,-0.4660729999999999
932,0.380683,0.924669,-0.007147,0.532876,0.736662,-0.525171
933,0.444874,0.8912559999999999,-0.087946,0.534954,1.737116,-0.199239
934,0.490725,0.857942,-0.152022,-0.162555,1.164962,0.109817
935,0.517502,0.8294020000000001,-0.2104059999999999,-0.168182,0.579732,0.085116
936,0.534946,0.803393,-0.261496,0.182675,0.119489,-0.030481
937,0.5533520000000001,0.7733300000000001,-0.309436,0.4208909999999999,0.20221,-0.175351
938,0.573558,0.738675,-0.35409,0.293736,-0.087521,-0.2450159999999999
939,0.586388,0.710124,-0.3896969999999999,0.3655469999999999,-0.1252849999999999,-0.407362
940,0.581733,0.699294,-0.415409,0.265358,-0.13719,-0.324825
941,0.564344,0.701642,-0.434976,0.142458,-0.275418,-0.199438
942,0.53964,0.714796,-0.4447979999999999,-0.07678,-0.400679,-0.076427
943,0.516829,0.732978,-0.4422899999999999,-0.311629,-0.620078,0.103652
944,0.500922,0.750625,-0.430846,-0.561988,-0.692322,0.335127
945,0.495634,0.766897,-0.407682,-0.6980109999999999,-0.913443,0.389158
946,0.5021359999999999,0.782519,-0.36812,-0.8062590000000001,-0.915408,0.443788
947,0.514022,0.798269,-0.313904,-0.942687,-0.828298,0.4104609999999999
948,0.521893,0.814685,-0.252789,-0.8836639999999999,-0.781421,0.309795
949,0.521827,0.8304440000000001,-0.195052,-0.950156,-0.636733,0.229476
950,0.5163220000000001,0.8433639999999999,-0.14877,-1.009197,-0.182582,-0.352145
951,0.507246,0.85475,-0.109946,-0.244245,1.66176,0.997351
952,0.487537,0.8691620000000001,-0.082754,0.54292,3.141794,-0.117488
953,0.484255,0.8707159999999999,-0.085642,0.638975,0.155468,0.059961
954,0.494596,0.864675,-0.087726,0.461871,-0.243306,0.197055
955,0.501065,0.86206,-0.075949,0.383776,-0.298538,0.30979
956,0.490935,0.868806,-0.064349,0.270295,-0.6248640000000001,-0.381604
957,0.475431,0.8778799999999999,-0.057233,0.0356019999999999,-0.081096,0.29588
958,0.4528939999999999,0.8912549999999999,-0.023111,-0.059065,0.274441,0.326898
959,0.412471,0.910595,0.0258149999999999,0.007054,0.407277,-0.007978
960,0.363791,0.928247,0.077411,0.5812470000000001,0.549551,-0.207828
961,0.322277,0.936112,0.140748,1.203922,0.591491,-0.445893
962,0.2944989999999999,0.935018,0.197455,1.184078,0.327906,-0.727637
963,0.2786869999999999,0.933888,0.2239719999999999,0.745895,0.129299,-0.909229
964,0.262022,0.93757,0.228657,0.248644,0.548712,-0.425251
965,0.2402929999999999,0.942768,0.2311369999999999,-0.112363,0.2334099999999999,-0.3128329999999999
966,0.217916,0.949373,0.226231,-0.089787,-0.0497,-0.348393
967,0.201398,0.957814,0.204957,-0.051511,-0.307744,-0.319474
968,0.19372,0.965727,0.172688,-0.084269,-1.046095,-0.122242
969,0.194789,0.971525,0.1348089999999999,-0.101588,-1.143965,0.143878
970,0.20883,0.97333,0.094849,-0.115995,-1.075457,0.048294
971,0.2385219999999999,0.969808,0.0505829999999999,0.334903,-0.312673,-0.246415
972,0.287251,0.957515,-0.025122,0.6254529999999999,0.10294,-0.225763
973,0.356501,0.925294,-0.1293099999999999,0.660406,0.752578,-0.1320579999999999
974,0.418084,0.882516,-0.215302,0.343955,1.211325,-0.022201
975,0.451514,0.8430989999999999,-0.29207,-0.3646,1.228052,0.13019
976,0.475778,0.8081149999999999,-0.347235,-0.435007,0.873358,0.333471
977,0.502551,0.77259,-0.387989,0.0591549999999999,0.533822,0.1332279999999999
978,0.524054,0.734686,-0.430805,0.559762,0.41363,-0.237316
979,0.5301319999999999,0.70404,-0.472521,0.65395,0.198395,-0.255888
980,0.5259010000000001,0.687772,-0.500387,0.697991,0.027132,-0.269632
981,0.51205,0.686264,-0.516562,0.459981,0.01065,-0.1562589999999999
982,0.494602,0.699793,-0.515412,0.171184,-0.281748,-0.157058
983,0.481802,0.71829,-0.501913,0.065958,-0.730878,-0.013437
984,0.47356,0.733666,-0.487304,-0.51569,-0.91111,0.332213
985,0.466788,0.7479560000000001,-0.471869,-0.880408,-1.090058,0.624579
986,0.470728,0.762976,-0.443024,-0.8010510000000001,-1.108252,0.771088
987,0.486509,0.781589,-0.390403,-0.8202799999999999,-0.920124,0.72248
988,0.499705,0.801184,-0.3292219999999999,-0.771982,-0.7037260000000001,0.440214
989,0.5053489999999999,0.817052,-0.277551,-0.843666,-0.661077,0.219492
990,0.5043569999999999,0.8290709999999999,-0.241351,-1.125893,-0.333801,0.004367
991,0.50175,0.837089,-0.217975,-0.41598,0.252602,-0.0518309999999999
992,0.503808,0.845557,-0.176618,0.139106,4.004144,0.045179
993,0.498354,0.849093,-0.175123,0.857771,3.729703,0.0705549999999999
994,0.503383,0.843765,-0.186146,0.382924,-0.268569,0.214238
995,0.505733,0.84426,-0.177321,0.351979,-0.427802,0.549529
996,0.496508,0.853404,-0.158633,0.281004,-1.271831,0.081331
997,0.4782,0.867392,-0.137618,0.044261,-0.272421,0.021346
998,0.4585729999999999,0.882813,-0.101654,0.004837,0.198119,0.2078239999999999
999,0.4237649999999999,0.905051,-0.035867,0.307421,1.026834,-0.037116
1000,0.37382,0.926945,0.031775,0.901479,0.738841,-0.176077
1001,0.330778,0.93855,0.098426,1.391298,0.633411,-0.358786
1002,0.29715,0.942193,0.1547599999999999,1.274627,0.163123,-0.64945
1003,0.278405,0.942473,0.184965,0.514411,-0.014998,-0.799421
1004,0.2676219999999999,0.945212,0.186892,0.256548,0.438439,-0.271547
1005,0.253325,0.949499,0.185079,-0.207701,0.292932,-0.1179549999999999
1006,0.23426,0.955886,0.177149,-0.240912,-0.23355,-0.345072
1007,0.217653,0.963521,0.155661,-0.134569,-0.8207139999999999,-0.273978
1008,0.207247,0.970562,0.12262,-0.111467,-1.080853,-0.18361
1009,0.206406,0.974427,0.088697,-0.0706789999999999,-1.34195,-0.1570869999999999
1010,0.220411,0.974188,0.04852,-0.102384,-0.8728549999999999,-0.011502
1011,0.246752,0.969051,-0.005751,-0.128725,-0.867717,0.042769
1012,0.285663,0.955433,-0.0743279999999999,0.358227,-0.2432139999999999,-0.645536
1013,0.35056,0.917714,-0.186794,0.6926220000000001,1.557582,0.309292
1014,0.43094,0.860559,-0.271505,0.090087,1.695227,0.4549
1015,0.477761,0.8065979999999999,-0.348039,-0.069909,1.830365,-0.362425
1016,0.491214,0.772384,-0.4026409999999999,-0.683521,1.035706,0.298149
1017,0.508378,0.737191,-0.4450729999999999,0.350479,0.250449,-0.064555
1018,0.51257,0.700667,-0.496314,0.577121,0.097825,-0.241082
1019,0.513025,0.6752060000000001,-0.529994,0.733924,-0.217031,-0.5134479999999999
1020,0.519613,0.6669510000000001,-0.534013,0.744685,0.167995,-0.300856
1021,0.52232,0.672574,-0.52423,0.496799,-0.227811,-0.393754
1022,0.512146,0.689421,-0.512245,0.389343,-0.726897,-0.292946
1023,0.499688,0.703158,-0.505836,-0.27604,-0.793094,0.437187
1024,0.481942,0.716196,-0.504763,-0.896676,-1.200709,0.74634
1025,0.473344,0.733082,-0.488392,-1.029771,-1.30193,0.789036
1026,0.483911,0.75544,-0.441735,-0.913126,-0.932534,0.786522
1027,0.499501,0.780791,-0.3753039999999999,-0.848866,-0.648039,0.556609
1028,0.5073489999999999,0.801773,-0.315824,-0.8694860000000001,-0.64418,0.335767
1029,0.506554,0.817998,-0.272523,-0.975487,-0.517888,0.131914
1030,0.501069,0.829084,-0.2480639999999999,-1.048997,-0.1809359999999999,-0.6269819999999999
1031,0.504659,0.833041,-0.2266,-0.0019579999999999,2.773801,1.525489
1032,0.511166,0.8379030000000001,-0.191343,0.83031,3.570117,0.183301
1033,0.5176850000000001,0.8323659999999999,-0.197874,0.41101,-0.293334,0.1235329999999999
1034,0.5275920000000001,0.8272950000000001,-0.192908,0.111843,-0.433542,0.344489
1035,0.523369,0.83509,-0.169388,0.183677,-1.578117,0.344391
1036,0.500525,0.854676,-0.13779,-0.006568,-0.483872,0.106022
1037,0.464116,0.879755,-0.102999,0.200633,0.430349,0.293292
1038,0.422444,0.905214,-0.045933,0.0866649999999999,1.121489,0.193989
1039,0.361906,0.931946,0.0219,1.21306,0.732269,-0.229969
1040,0.3141469999999999,0.945215,0.088645,1.600633,0.425176,-0.27201
1041,0.28496,0.946462,0.151606,1.3628360000000002,0.144343,-0.786676
1042,0.272341,0.942962,0.19139,0.220198,0.047608,-0.830794
1043,0.261836,0.943971,0.200841,0.031865,0.442031,-0.133397
1044,0.239601,0.94878,0.205876,-0.400719,0.253445,-0.285053
1045,0.209917,0.9541,0.213551,-0.4378069999999999,-0.195998,-0.577321
1046,0.181515,0.962013,0.203864,-0.151135,-0.543312,-0.188117
1047,0.16258,0.970964,0.175427,0.000826,-1.081361,-0.203762
1048,0.152282,0.978232,0.140892,0.10196,-1.477744,-0.126427
1049,0.157374,0.981098,0.1125119999999999,-0.046961,-1.05312,0.12847
1050,0.1813,0.980605,0.074316,-0.080592,-0.693084,-0.5602010000000001
1051,0.219164,0.975362,0.0248129999999999,1.2763799999999998,0.167979,-0.623949
1052,0.283499,0.956254,-0.072036,0.948496,1.602431,0.143157
1053,0.367664,0.912993,-0.176781,0.604504,1.765977,0.084862
1054,0.419656,0.86595,-0.272038,-0.637033,1.252885,-0.043575
1055,0.432591,0.8355610000000001,-0.338658,-0.559025,1.104029,0.512486
1056,0.4545119999999999,0.802185,-0.387177,-0.030668,0.530609,0.158478
1057,0.471637,0.768613,-0.4321819999999999,0.2979699999999999,0.388598,-0.117226
1058,0.477643,0.7363460000000001,-0.479209,0.376406,-0.25072,-0.68171
1059,0.47807,0.724853,-0.496011,0.872058,0.014328,-0.510139
1060,0.485958,0.718951,-0.496936,0.861439,-0.048602,-0.211942
1061,0.48843,0.721838,-0.490282,0.201938,-0.727224,-0.2513869999999999
1062,0.484577,0.727805,-0.4852579999999999,0.005246,-0.83544,0.131987
1063,0.477177,0.732168,-0.486027,-0.787083,-1.17304,0.739338
1064,0.4609109999999999,0.741951,-0.486888,-1.076436,-1.623893,1.137569
1065,0.458875,0.7634810000000001,-0.454446,-0.901196,-1.066886,1.130654
1066,0.471414,0.791886,-0.388166,-0.864664,-0.763688,0.793272
1067,0.479587,0.814299,-0.326955,-0.741642,-0.8242940000000001,0.429464
1068,0.479493,0.828892,-0.288117,-0.992127,-0.599522,0.064057
1069,0.474752,0.837097,-0.27178,-0.6339779999999999,-0.341248,-1.535349
1070,0.486759,0.837184,-0.2493469999999999,-0.0999029999999999,5.412618,0.465564
1071,0.5031720000000001,0.833607,-0.22782,0.576799,1.230068,0.31066
1072,0.51265,0.823275,-0.2437079999999999,-0.293213,-0.496142,0.505076
1073,0.506007,0.825564,-0.2497719999999999,0.050572,-0.953433,0.699159
1074,0.486729,0.844706,-0.222602,0.359768,-1.886271,0.422858
1075,0.451219,0.8748600000000001,-0.176083,0.332991,-0.255979,0.202404
1076,0.407386,0.905845,-0.116039,0.6306390000000001,1.038598,-0.184284
1077,0.358217,0.93261,-0.043584,1.03546,1.411979,-0.2447619999999999
1078,0.303921,0.952121,0.032815,0.905445,0.7160920000000001,-0.345071
1079,0.2676659999999999,0.958031,0.102515,1.155261,0.569114,-0.327796
1080,0.241234,0.958863,0.149549,1.435692,-0.023865,-0.657362
1081,0.2260989999999999,0.958647,0.172775,0.2403159999999999,-0.151701,-0.635666
1082,0.2109239999999999,0.962424,0.170962,-0.304719,-0.181723,-0.2350949999999999
1083,0.192346,0.967355,0.164936,-0.280755,0.132941,-0.330173
1084,0.175375,0.971391,0.160064,-0.301199,-0.135194,-0.1352529999999999
1085,0.159659,0.976438,0.145102,-0.0965029999999999,-0.690519,-0.149313
1086,0.150018,0.981798,0.116389,0.026725,-1.350694,-0.097346
1087,0.158774,0.983732,0.083912,0.1602569999999999,-1.218153,0.153591
1088,0.19209,0.980541,0.0402579999999999,-0.036008,-0.787441,-0.503438
1089,0.2444239999999999,0.969411,-0.021915,0.991171,-0.182088,-0.3098869999999999
1090,0.32729,0.935809,-0.1308619999999999,0.806697,0.966519,-0.092175
1091,0.409127,0.8793270000000001,-0.243691,0.0879279999999999,2.020408,0.303658
1092,0.459258,0.82937,-0.318141,0.081818,1.924902,0.2274119999999999
1093,0.469587,0.7998270000000001,-0.373836,-0.337751,1.087044,0.527324
1094,0.4803,0.763836,-0.431109,-0.029037,0.7852210000000001,0.308413
1095,0.487046,0.730028,-0.479412,0.2843469999999999,0.007979,-0.074772
1096,0.4904189999999999,0.706908,-0.509667,0.6371899999999999,0.0094159999999999,-0.363929
1097,0.488479,0.696916,-0.5250600000000001,0.4003,-0.024492,-0.362773
1098,0.496566,0.693717,-0.5217,0.545243,0.0592279999999999,-0.1300329999999999
1099,0.5018,0.696447,-0.51298,0.227845,-0.5702109999999999,-0.17751
1100,0.5032840000000001,0.7018409999999999,-0.504099,-0.11597,-0.715055,-0.024283
1101,0.495403,0.713762,-0.4950859999999999,-0.710583,-1.123842,0.5151819999999999
1102,0.477691,0.7358279999999999,-0.4799569999999999,-0.91481,-1.370914,0.960243
1103,0.471346,0.766587,-0.4360819999999999,-0.7665420000000001,-0.938095,0.873582
1104,0.471297,0.796121,-0.379552,-0.719054,-0.757882,0.557897
1105,0.472564,0.816196,-0.332409,-0.835082,-0.6435270000000001,0.196911
1106,0.471771,0.8256399999999999,-0.309415,-0.878921,-0.0199,-0.628467
1107,0.477572,0.820644,-0.313778,0.282636,3.513615,1.074276
1108,0.5133810000000001,0.805381,-0.29629,0.048082,3.4088519999999995,0.4145149999999999
1109,0.5403720000000001,0.787511,-0.29633,-0.413617,-0.4177899999999999,0.134816
1110,0.549551,0.778949,-0.302025,-0.338781,-0.114414,0.752373
1111,0.535856,0.797455,-0.277326,0.368593,-2.078385,0.564817
1112,0.502778,0.83429,-0.226186,0.464095,-0.293869,0.651417
1113,0.447938,0.879131,-0.162678,0.906783,0.589832,-0.231792
1114,0.3991969999999999,0.910524,-0.107566,0.963337,0.980406,0.006232
1115,0.354134,0.934498,-0.035845,0.2208929999999999,0.665524,-0.370771
1116,0.303775,0.952214,0.03146,1.199796,0.247691,-0.449154
1117,0.267161,0.959599,0.088168,1.374135,0.300487,-0.627246
1118,0.245435,0.961683,0.122096,0.248248,0.105807,-0.7564489999999999
1119,0.228859,0.964234,0.133621,-0.283516,0.028655,-0.128906
1120,0.205738,0.969048,0.136371,-0.200627,0.239662,-0.032229
1121,0.181039,0.97411,0.135331,-0.108194,-0.124821,-0.026826
1122,0.156824,0.980312,0.119892,0.05242,-0.637157,-0.173038
1123,0.140211,0.985926,0.090951,0.092012,-1.324167,-0.1305319999999999
1124,0.140043,0.988297,0.0603159999999999,0.327807,-1.313157,-0.010481
1125,0.164039,0.986171,0.0232199999999999,-0.082893,-0.7849229999999999,0.005009
1126,0.2028869999999999,0.978861,-0.025508,-0.03057,-0.5494020000000001,-0.6781050000000001
1127,0.257669,0.960623,-0.103896,1.489203,0.509668,-0.279603
1128,0.339007,0.91353,-0.224775,0.877942,1.196746,0.367628
1129,0.403938,0.8576959999999999,-0.318089,-0.0064769999999999,1.375993,0.283573
1130,0.439151,0.8094060000000001,-0.389868,-0.164707,1.260845,-0.130961
1131,0.454742,0.774014,-0.440571,-0.255126,0.902072,0.227635
1132,0.4752909999999999,0.738206,-0.478687,0.46697,0.284804,-0.019344
1133,0.483725,0.713128,-0.507396,0.557062,-0.1250089999999999,-0.640508
1134,0.482724,0.705488,-0.5189,0.664737,0.194201,-0.3331659999999999
1135,0.4967319999999999,0.70016,-0.51286,0.8551049999999999,0.255727,-0.052265
1136,0.516349,0.699188,-0.494481,0.4583979999999999,-0.3210139999999999,-0.281596
1137,0.527694,0.6982689999999999,-0.4836859999999999,0.1484079999999999,-0.531292,-0.14226
1138,0.523158,0.702281,-0.482802,-0.500301,-1.077983,0.395903
1139,0.499774,0.719615,-0.482049,-1.114551,-1.797786,0.8962950000000001
1140,0.4874779999999999,0.747959,-0.450459,-1.03803,-1.316593,1.114354
1141,0.491859,0.780806,-0.385236,-0.881447,-0.8719620000000001,0.90083
1142,0.500494,0.8039390000000001,-0.321212,-0.8278559999999999,-0.866027,0.5782470000000001
1143,0.5038,0.817141,-0.280098,-0.859742,-0.8605520000000001,0.102806
1144,0.5028699999999999,0.8219190000000001,-0.267504,-0.804979,-0.38564,-2.070478
1145,0.509776,0.817293,-0.268608,-0.687983,5.997466,1.025932
1146,0.530782,0.815133,-0.231983,1.253367,7.024497,0.471256
1147,0.549455,0.800921,-0.237934,0.227248,-0.578311,0.399387
1148,0.548707,0.799437,-0.244561,-0.426408,-0.984266,0.8935930000000001
1149,0.535717,0.821311,-0.196067,0.595234,-0.807517,0.4532229999999999
1150,0.498687,0.856583,-0.132526,0.0284889999999999,-0.43631,0.076205
1151,0.447767,0.8908370000000001,-0.076802,0.549059,0.861497,0.077932
1152,0.395298,0.918511,-0.007783,0.662747,1.352439,-0.178252
1153,0.339007,0.938884,0.059601,0.638578,0.380665,-0.200012
1154,0.294578,0.947391,0.125121,1.439339,0.37344,-0.4086599999999999
1155,0.262577,0.94934,0.17259,1.4062,0.117967,-0.626859
1156,0.249601,0.950684,0.184063,-0.105589,-0.3831179999999999,-0.5732689999999999
1157,0.243073,0.953873,0.1761309999999999,-0.319473,0.23056,-0.294326
1158,0.233976,0.958566,0.162443,-0.368634,0.164405,-0.355329
1159,0.222498,0.96473,0.1406089999999999,-0.3702789999999999,-0.498025,-0.108214
1160,0.212726,0.970861,0.110264,-0.2223699999999999,-1.194982,-0.255085
1161,0.212528,0.97405,0.0777149999999999,0.086392,-1.245992,-0.156664
1162,0.23084,0.972097,0.041499,0.063304,-0.801138,0.258138
1163,0.263376,0.964614,-0.01165,0.103888,-0.406234,-0.884102
1164,0.308959,0.947094,-0.086846,2.142427,0.7740520000000001,-0.325339
1165,0.382059,0.901457,-0.203453,0.7040609999999999,1.6648580000000002,0.434135
1166,0.453138,0.841435,-0.2943489999999999,0.084353,1.777721,0.053291
1167,0.475406,0.804752,-0.355461,-0.4706,1.391613,0.3165199999999999
1168,0.4919159999999999,0.774122,-0.398426,-0.2358579999999999,0.764681,0.309498
1169,0.5004930000000001,0.747164,-0.437313,0.3780159999999999,-0.028185,0.033016
1170,0.503885,0.719341,-0.478164,0.2429869999999999,-0.2253369999999999,-0.2701119999999999
1171,0.5037050000000001,0.700978,-0.5048779999999999,0.268435,-0.142812,-0.476491
1172,0.511734,0.699274,-0.499135,0.752304,-0.2315159999999999,0.134145
1173,0.5267649999999999,0.704378,-0.475775,0.254378,-0.6947949999999999,-0.067178
1174,0.537485,0.70875,-0.4569189999999999,-0.243326,-0.62826,-0.163885
1175,0.5365770000000001,0.7193069999999999,-0.441217,-0.794573,-1.018868,0.304697
1176,0.520515,0.7402920000000001,-0.425467,-0.99633,-1.567242,0.742011
1177,0.511047,0.764753,-0.392394,-0.8530120000000001,-1.009855,1.061004
1178,0.511976,0.7877460000000001,-0.342527,-0.7265149999999999,-0.8123130000000001,0.739027
1179,0.5144880000000001,0.8031050000000001,-0.300521,-0.6210100000000001,-0.845677,0.286467
1180,0.51435,0.810964,-0.2788719999999999,-0.936896,-0.5024609999999999,-0.1369
1181,0.520472,0.807639,-0.277158,-0.4519289999999999,-0.273184,-2.47008
1182,0.546271,0.803678,-0.235956,0.632775,7.151782000000001,0.650263
1183,0.562934,0.793766,-0.230277,-0.130774,-0.202976,0.25373
1184,0.569555,0.77248,-0.280837,-1.0300200000000002,-1.068226,1.144087
1185,0.5647220000000001,0.778285,-0.274497,-0.028269,-2.4463310000000003,0.764945
1186,0.541463,0.813543,-0.21202,0.547801,-0.4426479999999999,0.558135
1187,0.501042,0.853577,-0.142647,0.187343,-0.064103,0.378273
1188,0.4541439999999999,0.8879549999999999,-0.072615,0.796741,1.235397,0.011137
1189,0.401484,0.915851,0.003292,0.397878,1.211682,-0.253246
1190,0.353846,0.932372,0.073885,0.7784939999999999,0.384827,-0.4894729999999999
1191,0.314311,0.938934,0.139979,1.79508,-0.009949,-0.561641
1192,0.2952849999999999,0.940929,0.165657,0.6943239999999999,-0.387157,-1.09365
1193,0.293201,0.943072,0.156945,-0.392063,-0.037585,-0.425835
1194,0.286935,0.946429,0.14807,-0.3275079999999999,0.297742,0.083025
1195,0.276169,0.951079,0.138434,-0.28151,-0.425688,-0.165946
1196,0.263946,0.957115,0.119368,-0.314849,-0.665733,-0.127043
1197,0.256565,0.961979,0.093569,-0.2269929999999999,-1.268773,-0.164889
1198,0.2636429999999999,0.962678,0.061064,0.136046,-1.002824,-0.098524
1199,0.285058,0.958386,0.014993,-0.1033559999999999,-0.5657310000000001,-0.10206
1200,0.320596,0.94659,-0.034233,0.289725,-0.256008,-0.720162
1201,0.372065,0.922222,-0.1051769999999999,1.955388,1.337971,0.048658
1202,0.455659,0.866792,-0.202571,0.780303,1.470168,0.519191
1203,0.518023,0.806235,-0.285704,0.335965,2.174188,-0.305879
1204,0.537225,0.775138,-0.332477,-0.5832,0.902963,0.346866
1205,0.553416,0.7498020000000001,-0.362655,-0.155909,-0.172807,0.073516
1206,0.559272,0.726813,-0.398683,0.28843,-0.1193309999999999,-0.156325
1207,0.558233,0.7081310000000001,-0.432339,-0.1753289999999999,0.152968,-0.138096
1208,0.553326,0.696512,-0.456829,0.0999029999999999,-0.171442,-0.232609
1209,0.55273,0.696559,-0.4574789999999999,0.42931,-0.646403,0.125601
1210,0.5565220000000001,0.709771,-0.431855,0.09277,-0.572442,-0.024886
1211,0.553122,0.724677,-0.410963,-0.4309449999999999,-0.5934510000000001,-0.193392
1212,0.543481,0.74066,-0.395021,-0.623681,-0.7343430000000001,-0.081038
1213,0.5325880000000001,0.7582,-0.376129,-0.759318,-0.866828,0.555771
1214,0.527544,0.77417,-0.349783,-0.617464,-0.739731,0.714865
1215,0.527317,0.7879649999999999,-0.317865,-0.44466,-0.642945,0.431208
1216,0.529744,0.798215,-0.28673,-0.590398,-0.6047939999999999,0.144533
1217,0.531505,0.803557,-0.267932,-1.038921,-0.114241,-0.484967
1218,0.546674,0.801358,-0.242819,-0.225507,2.044818,1.345679
1219,0.561024,0.804045,-0.196854,0.179546,3.852662000000001,-0.141907
1220,0.576526,0.7885909999999999,-0.2138449999999999,0.1191069999999999,0.313155,0.051324
1221,0.5757899999999999,0.78278,-0.23603,0.3453219999999999,-0.025913,0.671775
1222,0.5547340000000001,0.799238,-0.2312519999999999,0.5319050000000001,-1.872328,0.356603
1223,0.528269,0.825666,-0.197977,-0.1188299999999999,-0.276426,0.3051239999999999
1224,0.503796,0.8511610000000001,-0.147311,-0.263547,-0.202648,0.458041
1225,0.469934,0.8796010000000001,-0.0738279999999999,0.509803,0.92234,-0.043176
1226,0.424985,0.905187,0.003134,0.979099,1.184749,-0.396002
1227,0.382863,0.920862,0.073564,0.918224,0.64736,-0.571154
1228,0.346639,0.928196,0.135185,1.541224,0.038722,-0.632316
1229,0.32696,0.929234,0.1720529999999999,0.512182,-0.341038,-0.819544
1230,0.310701,0.934918,0.171391,0.214522,0.162342,-0.226903
1231,0.293628,0.941381,0.166029,-0.184543,0.213466,-0.051924
1232,0.271231,0.949262,0.159111,-0.251059,-0.245054,-0.352729
1233,0.2469829999999999,0.958753,0.140624,-0.20435,-0.7033659999999999,-0.29396
1234,0.227076,0.967464,0.111502,-0.163859,-1.199229,-0.313132
1235,0.218419,0.972593,0.079613,0.000865,-1.393873,-0.291633
1236,0.226847,0.97297,0.043062,0.0599419999999999,-1.090798,-0.108752
1237,0.245375,0.969384,-0.008366,-0.2357159999999999,-0.8003170000000001,0.144337
1238,0.2732719999999999,0.959812,-0.063795,-0.0647,-0.538791,-0.820009
1239,0.324187,0.93383,-0.151166,2.682359,1.549187,0.165952
1240,0.403158,0.8840950000000001,-0.236279,0.303385,1.7010029999999998,0.660413
1241,0.438679,0.8396979999999999,-0.320089,-0.6000409999999999,2.4696740000000004,0.203573
1242,0.4601729999999999,0.805221,-0.373967,-0.449034,0.308564,0.3527869999999999
1243,0.486936,0.770521,-0.4113159999999999,0.373308,0.0550549999999999,-0.158935
1244,0.49901,0.7407090000000001,-0.449812,0.416105,-0.08893,-0.318392
1245,0.501315,0.718647,-0.4818939999999999,0.415906,-0.079319,-0.43931
1246,0.506288,0.705277,-0.496234,1.067335,-0.104844,-0.188489
1247,0.516588,0.703192,-0.488518,0.439696,-0.450553,-0.1917039999999999
1248,0.518782,0.711785,-0.473517,0.113496,-0.570153,0.123618
1249,0.5122760000000001,0.720115,-0.467974,-0.4186939999999999,-0.980063,0.4480159999999999
1250,0.494299,0.736945,-0.461055,-0.8633629999999999,-1.278296,0.778392
1251,0.4798439999999999,0.762396,-0.434158,-0.937364,-1.115942,0.806854
1252,0.4783949999999999,0.788402,-0.386717,-0.722871,-0.722576,0.583006
1253,0.487264,0.808817,-0.32921,-0.628545,-0.588464,0.353914
1254,0.5005229999999999,0.8209420000000001,-0.274808,-0.791813,-0.487217,-0.149554
1255,0.510724,0.8253379999999999,-0.24076,-0.8900879999999999,-0.294439,-0.555138
1256,0.5191060000000001,0.816824,-0.251625,-1.07207,0.289408,-2.947548
1257,0.537621,0.811284,-0.2297159999999999,-0.294213,6.513545,2.139231
1258,0.549683,0.81135,-0.198864,1.007522,0.625708,0.6870229999999999
1259,0.571258,0.7870659999999999,-0.232761,-0.809326,-1.298709,1.3279450000000002
1260,0.576389,0.7801520000000001,-0.2431559999999999,-0.133213,-2.258836,0.5724560000000001
1261,0.5748850000000001,0.8002729999999999,-0.170461,0.470693,-0.749888,-0.154994
1262,0.537122,0.837059,-0.104004,0.698046,0.1070329999999999,-0.8132020000000001
1263,0.4751729999999999,0.877389,-0.066208,0.879258,1.277671,0.7329399999999999
1264,0.3997219999999999,0.916615,0.004683,1.567975,1.85345,-0.176359
1265,0.342263,0.936492,0.07629,-0.006234,0.008652,-0.16708
1266,0.306154,0.940509,0.147288,1.396544,0.262586,-0.423197
1267,0.282071,0.937912,0.2018319999999999,1.025332,0.099914,-0.98267
1268,0.272502,0.936967,0.218666,-0.033625,-0.172502,-1.031502
1269,0.267253,0.941172,0.20676,-0.30862,0.087758,-0.5842470000000001
1270,0.248335,0.949558,0.191439,-0.472059,-0.063633,-0.218936
1271,0.222476,0.959844,0.1708339999999999,-0.361911,-0.7576350000000001,-0.055614
1272,0.197447,0.969632,0.144258,-0.3261699999999999,-1.072567,-0.135347
1273,0.183285,0.976492,0.113366,-0.248882,-1.374914,-0.168008
1274,0.192045,0.977828,0.083384,0.061526,-1.083648,-0.193064
1275,0.217236,0.975414,0.036882,-0.088513,-0.949352,0.242965
1276,0.250921,0.9676,-0.027797,-0.067526,-0.660227,-0.099538
1277,0.295416,0.949298,-0.107458,1.3767790000000002,0.136242,-1.270274
1278,0.388316,0.8966219999999999,-0.2127619999999999,1.5075889999999998,2.3023830000000003,0.622445
1279,0.4684279999999999,0.832858,-0.294809,0.312349,2.472486,-0.437918
1280,0.483932,0.79874,-0.357511,-0.222488,2.68237,0.2149329999999999
1281,0.500296,0.764049,-0.407338,-0.226278,0.885609,0.248646
1282,0.5059,0.734695,-0.4519729999999999,0.278661,0.000184,0.012444
1283,0.512329,0.711412,-0.4810439999999999,0.339661,-0.193804,-0.084828
1284,0.5214409999999999,0.694755,-0.495385,0.044233,-0.081123,-0.414008
1285,0.53806,0.688608,-0.48611,0.922496,-0.514184,-0.07459
1286,0.557257,0.6914239999999999,-0.4597699999999999,0.182856,-0.692508,-0.1361619999999999
1287,0.567292,0.696638,-0.4391649999999999,-0.217988,-0.713392,-0.151136
1288,0.560732,0.710721,-0.4247899999999999,-0.92943,-1.281659,0.515885
1289,0.549146,0.7324890000000001,-0.402354,-1.001676,-1.11878,0.8778790000000001
1290,0.5449189999999999,0.758678,-0.357015,-0.8778959999999999,-0.721417,0.688116
1291,0.545158,0.781978,-0.302159,-0.692207,-0.730846,0.411351
1292,0.54369,0.798484,-0.258482,-0.674061,-0.7209840000000001,0.118147
1293,0.539247,0.8079069999999999,-0.237669,-1.0338,-0.144012,-0.4718189999999999
1294,0.539484,0.807625,-0.238089,-0.079065,2.675285,0.53884
1295,0.555331,0.806854,-0.201449,0.396955,6.602828999999999,1.533816
1296,0.559304,0.80018,-0.216515,-0.342996,-1.058191,0.534401
1297,0.563347,0.785237,-0.2569659999999999,-0.671593,-1.089604,1.1733790000000002
1298,0.5577979999999999,0.793945,-0.2418679999999999,0.191774,-1.704635,0.68747
1299,0.5399619999999999,0.821218,-0.184471,0.305253,-0.81606,0.863517
1300,0.514197,0.850351,-0.111759,-0.093863,-0.088846,0.0747559999999999
1301,0.483433,0.874092,-0.047326,0.37823,1.185494,0.2130969999999999
1302,0.444514,0.894914,0.038984,0.254766,1.147384,-0.135939
1303,0.400705,0.90904,0.114294,0.7003229999999999,0.628603,-0.496695
1304,0.361545,0.916267,0.172399,1.372845,0.715188,-0.653356
1305,0.328043,0.920848,0.21073,0.519155,0.045476,-0.636985
1306,0.303198,0.92584,0.225543,-0.049185,0.585375,-0.140429
1307,0.276991,0.931545,0.235539,-0.072875,0.333775,-0.338811
1308,0.24886,0.939695,0.234565,0.183238,-0.16017,-0.7510899999999999
1309,0.228229,0.950308,0.211675,0.120984,-0.732504,-0.472585
1310,0.220627,0.959951,0.172624,0.141449,-1.482305,-0.217058
1311,0.2337449999999999,0.963018,0.13394,0.090154,-1.363668,0.213777
1312,0.270015,0.958152,0.094962,-0.11674,-0.754005,-0.476523
1313,0.323362,0.945279,0.043205,0.8980889999999999,-0.3501559999999999,-0.598869
1314,0.408478,0.910724,-0.0609269999999999,1.332702,0.787473,-0.363573
1315,0.483868,0.8581540000000001,-0.171548,0.763706,1.794266,0.180917
1316,0.5226890000000001,0.810809,-0.263387,0.037187,1.874753,0.279043
1317,0.528293,0.7790590000000001,-0.3375829999999999,-0.331943,1.048242,0.335874
1318,0.542519,0.7383810000000001,-0.400569,-0.223763,0.76049,0.352336
1319,0.55806,0.694279,-0.454463,-0.005188,0.104519,0.180903
1320,0.576212,0.644065,-0.503143,0.114828,0.160394,-0.0418399999999999
1321,0.585789,0.611383,-0.532028,0.104443,0.162237,-0.414337
1322,0.598421,0.6006729999999999,-0.530166,0.847852,-0.011821,-0.490463
1323,0.6037939999999999,0.610789,-0.512213,0.323117,-0.332911,-0.469736
1324,0.5978979999999999,0.627677,-0.498529,0.129839,-0.792319,-0.174582
1325,0.576258,0.6444449999999999,-0.502602,-0.685511,-1.195836,0.595391
1326,0.547396,0.6674399999999999,-0.50485,-1.004763,-1.579335,0.900144
1327,0.53561,0.698749,-0.4741979999999999,-0.974743,-1.408664,1.031342
1328,0.540058,0.731571,-0.416091,-0.910709,-0.7487520000000001,0.740142
1329,0.543459,0.754488,-0.367952,-0.801379,-0.618059,0.47333
1330,0.539375,0.7694439999999999,-0.342082,-0.943031,-0.122868,0.1887309999999999
1331,0.5353020000000001,0.774675,-0.336628,-0.252877,0.322875,-0.368145
1332,0.56953,0.7649239999999999,-0.300856,1.50153,5.011321,1.071684
1333,0.603543,0.748564,-0.274546,-0.8760190000000001,-1.180754,-0.02384
1334,0.62641,0.726298,-0.283002,-1.12409,-0.072733,0.4697229999999999
1335,0.630629,0.7241770000000001,-0.279037,-0.246535,-1.518183,0.782409
1336,0.614228,0.7484430000000001,-0.250088,0.165939,-1.099761,0.52847
1337,0.57305,0.793883,-0.203346,0.548197,0.266679,0.752373
1338,0.5246689999999999,0.8408559999999999,-0.132923,0.6902510000000001,0.649836,0.28188
1339,0.48057,0.874403,-0.066755,0.5866600000000001,1.0829799999999998,0.158979
1340,0.425006,0.90504,0.015977,0.814954,0.269246,-0.330613
1341,0.376225,0.921814,0.093246,1.433299,0.009872,-0.398269
1342,0.339853,0.927949,0.15294,1.236471,-0.024385,-0.793046
1343,0.3190679999999999,0.930135,0.181723,0.442193,0.214854,-0.6726439999999999
1344,0.303087,0.931246,0.202231,-0.465288,0.460767,-0.06185
1345,0.279104,0.93398,0.223073,-0.192571,0.319194,-0.149526
1346,0.2565489999999999,0.93766,0.2344239999999999,-0.2841059999999999,0.009575,-0.493046
1347,0.235312,0.945514,0.2249679999999999,-0.087271,-0.427203,-0.393181
1348,0.221448,0.955263,0.195992,-0.017026,-1.031709,-0.314659
1349,0.2188469999999999,0.962768,0.158628,0.10847,-1.389938,-0.132398
1350,0.2352659999999999,0.963771,0.125604,0.10264,-1.272151,0.067511
1351,0.267864,0.959982,0.081638,-0.234585,-0.599066,-0.606113
1352,0.31689,0.948224,0.02083,1.551915,0.1862369999999999,-0.5075390000000001
1353,0.399426,0.912614,-0.087057,1.177631,1.122833,0.230505
1354,0.470043,0.862506,-0.187427,0.176167,1.361676,0.237933
1355,0.501888,0.820887,-0.27247,-0.266903,1.555502,0.293466
1356,0.508716,0.7911239999999999,-0.3395869999999999,-0.321231,1.119139,0.320818
1357,0.518702,0.755973,-0.399304,-0.141764,0.460122,0.072628
1358,0.527947,0.726422,-0.4399699999999999,0.38874,0.1421079999999999,-0.219194
1359,0.53827,0.693699,-0.478579,0.361678,0.06805,-0.257887
1360,0.542339,0.668037,-0.509497,0.5162399999999999,0.244774,-0.240579
1361,0.5536800000000001,0.6534989999999999,-0.5161100000000001,0.696855,-0.049297,-0.03368
1362,0.5680470000000001,0.65354,-0.5002,0.057533,-0.562232,-0.370269
1363,0.581374,0.659407,-0.476633,-0.212248,-0.694487,-0.1973329999999999
1364,0.587657,0.667826,-0.456791,-0.85316,-1.057185,0.286076
1365,0.582508,0.680869,-0.443953,-1.107502,-1.465018,0.77989
1366,0.579869,0.704163,-0.409751,-0.901891,-1.212968,1.046745
1367,0.579808,0.732897,-0.355913,-0.80016,-0.7873100000000001,0.682543
1368,0.576416,0.75527,-0.31193,-0.6324770000000001,-0.73583,0.363383
1369,0.568348,0.770525,-0.288548,-0.719105,-0.7300439999999999,0.083089
1370,0.5624859999999999,0.778177,-0.279352,-1.190766,-0.055262,-0.334387
1371,0.5803590000000001,0.775246,-0.249329,0.488962,2.536384,1.6442869999999998
1372,0.5983510000000001,0.773291,-0.209722,0.978431,6.211344,0.308355
1373,0.611699,0.760151,-0.219048,-0.8852120000000001,-0.7607,0.188057
1374,0.614388,0.7517189999999999,-0.2396489999999999,-1.085397,-0.6067,0.960414
1375,0.606328,0.7677189999999999,-0.207269,-0.220525,-1.990787,0.738915
1376,0.572331,0.805761,-0.152222,0.642177,0.061457,0.142792
1377,0.518827,0.8493129999999999,-0.097316,0.6928880000000001,0.452247,0.212077
1378,0.461581,0.886733,-0.025099,1.044553,1.1242530000000002,0.23744
1379,0.406848,0.912019,0.051747,0.456204,0.234175,-0.327626
1380,0.366267,0.923083,0.117248,0.552114,0.143109,-0.292419
1381,0.33339,0.927054,0.171469,1.642715,0.161996,-0.569235
1382,0.313685,0.928439,0.198951,1.031362,0.1391869999999999,-0.833931
1383,0.2993699999999999,0.931089,0.2083989999999999,-0.308174,0.2182329999999999,-0.5138189999999999
1384,0.274686,0.937371,0.214155,-0.285337,0.209296,-0.467801
1385,0.246586,0.945263,0.213666,-0.1628609999999999,-0.160183,-0.5489930000000001
1386,0.2231949999999999,0.955796,0.191356,-0.089848,-0.463319,-0.37672
1387,0.210155,0.965682,0.152556,0.1333359999999999,-1.3568870000000002,-0.15248
1388,0.216114,0.969819,0.112815,0.285198,-1.226716,-0.09066
1389,0.239942,0.968126,0.071702,-0.003278,-1.118135,-0.004548
1390,0.273901,0.961658,0.013189,-0.019811,-0.5572550000000001,-0.72402
1391,0.322792,0.944311,-0.06377,2.377464,1.085078,-0.221325
1392,0.411142,0.89564,-0.16964,1.297553,2.042455,0.932549
1393,0.4801229999999999,0.837521,-0.260822,0.3579199999999999,1.995945,0.104419
1394,0.500506,0.796651,-0.338866,-0.323702,1.2338209999999998,0.419127
1395,0.5199739999999999,0.754784,-0.399897,-0.176575,0.912086,0.359828
1396,0.534479,0.713987,-0.452267,0.381293,-0.023069,-0.079166
1397,0.5417109999999999,0.676692,-0.498626,0.219458,-0.178523,-0.255601
1398,0.536634,0.645781,-0.5431229999999999,0.060091,-0.078109,-0.120345
1399,0.5385300000000001,0.62683,-0.563083,0.940947,-0.261809,0.050113
1400,0.5502,0.6306229999999999,-0.547345,0.2491929999999999,-0.3784099999999999,-0.088275
1401,0.552921,0.645211,-0.5272319999999999,-0.074436,-0.668435,-0.222097
1402,0.545167,0.6634260000000001,-0.512494,-0.5449229999999999,-0.955724,0.243725
1403,0.528695,0.685968,-0.499921,-0.996896,-1.271936,0.662763
1404,0.518608,0.712453,-0.472702,-1.10038,-1.288518,0.943359
1405,0.523884,0.739903,-0.421996,-0.914753,-0.837879,0.770857
1406,0.536862,0.7588010000000001,-0.368767,-0.699124,-0.6337550000000001,0.367302
1407,0.5447420000000001,0.767842,-0.337142,-0.71828,-0.6675,0.031706
1408,0.547842,0.767582,-0.33268,-1.197501,-0.004123,-0.813118
1409,0.5669649999999999,0.761768,-0.313446,0.234213,3.981564,3.494781
1410,0.591422,0.7633489999999999,-0.25982,1.59115,5.190478,0.083886
1411,0.6060760000000001,0.746483,-0.274633,-0.653591,-0.742042,0.426687
1412,0.605001,0.7431300000000001,-0.285866,-0.574987,-0.627758,0.8436049999999999
1413,0.599532,0.761756,-0.2455119999999999,0.046632,-1.7384560000000002,0.443083
1414,0.574481,0.793768,-0.199723,0.124372,-0.4880279999999999,0.396546
1415,0.53756,0.829276,-0.152695,0.077934,0.157968,0.393449
1416,0.500679,0.8615790000000001,-0.083577,0.457176,0.986245,0.288091
1417,0.456539,0.889689,-0.002813,0.447254,0.921865,-0.159632
1418,0.415118,0.906721,0.074265,1.30174,0.4735729999999999,-0.283509
1419,0.380449,0.913143,0.146322,2.034728,-0.0196639999999999,-0.6425529999999999
1420,0.36616,0.912821,0.180733,0.880849,-0.184123,-1.258522
1421,0.3643409999999999,0.912356,0.186659,-0.025962,0.462079,-0.3925
1422,0.352309,0.915652,0.193493,-0.360595,0.615827,0.099812
1423,0.330726,0.923794,0.192888,-0.405586,0.274632,0.039733
1424,0.30874,0.934621,0.176478,-0.299844,-0.710774,-0.299799
1425,0.291507,0.944866,0.149104,-0.219256,-0.976879,-0.2417099999999999
1426,0.285179,0.950917,0.120044,-0.15229,-1.252904,-0.173755
1427,0.295171,0.951487,0.086767,-0.092138,-0.725001,0.249704
1428,0.3190469999999999,0.947117,0.034089,-0.201585,-0.5177189999999999,-0.275636
1429,0.355954,0.933846,-0.034814,1.752689,0.538718,-0.533454
1430,0.427176,0.892049,-0.147496,1.7506810000000002,1.279246,0.330678
1431,0.506563,0.827421,-0.242398,0.119429,1.428195,0.358792
1432,0.540423,0.7781779999999999,-0.319955,-0.597888,1.618856,0.411446
1433,0.557269,0.744463,-0.367716,-0.7003050000000001,1.068342,0.557597
1434,0.574534,0.711859,-0.403927,-0.251185,0.338983,0.32275
1435,0.582357,0.6819390000000001,-0.442504,0.629709,-0.055184,-0.251695
1436,0.594604,0.6504770000000001,-0.4725649999999999,0.399018,-0.253092,-0.570083
1437,0.61193,0.630508,-0.4774859999999999,0.659921,-0.309311,-0.338767
1438,0.630814,0.6247149999999999,-0.460213,0.541718,-0.534963,-0.501121
1439,0.632253,0.628575,-0.452925,0.163004,-0.706547,-0.304033
1440,0.627496,0.636666,-0.448215,-0.568613,-0.793434,0.3186219999999999
1441,0.609629,0.653936,-0.448008,-1.22906,-1.53095,0.751124
1442,0.5989399999999999,0.680114,-0.422737,-1.320482,-1.312392,1.099403
1443,0.6013890000000001,0.71495,-0.356605,-1.117899,-0.763336,0.818412
1444,0.601819,0.742793,-0.293359,-0.813535,-0.738978,0.390603
1445,0.598659,0.757091,-0.261549,-0.816188,-0.4895739999999999,0.031905
1446,0.594723,0.759996,-0.262102,-0.8024100000000001,-0.21274,-1.461012
1447,0.60823,0.752474,-0.252637,1.669175,6.802396000000001,0.3965579999999999
1448,0.6260319999999999,0.740006,-0.245889,0.055304,0.679687,0.110925
1449,0.6441359999999999,0.716692,-0.267261,-1.111558,-0.701769,0.54906
1450,0.64946,0.705796,-0.282914,-0.8634040000000001,-1.459229,0.90149
1451,0.640688,0.728479,-0.242534,0.14369,-1.4414,0.847774
1452,0.607284,0.776395,-0.1685289999999999,0.2446449999999999,0.004779,0.575481
1453,0.562261,0.819557,-0.110328,0.5788369999999999,0.7737350000000001,-0.34353
1454,0.513868,0.8565870000000001,-0.04671,0.7633840000000001,1.410503,0.265826
1455,0.461869,0.8864920000000001,0.028097,0.544158,0.192594,-0.3632869999999999
1456,0.425521,0.900596,0.088544,1.296875,-0.032249,-0.251371
1457,0.395683,0.907795,0.139008,1.477792,0.026409,-0.885682
1458,0.380392,0.910967,0.159437,0.541773,-0.007754,-0.472867
1459,0.369309,0.912828,0.174175,-0.384094,0.464431,-0.072475
1460,0.347334,0.91805,0.191111,-0.302336,0.301662,-0.302912
1461,0.322607,0.925575,0.1980289999999999,-0.337332,0.103646,-0.575669
1462,0.302813,0.935848,0.180202,-0.188418,-0.42448,-0.448345
1463,0.290234,0.945779,0.14576,-0.036801,-1.249246,-0.197152
1464,0.2901829999999999,0.95095,0.107095,0.062585,-1.329597,-0.113076
1465,0.307842,0.948913,0.069131,0.077107,-1.208801,0.015112
1466,0.338386,0.940811,0.018758,0.180169,-0.452454,-0.962102
1467,0.383639,0.921896,-0.053975,1.219648,0.230326,-0.860743
1468,0.460207,0.8728299999999999,-0.162366,0.767332,1.6971009999999995,0.725461
1469,0.5236850000000001,0.812699,-0.255465,0.129407,1.348205,0.313281
1470,0.548248,0.7647430000000001,-0.3385,-0.345184,1.437589,0.2253869999999999
1471,0.560466,0.725901,-0.398667,-0.393306,1.026647,0.542038
1472,0.575299,0.685855,-0.4456729999999999,0.05318,0.300854,0.238367
1473,0.5826939999999999,0.6460670000000001,-0.493008,0.271753,-0.045985,-0.076969
1474,0.58181,0.609952,-0.538004,0.336022,-0.316938,-0.529166
1475,0.583762,0.5893510000000001,-0.558462,0.744637,-0.038493,-0.172098
1476,0.5963729999999999,0.590546,-0.543679,0.473252,-0.187867,-0.111686
1477,0.5971989999999999,0.6099939999999999,-0.5208189999999999,0.087723,-0.551751,-0.3608179999999999
1478,0.589579,0.633005,-0.501691,-0.349344,-0.766534,0.104688
1479,0.5713050000000001,0.658601,-0.489741,-0.863786,-1.08272,0.548442
1480,0.549611,0.688737,-0.4728229999999999,-0.942509,-1.35109,0.815596
1481,0.542437,0.7201270000000001,-0.4326319999999999,-0.878222,-0.898349,0.837952
1482,0.546355,0.7463810000000001,-0.380001,-0.790313,-0.713377,0.646816
1483,0.551886,0.765264,-0.331333,-0.7691100000000001,-0.573522,0.191624
1484,0.55285,0.776995,-0.301039,-1.134225,-0.023851,-0.172273
1485,0.5563520000000001,0.779552,-0.287682,-0.803315,-0.098582,-1.368812
1486,0.574637,0.780845,-0.245074,0.815973,5.792886,0.368411
1487,0.5877899999999999,0.7725310000000001,-0.2401829999999999,-0.32514,-0.6653220000000001,0.218531
1488,0.596797,0.759876,-0.2577,-0.40359,-0.156681,0.6958409999999999
1489,0.593117,0.769026,-0.238325,0.18859,-0.995634,0.718336
1490,0.579654,0.791922,-0.191955,0.247601,-1.044822,0.367034
1491,0.545434,0.8255950000000001,-0.1445,0.091376,-0.205783,0.452864
1492,0.5043350000000001,0.859136,-0.086703,0.330336,0.450313,0.012713
1493,0.460733,0.887424,-0.0137,0.470435,1.257291,-0.074557
1494,0.412534,0.908384,0.06808,1.097689,0.365877,-0.307353
1495,0.376534,0.915499,0.141643,1.745399,0.175977,-0.335307
1496,0.348995,0.917331,0.1915359999999999,1.1149639999999998,-0.069736,-1.216255
1497,0.332925,0.921537,0.199773,0.077155,-0.304151,-0.7659199999999999
1498,0.319112,0.927245,0.195867,-0.060964,0.442445,-0.025655
1499,0.301705,0.932727,0.197417,-0.31498,0.155774,-0.183226
1500,0.284733,0.940264,0.186573,-0.280125,-0.06708,-0.294941
1501,0.27402,0.948364,0.159682,-0.274493,-0.808716,-0.237181
1502,0.272752,0.953949,0.124776,-0.073503,-1.189667,-0.193608
1503,0.285946,0.954333,0.086401,-0.1052819999999999,-0.973864,0.255167
1504,0.313093,0.949003,0.036724,-0.2405989999999999,-0.726133,0.242328
1505,0.3555,0.934339,-0.024748,2.016875,0.504137,0.104918
1506,0.430896,0.893706,-0.124911,0.976391,1.146074,0.43761
1507,0.5029640000000001,0.8361860000000001,-0.218646,-0.0336949999999999,1.336009,0.160449
1508,0.5353979999999999,0.791957,-0.2934989999999999,-0.091687,2.1740310000000003,0.204708
1509,0.55125,0.7591,-0.346236,-0.318202,1.33143,0.419768
1510,0.5706680000000001,0.723245,-0.388902,-0.174,0.383506,0.143129
1511,0.581358,0.69107,-0.429459,0.39232,0.0068819999999999,-0.188492
1512,0.5833470000000001,0.661766,-0.470917,0.176343,0.150093,-0.313294
1513,0.5803149999999999,0.6492180000000001,-0.491672,0.659644,-0.163363,-0.274823
1514,0.592002,0.645135,-0.483038,0.810449,-0.448709,-0.054636
1515,0.5988140000000001,0.649388,-0.46873,0.148607,-0.770374,-0.258473
1516,0.601082,0.654086,-0.459197,-0.302849,-0.744663,-0.079148
1517,0.589191,0.6654359999999999,-0.4583,-0.954716,-1.23909,0.585986
1518,0.580216,0.685261,-0.4401779999999999,-1.187149,-1.528462,0.984124
1519,0.583244,0.714448,-0.386497,-1.088356,-1.070558,0.97866
1520,0.587515,0.739333,-0.328939,-0.7766930000000001,-0.825896,0.405981
1521,0.589417,0.752455,-0.293917,-0.70047,-0.933454,0.230593
1522,0.588514,0.7595729999999999,-0.276925,-1.167524,-0.328237,-0.094688
1523,0.59296,0.761605,-0.261427,0.253887,1.236534,0.309156
1524,0.611463,0.761946,-0.213392,2.5130630000000003,7.122118,0.3385289999999999
1525,0.6280859999999999,0.749879,-0.207784,-0.6396069999999999,-0.8396319999999999,0.591619
1526,0.639613,0.729125,-0.24343,-1.2670549999999998,-1.68901,1.19506
1527,0.641475,0.727715,-0.24275,-0.188685,-1.943978,0.51544
1528,0.628506,0.757067,-0.17837,0.4741399999999999,-0.330263,0.230021
1529,0.591448,0.796542,-0.125278,0.064817,0.544553,0.2500949999999999
1530,0.542982,0.8377479999999999,-0.057724,0.915774,1.894231,0.293747
1531,0.486246,0.873582,0.020056,0.1148579999999999,0.671203,-0.266486
1532,0.445643,0.8913719999999999,0.0827,0.468816,0.315476,-0.3128329999999999
1533,0.412893,0.8990739999999999,0.1454859999999999,1.795741,-0.009303,-0.489251
1534,0.392263,0.899861,0.190682,0.8687239999999999,-0.4994699999999999,-0.765908
1535,0.382348,0.9007040000000001,0.206208,-0.145379,0.029091,-0.6593180000000001
1536,0.371133,0.901978,0.220624,-0.2927639999999999,0.552917,-0.300229
1537,0.352152,0.90715,0.230315,-0.379023,0.130218,-0.529998
1538,0.333099,0.917401,0.217712,-0.321319,-0.339688,-0.3392489999999999
1539,0.322766,0.928295,0.184579,-0.149335,-1.016689,-0.170801
1540,0.326452,0.934007,0.14505,0.138407,-1.301058,-0.073242
1541,0.347725,0.931224,0.109039,-0.035896,-0.966945,0.193833
1542,0.381555,0.922576,0.057016,-0.251917,-0.5334760000000001,-0.481073
1543,0.425313,0.904999,-0.0082069999999999,1.691569,0.248901,-0.714022
1544,0.492507,0.8622700000000001,-0.117951,2.389085,1.222783,0.157578
1545,0.554742,0.803453,-0.216125,0.621955,1.407011,0.280547
1546,0.571657,0.7664569999999999,-0.292813,-0.628847,1.7611310000000002,0.449902
1547,0.585498,0.730019,-0.352495,-0.282901,1.145424,0.300218
1548,0.599418,0.688553,-0.408145,-0.032142,0.325409,0.104403
1549,0.617115,0.643315,-0.453106,0.292034,0.109477,-0.155918
1550,0.628599,0.597396,-0.497968,0.275301,0.565812,-0.383959
1551,0.635357,0.565054,-0.5263329999999999,0.8452940000000001,-0.2333739999999999,-0.118122
1552,0.64474,0.5521689999999999,-0.528594,0.905385,-0.471846,-0.1049359999999999
1553,0.6419229999999999,0.5594140000000001,-0.524388,-0.07895,-0.49609,-0.323756
1554,0.630657,0.573382,-0.522968,-0.2281,-0.6097279999999999,-0.020046
1555,0.603877,0.595653,-0.529643,-0.7795979999999999,-0.962489,0.5274909999999999
1556,0.575483,0.625096,-0.527319,-1.011472,-1.360219,1.087302
1557,0.5688310000000001,0.661496,-0.488718,-1.032606,-1.199979,1.040445
1558,0.578565,0.6984090000000001,-0.42128,-0.992902,-0.8116140000000001,0.650284
1559,0.587442,0.72311,-0.363336,-0.904779,-0.728862,0.148126
1560,0.589348,0.73482,-0.335704,-0.936943,-0.820391,0.0298569999999999
1561,0.587051,0.734379,-0.340657,-1.440658,-0.198628,-0.945369
1562,0.604164,0.729853,-0.319826,0.504708,3.3588160000000005,2.473848
1563,0.6326390000000001,0.720931,-0.282865,2.669759,6.36493,0.348447
1564,0.649622,0.69817,-0.3008929999999999,-0.995859,-1.201771,0.939
1565,0.6489590000000001,0.687299,-0.326282,-0.4269739999999999,-2.307034,0.67313
1566,0.661249,0.7009350000000001,-0.267256,0.4205529999999999,-0.5490189999999999,0.2300239999999999
1567,0.651311,0.735352,-0.187182,0.242427,-0.128876,-0.537702
1568,0.615631,0.774798,-0.143776,0.447662,1.20474,0.604759
1569,0.569762,0.8180270000000001,-0.078652,0.92029,1.556133,0.390817
1570,0.518039,0.854881,-0.0282149999999999,-0.1595339999999999,-0.410942,0.137804
1571,0.477879,0.8782190000000001,0.018574,0.740063,-0.145691,0.107875
1572,0.444762,0.8922059999999999,0.078335,1.254838,-0.024805,0.042957
1573,0.42516,0.895805,0.129435,0.839824,0.051064,-0.520487
1574,0.4146189999999999,0.895394,0.162293,-0.03614,0.415213,-0.607101
1575,0.401204,0.897609,0.182517,-0.181477,0.351765,-0.35163
1576,0.378705,0.906185,0.188123,-0.392667,0.064564,-0.4072389999999999
1577,0.354385,0.918015,0.17787,-0.3897239999999999,-0.443604,-0.5002880000000001
1578,0.337974,0.928733,0.152342,-0.348594,-0.6512979999999999,-0.389662
1579,0.331232,0.935935,0.11954,-0.15983,-1.124946,-0.083087
1580,0.335974,0.9379,0.086287,0.013437,-1.024509,0.049761
1581,0.352028,0.934893,0.045086,-0.080971,-0.908648,0.32587
1582,0.3764429999999999,0.926403,-0.007079,-0.032754,-0.548824,-0.8416299999999999
1583,0.41678,0.905841,-0.07569,2.806731,1.1634790000000002,0.01818
1584,0.4964739999999999,0.850513,-0.17357,0.197526,1.57066,0.350465
1585,0.555379,0.789539,-0.261092,-0.290288,1.868618,0.049864
1586,0.574261,0.752367,-0.322731,-0.601132,1.289655,0.415139
1587,0.593496,0.716813,-0.365965,-0.375158,0.569045,0.2060989999999999
1588,0.609875,0.680603,-0.405982,0.277942,0.105942,-0.002191
1589,0.623081,0.643701,-0.444308,0.278897,0.08959,-0.281476
1590,0.6310819999999999,0.614162,-0.473847,0.288611,0.128681,-0.356384
1591,0.6395069999999999,0.597597,-0.483631,0.974079,-0.362536,0.420886
1592,0.652565,0.594013,-0.470423,0.652733,-0.549763,-0.300558
1593,0.6484340000000001,0.603284,-0.464297,0.096317,-0.4745149999999999,-0.177594
1594,0.639995,0.618028,-0.45655,-0.325817,-0.6289680000000001,0.132622
1595,0.636262,0.632983,-0.441014,-0.795426,-0.946048,0.308736
1596,0.638814,0.6491279999999999,-0.412963,-0.995962,-0.996098,0.6860649999999999
1597,0.646863,0.672142,-0.360255,-1.096112,-0.862907,0.745692
1598,0.649077,0.696812,-0.305188,-0.923033,-0.673512,0.353085
1599,0.6474479999999999,0.714122,-0.266134,-0.772601,-0.709255,0.128866
1600,0.641596,0.722646,-0.257146,-0.949198,-0.570867,-0.107127
1601,0.63567,0.72159,-0.274262,-0.50626,1.680373,-0.011565
1602,0.646145,0.7247319999999999,-0.23926,0.195773,5.364928,1.971667
1603,0.678012,0.70412,-0.2109489999999999,1.625088,3.835934,-0.0826
1604,0.6923239999999999,0.6801590000000001,-0.2409489999999999,-0.46062,-0.527205,0.9857
1605,0.6843100000000001,0.678458,-0.267209,-0.452102,-1.781211,0.851209
1606,0.6648689999999999,0.704431,-0.248421,0.5430470000000001,-0.912454,0.363152
1607,0.645292,0.7348819999999999,-0.208644,0.310976,0.007916,0.112255
1608,0.623257,0.765439,-0.160118,0.105823,0.60628,0.212501
1609,0.587093,0.8030930000000001,-0.101716,0.314656,0.915596,0.068864
1610,0.54151,0.8393379999999999,-0.047538,-0.013861,-0.015455,-0.136193
1611,0.508408,0.8610690000000001,-0.007995,0.094284,0.07193,-0.172577
1612,0.487492,0.872433,0.034547,0.997371,-0.2026329999999999,-0.223588
1613,0.4760439999999999,0.8761,0.0762299999999999,0.420379,-0.4496779999999999,-0.825468
1614,0.469833,0.8781049999999999,0.09037,0.162232,-0.412896,-0.85424
1615,0.466006,0.880315,0.088671,-0.30701,0.074275,-0.09247
1616,0.458095,0.88538,0.078935,-0.468211,-0.104893,-0.1254279999999999
1617,0.448134,0.892328,0.053912,-0.546004,-0.221002,-0.098453
1618,0.438396,0.898632,0.015797,-0.466732,-0.829266,0.076411
1619,0.43353,0.900721,-0.027116,-0.2847409999999999,-1.1613870000000002,0.258027
1620,0.437208,0.8965540000000001,-0.070863,-0.2149489999999999,-1.088952,0.387071
1621,0.451801,0.8855129999999999,-0.108278,0.265194,-0.49881,-0.602797
1622,0.482728,0.8615010000000001,-0.157391,2.538146,0.619761,0.191647
1623,0.557429,0.797297,-0.231462,0.037084,0.6457729999999999,-0.223768
1624,0.6208199999999999,0.720735,-0.308398,0.0017079999999999,1.610793,-0.621854
1625,0.648292,0.669892,-0.361869,-0.4393069999999999,1.967239,0.537925
1626,0.6831520000000001,0.629656,-0.369897,-0.690033,0.529371,0.267403
1627,0.6979529999999999,0.5994550000000001,-0.391794,0.374969,-0.016402,0.059092
1628,0.7015239999999999,0.571674,-0.42549,0.697555,-0.060764,-0.257341
1629,0.698599,0.546772,-0.4615069999999999,0.537454,0.3871429999999999,-0.384791
1630,0.702461,0.535914,-0.468331,0.6576,-0.206156,0.267098
1631,0.706831,0.547621,-0.447762,0.317553,-0.488493,-0.105949
1632,0.7046789999999999,0.573225,-0.418124,-0.1853,-0.464827,-0.137723
1633,0.695131,0.607391,-0.38452,-0.338335,-0.635177,-0.066225
1634,0.6835640000000001,0.635575,-0.358846,-0.7231449999999999,-0.85605,0.1425529999999999
1635,0.6756300000000001,0.657941,-0.332599,-0.834993,-0.787504,0.2351869999999999
1636,0.670259,0.676575,-0.304933,-0.798814,-0.376389,0.0663
1637,0.662058,0.6922,-0.287269,-0.602488,-0.356903,0.153953
1638,0.656367,0.701434,-0.277771,-0.480296,-0.244769,0.259659
1639,0.6534979999999999,0.707695,-0.2685,-0.4626409999999999,-0.065453,0.2100429999999999
1640,0.650467,0.712282,-0.263685,-0.703721,0.286146,-1.07152
1641,0.659486,0.722981,-0.205812,0.3080739999999999,2.674968,2.753267
1642,0.6557850000000001,0.7329060000000001,-0.181043,0.178001,1.248188,-0.286609
1643,0.659993,0.720062,-0.214248,0.055461,0.089401,-0.240388
1644,0.666758,0.707326,-0.2347469999999999,0.410589,0.383341,0.067725
1645,0.66532,0.706064,-0.242501,0.29043,-0.5139859999999999,0.6936720000000001
1646,0.654421,0.719655,-0.231977,-0.148714,-0.251485,0.295729
1647,0.6485449999999999,0.730653,-0.213351,-0.2084349999999999,-0.179017,0.387408
1648,0.642666,0.747471,-0.168075,-0.152661,0.091289,0.420196
1649,0.6272260000000001,0.770047,-0.116604,-0.350507,0.472354,-0.109272
1650,0.600108,0.795606,-0.082835,-0.224345,0.388232,-0.141302
1651,0.568076,0.8212799999999999,-0.052612,0.618066,0.013833,-0.05832
1652,0.5452319999999999,0.8379409999999999,-0.0235949999999999,0.647899,-0.173848,-0.0552309999999999
1653,0.534259,0.845303,-0.002934,0.3019989999999999,-0.238644,-0.165431
1654,0.528257,0.849043,0.006977,-0.004667,-0.089156,-0.241749
1655,0.5202640000000001,0.8539549999999999,0.008048,-0.239426,-0.144009,-0.10314
1656,0.5088199999999999,0.8608600000000001,9.3e-05,-0.32103,-0.229757,-0.064302
1657,0.49509,0.8686860000000001,-0.015809,-0.393359,-0.629703,-0.161224
1658,0.4836229999999999,0.874409,-0.038698,-0.383235,-0.8402139999999999,-0.131133
1659,0.477862,0.876059,-0.064403,-0.341296,-0.898566,-0.079442
1660,0.479225,0.872653,-0.093815,-0.226906,-0.907168,0.357182
1661,0.485252,0.864303,-0.132258,-0.025459,-0.684966,-0.356191
1662,0.49287,0.851366,-0.179548,0.334629,-0.637315,-0.953432
1663,0.533831,0.813159,-0.231905,1.333646,1.707959,0.5729390000000001
1664,0.596692,0.751513,-0.281373,-0.1235319999999999,1.641996,-0.265914
1665,0.627496,0.705002,-0.330465,-0.404412,2.208588,0.039846
1666,0.652323,0.670565,-0.353275,-0.6469520000000001,0.962538,0.27631
1667,0.6643399999999999,0.648247,-0.37204,-0.156452,0.02996,0.500977
1668,0.674706,0.632616,-0.380205,0.155251,-0.138949,0.446779
1669,0.690879,0.612468,-0.38413,0.258965,-0.060557,-0.335536
1670,0.703152,0.594694,-0.389748,0.358234,0.230898,-0.290809
1671,0.7135060000000001,0.586252,-0.383673,0.6366069999999999,-0.089472,0.083639
1672,0.7137020000000001,0.5920949999999999,-0.374218,0.190442,-0.274148,0.067044
1673,0.7000270000000001,0.61405,-0.364543,-0.167968,-0.312307,0.1489359999999999
1674,0.6842779999999999,0.642333,-0.3451929999999999,-0.304411,-0.4147939999999999,0.173455
1675,0.6706439999999999,0.670037,-0.318236,-0.806996,-0.665032,-0.020006
1676,0.6563,0.695801,-0.291747,-0.8589370000000001,-0.510102,-0.0295269999999999
1677,0.641305,0.7181609999999999,-0.270108,-0.754739,-0.3669949999999999,-0.032047
1678,0.629103,0.733468,-0.257369,-0.373625,-0.144296,-0.022157
1679,0.622862,0.738935,-0.2569099999999999,-0.203749,-0.049085,0.1297579999999999
1680,0.620315,0.739187,-0.262291,-0.191604,0.078425,0.121666
1681,0.626257,0.738102,-0.250982,0.05047,0.191997,0.419958
1682,0.636407,0.739316,-0.21996,0.283713,0.8373290000000001,-0.289729
1683,0.644258,0.741981,-0.185415,0.7931189999999999,1.4144370000000002,0.601873
1684,0.6435890000000001,0.740507,-0.193457,0.0591549999999999,0.412889,0.107398
1685,0.635069,0.739613,-0.2228099999999999,-0.110731,-0.2038,0.428728
1686,0.618506,0.748132,-0.240277,-0.10726,-0.284204,0.449078
1687,0.611648,0.7561359999999999,-0.232655,-0.007095,-0.228533,0.132618
1688,0.609928,0.7601939999999999,-0.223776,0.138973,0.30667,-0.06196
1689,0.6072,0.766582,-0.208913,0.206948,0.441579,0.350804
1690,0.6003890000000001,0.776965,-0.189321,-0.222688,0.036924,0.260702
1691,0.584647,0.792088,-0.175406,-0.18566,-0.065922,0.314002
1692,0.566944,0.808875,-0.1558109999999999,-0.014011,0.038094,0.315067
1693,0.5532130000000001,0.822896,-0.1295349999999999,0.1125119999999999,0.1340589999999999,0.168689
1694,0.543428,0.8322940000000001,-0.109332,0.021453,-0.00243,-0.020093
1695,0.535784,0.8388459999999999,-0.096201,0.02429,-0.077157,-0.06632
1696,0.529221,0.843777,-0.089142,0.020294,-0.151395,-0.081924
1697,0.524267,0.847295,-0.0849559999999999,-0.091497,-0.396734,-0.042516
1698,0.51941,0.8503700000000001,-0.084058,-0.150391,-0.46153,-0.036059
