,gravity.x,gravity.y,gravity.z,userAcceleration.x,userAcceleration.y,userAcceleration.z
0,0.017144,0.935096,-0.35397,0.014,-0.1418829999999999,-0.032978
1,0.014187,0.936111,-0.351411,-0.006192,-0.1428819999999999,-0.057586
2,0.01105,0.937918,-0.346671,0.001737,-0.142447,-0.078973
3,0.0078099999999999,0.940062,-0.340905,0.00278,-0.093321,-0.106102
4,0.006044,0.942006,-0.3355309999999999,-0.01053,-0.046636,-0.144755
5,0.0066489999999999,0.943694,-0.330743,-0.015026,0.001939,-0.188132
6,0.009364,0.94514,-0.326519,-0.025981,0.031636,-0.212986
7,0.0130289999999999,0.947177,-0.320434,-0.046537,0.0125239999999999,-0.2298889999999999
8,0.015497,0.949444,-0.313542,-0.074289,0.099949,-0.128993
9,0.01611,0.95166,-0.306719,-0.043545,0.1633,-0.131514
10,0.0146449999999999,0.954441,-0.298029,-0.121029,-0.022769,0.015116
11,0.014602,0.957193,-0.289068,-0.153488,0.01348,0.013083
12,0.017162,0.959175,-0.282277,-0.128185,0.035682,-0.012523
13,0.020435,0.961504,-0.274014,-0.005054,-0.045107,0.1695829999999999
14,0.02499,0.963886,-0.2651239999999999,0.145939,-0.051823,0.246265
15,0.032273,0.966768,-0.2535929999999999,0.194427,-0.006365,0.259315
16,0.0401689999999999,0.97026,-0.238693,0.152946,0.197815,0.185821
17,0.045417,0.974117,-0.221417,0.085321,0.1564829999999999,0.142499
18,0.047645,0.977461,-0.205648,0.048149,-0.0038439999999999,0.1036579999999999
19,0.050049,0.98039,-0.190585,-0.019074,-0.133939,0.091601
20,0.055134,0.983164,-0.174184,-0.0188629999999999,-0.117442,0.080678
21,0.0621179999999999,0.985713,-0.156532,0.007233,-0.074336,0.0736769999999999
22,0.070233,0.987928,-0.138051,0.111545,-0.0131349999999999,0.036
23,0.079506,0.989524,-0.120468,0.115211,-0.029182,0.042755
24,0.088702,0.990532,-0.104735,0.057004,-0.0664299999999999,0.046522
25,0.097232,0.991272,-0.088979,-0.002124,-0.088135,0.051244
26,0.1043019999999999,0.991865,-0.072916,0.030387,-0.128889,-0.002844
27,0.110147,0.992315,-0.056308,0.036963,-0.146475,-0.033536
28,0.11504,0.992587,-0.03911,0.167965,-0.10657,-0.001525
29,0.119558,0.992583,-0.021811,0.1831,-0.120513,0.002142
30,0.122219,0.992488,-0.004629,0.106922,-0.151561,-0.013895
31,0.122369,0.992401,0.012549,0.0765909999999999,-0.098205,-0.009863
32,0.120097,0.99234,0.02877,0.051213,-0.0106959999999999,0.011574
33,0.117268,0.992177,0.042698,0.056377,0.052135,0.006664
34,0.1148309999999999,0.99196,0.0531019999999999,0.044074,0.040221,-0.044404
35,0.111388,0.991931,0.0604539999999999,0.0616009999999999,0.040433,-0.0534809999999999
36,0.1081599999999999,0.991868,0.066991,0.111993,0.054884,-0.072011
37,0.106477,0.991547,0.0740649999999999,0.171706,0.061813,-0.11502
38,0.105726,0.99095,0.082633,0.197985,0.1380019999999999,-0.118995
39,0.103129,0.990347,0.092552,0.233892,0.336557,-0.107017
40,0.097577,0.989981,0.102002,0.2378719999999999,0.4465119999999999,-0.1128359999999999
41,0.090275,0.989914,0.109128,0.3321949999999999,0.3414,-0.211774
42,0.082795,0.990125,0.113073,0.339675,0.3411889999999999,-0.215719
43,0.079371,0.990303,0.113968,0.3874869999999999,-0.007042,-0.091125
44,0.081822,0.990354,0.111763,0.217723,-0.194166,-0.064872
45,0.088426,0.99064,0.1039269999999999,0.067625,-0.3018889999999999,-0.04724
46,0.095647,0.991588,0.087132,-0.0584,-0.31454,-0.061574
47,0.102544,0.992712,0.063212,-0.083959,-0.229025,-0.104472
48,0.1071839999999999,0.993635,0.034496,-0.065832,-0.136152,-0.058483
49,0.110947,0.993806,0.005471,0.010193,-0.040177,-0.07177
50,0.114201,0.993143,-0.024775,0.081951,0.061041,-0.051321
51,0.114624,0.991794,-0.056517,0.058609,0.125927,-0.019944
52,0.112741,0.98965,-0.088726,-0.015649,0.289525,-0.006794
53,0.11225,0.986288,-0.120939,-0.090643,0.607416,-0.096605
54,0.11188,0.981986,-0.152241,-0.144793,0.6038600000000001,-0.172268
55,0.109839,0.977808,-0.178378,-0.148382,0.887228,-0.208569
56,0.103943,0.974403,-0.199313,-0.161041,0.8772969999999999,-0.309644
57,0.095101,0.972348,-0.213275,-0.277856,0.7701600000000001,-0.3285949999999999
58,0.086406,0.971985,-0.218565,-0.315425,0.415314,-0.265184
59,0.079283,0.973374,-0.215052,-0.274123,0.230788,-0.2184199999999999
60,0.0723019999999999,0.97619,-0.204492,-0.084249,-0.063317,-0.148917
61,0.065199,0.980041,-0.187772,0.170702,-0.363113,-0.1325859999999999
62,0.059952,0.983927,-0.168175,0.264054,-0.483027,-0.144417
63,0.055643,0.986673,-0.152874,0.3110719999999999,-0.8035979999999999,-0.014911
64,0.054077,0.988008,-0.144586,0.042251,-1.295625,0.094049
65,0.064266,0.988161,-0.13927,-0.165692,-1.280108,0.070117
66,0.085792,0.987581,-0.131577,-0.301322,-1.219667,0.058914
67,0.1121089999999999,0.985994,-0.123438,-0.188555,-0.946565,0.165796
68,0.134703,0.983976,-0.116771,-0.041029,-0.53967,0.141444
69,0.14914,0.982755,-0.109259,-0.010361,-0.567457,0.413779
70,0.166255,0.979608,-0.112765,-0.207683,-0.131677,0.660571
71,0.176204,0.975139,-0.134331,-0.3362989999999999,0.587453,0.29551
72,0.1643369999999999,0.973964,-0.156128,-0.366883,0.8313950000000001,-0.293014
73,0.162293,0.973761,-0.159497,0.001388,0.020929,-0.119891
74,0.1774099999999999,0.969705,-0.167889,0.346699,0.108344,0.087337
75,0.1993599999999999,0.964026,-0.175777,0.644192,0.409173,-0.003285
76,0.2165139999999999,0.964009,-0.1542589999999999,0.376672,1.22462,-0.0396339999999999
77,0.219442,0.969247,-0.11132,0.217753,1.03617,-0.2747429999999999
78,0.2233969999999999,0.972498,-0.065785,0.311027,0.727773,-0.347041
79,0.2240909999999999,0.974231,-0.02536,0.169906,1.00964,-0.322266
80,0.209042,0.977861,0.008654,0.329105,0.595854,-0.40674
81,0.188121,0.981517,0.03493,0.357717,0.250417,-0.382571
82,0.169749,0.983918,0.055452,0.160054,-0.406587,-0.312212
83,0.155645,0.98524,0.071135,-0.168523,-0.743953,-0.283888
84,0.133795,0.987802,0.0795559999999999,-0.1927549999999999,-0.7849520000000001,-0.068311
85,0.110957,0.990488,0.081271,-0.09199,-0.7870739999999999,0.0527309999999999
86,0.096313,0.992611,0.073698,-0.047409,-0.914822,-0.0668779999999999
87,0.092779,0.99397,0.0583039999999999,-0.057714,-1.044385,0.034973
88,0.095724,0.994656,0.038471,-0.184301,-1.172741,0.142971
89,0.101469,0.994731,0.014041,-0.177702,-1.015254,0.1218539999999999
90,0.10983,0.99385,-0.013537,-0.2861599999999999,-0.419174,0.227144
91,0.122214,0.990738,-0.059051,-0.135657,0.6662600000000001,0.288528
92,0.140245,0.983825,-0.111376,0.037215,0.774292,0.3492
93,0.161411,0.976442,-0.143157,0.143353,1.120375,-0.173066
94,0.161962,0.972148,-0.169363,0.107371,0.967504,-0.186274
95,0.1555609999999999,0.96776,-0.1980599999999999,0.24283,0.7615029999999999,-0.302795
96,0.14804,0.961909,-0.22979,0.248261,1.066808,-0.343025
97,0.139023,0.957534,-0.252563,0.167633,1.46872,-0.332276
98,0.1257609999999999,0.958608,-0.255428,-0.249204,1.009837,-0.3891179999999999
99,0.115064,0.962241,-0.24666,-0.2741369999999999,0.401468,-0.305037
100,0.108163,0.966162,-0.2341369999999999,-0.08091,-0.303488,-0.050775
101,0.103676,0.970701,-0.216744,-0.02752,-0.536772,-0.065407
102,0.101315,0.975169,-0.196898,0.0887179999999999,-1.0042209999999998,0.030349
103,0.098835,0.978654,-0.180153,0.064632,-1.446992,0.086845
104,0.095291,0.98119,-0.167848,0.003296,-1.460026,0.043824
105,0.105636,0.981446,-0.159976,-0.298293,-1.209565,0.1310609999999999
106,0.1295339999999999,0.978951,-0.157676,-0.324587,-0.8896719999999999,0.397209
107,0.152214,0.974036,-0.167544,-0.357475,-0.6280279999999999,0.344928
108,0.166676,0.96887,-0.183022,-0.308354,-0.367506,0.003091
109,0.182382,0.962964,-0.198555,-0.169931,-0.416059,0.6487649999999999
110,0.2033599999999999,0.951617,-0.230342,-0.212454,-0.185717,0.809078
111,0.2190219999999999,0.942157,-0.253689,-0.253537,0.602033,0.439739
112,0.22379,0.939156,-0.26056,-0.004964,0.526756,-0.428817
113,0.228828,0.936997,-0.263934,-0.154166,0.03572,-0.174695
114,0.231365,0.935182,-0.268129,0.045064,0.371642,0.036425
115,0.2325949999999999,0.940192,-0.248851,0.250102,0.7557010000000001,0.125545
116,0.228482,0.950996,-0.208302,0.204318,1.184106,-0.272304
117,0.22246,0.962283,-0.156551,0.354902,1.117337,-0.464085
118,0.223264,0.968988,-0.105833,0.711932,0.526404,-0.3871469999999999
119,0.223384,0.97278,-0.061508,0.38915,0.305861,-0.133225
120,0.211966,0.977017,-0.022167,0.415185,0.325702,-0.235569
121,0.184407,0.982729,0.014833,0.339366,0.35774,-0.160341
122,0.157825,0.986601,0.041139,-0.0466339999999999,-0.169096,-0.344118
123,0.137177,0.988882,0.057246,-0.398285,-0.602377,-0.2327219999999999
124,0.113189,0.991509,0.0638779999999999,-0.2707969999999999,-0.70533,-0.001942
125,0.093342,0.99373,0.0613929999999999,-0.1095309999999999,-0.925493,0.2293329999999999
126,0.082937,0.995391,0.047957,-0.040182,-0.997313,0.216585
127,0.08975,0.995555,0.028236,0.038454,-1.085337,0.29789
128,0.1055789999999999,0.9944,-0.00156,-0.084491,-1.142426,0.099445
129,0.122299,0.991852,-0.035433,-0.238693,-0.920975,0.12491
130,0.137615,0.987922,-0.0711,-0.3175469999999999,-0.2240059999999999,0.334543
131,0.149672,0.979986,-0.131191,-0.141524,0.732524,0.347453
132,0.164904,0.967874,-0.189767,0.095014,0.8547879999999999,0.054452
133,0.176196,0.956612,-0.232025,0.19888,0.684059,-0.271103
134,0.171481,0.951058,-0.25704,0.195554,1.616401,-0.4920899999999999
135,0.166301,0.943975,-0.285028,0.231618,0.677545,-0.511405
136,0.152525,0.934838,-0.320626,0.643373,0.937019,-0.569343
137,0.127278,0.929289,-0.346713,0.6771199999999999,1.264101,-0.464429
138,0.105367,0.93092,-0.349676,0.127513,0.935978,-0.340555
139,0.096626,0.935899,-0.338738,-0.229698,0.288222,-0.2856059999999999
140,0.093595,0.943001,-0.319338,-0.392881,-0.28878,-0.182874
141,0.087722,0.951224,-0.295744,-0.203308,-0.6230680000000001,-0.057314
142,0.0836129999999999,0.95841,-0.272848,0.012532,-0.96137,0.144277
143,0.08276,0.964233,-0.251777,0.070225,-1.163482,0.3388739999999999
144,0.084227,0.968059,-0.2361199999999999,-0.267577,-1.395381,0.3784389999999999
145,0.095355,0.969641,-0.2251429999999999,-0.4053219999999999,-1.048681,0.5240779999999999
146,0.117279,0.968147,-0.221183,-0.399215,-0.834404,0.497168
147,0.136801,0.963923,-0.228307,-0.3800719999999999,-0.450693,-0.0214789999999999
148,0.154161,0.959752,-0.234725,-0.25525,-0.676534,0.216903
149,0.171175,0.952092,-0.253389,-0.300661,-0.535451,0.668763
150,0.186838,0.940417,-0.284066,0.199317,0.588956,0.466012
151,0.1993049999999999,0.934654,-0.294425,0.313848,1.590798,-0.198968
152,0.203755,0.934539,-0.291731,-0.165853,0.3835,-0.295946
153,0.205779,0.934696,-0.289801,-0.152113,0.140865,0.301672
154,0.209438,0.938543,-0.274333,0.34148,0.732783,0.0760909999999999
155,0.2118519999999999,0.948737,-0.234528,0.339066,0.722589,0.036285
156,0.202121,0.961867,-0.1842369999999999,0.43588,1.515077,-0.335554
157,0.19915,0.971216,-0.130624,0.8461069999999999,1.102927,-0.514686
158,0.2020819999999999,0.975564,-0.086139,0.658208,0.744544,-0.5011260000000001
159,0.196405,0.979327,-0.048214,0.592184,0.6343810000000001,-0.472415
160,0.175292,0.984383,-0.015577,0.2349409999999999,-0.051003,-0.086886
161,0.14681,0.989069,0.012974,0.0124459999999999,-0.5365850000000001,-0.151158
162,0.113142,0.992889,0.036752,-0.362776,-0.361572,-0.008218
163,0.0808649999999999,0.995576,0.047631,-0.123178,-0.841233,0.078651
164,0.053841,0.997617,0.042922,-0.0961539999999999,-0.843274,0.08336
165,0.040749,0.998817,0.026164,-0.00602,-1.048652,0.122655
166,0.038909,0.999216,0.005848,0.008027,-1.266016,0.339901
167,0.043897,0.998865,-0.017991,-0.041181,-1.0810030000000002,-0.072799
168,0.0495209999999999,0.99792,-0.041063,-0.099051,-0.949717,-0.042571
169,0.049574,0.996679,-0.064461,-0.113936,-0.702017,-0.052162
170,0.0472459999999999,0.994967,-0.088277,-0.151372,-0.016894,0.290624
171,0.046097,0.989325,-0.138189,0.325592,1.338877,0.7193649999999999
172,0.060041,0.977689,-0.201257,0.550113,2.091784,0.132639
173,0.061786,0.972184,-0.2258889999999999,-0.281254,1.131804,-0.061952
174,0.053823,0.968831,-0.241773,-0.111547,1.311442,-0.6804680000000001
175,0.0552169999999999,0.963243,-0.262868,0.081273,0.845808,-0.6279560000000001
176,0.05016,0.956241,-0.288224,0.235591,1.08241,-0.27336
177,0.047055,0.952743,-0.300089,0.160159,1.002518,-0.125113
178,0.043792,0.956241,-0.289261,0.091614,0.452527,-0.0117489999999999
179,0.034194,0.963685,-0.264816,0.156342,-0.353074,-0.007889
180,0.024454,0.970219,-0.2409619999999999,0.233176,-0.922749,0.191462
181,0.017875,0.974624,-0.223102,-0.100669,-1.610717,0.2279389999999999
182,0.0182449999999999,0.976521,-0.214613,-0.403682,-1.787999,0.190367
183,0.041768,0.975933,-0.214,-0.52918,-1.552593,0.4299729999999999
184,0.083294,0.97183,-0.220438,-0.3981889999999999,-1.023298,0.66981
185,0.11799,0.96358,-0.239953,-0.19404,-0.296039,0.272866
186,0.1348,0.956519,-0.258626,0.0523039999999999,0.474221,-0.468684
187,0.154265,0.949473,-0.273294,0.242616,-0.491588,-0.011633
188,0.178896,0.942002,-0.28393,0.273833,-1.625916,0.253321
189,0.199879,0.933915,-0.296376,-0.2369119999999999,-1.469377,0.8618819999999999
190,0.2123469999999999,0.924603,-0.316238,-0.730521,2.343632,0.186325
191,0.211365,0.928866,-0.304172,-0.5374,5.07147,-0.7728689999999999
192,0.2190639999999999,0.935305,-0.277855,0.5638340000000001,0.052946,0.153924
193,0.215669,0.941635,-0.258451,0.409163,0.331451,0.308286
194,0.2154,0.95081,-0.222596,0.349114,1.039104,0.021378
195,0.208353,0.964125,-0.164434,0.166266,1.645922,-0.255884
196,0.200992,0.973648,-0.107688,1.0807,0.931397,-0.321084
197,0.205311,0.97649,-0.065568,1.031475,0.579037,-0.280074
198,0.201693,0.978803,-0.035323,0.46623,0.424456,-0.298554
199,0.1816839999999999,0.983324,-0.006929,-0.032987,-0.107027,-0.165266
200,0.161333,0.986666,0.0210939999999999,-0.225802,-0.347963,-0.146537
201,0.142151,0.98909,0.038439,-0.4690399999999999,-0.572494,-0.146243
202,0.11914,0.992021,0.041012,-0.194213,-0.7350939999999999,-0.069118
203,0.097458,0.994689,0.032825,-0.0612799999999999,-0.916229,0.007947
204,0.089732,0.995736,0.020983,0.07636,-1.096093,0.095411
205,0.096507,0.995304,0.006205,0.066671,-1.091191,0.257726
206,0.108893,0.993962,-0.01281,-0.067008,-1.1428120000000002,0.17379
207,0.1213619999999999,0.991896,-0.037368,-0.278528,-0.847548,0.156997
208,0.130191,0.989338,-0.065159,-0.488361,-0.290836,0.190403
209,0.136379,0.986014,-0.095714,-0.4945479999999999,-0.287513,0.220959
210,0.145401,0.979211,-0.1413869999999999,0.174789,1.042563,0.6347189999999999
211,0.159143,0.969385,-0.1869579999999999,0.638266,1.613318,-0.080437
212,0.156177,0.964483,-0.213001,0.322659,1.480754,-0.1378599999999999
213,0.146858,0.960769,-0.235254,0.138725,1.604966,-0.442542
214,0.140075,0.95338,-0.26727,0.0787669999999999,1.170491,-0.637683
215,0.127394,0.945216,-0.300543,0.284517,1.257009,-0.472803
216,0.11332,0.943121,-0.312523,-0.025307,0.805552,-0.278068
217,0.105268,0.947592,-0.301623,-0.135251,-0.018546,-0.058912
218,0.107662,0.954414,-0.2783739999999999,-0.078578,-0.098747,0.001717
219,0.114863,0.960271,-0.25431,0.06632,-0.788,0.089912
220,0.119542,0.964806,-0.234196,0.075664,-1.253685,0.225132
221,0.120348,0.968092,-0.21978,-0.347567,-1.584547,0.244423
222,0.125824,0.970387,-0.206169,-0.38176,-1.423619,0.19062
223,0.151278,0.969145,-0.194579,-0.33182,-1.149748,0.384902
224,0.18456,0.96389,-0.191943,-0.141591,-0.684914,0.254778
225,0.210138,0.957434,-0.197863,-0.133997,-0.383231,0.138049
226,0.223603,0.952506,-0.206692,-0.194779,-0.363242,0.0657919999999999
227,0.234873,0.947228,-0.218132,-0.221446,-0.551308,0.414147
228,0.25103,0.938177,-0.2383219999999999,-0.4002,-0.25498,0.54896
229,0.267406,0.928528,-0.257525,-0.659145,1.101517,0.8547239999999999
230,0.269997,0.931454,-0.243894,0.260444,0.746632,-0.245288
231,0.279493,0.929882,-0.2391469999999999,0.182528,0.269947,-0.310093
232,0.280789,0.930858,-0.2337739999999999,0.638095,0.902135,0.0178009999999999
233,0.277383,0.938221,-0.20685,0.6099,0.8720049999999999,0.038546
234,0.27371,0.949174,-0.155367,0.1429619999999999,0.908706,-0.2650889999999999
235,0.270706,0.958294,-0.09153,0.495911,0.6552319999999999,-0.425849
236,0.273805,0.961028,-0.03796,0.831267,0.677994,-0.275806
237,0.268484,0.963275,0.00151,0.340646,0.760541,-0.243759
238,0.2405969999999999,0.970171,0.029412,0.024829,0.667249,-0.253594
239,0.208428,0.976735,0.05031,-0.1119619999999999,0.0919,-0.323427
240,0.1842339999999999,0.980734,0.064821,-0.424331,-0.662192,-0.316469
241,0.1607559999999999,0.984699,0.067139,-0.359166,-0.8626290000000001,-0.151398
242,0.139014,0.9886,0.057697,-0.259238,-0.981947,-0.050831
243,0.129356,0.990772,0.0402649999999999,-0.170143,-1.081257,0.269992
244,0.1409,0.989893,0.0155979999999999,0.20047,-0.832468,0.406659
245,0.158147,0.987244,-0.018004,-0.023351,-0.980881,0.359648
246,0.172298,0.983573,-0.053693,-0.281398,-1.115485,0.060346
247,0.184834,0.979678,-0.077794,-0.4904979999999999,-0.179355,0.105199
248,0.194117,0.973262,-0.122742,-0.261179,0.5939989999999999,0.155426
249,0.202247,0.963866,-0.173335,0.27369,1.149217,0.108669
250,0.205438,0.955397,-0.21213,0.170142,0.5701,-0.0460029999999999
251,0.202924,0.94905,-0.241067,0.0988179999999999,1.131455,-0.242896
252,0.2040789999999999,0.942699,-0.263928,-0.325326,0.93552,-0.523838
253,0.197716,0.939285,-0.280429,0.021797,1.196548,-0.497876
254,0.184876,0.9401,-0.286396,0.108551,1.172404,-0.448086
255,0.174127,0.943584,-0.2816349999999999,0.026786,0.8486370000000001,-0.316143
256,0.167625,0.949301,-0.265927,-0.084922,0.205759,-0.140536
257,0.161607,0.955389,-0.247192,-0.05417,-0.1631369999999999,-0.092926
258,0.150621,0.961337,-0.230503,0.161162,-1.044452,-0.021541
259,0.139664,0.966381,-0.215846,0.074661,-1.4204370000000002,0.076534
260,0.131515,0.970406,-0.202493,-0.0177139999999999,-1.571358,0.074701
261,0.140733,0.970813,-0.194173,-0.372575,-1.401477,0.4654899999999999
262,0.16846,0.967352,-0.189313,-0.396167,-0.996511,0.5477569999999999
263,0.196931,0.960821,-0.195011,-0.356309,-0.35967,0.267978
264,0.214491,0.954779,-0.205857,-0.311094,-0.1957,-0.015105
265,0.2312469999999999,0.947,-0.222946,-0.296966,-0.220071,0.7444149999999999
266,0.244759,0.935809,-0.253661,-0.343636,0.89665,0.3089739999999999
267,0.252172,0.929794,-0.268106,-0.025029,1.032913,-0.219809
268,0.251722,0.931512,-0.262508,0.269061,0.5269229999999999,-0.1316109999999999
269,0.256981,0.931854,-0.2561179999999999,0.477425,0.7565,-0.067353
270,0.254007,0.937744,-0.236863,0.698752,0.8082729999999999,0.18924
271,0.246051,0.94886,-0.197764,0.127377,1.044365,-0.156545
272,0.2365,0.961758,-0.138113,0.251323,1.032184,-0.417612
273,0.229761,0.969854,-0.081108,0.628195,1.211375,-0.4273909999999999
274,0.224521,0.973672,-0.03921,0.290128,0.585364,-0.341802
275,0.209231,0.977767,-0.0133569999999999,-0.226275,-0.665419,-0.144999
276,0.181678,0.983306,0.009276,-0.3171449999999999,-0.6103350000000001,0.149095
277,0.14829,0.988368,0.033496,-0.407049,-0.328502,0.052945
278,0.1188369999999999,0.991687,0.04918,-0.204576,-0.506366,-0.048921
279,0.095106,0.994305,0.047904,0.044084,-0.7109340000000001,-0.077247
280,0.072864,0.99679,0.032928,-0.067981,-1.143137,0.008484
281,0.057258,0.998247,0.014388,-0.059715,-1.288149,0.2191789999999999
282,0.051308,0.99866,-0.00548,0.020546,-1.172534,0.212313
283,0.0520679999999999,0.998257,-0.027497,0.081294,-1.06062,-0.14952
284,0.05472,0.997234,-0.050157,0.113295,-0.7545430000000001,-0.0063
285,0.05677,0.995333,-0.077937,-0.0710679999999999,-0.3596519999999999,0.258586
286,0.0603059999999999,0.991667,-0.113776,0.043637,0.837068,0.529151
287,0.068978,0.984212,-0.162954,0.0295329999999999,1.725291,0.406423
288,0.0864289999999999,0.976213,-0.1988079999999999,-0.0779,1.172499,-0.052153
289,0.08276,0.972802,-0.2163179999999999,-0.014889,1.22042,-0.243842
290,0.073108,0.969964,-0.2319719999999999,0.135007,0.492926,-0.353431
291,0.0634179999999999,0.965126,-0.253963,0.297926,0.8212209999999999,-0.311589
292,0.052511,0.960119,-0.274594,0.105418,1.2984870000000002,-0.208392
293,0.049375,0.957415,-0.28444,-0.09268,1.197385,-0.373825
294,0.054428,0.957411,-0.283531,-0.134277,0.420519,-0.199288
295,0.058704,0.957992,-0.280698,0.1156119999999999,-0.281113,0.032331
296,0.062265,0.958867,-0.27692,0.307761,-0.734578,0.319218
297,0.0694429999999999,0.960982,-0.267726,0.303588,-1.343108,0.399821
298,0.075018,0.963959,-0.255228,-0.32868,-1.623353,0.169962
299,0.08313,0.967113,-0.24035,-0.447769,-1.459651,0.279275
300,0.099845,0.968571,-0.22779,-0.401648,-1.074985,0.485282
301,0.114078,0.967595,-0.225237,-0.253528,-0.4404189999999999,0.147982
302,0.11827,0.964845,-0.234677,-0.141784,-0.374681,0.0748559999999999
303,0.131997,0.958186,-0.253854,-0.06196,-0.453517,0.282327
304,0.154977,0.945839,-0.285234,-0.330362,0.2121199999999999,0.4047719999999999
305,0.183869,0.930463,-0.316889,-0.333954,1.380435,0.538553
306,0.191761,0.926557,-0.323585,0.026974,-0.143522,-0.2570429999999999
307,0.193144,0.926842,-0.321941,0.289491,0.035911,0.033291
308,0.1980309999999999,0.927427,-0.317254,0.469602,0.2725849999999999,0.194146
309,0.201233,0.934194,-0.294572,0.336471,1.161402,0.074266
310,0.2019099999999999,0.948144,-0.245442,0.292597,1.362082,-0.490581
311,0.19221,0.964079,-0.18328,0.582128,1.0800040000000002,-0.567025
312,0.184852,0.974053,-0.130517,0.636758,0.661506,-0.284614
313,0.181479,0.979233,-0.090287,0.09794,0.504516,-0.1170349999999999
314,0.165467,0.984442,-0.058966,-0.074281,0.386789,-0.135767
315,0.1374109999999999,0.990054,-0.029899,-0.248861,-0.260531,-0.043023
316,0.108871,0.99403,-0.005843,-0.322372,-0.798427,-0.012727
317,0.081598,0.996652,0.002971,-0.214914,-0.8166899999999999,0.006215
318,0.057736,0.99832,-0.002544,0.008624,-0.863783,-0.175923
319,0.042076,0.999004,-0.014212,0.127754,-1.150204,-0.006219
320,0.033749,0.998991,-0.029334,0.0530879999999999,-1.326231,0.361167
321,0.029919,0.998432,-0.047117,0.056919,-1.325672,0.37895
322,0.032775,0.997511,-0.0622929999999999,0.074632,-0.761594,0.2691719999999999
323,0.0405209999999999,0.996199,-0.0769929999999999,0.008109,-0.541502,0.2293059999999999
324,0.056201,0.993524,-0.0986679999999999,0.04817,0.161139,0.275777
325,0.073484,0.987381,-0.140222,-0.139478,1.648407,0.1418849999999999
326,0.093071,0.978894,-0.181901,0.103264,1.398654,-0.041426
327,0.094178,0.97348,-0.208451,-0.106141,0.833191,-0.130813
328,0.088473,0.96905,-0.230433,0.1756569999999999,0.7569170000000001,-0.215337
329,0.080096,0.962964,-0.25743,0.524122,1.205065,-0.3307199999999999
330,0.0642529999999999,0.958202,-0.278761,0.432588,1.444676,-0.382616
331,0.040017,0.959738,-0.278007,0.011969,0.845743,-0.321877
332,0.019427,0.964874,-0.261969,-0.285021,0.248612,-0.337518
333,0.008342,0.96918,-0.2461829999999999,-0.277385,-0.068332,-0.2496969999999999
334,0.006317,0.971746,-0.235916,-0.067169,-0.378728,0.20874
335,0.018632,0.973269,-0.228879,0.18019,-0.98981,0.486218
336,0.042914,0.973582,-0.224239,0.132516,-1.650568,0.482127
337,0.0703029999999999,0.974174,-0.2145409999999999,-0.197257,-1.7272869999999998,0.3467739999999999
338,0.098437,0.974364,-0.202264,-0.390826,-1.052596,0.497353
339,0.128344,0.970609,-0.203545,-0.196154,-0.450239,0.208443
340,0.153925,0.964469,-0.214691,0.026694,-0.048285,-0.244781
341,0.172333,0.956626,-0.2348489999999999,0.003021,-0.300208,0.506807
342,0.193462,0.942765,-0.271577,-0.154872,0.407348,0.467271
343,0.205784,0.931452,-0.300061,-0.099827,0.086645,-0.251406
344,0.211413,0.933613,-0.2892369999999999,-0.237994,-0.193455,-0.1189359999999999
345,0.219189,0.933963,-0.282233,0.494984,0.757901,-0.175393
346,0.222311,0.936949,-0.2696119999999999,0.775674,0.932008,0.369817
347,0.217837,0.945816,-0.240759,0.586591,1.2095790000000002,0.4688779999999999
348,0.214163,0.958186,-0.189737,0.2791389999999999,1.201574,-0.043173
349,0.2175949999999999,0.967062,-0.132014,0.8296610000000001,1.32818,-0.35964
350,0.224484,0.970013,-0.093088,0.613575,0.978427,-0.50498
351,0.224056,0.972456,-0.0641289999999999,-0.077007,0.1025109999999999,-0.112019
352,0.2019359999999999,0.978472,-0.042405,-0.368821,-0.681673,0.0093239999999999
353,0.162384,0.9866,-0.015309,-0.351913,-0.589154,-0.076168
354,0.124582,0.992165,0.0083209999999999,-0.186288,-0.553856,-0.108358
355,0.095177,0.995338,0.0149919999999999,0.057274,-0.827247,-0.07531
356,0.074471,0.997176,0.008699,0.075401,-1.000579,-0.060411
357,0.066337,0.997787,-0.001053,0.002755,-1.287903,0.030808
358,0.066,0.997739,-0.011976,0.022394,-1.398816,0.120404
359,0.071333,0.99717,-0.023374,-0.011472,-1.309136,0.014524
360,0.081743,0.995955,-0.037063,-0.162356,-0.38008,0.119323
361,0.094095,0.993671,-0.061209,-0.121774,0.8541690000000001,0.372031
362,0.103491,0.988414,-0.11095,-0.006979,1.110402,0.5964229999999999
363,0.119513,0.979921,-0.159544,0.2184989999999999,0.673643,0.0872169999999999
364,0.129939,0.973429,-0.1885099999999999,-0.013255,1.050512,0.0651429999999999
365,0.116974,0.971055,-0.208215,-0.097351,1.188186,-0.192648
366,0.105074,0.966155,-0.235561,-0.155595,1.116181,-0.278111
367,0.098006,0.959106,-0.265511,0.038728,1.448105,-0.229331
368,0.087786,0.954247,-0.2858179999999999,0.074018,0.961082,-0.159662
369,0.078191,0.954697,-0.287097,0.167964,0.425338,-0.084394
370,0.076044,0.958456,-0.27489,0.086493,-0.180288,0.066119
371,0.0811539999999999,0.963571,-0.254812,0.110573,-0.4685,0.127248
372,0.096275,0.967369,-0.234332,-0.010017,-1.18377,0.053714
373,0.109466,0.969306,-0.220107,-0.128403,-1.585624,0.194273
374,0.117095,0.97036,-0.211365,-0.199202,-1.675148,0.251755
375,0.129165,0.970935,-0.201457,-0.314742,-1.357608,0.426875
376,0.154602,0.969249,-0.191412,-0.390579,-1.019786,0.615576
377,0.17555,0.965917,-0.190183,-0.185132,-0.1640829999999999,0.16612
378,0.185314,0.961465,-0.203044,-0.120525,-0.09385,-0.330128
379,0.199323,0.954616,-0.2212739999999999,-0.131421,-0.4423939999999999,0.280935
380,0.218646,0.944907,-0.243575,-0.223392,-0.3612889999999999,0.6231220000000001
381,0.247282,0.929624,-0.2731949999999999,-0.387236,1.090945,0.6619430000000001
382,0.255083,0.926981,-0.274998,0.290907,0.8369190000000001,-0.297038
383,0.255308,0.928394,-0.269977,0.041613,0.134441,-0.11517
384,0.257004,0.929203,-0.265549,0.39331,0.325421,0.170212
385,0.2620119999999999,0.93474,-0.2399909999999999,0.541028,0.871366,0.050126
386,0.259964,0.946141,-0.192928,0.410904,1.589428,-0.271611
387,0.242019,0.960359,-0.138275,0.713471,1.221556,-0.494339
388,0.230098,0.968805,-0.091946,0.687153,0.578391,-0.406178
389,0.226901,0.972325,-0.055509,0.348066,0.409068,-0.325884
390,0.213176,0.976559,-0.02949,-0.288585,-0.2275199999999999,-0.086813
391,0.181502,0.983355,-0.007126,-0.5446310000000001,-0.420931,0.062927
392,0.142851,0.989638,0.0138,-0.451018,-0.708052,-0.024939
393,0.114684,0.993114,0.023481,-0.224334,-0.890117,0.0283529999999999
394,0.093251,0.995438,0.019677,0.092067,-1.035309,0.156958
395,0.082888,0.996489,0.010951,0.147611,-1.112715,0.09911
396,0.082791,0.996557,0.000621,-0.004117,-1.234701,0.204823
397,0.087014,0.996129,-0.011676,-0.139153,-1.015416,0.109896
398,0.094673,0.995216,-0.023718,-0.2281719999999999,-0.721504,0.014044
399,0.104005,0.993787,-0.039389,-0.381013,-0.130475,0.156317
400,0.1109049999999999,0.99124,-0.071586,-0.132511,0.797289,0.425438
401,0.117833,0.985083,-0.125335,0.133891,1.199213,0.391631
402,0.136737,0.976125,-0.168719,0.1993069999999999,1.436076,0.178348
403,0.150216,0.970098,-0.190599,-0.196633,1.430338,-0.086974
404,0.141821,0.967465,-0.209479,0.1051579999999999,0.897006,-0.378656
405,0.128479,0.96386,-0.233346,0.392426,1.042899,-0.495246
406,0.112579,0.959443,-0.258416,0.2494969999999999,1.162932,-0.443275
407,0.097596,0.957148,-0.272631,0.003204,0.8674069999999999,-0.324354
408,0.093053,0.957186,-0.274082,-0.156041,0.217711,-0.238979
409,0.098432,0.957883,-0.26973,-0.122968,-0.148252,-0.028946
410,0.109575,0.959264,-0.260362,0.098478,-0.5806020000000001,0.212282
411,0.125083,0.960966,-0.24674,0.06402,-1.445433,0.093832
412,0.134095,0.963371,-0.232203,0.087478,-1.640037,0.165461
413,0.13101,0.967362,-0.216863,-0.193159,-1.487687,0.154042
414,0.12985,0.970592,-0.2026609999999999,-0.242475,-1.306423,0.433695
415,0.144414,0.971189,-0.189524,-0.155187,-1.056653,0.77244
416,0.161366,0.96846,-0.189813,-0.308659,-0.093566,0.321054
417,0.167733,0.964287,-0.2049369999999999,-0.5039600000000001,0.083794,-0.123326
418,0.185689,0.956775,-0.223793,-0.417805,-0.149296,0.852074
419,0.2171469999999999,0.94051,-0.26129,-0.6853779999999999,0.249615,0.315352
420,0.247125,0.924827,-0.28915,-0.177332,1.977989,-0.5195960000000001
421,0.245956,0.922836,-0.296419,0.219636,0.0332649999999999,-0.061216
422,0.248153,0.921993,-0.297209,0.5466770000000001,0.216297,0.052076
423,0.254154,0.924267,-0.2848179999999999,0.519421,0.539738,0.241056
424,0.25553,0.933647,-0.250983,0.267679,1.2996450000000002,-0.002236
425,0.24591,0.949824,-0.19325,0.304276,1.238073,-0.496828
426,0.23105,0.963887,-0.1323599999999999,0.788237,1.0307110000000002,-0.390391
427,0.2249489999999999,0.970361,-0.088202,0.82925,0.564521,-0.205438
428,0.2199199999999999,0.973719,-0.059042,0.134313,0.330373,-0.152811
429,0.202816,0.978504,-0.037074,-0.261776,-0.199696,-0.099645
430,0.17534,0.984348,-0.017178,-0.507829,-0.516925,0.115994
431,0.149899,0.988658,-0.008051,-0.438061,-0.6949569999999999,0.097635
432,0.127829,0.99171,-0.012268,-0.195608,-0.918575,-0.077408
433,0.1088069999999999,0.993735,-0.025144,0.094013,-1.200888,0.006131
434,0.099105,0.994138,-0.042994,0.089784,-1.377912,0.322336
435,0.098949,0.993039,-0.0637409999999999,0.067585,-1.3369719999999998,0.354467
436,0.104679,0.991007,-0.083238,-0.0178569999999999,-0.798991,0.125352
437,0.112068,0.988308,-0.103299,0.0350269999999999,-0.489208,0.314252
438,0.116772,0.985481,-0.123178,-0.075772,-0.157219,0.371607
439,0.122872,0.979506,-0.159542,-0.3729949999999999,0.924532,0.301815
440,0.139501,0.968636,-0.205592,-0.522588,0.8894569999999999,0.091547
441,0.153974,0.959297,-0.236698,-0.270657,1.255455,-0.1951099999999999
442,0.152508,0.95374,-0.259048,0.180759,0.918559,-0.094849
443,0.146775,0.948058,-0.282184,0.387588,1.038972,-0.178982
444,0.133023,0.941438,-0.309814,0.639789,1.039122,-0.4641729999999999
445,0.108443,0.939703,-0.324322,0.074602,1.110315,-0.348637
446,0.088681,0.944827,-0.315315,-0.352017,0.616589,-0.39898
447,0.08316,0.95013,-0.30054,-0.440231,0.451375,-0.336911
448,0.08726,0.955267,-0.282552,-0.245448,-0.187934,0.012411
449,0.095292,0.960871,-0.260062,-0.161011,-0.667154,0.052756
450,0.1028109999999999,0.965184,-0.24049,0.1484859999999999,-1.14922,0.23544
451,0.105654,0.967895,-0.228037,0.083601,-1.283493,0.451227
452,0.1032049999999999,0.970147,-0.2194289999999999,-0.2099099999999999,-1.214608,0.377663
453,0.1133,0.971142,-0.209837,-0.40871,-0.969066,0.481886
454,0.138126,0.968872,-0.205407,-0.281376,-0.738571,0.131173
455,0.163316,0.962533,-0.2164289999999999,-0.096315,-0.347848,-0.0954
456,0.181568,0.955331,-0.233153,0.041073,-0.73887,0.252608
457,0.202284,0.946299,-0.252158,-0.130751,-0.601542,0.904929
458,0.229738,0.930572,-0.285031,-0.161714,0.668061,0.481702
459,0.243827,0.923174,-0.297127,-0.101066,1.886396,-0.177681
460,0.244799,0.929186,-0.276897,-0.062121,-0.169863,-0.201344
461,0.252169,0.928487,-0.272594,0.2225469999999999,0.171473,-0.005406
462,0.2584639999999999,0.931089,-0.2574,0.601033,0.644992,0.193725
463,0.260499,0.940871,-0.216528,0.5947100000000001,1.7544259999999998,-0.273263
464,0.251081,0.955158,-0.156886,0.552722,1.301037,-0.591176
465,0.240109,0.965047,-0.104941,0.99216,1.014628,-0.220727
466,0.236485,0.969083,-0.070238,0.368221,0.451586,-0.291258
467,0.2255849999999999,0.973326,-0.041562,-0.210967,-0.0583789999999999,-0.110797
468,0.19301,0.981034,-0.017327,-0.286684,-0.588852,-0.065909
469,0.154255,0.987998,0.0066319999999999,-0.3623699999999999,-0.399909,-0.059886
470,0.1255079999999999,0.991836,0.022112,-0.2907909999999999,-0.6429590000000001,0.024275
471,0.104583,0.994286,0.020911,-0.058975,-0.770149,0.140512
472,0.089431,0.995937,0.00947,0.028656,-1.0061,0.223852
473,0.084532,0.996407,-0.002621,0.043855,-1.196984,0.276028
474,0.084197,0.996301,-0.016588,-0.165526,-1.298181,0.1170829999999999
475,0.087971,0.995507,-0.034747,-0.116169,-1.087792,-0.010648
476,0.094753,0.993878,-0.056644,-0.148602,-0.708356,0.018436
477,0.103822,0.990875,-0.0858429999999999,-0.164338,-0.010345,0.259244
478,0.111561,0.984532,-0.1350299999999999,0.034008,1.122859,0.450002
479,0.126645,0.97336,-0.1910869999999999,0.255893,1.193327,0.379838
480,0.1404,0.963763,-0.226786,-0.0426519999999999,0.7445039999999999,-0.078649
481,0.131079,0.960495,-0.2454619999999999,0.034356,1.402328,-0.116339
482,0.1188309999999999,0.955901,-0.268547,0.1713599999999999,0.928407,-0.3703849999999999
483,0.1062859999999999,0.950033,-0.293471,0.409675,1.430399,-0.488481
484,0.092239,0.947224,-0.30699,0.253678,1.462627,-0.3492139999999999
485,0.080952,0.950829,-0.298926,-0.049763,0.698738,-0.128824
486,0.078306,0.956891,-0.2796659999999999,-0.299802,0.170871,-0.055707
487,0.088309,0.961722,-0.259377,-0.073417,-0.475501,0.135338
488,0.101004,0.964818,-0.242711,-0.0558679999999999,-0.906788,0.137059
489,0.1096289999999999,0.967763,-0.226714,0.130606,-1.689885,0.154555
490,0.108414,0.970794,-0.213981,-0.267472,-1.64772,0.243583
491,0.110319,0.970988,-0.2121199999999999,-0.343107,-1.446772,0.312584
492,0.1345329999999999,0.967596,-0.213639,-0.273342,-1.270452,0.711137
493,0.16265,0.962097,-0.218853,-0.202826,-0.087357,0.12315
494,0.180024,0.956244,-0.23059,-0.216065,-0.047538,-0.139131
495,0.203355,0.948423,-0.243155,-0.0028399999999999,-0.349317,0.013296
496,0.234513,0.936353,-0.261209,-0.287492,-0.607618,0.8555389999999999
497,0.260352,0.922467,-0.285054,-0.389731,-0.202435,0.583196
498,0.2616739999999999,0.919859,-0.292182,-0.079713,0.958437,-0.308785
499,0.264133,0.921331,-0.285248,0.166546,0.390208,0.078171
500,0.272777,0.920673,-0.279174,0.312413,0.4611939999999999,0.231246
501,0.278376,0.928628,-0.2452349999999999,0.539266,1.110282,0.151546
502,0.2783739999999999,0.942181,-0.186504,0.344078,1.5316809999999998,-0.401051
503,0.266895,0.955724,-0.123847,0.498547,1.464121,-0.596398
504,0.251293,0.96517,-0.072646,0.8235819999999999,0.837259,-0.323365
505,0.232933,0.971847,-0.03511,0.270896,0.347336,-0.257737
506,0.201666,0.979412,-0.0077519999999999,-0.012274,-0.15852,-0.175353
507,0.157676,0.987352,0.0158169999999999,-0.207587,-0.21335,-0.125024
508,0.128597,0.991062,0.03515,-0.352001,-0.745228,-0.0120489999999999
509,0.106322,0.99338,0.043213,-0.240035,-0.727282,0.006851
510,0.08577,0.995643,0.036247,-0.088654,-0.969429,0.176308
511,0.079002,0.996689,0.018605,0.042885,-1.188843,0.182902
512,0.090019,0.995926,-0.002193,0.0927809999999999,-1.189224,0.242779
513,0.107527,0.993873,-0.025119,-0.2156809999999999,-1.310371,0.042804
514,0.123043,0.991106,-0.050472,-0.315838,-0.903124,0.207286
515,0.132188,0.987922,-0.080712,-0.2395489999999999,-0.50283,0.264611
516,0.1372,0.982985,-0.122045,-0.233575,0.793809,0.351537
517,0.14145,0.973742,-0.178323,-0.086549,1.022825,0.224923
518,0.149766,0.962829,-0.2247489999999999,0.32608,1.053025,-0.165098
519,0.146422,0.95538,-0.256502,0.14174,1.375599,-0.179305
520,0.137977,0.94887,-0.283886,0.132012,1.055646,-0.411365
521,0.127137,0.941192,-0.313013,0.342437,1.170059,-0.578619
522,0.108222,0.934746,-0.338413,0.361931,1.403618,-0.387569
523,0.0887169999999999,0.933684,-0.346914,-0.053149,1.02228,-0.280253
524,0.079856,0.936185,-0.342294,-0.2401489999999999,0.434237,-0.3023889999999999
525,0.086993,0.938149,-0.335103,-0.080722,-0.0213849999999999,0.054784
526,0.099598,0.93758,-0.333179,-0.0036969999999999,-0.967762,0.191013
527,0.1132,0.938359,-0.326578,0.110692,-1.152974,0.453974
528,0.120403,0.938637,-0.323184,-0.046932,-1.472527,0.6729149999999999
529,0.123982,0.939157,-0.320309,-0.40102,-1.364862,0.372875
530,0.141285,0.937843,-0.316976,-0.271229,-0.951637,0.3114369999999999
531,0.1637839999999999,0.931795,-0.323911,-0.161724,-0.608476,0.35861
532,0.177835,0.923106,-0.340934,-0.118539,-0.278148,0.084601
533,0.18942,0.916207,-0.353088,-0.183087,-0.859734,0.386734
534,0.2046359999999999,0.912786,-0.353457,-0.2178199999999999,-0.8775069999999999,0.962573
535,0.223926,0.906496,-0.357921,-0.262729,0.6214729999999999,0.4432939999999999
536,0.242633,0.903055,-0.354412,-0.312732,2.4797580000000004,-0.454914
537,0.244394,0.907273,-0.342217,-0.130381,0.299605,-0.323677
538,0.25119,0.908424,-0.334148,0.775208,0.217583,-0.030369
539,0.266023,0.913099,-0.308976,0.965163,0.4173449999999999,0.130738
540,0.273701,0.925997,-0.260004,0.82301,1.090483,-0.094213
541,0.268005,0.943256,-0.196022,0.578735,1.0697450000000002,-0.234337
542,0.257338,0.956602,-0.136645,0.729539,1.160906,-0.096356
543,0.251303,0.963345,-0.093779,0.502206,0.817539,-0.080446
544,0.235078,0.969881,-0.063632,-0.352189,0.000684,0.018283
545,0.201414,0.978773,-0.03763,-0.353606,-0.316755,-0.006071
546,0.165703,0.986068,-0.0138639999999999,-0.5291520000000001,-0.638335,-0.09072
547,0.138144,0.990397,-0.003151,-0.290869,-0.7777649999999999,0.0277329999999999
548,0.114124,0.993412,-0.009394,0.001034,-0.946552,0.110956
549,0.099801,0.994765,-0.021497,0.1308359999999999,-1.147154,0.136258
550,0.096757,0.994766,-0.032536,-0.0527809999999999,-1.170883,0.151554
551,0.10122,0.99381,-0.045555,-0.140023,-1.120916,0.078865
552,0.1064069999999999,0.992319,-0.062936,-0.154548,-0.82934,-0.010749
553,0.1071319999999999,0.990408,-0.087158,-0.220154,-0.577276,0.303177
554,0.1065,0.987555,-0.11565,-0.262812,0.17428,0.5419510000000001
555,0.1115049999999999,0.98098,-0.158832,0.163016,0.946251,0.622974
556,0.123747,0.970468,-0.207034,0.185274,1.219611,0.239642
557,0.132577,0.961312,-0.241426,0.078864,1.222999,-0.1022629999999999
558,0.116724,0.95761,-0.26333,-0.100489,1.051057,-0.313178
559,0.106444,0.952002,-0.286963,-0.072859,0.915339,-0.32139
560,0.097278,0.943536,-0.316641,0.122113,1.289694,-0.328256
561,0.089285,0.937076,-0.337494,0.067545,1.080899,-0.174972
562,0.0872759999999999,0.936774,-0.338856,-0.052348,0.562387,-0.2060969999999999
563,0.092515,0.940979,-0.325552,0.030898,0.007354,-0.109537
564,0.102498,0.945506,-0.309028,0.230403,-0.446422,-0.017785
565,0.111939,0.948473,-0.2964,0.227325,-1.102114,0.2188699999999999
566,0.116745,0.950756,-0.287086,0.050293,-1.473003,0.238959
567,0.119464,0.953742,-0.275844,-0.091738,-1.61106,0.275035
568,0.127763,0.956437,-0.262466,-0.494249,-1.503755,0.549133
569,0.150824,0.957005,-0.247745,-0.402594,-1.061299,0.6178319999999999
570,0.168272,0.955047,-0.2440369999999999,-0.216123,-0.1156,0.193317
571,0.174948,0.952295,-0.2500219999999999,-0.138419,-0.081568,-0.041878
572,0.198545,0.942812,-0.267713,-0.041044,-0.154665,0.62715
573,0.236683,0.924196,-0.299714,-0.222126,-0.023775,0.474885
574,0.264704,0.91157,-0.3145739999999999,-0.386897,0.926244,0.0715929999999999
575,0.272069,0.915478,-0.296417,-0.0127459999999999,-0.091641,-0.191437
576,0.276595,0.915461,-0.292253,0.4149029999999999,0.746023,-0.2213119999999999
577,0.270113,0.921286,-0.2797449999999999,0.786589,1.0755709999999998,0.268256
578,0.2612219999999999,0.934147,-0.24314,0.278406,1.252789,0.18473
579,0.254053,0.949741,-0.182844,0.173666,1.034161,-0.353441
580,0.247731,0.960608,-0.125871,0.676387,1.093545,-0.38101
581,0.242482,0.966552,-0.083427,0.673045,0.838563,-0.3552329999999999
582,0.227601,0.972527,-0.048672,0.151427,0.330162,-0.151859
583,0.1973099999999999,0.980089,-0.021793,-0.140761,-0.643999,-0.174862
584,0.161856,0.986787,0.005777,-0.174261,-0.467454,-0.009989
585,0.132185,0.990832,0.027543,-0.371657,-0.562609,-0.14142
586,0.105058,0.993984,0.030618,-0.1070869999999999,-0.6159020000000001,0.135321
587,0.0823059999999999,0.996423,0.018574,-0.022736,-0.792337,0.181896
588,0.073184,0.997303,0.003193,0.177167,-1.386326,0.259822
589,0.083971,0.996375,-0.012884,0.231809,-1.169989,0.040899
590,0.1009169999999999,0.994244,-0.035711,-0.085582,-1.048901,-0.029841
591,0.118647,0.991106,-0.0601149999999999,-0.256938,-0.715013,0.281367
592,0.132324,0.987192,-0.089015,-0.354279,0.0352079999999999,0.309535
593,0.139815,0.981524,-0.130556,-0.095229,1.194364,0.581774
594,0.149251,0.972019,-0.181344,-0.101247,1.45158,0.476404
595,0.160935,0.963409,-0.214305,-0.130799,0.831208,-0.093694
596,0.15178,0.960282,-0.234104,0.0191639999999999,1.371902,-0.084393
597,0.147267,0.955845,-0.254277,0.194301,0.7506520000000001,-0.45866
598,0.139266,0.950571,-0.277497,0.5224770000000001,1.399771,-0.458236
599,0.1229619999999999,0.947808,-0.294152,0.506173,1.489372,-0.362296
600,0.108454,0.950062,-0.292583,0.153448,1.003399,-0.297581
601,0.105858,0.953404,-0.282489,-0.106727,0.088115,-0.010312
602,0.11237,0.956434,-0.2694269999999999,-0.063404,-0.441664,0.308139
603,0.121838,0.959982,-0.252141,-0.067212,-1.378652,0.138723
604,0.126968,0.964807,-0.230239,-0.207229,-1.6715330000000002,0.204177
605,0.126991,0.968753,-0.213015,-0.256859,-1.543658,0.456743
606,0.12969,0.96953,-0.2077889999999999,-0.2983909999999999,-1.400148,0.516841
607,0.1502609999999999,0.966913,-0.206119,-0.343514,-0.982385,0.559192
608,0.17454,0.960504,-0.216683,-0.329387,-0.328882,0.012169
609,0.194485,0.953063,-0.232015,-0.393841,-0.207427,-0.23112
610,0.2157869999999999,0.941711,-0.258071,-0.371244,-0.145797,0.819152
611,0.238697,0.922702,-0.302703,-0.380146,1.273297,0.688018
612,0.249388,0.913505,-0.321405,0.168535,2.316201,-0.490683
613,0.256439,0.914231,-0.3137,0.133942,-0.4302069999999999,0.141291
614,0.2754,0.910058,-0.309734,0.309409,0.107993,0.219081
615,0.285289,0.913804,-0.289062,0.401875,1.022505,0.242401
616,0.274429,0.932664,-0.234119,0.187775,1.750778,-0.173458
617,0.255955,0.951798,-0.168971,0.38348,1.252441,-0.5162100000000001
618,0.2459039999999999,0.962035,-0.118326,1.060874,1.005219,-0.355231
619,0.243109,0.966811,-0.078463,0.5102479999999999,0.6010300000000001,-0.4275489999999999
620,0.22436,0.973412,-0.045958,0.045354,0.176597,-0.218477
621,0.187529,0.982088,-0.017776,-0.004744,-0.213442,-0.032654
622,0.153937,0.988037,0.008039,-0.258734,-0.44046,-0.036024
623,0.128058,0.991494,0.022797,-0.329947,-0.809655,0.02124
624,0.105638,0.994108,0.023827,-0.079927,-0.819716,0.00193
625,0.089934,0.995832,0.014454,-0.018386,-0.968153,0.061824
626,0.084734,0.996392,0.001545,-0.012255,-1.213387,0.146145
627,0.086557,0.996133,-0.014353,-0.101571,-1.2205290000000002,0.259608
628,0.0934779999999999,0.995084,-0.032396,0.043423,-0.799024,0.182817
629,0.104742,0.993228,-0.050076,0.0503329999999999,0.1063819999999999,0.276013
630,0.1177769999999999,0.989135,-0.087867,0.121664,0.990952,0.197975
631,0.125899,0.981713,-0.142728,-0.242522,0.8865120000000001,0.257856
632,0.124175,0.974761,-0.1854869999999999,-0.1272569999999999,0.447542,0.272798
633,0.108866,0.970789,-0.213778,-0.089685,0.8832909999999999,0.3246179999999999
634,0.095702,0.965356,-0.242719,0.081376,1.39791,-0.214526
635,0.089733,0.957384,-0.274498,0.136464,1.488265,-0.223365
636,0.083302,0.951031,-0.297635,-0.0153389999999999,1.501881,-0.232715
637,0.079052,0.949464,-0.303732,-0.2057159999999999,0.529539,-0.116022
638,0.081274,0.950779,-0.2989949999999999,-0.1073359999999999,0.2403679999999999,-0.080277
639,0.089384,0.95331,-0.288435,0.069979,-0.343844,0.129042
640,0.104797,0.955349,-0.2762429999999999,0.081482,-1.193233,0.075941
641,0.119253,0.956308,-0.266902,0.086146,-1.435724,0.1039539999999999
642,0.126694,0.957943,-0.257445,0.067199,-1.830196,0.225371
643,0.132936,0.959844,-0.247006,-0.3326119999999999,-1.63236,0.348583
644,0.157899,0.959256,-0.234264,-0.438447,-1.174527,0.671261
645,0.188767,0.955295,-0.227514,-0.364273,-0.131747,0.273214
646,0.1960059999999999,0.951742,-0.236118,-0.474967,0.1945589999999999,-0.123715
647,0.201512,0.946206,-0.253121,-0.057454,-0.40989,0.255395
648,0.2229199999999999,0.935037,-0.275676,-0.220097,-0.6603020000000001,0.840572
649,0.2674829999999999,0.915221,-0.3013429999999999,-0.200741,-0.27249,0.74574
650,0.305385,0.900121,-0.310656,0.141346,1.441706,-0.3874329999999999
651,0.315794,0.902977,-0.291362,0.189043,0.792,-0.654226
652,0.315335,0.906967,-0.279213,0.643787,0.6465,0.224327
653,0.307232,0.917934,-0.250978,0.622242,0.962727,0.2216659999999999
654,0.3014219999999999,0.931473,-0.203679,0.100006,1.506729,-0.142848
655,0.293547,0.945159,-0.143127,0.4838729999999999,1.118378,-0.351853
656,0.291378,0.951853,-0.095161,0.830158,0.733725,-0.321557
657,0.284966,0.956927,-0.055361,0.462257,0.5346350000000001,-0.23004
658,0.259475,0.965379,-0.026381,-0.090057,-0.283753,-0.0558179999999999
659,0.214138,0.976792,-4e-06,-0.465664,-0.265382,0.0170939999999999
660,0.165197,0.986027,0.020936,-0.6989029999999999,-0.34084,-0.023591
661,0.133339,0.990731,0.025498,-0.2132949999999999,-0.752801,0.0738679999999999
662,0.113597,0.993449,0.011526,-0.0408279999999999,-1.1997790000000002,0.058908
663,0.112689,0.993618,-0.001622,0.278546,-1.259441,0.081258
664,0.116967,0.993065,-0.010954,-0.0579,-1.385231,0.130446
665,0.120092,0.992508,-0.022008,-0.2396599999999999,-0.97319,0.047658
666,0.123325,0.991542,-0.040172,-0.2428929999999999,-0.972225,0.065822
667,0.128082,0.989826,-0.061797,-0.2854,-0.387851,0.020308
668,0.122925,0.98793,-0.094146,-0.185578,0.272232,0.282775
669,0.1153329999999999,0.982314,-0.147439,0.055261,0.758286,0.628976
670,0.13014,0.97092,-0.200898,0.5822930000000001,1.824856,0.337708
671,0.145826,0.961556,-0.232653,-0.488691,1.311469,-0.202879
672,0.139211,0.957028,-0.254363,-0.64272,1.252948,-0.37642
673,0.125749,0.954258,-0.2712239999999999,-0.116441,1.022106,-0.462006
674,0.107015,0.950582,-0.291421,0.409846,1.175883,-0.28968
675,0.091404,0.949152,-0.301233,0.225094,0.633734,-0.137381
676,0.081715,0.952226,-0.294234,0.02911,0.095916,0.0078409999999999
677,0.086712,0.955707,-0.281227,-0.059186,-0.080738,-0.07969
678,0.100286,0.958208,-0.267889,0.073252,-0.803026,0.380102
679,0.117068,0.961083,-0.250195,0.036023,-1.7078490000000002,0.183224
680,0.127988,0.964819,-0.229623,-0.040021,-1.915075,0.215768
681,0.130922,0.967552,-0.2160699999999999,-0.355531,-1.692985,0.217489
682,0.150203,0.967672,-0.202563,-0.35873,-1.438696,0.772861
683,0.181596,0.964554,-0.19142,-0.249543,-0.5151979999999999,0.472105
684,0.200097,0.95889,-0.201179,-0.231713,0.291583,0.1028819999999999
685,0.208177,0.952483,-0.2223099999999999,0.014556,-0.211882,-0.079097
686,0.213915,0.945245,-0.246444,-0.033999,-0.483637,0.271316
687,0.228174,0.933579,-0.276317,-0.382425,0.112426,0.772472
688,0.2440159999999999,0.919956,-0.306794,-0.252225,2.815502,-0.628356
689,0.237711,0.921539,-0.3069929999999999,0.089957,-0.319656,0.177217
690,0.24704,0.918397,-0.309036,0.211425,-0.201158,0.123
691,0.268754,0.915294,-0.299988,0.563979,0.939518,-0.1115109999999999
692,0.2753739999999999,0.923941,-0.265494,0.683809,1.7714330000000005,-0.366113
693,0.257661,0.942946,-0.2108219999999999,0.652999,1.412034,-0.5660029999999999
694,0.2275989999999999,0.960273,-0.161421,1.443971,1.190271,-0.2085139999999999
695,0.2096719999999999,0.970347,-0.1201869999999999,0.760955,0.492727,-0.483283
696,0.196184,0.976939,-0.0841539999999999,-0.018435,-0.0678049999999999,-0.230482
697,0.166932,0.984503,-0.053541,-0.520371,-0.680227,0.1169559999999999
698,0.131463,0.991027,-0.023693,-0.6664359999999999,-0.396758,0.127453
699,0.1003049999999999,0.994944,0.001297,-0.564187,-0.746668,0.080078
700,0.074121,0.997138,0.014074,0.023352,-0.959876,0.172953
701,0.0531559999999999,0.9985,0.012165,0.148718,-0.990321,0.169811
702,0.047224,0.998868,0.0030989999999999,0.009645,-1.026837,0.079802
703,0.049546,0.998721,-0.008839,-0.150544,-1.3087950000000002,0.174367
704,0.053621,0.998269,-0.023665,-0.041063,-1.184503,0.098937
705,0.058965,0.997506,-0.038498,0.088374,-0.6600729999999999,0.238037
706,0.068847,0.995634,-0.06286,0.178086,0.831408,0.4375699999999999
707,0.075321,0.990142,-0.118004,0.027752,1.670182,0.571678
708,0.089414,0.982497,-0.163355,-0.509763,0.814287,0.182596
709,0.097426,0.977718,-0.185894,-0.4667949999999999,0.988621,0.152202
710,0.088591,0.973931,-0.208786,-0.124816,0.767921,-0.158615
711,0.080511,0.966664,-0.243025,0.257196,1.307354,-0.161043
712,0.076785,0.95698,-0.279778,0.447049,1.578252,-0.278114
713,0.073577,0.95043,-0.302081,0.146287,0.947687,-0.248013
714,0.071026,0.949358,-0.306037,0.01984,0.436552,-0.089013
715,0.075565,0.951168,-0.299255,0.033749,-0.211544,0.053771
716,0.0831669999999999,0.953099,-0.290977,0.024301,-0.686437,0.154594
717,0.095653,0.954969,-0.280833,0.039449,-1.077543,0.049006
718,0.1069619999999999,0.957181,-0.268974,-0.048185,-1.573987,0.07241
719,0.117715,0.957019,-0.26503,-0.19494,-1.835436,0.511948
720,0.138838,0.957272,-0.2536469999999999,-0.426359,-1.483593,0.7660520000000001
721,0.168303,0.956849,-0.236848,-0.398893,-0.091004,0.341676
722,0.178691,0.954391,-0.239142,-0.383556,-0.054794,0.067358
723,0.197466,0.946559,-0.254981,0.0417,-0.404414,0.141929
724,0.2284449999999999,0.932431,-0.279943,-0.5168659999999999,-0.938122,0.7050529999999999
725,0.259317,0.916851,-0.303515,-0.722482,-0.808163,0.74457
726,0.277547,0.90069,-0.334229,-0.913747,1.901098,0.280045
727,0.277361,0.903114,-0.327778,0.5908939999999999,0.355491,-0.0734669999999999
728,0.29379,0.9005139999999999,-0.3205409999999999,0.532916,0.297134,0.082611
729,0.297461,0.902862,-0.31039,0.736688,0.37053,0.265819
730,0.296081,0.913821,-0.27794,0.177201,1.389509,-0.032744
731,0.2939739999999999,0.931484,-0.214243,0.2287159999999999,1.6593060000000002,-0.533163
732,0.2782139999999999,0.947565,-0.15716,0.310134,1.556845,-0.7184050000000001
733,0.266965,0.956379,-0.1185259999999999,0.7912319999999999,0.526821,-0.329731
734,0.252732,0.963413,-0.089112,0.395858,0.230313,-0.189971
735,0.222599,0.973016,-0.060563,-0.356694,-0.221307,0.036164
736,0.182619,0.982774,-0.027985,-0.571337,-0.2262429999999999,-0.032547
737,0.147584,0.989002,-0.008443,-0.335023,-0.853367,0.089574
738,0.1159819999999999,0.993235,-0.003193,-0.038376,-1.140284,0.225803
739,0.09707,0.995218,-0.009759,-0.058984,-1.293543,0.181603
740,0.095466,0.995239,-0.019048,-0.339775,-1.2992860000000002,0.174536
741,0.102666,0.994215,-0.0312019999999999,-0.271657,-1.1725139999999998,0.1784339999999999
742,0.109828,0.992636,-0.050885,-0.038463,-0.987357,0.0530519999999999
743,0.114195,0.990334,-0.078594,-0.056319,-0.450676,0.086269
744,0.115142,0.987484,-0.107689,-0.030806,0.37746,0.143837
745,0.110072,0.982459,-0.1504599999999999,0.1154839999999999,0.78901,0.676247
746,0.11769,0.972966,-0.198668,0.25705,1.169414,0.4354689999999999
747,0.134511,0.9625,-0.23555,-0.148152,1.405725,-0.2051239999999999
748,0.127158,0.957199,-0.259968,-0.35369,1.504104,-0.13264
749,0.11373,0.949633,-0.2919719999999999,-0.1390289999999999,0.953413,-0.272878
750,0.098789,0.94069,-0.3245429999999999,0.058727,1.004333,-0.159908
751,0.090035,0.934746,-0.343698,0.023811,0.99543,-0.077581
752,0.095239,0.934238,-0.343677,-0.008615,0.6152770000000001,-0.17648
753,0.109203,0.938281,-0.328158,0.030842,0.070203,-0.099301
754,0.121474,0.944464,-0.305311,0.074845,-0.265937,0.030638
755,0.135468,0.949967,-0.281415,0.237823,-0.904557,0.192899
756,0.1443299999999999,0.95331,-0.265238,0.20505,-1.781206,0.258356
757,0.145357,0.956764,-0.251906,-0.168215,-2.0727,0.1476579999999999
758,0.162711,0.95827,-0.235003,-0.444587,-1.5417809999999998,0.4373649999999999
759,0.196279,0.955076,-0.2220059999999999,-0.4635829999999999,-0.982846,0.591406
760,0.2110739999999999,0.950492,-0.2280239999999999,-0.333389,0.2048579999999999,-0.046969
761,0.218741,0.944386,-0.2455,0.001779,-0.085621,-0.058608
762,0.2343989999999999,0.934488,-0.267901,0.049933,-0.65365,0.285388
763,0.260367,0.92109,-0.289458,-0.338858,-0.648339,1.173537
764,0.284317,0.903553,-0.320529,-0.784317,0.840709,0.993564
765,0.273516,0.908222,-0.316709,-0.201022,2.084759,-0.370578
766,0.285896,0.90484,-0.315454,0.1824579999999999,0.344153,-0.019797
767,0.298596,0.902581,-0.310113,0.592059,0.690696,0.154794
768,0.300755,0.911063,-0.281945,0.692028,1.165658,-0.081092
769,0.2938659999999999,0.928376,-0.2274659999999999,0.645816,1.395355,-0.5085109999999999
770,0.276967,0.946138,-0.167605,0.821055,1.092589,-0.450009
771,0.2670369999999999,0.956305,-0.118952,1.202522,0.795587,-0.401998
772,0.258751,0.962249,-0.0842649999999999,-0.098289,-0.116501,0.000906
773,0.2327139999999999,0.970649,-0.060502,-0.4178489999999999,-0.396858,0.04181
774,0.190802,0.981004,-0.0346459999999999,-0.5695859999999999,-0.2164469999999999,-0.104331
775,0.151927,0.988253,-0.015803,-0.488338,-0.751558,-0.132131
776,0.119292,0.992765,-0.012703,-0.204665,-0.8260629999999999,-0.03408
777,0.0949899999999999,0.995159,-0.024704,0.159801,-1.209316,0.148971
778,0.085303,0.995548,-0.039784,0.157343,-1.441562,0.178746
779,0.08677,0.994799,-0.05311,-0.016717,-1.351718,0.22883
780,0.094398,0.993217,-0.067715,-0.099158,-1.109687,0.053097
781,0.1058099999999999,0.990874,-0.083362,-0.131155,-0.53633,0.253406
782,0.12013,0.987422,-0.1026789999999999,-0.100538,0.622578,0.425952
783,0.129326,0.981032,-0.144326,0.088371,1.058138,0.4204489999999999
784,0.142354,0.972055,-0.186611,0.1270859999999999,0.948477,0.288738
785,0.147831,0.965236,-0.215513,-0.110767,0.949635,0.233381
786,0.14686,0.960182,-0.237621,-0.4719489999999999,1.70858,-0.076222
787,0.151637,0.951957,-0.266019,0.049504,1.324868,-0.2727989999999999
788,0.153807,0.942523,-0.296609,0.356173,1.323743,-0.336966
789,0.151688,0.937725,-0.312482,0.301834,0.863819,-0.239779
790,0.14841,0.938543,-0.311601,0.217358,0.4824779999999999,-0.034316
791,0.149294,0.942178,-0.29999,0.050092,-0.047189,-0.093153
792,0.149359,0.947094,-0.2840519999999999,-0.044241,-0.6134310000000001,0.085215
793,0.1474089999999999,0.951569,-0.269757,-0.009225,-1.1767729999999998,0.178891
794,0.141641,0.955553,-0.25853,-0.240885,-1.568163,0.262253
795,0.136994,0.958306,-0.250725,-0.557633,-1.609674,0.174721
796,0.146194,0.95871,-0.2438929999999999,-0.540695,-1.384323,0.72836
797,0.167921,0.955946,-0.24073,-0.276472,-1.04701,0.8293229999999999
798,0.176054,0.952304,-0.249204,-0.25096,-0.141025,0.2861
799,0.185467,0.948315,-0.257453,-0.124661,-0.100766,-0.116464
800,0.2065719999999999,0.940057,-0.2712989999999999,0.0290089999999999,-0.6680229999999999,-0.026141
801,0.231146,0.928422,-0.29084,-0.336935,-0.541169,0.931907
802,0.24788,0.908077,-0.337543,-0.7378100000000001,1.7943919999999998,0.147831
803,0.230735,0.905856,-0.355206,0.360009,0.959684,0.011776
804,0.2377369999999999,0.905474,-0.351542,0.239985,-0.389605,-0.021597
805,0.258721,0.903572,-0.341476,0.503929,0.386727,0.144439
806,0.265605,0.910844,-0.315913,0.4908189999999999,1.3014059999999998,0.062831
807,0.253482,0.930606,-0.264013,0.218229,1.49722,-0.101497
808,0.232535,0.951734,-0.2002779999999999,0.395883,1.043841,-0.40043
809,0.225131,0.963721,-0.143311,0.890301,0.928796,-0.324188
810,0.224215,0.968929,-0.104325,-0.161898,0.314534,-0.254745
811,0.2001119999999999,0.976362,-0.0815559999999999,-0.2928699999999999,-0.4475689999999999,0.095549
812,0.156877,0.986013,-0.056082,-0.14261,-0.315145,-0.0084319999999999
813,0.1216329999999999,0.992108,-0.03007,-0.094457,-0.555188,-0.047369
814,0.097811,0.995089,-0.014452,0.009123,-0.8934350000000001,0.0526149999999999
815,0.081857,0.99653,-0.014265,0.03118,-0.928186,0.032392
816,0.075034,0.996937,-0.021522,-0.100638,-1.10207,0.310447
817,0.075198,0.996584,-0.033805,-0.17348,-0.999514,0.401634
818,0.079253,0.995431,-0.05305,-0.097869,-0.908196,0.347956
819,0.083205,0.993504,-0.077495,0.031205,-0.6845439999999999,0.097621
820,0.081953,0.991023,-0.105526,-0.0846389999999999,-0.542293,0.0869409999999999
821,0.079714,0.987598,-0.135187,-0.1445789999999999,0.268398,0.53422
822,0.0773659999999999,0.979253,-0.187241,0.174999,1.271708,0.385087
823,0.08935,0.967265,-0.237483,0.202551,1.5831959999999998,0.0719559999999999
824,0.099269,0.959111,-0.265019,-0.127543,1.305583,-0.041682
825,0.091222,0.955269,-0.281288,-0.125341,1.515251,-0.168922
826,0.080288,0.950846,-0.299047,0.26839,1.038275,-0.324885
827,0.061875,0.94444,-0.322781,0.303191,1.247271,-0.29755
828,0.050323,0.939647,-0.3384,0.150422,1.295079,-0.16984
829,0.051951,0.939874,-0.337522,-0.111369,0.213247,-0.164797
830,0.064676,0.943037,-0.326314,-0.071939,-0.342055,-0.052821
831,0.0835019999999999,0.946853,-0.310612,0.122904,-0.6372979999999999,0.184361
832,0.1070619999999999,0.94995,-0.293454,0.104668,-1.5699610000000002,0.32858
833,0.126308,0.952685,-0.276441,-0.006099,-1.956729,0.389188
834,0.138704,0.954165,-0.265165,-0.459276,-1.463748,0.345762
835,0.163827,0.95343,-0.253207,-0.590417,-1.113831,0.604494
836,0.188896,0.950447,-0.246882,-0.53614,-0.501213,0.23292
837,0.193923,0.947279,-0.255027,-0.329879,-0.1308119999999999,-0.058663
838,0.194431,0.942252,-0.272652,0.116284,-0.482413,0.185524
839,0.202573,0.935257,-0.290243,-0.057523,-0.711517,0.719336
840,0.229661,0.922179,-0.311166,-0.429947,-0.1968069999999999,0.8940670000000001
841,0.260567,0.906066,-0.333367,-0.171853,3.940233,-0.791755
842,0.261928,0.906582,-0.330887,0.29961,0.029316,-0.06314
843,0.267205,0.904763,-0.331646,0.502861,0.31298,0.268154
844,0.269621,0.909021,-0.317755,0.648943,0.428961,0.276038
845,0.266108,0.921977,-0.281294,0.4734239999999999,1.419209,0.19499
846,0.251014,0.942936,-0.218732,0.291451,1.289012,-0.458346
847,0.234505,0.957932,-0.1653869999999999,1.017692,1.243667,-0.2686489999999999
848,0.22763,0.964914,-0.130788,0.55977,0.4243689999999999,-0.324092
849,0.217338,0.970145,-0.107521,-0.257957,-0.2441469999999999,-0.052788
850,0.185044,0.979144,-0.083742,-0.543443,-0.780795,0.103059
851,0.140572,0.98848,-0.055887,-0.427513,-0.359605,0.17222
852,0.106402,0.993755,-0.033247,-0.159411,-0.805325,0.135771
853,0.077579,0.996693,-0.023679,0.049756,-1.019429,0.036573
854,0.055232,0.998116,-0.0262779999999999,0.059636,-1.104317,0.007556
855,0.042234,0.998486,-0.034918,-0.028364,-1.192288,0.1726589999999999
856,0.036824,0.998289,-0.045165,-0.1944779999999999,-1.215208,0.241775
857,0.039334,0.997752,-0.054034,-0.0302089999999999,-1.052623,-0.04112
858,0.048291,0.996603,-0.066534,0.043369,-0.693137,0.227148
859,0.062312,0.993449,-0.09568,0.13152,0.127492,0.719658
860,0.07845,0.984821,-0.15477,0.621654,1.93916,0.724152
861,0.103229,0.976336,-0.189979,-0.581317,2.054578,0.014305
862,0.123349,0.972167,-0.19914,-0.799466,0.509324,-0.005526
863,0.113954,0.969703,-0.216036,-0.166734,0.676842,-0.190001
864,0.095189,0.963601,-0.249788,0.561275,0.993873,-0.1020799999999999
865,0.080434,0.955146,-0.284974,0.577647,1.32734,-0.099639
866,0.074168,0.949711,-0.304191,0.108342,1.308392,-0.183816
867,0.074238,0.948252,-0.308691,-0.209126,0.766195,-0.246134
868,0.076731,0.948755,-0.306528,-0.261942,-0.1039369999999999,-0.047506
869,0.084957,0.948751,-0.3043639999999999,-0.1231039999999999,-0.37351,0.106198
870,0.102408,0.949071,-0.297928,0.109094,-0.74149,0.307801
871,0.126713,0.948227,-0.291194,0.051082,-1.437027,0.45402
872,0.147885,0.945366,-0.290512,-0.032437,-1.605049,0.46196
873,0.163365,0.942692,-0.290909,-0.415822,-1.54964,0.383759
874,0.183669,0.941389,-0.282907,-0.4384149999999999,-1.026594,0.466302
875,0.198673,0.940021,-0.277259,-0.2138699999999999,-0.452381,0.17826
876,0.204694,0.936797,-0.283717,-0.06262,-0.421218,0.113093
877,0.216464,0.927663,-0.304253,-0.211733,-0.28043,0.452812
878,0.233512,0.911327,-0.339027,-0.32804,-0.1769369999999999,0.5836100000000001
879,0.258526,0.892573,-0.369409,-0.686017,1.016027,0.528482
880,0.275968,0.8894780000000001,-0.36422,0.4120359999999999,0.123217,-0.214484
881,0.296189,0.88274,-0.36473,0.429809,0.6079680000000001,0.1996609999999999
882,0.294609,0.8853219999999999,-0.359716,0.649803,0.778237,0.399526
883,0.285549,0.8976790000000001,-0.335588,0.182637,0.953945,0.1615609999999999
884,0.277144,0.917993,-0.283661,0.127305,0.978736,-0.212113
885,0.26927,0.935633,-0.228181,0.809389,1.02442,-0.285659
886,0.27099,0.944165,-0.187342,0.675391,0.8710969999999999,-0.206884
887,0.27028,0.949491,-0.15936,0.058135,0.3239619999999999,-0.069019
888,0.2506739999999999,0.958113,-0.138425,-0.189105,-0.281706,0.041272
889,0.217438,0.969152,-0.115949,-0.284455,-0.438787,0.114515
890,0.1859839999999999,0.97752,-0.099214,-0.41897,-0.718151,-0.0036149999999999
891,0.158749,0.982966,-0.092495,-0.3230409999999999,-0.806879,0.125912
892,0.134771,0.985971,-0.098373,-0.173543,-0.977975,-0.00557
893,0.11843,0.987333,-0.1054819999999999,-0.127951,-1.111433,0.104093
894,0.112747,0.986968,-0.114725,-0.094772,-1.157851,0.4203439999999999
895,0.112218,0.985602,-0.126393,-0.231343,-1.152396,0.3820989999999999
896,0.114232,0.983615,-0.139402,-0.148564,-0.935077,0.280622
897,0.120056,0.980919,-0.152859,-0.141738,-0.6146159999999999,0.232861
898,0.1313079999999999,0.976501,-0.170839,-0.175025,0.059953,0.378785
899,0.145713,0.966109,-0.213033,0.2560969999999999,1.850373,0.970143
900,0.174598,0.949975,-0.258934,-0.100715,2.58358,0.417687
901,0.203353,0.937628,-0.28193,-0.7475729999999999,0.924463,0.2062159999999999
902,0.214806,0.924687,-0.31432,-0.3871239999999999,0.187282,0.038914
903,0.225595,0.909448,-0.349281,-0.040918,0.128775,0.179893
904,0.229217,0.894705,-0.38334,0.187806,0.242976,0.101144
905,0.21564,0.886057,-0.4103529999999999,0.1223269999999999,0.62583,0.094801
906,0.205969,0.8819469999999999,-0.423951,-0.081991,0.902004,-0.05786
907,0.210952,0.880474,-0.4245609999999999,-0.310882,0.4415779999999999,-0.008743
908,0.220359,0.8812459999999999,-0.418133,-0.384056,0.132152,0.052242
909,0.230219,0.8843979999999999,-0.405989,-0.225992,-0.2504099999999999,0.0866379999999999
910,0.240398,0.888748,-0.390284,0.006489,-0.617798,0.003077
911,0.249723,0.8945350000000001,-0.370718,0.025012,-0.722279,-0.036478
912,0.260303,0.899459,-0.351002,-0.165073,-0.730575,0.051273
913,0.275273,0.8996790000000001,-0.338803,-0.327687,-0.932241,0.360684
914,0.295686,0.896382,-0.330235,-0.2666489999999999,-1.080723,0.455739
915,0.317414,0.8909379999999999,-0.324751,-0.301652,-0.989128,0.509749
916,0.338794,0.883325,-0.323946,-0.5070680000000001,0.1176059999999999,0.676348
917,0.375407,0.861699,-0.341365,-0.518123,0.2604329999999999,0.772258
918,0.417197,0.829708,-0.370834,-0.6177739999999999,3.3672980000000003,-0.7377779999999999
919,0.428268,0.819693,-0.380364,-0.100753,0.000711,0.310128
920,0.442617,0.810535,-0.383549,0.195688,0.063275,0.448429
921,0.4530869999999999,0.806066,-0.380731,0.334542,0.700983,0.447702
922,0.459392,0.811393,-0.3613659999999999,0.049091,1.135445,0.379142
923,0.461335,0.8240620000000001,-0.32875,-0.190431,1.265141,0.2330469999999999
924,0.459105,0.835226,-0.302661,-0.1123339999999999,0.575647,0.146213
925,0.4608489999999999,0.841777,-0.281093,-0.241901,0.259892,0.354609
926,0.4719489999999999,0.844266,-0.253894,-0.4658609999999999,0.135486,0.414096
927,0.481309,0.8480139999999999,-0.221804,-0.423691,0.072152,0.321657
928,0.481519,0.8552879999999999,-0.191323,-0.155454,0.177275,0.240471
929,0.478174,0.862044,-0.16796,0.026648,-0.082808,0.038642
930,0.476971,0.8657299999999999,-0.1516279999999999,-0.034604,-0.40197,-0.046782
931,0.4780069999999999,0.866973,-0.1408839999999999,-0.143717,-0.662963,0.001007
932,0.4798699999999999,0.8672120000000001,-0.132847,-0.332821,-0.8894290000000001,0.103748
933,0.481317,0.8679100000000001,-0.122667,-0.31553,-0.835469,0.148043
934,0.48097,0.869763,-0.110278,-0.208707,-0.688397,0.248477
935,0.4836399999999999,0.869501,-0.100198,-0.182843,-0.5341130000000001,0.208413
936,0.4918949999999999,0.8656360000000001,-0.093234,-0.212354,-0.375142,0.237475
937,0.505199,0.858181,-0.0909809999999999,-0.2510489999999999,-0.194699,0.2407
938,0.51861,0.849686,-0.095161,-0.591929,1.20494,-0.088738
939,0.529856,0.842923,-0.093343,-0.507486,1.328143,-0.118006
940,0.53035,0.8425370000000001,-0.094023,-0.4672699999999999,1.081322,-0.069963
941,0.520624,0.8478530000000001,-0.1003759999999999,-0.1249329999999999,1.191668,0.074573
942,0.5122979999999999,0.852103,-0.107002,-0.102752,1.3184129999999998,-0.060326
943,0.507418,0.8546030000000001,-0.110268,-0.096499,1.232875,-0.114113
944,0.500363,0.8582200000000001,-0.114344,-0.221051,0.6218670000000001,-0.241155
945,0.4928109999999999,0.862225,-0.1169809999999999,-0.251188,0.363788,-0.201988
946,0.4847939999999999,0.8665700000000001,-0.118364,-0.339042,-0.000649,0.033525
947,0.473401,0.872885,-0.118083,-0.33395,-0.278036,0.118815
948,0.458987,0.880935,-0.115171,-0.295794,-0.516265,0.109494
949,0.445388,0.888763,-0.1082099999999999,-0.2887409999999999,-0.6971729999999999,0.0767159999999999
950,0.43491,0.8952700000000001,-0.096559,-0.282124,-0.7448640000000001,-0.00894
951,0.427162,0.9004700000000001,-0.081637,-0.302894,-0.698688,-0.155057
952,0.421216,0.904586,-0.065423,-0.341244,-0.5063310000000001,-0.292533
953,0.416493,0.907946,-0.046313,-0.330586,-0.4489619999999999,-0.318707
954,0.4139899999999999,0.909907,-0.025674,-0.315601,-0.237666,-0.311026
955,0.413006,0.910668,-0.00937,-0.254528,0.064461,-0.33705
956,0.410426,0.911875,0.003371,-0.118892,0.2454889999999999,-0.339584
957,0.4057179999999999,0.913845,0.016012,-0.0855279999999999,0.325413,-0.313864
958,0.4062969999999999,0.913213,0.030663,0.0096569999999999,0.131999,-0.313713
959,0.414268,0.909028,0.045016,0.013833,-0.050355,-0.176379
960,0.423378,0.904497,0.051106,-0.107598,-0.006014,-0.060902
961,0.4279779999999999,0.90241,0.049657,-0.347595,0.554346,0.1144049999999999
962,0.425125,0.903237,0.058369,-0.421692,0.722572,0.008816
963,0.421531,0.903341,0.079127,-0.315162,0.523676,-0.077876
964,0.417495,0.902795,0.103119,-0.139205,0.4201569999999999,-0.019257
965,0.411739,0.902918,0.123222,-0.111614,0.435384,-0.0247569999999999
966,0.405789,0.902676,0.143123,-0.085461,0.289386,0.048192
967,0.398727,0.900906,0.17134,-0.0086819999999999,0.20499,0.040346
968,0.3879559999999999,0.898409,0.205726,0.0529309999999999,0.169065,-0.049385
969,0.375213,0.896121,0.2369679999999999,0.042969,-0.034884,-0.158126
970,0.360303,0.8964540000000001,0.257919,-0.050244,-0.196671,-0.29486
971,0.3422989999999999,0.8991709999999999,0.272566,-0.004836,-0.3103039999999999,-0.318251
972,0.318768,0.90333,0.286969,0.120655,-0.207666,-0.2988099999999999
973,0.295786,0.906321,0.301762,0.207738,-0.3301949999999999,-0.347706
974,0.279179,0.906817,0.315768,0.29211,-0.39731,-0.342211
975,0.268295,0.905953,0.327464,0.24205,-0.431389,-0.331661
976,0.261849,0.903971,0.337989,0.1279819999999999,-0.352519,-0.396369
977,0.256311,0.901986,0.347408,0.053519,-0.14074,-0.4898949999999999
978,0.248862,0.901101,0.355035,0.050149,-0.002435,-0.520837
979,0.238944,0.900737,0.362689,0.173516,0.327855,-0.377886
980,0.227657,0.9000020000000001,0.371663,0.068409,0.349693,-0.453496
981,0.213763,0.899864,0.3801489999999999,0.023831,0.364693,-0.598472
982,0.196509,0.901686,0.38511,0.168756,0.369722,-0.859093
983,0.178345,0.905005,0.386164,0.300826,0.0960169999999999,-0.6957800000000001
984,0.162696,0.907637,0.386899,0.256448,-0.100767,-0.461026
985,0.153345,0.909431,0.386502,0.141378,-0.0619889999999999,-0.279798
986,0.1529589999999999,0.913028,0.378083,-0.007878,0.014294,-0.252503
987,0.159421,0.920279,0.3572619999999999,0.019244,-0.040671,-0.262123
988,0.166239,0.930689,0.325806,-0.010584,0.049048,-0.173752
989,0.173617,0.94222,0.286434,-0.023989,0.411616,-0.135006
990,0.181279,0.952733,0.243734,-0.076847,0.523464,-0.053533
991,0.184519,0.962599,0.198303,-0.136896,0.538576,-0.024048
992,0.181896,0.971444,0.152252,-0.008633,1.1120370000000002,-0.284927
993,0.170391,0.979708,0.105399,0.061848,1.192106,-0.339194
994,0.156242,0.985557,0.065095,0.130181,1.034997,-0.538682
995,0.142895,0.989237,0.031018,0.407307,0.98528,-0.692487
996,0.129993,0.991488,0.005058,0.421689,0.742093,-0.623222
997,0.122866,0.992392,-0.005838,0.130704,0.273767,-0.506003
998,0.126019,0.992013,0.0016879999999999,-0.200025,0.029517,-0.330896
999,0.133377,0.990853,0.019863,-0.365448,-0.491905,-0.223507
1000,0.135992,0.989967,0.037997,-0.352118,-0.869331,-0.291873
1001,0.13642,0.98924,0.0526,-0.201972,-1.169125,-0.206454
1002,0.136444,0.988715,0.061624,-0.104004,-1.412741,-0.0653779999999999
1003,0.133605,0.988933,0.064283,-0.237654,-1.440212,-0.108045
1004,0.143255,0.987593,0.0641,-0.178838,-1.417082,-0.045744
1005,0.167953,0.983548,0.0663049999999999,-0.072799,-0.833233,0.146799
1006,0.182147,0.981331,0.061511,-0.020663,-0.43386,-0.064471
1007,0.188071,0.981034,0.046618,-0.127906,-0.155076,-0.355929
1008,0.201199,0.978922,0.034666,-0.117474,-0.6094609999999999,0.003588
1009,0.225435,0.974135,0.014543,-0.4106619999999999,-0.448058,0.379454
1010,0.24697,0.968985,-0.006773,-0.5501159999999999,2.166009,-0.112794
1011,0.234844,0.972017,-0.00178,0.023213,2.213209,-0.420034
1012,0.2388809999999999,0.971035,0.0002089999999999,0.200236,0.155018,-0.364818
1013,0.2455719999999999,0.969352,0.004863,0.595172,0.784554,0.013142
1014,0.2446429999999999,0.969162,0.0290959999999999,0.6025560000000001,0.880661,-0.069685
1015,0.230386,0.970177,0.075167,0.195686,0.87246,-0.470782
1016,0.212191,0.969415,0.123206,0.645781,0.724372,-0.430014
1017,0.200916,0.96573,0.164215,0.784787,0.661147,-0.437409
1018,0.187313,0.962097,0.198117,0.385319,0.502258,-0.502011
1019,0.164734,0.960712,0.2232989999999999,0.280975,0.278165,-0.559175
1020,0.14132,0.960605,0.239235,0.19332,-0.482135,-0.527886
1021,0.122457,0.95994,0.251959,-0.033422,-0.620173,-0.272788
1022,0.105531,0.961032,0.25543,-0.055802,-0.714374,-0.3468
1023,0.090207,0.963937,0.250306,-0.128568,-0.775018,-0.089524
1024,0.081553,0.968254,0.236217,-0.118967,-0.98513,0.040364
1025,0.086217,0.972768,0.215071,0.038844,-0.959874,0.1442119999999999
1026,0.103252,0.976619,0.188476,0.0275769999999999,-1.036159,0.109574
1027,0.1247559999999999,0.97932,0.159176,-0.4595189999999999,-0.959285,-0.215725
1028,0.144359,0.980684,0.131871,-0.522868,-0.703309,-0.223012
1029,0.161,0.982407,0.09448,-0.253895,0.988952,-0.385007
1030,0.162027,0.985935,0.040649,0.6745359999999999,1.2852290000000002,-0.334213
1031,0.154123,0.988026,-0.004909,0.762991,0.806026,-0.251209
1032,0.15152,0.987774,-0.036312,0.40239,0.5741310000000001,-0.5016520000000001
1033,0.157718,0.98519,-0.067097,0.111341,1.221979,-0.632763
1034,0.159229,0.982232,-0.099212,0.178448,1.509391,-0.5935520000000001
1035,0.14955,0.981341,-0.120753,0.183947,1.480725,-0.54688
1036,0.137735,0.982351,-0.12646,-0.162012,0.435221,-0.484883
1037,0.126275,0.984311,-0.123146,-0.189492,0.199482,-0.343376
1038,0.116239,0.986838,-0.112318,-0.12747,-0.18003,-0.212282
1039,0.113965,0.989107,-0.093041,0.048236,-0.660142,-0.0262209999999999
1040,0.120501,0.989851,-0.075167,0.113691,-1.089705,0.113528
1041,0.127316,0.989873,-0.06258,-0.114301,-1.3790639999999998,0.209461
1042,0.128699,0.990342,-0.051323,-0.471259,-1.476411,-0.005059
1043,0.134508,0.990185,-0.037612,-0.490313,-1.381161,0.166961
1044,0.15191,0.988145,-0.02161,-0.317712,-1.045106,0.221058
1045,0.164275,0.986237,-0.0179919999999999,-0.165221,-0.362046,-0.137617
1046,0.173315,0.984389,-0.0302589999999999,0.0143069999999999,-0.304548,-0.083678
1047,0.192445,0.980341,-0.043268,-0.14885,-0.613428,0.444452
1048,0.21693,0.974217,-0.061799,-0.259471,-0.26685,0.3676
1049,0.235275,0.968327,-0.083452,-0.1130369999999999,1.719066,-0.395003
1050,0.218806,0.972571,-0.07877,0.094045,-0.046805,-0.337489
1051,0.2227849999999999,0.972122,-0.072952,0.1180359999999999,-0.269134,-0.291336
1052,0.23145,0.970477,-0.0676799999999999,0.540705,0.73895,-0.008934
1053,0.237801,0.97034,-0.043191,0.494804,1.200955,-0.262519
1054,0.232984,0.972445,0.006493,0.335528,1.309858,-0.604622
1055,0.214596,0.974912,0.058878,0.8330420000000001,0.926272,-0.497477
1056,0.202123,0.974214,0.100122,0.82986,0.51718,-0.390421
1057,0.188544,0.973007,0.132957,0.346018,0.3468469999999999,-0.433799
1058,0.161383,0.974118,0.158171,0.145319,-0.050015,-0.554778
1059,0.126152,0.975829,0.178357,-0.057595,-0.640441,-0.437802
1060,0.097501,0.976254,0.1933619999999999,-0.128538,-0.558422,-0.436847
1061,0.0770309999999999,0.97787,0.19443,-0.032888,-0.745128,-0.148944
1062,0.060108,0.98039,0.187589,0.0135919999999999,-0.956907,-0.107298
1063,0.049427,0.983439,0.174276,0.028835,-1.190883,-0.102255
1064,0.05366,0.986335,0.155669,0.146428,-1.244178,-0.0306839999999999
1065,0.069801,0.988477,0.1342,0.099633,-1.151075,-0.035643
1066,0.090672,0.989716,0.110501,-0.029164,-1.035142,0.016193
1067,0.114607,0.989695,0.085675,-0.141753,0.275289,0.156375
1068,0.137235,0.989428,0.046593,-0.00337,1.075391,0.030693
1069,0.153422,0.988122,-0.007097,-0.0684299999999999,1.667091,-0.37596
1070,0.162548,0.985554,-0.047292,-0.1264,1.292355,-0.4577279999999999
1071,0.158782,0.984514,-0.074125,0.0139169999999999,0.5325449999999999,-0.4490229999999999
1072,0.154213,0.982849,-0.101002,0.652672,0.967285,-0.695018
1073,0.1415539999999999,0.981881,-0.125893,0.676226,1.185157,-0.6946180000000001
1074,0.1280109999999999,0.982775,-0.133206,0.508586,1.1581709999999998,-0.5460699999999999
1075,0.118833,0.985062,-0.12453,-0.29315,0.526504,-0.518476
1076,0.112516,0.987531,-0.109991,-0.398023,0.267443,-0.442301
1077,0.106595,0.990558,-0.08607,-0.2590449999999999,-0.291583,-0.110982
1078,0.103306,0.993079,-0.0556549999999999,0.280513,-1.219321,-0.052652
1079,0.101184,0.994356,-0.03148,0.334759,-1.359408,-0.085341
1080,0.098624,0.994971,-0.016682,0.033288,-1.472571,-0.0831409999999999
1081,0.105294,0.994392,-0.00835,-0.45086,-1.246834,0.288578
1082,0.1246039999999999,0.992186,-0.003652,-0.329011,-0.8583049999999999,0.336034
1083,0.141179,0.989873,-0.0139,-0.2610369999999999,-0.258717,-0.350709
1084,0.151781,0.987849,-0.033005,-0.0943919999999999,-0.2541,0.2334139999999999
1085,0.16926,0.983927,-0.056676,-0.220636,0.076879,0.586126
1086,0.194918,0.976094,-0.096033,-0.157411,0.508235,0.308633
1087,0.203104,0.97204,-0.11774,-0.194696,0.363318,-0.425427
1088,0.193056,0.974461,-0.1145849999999999,0.097105,-0.012532,-0.327309
1089,0.198771,0.973462,-0.113301,0.328756,0.359683,-0.236583
1090,0.20963,0.972868,-0.097762,0.777857,0.659655,-0.103059
1091,0.210107,0.975656,-0.062641,0.4623779999999999,1.106192,-0.334103
1092,0.2026589999999999,0.979166,-0.011645,0.605965,0.8887079999999999,-0.596143
1093,0.196241,0.979806,0.037943,0.8604,0.954337,-0.473811
1094,0.193211,0.97816,0.076431,0.490856,0.63561,-0.3725739999999999
1095,0.184019,0.976478,0.11223,0.324175,0.490899,-0.270478
1096,0.1605099999999999,0.97617,0.1459329999999999,0.093076,0.067562,-0.221617
1097,0.136299,0.975788,0.170958,-0.074378,-0.589176,-0.440322
1098,0.115814,0.975507,0.186924,-0.214569,-0.5527770000000001,-0.270267
1099,0.097485,0.977551,0.186701,-0.294568,-0.691861,-0.267161
1100,0.077559,0.981855,0.172954,-0.081435,-0.961118,-0.019069
1101,0.064304,0.986087,0.1531809999999999,0.0096709999999999,-1.057819,0.020082
1102,0.067824,0.988799,0.132831,0.160097,-1.203353,0.127331
1103,0.079791,0.990794,0.109218,0.019452,-1.216457,-0.024684
1104,0.092757,0.992299,0.0819049999999999,-0.024702,-0.8235979999999999,-0.011668
1105,0.106263,0.992993,0.051413,-0.0475779999999999,-0.639111,-0.0073459999999999
1106,0.116442,0.993163,0.006317,0.027006,1.12288,0.18097
1107,0.126367,0.990787,-0.048423,-0.006021,1.137814,0.153572
1108,0.135624,0.98639,-0.092819,0.122387,0.668579,-0.1099849999999999
1109,0.127716,0.984365,-0.121197,0.058395,0.823343,-0.283161
1110,0.122044,0.981665,-0.146336,0.112774,0.556207,-0.3497889999999999
1111,0.114434,0.978366,-0.172283,0.194404,0.989682,-0.686131
1112,0.103557,0.97498,-0.196642,0.183232,1.425762,-0.5729350000000001
1113,0.095979,0.974429,-0.203112,-0.131746,0.838758,-0.5998359999999999
1114,0.09389,0.9762,-0.195437,-0.213107,0.2377739999999999,-0.469327
1115,0.094694,0.979854,-0.175775,-0.064008,-0.08842,-0.224005
1116,0.098244,0.984246,-0.146917,0.1352,-0.648247,-0.088419
1117,0.1001789999999999,0.98764,-0.120448,0.3215739999999999,-1.112334,-0.024617
1118,0.097726,0.990106,-0.1005679999999999,0.111213,-1.315561,0.004605
1119,0.094328,0.991937,-0.08449,-0.404234,-1.255166,0.0180229999999999
1120,0.103102,0.991872,-0.074397,-0.481764,-1.3213700000000002,0.353373
1121,0.122254,0.990186,-0.06752,-0.4174199999999999,-1.158598,0.3667
1122,0.136893,0.987491,-0.078079,-0.137992,-0.031467,-0.1027069999999999
1123,0.151148,0.98459,-0.087808,-0.054422,-0.583132,-0.063391
1124,0.17818,0.979828,-0.090353,-0.205631,-0.6913600000000001,0.675162
1125,0.223068,0.969194,-0.1043,-0.223435,-0.570634,0.565024
1126,0.255334,0.959998,-0.114819,-0.607568,2.394205,-0.016284
1127,0.2362929999999999,0.966528,-0.0998169999999999,0.1627849999999999,0.187906,-0.2708489999999999
1128,0.234168,0.968025,-0.089812,0.337121,0.011558,0.0076739999999999
1129,0.241746,0.966804,-0.082596,0.646347,0.558846,-0.007965
1130,0.251716,0.966067,-0.057669,0.571923,1.2103700000000002,-0.415735
1131,0.247961,0.968691,-0.011109,0.522349,0.942411,-0.621383
1132,0.230454,0.972381,0.036562,0.906174,0.671525,-0.57802
1133,0.2193699999999999,0.972828,0.073834,0.8738309999999999,0.506008,-0.631085
1134,0.206946,0.972859,0.10337,0.60885,0.493922,-0.609901
1135,0.18417,0.974399,0.128821,0.446475,0.121427,-0.571051
1136,0.160083,0.975288,0.152159,0.125622,-0.486992,-0.248793
1137,0.138848,0.975423,0.170989,-0.2314989999999999,-0.486836,-0.284972
1138,0.1230599999999999,0.975826,0.180516,-0.265119,-0.7756609999999999,-0.140126
1139,0.107054,0.977542,0.1814329999999999,-0.142897,-0.96004,0.1257569999999999
1140,0.09281,0.98087,0.171015,-0.1276,-1.018895,0.179632
1141,0.09187,0.984237,0.151009,0.021472,-0.977554,0.1346359999999999
1142,0.106639,0.986113,0.127191,-0.056163,-1.041319,0.007651
1143,0.125672,0.987221,0.097825,-0.2247469999999999,-1.001366,-0.028612
1144,0.140467,0.987963,0.064553,-0.324762,-0.367617,0.03881
1145,0.146576,0.988935,0.0222419999999999,-0.016083,0.938724,0.255499
1146,0.139449,0.989653,-0.033367,0.063066,1.118623,0.430035
1147,0.13945,0.987322,-0.075649,-0.019135,0.802702,-0.278003
1148,0.132177,0.986426,-0.097299,-0.0645039999999999,1.2183469999999998,-0.389167
1149,0.1241829999999999,0.985065,-0.1191609999999999,0.224541,0.63937,-0.534922
1150,0.112174,0.983344,-0.142921,0.387414,0.970055,-0.7102890000000001
1151,0.097152,0.982124,-0.16115,0.291505,1.229851,-0.528669
1152,0.089068,0.983013,-0.160398,0.072797,1.059544,-0.552813
1153,0.091956,0.984896,-0.146624,-0.375312,0.332425,-0.444501
1154,0.10196,0.986957,-0.124476,-0.171067,-0.423099,-0.096609
1155,0.10592,0.989015,-0.102975,0.150382,-0.8185439999999999,0.083933
1156,0.104555,0.990744,-0.086423,0.289457,-1.077703,-0.080508
1157,0.098756,0.992193,-0.075982,0.177138,-1.143316,0.074319
1158,0.093842,0.993241,-0.068121,-0.1937569999999999,-1.266617,0.06867
1159,0.103256,0.993056,-0.0561309999999999,-0.447204,-1.320266,0.132898
1160,0.127993,0.990742,-0.044952,-0.4528529999999999,-1.174397,0.343566
1161,0.1479319999999999,0.987654,-0.051264,-0.34091,-0.8530409999999999,0.209421
1162,0.154815,0.985542,-0.068646,-0.12854,-0.2857889999999999,0.219906
1163,0.171504,0.981513,-0.0848059999999999,-0.104045,-0.042304,0.479658
1164,0.196945,0.973357,-0.1173119999999999,-0.148071,0.322907,0.3225739999999999
1165,0.210534,0.968145,-0.135439,-0.065042,0.26092,-0.256803
1166,0.214642,0.967725,-0.131949,0.071552,0.097262,-0.372674
1167,0.223376,0.965466,-0.133986,0.219434,0.2349889999999999,-0.096193
1168,0.2292699999999999,0.96533,-0.1246859999999999,0.601952,0.7449359999999999,-0.0287259999999999
1169,0.225162,0.969976,-0.091765,0.386471,1.540461,-0.3351909999999999
1170,0.208071,0.9772,-0.041925,0.407698,1.28519,-0.596655
1171,0.192161,0.981311,0.008525,0.933113,0.577725,-0.396739
1172,0.183082,0.981598,0.053986,0.65371,0.364105,-0.442337
1173,0.171801,0.980807,0.092026,0.4093,0.284467,-0.4191439999999999
1174,0.1410539999999999,0.982063,0.1249859999999999,0.2574599999999999,0.4016949999999999,-0.300904
1175,0.1065599999999999,0.983041,0.1491309999999999,0.066322,-0.1754089999999999,-0.390937
1176,0.086367,0.981388,0.1714119999999999,-0.083758,-0.49004,-0.406016
1177,0.068012,0.980237,0.18567,-0.141651,-0.97395,-0.310808
1178,0.045401,0.980417,0.1915319999999999,0.010706,-1.084543,-0.141254
1179,0.0264779999999999,0.980983,0.192187,0.035641,-1.144404,0.146695
1180,0.020405,0.981723,0.189125,0.085399,-0.899646,0.076103
1181,0.028913,0.983347,0.179323,-0.022642,-0.837534,-0.11577
1182,0.042404,0.985474,0.164341,-0.165237,-0.8202360000000001,-0.233281
1183,0.054272,0.988397,0.141742,-0.229702,-0.6205689999999999,0.1215789999999999
1184,0.06294,0.992032,0.1089789999999999,0.0601679999999999,0.981723,0.2296139999999999
1185,0.070552,0.995793,0.05819,0.086537,1.3225209999999998,0.222129
1186,0.081313,0.996652,0.006493,0.13408,0.968924,0.093178
1187,0.093323,0.995322,-0.024377,-0.032059,0.841302,-0.2689269999999999
1188,0.086363,0.995475,-0.0392649999999999,-0.034453,1.017892,-0.404064
1189,0.071383,0.995412,-0.063484,0.374509,0.968684,-0.4476239999999999
1190,0.057944,0.993357,-0.0992789999999999,0.529183,1.344839,-0.6881659999999999
1191,0.047517,0.99126,-0.122958,0.299056,1.351346,-0.619138
1192,0.041582,0.990817,-0.128547,-0.041171,0.564786,-0.560936
1193,0.039428,0.991377,-0.124856,-0.158462,-0.010725,-0.379737
1194,0.048239,0.992531,-0.111923,0.148431,-0.463265,-0.022187
1195,0.069261,0.993353,-0.091783,0.089629,-1.234991,-0.046966
1196,0.091675,0.993389,-0.068881,0.007522,-1.341152,-0.042737
1197,0.103697,0.993027,-0.055803,-0.16165,-1.395874,0.143282
1198,0.109468,0.992607,-0.052121,-0.37993,-1.338722,0.251645
1199,0.1241029999999999,0.990952,-0.050821,-0.393832,-1.206116,0.322824
1200,0.141376,0.988124,-0.059937,-0.3870119999999999,-0.527019,0.166077
1201,0.15339,0.984983,-0.079059,-0.391,-0.165082,-0.331539
1202,0.166709,0.981645,-0.092475,-0.030601,-0.7054,0.0669309999999999
1203,0.181399,0.978614,-0.096848,-0.085742,-1.174094,0.155991
1204,0.201417,0.974192,-0.101743,-0.302659,-0.819544,0.685407
1205,0.222464,0.967397,-0.1209269999999999,-0.4849159999999999,2.001933,0.098725
1206,0.21605,0.970426,-0.107549,0.682082,1.474368,-0.619929
1207,0.2310719999999999,0.96796,-0.09813,0.514885,-0.379459,-0.116989
1208,0.243832,0.965442,-0.09186,0.726306,0.340832,-0.078764
1209,0.250728,0.965816,-0.065606,0.6902050000000001,0.759236,-0.130393
1210,0.242505,0.970032,-0.014052,0.283648,1.1825709999999998,-0.426454
1211,0.218803,0.974867,0.0415339999999999,0.596001,1.095735,-0.449371
1212,0.204647,0.975443,0.081212,0.94289,0.538778,-0.474416
1213,0.1917579999999999,0.975477,0.107871,0.186248,0.31325,-0.602668
1214,0.160395,0.978838,0.126938,0.143545,-0.103822,-0.306244
1215,0.119223,0.981362,0.15059,0.0759519999999999,-0.293175,-0.318391
1216,0.0913549999999999,0.980994,0.171074,-0.303193,-0.621711,-0.465156
1217,0.078402,0.981017,0.177259,0.045774,-0.881713,-0.217817
1218,0.066442,0.983001,0.171047,0.111857,-1.015761,0.006122
1219,0.06392,0.985353,0.157975,0.022994,-1.249864,0.2246699999999999
1220,0.0807669999999999,0.986318,0.143583,0.036054,-1.056707,0.209734
1221,0.108154,0.986207,0.125149,-0.15303,-0.911179,-0.001827
1222,0.134542,0.985776,0.100535,-0.278463,-0.344938,0.251698
1223,0.159095,0.984839,0.0688889999999999,-0.169425,1.255181,0.007298
1224,0.165296,0.986083,0.016901,-0.642667,1.231812,-0.032694
1225,0.163371,0.986374,-0.01857,-0.248103,0.805221,-0.02916
1226,0.153257,0.98697,-0.048719,0.023912,1.45343,-0.329608
1227,0.135185,0.987432,-0.081692,0.552833,1.537333,-0.699008
1228,0.117998,0.986783,-0.110942,0.948988,1.22568,-0.804189
1229,0.103591,0.98663,-0.125711,0.5830390000000001,0.6392100000000001,-0.5691890000000001
1230,0.091588,0.988455,-0.120582,-0.053135,0.1798799999999999,-0.356743
1231,0.091024,0.990565,-0.102309,-0.290442,-0.032893,-0.2745829999999999
1232,0.100412,0.9918,-0.078876,-0.348154,-0.6460359999999999,-0.137402
1233,0.113653,0.991745,-0.059113,-0.245352,-1.066635,-0.069366
1234,0.125488,0.990871,-0.048966,-0.155548,-1.301341,0.167237
1235,0.129185,0.990109,-0.054461,-0.261753,-1.545376,0.218386
1236,0.133399,0.98939,-0.0572809999999999,-0.414832,-1.464641,0.200973
1237,0.154832,0.986649,-0.050198,-0.341386,-1.341263,0.381207
1238,0.177358,0.982963,-0.047923,-0.117024,-0.213508,-0.025639
1239,0.181222,0.981418,-0.062829,-0.187646,0.095425,-0.3240119999999999
1240,0.18661,0.978891,-0.083179,-0.035701,-0.32966,0.411288
1241,0.200671,0.973235,-0.1118789999999999,-0.072115,-0.4836109999999999,0.294527
1242,0.222369,0.96491,-0.139544,-0.192813,0.519099,0.05144
1243,0.234168,0.962789,-0.134817,-0.102134,0.820628,-0.302317
1244,0.240389,0.963067,-0.1211869999999999,0.373076,0.606498,-0.3220659999999999
1245,0.237955,0.965423,-0.106333,0.52561,0.420014,0.111643
1246,0.23345,0.969234,-0.077828,0.2249699999999999,0.770726,0.044106
1247,0.229261,0.973006,-0.025809,0.09009,1.213059,-0.587533
1248,0.217862,0.975386,0.033526,0.661944,0.8054979999999999,-0.737642
1249,0.206276,0.975393,0.077608,1.037193,0.698603,-0.486956
1250,0.193787,0.974275,0.114881,0.64653,0.483183,-0.50807
1251,0.17574,0.97323,0.147991,0.276591,-0.066812,-0.439587
1252,0.149896,0.972368,0.178864,0.134818,-0.549746,-0.350647
1253,0.124747,0.971274,0.202545,-0.232688,-0.499168,-0.269623
1254,0.1052119999999999,0.971484,0.212391,-0.2314929999999999,-0.610568,-0.263554
1255,0.090014,0.97415,0.2070989999999999,-0.180316,-0.660292,-0.096122
1256,0.083169,0.977616,0.19316,-0.14042,-1.239518,0.177171
1257,0.093173,0.980053,0.1754339999999999,-0.0813779999999999,-1.187725,0.194439
1258,0.11187,0.98194,0.152448,-0.065209,-1.145637,0.149065
1259,0.128997,0.983849,0.1239519999999999,-0.304534,-0.653832,-0.008611
1260,0.140307,0.985861,0.091415,-0.254747,-0.4463859999999999,0.091599
1261,0.140071,0.988798,0.05123,0.2181139999999999,0.861758,0.412149
1262,0.140276,0.990094,-0.002196,0.243529,1.271472,-0.046281
1263,0.147966,0.988063,-0.042498,0.043334,1.381841,-0.3886239999999999
1264,0.143581,0.9871,-0.070625,-0.159816,1.097281,-0.5046
1265,0.135293,0.985697,-0.100334,0.098151,0.976079,-0.515892
1266,0.123516,0.98351,-0.131998,0.55016,1.230952,-0.679419
1267,0.1113349999999999,0.98254,-0.148968,0.268868,0.937733,-0.6467470000000001
1268,0.102696,0.984703,-0.1406599999999999,-0.006047,0.493278,-0.583094
1269,0.099895,0.987407,-0.122557,-0.112026,0.249196,-0.5108050000000001
1270,0.104051,0.989627,-0.098909,0.037413,-0.68761,-0.082869
1271,0.105951,0.991578,-0.074285,0.06272,-0.994065,-0.121623
1272,0.106995,0.992794,-0.053674,0.044632,-1.153134,-0.147452
1273,0.107845,0.992837,-0.051119,-0.353267,-1.538903,0.15584
1274,0.11192,0.991769,-0.061943,-0.6997800000000001,-1.472436,0.01841
1275,0.127477,0.989903,-0.061735,-0.659673,-1.479527,0.398313
1276,0.1452099999999999,0.987619,-0.0591019999999999,-0.165245,-0.438089,0.3250929999999999
1277,0.143938,0.986826,-0.073671,-0.23781,-0.012872,-0.087172
1278,0.155068,0.983128,-0.09687,0.0033179999999999,-0.071461,0.323188
1279,0.188547,0.974045,-0.125129,-0.069834,-0.289887,0.515876
1280,0.215243,0.964908,-0.150319,-0.159472,0.360653,-0.051372
1281,0.219425,0.964368,-0.147717,0.053357,-0.377973,-0.5856819999999999
1282,0.223737,0.964973,-0.136902,0.3649929999999999,0.250985,-0.409439
1283,0.2318,0.964367,-0.1274269999999999,0.904522,0.998066,-0.043182
1284,0.230059,0.968163,-0.09851,0.466855,1.254569,-0.019288
1285,0.218873,0.974643,-0.0462029999999999,0.1782369999999999,0.91502,-0.5110939999999999
1286,0.211407,0.977326,0.010425,0.652729,0.913223,-0.6792020000000001
1287,0.203431,0.977296,0.058946,0.905044,0.8599540000000001,-0.590807
1288,0.179994,0.978727,0.098288,0.554412,0.458727,-0.4478359999999999
1289,0.145507,0.980913,0.128848,0.300141,-0.362489,-0.35799
1290,0.1108339999999999,0.980495,0.1622019999999999,0.272528,-0.458522,-0.220521
1291,0.081008,0.978398,0.190099,-0.28868,-0.601857,-0.4364979999999999
1292,0.054714,0.97751,0.203574,-0.236614,-0.572832,-0.223853
1293,0.033828,0.979447,0.198751,-0.015441,-0.69075,-0.050008
1294,0.024843,0.98207,0.186773,-0.06444,-1.081557,0.096949
1295,0.029636,0.984797,0.1710559999999999,0.019421,-1.129328,0.038829
1296,0.041696,0.987263,0.153419,-0.016214,-1.240666,-0.220207
1297,0.0532179999999999,0.989581,0.133647,0.011205,-0.966983,-0.2671159999999999
1298,0.061898,0.992042,0.1094849999999999,0.094519,-0.485908,0.089871
1299,0.063618,0.99547,0.070421,0.20277,0.911726,0.264815
1300,0.070116,0.997309,0.020697,0.073545,1.36019,0.450632
1301,0.0935169999999999,0.995444,-0.017759,0.052082,1.004266,-0.18532
1302,0.097215,0.994397,-0.041175,-0.021196,1.22002,-0.286706
1303,0.093457,0.993653,-0.062373,0.034091,0.91162,-0.5478569999999999
1304,0.088007,0.991602,-0.09462,0.204916,1.18514,-0.560516
1305,0.083082,0.988606,-0.125417,0.262255,1.521694,-0.4448189999999999
1306,0.081394,0.98725,-0.136696,-0.004963,0.7368560000000001,-0.43531
1307,0.084283,0.987985,-0.129445,-0.036508,0.059577,-0.285411
1308,0.089383,0.98977,-0.111078,0.112399,-0.3407219999999999,-0.098624
1309,0.103067,0.990309,-0.09294,0.128195,-1.15486,0.03427
1310,0.1157319999999999,0.989775,-0.0832059999999999,0.032889,-1.553954,0.101257
1311,0.119929,0.989923,-0.075109,-0.148539,-1.88038,-0.003031
1312,0.123608,0.990454,-0.060774,-0.558575,-1.7643650000000002,0.10156
1313,0.146137,0.98841,-0.040747,-0.522617,-1.381797,0.534003
1314,0.167606,0.985547,-0.0239629999999999,-0.4056889999999999,-1.107175,0.444404
1315,0.1705009999999999,0.984943,-0.028044,-0.207534,0.096889,-0.305635
1316,0.175692,0.983575,-0.041032,-0.0020469999999999,-0.220803,-0.1227099999999999
1317,0.190948,0.979932,-0.056962,-0.279952,-0.4643069999999999,0.6284649999999999
1318,0.212836,0.973689,-0.081255,-0.555289,0.069066,0.6815359999999999
1319,0.230451,0.967669,-0.102386,-0.25311,2.138502,-0.813858
1320,0.2310239999999999,0.967729,-0.100508,0.599969,0.522338,-0.190569
1321,0.236903,0.966528,-0.098355,0.8255969999999999,0.392023,0.118299
1322,0.236666,0.968336,-0.079295,0.787275,0.547488,0.0647679999999999
1323,0.2340429999999999,0.971386,-0.040063,0.593777,0.960377,-0.119681
1324,0.218375,0.975526,0.025117,0.502023,1.336043,-0.8356790000000001
1325,0.196826,0.977156,0.079959,1.04057,1.0452290000000002,-0.717136
1326,0.180444,0.976701,0.116021,0.4482029999999999,0.180418,-0.555764
1327,0.155977,0.97782,0.1396609999999999,-0.199037,-0.859992,-0.3135199999999999
1328,0.1156789999999999,0.979181,0.166696,-0.2359949999999999,-0.268442,-0.376978
1329,0.081712,0.976604,0.198824,-0.330034,-0.566768,-0.224428
1330,0.057437,0.975715,0.2112909999999999,-0.032413,-0.782203,-0.311648
1331,0.036216,0.977538,0.207537,0.1039359999999999,-0.891402,-0.00844
1332,0.027156,0.979763,0.198219,0.090596,-1.256694,-0.057365
1333,0.03298,0.981596,0.188003,0.027018,-1.297331,0.009446
1334,0.048066,0.983525,0.1741579999999999,-0.107026,-1.195592,-0.196864
1335,0.06321,0.986017,0.154076,-0.098366,-0.842355,-0.006142
1336,0.078869,0.988155,0.1315059999999999,-0.192608,-0.287502,0.08906
1337,0.091411,0.991479,0.092625,0.1811569999999999,1.14849,0.477749
1338,0.097511,0.994518,0.037343,0.251015,2.029393,0.60554
1339,0.111545,0.993725,-0.006139,-0.341983,1.255863,-0.500895
1340,0.112202,0.993323,-0.0262829999999999,-0.260838,1.4143,-0.185951
1341,0.103492,0.993464,-0.047861,0.41665,0.8954219999999999,-0.576666
1342,0.093199,0.992559,-0.078177,0.909929,1.077906,-0.696222
1343,0.078023,0.991582,-0.1032049999999999,0.595683,1.102321,-0.49883
1344,0.068616,0.992306,-0.102922,0.006579,0.5265989999999999,-0.2766409999999999
1345,0.068229,0.993455,-0.091455,-0.280159,-0.142732,-0.168814
1346,0.076125,0.99401,-0.078233,-0.282683,-0.438651,-0.128371
1347,0.090858,0.993561,-0.067471,-0.148856,-1.218918,-0.113285
1348,0.1047869999999999,0.992484,-0.062973,-0.142904,-1.601478,0.186538
1349,0.110147,0.991607,-0.067482,-0.245813,-1.827408,0.104348
1350,0.124294,0.990101,-0.064974,-0.418667,-1.739781,0.224901
1351,0.152771,0.986849,-0.052545,-0.139176,-0.695192,0.318552
1352,0.163477,0.984952,-0.055804,-0.208125,0.211077,-0.275388
1353,0.168016,0.982212,-0.0836679999999999,-0.231614,0.274913,-0.328472
1354,0.180901,0.977171,-0.1112809999999999,-0.284325,-0.708601,0.4454329999999999
1355,0.197425,0.970556,-0.137902,-0.340263,-0.67301,0.5538109999999999
1356,0.215928,0.960471,-0.175625,-0.0957809999999999,2.988305,0.06007
1357,0.212809,0.959371,-0.185185,0.330846,-0.011099,0.06432
1358,0.224856,0.957538,-0.180376,0.152906,-0.574527,0.137041
1359,0.230869,0.959216,-0.16303,0.2676659999999999,0.172575,0.009648
1360,0.234737,0.964251,-0.122847,-0.070369,1.320631,-0.908708
1361,0.218561,0.973501,-0.067062,0.141257,1.713495,-1.061677
1362,0.19276,0.981196,-0.008142,0.881444,1.34638,-1.131766
1363,0.18398,0.982003,0.04228,1.355067,0.314857,-0.4383069999999999
1364,0.188139,0.978321,0.086349,0.470339,0.09219,-0.3063349999999999
1365,0.175623,0.975814,0.130024,0.040136,0.172867,-0.299931
1366,0.148066,0.97484,0.166508,-0.349971,-0.216478,-0.305607
1367,0.121442,0.973048,0.195933,-0.796888,-0.503016,-0.252192
1368,0.098887,0.974062,0.203432,-0.337397,-0.71097,0.000792
1369,0.080193,0.977597,0.194511,-0.0758139999999999,-1.062542,0.165291
1370,0.078832,0.980272,0.181143,-0.019445,-1.138506,0.2293639999999999
1371,0.094842,0.98099,0.169186,-0.149591,-1.176898,0.075076
1372,0.112168,0.981797,0.153151,-0.39148,-1.140625,-0.2380199999999999
1373,0.123576,0.98376,0.13003,-0.32606,-0.683711,-0.066294
1374,0.1330589999999999,0.985472,0.105378,-0.265658,-0.044172,0.1070089999999999
1375,0.1325309999999999,0.98914,0.063262,0.181678,1.118007,0.476716
1376,0.133626,0.990943,0.011911,0.189387,1.337609,0.270636
1377,0.139748,0.989891,-0.023549,-0.071542,0.906624,-0.336543
1378,0.129907,0.990538,-0.043905,-0.169031,1.077394,-0.4323369999999999
1379,0.11621,0.990945,-0.067033,-0.088805,0.95449,-0.659774
1380,0.098695,0.990182,-0.098842,0.466429,1.428321,-0.5990949999999999
1381,0.080575,0.989217,-0.1221829999999999,0.4047,1.077388,-0.490824
1382,0.066444,0.990098,-0.1235339999999999,0.124626,0.357161,-0.376115
1383,0.05864,0.992323,-0.108752,-0.007279,-0.069273,-0.275205
1384,0.062641,0.994387,-0.085085,-0.025761,-0.458727,-0.21147
1385,0.07184,0.995265,-0.065223,0.057601,-1.134944,-0.202843
1386,0.081551,0.99508,-0.0559659999999999,0.1113349999999999,-1.505929,0.071209
1387,0.088514,0.994825,-0.049563,-0.2281619999999999,-1.776716,0.189303
1388,0.10111,0.994084,-0.039242,-0.462225,-1.67159,0.323955
1389,0.13118,0.990985,-0.026575,-0.363724,-1.121036,0.469492
1390,0.155678,0.987326,-0.0303009999999999,-0.1849589999999999,-0.130988,0.007977
1391,0.17189,0.983987,-0.046793,-0.261139,0.17124,-0.409887
1392,0.188849,0.979641,-0.067868,0.032617,-0.46362,-0.0569029999999999
1393,0.20809,0.974685,-0.081587,-0.174353,-1.202498,0.796888
1394,0.227805,0.969174,-0.093677,-0.4495149999999999,-0.050809,0.895709
1395,0.235179,0.964515,-0.119879,-0.7901560000000001,3.507332,0.306112
1396,0.213331,0.970669,-0.110731,0.435366,-0.147533,-0.198397
1397,0.216175,0.970546,-0.1062,0.095684,-0.280376,-0.175538
1398,0.2119889999999999,0.973509,-0.0855,0.486986,0.586184,-0.134272
1399,0.205101,0.977991,-0.0378649999999999,0.471016,1.490316,-0.85157
1400,0.185638,0.982324,0.023267,0.525666,1.644079,-0.892286
1401,0.165103,0.98334,0.075795,1.343274,1.113996,-0.613667
1402,0.162271,0.98061,0.109692,0.5494140000000001,-0.038868,-0.470502
1403,0.154807,0.978244,0.13796,-0.124442,-0.347232,-0.14919
1404,0.125111,0.978478,0.163975,-0.1525619999999999,-0.089516,-0.079121
1405,0.093257,0.977122,0.1910339999999999,-0.537029,-0.195216,-0.229059
1406,0.069313,0.976135,0.205702,-0.5094069999999999,-0.693314,-0.179121
1407,0.0408139999999999,0.978104,0.203972,-0.128583,-0.918458,-0.23748
1408,0.013286,0.981912,0.188764,0.196064,-1.309258,-0.074323
1409,-0.001105,0.985086,0.171941,0.288992,-1.385202,-0.009801
1410,0.000838,0.987355,0.158395,0.160295,-1.431462,0.089041
1411,0.014193,0.989597,0.143027,0.096769,-1.081409,-0.096091
1412,0.0341459999999999,0.991176,0.127925,0.033786,-0.6799430000000001,0.0312089999999999
1413,0.057356,0.992378,0.108898,0.113146,0.096001,0.13712
1414,0.079358,0.99453,0.067649,0.544513,1.526741,0.332925
1415,0.1066759999999999,0.994172,0.014438,0.205046,2.168761,-0.145496
1416,0.121635,0.992442,-0.015155,-0.492118,1.2278639999999998,-0.207257
1417,0.116709,0.992604,-0.032933,-0.092401,0.550136,-0.455791
1418,0.111195,0.992294,-0.054371,0.192196,0.6141810000000001,-0.545239
1419,0.103417,0.991104,-0.083588,0.557715,1.087906,-0.517609
1420,0.0947539999999999,0.99017,-0.1027329999999999,0.2786889999999999,1.074435,-0.235158
1421,0.09057,0.990898,-0.099441,-0.080362,0.534081,-0.368973
1422,0.084353,0.993029,-0.0821409999999999,-0.21123,0.094694,-0.36804
1423,0.074991,0.995359,-0.060038,-0.038492,-0.392744,-0.293402
1424,0.069203,0.996652,-0.0431589999999999,0.306728,-1.004343,-0.069069
1425,0.069699,0.996841,-0.037653,0.345035,-1.485687,0.154093
1426,0.068749,0.997037,-0.034035,-0.248529,-1.749875,0.056725
1427,0.081903,0.996252,-0.027222,-0.427301,-1.57778,0.3653099999999999
1428,0.11,0.993571,-0.026148,-0.336746,-0.947001,0.550531
1429,0.125252,0.991405,-0.037335,-0.33883,-0.234844,0.121503
1430,0.135123,0.989409,-0.052715,-0.16091,-0.119277,-0.32082
1431,0.161877,0.984169,-0.07194,-0.12791,-0.455818,0.19433
1432,0.188801,0.976526,-0.1035359999999999,-0.40833,-0.220301,0.681768
1433,0.1982809999999999,0.968183,-0.152571,-0.405145,2.962222,-0.750063
1434,0.179647,0.971126,-0.156881,-0.011953,0.17017,-0.119426
1435,0.180067,0.972318,-0.148809,0.8169109999999999,0.709612,-0.421625
1436,0.173499,0.977234,-0.121992,0.790261,0.383194,-0.04262
1437,0.162365,0.983441,-0.080313,0.615513,1.26131,-0.679956
1438,0.150884,0.988344,-0.019393,0.847224,1.147886,-0.83954
1439,0.139176,0.989547,0.037306,0.992034,0.7649239999999999,-0.362409
1440,0.135821,0.987478,0.080011,0.2504099999999999,-0.015707,-0.294855
1441,0.12925,0.984914,0.114892,-0.357796,-0.8411299999999999,-0.126794
1442,0.095846,0.984532,0.146524,-0.3982449999999999,-0.408269,-0.1384369999999999
1443,0.061589,0.983059,0.172516,-0.412602,-0.417827,-0.062882
1444,0.037065,0.982601,0.181883,-0.038957,-0.4739489999999999,-0.131666
1445,0.021332,0.985237,0.169742,0.102814,-1.1363450000000002,0.021893
1446,0.016526,0.988678,0.149003,0.233001,-1.481308,-0.093522
1447,0.023746,0.991434,0.12828,0.026699,-1.50361,-0.03897
1448,0.034037,0.993606,0.10747,0.096044,-1.114456,-0.012941
1449,0.047011,0.995213,0.085457,0.144945,-0.672017,0.086449
1450,0.061169,0.996516,0.0563539999999999,0.161198,-0.17094,0.1766319999999999
1451,0.071077,0.997307,0.017054,0.257857,1.022835,0.5535939999999999
1452,0.087644,0.995399,-0.038277,-0.362089,1.828194,-0.1567309999999999
1453,0.10915,0.990945,-0.07798,-0.143834,1.389106,-0.338356
1454,0.103471,0.989522,-0.10054,0.065887,0.6132,-0.373322
1455,0.096412,0.987393,-0.12541,0.354546,0.372134,-0.467806
1456,0.088522,0.983577,-0.157195,0.729426,1.254353,-0.753709
1457,0.077797,0.980087,-0.182615,0.309501,1.345307,-0.397173
1458,0.0741899999999999,0.980245,-0.183265,-0.3403489999999999,0.668269,-0.547402
1459,0.078487,0.9825,-0.168828,-0.511455,0.302351,-0.465312
1460,0.087605,0.985591,-0.144586,-0.053196,-0.417735,-0.215903
1461,0.09714,0.98758,-0.123357,0.398893,-1.144807,-0.0114849999999999
1462,0.104306,0.988791,-0.1066839999999999,0.3987,-1.50849,0.294611
1463,0.110289,0.98947,-0.093554,0.131578,-2.051024,0.1235069999999999
1464,0.127605,0.989144,-0.072652,-0.479442,-1.539757,0.419912
1465,0.159627,0.985629,-0.054965,-0.542531,-0.99596,0.581592
1466,0.176388,0.982131,-0.065375,-0.389371,0.15027,-0.01806
1467,0.172036,0.981376,-0.085281,-0.383233,0.167077,-0.2196199999999999
1468,0.182492,0.977892,-0.1019409999999999,-0.100644,-0.472292,0.75163
1469,0.207784,0.970071,-0.125528,-0.170049,-0.651208,0.727228
1470,0.2394909999999999,0.959563,-0.14783,-0.458531,-0.131896,0.5988640000000001
1471,0.256393,0.955326,-0.14692,0.174454,0.937145,-0.611671
1472,0.252167,0.958072,-0.135944,0.544113,0.703198,-0.091122
1473,0.2446719999999999,0.961855,-0.1222289999999999,0.718204,0.326002,-0.104059
1474,0.235731,0.967899,-0.087009,0.73224,0.7889520000000001,-0.31001
1475,0.229542,0.972666,-0.034616,0.839794,1.195882,-0.674796
1476,0.221227,0.97493,0.023132,0.8711040000000001,1.151855,-0.906432
1477,0.21418,0.974154,0.071513,0.899925,0.352674,-0.487239
1478,0.212619,0.970639,0.112317,0.157544,-0.17326,-0.033658
1479,0.197146,0.968583,0.1514609999999999,-0.337816,-0.0421459999999999,0.020704
1480,0.157778,0.969682,0.1865,-1.0235610000000002,0.172668,0.141473
1481,0.1238079999999999,0.969316,0.2122619999999999,-0.636321,-0.328783,-0.07626
1482,0.097887,0.971397,0.216246,-0.189333,-0.746132,-0.0740649999999999
1483,0.071634,0.977266,0.19944,-0.071573,-1.247301,0.016212
1484,0.0570409999999999,0.983164,0.173476,0.0636559999999999,-1.473108,-0.009673
1485,0.057846,0.987041,0.149542,0.139938,-1.571773,-0.091269
1486,0.067237,0.989887,0.124752,0.052041,-1.111316,0.010334
1487,0.083935,0.991425,0.099954,0.1346619999999999,-0.522813,0.115165
1488,0.101464,0.992727,0.0644909999999999,0.223151,0.64303,0.131295
1489,0.113076,0.993518,0.009935,0.1270369999999999,1.347425,0.316054
1490,0.125921,0.991107,-0.042602,-0.077994,1.2409940000000002,-0.101227
1491,0.130678,0.988665,-0.073698,-0.330049,1.596357,-0.2847
1492,0.122744,0.98802,-0.093369,0.054945,1.021807,-0.6165010000000001
1493,0.117889,0.98577,-0.119703,0.390748,1.428186,-0.682299
1494,0.112425,0.982035,-0.151452,0.343416,1.248999,-0.315345
1495,0.108803,0.981266,-0.158896,-0.12716,0.639827,-0.26745
1496,0.109787,0.983089,-0.146466,-0.158112,0.029271,-0.189792
1497,0.11392,0.985947,-0.1220589999999999,-0.1031779999999999,-0.420411,-0.2708239999999999
1498,0.111455,0.988789,-0.099207,0.150584,-0.918049,-0.1565609999999999
1499,0.109193,0.990356,-0.085079,0.3416889999999999,-1.288894,0.041912
1500,0.110798,0.990644,-0.079467,0.113568,-1.740857,0.033401
1501,0.115724,0.990416,-0.075166,-0.453233,-1.68727,0.029969
1502,0.141517,0.987378,-0.070885,-0.478965,-1.399166,0.503274
1503,0.172837,0.98262,-0.0674559999999999,-0.254349,-0.601608,0.3897219999999999
1504,0.184848,0.979639,-0.078138,-0.347736,-0.002039,-0.192385
1505,0.1932829999999999,0.977057,-0.089267,0.037323,-0.279577,-0.124067
1506,0.207546,0.972987,-0.100938,-0.1919819999999999,-0.658671,0.617082
1507,0.225302,0.966561,-0.122338,-0.3487,-0.3703849999999999,0.6949850000000001
1508,0.2406739999999999,0.956814,-0.162951,-0.757825,2.754032,-0.186506
1509,0.234021,0.96056,-0.150091,0.284412,0.090282,0.005789
1510,0.235094,0.961973,-0.13895,0.329557,0.559862,-0.137051
1511,0.2350199999999999,0.96465,-0.119097,0.283443,0.6314960000000001,0.053515
1512,0.234044,0.968578,-0.083944,0.204158,0.950489,-0.274897
1513,0.232474,0.972157,-0.028805,0.518914,0.994868,-0.6876260000000001
1514,0.226434,0.973559,0.029561,0.885626,0.959852,-0.5343220000000001
1515,0.225689,0.971445,0.0729399999999999,0.693516,0.41683,-0.47803
1516,0.224677,0.968439,0.107732,0.114266,0.093527,-0.3603409999999999
1517,0.2099059999999999,0.96754,0.140579,-0.055121,-0.228069,-0.1461329999999999
1518,0.182332,0.968008,0.172257,-0.28835,-0.2412619999999999,-0.3255929999999999
1519,0.160156,0.968183,0.192166,-0.279281,-0.478071,-0.298901
1520,0.141821,0.970128,0.196709,-0.185355,-0.7095229999999999,0.074043
1521,0.126907,0.97445,0.185201,-0.120727,-1.006951,0.180598
1522,0.123267,0.97827,0.1665839999999999,-0.11135,-1.156554,0.064221
1523,0.129405,0.981245,0.142729,-0.252223,-1.440107,-0.056044
1524,0.138899,0.983467,0.1160119999999999,-0.297926,-1.097466,-0.170455
1525,0.150199,0.984738,0.087707,-0.241386,-0.625027,0.091889
1526,0.1622559999999999,0.985198,0.054935,-0.008554,0.4154819999999999,0.223019
1527,0.171403,0.985157,0.007001,0.364088,1.241894,0.261951
1528,0.181776,0.98221,-0.0467389999999999,0.36519,1.290647,-0.302794
1529,0.18234,0.97975,-0.082508,-0.114256,1.256609,-0.366649
1530,0.175808,0.978145,-0.1108609999999999,0.031406,0.740132,-0.54519
1531,0.173733,0.974425,-0.1424089999999999,0.363834,1.210053,-0.645875
1532,0.168023,0.969835,-0.176518,0.522284,1.282668,-0.502376
1533,0.159801,0.968998,-0.188349,-0.050335,0.602565,-0.361105
1534,0.150877,0.972391,-0.1779339999999999,-0.221129,0.234838,-0.265731
1535,0.142147,0.97741,-0.156309,-0.181317,-0.181832,-0.1753559999999999
1536,0.132045,0.982758,-0.129301,0.0618639999999999,-0.718903,-0.1190359999999999
1537,0.120364,0.987148,-0.10497,0.270673,-1.064769,-0.074641
1538,0.108797,0.9901,-0.08849,0.195067,-1.4354129999999998,0.161458
1539,0.103236,0.991788,-0.075259,-0.240062,-1.608335,0.003467
1540,0.113728,0.99162,-0.061002,-0.4255569999999999,-1.322964,0.279736
1541,0.139789,0.988823,-0.051503,-0.380863,-0.769142,0.2579849999999999
1542,0.157992,0.98543,-0.0627009999999999,-0.24689,-0.260469,-0.003827
1543,0.166748,0.982697,-0.080419,-0.2433469999999999,-0.275055,0.020604
1544,0.1862,0.977715,-0.096797,-0.313275,-0.424599,0.561778
1545,0.212245,0.969233,-0.124521,-0.374629,-0.0603429999999999,0.559991
1546,0.2292199999999999,0.961124,-0.153838,-0.115039,2.099118,-0.331712
1547,0.220652,0.96429,-0.14637,0.0298209999999999,-0.232952,-0.324348
1548,0.222827,0.963515,-0.148168,0.389813,0.156434,-0.074961
1549,0.228505,0.962739,-0.144521,0.800334,0.386352,-0.015987
1550,0.226594,0.966422,-0.121031,0.434584,0.8972100000000001,-0.278551
1551,0.2202059999999999,0.972661,-0.073513,0.1838769999999999,1.2465469999999998,-0.8247110000000001
1552,0.207502,0.97804,-0.018503,0.78609,0.901278,-0.610251
1553,0.201096,0.979152,0.027985,0.970031,0.312337,-0.5136109999999999
1554,0.2020819999999999,0.977003,0.067725,0.460089,0.1341109999999999,-0.31565
1555,0.188267,0.976661,0.1031859999999999,0.139889,0.075585,-0.219824
1556,0.155623,0.978524,0.135017,-0.069396,0.0476759999999999,-0.226539
1557,0.127472,0.978647,0.161113,-0.332825,-0.598581,-0.213955
1558,0.101991,0.97943,0.173984,-0.426683,-0.821837,-0.087451
1559,0.076159,0.982172,0.171736,-0.325396,-0.8787790000000001,0.00226
1560,0.059425,0.985243,0.160378,-0.033943,-1.1198860000000002,0.088157
1561,0.059476,0.987333,0.146944,0.222216,-1.323423,-0.0021079999999999
1562,0.074005,0.988585,0.131069,-0.050003,-0.940123,0.068058
1563,0.096123,0.989285,0.109693,-0.099297,-0.496426,0.214587
1564,0.1206349999999999,0.9899,0.074188,0.305436,1.514845,0.260239
1565,0.135319,0.990667,0.0151069999999999,0.230205,1.830011,0.223983
1566,0.148997,0.988407,-0.028538,-0.042002,1.278255,-0.203701
1567,0.147899,0.987776,-0.048881,-0.223446,0.748873,-0.400002
1568,0.134856,0.987917,-0.076151,0.284837,0.78964,-0.33721
1569,0.123465,0.985915,-0.112666,0.5513859999999999,1.158173,-0.415242
1570,0.111613,0.983065,-0.145234,0.251271,1.089902,-0.404647
1571,0.101346,0.982979,-0.153135,-0.088163,0.366112,-0.366824
1572,0.095292,0.985068,-0.14328,-0.183397,-0.0251979999999999,-0.301284
1573,0.09307,0.987341,-0.1283119999999999,-0.067084,-0.306967,-0.185836
1574,0.096132,0.989119,-0.111217,0.060072,-0.975295,-0.109746
1575,0.099572,0.990076,-0.0990019999999999,0.099006,-1.31167,0.06557
1576,0.100941,0.9905,-0.0932,0.029796,-1.667136,0.129638
1577,0.102034,0.990568,-0.091276,-0.4518569999999999,-1.524992,-0.064791
1578,0.120169,0.988424,-0.092434,-0.523962,-1.374868,0.6401789999999999
1579,0.147897,0.985195,-0.0865129999999999,-0.186334,-0.398357,0.2099869999999999
1580,0.166089,0.981004,-0.100059,-0.263684,-0.032182,-0.2303239999999999
1581,0.191104,0.974484,-0.11759,-0.020343,-0.6159939999999999,-0.059336
1582,0.2240489999999999,0.966108,-0.128082,-0.1577039999999999,-1.064619,0.579453
1583,0.247192,0.958295,-0.143298,-0.379638,-0.72952,0.6862060000000001
1584,0.255972,0.950999,-0.173347,-0.117346,2.208349,-0.100823
1585,0.258874,0.950553,-0.171474,0.533042,1.751931,0.006831
1586,0.2569349999999999,0.954509,-0.151217,0.007882,-0.4639689999999999,-0.085829
1587,0.254397,0.957814,-0.133578,0.357801,0.497951,0.014606
1588,0.250334,0.963058,-0.099096,0.478167,1.262345,-0.518778
1589,0.239233,0.969863,-0.045801,0.852197,1.3627479999999998,-0.931677
1590,0.221151,0.975214,0.0037619999999999,1.195841,1.1747040000000002,-0.8704620000000001
1591,0.2058719999999999,0.977653,0.042118,1.038268,0.267525,-0.5428810000000001
1592,0.19047,0.97876,0.075568,0.416677,-0.3300639999999999,-0.326865
1593,0.164367,0.980316,0.109198,0.122239,-0.2519679999999999,0.032526
1594,0.132444,0.98063,0.1441619999999999,-0.422163,-0.228326,-0.109021
1595,0.107888,0.979169,0.171891,-0.911584,-0.424405,-0.1327819999999999
1596,0.086266,0.979972,0.17936,-0.498131,-0.6176520000000001,0.0748669999999999
1597,0.066537,0.983193,0.169888,-0.1236049999999999,-1.208688,0.022037
1598,0.060833,0.986391,0.152615,0.18198,-1.26491,0.094883
1599,0.070001,0.988612,0.1330609999999999,0.112403,-1.165781,0.1192119999999999
1600,0.083199,0.990187,0.112102,-0.044075,-0.989348,-0.092708
1601,0.094448,0.991995,0.083577,-0.200283,-0.64289,-0.040654
1602,0.106099,0.992944,0.052594,-0.0899399999999999,0.11199,0.034625
1603,0.1106,0.993846,-0.001425,0.337154,1.312307,0.215276
1604,0.12721,0.989919,-0.061991,0.494402,1.413538,-0.049841
1605,0.138192,0.984718,-0.105832,0.426123,1.078255,-0.2447079999999999
1606,0.129873,0.982807,-0.131119,0.003123,0.7897609999999999,-0.5332939999999999
1607,0.124633,0.98015,-0.154083,0.024049,1.287031,-0.784684
1608,0.11968,0.976887,-0.177025,0.0290019999999999,1.290294,-0.761741
1609,0.1196049999999999,0.976575,-0.178792,-0.418097,0.966052,-0.3874309999999999
1610,0.137249,0.976986,-0.163189,0.02596,-0.0852779999999999,-0.164921
1611,0.15682,0.976092,-0.1504049999999999,0.197657,-0.487093,-0.312578
1612,0.160219,0.97742,-0.137653,0.401457,-0.8529540000000001,-0.04179
1613,0.158523,0.979253,-0.1261,0.2871869999999999,-1.210485,0.158067
1614,0.153049,0.980625,-0.122138,0.109127,-1.364017,0.1958369999999999
1615,0.153566,0.980806,-0.120018,-0.565996,-1.395265,0.1340869999999999
1616,0.174,0.97779,-0.11669,-0.469914,-1.271965,0.315894
1617,0.2000289999999999,0.972976,-0.115201,-0.21541,-0.79602,0.329557
1618,0.213454,0.969196,-0.1227309999999999,-0.170561,-0.313938,0.144429
1619,0.2262719999999999,0.964642,-0.135034,-0.1669,-0.327831,0.192011
1620,0.2476469999999999,0.957747,-0.146144,-0.428403,-0.393187,0.64271
1621,0.267839,0.948759,-0.1675869999999999,-0.60869,1.074541,0.373917
1622,0.271507,0.943936,-0.187716,0.026513,0.409275,-0.216962
1623,0.278202,0.944849,-0.17272,0.256817,-0.102289,-0.139414
1624,0.28736,0.94335,-0.165777,0.627099,-0.1397,-0.077036
1625,0.2934469999999999,0.94441,-0.148141,0.763072,0.5523399999999999,-0.082297
1626,0.294723,0.94902,-0.111642,0.595062,1.712647,-0.7299260000000001
1627,0.290169,0.955039,-0.06055,0.554344,1.094247,-0.691053
1628,0.286773,0.957867,-0.014591,0.843399,0.51337,-0.446438
1629,0.289903,0.956666,0.0265769999999999,0.8364860000000001,0.32344,-0.480129
1630,0.286067,0.955828,0.067202,0.430791,0.172895,-0.1323119999999999
1631,0.261256,0.959505,0.105124,0.140218,0.528852,0.014169
1632,0.229865,0.962986,0.140622,-0.465506,-5e-05,-0.125363
1633,0.1984,0.965814,0.166721,-1.02152,-0.460794,-0.151264
1634,0.164352,0.970544,0.17603,-0.464935,-0.645868,0.153346
1635,0.130603,0.975711,0.175742,-0.124545,-1.156726,-0.0530159999999999
1636,0.111134,0.979685,0.166798,0.122265,-1.2521,-0.039174
1637,0.114217,0.981328,0.154612,0.088435,-1.286336,-0.235391
1638,0.130083,0.981798,0.138224,-0.094682,-1.290346,-0.25738
1639,0.149173,0.982398,0.112238,-0.269992,-0.714499,-0.158152
1640,0.159412,0.984049,0.078683,-0.273685,0.020925,0.064521
1641,0.158899,0.986755,0.031989,0.25022,0.890259,0.4608399999999999
1642,0.158281,0.987128,-0.022037,0.5375810000000001,1.118402,0.353809
1643,0.163234,0.984316,-0.0666279999999999,0.214329,1.230635,-0.396812
1644,0.152335,0.983604,-0.096336,-0.154471,1.180336,-0.521324
1645,0.147108,0.980236,-0.132138,-0.368605,1.042499,-0.5856819999999999
1646,0.146219,0.973345,-0.176598,0.063101,1.551023,-0.5026930000000001
1647,0.137566,0.970264,-0.199075,0.263816,1.13258,-0.365028
1648,0.121525,0.97472,-0.1874019999999999,0.198452,0.12405,-0.298529
1649,0.117299,0.98066,-0.156565,0.2002519999999999,-0.5591520000000001,-0.357412
1650,0.118024,0.984242,-0.131545,0.166125,-1.0716290000000002,-0.170183
1651,0.120363,0.984613,-0.126548,-0.004122,-1.249704,0.136847
1652,0.1242279999999999,0.983843,-0.128789,-0.395117,-1.4438950000000002,0.319387
1653,0.1318599999999999,0.983194,-0.126125,-0.6007020000000001,-1.635843,0.378933
1654,0.153947,0.980532,-0.121748,-0.7021189999999999,-1.485613,0.46707
1655,0.188823,0.975547,-0.11233,-0.593349,-1.270225,0.5490970000000001
1656,0.209155,0.971117,-0.114677,-0.072589,0.0861649999999999,0.214698
1657,0.200617,0.970624,-0.132693,0.305273,-0.008084,-0.182172
1658,0.204745,0.967746,-0.146674,0.097852,-1.149112,0.376761
1659,0.222259,0.962862,-0.153176,-0.016281,-1.335894,0.8144
1660,0.2410719999999999,0.954639,-0.1746839999999999,-0.652464,0.47192,0.54062
1661,0.250221,0.948909,-0.192167,0.013375,2.390263,-0.764925
1662,0.2380489999999999,0.956361,-0.169327,0.45911,0.269652,-0.4642489999999999
1663,0.243877,0.957455,-0.154172,0.61739,0.510318,-0.132601
1664,0.253607,0.959126,-0.1254,0.829111,0.923626,-0.376614
1665,0.25738,0.963375,-0.075014,0.7550399999999999,1.475941,-0.720655
1666,0.2443219999999999,0.969498,-0.018471,0.99695,1.122208,-0.602608
1667,0.227932,0.973237,0.028554,1.0973700000000002,0.5313260000000001,-0.41718
1668,0.217856,0.973741,0.06575,0.268823,0.182829,-0.291199
1669,0.200889,0.974883,0.095927,-0.529274,-0.427382,-0.038691
1670,0.167071,0.978134,0.123669,-0.968829,-0.256531,-0.134045
1671,0.135745,0.980273,0.143489,-0.291034,-0.500629,-0.037104
1672,0.109694,0.982718,0.148942,0.137972,-1.043677,0.029907
1673,0.093418,0.985629,0.140572,0.231427,-1.166567,0.256004
1674,0.09452,0.987195,0.128315,-0.093955,-1.193768,0.105968
1675,0.105445,0.987895,0.113566,-0.371405,-1.274348,-0.0286209999999999
1676,0.11706,0.989192,0.088031,-0.382273,-0.949138,-0.080677
1677,0.127904,0.989997,0.059172,-0.28536,-0.771781,0.069948
1678,0.136784,0.99018,0.028093,0.016903,0.4794239999999999,0.311735
1679,0.132959,0.990865,-0.0216,0.278128,1.099299,0.616251
1680,0.140052,0.986967,-0.0790059999999999,0.111016,1.443102,-0.146565
1681,0.143726,0.982717,-0.1165079999999999,-0.1446869999999999,0.98846,-0.294137
1682,0.128621,0.981994,-0.138229,0.249675,0.8513040000000001,-0.400376
1683,0.1168309999999999,0.980129,-0.160195,0.620153,0.8569379999999999,-0.627326
1684,0.105103,0.976842,-0.186277,0.496307,1.288372,-0.493395
1685,0.095199,0.97604,-0.195572,-0.112746,0.726124,-0.329513
1686,0.092502,0.977896,-0.187423,-0.371142,0.4349,-0.395967
1687,0.095851,0.980449,-0.171744,-0.342052,0.141118,-0.32731
1688,0.100382,0.982858,-0.15452,0.134832,-0.5653630000000001,0.1192569999999999
1689,0.1027849999999999,0.984783,-0.139998,0.4731729999999999,-1.357403,0.149383
1690,0.101773,0.986867,-0.12529,0.428409,-1.6779990000000002,0.10196
1691,0.10446,0.988531,-0.108884,-0.01515,-1.827383,-0.02315
1692,0.122579,0.988663,-0.086489,-0.4824279999999999,-1.431992,0.384203
1693,0.15634,0.985173,-0.070365,-0.538954,-0.905034,0.44358
1694,0.173127,0.981677,-0.079357,-0.4255069999999999,0.170682,0.04417
1695,0.169019,0.981023,-0.094805,-0.38458,0.183528,-0.145688
1696,0.179057,0.977819,-0.108495,-0.108439,-0.479238,-0.063731
1697,0.1991369999999999,0.97226,-0.122548,-0.279902,-0.723969,0.545628
1698,0.223663,0.963377,-0.147799,-0.59642,0.728854,0.490374
1699,0.221742,0.962245,-0.157735,0.465193,1.72997,-0.095226
1700,0.211146,0.96501,-0.155357,0.253087,-0.178008,-0.144646
1701,0.217119,0.96533,-0.14478,0.627577,-0.001234,0.082829
1702,0.228147,0.966055,-0.1210339999999999,0.653872,0.988779,-0.144439
1703,0.2280469999999999,0.971213,-0.068562,0.498408,1.395151,-0.254757
1704,0.206152,0.978495,-0.002531,0.372065,1.1478780000000002,-0.704928
1705,0.190494,0.980552,0.04675,0.582318,0.604409,-0.6076020000000001
1706,0.183052,0.979829,0.0798799999999999,0.066856,-0.10167,-0.412964
1707,0.158044,0.981943,0.103738,-0.153757,-0.750529,-0.293557
1708,0.118334,0.98473,0.127496,-0.17232,-0.286579,-0.097467
1709,0.087849,0.984759,0.149943,-0.071232,-0.685397,-0.149866
1710,0.064565,0.986133,0.152719,0.094065,-0.886875,-0.045709
1711,0.044821,0.988643,0.14327,0.06608,-1.05891,0.164943
1712,0.043584,0.990454,0.1305849999999999,0.156489,-1.165991,0.212417
1713,0.0589509999999999,0.991691,0.11413,0.057199,-1.240852,0.1686
1714,0.07729,0.992777,0.0915049999999999,-0.226841,-1.0443360000000002,-0.139799
1715,0.090125,0.993782,0.0650289999999999,-0.2490909999999999,-0.512764,0.277622
1716,0.099466,0.994388,0.035422,-0.165384,0.853619,0.199076
1717,0.09445,0.995353,-0.017605,-0.2499829999999999,1.554696,0.3891719999999999
1718,0.095019,0.993247,-0.066271,0.474545,0.862649,-0.165312
1719,0.098207,0.990667,-0.094323,0.196379,1.522044,-0.180503
1720,0.092707,0.98945,-0.11116,0.203451,1.176444,-0.462692
1721,0.087658,0.986627,-0.137286,0.5185890000000001,1.335731,-0.57121
1722,0.076045,0.983804,-0.16221,0.292241,1.015693,-0.377676
1723,0.06725,0.983249,-0.1693059999999999,-0.031605,0.6355109999999999,-0.264517
1724,0.067061,0.985303,-0.156987,-0.2391489999999999,0.068591,-0.25349
1725,0.074569,0.987781,-0.136717,-0.1770769999999999,-0.28522,-0.179094
1726,0.0900509999999999,0.989066,-0.116628,0.019538,-0.915015,-0.032649
1727,0.1096869999999999,0.988631,-0.1026599999999999,-0.086296,-1.42871,0.076659
1728,0.1231109999999999,0.987875,-0.094378,-0.0904259999999999,-1.767523,0.093844
1729,0.125938,0.988053,-0.088614,-0.349434,-1.808365,0.041663
1730,0.144031,0.98634,-0.079687,-0.394123,-1.442852,0.407812
1731,0.16847,0.983149,-0.070686,-0.27992,-0.685053,0.402656
1732,0.1746859999999999,0.981251,-0.081201,-0.190814,0.221417,-0.253501
1733,0.177853,0.97798,-0.109022,0.0391269999999999,-0.063383,0.060163
1734,0.1897589999999999,0.972487,-0.134994,-0.1115119999999999,-0.856292,0.4536729999999999
1735,0.211054,0.964762,-0.157021,-0.419352,-0.630533,0.649117
1736,0.236758,0.954627,-0.180551,-0.844942,2.992196,-0.264884
1737,0.231213,0.95881,-0.164888,0.7054630000000001,0.430594,-0.028975
1738,0.24245,0.9568,-0.160361,0.44,-0.184675,-0.121804
1739,0.251969,0.957694,-0.1389109999999999,0.690628,0.736749,-0.114034
1740,0.256729,0.961494,-0.09788,0.677612,1.706551,-0.607015
1741,0.241278,0.969425,-0.044255,0.71937,1.193722,-0.58076
1742,0.230826,0.972967,0.003277,1.048989,0.82142,-0.36694
1743,0.2276659999999999,0.972693,0.044623,0.587367,0.433206,-0.271812
1744,0.212117,0.974216,0.076573,-0.12592,-0.221347,-0.184025
1745,0.173286,0.97889,0.1081569999999999,-0.315788,-0.406045,-0.353702
1746,0.130652,0.981923,0.136775,-0.49671,-0.576635,-0.288875
1747,0.096009,0.984448,0.146949,-0.081299,-0.769742,-0.025169
1748,0.073088,0.98773,0.1378309999999999,0.0630049999999999,-0.930082,-0.018233
1749,0.066301,0.990018,0.124178,0.1910079999999999,-1.28085,0.036375
1750,0.076665,0.990529,0.113694,-0.045186,-1.25298,0.020599
1751,0.091109,0.99062,0.1016059999999999,-0.144758,-1.113392,-0.064283
1752,0.103503,0.990992,0.084702,-0.2070489999999999,-0.778101,-0.136613
1753,0.116617,0.991045,0.064687,-0.197443,-0.313112,-0.031912
1754,0.125629,0.991429,0.035236,0.01994,0.5629390000000001,0.368161
1755,0.128665,0.99162,-0.009525,0.281049,1.023013,0.615086
1756,0.146746,0.987181,-0.062438,-0.128771,1.860552,0.28903
1757,0.168518,0.981667,-0.088838,0.001801,1.303139,-0.172102
1758,0.159161,0.980987,-0.110876,0.05112,1.112183,-0.398767
1759,0.145917,0.979564,-0.138295,0.502063,1.081899,-0.5658979999999999
1760,0.131455,0.976888,-0.16844,0.514404,1.497645,-0.377886
1761,0.118942,0.976202,-0.181231,0.202408,1.270151,-0.32948
1762,0.12084,0.977333,-0.173726,-0.363654,0.269509,-0.314173
1763,0.128881,0.978878,-0.158583,-0.376012,-0.04298,-0.209382
1764,0.134,0.980828,-0.1413599999999999,-0.2340829999999999,-0.142311,-0.152082
1765,0.1403569999999999,0.982296,-0.123914,0.062249,-1.233562,0.0444769999999999
1766,0.146517,0.982987,-0.110581,0.232786,-1.735429,0.158738
1767,0.145568,0.984169,-0.100898,-0.107345,-1.916298,0.082099
1768,0.150482,0.984548,-0.089318,-0.484146,-1.518453,0.348886
1769,0.176924,0.981585,-0.071732,-0.539763,-1.40697,0.542085
1770,0.197803,0.977891,-0.067521,-0.390873,-0.531175,0.317598
1771,0.204704,0.975555,-0.079664,-0.334648,0.073487,-0.217547
1772,0.226598,0.969003,-0.098209,-0.187169,-0.4145899999999999,0.270755
1773,0.249994,0.960177,-0.1245849999999999,-0.429041,-0.384326,0.255307
1774,0.267482,0.950927,-0.155409,-0.688472,0.696702,0.060835
1775,0.274809,0.948352,-0.158335,0.736467,1.265866,-0.064825
1776,0.281343,0.948153,-0.147689,0.552932,0.66319,0.065063
1777,0.28126,0.950357,-0.132946,0.383291,0.66001,0.285351
1778,0.269785,0.956705,-0.109041,0.166769,0.878576,-0.149703
1779,0.253843,0.965129,-0.063607,0.361986,1.14153,-0.597815
1780,0.23285,0.972451,-0.00863,0.971755,1.022193,-0.663932
1781,0.218581,0.975214,0.0336529999999999,0.700013,0.5092979999999999,-0.45118
1782,0.2078179999999999,0.975881,0.066465,0.7107760000000001,0.508631,-0.483992
1783,0.182307,0.979216,0.088599,0.210226,-0.176176,-0.21575
