,gravity.x,gravity.y,gravity.z,userAcceleration.x,userAcceleration.y,userAcceleration.z
0,0.2184699999999999,0.874376,-0.433287,-0.587671,0.074675,0.742537
1,0.219757,0.881131,-0.418707,-0.619553,2.411426,0.482626
2,0.189445,0.90326,-0.385009,0.445137,3.532516,0.409042
3,0.194166,0.921399,-0.336636,0.8310870000000001,-0.278394,-0.010593
4,0.210508,0.942605,-0.2591969999999999,0.5305810000000001,-1.213555,-0.151341
5,0.208419,0.963246,-0.169466,0.299989,-0.857716,-0.070493
6,0.170685,0.98194,-0.081611,0.845459,0.087976,-0.398431
7,0.101071,0.994879,0.000795,1.192676,1.51655,-0.37961
8,0.0489089999999999,0.995387,0.082533,0.70219,1.834248,0.010927
9,0.000775,0.987293,0.158907,0.455021,0.18269,-0.8603069999999999
10,-0.038112,0.976623,0.211556,0.556331,0.189744,-0.815575
11,-0.061429,0.968177,0.242611,-0.183582,0.443551,-0.68388
12,-0.076265,0.970498,0.228728,0.326203,-0.178293,-0.151778
13,-0.075984,0.977696,0.1958,0.469233,-0.973316,-0.155288
14,-0.05214,0.987592,0.148134,0.7821199999999999,-1.071851,-0.5244770000000001
15,-0.02081,0.996157,0.085072,0.617261,-0.857608,-0.400608
16,0.0079069999999999,0.999855,0.0150889999999999,0.390607,-0.974419,0.0403769999999999
17,0.02871,0.997033,-0.071427,0.190071,-0.790825,0.254151
18,0.04553,0.982577,-0.180191,-0.076276,-0.143786,0.455032
19,0.054485,0.943456,-0.326991,0.117405,1.044704,0.002238
20,0.050316,0.8800600000000001,-0.4721899999999999,0.6426930000000001,3.773429,0.2164829999999999
21,0.062026,0.8233010000000001,-0.5642050000000001,-0.79692,1.288805,0.79205
22,0.076885,0.771116,-0.6320359999999999,-0.7574270000000001,0.336886,-0.2135
23,0.070726,0.7332960000000001,-0.676221,-0.120698,0.820476,-0.290301
24,0.051958,0.718145,-0.693951,0.008405,1.118571,-0.1748839999999999
25,0.025602,0.741528,-0.670433,-0.046949,0.551349,-0.129845
26,0.018881,0.781849,-0.623182,-0.325933,-1.59354,-0.151354
27,0.037826,0.828189,-0.559171,-0.4529109999999999,-1.529208,-0.334521
28,0.043857,0.856417,-0.514419,-0.403263,-1.107683,0.183364
29,0.031852,0.8617809999999999,-0.506279,-0.360297,-0.8752549999999999,0.559136
30,0.03685,0.860923,-0.5073989999999999,-0.362976,-0.91999,0.7245010000000001
31,0.063743,0.864418,-0.498717,-0.166373,-0.981636,0.794204
32,0.102976,0.870138,-0.48193,-0.316843,-0.968588,0.720974
33,0.144155,0.8787459999999999,-0.454999,-0.4382529999999999,-0.789818,0.507047
34,0.188253,0.892619,-0.409625,-0.717734,-0.669367,1.350604
35,0.2147079999999999,0.90028,-0.378677,-0.863923,-0.3770409999999999,0.771988
36,0.182331,0.901421,-0.392677,-1.568455,5.308052,0.283103
37,0.173625,0.916769,-0.359707,1.032277,1.529032,0.399212
38,0.215144,0.933155,-0.287983,1.315298,-0.8228340000000001,-0.275524
39,0.2185099999999999,0.956711,-0.192241,1.295757,-1.311265,-0.082661
40,0.174588,0.978786,-0.107228,0.945438,-0.502467,-0.198925
41,0.101871,0.994497,-0.024444,1.335873,1.013605,-0.270921
42,0.038282,0.997551,0.0585409999999999,0.749957,2.1152580000000003,0.110832
43,-0.006825,0.988525,0.150901,-0.124858,0.569641,-0.780189
44,-0.055573,0.97546,0.213048,0.128816,0.13187,-0.889608
45,-0.085165,0.966164,0.2434619999999999,-0.268503,0.197242,-0.425988
46,-0.1039819999999999,0.967947,0.2286159999999999,0.0966419999999999,-0.1710269999999999,0.052359
47,-0.105447,0.97468,0.197178,0.596689,-1.057444,-0.202168
48,-0.082362,0.985616,0.147576,0.560329,-1.053365,-0.7945180000000001
49,-0.043577,0.995476,0.0844289999999999,0.422087,-0.770501,-0.249392
50,-0.00599,0.999945,0.008596,0.489877,-0.656866,0.243007
51,0.027936,0.995971,-0.085217,-0.029722,-0.164672,-0.054935
52,0.06346,0.975559,-0.2103739999999999,0.3987739999999999,0.8401,-0.193831
53,0.073153,0.926489,-0.369142,1.151823,3.510065,0.18242
54,0.046631,0.868654,-0.4932189999999999,0.236007,1.752638,1.096674
55,0.03703,0.813319,-0.580639,-0.802563,0.661733,-0.090061
56,0.036876,0.765768,-0.642059,-0.471355,0.94343,-0.480591
57,0.034879,0.734425,-0.677793,-0.473996,1.104931,-0.058214
58,0.033791,0.7321979999999999,-0.680253,-0.181359,0.762675,-0.0035689999999999
59,0.031116,0.758538,-0.650885,-0.017475,-0.635446,0.177176
60,0.046154,0.79933,-0.599117,-0.334362,-1.729018,-0.03333
61,0.060913,0.835133,-0.546665,-0.268676,-1.653752,0.098453
62,0.04808,0.852524,-0.520473,-0.632278,-1.462234,0.519512
63,0.040105,0.8629,-0.503781,-0.365209,-1.405411,0.8933840000000001
64,0.065841,0.8741399999999999,-0.481191,-0.034957,-0.999201,0.908162
65,0.115752,0.880708,-0.4592989999999999,-0.151106,-0.802415,0.524134
66,0.167962,0.880726,-0.442843,-0.1241849999999999,-0.5522050000000001,0.208498
67,0.213982,0.8788469999999999,-0.426427,-0.186363,-0.494173,0.540532
68,0.26326,0.881268,-0.392506,-0.670028,-0.511181,1.258259
69,0.26684,0.864791,-0.425361,-0.726358,0.937775,-1.222115
70,0.234376,0.891367,-0.3879849999999999,-1.078019,3.954061,0.064422
71,0.2621719999999999,0.915303,-0.305755,1.292668,0.449031,0.45291
72,0.260437,0.941986,-0.211742,1.440277,-0.463852,-0.131077
73,0.220112,0.966778,-0.129963,0.6483869999999999,-0.292859,0.4510689999999999
74,0.157938,0.986548,-0.042166,0.8074859999999999,1.106744,-0.177942
75,0.099091,0.994018,0.045922,0.444214,2.1854560000000003,-0.353936
76,0.060756,0.988357,0.139498,-0.348078,0.477509,-0.752047
77,0.017133,0.980631,0.195113,-0.042509,0.291113,-1.117736
78,-0.02158,0.973487,0.227723,-0.30479,0.122781,-0.628174
79,-0.052747,0.972441,0.227104,0.286451,-0.4112229999999999,0.101417
80,-0.065233,0.975291,0.211075,0.5478689999999999,-1.074595,0.03598
81,-0.046152,0.98058,0.190611,0.786723,-1.557454,-0.626463
82,0.003152,0.989699,0.143129,0.598945,-0.616927,-0.879473
83,0.052425,0.996087,0.071146,0.157063,-0.5140319999999999,-0.344095
84,0.087347,0.99606,-0.0153479999999999,0.073389,-0.293988,0.377851
85,0.1084589999999999,0.986181,-0.1252319999999999,-0.1090849999999999,0.405313,-0.038663
86,0.1034279999999999,0.953852,-0.281903,1.135525,4.528569999999999,0.286664
87,0.076308,0.903509,-0.421721,1.060899,4.085337,1.074462
88,0.082619,0.8459639999999999,-0.5268010000000001,-1.166924,1.119566,0.051947
89,0.107759,0.7933279999999999,-0.5991810000000001,-0.994905,1.164344,-0.5321060000000001
90,0.14365,0.748842,-0.646994,-0.340702,1.197478,-0.127771
91,0.15591,0.723333,-0.672668,-0.038997,1.111506,-0.018189
92,0.1572599999999999,0.7263189999999999,-0.669127,0.141172,0.330276,0.151945
93,0.157392,0.7485689999999999,-0.6441060000000001,-0.018598,-1.4426,0.126131
94,0.16284,0.780954,-0.6029869999999999,-0.165892,-1.887735,0.416662
95,0.148894,0.806175,-0.5726359999999999,-0.340803,-1.447395,0.496479
96,0.11432,0.8231290000000001,-0.556228,-0.423463,-1.627099,0.795303
97,0.1032619999999999,0.841053,-0.5310060000000001,-0.371085,-1.764621,0.963959
98,0.128956,0.864403,-0.485981,-0.495304,-1.037896,0.843403
99,0.168454,0.887122,-0.429695,-0.603772,-0.843009,0.469841
100,0.205717,0.897732,-0.38956,-0.52194,-0.5566979999999999,0.2056
101,0.238271,0.889385,-0.390156,-0.073156,-0.2211409999999999,0.680806
102,0.286211,0.8842409999999999,-0.369055,-0.121095,-0.2159969999999999,0.659704
103,0.301794,0.88036,-0.365905,-0.992696,1.015483,-1.33011
104,0.250665,0.904556,-0.344885,-0.48623,3.971085,0.400366
105,0.285678,0.917245,-0.27758,0.839627,0.729164,0.576469
106,0.304363,0.933211,-0.191,1.079014,-0.658583,-0.17312
107,0.265959,0.957011,-0.115741,0.506472,-0.519648,0.058276
108,0.215354,0.97563,-0.042066,0.401421,0.164614,0.314862
109,0.154594,0.987331,0.035758,0.198738,0.83344,-0.351554
110,0.1046619999999999,0.987839,0.114976,0.01135,2.081298,-0.112321
111,0.05442,0.981383,0.184189,0.023476,0.457505,-0.7307279999999999
112,0.015386,0.975309,0.220307,0.149302,0.326998,-1.442902
113,-0.0142949999999999,0.974865,0.2223349999999999,0.056272,0.01128,-0.4636229999999999
114,-0.032299,0.980111,0.195802,0.535717,-0.571313,0.145949
115,-0.027752,0.985488,0.16746,0.793057,-1.250259,-0.191661
116,0.002,0.991859,0.127324,0.789748,-0.902061,-0.598774
117,0.039957,0.997063,0.065337,0.597815,-0.7094189999999999,-0.454513
118,0.072266,0.997277,-0.014695,0.387054,-0.724816,-0.180007
119,0.093314,0.989447,-0.11085,-0.150519,-0.280386,0.26942
120,0.104374,0.966375,-0.2349989999999999,0.0298879999999999,0.435465,-0.022386
121,0.088693,0.914003,-0.395893,0.876258,4.422682,0.085102
122,0.066896,0.853851,-0.516201,-0.688463,1.692536,1.052868
123,0.076988,0.801635,-0.5928359999999999,-1.18824,0.543534,-0.479506
124,0.0913799999999999,0.759023,-0.64462,-0.429896,0.8415790000000001,-0.5128510000000001
125,0.104048,0.726255,-0.679506,-0.357878,1.186663,-0.204024
126,0.1130109999999999,0.722263,-0.6823229999999999,0.276133,0.6577109999999999,-0.0844159999999999
127,0.109554,0.747681,-0.6549590000000001,0.063358,-1.243378,0.129248
128,0.121922,0.782927,-0.61005,0.070828,-1.949675,-0.159573
129,0.116847,0.817501,-0.563949,-0.140483,-1.701153,-0.1648109999999999
130,0.089209,0.8401059999999999,-0.535037,-0.353705,-1.326937,0.569278
131,0.072609,0.8549979999999999,-0.513523,-0.361458,-1.248522,0.768131
132,0.080771,0.868403,-0.489237,-0.107275,-0.862605,0.678095
133,0.1061039999999999,0.875259,-0.4718729999999999,-0.187753,-0.597808,0.393016
134,0.141368,0.872002,-0.4686439999999999,-0.269267,-0.47535,0.257218
135,0.190228,0.862923,-0.468163,-0.320691,-0.421959,1.155785
136,0.2407119999999999,0.8599040000000001,-0.450137,-0.8552290000000001,-0.402018,0.406039
137,0.253711,0.853209,-0.455704,-1.17557,1.850206,0.669281
138,0.231039,0.870389,-0.434792,-0.362157,2.198123,0.247948
139,0.236587,0.900126,-0.365786,1.210968,0.330999,-0.09625
140,0.227635,0.935973,-0.268583,1.386943,-0.602416,0.021269
141,0.194307,0.964463,-0.179042,1.394484,-0.636231,0.1706339999999999
142,0.135316,0.986606,-0.091096,1.177612,0.469693,0.144533
143,0.086099,0.996239,0.0097069999999999,1.2143469999999998,1.435447,-0.24335
144,0.057188,0.991818,0.1141369999999999,0.5318470000000001,1.324512,0.128829
145,0.019851,0.98002,0.197906,-0.470657,0.14437,-0.975524
146,-0.012111,0.970174,0.242105,-0.7240949999999999,0.501948,-0.524667
147,-0.03971,0.963554,0.264549,-0.530084,0.394997,-0.405479
148,-0.063605,0.966313,0.249385,-0.175027,0.064448,-0.196955
149,-0.068825,0.972595,0.222084,0.489235,-1.200913,-0.134422
150,-0.042831,0.982795,0.179667,0.525085,-1.456412,-0.471751
151,0.000155,0.992962,0.1184369999999999,0.626402,-0.706417,-0.413191
152,0.035841,0.998393,0.043889,0.352572,-0.597286,-0.133046
153,0.064449,0.996706,-0.049223,0.283375,-0.573458,0.242689
154,0.0872169999999999,0.979906,-0.1793809999999999,0.14908,0.363417,0.182647
155,0.079571,0.932528,-0.352221,1.037922,4.519529,0.8709290000000001
156,0.066611,0.8806370000000001,-0.469085,-0.040457,2.029458,1.204375
157,0.076024,0.8337760000000001,-0.5468430000000001,-1.4256030000000002,0.349512,-0.5563670000000001
158,0.096359,0.794045,-0.600173,-0.826889,0.844886,-0.693101
159,0.125585,0.7688729999999999,-0.626947,-0.543447,1.23775,-0.091619
160,0.1513779999999999,0.764599,-0.626476,-0.015743,0.897342,0.265301
161,0.165371,0.7761020000000001,-0.608538,0.232456,-1.343881,0.260439
162,0.1703,0.7962090000000001,-0.580559,0.030216,-1.966802,0.17669
163,0.159676,0.817616,-0.55318,-0.091515,-2.083622,0.240955
164,0.136054,0.83821,-0.528104,-0.620734,-1.5628799999999998,0.795331
165,0.125271,0.8588129999999999,-0.4967359999999999,-0.496792,-1.553165,0.8679819999999999
166,0.144748,0.879826,-0.452718,-0.488803,-1.220143,0.766454
167,0.179181,0.8950229999999999,-0.408447,-0.329267,-0.787906,0.2328329999999999
168,0.212853,0.897057,-0.387275,-0.078988,-0.565606,0.118018
169,0.255194,0.890375,-0.376973,-0.2118429999999999,-0.397043,1.350835
170,0.293995,0.889128,-0.3507409999999999,-1.013142,-0.045103,-0.935728
171,0.262148,0.888573,-0.376452,-0.73369,2.597526,-1.124784
172,0.244959,0.913708,-0.324241,1.403814,1.159214,0.798485
173,0.281233,0.930351,-0.235276,1.1579,-0.953987,-0.145813
174,0.264952,0.954951,-0.133673,1.0468620000000002,-1.242244,-0.322596
175,0.2162659999999999,0.975246,-0.046086,0.69386,0.046955,0.251454
176,0.155405,0.986489,0.051849,0.573477,1.7563240000000002,-0.09558
177,0.110113,0.983295,0.1449359999999999,0.266581,2.1280490000000003,-0.166619
178,0.067011,0.973433,0.218948,-0.584803,0.545076,-0.883041
179,0.0148669999999999,0.967326,0.2531,-0.500935,0.185369,-1.358096
180,-0.026649,0.963765,0.265418,-0.007622,-0.024663,-0.316795
181,-0.055116,0.967807,0.245583,0.469071,-0.588535,-0.060738
182,-0.054833,0.972272,0.227332,0.8980950000000001,-1.553205,-0.146552
183,-0.0124459999999999,0.98026,0.197322,1.177226,-1.213399,-0.938838
184,0.04031,0.990789,0.129278,0.600437,-0.39031,-0.610494
185,0.083225,0.99569,0.040929,0.22459,-0.400261,0.2193699999999999
186,0.1131539999999999,0.991353,-0.066454,-0.0595799999999999,0.295711,0.010317
187,0.118617,0.967079,-0.22514,0.832249,2.794762,0.09988
188,0.091508,0.919377,-0.382585,0.5424180000000001,3.254527,1.39612
189,0.084184,0.8645290000000001,-0.495482,-1.330308,1.021427,0.444335
190,0.100366,0.8101520000000001,-0.5775640000000001,-1.248926,1.18411,-0.451748
191,0.138784,0.758214,-0.637063,-0.434408,0.962092,-0.043952
192,0.163188,0.709677,-0.6853670000000001,-0.109523,1.159448,-0.130948
193,0.160517,0.6938479999999999,-0.7020029999999999,0.20786,0.946777,0.141563
194,0.150173,0.706725,-0.691367,0.124241,-0.975585,0.137793
195,0.149272,0.740916,-0.654798,-0.13499,-2.052837,0.305464
196,0.143231,0.779766,-0.609467,-0.2371639999999999,-1.545253,0.391129
197,0.105319,0.809156,-0.578078,-0.524142,-1.481855,0.6355729999999999
198,0.0763399999999999,0.827627,-0.556063,-0.458649,-1.525121,0.936175
199,0.091049,0.846144,-0.52512,-0.42366,-1.459898,0.96854
200,0.129031,0.865541,-0.483932,-0.559573,-1.040406,0.934707
201,0.171144,0.8818459999999999,-0.439382,-0.6772779999999999,-0.8798469999999999,0.406698
202,0.20867,0.883552,-0.419277,-0.1336119999999999,-0.392158,0.385998
203,0.25442,0.8660479999999999,-0.430384,-0.336848,0.164973,0.898508
204,0.2902679999999999,0.8474719999999999,-0.44445,-0.656327,0.836076,-0.592965
205,0.271011,0.869138,-0.413705,-0.635147,5.282244,-0.04943
206,0.270982,0.891697,-0.362555,1.204223,0.278866,0.637854
207,0.260386,0.921509,-0.2881309999999999,0.987661,-0.852173,-0.199647
208,0.226313,0.953038,-0.201247,0.4456989999999999,-0.522878,0.555175
209,0.176063,0.978005,-0.11184,0.553261,0.151969,0.301827
210,0.114519,0.993289,-0.016197,0.918791,1.00488,-0.142571
211,0.079246,0.993265,0.084522,-0.011909,1.141119,-0.190189
212,0.041996,0.985289,0.165658,-0.432072,0.447893,-0.924767
213,0.002042,0.978163,0.207827,-0.5353060000000001,0.177705,-0.820666
214,-0.031656,0.972172,0.232119,-0.1368619999999999,0.2298849999999999,-0.3345059999999999
215,-0.062729,0.974056,0.217439,0.400757,-0.468868,-0.024324
216,-0.078059,0.978476,0.19103,0.810542,-1.378103,-0.2003069999999999
217,-0.063939,0.986485,0.15086,0.8223,-1.23026,-0.729306
218,-0.024318,0.995652,0.089916,0.529094,-0.634401,-0.397762
219,0.0109489999999999,0.999829,0.014916,0.360694,-0.717404,-0.27401
220,0.031675,0.996893,-0.072112,0.181109,-0.8013979999999999,0.323562
221,0.044341,0.983407,-0.1759079999999999,-0.183273,-0.131799,0.285879
222,0.042341,0.94527,-0.32353,0.702944,1.732403,-0.5274369999999999
223,0.029682,0.8843620000000001,-0.4658569999999999,0.813427,5.164161,1.020803
224,0.0365,0.8299860000000001,-0.556588,-1.006532,0.102234,0.026986
225,0.055174,0.7848569999999999,-0.617216,-1.339567,0.620996,-0.748629
226,0.077557,0.750242,-0.6565989999999999,-0.492428,1.325106,-0.283983
227,0.1013299999999999,0.738819,-0.666242,-0.003124,1.288799,-0.030673
228,0.110856,0.754865,-0.6464439999999999,0.242248,0.004046,0.47846
229,0.1208829999999999,0.776174,-0.618822,-0.007999,-1.895132,0.108949
230,0.1288349999999999,0.798147,-0.588526,-0.148549,-1.684698,0.263758
231,0.111097,0.817578,-0.564999,-0.5207649999999999,-1.5193450000000002,0.667569
232,0.079516,0.8370209999999999,-0.541362,-0.338732,-1.590546,0.913691
233,0.077793,0.8573540000000001,-0.508815,-0.1835369999999999,-1.295296,1.057933
234,0.1224809999999999,0.8743719999999999,-0.469545,-0.324584,-1.058362,0.974031
235,0.18311,0.88579,-0.426436,-0.398487,-0.576387,0.124449
236,0.239414,0.8835129999999999,-0.402598,-0.079319,-0.489684,0.513789
237,0.296641,0.882106,-0.3659139999999999,-0.346049,-0.6375689999999999,1.324349
238,0.326453,0.880674,-0.343281,-1.21282,-0.468366,0.088627
239,0.247811,0.882654,-0.399389,-1.5884790000000002,6.384069,-0.931529
240,0.256003,0.915029,-0.311743,1.261514,1.436594,0.694433
241,0.2972849999999999,0.93018,-0.2153739999999999,1.507738,-0.4560439999999999,0.17271
242,0.275979,0.95109,-0.138793,1.161917,-0.689081,-0.358598
243,0.214536,0.973624,-0.077655,0.935,-0.290641,0.05086
244,0.150699,0.988566,0.005196,0.923367,0.219243,0.122398
245,0.09696,0.991679,0.084689,0.171533,1.683172,-0.00658
246,0.051421,0.985127,0.163956,-0.074813,0.8863030000000001,-0.5186310000000001
247,0.005099,0.977852,0.2092369999999999,-0.28583,0.072243,-0.943261
248,-0.026743,0.972358,0.231958,-0.688451,0.2187579999999999,-0.5319149999999999
249,-0.0527,0.97524,0.21478,-0.3044159999999999,0.137508,-0.0850799999999999
250,-0.063804,0.980243,0.187224,0.539146,-1.071887,-0.025771
251,-0.046387,0.988294,0.145338,0.706833,-1.58299,-0.535795
252,-0.0062,0.996306,0.085646,0.7384390000000001,-0.79045,-0.576643
253,0.031692,0.99945,0.00979,0.377823,-0.6608109999999999,-0.000482
254,0.062583,0.9946,-0.082787,0.019479,-0.242495,0.192604
255,0.090196,0.974146,-0.207134,0.470107,0.7429100000000001,-0.118626
256,0.09271,0.920064,-0.380639,1.498797,6.065089,0.6025020000000001
257,0.084098,0.860344,-0.502729,-0.888526,0.839333,0.993207
258,0.094843,0.8048569999999999,-0.585841,-1.776026,0.800016,-0.8215379999999999
259,0.109039,0.759188,-0.641672,-0.372757,1.133741,-0.546942
260,0.126099,0.724294,-0.677862,-0.222961,1.321727,0.195471
261,0.140172,0.7123520000000001,-0.687682,0.172175,1.198567,0.23915
262,0.144638,0.73129,-0.666554,0.0962669999999999,-1.374845,0.256123
263,0.1476839999999999,0.764808,-0.627103,-0.038156,-1.869407,0.097196
264,0.133843,0.798454,-0.58699,-0.223259,-1.745842,0.117569
265,0.094894,0.82044,-0.5638029999999999,-0.655044,-1.672918,0.666723
266,0.072226,0.8372370000000001,-0.542049,-0.409171,-1.508059,1.036251
267,0.0984179999999999,0.853292,-0.512062,-0.177428,-0.879476,0.792702
268,0.15512,0.862088,-0.482433,-0.183501,-0.574125,0.271816
269,0.217071,0.857742,-0.466003,0.02295,-0.37117,0.1381369999999999
270,0.281432,0.8481479999999999,-0.448821,-0.240371,-0.579929,1.21646
271,0.341215,0.846576,-0.40851,-1.078382,-0.519443,-0.010633
272,0.355317,0.8431270000000001,-0.403591,-1.445878,2.501462,1.020397
273,0.31756,0.8994479999999999,-0.300248,0.046911,3.02998,0.283204
274,0.305528,0.923354,-0.232531,1.269698,0.5867020000000001,0.277254
275,0.283011,0.945371,-0.161796,1.251687,-0.615324,-0.039162
276,0.232288,0.967513,-0.099807,1.170589,-0.316802,0.430008
277,0.164602,0.9862,-0.017783,1.104975,0.493384,0.094886
278,0.117676,0.990215,0.07501,0.230713,1.492741,-0.100233
279,0.075187,0.983482,0.164652,-0.080955,1.2460870000000002,-0.03657
280,0.0263519999999999,0.975661,0.2176949999999999,-0.028779,0.11316,-0.895658
281,-0.010418,0.968331,0.249451,-0.316715,0.270942,-0.7711640000000001
282,-0.037396,0.967675,0.249413,-0.115741,0.12046,-0.3714679999999999
283,-0.046637,0.972054,0.230077,0.300772,-0.844109,-0.028691
284,-0.026775,0.978681,0.2036349999999999,0.5082810000000001,-1.593991,-0.3151469999999999
285,0.023293,0.988334,0.1505109999999999,0.6079479999999999,-0.8498760000000001,-0.914824
286,0.075978,0.99437,0.073862,0.2169289999999999,-0.4769899999999999,-0.4247829999999999
287,0.114854,0.993184,-0.019872,0.07434,-0.349034,0.168035
288,0.143167,0.980259,-0.136368,-0.266489,0.136715,0.012925
289,0.146444,0.942151,-0.301505,0.586069,2.742953,-0.488184
290,0.127798,0.882992,-0.451655,0.525217,3.75478,1.187129
291,0.132421,0.822202,-0.5535770000000001,-0.8538709999999999,0.3884599999999999,0.422962
292,0.159919,0.767259,-0.621079,-0.8935,0.946288,-0.6486350000000001
293,0.180334,0.718968,-0.671241,0.024652,1.119304,-0.407434
294,0.183727,0.689717,-0.700382,0.159687,1.281002,-0.024746
295,0.170427,0.699144,-0.694372,0.025374,0.44972,-0.053202
296,0.164592,0.723737,-0.6701600000000001,0.041356,-1.687482,0.390664
297,0.169652,0.756567,-0.631526,-0.326009,-1.487127,0.2201179999999999
298,0.1565099999999999,0.786366,-0.5976060000000001,-0.620575,-1.394292,0.511714
299,0.123616,0.805283,-0.579861,-0.5585979999999999,-1.460678,0.900539
300,0.119425,0.819665,-0.5602560000000001,-0.3086489999999999,-1.175027,1.046752
301,0.1545089999999999,0.831334,-0.5338649999999999,-0.363005,-0.728245,0.809362
302,0.2106579999999999,0.8389989999999999,-0.5017010000000001,-0.533061,-0.659433,0.373009
303,0.27313,0.8284540000000001,-0.4889409999999999,-0.419218,-0.081887,0.593143
304,0.336419,0.788146,-0.515411,-0.607156,1.162599,0.00473
305,0.379406,0.780155,-0.497403,-1.587078,1.811688,0.291348
306,0.382061,0.801017,-0.46087,-0.988079,3.222878,0.05697
307,0.381842,0.8345540000000001,-0.397136,0.529337,-0.251454,0.1305349999999999
308,0.36943,0.8756780000000001,-0.310981,0.543747,-0.907874,0.515525
309,0.348708,0.911667,-0.217407,0.669542,-0.851685,0.523895
310,0.293978,0.946785,-0.131053,1.001112,1.059517,0.088222
311,0.22971,0.97236,-0.041829,1.586742,2.062186,-0.34315
312,0.195816,0.978625,0.06285,0.284913,0.54202,-0.306548
313,0.143258,0.979992,0.138177,0.002632,0.072147,-0.829003
314,0.103989,0.976665,0.187914,0.218292,0.4277689999999999,-0.559863
315,0.075335,0.97015,0.230505,-0.7027,0.335025,-0.661169
316,0.045614,0.969012,0.242765,-0.2730619999999999,-0.0609309999999999,0.090944
317,0.02667,0.972021,0.233375,0.209948,-0.851248,-0.053657
318,0.028907,0.978631,0.203583,0.521798,-1.581765,-0.574433
319,0.061258,0.987533,0.145002,0.555808,-0.717712,-0.645826
320,0.09934,0.992772,0.067341,0.281763,-0.583638,-0.306477
321,0.127139,0.99159,-0.024186,0.120404,-0.610517,-0.006789
322,0.15269,0.97921,-0.133543,-0.37878,-0.087791,0.156782
323,0.16285,0.943782,-0.287672,0.362678,1.2228290000000002,-0.272295
324,0.150841,0.884712,-0.441057,0.065238,4.207741,0.737581
325,0.149604,0.826644,-0.542474,-0.517021,1.034791,0.514123
326,0.16514,0.774578,-0.610539,-0.806818,0.45087,-0.480297
327,0.190293,0.723379,-0.66371,-0.165238,1.011545,-0.306612
328,0.202958,0.682855,-0.701795,0.060439,1.2452299999999998,-0.017397
329,0.194252,0.678952,-0.708018,0.215919,0.784533,0.2210949999999999
330,0.179679,0.705032,-0.686036,-0.060798,-1.431137,0.267243
331,0.179586,0.747868,-0.639095,-0.369192,-1.842854,-0.013935
332,0.1668339999999999,0.7879189999999999,-0.5927479999999999,-0.531382,-1.434479,0.385046
333,0.13615,0.8108350000000001,-0.5692189999999999,-0.421581,-1.326612,0.6081439999999999
334,0.128049,0.8219920000000001,-0.554917,-0.414609,-1.31064,0.777878
335,0.153826,0.831082,-0.534454,-0.310839,-0.996335,0.8201290000000001
336,0.197905,0.839251,-0.506451,-0.51953,-0.8623370000000001,0.555874
337,0.2475349999999999,0.84173,-0.479808,-0.50492,-0.712839,0.3846699999999999
338,0.300238,0.837009,-0.457463,-0.661582,-0.238331,1.048375
339,0.3232239999999999,0.8221940000000001,-0.468534,-0.935147,0.099147,-0.217822
340,0.315155,0.8239690000000001,-0.470905,-0.638199,0.950109,-0.738064
341,0.323495,0.857182,-0.400736,1.204001,0.885051,0.623972
342,0.337721,0.885617,-0.318791,1.009539,-0.724209,-0.014156
343,0.330836,0.915801,-0.227721,0.926,-0.928771,0.203399
344,0.298007,0.942667,-0.1502349999999999,0.85095,-0.5991770000000001,0.29057
345,0.2317159999999999,0.970233,-0.0704019999999999,1.132786,1.071897,-0.145129
346,0.174063,0.98464,0.013621,0.834635,1.704965,0.2936
347,0.1386099999999999,0.984637,0.106198,-0.137771,0.238279,-0.6860930000000001
348,0.09591,0.98135,0.166595,-0.232033,0.057469,-1.050003
349,0.065381,0.975471,0.210196,-0.5262720000000001,0.350533,-0.718359
350,0.036086,0.972582,0.2297429999999999,-0.1655569999999999,-0.016588,-0.193305
351,0.012959,0.974937,0.222103,0.099392,-0.381858,-0.0014759999999999
352,0.009052,0.979784,0.199852,0.616161,-1.411974,-0.28312
353,0.03352,0.986862,0.15805,0.739261,-0.980743,-0.66188
354,0.073551,0.992996,0.092458,0.4258229999999999,-0.551651,-0.464651
355,0.105401,0.994385,0.00944,0.155021,-0.572113,0.170705
356,0.12458,0.988272,-0.088304,-0.079932,-0.23722,0.397889
357,0.129665,0.966393,-0.2219719999999999,0.134663,0.656257,-0.029813
358,0.100972,0.916321,-0.387504,0.73875,4.864486,0.755134
359,0.085897,0.8600190000000001,-0.50298,-0.8963209999999999,1.052181,1.044361
360,0.100188,0.809028,-0.579168,-1.540083,0.699074,-0.281565
361,0.134474,0.768289,-0.625819,-0.4672229999999999,0.998359,-0.052846
362,0.178772,0.732766,-0.656578,-0.342773,1.193793,0.121544
363,0.207126,0.7178399999999999,-0.664684,0.387876,0.869028,0.107052
364,0.222344,0.733719,-0.642044,0.333396,-0.772308,-0.073334
365,0.226758,0.764264,-0.603722,0.083682,-1.680005,-0.02996
366,0.211951,0.793039,-0.571109,0.2233969999999999,-1.709985,0.039402
367,0.177375,0.8127840000000001,-0.554905,-0.400992,-1.387141,0.67075
368,0.151381,0.827515,-0.540651,-0.5695479999999999,-1.341782,0.912706
369,0.1622839999999999,0.844192,-0.510885,-0.460013,-1.154067,0.827887
370,0.19132,0.860563,-0.472047,-0.455541,-1.002348,0.692628
371,0.2227719999999999,0.8701040000000001,-0.439648,-0.3004239999999999,-0.50017,0.250546
372,0.254772,0.864901,-0.432478,-0.362087,-0.3045219999999999,0.6110359999999999
373,0.297903,0.8470209999999999,-0.440239,-0.467397,-0.12618,0.977714
374,0.310732,0.828034,-0.466696,-1.186037,4.026229,-0.068628
375,0.306142,0.8481770000000001,-0.432287,0.815425,1.597318,1.215201
376,0.327372,0.869353,-0.370207,1.236791,-0.599562,0.086409
377,0.331546,0.893431,-0.303081,0.95422,-0.856764,0.1040599999999999
378,0.303823,0.923979,-0.23228,0.318706,-0.347426,0.355465
379,0.248105,0.956223,-0.155185,0.641727,0.948776,-0.088193
380,0.180842,0.980967,-0.07071,0.761831,2.009374,-0.303405
381,0.140195,0.989795,0.0255169999999999,0.04523,0.453839,-0.323583
382,0.08763,0.990474,0.106215,0.117372,0.085011,-1.072401
383,0.046593,0.986662,0.155972,-0.091759,0.245073,-0.922802
384,0.017175,0.981134,0.192566,-0.197518,-0.038781,-0.1477359999999999
385,-0.008625,0.982612,0.185468,-0.037426,-0.268379,0.1149309999999999
386,-0.018198,0.986441,0.163105,0.4435979999999999,-1.404165,-0.511357
387,-0.005814,0.991904,0.126857,0.445679,-1.255576,-0.6301220000000001
388,0.0261449999999999,0.997108,0.071358,0.483071,-0.984138,-0.534691
389,0.059321,0.998239,8.8e-05,0.170874,-0.4930199999999999,0.224217
390,0.087119,0.99246,-0.086214,-0.120917,-0.302473,0.024508
391,0.1173109999999999,0.974076,-0.193429,0.159468,0.202759,-0.1070619999999999
392,0.12934,0.930958,-0.34145,0.921213,3.436138,-0.115474
393,0.133995,0.8733879999999999,-0.468229,-0.46273,2.2122900000000003,0.996519
394,0.151248,0.819044,-0.5534359999999999,-0.846225,0.611086,-0.595444
395,0.17219,0.772375,-0.611382,-0.309351,0.904322,-0.632011
396,0.193594,0.733064,-0.652026,0.030573,1.282149,-0.209378
397,0.208535,0.710825,-0.671744,0.2681489999999999,0.598943,0.020865
398,0.208835,0.717264,-0.664771,0.0120819999999999,-1.035089,0.115744
399,0.200512,0.742764,-0.638824,-0.23071,-1.675656,-0.219269
400,0.197632,0.778999,-0.595064,-0.403473,-1.553902,-0.090147
401,0.175073,0.812484,-0.556075,-0.5350729999999999,-1.318008,0.843001
402,0.13727,0.834983,-0.532879,-0.429354,-1.306373,1.138713
403,0.12043,0.8507459999999999,-0.5115930000000001,-0.17881,-1.053657,0.992764
404,0.133442,0.864822,-0.484022,-0.164417,-0.890792,0.595167
405,0.1579,0.8777450000000001,-0.452363,-0.3529219999999999,-0.5772229999999999,0.337327
406,0.1811839999999999,0.8861040000000001,-0.426606,-0.5101640000000001,-0.421534,0.5135350000000001
407,0.213071,0.887286,-0.409053,-0.923429,-0.122027,0.802501
408,0.2319159999999999,0.8768309999999999,-0.421168,-0.969221,0.279541,-0.365255
409,0.201247,0.870133,-0.449854,-0.612639,1.921569,0.489527
410,0.252341,0.8952610000000001,-0.367195,1.433679,0.5310090000000001,0.979423
411,0.298185,0.914267,-0.274228,1.332262,-0.375129,-0.140552
412,0.293858,0.936899,-0.18939,1.039562,-0.790079,0.1093119999999999
413,0.258843,0.957599,-0.126513,0.842979,0.010312,0.467653
414,0.2028579999999999,0.977919,-0.050239,0.5613779999999999,1.084261,0.022392
415,0.153136,0.987809,0.027971,0.227479,1.215774,0.0876909999999999
416,0.118564,0.986568,0.112363,-0.421008,0.200245,-0.83067
417,0.073555,0.98349,0.165341,-0.4170149999999999,0.038208,-0.877972
418,0.042807,0.979247,0.198098,-0.5210020000000001,0.400514,-0.599114
419,0.016847,0.98022,0.197191,0.228133,-0.337368,0.030425
420,0.001504,0.984825,0.173545,0.327811,-0.7077859999999999,0.11094
421,0.0086769999999999,0.989704,0.142868,0.6405390000000001,-1.420612,-0.4120479999999999
422,0.038543,0.994664,0.095693,0.480531,-0.795141,-0.5107470000000001
423,0.073607,0.996854,0.02938,0.293703,-0.679655,-0.416389
424,0.098796,0.993739,-0.052166,0.098347,-0.5827439999999999,0.299251
425,0.1159309999999999,0.982095,-0.148493,0.181784,0.3095159999999999,-0.068182
426,0.122803,0.952926,-0.2772199999999999,0.8357690000000001,1.82515,-0.504885
427,0.102306,0.8999530000000001,-0.4238149999999999,0.565144,4.3693800000000005,1.16736
428,0.104006,0.847132,-0.521105,-0.947619,-0.174082,0.26552
429,0.127891,0.800266,-0.5858479999999999,-1.245903,0.661556,-0.7542399999999999
430,0.152597,0.764683,-0.6260789999999999,-0.224069,0.858151,-0.43195
431,0.1812359999999999,0.743316,-0.643922,-0.343803,1.040238,0.162965
432,0.217629,0.73916,-0.637401,0.087013,0.548849,0.266231
433,0.2455429999999999,0.746549,-0.618364,0.0428029999999999,-0.74336,0.221208
434,0.262477,0.7592270000000001,-0.59555,-0.147213,-1.655864,-0.012482
435,0.259711,0.7783760000000001,-0.5715600000000001,-0.385184,-1.451838,0.189083
436,0.229172,0.800763,-0.553407,-0.199615,-1.269986,0.792161
437,0.19848,0.821686,-0.534263,-0.397409,-1.2383879999999998,0.82032
438,0.195417,0.8407389999999999,-0.504945,-0.4305859999999999,-1.082088,0.63849
439,0.219175,0.8567020000000001,-0.466931,-0.4005559999999999,-0.717008,0.429547
440,0.253398,0.8657229999999999,-0.4316399999999999,-0.469051,-0.634155,0.4664149999999999
441,0.289603,0.864828,-0.410125,-0.8679879999999999,-0.24552,0.862914
442,0.289066,0.840983,-0.457372,-1.312656,3.580633,-0.472835
443,0.265814,0.852916,-0.449308,-1.421317,5.473393,0.8424809999999999
444,0.288805,0.8791200000000001,-0.379131,1.392653,0.8919219999999999,0.516216
445,0.299764,0.903672,-0.305807,0.986781,-1.250276,0.3628139999999999
446,0.299896,0.927144,-0.224646,0.754929,-0.8458610000000001,0.135932
447,0.270431,0.952169,-0.142275,0.8473370000000001,0.301478,0.391818
448,0.216387,0.974806,-0.054129,0.78964,1.554201,0.014075
449,0.175341,0.984281,0.021149,0.5375489999999999,1.688922,-0.143449
450,0.148578,0.983018,0.107708,-0.600345,0.170822,-0.807797
451,0.105109,0.981632,0.15922,-0.128196,0.218533,-0.590861
452,0.07293,0.978261,0.194131,-0.1605609999999999,0.219279,-0.266702
453,0.051701,0.977368,0.205131,0.061702,-0.5018279999999999,-0.089988
454,0.043087,0.980219,0.19317,0.243702,-1.094065,-0.2762239999999999
455,0.053082,0.984604,0.166543,0.4861939999999999,-1.246033,-0.5621430000000001
456,0.08322,0.989497,0.118199,0.447191,-0.774165,-0.550847
457,0.119173,0.991707,0.048115,0.163023,-0.629555,-0.173756
458,0.144556,0.988774,-0.037813,0.0494449999999999,-0.369847,0.320391
459,0.161068,0.97697,-0.13995,-0.064801,0.157032,0.045392
460,0.160968,0.945956,-0.281525,1.203503,3.495893,-0.394332
461,0.134104,0.892278,-0.431109,-0.111215,2.601969,1.181643
462,0.132029,0.8377680000000001,-0.529824,-0.8803200000000001,0.520234,0.760049
463,0.147205,0.792311,-0.592093,-1.011997,0.864885,-0.578577
464,0.1693569999999999,0.753775,-0.634935,-0.322967,1.015467,0.114381
465,0.1928619999999999,0.724558,-0.66168,-0.062445,0.966055,0.266432
466,0.219753,0.716787,-0.661759,0.201573,0.175471,0.216569
467,0.2417239999999999,0.731747,-0.637273,-0.069177,-1.478924,-0.023387
468,0.2580739999999999,0.761063,-0.5951310000000001,-0.018496,-1.7485970000000002,-0.098687
469,0.252567,0.792511,-0.5551,-0.302433,-1.3913879999999998,0.1108859999999999
470,0.2214489999999999,0.816376,-0.533377,-0.47891,-1.257157,0.774588
471,0.191905,0.8337,-0.517799,-0.48228,-1.246634,0.781471
472,0.184697,0.849042,-0.49499,-0.411336,-1.154065,0.756266
473,0.197321,0.8632690000000001,-0.464576,-0.434351,-0.797168,0.4110479999999999
474,0.2193969999999999,0.873532,-0.4345189999999999,-0.364325,-0.60275,0.411203
475,0.246453,0.8741459999999999,-0.4184859999999999,-0.408944,-0.462692,0.684264
476,0.272671,0.8654790000000001,-0.420234,-0.511196,2.384048,-1.473076
477,0.266453,0.8490129999999999,-0.456267,-1.525303,6.502961,0.4710979999999999
478,0.286944,0.872916,-0.394565,1.072706,1.0341129999999998,0.965107
479,0.327284,0.8860979999999999,-0.3281989999999999,1.117265,-0.80866,-0.026751
480,0.333687,0.909718,-0.2471159999999999,0.856773,-1.160649,0.053894
481,0.305276,0.935098,-0.179997,0.510444,-0.65751,0.381261
482,0.25185,0.961804,-0.107261,0.538296,0.451267,0.363807
483,0.196331,0.980204,-0.025573,0.4410739999999999,1.414617,-0.178315
484,0.166604,0.984259,0.058975,-0.403344,0.422907,-0.765411
485,0.1303,0.982469,0.133329,-0.460271,0.065138,-0.722699
486,0.100282,0.979539,0.17449,-0.426088,0.281432,-0.309118
487,0.081229,0.978543,0.189355,0.106103,-0.3354,-0.162987
488,0.06649,0.982989,0.171204,0.296013,-1.04758,-0.405533
489,0.067678,0.988161,0.1376869999999999,0.435175,-1.073625,-0.4106359999999999
490,0.087795,0.99186,0.092225,0.479329,-0.867699,-0.433625
491,0.116925,0.992704,0.029467,0.253299,-0.724774,-0.240557
492,0.1400819999999999,0.988868,-0.050177,0.18699,-0.673255,0.191199
493,0.158799,0.976451,-0.146039,-0.001679,0.054174,0.076322
494,0.168782,0.945954,-0.276918,1.313609,2.933273,-0.637953
495,0.151835,0.887985,-0.434084,1.4342700000000002,5.611954,0.60541
496,0.149468,0.8317540000000001,-0.534644,-1.357751,0.1193569999999999,-0.243585
497,0.1655609999999999,0.78564,-0.59612,-1.163349,0.781239,-0.819484
498,0.186328,0.751197,-0.633234,-0.366809,1.052285,-0.3290619999999999
499,0.210761,0.731442,-0.648516,-0.216331,0.949467,0.259218
500,0.24515,0.7269329999999999,-0.64146,0.18469,0.065639,0.34312
501,0.274026,0.733479,-0.622028,0.0535649999999999,-1.3525280000000002,0.104846
502,0.2827199999999999,0.748726,-0.5995659999999999,-0.071813,-1.530906,0.132174
503,0.2664559999999999,0.7707149999999999,-0.5787909999999999,-0.385612,-1.3255709999999998,0.410639
504,0.231654,0.79573,-0.559599,-0.4235489999999999,-1.317611,0.749082
505,0.202165,0.8198540000000001,-0.535694,-0.393312,-1.117569,0.7587619999999999
506,0.199895,0.8397209999999999,-0.504887,-0.463551,-0.8536520000000001,0.552906
507,0.225624,0.854274,-0.468306,-0.4537739999999999,-0.749552,0.407728
508,0.262318,0.8615659999999999,-0.434619,-0.439351,-0.5449609999999999,0.280154
509,0.30165,0.864798,-0.401412,-0.6540060000000001,-0.6839970000000001,1.01976
510,0.331899,0.867823,-0.369765,-0.944082,-0.627451,1.05432
511,0.324079,0.8465290000000001,-0.422328,-0.970609,2.9702740000000003,0.286678
512,0.315025,0.8794700000000001,-0.35678,0.8526229999999999,3.678727,0.826018
513,0.343142,0.895209,-0.284348,1.910398,0.721414,0.856675
514,0.363834,0.908281,-0.206521,0.779736,-1.161332,-0.206504
515,0.348765,0.92645,-0.1416069999999999,0.5369010000000001,-0.568311,0.086355
516,0.304541,0.949477,-0.075811,0.4932189999999999,0.13527,0.4407399999999999
517,0.250848,0.968026,-0.00104,0.127799,0.7757029999999999,0.001406
518,0.208283,0.975569,0.069885,0.133132,1.384753,-0.007812
519,0.165538,0.975263,0.146492,-0.271327,0.505084,-0.6372140000000001
520,0.118243,0.97587,0.183564,-0.505175,0.357122,-0.812226
521,0.086448,0.97573,0.201189,-0.099189,0.149697,-0.356386
522,0.063556,0.979186,0.1927559999999999,0.260266,-0.589919,-0.100104
523,0.058258,0.983328,0.172255,0.4368439999999999,-1.212561,-0.30255
524,0.074899,0.987333,0.139867,0.57276,-1.255644,-0.528813
525,0.1051,0.990616,0.087377,0.537967,-1.067978,-0.5588890000000001
526,0.133406,0.990993,0.011614,0.185427,-0.6927449999999999,-0.046145
527,0.15184,0.985062,-0.081225,0.088288,-0.258225,0.382403
528,0.158829,0.966912,-0.1996359999999999,0.205947,0.518256,-0.0308029999999999
529,0.132508,0.924157,-0.358294,0.29811,4.021705,1.382251
530,0.1118599999999999,0.875508,-0.470077,-1.5452860000000002,0.0632279999999999,0.230514
531,0.1179289999999999,0.8289139999999999,-0.546804,-1.6461419999999998,0.572515,-0.481867
532,0.136946,0.790357,-0.597144,-0.366713,0.824099,-0.32676
533,0.1691369999999999,0.75872,-0.629076,-0.237039,0.892342,0.036791
534,0.207944,0.7369439999999999,-0.643174,0.061572,0.878656,0.135682
535,0.2449449999999999,0.734189,-0.633221,0.29311,-0.54318,0.296871
536,0.260183,0.740507,-0.619641,0.164393,-1.6727580000000002,0.256314
537,0.251987,0.760253,-0.5987640000000001,0.027142,-1.615478,0.4475949999999999
538,0.229694,0.786614,-0.5731310000000001,-0.402759,-1.268899,0.450664
539,0.197143,0.811459,-0.550154,-0.39659,-1.165325,0.7034739999999999
540,0.171742,0.832298,-0.527053,-0.424092,-1.1245040000000002,0.693237
541,0.1683329999999999,0.850598,-0.498144,-0.496962,-1.027066,0.639731
542,0.183621,0.866482,-0.464211,-0.4532899999999999,-0.8613860000000001,0.500618
543,0.2069489999999999,0.872597,-0.442432,-0.467951,-0.218544,0.6026189999999999
544,0.237588,0.8551620000000001,-0.460706,-0.5687800000000001,0.697603,-0.5310239999999999
545,0.250526,0.817593,-0.518439,-0.988273,3.069019,-0.19047
546,0.279472,0.8264889999999999,-0.488683,1.373834,2.834537,1.03388
547,0.307616,0.8507979999999999,-0.426046,1.281525,-0.712599,0.148535
548,0.314261,0.874517,-0.369404,0.655953,-1.0921379999999998,0.363667
549,0.300727,0.903779,-0.304543,0.246209,-0.738969,0.021478
550,0.259441,0.93819,-0.229105,0.620412,0.126568,0.3915349999999999
551,0.208255,0.967121,-0.14597,0.738293,1.502163,0.2741889999999999
552,0.172684,0.981706,-0.080215,0.161774,0.943893,-0.032548
553,0.153364,0.98817,9.9e-05,-0.66792,0.00533,-0.381401
554,0.123108,0.99125,0.0476269999999999,-0.677719,0.340736,-0.374288
555,0.102866,0.991752,0.0764649999999999,-0.357978,0.461236,-0.269962
556,0.083372,0.993611,0.076063,-0.200697,-0.005345,-0.147627
557,0.0661279999999999,0.996606,0.049017,0.14307,-1.235849,-0.1197869999999999
558,0.06138,0.997978,0.016534,0.2551489999999999,-1.267478,-0.0773399999999999
559,0.075945,0.996659,-0.030066,0.360319,-1.165039,-0.205407
560,0.093377,0.990829,-0.0976679999999999,0.262092,-0.661331,0.408047
561,0.099684,0.978827,-0.178777,0.285509,-0.442663,0.431539
562,0.099662,0.956077,-0.275651,0.2203139999999999,-0.187507,0.202485
563,0.086062,0.911813,-0.401484,0.784651,4.642172,-0.017324
564,0.080985,0.852567,-0.516304,-0.580436,3.784502,0.936913
565,0.104706,0.800427,-0.5902149999999999,-1.121643,0.036258,-0.063136
566,0.121213,0.7562909999999999,-0.642908,-0.8602270000000001,0.6534840000000001,-0.628362
567,0.14285,0.723557,-0.675321,0.193194,0.890166,-0.217013
568,0.18041,0.702635,-0.6883,0.154978,1.004656,0.057959
569,0.206857,0.6974859999999999,-0.6860930000000001,0.440481,-0.612617,0.5495270000000001
570,0.207261,0.705637,-0.677583,0.111449,-1.181177,0.2666179999999999
571,0.183992,0.731299,-0.656772,-0.184663,-1.533987,0.257098
572,0.1633869999999999,0.763021,-0.625383,-0.156917,-1.141668,0.2418989999999999
573,0.145912,0.790416,-0.594939,-0.34362,-1.133296,0.3689719999999999
574,0.122137,0.81486,-0.5666439999999999,-0.20542,-1.159388,0.828607
575,0.103051,0.834518,-0.541258,-0.1023029999999999,-0.877991,0.844434
576,0.0971669999999999,0.842884,-0.52925,-0.047164,-0.71558,0.75061
577,0.1189369999999999,0.833377,-0.539756,-0.252788,0.371915,0.441825
578,0.133476,0.811182,-0.569358,-0.312187,1.276587,-1.298226
579,0.086508,0.7843060000000001,-0.614313,-0.750311,3.3377800000000004,-0.155935
580,0.088485,0.795013,-0.600104,0.980272,0.3810429999999999,1.572607
581,0.079993,0.8125819999999999,-0.577331,0.738611,-1.101431,0.238479
582,0.082561,0.847621,-0.5241399999999999,0.843404,-1.053996,-0.164718
583,0.074938,0.8906940000000001,-0.448385,0.873091,0.107673,0.072988
584,0.054376,0.935243,-0.349806,1.242758,1.507415,0.070937
585,0.006339,0.964386,-0.264423,0.377496,1.4797209999999998,0.109348
586,-0.010923,0.981506,-0.191118,-0.150912,0.213608,-0.2124309999999999
587,-0.039835,0.990578,-0.131026,-0.231771,0.195304,-0.164949
588,-0.0682929999999999,0.991998,-0.106192,-0.169133,0.07476,-0.325738
589,-0.095414,0.990065,-0.1032869999999999,-0.061507,-0.395246,0.074463
590,-0.125933,0.984177,-0.124643,0.14664,-0.8711549999999999,0.325006
591,-0.149862,0.975575,-0.160608,0.094808,-1.052311,-0.08512
592,-0.163214,0.965655,-0.202167,0.313528,-0.964312,0.199711
593,-0.166231,0.953589,-0.2510679999999999,0.600893,-0.831442,0.260513
594,-0.165402,0.936148,-0.310273,0.889172,-0.633368,0.6482859999999999
595,-0.170166,0.908911,-0.380688,0.652512,-0.073996,0.303601
596,-0.1714,0.8676299999999999,-0.466734,1.131117,1.405106,-0.630709
597,-0.170958,0.8157300000000001,-0.552592,1.683043,4.601323000000001,-0.261389
598,-0.146998,0.773159,-0.616941,-0.780782,0.201343,0.743406
599,-0.130292,0.729838,-0.671089,-0.816577,1.1079,-0.2438739999999999
600,-0.116888,0.701871,-0.702649,-0.2008309999999999,1.142795,-0.30344
601,-0.096968,0.694236,-0.713186,0.4013199999999999,0.862618,0.061925
602,-0.077068,0.702492,-0.7075060000000001,0.261715,0.219688,0.255373
603,-0.065216,0.7204,-0.6904859999999999,-0.076339,-0.550325,0.2650099999999999
604,-0.0666409999999999,0.74368,-0.6652060000000001,0.027014,-1.031308,0.341964
605,-0.069896,0.770953,-0.633045,0.013546,-1.116473,0.4301649999999999
606,-0.068118,0.79929,-0.597072,-0.226377,-1.046757,0.267253
607,-0.070172,0.8252280000000001,-0.560424,-0.131321,-0.910601,0.421706
608,-0.078434,0.842886,-0.5323439999999999,-0.044643,-0.7870550000000001,0.6528579999999999
609,-0.0850799999999999,0.847569,-0.523821,0.065457,-0.610264,1.126482
610,-0.078777,0.829793,-0.552484,0.103755,-0.223225,0.869165
611,-0.078044,0.815404,-0.573607,-0.343663,-0.002996,-0.088884
612,-0.0910059999999999,0.805092,-0.5861270000000001,-0.248044,0.640831,0.082648
613,-0.07973,0.823945,-0.561033,-0.1340299999999999,2.268219,0.865873
614,-0.120075,0.852075,-0.50946,1.630146,0.108298,-0.421326
615,-0.140307,0.882842,-0.448222,1.229678,0.6064,-0.723912
616,-0.159968,0.911821,-0.378143,0.826075,0.744826,-0.14003
617,-0.174362,0.938697,-0.2973989999999999,0.415847,0.338754,-0.3915659999999999
618,-0.205352,0.953638,-0.220014,0.559233,0.53646,-0.087084
619,-0.241448,0.95804,-0.154474,0.741463,0.532103,-0.030905
620,-0.271995,0.956677,-0.103865,0.445701,0.001423,0.0132129999999999
621,-0.294585,0.952646,-0.075393,0.311065,-0.171076,-0.049835
622,-0.309177,0.94829,-0.071806,0.269428,-0.459963,0.153731
623,-0.3223519999999999,0.942808,-0.084864,0.345621,-0.783507,0.115199
624,-0.33416,0.936312,-0.107965,0.356758,-0.887683,-0.1107089999999999
625,-0.340653,0.929597,-0.14073,0.396852,-0.94307,-0.058733
626,-0.34611,0.921388,-0.176785,0.580271,-0.8162550000000001,0.2427489999999999
627,-0.355144,0.90931,-0.216858,0.6512560000000001,-0.7616970000000001,0.483551
628,-0.366763,0.890042,-0.27076,0.4200319999999999,0.140827,0.209939
629,-0.369317,0.8627959999999999,-0.345237,0.90928,2.04556,-0.746209
630,-0.3635739999999999,0.828343,-0.426218,1.456622,4.320339,0.196955
631,-0.3318,0.802714,-0.495539,-0.410143,0.242299,0.364328
632,-0.313703,0.7766,-0.5463359999999999,-0.012728,1.204449,-0.408498
633,-0.304959,0.756748,-0.5782149999999999,0.564923,1.240292,-0.494859
634,-0.3018139999999999,0.744694,-0.595264,0.5378069999999999,1.0853389999999998,-0.368695
635,-0.299796,0.7477199999999999,-0.592485,0.303488,0.558601,-0.158431
636,-0.299819,0.762215,-0.573704,-0.043519,-0.102212,-0.098552
637,-0.303492,0.788582,-0.534818,0.1960859999999999,-0.71885,0.175672
638,-0.3044719999999999,0.815862,-0.491596,0.293593,-1.4113209999999998,0.2428469999999999
639,-0.30178,0.839267,-0.452283,0.233161,-1.267795,0.215757
640,-0.297564,0.8547370000000001,-0.425301,0.12961,-1.130692,0.181832
641,-0.286853,0.864298,-0.413164,0.156681,-0.994059,0.283769
642,-0.264944,0.871283,-0.4131229999999999,0.097921,-1.051016,0.291831
643,-0.2269139999999999,0.880125,-0.417002,-0.00473,-1.13159,0.721751
644,-0.174219,0.8963780000000001,-0.407621,-0.187247,-1.165359,1.029798
645,-0.133024,0.90175,-0.411281,-0.3457969999999999,-1.248765,0.712428
646,-0.118663,0.89766,-0.424413,-0.082585,1.067718,0.565053
647,-0.164432,0.88965,-0.426011,0.385013,6.915709,1.116135
648,-0.21649,0.885865,-0.410335,1.466734,-0.177674,-0.209858
649,-0.212691,0.907427,-0.362408,0.7370439999999999,-1.927843,-0.429386
650,-0.205351,0.933275,-0.294666,0.469877,-0.040621,-0.317105
651,-0.2182599999999999,0.953627,-0.207265,0.938123,1.273073,-0.289699
652,-0.2449,0.9627,-0.115034,0.986493,1.6935650000000002,-0.170793
653,-0.270939,0.961826,-0.03852,0.7730899999999999,0.631055,-0.292489
654,-0.30311,0.952522,0.028758,0.83793,0.3719719999999999,-0.216426
655,-0.3261,0.94248,0.073414,0.567005,0.1072019999999999,-0.440709
656,-0.338421,0.937333,0.0829309999999999,0.4001889999999999,-0.013444,-0.140259
657,-0.345831,0.935847,0.067754,0.4236819999999999,-0.373103,0.122279
658,-0.348078,0.936797,0.035413,0.423608,-0.816557,-0.3699159999999999
659,-0.3450539999999999,0.938553,-0.007486,0.513419,-0.940445,-0.222357
660,-0.33771,0.9396,-0.05571,0.670413,-0.6982520000000001,0.236161
661,-0.332342,0.936973,-0.107843,0.656606,-0.145698,0.038797
662,-0.32409,0.929512,-0.175993,0.872475,0.7881239999999999,-0.175325
663,-0.309332,0.913771,-0.263317,1.185309,1.5880299999999998,-0.160908
664,-0.296844,0.8862399999999999,-0.355614,0.192932,1.333074,0.6736989999999999
665,-0.2918,0.853884,-0.4309689999999999,-0.347238,1.009412,-0.022796
666,-0.288963,0.8257950000000001,-0.484318,0.034294,1.043972,-0.416195
667,-0.283438,0.8070579999999999,-0.517996,0.089087,0.976069,-0.334406
668,-0.289748,0.795075,-0.532825,0.281066,0.781998,0.0624269999999999
669,-0.296912,0.800709,-0.520297,0.149741,0.464184,0.083789
670,-0.302244,0.82281,-0.481283,-0.198153,-0.672846,0.017827
671,-0.294255,0.8534719999999999,-0.4301149999999999,-0.292476,-1.720461,-0.13089
672,-0.270925,0.883392,-0.382384,-0.070765,-1.571655,-0.117295
673,-0.255717,0.900559,-0.351571,0.116328,-0.994446,0.046014
674,-0.249907,0.901217,-0.354055,-0.104799,-0.854952,0.289282
675,-0.236292,0.896892,-0.3738329999999999,0.0134069999999999,-0.949977,0.341271
676,-0.207613,0.8939030000000001,-0.397283,-0.036497,-1.091123,0.5040180000000001
677,-0.163597,0.894697,-0.415637,-0.316094,-1.077543,1.0619379999999998
678,-0.112542,0.892368,-0.437051,-0.256385,-1.013355,-0.335578
679,-0.048803,0.896128,-0.441104,-0.026545,-0.301844,1.088443
680,0.0048049999999999,0.915708,-0.401816,0.079286,2.785555,0.916952
681,-0.019925,0.92789,-0.37232,1.870465,6.182003,0.380591
682,-0.0512139999999999,0.944107,-0.325635,1.114309,-0.674668,-0.324862
683,-0.072492,0.964518,-0.253871,0.731549,-1.423609,0.262171
684,-0.104513,0.97894,-0.175368,0.605184,0.1771579999999999,0.1358319999999999
685,-0.148964,0.986203,-0.072202,0.749352,1.301913,-0.4158199999999999
686,-0.181257,0.982744,0.0368779999999999,0.405393,1.376051,0.05617
687,-0.200801,0.97074,0.131696,0.190806,0.511835,-0.607785
688,-0.2306489999999999,0.952212,0.200233,0.3976719999999999,0.272977,-0.541755
689,-0.252434,0.937697,0.238751,0.2147599999999999,0.3111739999999999,-0.721417
690,-0.264395,0.931107,0.251267,0.483755,-0.168427,-0.324845
691,-0.26757,0.934508,0.234736,0.449744,-0.7491899999999999,-0.219584
692,-0.256675,0.944904,0.2031619999999999,0.617301,-1.317661,-0.5400149999999999
693,-0.227865,0.960772,0.158095,0.702855,-0.8468200000000001,-0.5084529999999999
694,-0.196927,0.975245,0.100585,0.570874,-0.585093,-0.001403
695,-0.174442,0.984177,0.0310639999999999,0.447651,0.1436,-0.042554
696,-0.150942,0.986642,-0.061273,0.623034,0.6543800000000001,-0.195823
697,-0.137675,0.971512,-0.192898,1.111277,2.057601,-0.348148
698,-0.124795,0.943625,-0.306591,-0.5176149999999999,1.921975,0.928219
699,-0.12163,0.910871,-0.394361,-1.02818,0.762835,-0.092578
700,-0.112997,0.882175,-0.457165,-0.033961,0.8946350000000001,-0.271259
701,-0.115003,0.851517,-0.511559,0.099561,0.8722989999999999,-0.040336
702,-0.125066,0.8366319999999999,-0.533297,0.454503,0.673759,0.0027489999999999
703,-0.1243359999999999,0.850058,-0.511803,-0.0523,-0.244528,-0.060478
704,-0.109029,0.8766799999999999,-0.4685569999999999,-0.2269389999999999,-1.7180799999999998,-0.272913
705,-0.087885,0.906679,-0.412563,-0.198232,-1.741991,0.006024
706,-0.082908,0.923495,-0.3745449999999999,-0.354805,-1.355776,0.417971
707,-0.0819,0.926461,-0.367372,-0.270761,-1.2165,0.593858
708,-0.063693,0.92686,-0.369965,-0.157392,-1.121226,0.613571
709,-0.030871,0.927883,-0.371592,-0.246808,-0.983226,0.4140569999999999
710,0.011854,0.926709,-0.375594,-0.486875,-1.081372,0.4707479999999999
711,0.053296,0.927804,-0.369243,-0.583356,-0.8381280000000001,0.983897
712,0.089798,0.913279,-0.397313,-0.144897,-0.373042,1.504644
713,0.143879,0.921894,-0.359736,-0.587208,2.960079,0.62797
714,0.126137,0.942495,-0.309505,1.072547,6.54629,0.792339
715,0.085092,0.960447,-0.265144,1.203147,-0.810316,-0.6315390000000001
716,0.068471,0.980093,-0.186358,0.703853,-1.38761,0.203966
717,0.041025,0.994157,-0.099848,0.60877,0.199935,0.14982
718,-0.004925,0.999969,-0.006123,0.900524,1.438172,-0.497722
719,-0.04927,0.994117,0.096451,0.4216149999999999,1.264168,0.006179
720,-0.075174,0.97801,0.194536,0.0456639999999999,0.345598,-0.776781
721,-0.110922,0.958767,0.261653,0.162131,0.228092,-0.929072
722,-0.14012,0.942986,0.3019,0.0301649999999999,0.400748,-0.777012
723,-0.1622849999999999,0.935011,0.315306,0.463677,-0.317915,-0.065519
724,-0.169643,0.93771,0.303185,0.615901,-1.020871,-0.1144329999999999
725,-0.154651,0.948265,0.277266,0.705707,-1.431709,-0.692809
726,-0.1153839999999999,0.966923,0.2274769999999999,0.637754,-1.084355,-0.89186
727,-0.066731,0.985692,0.1547869999999999,0.362614,-0.488911,0.020124
728,-0.029662,0.997265,0.0676929999999999,-0.016115,0.07175,-0.080617
729,0.0045969999999999,0.998826,-0.048226,0.528713,1.303603,-0.5921390000000001
730,0.014698,0.977622,-0.209857,0.90176,3.890069,0.616595
731,0.010136,0.937289,-0.348405,-0.438206,1.324216,0.866182
732,0.002789,0.893227,-0.449597,-0.790784,0.890159,0.181455
733,0.014337,0.8515860000000001,-0.524019,0.131643,1.345039,-0.570967
734,0.019234,0.80795,-0.588936,0.2257,0.807558,0.0181659999999999
735,0.008598,0.7846029999999999,-0.619939,0.088296,0.336765,0.080907
736,0.005541,0.796024,-0.60524,-0.244921,-1.2934450000000002,0.069275
737,0.019072,0.831304,-0.555491,-0.199096,-1.65978,0.281763
738,0.039625,0.8645639999999999,-0.500957,-0.626524,-1.678438,0.168102
739,0.039166,0.880553,-0.472327,-0.6073729999999999,-1.556029,0.467474
740,0.034231,0.887518,-0.4595,-0.5110680000000001,-1.623541,0.799756
741,0.052162,0.896934,-0.439077,-0.176429,-1.237831,0.850942
742,0.091019,0.907255,-0.410614,-0.2877969999999999,-0.934141,0.5342859999999999
743,0.134221,0.911452,-0.388896,-0.144215,-0.711424,0.079158
744,0.176456,0.91341,-0.366804,-0.16109,-0.783726,0.710996
745,0.210159,0.918436,-0.335126,-0.8007350000000001,-0.613336,0.434964
746,0.224296,0.911586,-0.344531,-0.306953,0.211094,1.195285
747,0.208607,0.938182,-0.276219,-0.851582,2.863987,0.695592
748,0.169272,0.961868,-0.2148409999999999,1.542184,0.8978729999999999,0.1340609999999999
749,0.171932,0.975596,-0.136576,1.05695,-1.385675,-0.10111
750,0.149807,0.987822,-0.042012,0.816029,-0.977538,0.315023
751,0.099755,0.994022,0.044377,0.891639,0.8590969999999999,-0.174321
752,0.038502,0.989275,0.140897,0.37144,1.655546,0.023531
753,-0.000705,0.971408,0.237414,0.4106479999999999,1.673413,-0.072986
754,-0.04489,0.948311,0.314152,0.160644,0.474357,-1.032795
755,-0.0857,0.932105,0.351902,0.0234139999999999,0.441384,-0.86945
756,-0.114496,0.925682,0.360559,0.339136,0.107307,-0.538644
757,-0.127051,0.930678,0.34307,0.749686,-1.10414,-0.243842
758,-0.1106859999999999,0.940386,0.3215949999999999,0.8473959999999999,-1.393465,-0.7144020000000001
759,-0.0673769999999999,0.957927,0.278992,0.7176,-0.998012,-0.911835
760,-0.015599,0.977244,0.2115449999999999,0.39063,-0.5523170000000001,0.166629
761,0.0301399999999999,0.991708,0.124929,-0.061161,0.179679,-0.2652489999999999
762,0.069845,0.997557,0.001264,0.669291,2.288316,-0.7245149999999999
763,0.082933,0.981868,-0.170461,0.427749,3.665669,0.8355459999999999
764,0.077078,0.947963,-0.30891,-1.086645,0.7604420000000001,0.586422
765,0.076677,0.909581,-0.40839,-1.133028,0.961238,-0.49493
766,0.093052,0.8708379999999999,-0.4826819999999999,-0.235294,1.100322,-0.397445
767,0.116022,0.8293969999999999,-0.546479,-0.097223,1.068109,-0.0138699999999999
768,0.127002,0.803592,-0.581472,0.168378,0.423459,0.201193
769,0.135322,0.809294,-0.571605,-0.112419,-1.546064,0.117228
770,0.149232,0.837685,-0.52537,-0.096635,-1.757332,0.1663
771,0.152954,0.86577,-0.476496,-0.51152,-1.556611,0.2241
772,0.1245349999999999,0.881707,-0.4550649999999999,-0.5808949999999999,-1.609795,0.613527
773,0.101272,0.890599,-0.44337,-0.4204859999999999,-1.52245,0.919032
774,0.11621,0.8986879999999999,-0.422913,-0.276672,-1.101264,0.779358
775,0.154123,0.906281,-0.393575,-0.281625,-0.948456,0.438604
776,0.201646,0.906708,-0.370433,-0.273897,-0.6870569999999999,0.428889
777,0.252238,0.902528,-0.349026,-0.6282300000000001,-0.3859869999999999,0.652584
778,0.271254,0.892927,-0.359309,-0.652953,0.041323,-0.202612
779,0.291484,0.8965620000000001,-0.333487,-1.429637,2.555007,0.4635069999999999
780,0.24241,0.937761,-0.2486789999999999,-0.132486,4.403303,0.104895
781,0.186542,0.964214,-0.188395,1.6629599999999998,-0.102657,-0.098226
782,0.1570089999999999,0.983065,-0.094507,0.923664,-0.216021,0.336405
783,0.1149819999999999,0.993351,0.005772,0.943535,0.348904,-0.099446
784,0.063849,0.992406,0.10514,1.081339,1.591457,-0.626808
785,0.023923,0.977755,0.2083829999999999,0.048022,0.836195,-0.2609039999999999
786,-0.018103,0.959226,0.282061,-0.2609039999999999,0.381671,-0.724825
787,-0.057695,0.943653,0.325868,-0.358656,0.297771,-0.923463
788,-0.0964,0.930389,0.353672,0.199947,-0.065292,-0.520405
789,-0.130482,0.926762,0.352259,0.394703,-0.469792,-0.4569189999999999
790,-0.142315,0.92904,0.341512,0.8815879999999999,-1.344583,-0.195043
791,-0.1178869999999999,0.941549,0.315575,1.110593,-1.444097,-0.763848
792,-0.071107,0.962729,0.260955,0.7969069999999999,-0.664892,-0.74298
793,-0.0283339999999999,0.981233,0.1907299999999999,0.252592,-0.582537,-0.129207
794,0.004326,0.99437,0.105877,0.136681,0.351593,-0.255795
795,0.027818,0.999341,-0.023324,0.542342,1.427035,-0.501685
796,0.022502,0.982366,-0.185612,-0.514491,2.428706,1.180149
797,0.016786,0.950998,-0.308741,-1.284867,0.492041,-0.193578
798,0.021698,0.913537,-0.406177,-1.244873,0.811561,-0.501462
799,0.052433,0.876609,-0.478338,-0.1006659999999999,1.260201,-0.399729
800,0.077642,0.8379780000000001,-0.5401520000000001,0.3400829999999999,1.1331209999999998,0.316168
801,0.085661,0.8171689999999999,-0.569997,0.316103,0.679321,0.376668
802,0.088741,0.820526,-0.564679,0.002125,-1.823028,0.4661689999999999
803,0.0920309999999999,0.8392850000000001,-0.535845,-0.212819,-1.661048,0.639651
804,0.086155,0.856459,-0.508975,-0.424336,-1.493483,0.4829739999999999
805,0.0569169999999999,0.8657729999999999,-0.4971899999999999,-0.6027239999999999,-1.858158,0.847578
806,0.046161,0.879785,-0.473125,-0.2903469999999999,-1.328119,0.869869
807,0.0775179999999999,0.897691,-0.433753,-0.2144199999999999,-1.074586,0.704017
808,0.13471,0.905968,-0.401341,-0.401907,-0.8991319999999999,-0.003352
809,0.195191,0.90176,-0.385654,-0.6252909999999999,-0.555142,1.042621
810,0.237921,0.889382,-0.390376,-0.989157,-0.181786,-0.076864
811,0.272622,0.8770879999999999,-0.395466,-1.506417,1.399996,0.984975
812,0.289005,0.904909,-0.312436,1.431607,4.613448,0.118772
813,0.215846,0.945541,-0.2436449999999999,2.153706,1.561936,0.5639270000000001
814,0.170915,0.969692,-0.1746,1.474532,-1.051022,0.4123779999999999
815,0.136914,0.986918,-0.085133,1.135913,-0.365504,0.078663
816,0.078243,0.996833,0.0142199999999999,1.120334,0.616296,-0.140517
817,0.0293459999999999,0.992957,0.1147789999999999,0.278576,1.525277,-0.14165
818,-0.009373,0.977528,0.2105989999999999,-0.163982,-0.005451,-0.921018
819,-0.052014,0.959932,0.275363,-0.004992,0.010924,-0.777103
820,-0.084947,0.941704,0.3255429999999999,-0.221175,0.429955,-0.507016
821,-0.112444,0.932788,0.342438,0.109926,-0.354525,-0.167145
822,-0.1219069999999999,0.932151,0.340929,0.265782,-0.7169260000000001,-0.14461
823,-0.104676,0.941404,0.320625,0.935227,-1.6559580000000005,-0.760918
824,-0.053273,0.961541,0.269447,0.582784,-0.384194,-0.8813850000000001
825,0.0023539999999999,0.98109,0.1935359999999999,0.527157,-0.403744,-0.805474
826,0.041156,0.993469,0.106422,0.125775,-0.488296,0.088265
827,0.067263,0.997735,0.0009519999999999,0.420056,1.379783,-0.363531
828,0.07086,0.984406,-0.1610079999999999,0.41646,1.393112,-0.201572
829,0.0485899999999999,0.94473,-0.324229,0.259042,2.843936,1.090983
830,0.04775,0.897661,-0.438092,-1.254477,0.468184,-0.775943
831,0.064329,0.8519610000000001,-0.519638,-0.845457,0.864851,-0.722198
832,0.088898,0.808137,-0.5822470000000001,-0.218888,1.298827,-0.302336
833,0.100529,0.784048,-0.612505,0.080974,1.103174,0.20569
834,0.1148349999999999,0.792287,-0.599245,0.091601,-0.3971909999999999,0.29796
835,0.127085,0.81517,-0.565109,-0.131129,-2.368072,0.348434
836,0.123813,0.8375090000000001,-0.532211,-0.374103,-1.654511,0.457885
837,0.092067,0.8525590000000001,-0.514458,-0.6257119999999999,-1.461247,0.345986
838,0.0601509999999999,0.8642040000000001,-0.499533,-0.327272,-1.684883,0.8822690000000001
839,0.065993,0.8802969999999999,-0.46981,-0.235625,-1.105166,0.8237530000000001
840,0.102417,0.8964469999999999,-0.4311529999999999,-0.26329,-0.8989959999999999,0.601395
841,0.150774,0.900098,-0.408767,-0.163393,-0.261198,0.515044
842,0.201588,0.88875,-0.411688,-0.654942,0.075774,-0.444391
843,0.22498,0.8684569999999999,-0.441777,-0.722432,0.101728,-0.505412
844,0.264582,0.868751,-0.41865,-0.407435,3.43406,0.308009
845,0.249405,0.906575,-0.34047,0.98822,3.661876,0.239639
846,0.198341,0.939394,-0.279641,1.944511,1.335539,0.489876
847,0.159874,0.967876,-0.194054,1.18206,-1.084361,0.46679
848,0.120652,0.987515,-0.101282,0.914856,0.012852,0.105997
849,0.059181,0.998244,-0.002707,1.122124,1.073,-0.037225
850,0.014977,0.995469,0.093895,0.1034619999999999,0.851973,-0.154671
851,-0.013753,0.980975,0.193646,-0.476787,0.0571259999999999,-0.757825
852,-0.052577,0.963971,0.260761,-0.466801,0.139301,-0.704807
853,-0.084549,0.947069,0.309697,-0.444076,0.469084,-0.338353
854,-0.11515,0.937912,0.327204,0.202141,-0.401352,-0.13032
855,-0.1325,0.936322,0.325185,0.4587779999999999,-0.744183,-0.199651
856,-0.127598,0.945264,0.300325,1.03185,-1.327802,-0.8711559999999999
857,-0.087451,0.964866,0.247763,0.682345,-0.402991,-0.717581
858,-0.042363,0.982931,0.179031,0.4971359999999999,-0.4609279999999999,-0.475021
859,-0.010641,0.995164,0.097647,0.188498,-0.353364,0.027277
860,0.017471,0.999846,-0.001802,0.4286649999999999,0.526552,0.085496
861,0.026918,0.986907,-0.159031,0.957075,2.059877,-0.0958519999999999
862,0.020467,0.950488,-0.310087,-0.232519,2.361432,1.072447
863,0.019396,0.909105,-0.416116,-1.288653,0.739409,-0.856253
864,0.03876,0.872934,-0.486297,-0.686922,0.821891,-0.6392369999999999
865,0.0749399999999999,0.8415969999999999,-0.534882,-0.328191,0.979464,-0.16484
866,0.102332,0.8263370000000001,-0.553801,0.088082,0.247241,0.171935
867,0.139139,0.8302139999999999,-0.539801,0.051276,0.243364,0.157935
868,0.162888,0.846153,-0.507437,0.0182039999999999,-2.079597,0.169684
869,0.1622819999999999,0.8658540000000001,-0.473246,-0.4431199999999999,-1.568369,0.432184
870,0.132041,0.8788739999999999,-0.458416,-0.412879,-1.581389,0.417355
871,0.098436,0.892457,-0.440263,-0.619432,-1.975083,0.930803
872,0.1042319999999999,0.910642,-0.399834,-0.323028,-0.906629,0.6717920000000001
873,0.135458,0.926399,-0.351335,-0.354254,-0.922386,0.623293
874,0.170753,0.930876,-0.322976,-0.293006,-0.410948,-0.019874
875,0.206277,0.920333,-0.332321,-0.33024,-0.136992,0.669952
876,0.239583,0.901796,-0.359672,-0.522435,-0.1011519999999999,0.749046
877,0.265994,0.8890319999999999,-0.372652,-0.7701899999999999,4.521765,0.18152
878,0.254096,0.922103,-0.291825,0.739953,3.1040810000000003,0.7011270000000001
879,0.2269139999999999,0.948187,-0.222377,1.716979,1.123163,0.3889579999999999
880,0.197214,0.971075,-0.1346119999999999,1.207266,-0.8163199999999999,-0.161011
881,0.153426,0.986813,-0.0515789999999999,0.8545389999999999,-0.267621,0.370061
882,0.09767,0.994391,0.040596,1.027605,0.557733,0.018852
883,0.036732,0.990558,0.132079,0.654567,1.7980009999999995,-0.283965
884,0.003283,0.973605,0.2282159999999999,-0.4592,0.042844,-0.923666
885,-0.038392,0.95404,0.297209,-0.321502,-0.025543,-0.967787
886,-0.076568,0.93729,0.340037,-0.226502,0.333294,-0.422602
887,-0.111089,0.92828,0.354902,0.249486,-0.33421,-0.240385
888,-0.134545,0.928206,0.346887,0.451226,-0.740294,-0.117075
889,-0.133039,0.934819,0.329264,0.97151,-1.666386,-0.732584
890,-0.088721,0.954043,0.286236,0.657813,-0.4556449999999999,-0.889553
891,-0.03251,0.975468,0.217728,0.346032,-0.399433,-0.5100399999999999
892,0.010462,0.990677,0.135828,0.098195,-0.256211,-0.115534
893,0.046925,0.99835,0.033096,0.322429,0.6019770000000001,-0.1836549999999999
894,0.0637539999999999,0.989683,-0.1283089999999999,0.927136,2.562975,-0.29172
895,0.051498,0.955351,-0.29095,-0.63385,1.941347,0.795466
896,0.0515169999999999,0.911233,-0.4086579999999999,-1.126529,0.789237,-0.055789
897,0.076791,0.8709520000000001,-0.485331,-1.02691,1.067556,-0.8914690000000001
898,0.120477,0.8302709999999999,-0.544184,-0.127618,1.238501,-0.343969
899,0.147949,0.801902,-0.5788479999999999,0.323945,0.959497,0.345541
900,0.165725,0.801883,-0.574037,0.338791,0.060528,0.1816569999999999
901,0.165677,0.823407,-0.5427270000000001,-0.047757,-2.186154,0.208071
902,0.157721,0.8524219999999999,-0.4984979999999999,-0.376791,-1.599721,0.3402489999999999
903,0.126057,0.8734719999999999,-0.470272,-0.680409,-1.562941,0.344005
904,0.0848049999999999,0.8890819999999999,-0.449823,-0.471707,-1.805205,0.790583
905,0.074001,0.903685,-0.421756,-0.223782,-1.23329,0.90018
906,0.096369,0.916571,-0.388087,-0.240992,-0.954794,0.818812
907,0.139516,0.923624,-0.357006,-0.144353,-0.412821,-0.065403
908,0.190654,0.917553,-0.3489219999999999,-0.217006,-0.274151,0.594223
909,0.245727,0.904627,-0.348236,-0.730453,-0.1887609999999999,0.174576
910,0.266733,0.886825,-0.377352,-1.348459,1.683243,0.2434869999999999
911,0.245799,0.908563,-0.33778,0.4404659999999999,3.777182,0.544064
912,0.2127119999999999,0.941181,-0.262549,1.598186,1.459591,0.495597
913,0.188203,0.965935,-0.17762,1.35057,-0.743691,-0.195442
914,0.147253,0.984409,-0.096206,0.7397859999999999,-0.1270329999999999,0.350616
915,0.088213,0.996098,-0.002726,0.798826,-0.138722,0.257136
916,0.0273759999999999,0.99494,0.096666,0.5743689999999999,1.775659,-0.221833
917,-0.005081,0.980678,0.195563,-0.43837,0.033848,-0.917319
918,-0.045265,0.962479,0.267555,-0.398186,0.052048,-0.989311
919,-0.0771879999999999,0.947273,0.3109929999999999,-0.560232,0.363457,-0.6436189999999999
920,-0.108463,0.940624,0.321655,0.3014409999999999,-0.474834,-0.1041859999999999
921,-0.13046,0.941043,0.31212,0.514555,-0.887133,-0.1112829999999999
922,-0.128377,0.94987,0.285073,0.8983049999999999,-1.357508,-0.6510090000000001
923,-0.093167,0.967381,0.235573,0.552655,-0.52689,-0.703041
924,-0.048533,0.984814,0.16669,0.5080210000000001,-0.544324,-0.634158
925,-0.015704,0.99619,0.085785,0.2364679999999999,-0.646367,-0.040772
926,0.005129,0.999925,-0.011075,0.214155,0.260542,-0.047671
927,0.009474,0.988367,-0.15179,0.6916979999999999,1.7169849999999998,-0.476475
928,-0.016761,0.947922,-0.318063,-0.027139,2.100754,1.001076
929,-0.018824,0.902884,-0.429472,-1.174505,0.351953,-0.651826
930,0.00132,0.864728,-0.502239,-1.0750959999999998,0.784488,-0.712895
931,0.032116,0.831676,-0.5543319999999999,-0.176708,1.382375,-0.469426
932,0.064148,0.815988,-0.574498,0.167969,0.44187,-0.081187
933,0.090063,0.828675,-0.552437,0.051431,0.109009,0.076089
934,0.10989,0.846101,-0.521573,-0.117199,-2.439851,0.189618
935,0.120369,0.86451,-0.487989,-0.387276,-1.592553,0.4418609999999999
936,0.11143,0.878384,-0.464784,-0.578471,-1.570065,0.5069600000000001
937,0.090171,0.889343,-0.4482609999999999,-0.443992,-1.509247,0.8619879999999999
938,0.0833049999999999,0.902287,-0.423012,-0.2344889999999999,-1.124165,0.902504
939,0.099453,0.913869,-0.39364,-0.292797,-0.921132,0.7942140000000001
940,0.132318,0.921878,-0.364189,-0.362619,-0.612032,-0.057152
941,0.173812,0.92386,-0.340986,-0.123672,-0.495149,0.168042
942,0.2180239999999999,0.919245,-0.327802,-0.584281,-0.358484,0.591245
943,0.257535,0.902516,-0.345168,-0.805295,1.070659,0.389403
944,0.27515,0.909522,-0.3115489999999999,-0.121417,5.339898000000001,-0.300786
945,0.254496,0.937524,-0.237236,1.0630700000000002,1.809806,1.012657
946,0.246525,0.955476,-0.162148,1.153652,-0.8933110000000001,-0.45861
947,0.208727,0.974318,-0.08448,0.969282,-1.069075,0.498192
948,0.1525369999999999,0.988264,-0.008157,0.864828,-0.590284,0.516183
949,0.079243,0.992893,0.08879,0.893444,1.592358,-0.296432
950,0.038223,0.981564,0.187271,0.1502079999999999,1.407382,-0.101029
951,0.004174,0.959449,0.281851,-0.489709,0.6567310000000001,-0.910116
952,-0.039603,0.941211,0.335488,-0.664331,0.382443,-0.834375
953,-0.077329,0.927901,0.36472,-0.0031609999999999,0.106264,-0.185719
954,-0.110659,0.926474,0.359723,0.287935,-0.2491519999999999,-0.185132
955,-0.129102,0.931964,0.338785,0.854367,-1.541324,-0.47445
956,-0.1119589999999999,0.947024,0.301016,0.744741,-0.681231,-0.822363
957,-0.066888,0.967785,0.24273,0.4504939999999999,-0.4983329999999999,-0.575082
958,-0.021262,0.985119,0.170553,0.23725,-0.657772,-0.199606
959,0.014558,0.996335,0.08429,0.202849,-0.552625,0.272125
960,0.04324,0.998743,-0.025347,0.178653,0.452536,-0.051465
961,0.048744,0.977993,-0.202864,1.710289,5.578861,-0.116564
962,0.053008,0.937156,-0.344861,-0.382202,2.095986,1.1240059999999998
963,0.063076,0.8928459999999999,-0.4459229999999999,-1.333477,0.410774,0.057236
964,0.0845139999999999,0.857082,-0.5082,-0.482189,1.043034,-0.671305
965,0.117622,0.8264809999999999,-0.5505399999999999,-0.1055369999999999,1.1548120000000002,-0.219769
966,0.141198,0.816999,-0.559084,0.145347,1.145296,0.0876639999999999
967,0.169296,0.8271959999999999,-0.535804,-0.05307,-1.3299729999999998,0.14318
968,0.185473,0.8489979999999999,-0.494775,-0.258974,-1.898452,0.381646
969,0.1751319999999999,0.8705430000000001,-0.459873,-0.527656,-1.723372,0.406163
970,0.136928,0.8894479999999999,-0.436043,-0.6547350000000001,-1.811567,0.8680190000000001
971,0.115139,0.90735,-0.404301,-0.29388,-1.294709,0.959386
972,0.1262569999999999,0.924189,-0.360464,-0.473471,-1.06875,0.64852
973,0.151554,0.935281,-0.319813,-0.451756,-0.603418,0.030705
974,0.183059,0.937526,-0.295861,-0.034087,-0.213436,0.004251
975,0.216507,0.9299,-0.2973389999999999,-0.309372,-0.411422,1.02207
976,0.25176,0.924095,-0.287516,-1.241491,-0.15786,-0.686117
977,0.259021,0.908615,-0.327608,-1.54169,5.742203,0.605302
978,0.226805,0.935564,-0.270702,-0.097288,3.946486,0.50764
979,0.233061,0.956332,-0.176388,1.664065,0.028547,-0.060886
980,0.224003,0.971261,-0.080467,1.354641,-0.668389,-0.21534
981,0.179404,0.983763,-0.004898,1.262307,-0.595458,0.2293849999999999
982,0.119099,0.989266,0.084662,0.76205,0.875358,-0.255377
983,0.059261,0.98162,0.181414,-0.104304,1.821878,0.006421
984,0.023496,0.961494,0.273819,-0.7335020000000001,1.137276,-0.37558
985,-0.0255169999999999,0.943233,0.33115,-0.698314,0.304096,-1.166828
986,-0.072052,0.9316,0.356271,-0.036499,0.12237,-0.427942
987,-0.111104,0.93194,0.345173,0.324163,-0.180673,-0.303944
988,-0.13358,0.938642,0.317973,0.777578,-1.50482,-0.219218
989,-0.11771,0.949856,0.289686,1.061328,-1.569348,-0.808439
990,-0.067994,0.967896,0.241981,0.880448,-0.995148,-0.954033
991,-0.015345,0.984759,0.173249,0.16833,-0.616442,-0.446518
992,0.0278089999999999,0.995339,0.092345,0.207344,-0.71212,0.133882
993,0.0602929999999999,0.998135,-0.009536,0.123941,-0.4113739999999999,0.293213
994,0.075695,0.982564,-0.169821,1.873173,5.574275,-0.8534950000000001
995,0.071181,0.940239,-0.332993,0.203782,2.6047290000000003,1.295121
996,0.076103,0.8901020000000001,-0.449363,-0.96241,0.380818,0.6043
997,0.099895,0.8433129999999999,-0.528057,-0.626491,1.289118,-0.687107
998,0.131955,0.796057,-0.590662,-0.2299469999999999,1.460688,-0.164328
999,0.15671,0.7636850000000001,-0.6262810000000001,0.094084,1.425357,-0.102204
1000,0.156047,0.761939,-0.628568,0.034611,-1.231452,0.329237
1001,0.146809,0.7833439999999999,-0.604002,-0.203648,-1.982304,0.4957109999999999
1002,0.132437,0.8130470000000001,-0.5669350000000001,-0.189276,-2.012006,0.4586439999999999
1003,0.0971669999999999,0.839817,-0.5341020000000001,-0.585723,-1.718388,0.677077
1004,0.0699429999999999,0.8598540000000001,-0.505726,-0.324292,-1.363211,0.970401
1005,0.075878,0.878784,-0.47115,-0.330227,-1.38214,0.935826
1006,0.108569,0.891474,-0.43987,-0.454409,-0.600108,0.436803
1007,0.1547599999999999,0.8931469999999999,-0.422302,-0.2061059999999999,-0.390186,-0.121445
1008,0.207413,0.883975,-0.419009,-0.3609469999999999,-0.517764,0.629183
1009,0.26004,0.875876,-0.406472,-1.132598,-0.1257849999999999,-0.62815
1010,0.292332,0.85564,-0.427108,-1.42516,3.906277,0.520981
1011,0.310325,0.8850129999999999,-0.34706,-0.103767,5.267148000000001,-0.037355
1012,0.273581,0.923742,-0.268054,1.700357,0.693872,0.3709139999999999
1013,0.250588,0.949924,-0.1866799999999999,1.137092,-0.918308,0.130849
1014,0.214373,0.970364,-0.111521,1.120511,-0.783307,0.488077
1015,0.155103,0.987397,-0.031462,1.043978,0.252822,0.156462
1016,0.080101,0.99473,0.063994,0.617226,1.737875,0.182374
1017,0.037908,0.985772,0.1637549999999999,0.18513,1.116339,-0.1193369999999999
1018,-0.006712,0.969909,0.243376,-0.304842,-0.087462,-1.069548
1019,-0.046317,0.955019,0.292906,-0.477547,0.37364,-0.601088
1020,-0.081653,0.942629,0.323702,-0.223233,0.1625339999999999,-0.311311
1021,-0.110718,0.938867,0.32599,0.790925,-1.370706,-0.235582
1022,-0.1207039999999999,0.942268,0.312347,0.907615,-1.682305,-0.4575649999999999
1023,-0.097312,0.955849,0.277278,0.983374,-1.458474,-0.6801550000000001
1024,-0.048549,0.974212,0.220349,0.2873489999999999,-0.570312,-0.515087
1025,-0.002821,0.988735,0.149652,0.189985,-0.677013,-0.03834
1026,0.032706,0.997344,0.065082,-0.1243799999999999,-0.279143,-0.017185
1027,0.065439,0.996809,-0.045719,0.31983,0.747912,-0.225903
1028,0.072372,0.972805,-0.22003,0.480606,4.979115,0.235594
1029,0.075218,0.927742,-0.365564,-0.057685,3.719185,0.798914
1030,0.091304,0.8816799999999999,-0.462931,-0.707454,0.469563,-0.5558069999999999
1031,0.121689,0.83572,-0.535503,-0.08577,1.22945,-0.4368479999999999
1032,0.152201,0.791917,-0.591357,-0.177271,1.494552,-0.425168
1033,0.17114,0.775016,-0.6083270000000001,0.124164,0.433602,0.113973
1034,0.176291,0.784848,-0.594083,-0.124579,-2.184888,0.204282
1035,0.173966,0.8128,-0.55596,-0.189988,-2.398631,0.04235
1036,0.159402,0.8425239999999999,-0.514533,-0.4842609999999999,-1.551188,0.362556
1037,0.117405,0.862492,-0.492264,-0.529453,-1.716298,0.783203
1038,0.091316,0.8767469999999999,-0.472203,-0.5662,-1.785683,0.8851969999999999
1039,0.104551,0.891956,-0.4398689999999999,-0.317778,-0.881519,0.956455
1040,0.138777,0.902068,-0.408673,-0.39485,-0.6537310000000001,0.444913
1041,0.184862,0.901908,-0.390368,-0.297274,-0.43856,-0.0444
1042,0.238146,0.893561,-0.380571,-0.304293,-0.606559,0.683717
1043,0.282734,0.89446,-0.346415,-1.064014,-0.088857,-1.625708
1044,0.285433,0.876109,-0.388538,-1.373309,1.485693,0.6257659999999999
1045,0.269919,0.8999090000000001,-0.342503,-0.372595,3.989694,0.001485
1046,0.257155,0.9333,-0.250646,2.01938,0.699101,0.520986
1047,0.262123,0.952337,-0.15603,1.585442,-0.648947,-0.6687069999999999
1048,0.2372369999999999,0.968647,-0.073763,1.101813,-0.483479,0.1575339999999999
1049,0.186978,0.98236,0.002856,0.922931,0.176499,0.1918
1050,0.119379,0.988255,0.095399,0.99053,0.170604,0.099258
1051,0.07143,0.980351,0.183874,0.070523,1.312831,0.111078
1052,0.03739,0.960873,0.274456,-0.860129,0.2775309999999999,-0.897853
1053,-0.003339,0.944912,0.327309,-0.8194,0.293492,-0.950707
1054,-0.043085,0.934626,0.353012,-0.280157,0.313711,-0.328873
1055,-0.079722,0.933474,0.349671,0.548686,-0.867816,-0.300614
1056,-0.100131,0.937203,0.334101,0.569094,-0.8715450000000001,-0.285044
1057,-0.087811,0.950609,0.29771,1.047116,-0.864641,-0.7364609999999999
1058,-0.044735,0.970126,0.238441,0.602093,-0.49248,-0.682533
1059,-0.0012439999999999,0.986897,0.161345,0.362954,-0.496098,-0.512969
1060,0.033319,0.997072,0.068832,0.133704,-0.217042,0.359757
1061,0.0612789999999999,0.996862,-0.05011,0.729553,2.285883,-0.543884
1062,0.067389,0.96918,-0.236956,1.7545560000000002,5.111722,-0.033079
1063,0.068093,0.919403,-0.387378,-1.27279,0.627579,0.049899
1064,0.086376,0.8675129999999999,-0.489857,-1.488552,1.150462,-0.973568
1065,0.116143,0.818919,-0.562034,-0.591958,1.379872,-0.822182
1066,0.15541,0.7718470000000001,-0.6165229999999999,-0.1894829999999999,1.351444,-0.412988
1067,0.183521,0.746777,-0.639253,0.463528,0.7300449999999999,0.340073
1068,0.194241,0.749301,-0.633102,0.153828,-1.062335,0.542374
1069,0.198699,0.772618,-0.6029760000000001,-0.3674,-1.834584,0.29867
1070,0.190775,0.808579,-0.556602,-0.586893,-1.566559,0.12757
1071,0.154029,0.8377979999999999,-0.523804,-0.579871,-1.551451,0.436554
1072,0.116596,0.8565950000000001,-0.5026430000000001,-0.595248,-1.304792,0.905292
1073,0.1115299999999999,0.8712219999999999,-0.478051,-0.343555,-0.795661,0.7389
1074,0.127457,0.881339,-0.454968,-0.408417,-0.7219770000000001,0.655712
1075,0.161368,0.882015,-0.44273,-0.199271,-0.651378,0.0697899999999999
1076,0.208725,0.877851,-0.431058,-0.3486329999999999,-1.032591,1.058423
1077,0.259966,0.880948,-0.395408,-0.8298059999999999,-0.874433,1.6792220000000002
1078,0.283666,0.8647379999999999,-0.414442,-1.506765,2.401986,0.865309
1079,0.26464,0.891962,-0.366565,0.4375229999999999,5.1805330000000005,0.353213
1080,0.2426579999999999,0.928965,-0.279537,2.136889,1.755636,0.936657
1081,0.248008,0.949016,-0.194577,1.546822,-0.921703,-0.225985
1082,0.221792,0.965799,-0.134316,1.231363,-0.791147,0.503304
1083,0.165352,0.983993,-0.066462,0.997917,-0.4112229999999999,0.21319
1084,0.093832,0.99521,0.02743,0.504084,1.3508440000000002,-0.2149
1085,0.045738,0.991749,0.1197579999999999,0.175042,1.289318,-0.071387
1086,0.002366,0.97868,0.205377,-0.212357,0.183796,-1.1122530000000002
1087,-0.036023,0.965474,0.257995,-0.916584,0.329478,-0.789977
1088,-0.066332,0.956576,0.283835,-0.087355,-0.024722,-0.178336
1089,-0.089152,0.958197,0.271865,0.437602,-0.689078,-0.02803
1090,-0.094664,0.964691,0.245785,0.751616,-1.606842,-0.314648
1091,-0.070787,0.976468,0.203715,0.551485,-0.731839,-0.66772
1092,-0.024141,0.989676,0.141272,0.504839,-0.7450479999999999,-0.6052770000000001
1093,0.016237,0.997706,0.065719,0.0869429999999999,-0.670313,-0.309921
1094,0.045261,0.998703,-0.023339,-0.052509,-0.265884,0.170128
1095,0.067375,0.988544,-0.1350589999999999,0.104317,0.206433,0.024722
1096,0.067339,0.950119,-0.304532,1.419264,4.307663,-0.77457
1097,0.066079,0.8930440000000001,-0.4450909999999999,0.225028,2.7781290000000003,0.861808
1098,0.080489,0.841726,-0.533872,-1.022993,0.22375,-0.713854
1099,0.102353,0.797673,-0.594342,0.103747,1.621959,-0.573734
1100,0.117943,0.763776,-0.6346149999999999,0.0289839999999999,1.800022,-0.3734409999999999
1101,0.122208,0.762109,-0.635811,0.213623,0.61077,0.044197
1102,0.116639,0.7866989999999999,-0.606218,-0.480332,-2.675112,0.2403269999999999
1103,0.123164,0.813852,-0.567869,-0.348857,-1.699671,0.335707
1104,0.120277,0.840733,-0.527921,-0.480232,-1.503606,0.360914
1105,0.0909799999999999,0.857851,-0.505781,-0.490409,-1.514055,0.719587
1106,0.073686,0.868376,-0.490402,-0.346986,-1.312315,0.803649
1107,0.093424,0.8815940000000001,-0.462671,-0.325465,-1.062395,0.8684940000000001
1108,0.13795,0.8936139999999999,-0.427112,-0.4967,-0.764402,0.3577909999999999
1109,0.187463,0.9003329999999999,-0.392757,-0.313867,-0.483875,0.175274
1110,0.230868,0.900501,-0.368507,-0.291613,-0.478809,0.276924
1111,0.26452,0.9007,-0.344629,-1.043527,-0.344578,0.165735
1112,0.274932,0.882124,-0.382452,-0.989471,2.590075,0.871374
1113,0.282303,0.8916639999999999,-0.3538929999999999,-0.966309,5.699004,0.727901
1114,0.275471,0.92161,-0.273405,1.705653,0.161108,0.29463
1115,0.291939,0.935699,-0.1980869999999999,1.128105,-0.793289,-0.603762
1116,0.268588,0.955129,-0.124857,0.994092,-0.949987,-0.256994
1117,0.215113,0.974632,-0.061795,0.618933,-0.071098,0.405453
1118,0.142766,0.989533,0.021016,0.5463210000000001,1.1741629999999998,-0.242726
1119,0.090285,0.99021,0.1064529999999999,0.528673,1.516793,-0.035317
1120,0.05876,0.976934,0.2052969999999999,-0.456602,0.2317449999999999,-0.8814139999999999
1121,0.015412,0.96268,0.270202,-0.725892,0.207715,-0.970993
1122,-0.0212639999999999,0.950752,0.309221,-0.6050939999999999,0.4242479999999999,-0.7394890000000001
1123,-0.051735,0.948025,0.313961,0.296547,-0.521313,-0.02435
1124,-0.070452,0.951578,0.299225,0.529482,-1.276545,-0.299606
1125,-0.063919,0.96024,0.271761,0.622025,-1.607686,-0.395387
1126,-0.026912,0.974055,0.224705,0.491145,-0.680659,-0.768879
1127,0.017143,0.987293,0.1579819999999999,0.202538,-0.609165,-0.356163
1128,0.051595,0.99567,0.077325,0.181514,-0.4780609999999999,0.163687
1129,0.081475,0.996478,-0.019831,0.010962,0.076489,-0.091528
1130,0.0962669999999999,0.981154,-0.167538,1.152146,3.439851,-0.651004
1131,0.08525,0.942299,-0.323735,1.078462,5.382179,0.5056350000000001
1132,0.084573,0.900661,-0.426212,-1.18461,0.20377,-0.437145
1133,0.0974299999999999,0.86516,-0.49194,-0.326266,1.214185,-0.451343
1134,0.130456,0.829623,-0.542868,-0.359292,1.249722,-0.400415
1135,0.169207,0.8038310000000001,-0.570284,0.157331,1.023668,-0.006681
1136,0.202717,0.8012739999999999,-0.562909,0.222332,-1.103474,0.167065
1137,0.217389,0.8123819999999999,-0.54109,0.104297,-2.1248970000000003,0.106031
1138,0.214278,0.835045,-0.506739,-0.079711,-1.829888,0.149989
1139,0.186608,0.8563629999999999,-0.481477,-0.580987,-1.6600279999999998,0.694871
1140,0.146209,0.872469,-0.466284,-0.540587,-1.676134,0.679678
1141,0.128914,0.889739,-0.4378869999999999,-0.38282,-1.477218,0.8625700000000001
1142,0.144817,0.90519,-0.399573,-0.484127,-0.706978,0.458503
1143,0.180347,0.912472,-0.367247,-0.5196569999999999,-0.71426,0.426176
1144,0.232923,0.906737,-0.351532,-0.18794,-0.448683,0.4317479999999999
1145,0.2952639999999999,0.898126,-0.325866,-0.910315,-0.5277649999999999,1.473861
1146,0.341677,0.896062,-0.283426,-1.239199,-0.382146,0.081949
