,gravity.x,gravity.y,gravity.z,userAcceleration.x,userAcceleration.y,userAcceleration.z
0,0.294919,0.902792,-0.313032,-1.326078,0.07728,0.753706
1,0.295322,0.903768,-0.30982,-1.571048,-0.8559469999999999,0.7283689999999999
2,0.266642,0.912161,-0.311229,-1.493952,-1.258582,1.140529
3,0.2400429999999999,0.931912,-0.271882,-1.0874700000000002,-1.879009,0.696367
4,0.200342,0.950802,-0.236304,0.6913060000000001,-0.645885,0.19979
5,0.135922,0.973411,-0.184382,0.657978,-0.585746,0.382273
6,0.047977,0.993002,-0.107917,-0.089527,-0.370672,0.804618
7,-0.038053,0.998723,-0.033232,-0.671114,1.650599,-0.434572
8,-0.153687,0.98681,0.050861,-0.801346,1.522498,-0.584903
9,-0.300684,0.943891,0.136599,-2.744543,4.120257,0.665708
10,-0.436846,0.871059,0.224548,-2.503034,5.395436,0.094285
11,-0.5294479999999999,0.8027340000000001,0.274414,-0.07007,3.544877,-0.972748
12,-0.612815,0.73761,0.28353,1.277808,0.611648,-0.8908450000000001
13,-0.672922,0.684462,0.280513,1.31634,0.393465,-0.730632
14,-0.7143510000000001,0.650529,0.257904,1.549968,-0.4453899999999999,-0.648026
15,-0.7252109999999999,0.646544,0.236749,1.93508,-1.630095,-0.910439
16,-0.699743,0.678562,0.223413,2.3965970000000003,-1.941516,-0.8175600000000001
17,-0.640324,0.740291,0.204828,2.446126,-2.17834,-0.857126
18,-0.56624,0.805279,0.175781,2.5707560000000003,-1.245342,-0.188964
19,-0.5081180000000001,0.84783,0.151662,0.956574,-0.720892,-0.19138
20,-0.447549,0.879926,0.159466,0.477487,-0.525663,-0.029095
21,-0.418792,0.886273,0.197823,-1.3845379999999998,2.332157,2.674873
22,-0.465005,0.8836229999999999,0.0545929999999999,-0.78591,1.812666,-1.20004
23,-0.489511,0.866685,-0.096104,-0.119925,0.7459859999999999,-1.818432
24,-0.462329,0.8865620000000001,0.016116,2.756518,0.697254,5.544126
25,-0.383831,0.923241,0.01729,0.8684200000000001,2.19831,-3.413363
26,-0.355837,0.933938,0.033761,0.321718,1.7888400000000002,-2.31025
27,-0.356098,0.933626,-0.039189,-0.526241,-0.428332,-0.774898
28,-0.277863,0.953388,-0.117655,0.125489,-1.544087,-0.4155939999999999
29,-0.114522,0.986826,-0.114275,-0.040721,-0.756953,-0.486967
30,0.0312089999999999,0.992735,-0.1162059999999999,-2.540913,5.542009999999999,0.747585
31,0.093329,0.98279,-0.159415,-2.804632,1.595182,0.8428100000000001
32,0.137349,0.969521,-0.202889,-0.9502,0.264045,1.033089
33,0.15913,0.955312,-0.249111,-0.182277,-0.234197,-0.031971
34,0.164366,0.940959,-0.29594,-0.374205,-0.505793,0.455348
35,0.15834,0.940086,-0.301939,-1.197524,-1.477287,0.839781
36,0.123645,0.95327,-0.27566,-1.628848,-1.928474,1.224695
37,0.064011,0.973913,-0.217704,-0.942277,-1.09281,1.154075
38,-0.00794,0.988008,-0.154201,0.735708,0.046264,0.640591
39,-0.098372,0.992128,-0.077488,0.508177,-0.4857039999999999,0.370106
40,-0.20339,0.979028,0.011687,0.258291,-0.382226,0.0014199999999999
41,-0.316779,0.941556,0.114561,-0.561929,1.18085,-0.769331
42,-0.441677,0.873865,0.203179,-2.395405,6.438193,0.15815
43,-0.5561550000000001,0.798058,0.231936,-2.085111,6.774817,-0.130435
44,-0.65772,0.715726,0.234819,-0.072901,2.046969,-0.471865
45,-0.7320760000000001,0.641284,0.229826,1.222432,0.7307560000000001,-0.686567
46,-0.7737539999999999,0.597009,0.21186,1.536419,0.258216,-0.656776
47,-0.788876,0.580099,0.202876,1.327115,-1.225851,-0.7404890000000001
48,-0.772922,0.5942430000000001,0.222413,1.609225,-1.904378,-0.81482
49,-0.7302420000000001,0.641127,0.236013,1.7826259999999998,-2.108687,-0.684026
50,-0.664845,0.714478,0.217952,2.123875,-2.415115,-0.638027
51,-0.586658,0.78815,0.186147,2.869419,-1.383579,-0.038747
52,-0.527049,0.836169,0.151792,1.160502,-0.494067,-0.0002569999999999
53,-0.4685,0.870967,0.14807,0.83201,-0.126521,0.19301
54,-0.425155,0.8892399999999999,0.1688059999999999,-0.514817,1.953137,2.568636
55,-0.443088,0.88905,0.115168,-0.549755,1.519459,-0.579386
56,-0.47179,0.8799030000000001,-0.056441,-0.324185,0.8792530000000001,-0.852723
57,-0.456549,0.8787299999999999,-0.139276,1.243551,1.136041,-1.341636
58,-0.444864,0.888294,-0.114145,0.8523040000000001,0.780239,-0.45841
59,-0.435883,0.896432,-0.0801,0.74344,-0.017037,0.391135
60,-0.416972,0.904272,-0.091791,0.283992,-0.8237209999999999,-0.546393
61,-0.324608,0.934689,-0.144865,0.273811,-1.11131,-0.865358
62,-0.144893,0.97441,-0.171845,0.046779,-0.3543389999999999,-0.938415
63,0.0282259999999999,0.98642,-0.161799,-0.316205,5.335968,0.660136
64,0.127959,0.966829,-0.221063,-1.098708,2.500655,0.906518
65,0.191011,0.940193,-0.28205,-1.157122,1.223916,0.830253
66,0.244321,0.915838,-0.318667,-0.284665,0.208857,1.40433
67,0.284172,0.897144,-0.3381989999999999,-1.259956,0.155193,0.2165099999999999
68,0.294406,0.886394,-0.357255,-1.569796,0.030293,0.419358
69,0.273486,0.890503,-0.363608,-2.07152,-1.535614,1.211676
70,0.232864,0.908068,-0.34812,-1.650955,-1.883455,1.338888
71,0.1995549999999999,0.933324,-0.298469,0.093306,-0.930196,0.04586
72,0.164009,0.953104,-0.25435,0.8227770000000001,-0.674005,0.687196
73,0.10206,0.97644,-0.190126,0.291937,-0.771652,0.683656
74,0.024306,0.993036,-0.115274,-0.503692,0.212194,-0.175299
75,-0.066434,0.997299,-0.031324,-1.14606,1.976883,-0.0947279999999999
76,-0.201728,0.977935,0.05431,-2.1797720000000003,3.551606,0.5227930000000001
77,-0.340397,0.92812,0.15074,-1.392849,4.46461,-0.236814
78,-0.443957,0.863819,0.238156,-0.000882,3.68037,-0.759366
79,-0.535112,0.798269,0.276444,1.164476,1.998865,-0.867066
80,-0.6134310000000001,0.7378239999999999,0.2816349999999999,1.523572,0.939925,-1.006442
81,-0.6683100000000001,0.687172,0.28488,1.377447,-0.326531,-0.539213
82,-0.704425,0.656129,0.270702,1.426501,-1.660249,-0.513302
83,-0.7079880000000001,0.659755,0.251945,1.422816,-1.854046,-0.590721
84,-0.678836,0.701395,0.217317,2.072085,-1.951197,-0.378602
85,-0.621537,0.77154,0.13571,2.828034,-1.6765849999999998,-1.162977
86,-0.5493640000000001,0.8303280000000001,0.093561,2.686251,-1.6291719999999998,-0.547632
87,-0.4799779999999999,0.871749,0.098361,1.243513,-1.119338,-0.2111239999999999
88,-0.410729,0.903257,0.124214,-0.518455,-0.054883,2.549386
89,-0.375764,0.91713,0.132941,-2.413802,1.355529,0.825936
90,-0.418914,0.907855,0.017628,-0.955002,1.81291,-1.056522
91,-0.455182,0.8866280000000001,-0.081858,-0.169727,0.674316,-0.58959
92,-0.437006,0.898442,0.04275,2.380441,0.637538,6.191488
93,-0.38465,0.922883,0.018216,1.098654,1.624725,-3.843533
94,-0.3554239999999999,0.9322,0.06838,0.52733,0.025914,-1.993399
95,-0.333519,0.941498,0.04845,0.285545,-1.133652,-0.835285
96,-0.254362,0.965211,-0.060559,-0.333208,-0.469575,0.064572
97,-0.064515,0.996271,-0.05728,-0.8393700000000001,3.561361,-0.7145560000000001
98,0.089009,0.992719,-0.081159,-1.353627,6.267108,0.246061
99,0.172395,0.972687,-0.155437,-0.801697,0.303528,1.067104
100,0.239393,0.946196,-0.217726,0.072589,-0.107893,1.182372
101,0.280621,0.924002,-0.259752,-0.484646,-0.170539,0.986452
102,0.300528,0.907459,-0.293601,-1.7434759999999998,-0.082355,0.549033
103,0.284228,0.907405,-0.309567,-1.868273,-1.120372,1.155377
104,0.243465,0.922572,-0.299309,-1.7134200000000002,-1.602046,1.351753
105,0.21274,0.945655,-0.245925,0.3154119999999999,-1.218253,0.256164
106,0.1703579999999999,0.964672,-0.200961,0.916327,-0.661068,0.415575
107,0.115184,0.982612,-0.145622,0.759831,-0.6850350000000001,0.6254649999999999
108,0.031909,0.996649,-0.0753139999999999,-0.37485,-0.31629,-0.2710599999999999
109,-0.061732,0.998092,-0.001464,-0.859625,1.175782,-0.645814
110,-0.186954,0.979164,0.079291,-1.269788,2.170998,0.1145569999999999
111,-0.354952,0.924128,0.141406,-2.695875,5.47115,0.157727
112,-0.476412,0.856303,0.199442,-0.688246,2.999837,-0.960673
113,-0.560275,0.794195,0.235256,-0.005994,2.522867,-0.78233
114,-0.627333,0.741862,0.236842,1.638228,0.680288,-0.823665
115,-0.6772229999999999,0.696342,0.2376489999999999,1.325218,-0.737983,-0.533166
116,-0.700795,0.671387,0.2410929999999999,1.414098,-0.8783719999999999,-0.5524789999999999
117,-0.696836,0.674786,0.243069,1.882337,-1.570965,-0.745541
118,-0.6610050000000001,0.71332,0.232909,2.71168,-2.036486,-0.722075
119,-0.592168,0.7836569999999999,0.187667,2.930684,-2.344158,-1.093581
120,-0.5024390000000001,0.8507809999999999,0.1540349999999999,2.509686,-2.422818,0.030154
121,-0.433842,0.893007,0.1196609999999999,1.178334,-1.269533,0.090452
122,-0.38374,0.918125,0.098949,0.284588,-0.377735,0.587864
123,-0.3507369999999999,0.925601,0.142289,-1.309252,1.819211,2.437484
124,-0.393297,0.918757,0.034677,-0.890516,2.429525,-1.104058
125,-0.42757,0.8976059999999999,-0.107178,-0.323254,0.6834479999999999,-1.960556
126,-0.416004,0.906633,-0.070409,1.380176,1.463164,0.991429
127,-0.385878,0.922503,-0.009302,0.706709,0.898618,-1.118383
128,-0.383202,0.923646,0.005876,0.548806,0.261825,-0.447008
129,-0.381532,0.923273,-0.044725,0.129946,-0.614999,0.006182
130,-0.2917619999999999,0.946878,-0.135267,0.915068,-0.19877,-0.8717520000000001
131,-0.109481,0.982971,-0.14759,0.6566770000000001,1.046784,-1.443108
132,0.033748,0.991031,-0.129297,-0.139171,4.310635,-0.812659
133,0.125667,0.970946,-0.203644,-1.712337,0.980866,1.1554870000000002
134,0.186023,0.950277,-0.249739,-0.7617520000000001,0.252467,1.518935
135,0.239353,0.932416,-0.270761,-0.000278,-0.092862,0.98858
136,0.269914,0.919972,-0.284249,-1.380906,-0.5458729999999999,0.753594
137,0.267154,0.921231,-0.282776,-1.605899,-0.8651700000000001,0.849091
138,0.236035,0.933336,-0.270503,-1.827542,-1.508043,0.6395529999999999
139,0.199099,0.953406,-0.2266639999999999,-0.598651,-1.41561,0.40687
140,0.162973,0.968738,-0.187049,0.109473,-0.8776729999999999,0.20272
141,0.1131359999999999,0.983375,-0.142031,0.537086,-0.6637649999999999,0.334307
142,0.040686,0.996017,-0.079343,-0.063895,-0.148162,0.047818
143,-0.034157,0.999409,-0.003843,-0.2070239999999999,0.325786,0.138257
144,-0.115597,0.990729,0.071371,-0.414524,0.425134,-0.557866
145,-0.2013619999999999,0.969189,0.141866,-0.8523639999999999,1.1267280000000002,-0.334493
146,-0.31229,0.925452,0.214506,-1.556561,2.9108970000000003,0.666155
147,-0.440902,0.865751,0.236814,-1.236115,5.082522,-0.361021
148,-0.53364,0.813557,0.230984,1.01655,1.0920530000000002,-0.775509
149,-0.603892,0.764288,0.2262239999999999,1.538585,0.56788,-0.671384
150,-0.6560020000000001,0.725446,0.208301,1.340496,-0.726087,-0.535571
151,-0.6755359999999999,0.712491,0.1897579999999999,1.064208,-1.404523,-0.643845
152,-0.654754,0.730236,0.19507,1.135299,-1.625042,-0.7018449999999999
153,-0.5987359999999999,0.779537,0.183949,2.003735,-1.96014,-1.0260049999999998
154,-0.510704,0.8460290000000001,0.153027,2.260796,-2.417501,-0.697292
155,-0.395623,0.905425,0.153908,2.428491,-2.558944,-0.103432
156,-0.314511,0.940099,0.131518,1.260617,-0.8342940000000001,0.255216
157,-0.274571,0.952838,0.129271,-0.03442,0.427381,1.737123
158,-0.281786,0.95118,0.125912,-0.8932479999999999,2.137672,2.69118
159,-0.363379,0.931448,-0.019005,-1.065592,1.410685,-1.823784
160,-0.388235,0.912727,-0.127292,1.473502,-1.658347,0.015658
161,-0.345928,0.93648,-0.057787,1.958965,-1.471468,4.064211
162,-0.275521,0.961261,-0.008109,0.648751,1.477048,-2.512002
163,-0.242592,0.970123,0.003329,-0.029411,3.229447,-1.346163
164,-0.217088,0.975271,-0.041451,-0.863936,2.589639,2.301979
165,-0.13972,0.983537,-0.114604,0.145823,-0.0496529999999999,-0.8940319999999999
166,0.000396,0.986114,-0.166069,0.60521,1.23996,-1.306053
167,0.106339,0.972157,-0.208815,0.5153800000000001,3.2699700000000003,2.765547
168,0.1738849999999999,0.94808,-0.266286,-2.040523,0.782358,1.109395
169,0.214504,0.92987,-0.298882,-0.53532,0.42003,1.403466
170,0.2433699999999999,0.918117,-0.312782,-1.073906,0.266057,0.781151
171,0.260254,0.914082,-0.311003,-1.1837,-0.2263679999999999,0.611769
172,0.250325,0.917638,-0.308672,-1.157063,-1.169362,0.701784
173,0.218606,0.929747,-0.296281,-1.071633,-1.548247,0.661606
174,0.189253,0.946454,-0.261551,-0.548094,-2.132626,0.675064
175,0.163364,0.962757,-0.2154309999999999,0.718685,-0.929585,0.319344
176,0.103775,0.981716,-0.159577,0.685272,-0.7172810000000001,0.5365
177,0.033812,0.995001,-0.0939639999999999,0.043993,-0.0218259999999999,0.29364
178,-0.031592,0.999388,-0.014986,-0.430749,0.78882,-0.831709
179,-0.108458,0.991857,0.066764,-0.61545,0.941539,-0.3376989999999999
180,-0.219676,0.967267,0.12703,-2.049779,3.127291,0.9841
181,-0.363738,0.915423,0.172323,-2.679841,5.9490940000000005,0.027811
182,-0.454572,0.8664719999999999,0.206375,-0.597247,2.538725,-0.877761
183,-0.524142,0.821166,0.225746,1.431689,0.448426,-0.528709
184,-0.5813,0.783388,0.219984,1.360063,-0.202929,-0.555128
185,-0.6065560000000001,0.76577,0.213741,1.12743,-0.973885,-0.413799
186,-0.607283,0.766289,0.20978,1.1224809999999998,-1.303872,-0.686037
187,-0.579835,0.787609,0.208477,1.4164290000000002,-1.684216,-0.694912
188,-0.52585,0.8311120000000001,0.180928,1.6916669999999998,-1.985089,-0.522831
189,-0.439413,0.8897700000000001,0.123395,2.332983,-2.674316,-0.576902
190,-0.34106,0.936138,0.085575,1.576671,-1.686504,-0.127338
191,-0.279725,0.957782,0.066395,1.042679,-1.103549,-0.342228
192,-0.2376239999999999,0.962453,0.131222,-0.322954,1.994639,3.92319
193,-0.269376,0.950678,0.153779,-1.522693,3.046652,-0.178025
194,-0.391027,0.920366,0.004995,-1.214045,1.294402,-1.564168
195,-0.4368899999999999,0.896767,-0.070264,1.612488,-0.597496,1.154416
196,-0.404089,0.914405,-0.023976,1.381048,1.93258,-0.3876449999999999
197,-0.361367,0.930455,-0.060562,1.124001,1.312312,-1.77124
198,-0.349561,0.936319,-0.033373,0.245603,0.073447,0.829943
199,-0.294227,0.953097,-0.070962,0.083961,-0.299136,-1.129264
200,-0.141949,0.984037,-0.107341,-0.044666,0.426272,-1.020222
201,0.018546,0.991874,-0.125864,-0.8406440000000001,4.340874,0.8364360000000001
202,0.113927,0.972649,-0.202423,-1.258062,1.057533,0.875107
203,0.166358,0.949217,-0.267042,-1.02082,0.091707,1.134596
204,0.208812,0.934044,-0.289756,-0.434902,-0.034325,1.052802
205,0.237763,0.923036,-0.302444,-0.946305,-0.265428,0.914611
206,0.240735,0.923111,-0.299854,-1.282315,-0.499817,0.803913
207,0.2137889999999999,0.935379,-0.281711,-0.982115,-1.550659,0.968539
208,0.178941,0.954832,-0.237226,0.048857,-1.60655,0.062192
209,0.147877,0.968999,-0.197923,0.5522729999999999,-1.040746,-0.002043
210,0.109018,0.983685,-0.1431059999999999,0.754263,-0.727719,0.515146
211,0.0532129999999999,0.995422,-0.079399,-0.035482,-0.182113,0.082878
212,-0.012894,0.999789,-0.01602,0.030625,-0.18648,0.019499
213,-0.090774,0.994612,0.050065,-0.5321819999999999,0.659303,-0.7844399999999999
214,-0.184126,0.977096,0.106678,-1.401125,2.0965580000000004,0.549389
215,-0.310786,0.94029,0.138808,-2.282766,4.107348,0.275102
216,-0.417602,0.8920299999999999,0.172888,-0.683869,3.101317,-0.454352
217,-0.48777,0.84715,0.210753,-0.203957,2.126513,-0.727843
218,-0.54771,0.806268,0.223485,1.17599,0.791632,-0.37293
219,-0.585171,0.780859,0.218709,1.109738,-0.375662,-0.4494979999999999
220,-0.589554,0.7773979999999999,0.219269,0.980636,-0.931573,-0.388748
221,-0.569758,0.792136,0.218851,1.010692,-1.02117,-0.452097
222,-0.527994,0.8261860000000001,0.196567,1.630685,-1.438293,-0.4273869999999999
223,-0.466488,0.875618,0.125228,2.5222130000000003,-2.580986,-0.805999
224,-0.370643,0.927561,0.04748,2.460243,-2.689753,-0.391428
225,-0.29033,0.956799,0.015623,0.354981,-1.201443,-0.053037
226,-0.246382,0.968432,0.037894,-0.316697,-0.1439079999999999,1.251824
227,-0.241733,0.963987,0.1108789999999999,-1.334165,0.67293,2.552512
228,-0.318864,0.946463,0.0503399999999999,-1.487639,1.939356,-0.908006
229,-0.393038,0.91882,-0.035931,-0.00308,2.275104,0.202099
230,-0.428777,0.902834,-0.032267,0.218602,2.941984,-1.046712
231,-0.450293,0.891022,-0.057588,1.033758,-0.55777,-2.012236
232,-0.460509,0.887647,0.003857,1.329238,-1.152753,-1.133236
233,-0.42833,0.903621,0.001853,1.233048,-1.661372,-0.8447479999999999
234,-0.326379,0.943793,-0.0522679999999999,0.650567,-0.002112,-0.561029
235,-0.182747,0.982152,-0.044517,-0.27607,4.256542,1.282066
236,-0.129017,0.989866,-0.059324,-1.181713,5.711702,2.297529
237,-0.151507,0.985115,-0.081205,-1.519879,-0.590217,0.6757029999999999
238,-0.134027,0.988208,-0.074032,0.084986,-0.1228369999999999,-0.477604
239,-0.111029,0.991555,-0.067013,0.1288359999999999,-0.533181,-0.4784279999999999
240,-0.0846659999999999,0.992567,-0.087416,-0.166372,-1.420012,0.565962
241,-0.072057,0.991619,-0.1072369999999999,-0.596522,-1.818249,1.458875
242,-0.098675,0.99222,-0.07591,-0.902103,-1.576403,0.395521
243,-0.165552,0.986012,-0.0193069999999999,-0.665564,-0.237111,0.680516
244,-0.234719,0.971111,0.043028,0.601876,0.111516,0.679888
245,-0.28657,0.952295,0.1049349999999999,0.8635809999999999,0.116675,0.231613
246,-0.333252,0.92783,0.1675569999999999,0.2272949999999999,0.40707,-0.888275
247,-0.392002,0.885915,0.247971,-0.703121,1.952419,0.36589
248,-0.492793,0.822774,0.283192,-1.289342,3.43069,0.289043
249,-0.584519,0.769794,0.256427,0.035767,1.7725650000000002,-0.634738
250,-0.629071,0.730422,0.265996,1.566892,0.765626,-0.057347
251,-0.653036,0.707175,0.271013,1.335638,0.306756,-0.374818
252,-0.667158,0.708051,0.231436,0.906187,-0.807829,-0.109763
253,-0.647998,0.737957,0.188463,0.648379,-0.967816,-0.3785409999999999
254,-0.599062,0.781744,0.173207,0.464632,-1.147803,-0.307469
255,-0.53518,0.8297950000000001,0.158187,0.7878350000000001,-1.694404,-0.110976
256,-0.454793,0.882067,0.12297,1.313955,-1.361803,-0.0413959999999999
257,-0.375384,0.920751,0.106317,1.078769,-0.971502,0.283255
258,-0.330542,0.938498,0.099816,0.229132,0.066095,-0.314111
259,-0.342565,0.934113,0.100412,-0.8635809999999999,0.106171,0.575187
260,-0.403475,0.910579,0.089739,-1.09863,0.121113,0.296064
261,-0.458502,0.887474,0.046535,-0.926844,-0.413155,-0.309611
262,-0.47526,0.8785629999999999,0.047485,-0.016516,1.489433,-0.286361
263,-0.4938649999999999,0.8647379999999999,0.091245,0.3668659999999999,2.288048,-1.7766540000000002
264,-0.506205,0.854246,0.118407,0.997034,1.063417,-1.7204580000000005
265,-0.5004810000000001,0.8557450000000001,0.131219,0.933572,-0.911348,-0.57412
266,-0.447773,0.890432,0.081425,1.2094,-1.087988,0.171337
267,-0.3408739999999999,0.939098,0.043578,1.072655,0.7821239999999999,-0.695357
268,-0.239044,0.970013,0.043967,-0.412476,2.335438,0.50718
269,-0.194886,0.980662,0.017938,-0.949142,1.165243,0.5335300000000001
270,-0.183522,0.982708,-0.024605,-1.683666,-0.167675,1.347374
271,-0.177679,0.983826,-0.022734,-0.262689,0.325088,1.243422
272,-0.178334,0.983869,-0.014128,0.324651,0.074298,0.646788
273,-0.175766,0.984302,0.015986,0.761215,-0.97298,0.031011
274,-0.171511,0.984268,0.042436,0.319658,-1.1669,-0.163148
275,-0.179069,0.980981,0.0749,0.076698,-1.291879,-0.00799
276,-0.208065,0.970791,0.119475,-0.5702550000000001,-1.125957,0.154115
277,-0.248959,0.953372,0.17059,-0.257877,-0.37659,0.037861
278,-0.298173,0.927115,0.2270469999999999,0.031159,-0.179145,-0.294277
279,-0.343479,0.893674,0.2887369999999999,0.102772,0.556918,-0.923045
280,-0.377204,0.8556549999999999,0.35436,-1.09031,2.966015,-0.115178
281,-0.42803,0.8177939999999999,0.384713,-1.388972,3.967515,0.02198
282,-0.492934,0.793094,0.357796,0.140196,0.897748,-0.469475
283,-0.528008,0.7723270000000001,0.353155,1.06733,0.512463,-0.278829
284,-0.541007,0.7562909999999999,0.36788,1.38404,0.549373,-0.528417
285,-0.5561470000000001,0.749721,0.358635,0.78094,-0.5664170000000001,-0.386665
286,-0.54574,0.779543,0.307375,0.690821,-0.63579,-0.25754
287,-0.515443,0.816778,0.259214,0.434266,-0.6724,-0.2508829999999999
288,-0.466726,0.855453,0.2244239999999999,-0.052073,-1.1430360000000002,-0.076658
289,-0.387312,0.8957200000000001,0.2183449999999999,0.296125,-0.623107,-0.016303
290,-0.284408,0.922969,0.259306,0.46878,-0.501812,0.065737
291,-0.199654,0.933146,0.29896,0.011818,0.006826,0.081136
292,-0.215959,0.930754,0.295059,-0.676207,-0.658918,-0.1065359999999999
293,-0.273678,0.920282,0.2796079999999999,-0.7035100000000001,-0.795633,0.017252
294,-0.324386,0.910804,0.255362,0.2564079999999999,0.102029,1.340936
295,-0.307829,0.898732,0.312286,-0.2877369999999999,2.343135,2.213181
296,-0.3204909999999999,0.8944620000000001,0.311807,-0.398656,1.666711,-3.698953
297,-0.298818,0.886192,0.354078,0.772817,0.772041,-1.878263
298,-0.286534,0.897127,0.336246,-0.071513,-0.8387469999999999,-0.143298
299,-0.231684,0.919583,0.317316,-0.5398470000000001,-0.389233,-1.109171
300,-0.146788,0.941349,0.3038349999999999,-0.820208,0.182446,-0.0930049999999999
301,-0.101949,0.957909,0.268359,-1.73263,0.861015,-0.03168
302,-0.08496,0.96185,0.260051,-1.2757120000000002,0.035632,0.197896
303,-0.08171,0.962405,0.259036,-0.314881,-0.29407,0.525616
304,-0.080807,0.960001,0.268084,0.155926,-0.1801849999999999,0.08064
305,-0.0682779999999999,0.956655,0.283107,0.938761,-0.147024,-0.243205
306,-0.0581929999999999,0.948939,0.3100469999999999,1.093623,-0.6158239999999999,0.026425
307,-0.03773,0.93944,0.340629,0.675776,-1.023257,-0.214103
308,-0.016229,0.930338,0.366345,0.323602,-1.01983,-0.125943
309,-0.016159,0.91757,0.397246,-0.417496,-0.4792149999999999,-0.812331
310,-0.015012,0.900933,0.433699,-1.234836,1.641563,-0.571074
311,-0.037507,0.887186,0.459885,-1.63887,2.551031,-0.467789
312,-0.119304,0.8742709999999999,0.470549,-1.06664,3.1540790000000003,-0.960371
313,-0.194631,0.858651,0.47417,0.553899,0.232429,-0.9025
314,-0.226325,0.852291,0.4715689999999999,0.672172,-0.012554,-0.581799
315,-0.228598,0.855381,0.464829,0.263556,0.344082,-0.128022
316,-0.223583,0.8646590000000001,0.449862,-0.181706,0.036891,-0.388262
317,-0.20753,0.8763479999999999,0.4346779999999999,-0.095586,-0.105688,-0.4538279999999999
318,-0.1832099999999999,0.891175,0.41502,0.136182,-0.471146,-0.52972
319,-0.150116,0.909935,0.386631,0.193116,-0.752479,-0.738453
320,-0.1117109999999999,0.927868,0.355783,0.102967,-0.789562,-0.788339
321,-0.068027,0.943962,0.322968,0.315433,-0.4772109999999999,-0.587113
322,-0.019869,0.957469,0.287853,0.49013,-0.661234,0.428517
323,0.044885,0.960772,0.273682,0.248328,-0.493762,1.1640620000000002
324,0.0533429999999999,0.959616,0.276209,-1.039747,0.155389,0.472922
325,-0.012782,0.954608,0.297589,-0.926472,-0.322315,-0.3814059999999999
326,-0.100474,0.947302,0.304179,-0.3976949999999999,-0.829305,-1.1771040000000002
327,-0.101572,0.945228,0.310204,1.7577459999999998,0.4321979999999999,0.488868
328,0.022368,0.945118,0.325961,0.834367,2.138958,-0.693637
329,0.0617669999999999,0.940542,0.334015,0.630951,3.120738,-1.985794
330,0.049111,0.930936,0.361865,-0.049996,-0.021024,-1.664737
331,0.063269,0.946078,0.317701,-0.5545720000000001,-0.641848,0.0872059999999999
332,0.109689,0.958357,0.263667,-0.91993,-0.068739,0.036519
333,0.171103,0.961218,0.216298,-1.417441,1.37533,-0.679127
334,0.215292,0.964086,0.155525,-0.986502,0.606639,-0.334435
335,0.233571,0.966547,0.1059799999999999,-0.623937,0.247915,-0.195854
336,0.2496159999999999,0.966302,0.062868,0.067447,0.258948,0.032225
337,0.267841,0.963353,0.014596,-0.242023,0.068355,0.480079
338,0.281383,0.959142,-0.029487,-0.418682,-0.065298,0.717109
339,0.287341,0.956843,-0.043435,-0.948947,-0.298838,0.724755
340,0.281751,0.958793,-0.036506,-1.072842,-0.474937,0.4231939999999999
341,0.262363,0.964771,-0.01956,-1.010334,-0.662784,0.4519939999999999
342,0.227526,0.973552,0.020681,-0.020297,-0.898601,0.21609
343,0.188708,0.979941,0.064064,0.590925,-0.722938,-0.082131
344,0.151571,0.983971,0.093954,0.4993689999999999,-0.6067279999999999,-0.24529
345,0.112989,0.985895,0.12347,-0.487852,0.0934509999999999,-0.379162
346,0.056997,0.984617,0.165169,-1.211324,2.103945,0.0701519999999999
347,-0.048813,0.974339,0.219729,-1.383392,2.447063,-0.144076
348,-0.159275,0.947467,0.277378,-0.481442,1.742765,-0.869511
349,-0.25376,0.91021,0.327296,0.02825,0.997047,-0.615367
350,-0.336259,0.869201,0.362518,-1.296828,1.299287,-0.057205
351,-0.402288,0.8351709999999999,0.375038,-0.910197,1.169025,-0.352806
352,-0.4341529999999999,0.813505,0.386937,0.09756,-0.068586,-0.481679
353,-0.435856,0.804611,0.403276,0.359715,-0.450058,-0.538972
354,-0.417108,0.80843,0.415285,0.5717260000000001,-1.005329,-0.313936
355,-0.386863,0.826419,0.4091059999999999,0.868416,-1.119632,-0.459475
356,-0.364426,0.8531040000000001,0.373374,1.14505,-1.339295,-0.590811
357,-0.349926,0.878285,0.325833,1.397808,-1.7571,-0.924054
358,-0.311917,0.8984969999999999,0.3088869999999999,1.262891,-1.527968,-0.4249449999999999
359,-0.2811059999999999,0.909793,0.305379,0.911889,-1.157214,0.207164
360,-0.2610889999999999,0.915045,0.307449,0.374538,-0.710394,0.8615879999999999
361,-0.263488,0.914937,0.305719,-0.252244,-0.24236,1.166968
362,-0.290077,0.924322,0.247962,0.500129,-0.097311,-1.105826
363,-0.2858989999999999,0.941768,0.177015,1.053951,-0.416973,-1.451551
364,-0.244583,0.963731,0.106779,0.0735779999999999,0.652556,-1.062117
365,-0.2018339999999999,0.970158,0.134374,-0.645319,2.758892,0.162684
366,-0.180676,0.974467,0.1333079999999999,-0.966098,1.832555,-0.520545
367,-0.147029,0.978369,0.145522,0.143733,-0.720434,-0.97914
368,-0.073418,0.984689,0.158106,0.379753,-1.014276,-0.189417
369,0.008939,0.99425,0.106713,0.160952,0.933241,-0.883172
370,0.091133,0.995101,0.038332,-0.657829,2.775148,-0.686587
371,0.159104,0.986623,-0.035508,-1.342453,2.4504650000000003,0.185242
372,0.220371,0.971478,-0.087565,-2.513371,0.736698,0.72349
373,0.255621,0.95459,-0.153024,-1.067587,0.55661,0.6137319999999999
374,0.272532,0.937483,-0.216451,-0.439021,0.5513170000000001,0.484808
375,0.277541,0.926354,-0.254635,-0.396987,-0.115349,1.032467
376,0.273555,0.925909,-0.260501,-0.975261,-0.533438,0.5010100000000001
377,0.252327,0.932153,-0.259659,-1.117012,-0.838937,0.536331
378,0.213355,0.946046,-0.24388,-1.095755,-1.337617,1.004912
379,0.160026,0.96593,-0.203398,-0.405143,-0.875125,0.484618
380,0.108903,0.982858,-0.1487609999999999,0.062529,-0.793664,0.30495
381,0.059562,0.993609,-0.0958799999999999,0.597969,-0.550036,0.043268
382,-0.006318,0.999246,-0.038301,0.030672,-0.1424349999999999,-0.032943
383,-0.085659,0.996198,0.015867,-0.28339,0.775332,0.020342
384,-0.195572,0.977631,0.077389,-1.248276,3.368698,-0.0563309999999999
385,-0.3054389999999999,0.941209,0.144333,-1.051876,2.808318,-0.550033
386,-0.400109,0.89345,0.204105,-0.8057770000000001,1.695157,-0.746707
387,-0.483387,0.838986,0.249878,-0.279598,1.57825,-0.312012
388,-0.5553739999999999,0.78679,0.2692969999999999,-0.042251,0.812926,-0.445292
389,-0.598619,0.749089,0.283762,0.114107,0.403606,-0.497797
390,-0.6134850000000001,0.7295050000000001,0.3024219999999999,0.863073,-0.606839,-0.507317
391,-0.602633,0.729544,0.323418,0.980379,-1.037177,-0.509224
392,-0.5757909999999999,0.750945,0.323337,1.085434,-1.187865,-0.404438
393,-0.553376,0.784216,0.280679,1.594483,-1.440466,-0.858667
394,-0.5231060000000001,0.8244959999999999,0.215792,1.909245,-2.256213,-1.143587
395,-0.461634,0.8692790000000001,0.176773,1.99888,-2.258546,-0.6844779999999999
396,-0.40446,0.900338,0.160635,1.127147,-1.002938,0.071405
397,-0.353066,0.919913,0.1706,-0.631096,0.187326,1.907296
398,-0.343309,0.920007,0.189013,-1.495696,1.013495,2.136869
399,-0.384223,0.921014,0.064079,-0.16665,0.7592840000000001,-1.448158
400,-0.37679,0.926127,-0.01785,1.2081959999999998,0.7496550000000001,-0.764682
401,-0.341389,0.939751,-0.017925,0.655567,1.402381,-1.188801
402,-0.308356,0.951227,-0.009092,0.182624,0.406423,-0.287844
403,-0.287383,0.957802,0.005051,-0.348466,-0.322732,1.104523
404,-0.225501,0.974242,-0.0010019999999999,0.278769,-0.394653,-0.463887
405,-0.126999,0.991209,-0.037097,0.452302,0.245531,-0.740872
406,-0.017537,0.997893,-0.062459,0.0665019999999999,1.162278,-0.480113
407,0.091353,0.9908,-0.099846,-0.895949,3.893141,-0.049019
408,0.182583,0.969304,-0.164659,-2.222332,2.275538,0.991273
409,0.243139,0.94776,-0.206482,-2.056905,0.163126,0.609375
410,0.278317,0.927054,-0.251217,-1.127911,0.026467,0.697705
411,0.2952929999999999,0.909545,-0.292456,-0.7707109999999999,-0.438338,0.491598
412,0.302477,0.8895780000000001,-0.342285,-0.856203,-0.973333,0.668198
413,0.2941269999999999,0.8819450000000001,-0.368324,-1.035994,-1.366763,1.06739
414,0.264139,0.8955719999999999,-0.358023,-1.454874,-1.374576,0.952536
415,0.230589,0.917563,-0.323894,0.064974,0.244302,1.309032
416,0.1902299999999999,0.943129,-0.2726159999999999,0.713091,0.200959,0.992434
417,0.131449,0.968038,-0.213598,0.5672050000000001,-0.14977,0.292944
418,0.052958,0.986835,-0.152814,-0.376276,0.318997,-0.261005
419,-0.054134,0.994867,-0.085494,-0.82494,1.19454,0.010695
420,-0.198545,0.98009,0.001956,-2.289309,3.721128,-0.17229
421,-0.322375,0.94206,0.092721,-1.305051,3.365649,-0.753655
422,-0.4275779999999999,0.888978,0.163995,-0.677906,2.604857,-0.8407379999999999
423,-0.518305,0.829001,0.210042,0.501521,1.521768,-0.650319
424,-0.588724,0.773436,0.234948,0.582697,0.45276,-0.69912
425,-0.630038,0.734699,0.251535,0.770525,0.070034,-0.553033
426,-0.646948,0.714411,0.266599,1.194662,-1.006343,-0.716123
427,-0.633567,0.7189760000000001,0.285773,1.582495,-1.534559,-0.7988649999999999
428,-0.598022,0.751463,0.278698,1.944687,-1.806883,-0.6838029999999999
429,-0.5465979999999999,0.807683,0.221084,2.628828,-2.652684,-1.6927330000000005
430,-0.4858659999999999,0.854456,0.183956,1.941905,-1.22619,-0.365139
431,-0.428987,0.885238,0.179787,1.337968,-0.940506,-0.072396
432,-0.382189,0.8996629999999999,0.21104,-0.6775800000000001,0.1212569999999999,2.551853
433,-0.418009,0.884555,0.206955,-1.071676,2.288876,1.399627
434,-0.479692,0.8765620000000001,0.039181,-0.553908,1.7285560000000002,-0.930035
435,-0.474521,0.877446,-0.070127,2.08446,-0.794866,-0.7788109999999999
436,-0.368659,0.924891,0.093099,2.351768,-0.914042,1.734019
437,-0.26239,0.964386,0.033324,0.3936,-0.025544,-2.323241
438,-0.239475,0.970892,0.004582,-0.601117,3.184244,3.167171
439,-0.2611219999999999,0.964734,-0.033227,-0.752351,0.538471,-1.583884
440,-0.201709,0.978957,-0.030933,-0.67674,-0.149382,-1.439404
441,-0.074028,0.995958,-0.050858,-0.383934,0.747023,-0.6325069999999999
442,0.0657809999999999,0.992421,-0.103797,-1.839616,4.551876,-0.5522239999999999
443,0.150929,0.978266,-0.142182,-2.441945,3.166784,1.505189
444,0.199351,0.960637,-0.193485,-0.30955,-0.184529,0.708973
445,0.228852,0.941019,-0.2492199999999999,-0.675477,-0.199686,0.461546
446,0.239532,0.923842,-0.298563,-1.004699,-0.219451,0.255457
447,0.22164,0.914235,-0.33919,-1.807608,-1.393895,1.550921
448,0.178028,0.92436,-0.337437,-1.850575,-1.714278,1.727543
449,0.13039,0.945229,-0.299232,-0.786442,-1.264275,0.669624
450,0.099919,0.963507,-0.248335,0.6047020000000001,-0.306464,0.092588
451,0.067218,0.97919,-0.191489,1.021557,-0.277866,0.702796
452,0.012114,0.99282,-0.119005,0.4442609999999999,-0.593039,0.508547
453,-0.073431,0.995962,-0.051647,-0.182748,0.249827,-0.519383
454,-0.191386,0.981415,0.013972,-1.834706,2.646331,-0.0272779999999999
455,-0.330412,0.939947,0.085607,-2.159105,4.109492,-0.031865
456,-0.438738,0.885707,0.1517609999999999,-1.091489,3.401417,-0.359342
457,-0.520347,0.826521,0.214713,0.167564,2.073457,-0.569144
458,-0.5861460000000001,0.770937,0.249177,0.4914189999999999,1.279966,-0.527924
459,-0.636124,0.728888,0.253117,0.752885,0.372553,-0.584752
460,-0.662171,0.704213,0.25615,1.255097,-0.957509,-0.464234
461,-0.665352,0.699728,0.260167,1.26075,-1.256903,-0.517781
462,-0.642101,0.722846,0.255344,1.6688040000000002,-1.502127,-0.484592
463,-0.602743,0.7675489999999999,0.218102,1.825934,-1.679582,-0.905969
464,-0.554524,0.8166760000000001,0.159825,1.923847,-2.191905,-1.246175
465,-0.491259,0.860074,0.1376079999999999,1.663501,-1.317182,0.024684
466,-0.430139,0.892742,0.134131,0.6558470000000001,-0.785824,0.234048
467,-0.370836,0.913848,0.165414,0.2135179999999999,-0.5241239999999999,0.91323
468,-0.389288,0.90942,0.146323,-1.222147,1.980198,-0.1031869999999999
469,-0.4422069999999999,0.896907,-0.003351,-0.5011680000000001,1.496953,-1.191367
470,-0.4454869999999999,0.8949889999999999,-0.0231639999999999,1.274741,1.318863,0.5336770000000001
471,-0.406071,0.913593,-0.021305,0.666768,0.386807,-1.215695
472,-0.36566,0.930429,-0.02439,0.139632,-0.648339,-1.267571
473,-0.325615,0.945437,-0.011119,-0.166802,-0.680499,-0.637914
474,-0.2486139999999999,0.967659,-0.042742,-0.198819,-0.5804060000000001,-0.535917
475,-0.093058,0.990978,-0.096454,0.161936,1.027623,-0.5397
476,0.06701,0.989278,-0.129764,0.059211,2.598201,-0.7427189999999999
477,0.150562,0.970699,-0.187281,-0.870395,2.324009,1.669764
478,0.209428,0.944369,-0.253588,-1.651948,0.711622,0.761446
479,0.254344,0.921009,-0.295045,-1.326334,0.196621,0.804323
480,0.284649,0.9027,-0.322658,-0.7313350000000001,-0.227239,0.5516770000000001
481,0.286527,0.889985,-0.354723,-1.20477,-0.271715,0.8320639999999999
482,0.263765,0.8879239999999999,-0.376855,-1.442018,-0.574234,1.331505
483,0.218637,0.90597,-0.362515,-1.246194,-1.103647,0.808895
484,0.179066,0.930668,-0.3190489999999999,0.031414,-0.8243450000000001,0.320194
485,0.148249,0.953092,-0.26389,0.50768,-0.545255,0.513936
486,0.087754,0.977205,-0.193314,0.323165,-0.209001,0.801408
487,0.007154,0.990858,-0.134718,-0.34593,0.911257,-0.5783560000000001
488,-0.117946,0.990617,-0.069045,-0.753208,1.893645,-0.390748
489,-0.280265,0.95973,0.019208,-2.223702,4.123735,-0.071897
490,-0.393183,0.913038,0.1084849999999999,-0.830297,3.043108,-0.8216040000000001
491,-0.495623,0.85383,0.159163,-0.0483839999999999,2.783545,-0.595671
492,-0.601262,0.774605,0.19614,1.571248,0.547706,-1.025852
493,-0.655172,0.724771,0.213207,0.079519,0.5329050000000001,-0.339123
494,-0.679679,0.701058,0.2157639999999999,0.7568729999999999,-0.201928,-0.395848
495,-0.68088,0.69702,0.224867,1.49512,-1.484251,-0.499983
496,-0.65425,0.719444,0.233146,1.782012,-1.719536,-0.6352300000000001
497,-0.6072529999999999,0.765317,0.213384,2.168228,-1.632947,-0.737524
498,-0.5623319999999999,0.811663,0.158067,2.674011,-2.239306,-1.467485
499,-0.502827,0.8545290000000001,0.130174,1.6572919999999998,-1.044074,0.023925
500,-0.4345189999999999,0.8917069999999999,0.126694,0.987147,-0.863433,0.106018
501,-0.372675,0.918286,0.13366,-0.098059,-0.412472,1.329642
502,-0.380865,0.918723,0.104352,-1.969675,2.692651,1.631686
503,-0.418554,0.906393,-0.057134,-0.8908940000000001,1.981302,-1.6495919999999995
504,-0.417085,0.901345,-0.116693,2.312746,-0.282967,1.503289
505,-0.351377,0.936187,0.009425,1.2690860000000002,0.915956,-2.892284
506,-0.280514,0.959533,-0.024679,0.7344930000000001,0.65622,-2.8819220000000003
507,-0.270181,0.962604,-0.019875,0.020059,0.1143609999999999,-1.117851
508,-0.256817,0.962735,-0.084771,-0.125934,-0.447492,-1.307685
509,-0.151869,0.977437,-0.146808,-0.182604,-0.3909809999999999,-0.95921
510,0.025086,0.984389,-0.174208,-0.411026,2.748643,-1.529054
511,0.155164,0.961667,-0.2260989999999999,-0.8400700000000001,4.443072,-0.5686399999999999
512,0.238211,0.9213,-0.307346,-1.720709,1.798823,1.539402
513,0.263433,0.894251,-0.361827,-0.044683,0.20928,2.329036
514,0.295936,0.8779610000000001,-0.376306,-1.146003,0.234344,0.350061
515,0.317129,0.8708969999999999,-0.375457,-1.371344,0.283141,-0.025361
516,0.308326,0.8710450000000001,-0.3823809999999999,-1.646507,-1.248685,1.120937
517,0.281844,0.8799,-0.3825429999999999,-1.515884,-2.060397,1.774923
518,0.2485389999999999,0.907562,-0.338466,-1.079457,-1.978912,1.203853
519,0.20069,0.932624,-0.2998949999999999,0.4111869999999999,-0.616187,0.396178
520,0.1395549999999999,0.957936,-0.250765,0.2391219999999999,-0.782155,0.76668
521,0.0618789999999999,0.981328,-0.182117,0.03265,-0.479802,0.5266149999999999
522,-0.018753,0.993684,-0.1106359999999999,-0.6570590000000001,1.585433,-0.755255
523,-0.145673,0.988961,-0.027123,-1.80942,3.49134,1.073311
524,-0.313461,0.947988,0.055325,-2.427567,5.185893,0.84972
525,-0.441417,0.8887360000000001,0.123692,-0.484929,3.067517,-0.999043
526,-0.5402859999999999,0.8286540000000001,0.146369,1.948306,2.571737,-0.608161
527,-0.6377970000000001,0.754071,0.156817,2.279337,1.465381,-1.695513
528,-0.6929310000000001,0.700665,0.170045,0.181975,-0.7027100000000001,-0.543794
529,-0.701801,0.68793,0.185005,0.821735,-1.013431,-0.462074
530,-0.6840609999999999,0.704129,0.190428,0.982462,-1.545392,-0.271132
531,-0.641293,0.74431,0.1864029999999999,2.102139,-1.81859,-0.662828
532,-0.58118,0.796708,0.165787,2.205402,-1.707643,-0.666596
533,-0.515728,0.846324,0.133269,2.660214,-2.417201,-0.736891
534,-0.430955,0.895275,0.112966,2.466615,-1.803554,0.160151
535,-0.357207,0.928673,0.099851,0.221175,-0.359444,0.4363579999999999
536,-0.29874,0.94734,0.115329,-0.714382,0.296846,2.351697
537,-0.324104,0.941036,0.096996,-1.357156,3.486317,0.4882399999999999
538,-0.378796,0.923807,-0.055633,-0.922214,1.219077,-1.369584
539,-0.386562,0.910178,-0.148815,0.769146,-0.481146,-0.386021
540,-0.348634,0.937131,-0.015475,1.450975,1.795397,0.711749
541,-0.306044,0.951995,-0.006468,0.342588,0.6526489999999999,-1.631822
542,-0.310692,0.950475,-0.008291,-0.345543,-0.281483,1.0224209999999998
543,-0.311554,0.947053,-0.077625,0.215759,-1.493088,-0.944882
544,-0.212678,0.965727,-0.148792,0.407044,-1.257826,-0.458813
545,-0.025516,0.983955,-0.176584,0.305682,0.961236,-0.915151
546,0.101122,0.968564,-0.2272829999999999,-0.584429,4.674182,1.7616
547,0.15305,0.939945,-0.305088,-1.460728,1.9959830000000005,1.744953
548,0.196146,0.915068,-0.352388,-0.2809239999999999,0.364763,1.056551
549,0.237369,0.8903200000000001,-0.3885679999999999,0.1827359999999999,-0.00853,1.432483
550,0.267904,0.8742629999999999,-0.404834,-1.126959,-0.049083,0.8863709999999999
551,0.2778719999999999,0.873446,-0.39985,-1.403956,-0.318254,0.811318
552,0.2491519999999999,0.887136,-0.388476,-2.030035,-1.444783,1.207705
553,0.213507,0.914391,-0.343953,-0.943792,-1.823266,0.711553
554,0.184249,0.938131,-0.293194,0.011751,-1.330694,0.419888
555,0.132215,0.961104,-0.242484,0.6882199999999999,-0.648924,0.700385
556,0.0545309999999999,0.98268,-0.177108,-0.3725699999999999,0.015352,0.111312
557,-0.0289269999999999,0.994233,-0.103265,-0.546864,0.691771,-0.3451909999999999
558,-0.128265,0.991249,-0.031211,-1.443528,2.699364,0.490027
559,-0.258533,0.965381,0.034656,-2.316021,4.963346,0.308621
560,-0.378529,0.92,0.1015679999999999,-1.372874,3.596419,-0.327719
561,-0.473541,0.8676209999999999,0.151633,0.382461,2.173211,-0.547309
562,-0.554403,0.8154859999999999,0.16619,1.327368,1.131062,-0.62197
563,-0.622506,0.7664949999999999,0.158028,1.310341,0.253906,-0.736641
564,-0.654482,0.739096,0.159344,1.157305,-1.052725,-0.37048
565,-0.65485,0.7385149999999999,0.160521,1.205036,-1.485372,-0.559996
566,-0.6250140000000001,0.765699,0.151862,1.391768,-1.6287969999999998,-0.590842
567,-0.570527,0.813441,0.113195,2.172243,-2.011393,-0.943838
568,-0.501942,0.8628129999999999,0.060071,2.601383,-2.111516,-0.7343569999999999
569,-0.4264949999999999,0.903964,0.03084,2.535687,-1.929568,0.0141129999999999
570,-0.361455,0.931925,0.029432,0.665746,-0.620356,0.489276
571,-0.308235,0.946567,0.094884,-1.925011,0.8686799999999999,3.137904
572,-0.334669,0.941874,0.029497,-1.840853,2.509649,1.715972
573,-0.375576,0.920283,-0.109643,-0.086323,0.7231029999999999,-0.8429479999999999
574,-0.370326,0.926289,-0.069626,1.52833,2.588085,0.312638
575,-0.329667,0.941635,-0.068142,1.158463,2.222855,-1.485462
576,-0.296518,0.951886,-0.077399,0.311609,-0.848233,-1.803842
577,-0.274371,0.955322,-0.109911,0.286166,-1.5013729999999998,-0.603819
578,-0.199303,0.965558,-0.167261,-0.311515,-1.492779,0.044443
579,-0.037912,0.983171,-0.1787099999999999,-0.584097,1.162215,-0.596391
580,0.0888,0.971963,-0.217723,-0.493676,5.52378,0.546932
581,0.13153,0.948524,-0.2881,-0.602019,3.852013,1.14189
582,0.179243,0.92523,-0.334399,-0.362348,0.471209,0.913256
583,0.214086,0.906241,-0.3645469999999999,-0.500692,-0.10343,0.791992
584,0.2304409999999999,0.884826,-0.404944,-0.827044,-0.2550659999999999,0.596029
585,0.222009,0.873244,-0.433771,-1.531579,-1.194075,1.322504
586,0.18802,0.883157,-0.429746,-1.765718,-1.432489,1.14375
587,0.144241,0.913852,-0.379564,-0.562484,-0.8510469999999999,0.994539
588,0.113847,0.938796,-0.3251159999999999,1.284453,-0.2615659999999999,0.7508819999999999
589,0.074147,0.961658,-0.26404,0.973171,-0.121051,0.507509
590,0.014334,0.981409,-0.191391,0.318567,-0.077311,-0.259354
591,-0.07604,0.990965,-0.110479,-1.010981,1.638231,0.171667
592,-0.203031,0.978735,-0.029267,-1.37813,2.355509,0.6825720000000001
593,-0.339821,0.939765,0.036918,-1.644752,3.042504,0.5919270000000001
594,-0.450956,0.885998,0.107914,-0.540301,2.607837,-0.602314
595,-0.5419619999999999,0.826521,0.15212,0.309067,2.230868,-0.418981
596,-0.614594,0.773138,0.156627,0.7688149999999999,1.225046,-0.587932
597,-0.6574300000000001,0.736748,0.158076,0.6307729999999999,0.199714,-0.389551
598,-0.6789890000000001,0.7153970000000001,0.164867,0.92493,-0.6312909999999999,-0.219982
599,-0.674951,0.7173729999999999,0.172675,1.0281,-1.198392,-0.4366819999999999
600,-0.644468,0.7464689999999999,0.165663,1.322813,-1.583856,-0.620924
601,-0.590394,0.7981050000000001,0.120263,1.894502,-1.952478,-0.664041
602,-0.516335,0.8551110000000001,0.046727,2.441689,-2.669335,-1.241902
603,-0.431559,0.90208,0.002681,2.3460490000000003,-1.726986,-0.135234
604,-0.3647,0.930965,-0.017271,0.54422,-0.738323,0.28343
605,-0.308343,0.950531,0.037613,0.21502,-0.29802,1.33931
606,-0.321492,0.946448,0.029651,-1.532619,3.1113060000000003,-0.5303680000000001
607,-0.370231,0.925098,-0.084393,-0.699853,0.640759,-0.209506
608,-0.37351,0.913104,-0.163499,0.323629,-0.255023,-0.422942
609,-0.324084,0.942395,-0.082837,1.828707,1.656864,-0.216662
610,-0.272586,0.955439,-0.1132869999999999,0.668185,0.212988,-1.838068
611,-0.255178,0.961335,-0.1035369999999999,0.569951,-0.1209109999999999,-1.5497530000000002
612,-0.196395,0.970076,-0.142763,-0.312715,-0.221404,-0.403471
613,-0.059259,0.985215,-0.160747,-0.927054,1.172088,-0.462209
614,0.092346,0.981735,-0.16634,-1.333542,2.470185,0.285038
615,0.173156,0.956118,-0.236338,-0.667953,1.083616,1.442896
616,0.237294,0.921615,-0.307112,-0.375036,0.764772,1.150435
617,0.269624,0.899969,-0.342575,0.0904529999999999,0.702417,0.977494
618,0.32198,0.8823620000000001,-0.34317,-0.655659,0.2515179999999999,0.428162
619,0.358627,0.867475,-0.344781,-1.126358,0.179278,-0.212333
620,0.348966,0.865376,-0.359648,-1.7887849999999998,-0.7457630000000001,0.570662
621,0.309228,0.884026,-0.350537,-2.561608,-1.508141,0.771161
622,0.265518,0.917839,-0.29508,-1.994842,-1.777885,1.129522
623,0.228751,0.943301,-0.240531,0.556619,-0.740268,-0.0592279999999999
624,0.180283,0.963613,-0.197351,0.713882,-0.796423,0.581781
625,0.111881,0.984741,-0.133295,-0.149173,-0.618866,-0.093161
626,0.0300339999999999,0.997849,-0.0582769999999999,-0.501378,-0.069397,-0.784817
627,-0.098299,0.994915,0.0219639999999999,-2.108884,3.443745,1.225641
628,-0.286215,0.95542,0.072485,-3.125132,6.068537,-0.064841
629,-0.418468,0.897734,0.137691,-2.11533,5.0729690000000005,-0.73405
630,-0.518767,0.8366790000000001,0.17564,0.762373,2.729087,-0.5368310000000001
631,-0.6034579999999999,0.778224,0.173799,1.307712,0.191136,-0.536851
632,-0.661044,0.729136,0.17715,1.10274,-0.549189,-0.359386
633,-0.685316,0.704921,0.182837,1.286512,-1.487498,-0.559561
634,-0.674706,0.7131029999999999,0.190412,1.49102,-1.544142,-0.6779609999999999
635,-0.6382899999999999,0.74875,0.17877,2.197067,-1.590288,-0.911878
636,-0.570076,0.810948,0.13182,2.936531,-1.987416,-1.173064
637,-0.4677189999999999,0.877858,0.102976,2.95925,-2.147298,-1.1642860000000002
638,-0.377008,0.921893,0.0893159999999999,2.132486,-1.224033,0.003655
639,-0.3106239999999999,0.9457,0.09573,-0.039397,-0.313925,1.976826
640,-0.271184,0.950244,0.1532859999999999,-1.783626,0.919813,3.662128
641,-0.321747,0.945154,0.05625,-0.8742979999999999,2.114569,-0.841757
642,-0.36346,0.927979,-0.082166,0.6168779999999999,-0.101502,-1.383624
643,-0.345803,0.936566,-0.057125,2.202768,0.249698,0.42207
644,-0.264411,0.964363,-0.009528,1.394309,2.972725,-2.392999
645,-0.243283,0.969919,0.008395,0.2460139999999999,1.5426540000000002,-1.929019
646,-0.265261,0.96396,-0.020456,-0.293836,-1.07985,-0.546499
647,-0.244051,0.964535,-0.1005559999999999,-0.121946,-1.342953,-1.625137
648,-0.115397,0.981831,-0.150634,-0.251623,0.3783829999999999,-1.530229
649,0.068924,0.980886,-0.181968,-0.662674,4.99293,0.273246
650,0.165618,0.945632,-0.279913,-0.916366,4.955491,2.87821
651,0.1915619999999999,0.917147,-0.349492,-0.252261,0.8803989999999999,1.106496
652,0.219475,0.8973629999999999,-0.382845,-0.4599229999999999,0.184088,1.429338
653,0.262139,0.8870180000000001,-0.380108,-0.952965,0.302023,0.702358
654,0.273529,0.8895870000000001,-0.3658099999999999,-1.350907,-0.271316,0.322505
655,0.2440139999999999,0.898066,-0.365971,-1.705668,-1.7479810000000002,1.442738
656,0.2099349999999999,0.92245,-0.324058,-1.628376,-1.951243,1.311316
657,0.170753,0.948651,-0.26628,0.2283869999999999,-0.782956,0.216491
658,0.122548,0.969141,-0.213889,0.631312,-0.6854640000000001,0.602851
659,0.052134,0.988528,-0.141757,0.517752,-0.820254,0.470782
660,-0.02179,0.99762,-0.065416,-0.709122,1.059951,-0.5061939999999999
661,-0.118067,0.992888,0.015269,-1.216543,1.626634,-0.159053
662,-0.263855,0.960984,0.08301,-1.901825,2.7265770000000003,0.5721569999999999
663,-0.414313,0.897701,0.149925,-1.947794,5.009907,-0.52488
664,-0.505925,0.8375360000000001,0.206331,0.123357,2.439121,-0.8205889999999999
665,-0.5850810000000001,0.778367,0.227652,0.933973,1.810561,-0.685492
666,-0.6489699999999999,0.7277899999999999,0.2217179999999999,1.29193,-0.0116189999999999,-0.637337
667,-0.684017,0.695851,0.218888,1.23637,-0.450108,-0.450013
668,-0.6890390000000001,0.691099,0.218191,1.370725,-1.2003,-0.557257
669,-0.663209,0.717091,0.214321,1.588441,-1.387455,-0.676709
670,-0.6123460000000001,0.76789,0.1880869999999999,1.838939,-1.529472,-0.707954
671,-0.53285,0.836951,0.124833,1.987227,-1.829947,-0.792924
672,-0.435859,0.896725,0.076888,2.78826,-1.754376,0.002885
673,-0.363624,0.928377,0.076771,0.937721,-1.009508,0.2339889999999999
674,-0.293428,0.94485,0.1454609999999999,0.313554,-0.650386,0.631837
675,-0.310812,0.940727,0.1357529999999999,-1.683283,2.657036,1.258015
676,-0.379701,0.925071,-0.0083349999999999,0.063509,0.209191,-1.828869
677,-0.401569,0.90988,-0.104218,1.017139,-0.238203,-0.679825
678,-0.358117,0.933443,0.020904,1.085656,0.942091,-1.678634
679,-0.310361,0.950262,0.026063,0.531079,0.20904,-1.122163
680,-0.2947599999999999,0.954944,0.034606,0.208334,0.0301779999999999,0.5515909999999999
681,-0.265852,0.963663,-0.026018,0.035871,-0.434213,-1.043425
682,-0.134438,0.987355,-0.084003,0.043907,0.759441,-0.922283
683,0.049384,0.993614,-0.101448,-0.198462,2.228508,-1.116142
684,0.163235,0.976472,-0.140914,-0.698529,4.037154,1.679534
685,0.2309719999999999,0.950792,-0.206512,-1.237442,1.037917,0.974777
686,0.274491,0.926466,-0.2575179999999999,0.205551,0.195711,1.005199
687,0.31348,0.903128,-0.29341,-0.310444,-0.209601,0.8316790000000001
688,0.343905,0.883632,-0.317684,-1.210009,-0.098857,0.432705
689,0.346267,0.877655,-0.331393,-1.692443,-0.651428,0.8993399999999999
690,0.316319,0.889551,-0.329608,-2.056156,-1.4058469999999998,1.262439
691,0.27894,0.916053,-0.288164,-1.424692,-1.557609,1.2442950000000002
692,0.25079,0.938926,-0.23563,0.313999,-0.703392,0.313038
693,0.219486,0.9559,-0.195144,0.873822,-0.776945,0.438644
694,0.167195,0.976347,-0.1370829999999999,0.236613,-0.978865,0.4112989999999999
695,0.096527,0.99267,-0.07272,-0.510879,-0.270334,-0.486331
696,0.009136,0.999936,-0.006659,-0.918178,1.11954,-0.191995
697,-0.133431,0.989732,0.051251,-2.052146,3.229323,0.648716
698,-0.2716409999999999,0.95535,0.116268,-2.071713,4.26192,-0.175976
699,-0.363439,0.914122,0.1797,-0.3749639999999999,3.317933,-0.8889290000000001
700,-0.438513,0.8727,0.214712,0.741202,1.944561,-0.378073
701,-0.505293,0.8352120000000001,0.217023,1.440108,1.142601,-0.5837220000000001
702,-0.554846,0.803795,0.214615,1.058203,-0.700294,-0.310151
703,-0.579922,0.7877109999999999,0.207851,1.025753,-1.206504,-0.422893
704,-0.576887,0.7939890000000001,0.1917869999999999,1.032438,-1.376036,-0.472869
705,-0.546834,0.8236469999999999,0.15026,1.782811,-2.046913,-0.564124
706,-0.479199,0.873974,0.080852,2.230725,-2.420971,-0.962841
707,-0.395696,0.917559,0.03886,2.243948,-2.1933,-0.6088680000000001
708,-0.33075,0.943125,0.033461,1.069474,-1.126917,-0.085051
709,-0.27502,0.958674,0.0728549999999999,0.069103,-0.540247,1.760229
710,-0.260603,0.960383,0.098743,-1.331835,0.747853,2.9302330000000003
711,-0.314601,0.949037,-0.018828,-0.8207899999999999,1.7359759999999995,-1.355226
712,-0.340155,0.931245,-0.130679,0.916281,-0.4543779999999999,-0.73773
713,-0.28452,0.958624,0.009406,2.665623,-0.814917,2.135064
714,-0.220611,0.975147,-0.020488,0.5587,2.607159,-4.104574
715,-0.21066,0.97749,0.011601,0.04411,1.91701,-3.162205
716,-0.199399,0.978932,-0.043954,-1.125888,-0.366292,2.176752
717,-0.103131,0.99028,-0.093325,-0.629764,-0.364761,-0.579771
718,0.031474,0.995589,-0.088387,-0.828837,2.17711,0.431206
719,0.124899,0.984082,-0.126427,-1.433035,4.169147,-0.60244
720,0.186822,0.965131,-0.183355,-1.04197,0.382891,0.56931
721,0.232406,0.941731,-0.243168,-0.159392,-0.4489479999999999,1.104206
722,0.276485,0.914181,-0.296361,-0.399837,-0.288159,0.582875
723,0.28121,0.891149,-0.356054,-1.205069,-0.637838,0.954961
724,0.247363,0.8983049999999999,-0.363126,-1.939761,-1.50626,0.96272
725,0.194498,0.920189,-0.339739,-1.7406099999999998,-1.545815,0.905245
726,0.172177,0.945058,-0.277886,-0.047406,-0.719228,1.099404
727,0.142901,0.963178,-0.2277449999999999,1.089964,-0.514753,0.453651
728,0.1081589999999999,0.980016,-0.166945,1.0399120000000002,-0.5503279999999999,0.621031
729,0.042547,0.99457,-0.094975,-0.030005,-0.586611,-0.8328049999999999
730,-0.061498,0.997805,-0.024567,-0.862712,0.851316,-0.482421
731,-0.205179,0.978085,0.035384,-2.111364,3.933857,0.268754
732,-0.349488,0.933332,0.082153,-2.429977,5.027789,-0.23288
733,-0.444867,0.8851889999999999,0.136142,-0.527683,2.024998,-0.469242
734,-0.5157619999999999,0.839619,0.170379,0.819366,2.041957,-0.38774
735,-0.571048,0.8003520000000001,0.182597,1.328433,1.150881,-0.481471
736,-0.60851,0.7703909999999999,0.190299,1.190495,-0.6750079999999999,-0.289008
737,-0.6235,0.757822,0.192233,1.323467,-0.848932,-0.222552
738,-0.61456,0.765979,0.188657,1.365567,-1.074283,-0.299954
739,-0.580662,0.7970010000000001,0.166195,1.52216,-1.117298,-0.395748
740,-0.517536,0.849183,0.105095,2.6067240000000003,-1.96251,-0.507225
741,-0.4215779999999999,0.904222,0.068228,2.584572,-2.745912,-0.513891
742,-0.34675,0.936021,0.060248,0.396997,-1.4555209999999998,-0.1053839999999999
743,-0.2848989999999999,0.954458,0.088554,0.178286,-1.163412,0.56385
744,-0.288636,0.953345,0.0884409999999999,-2.468383,1.306542,2.186522
745,-0.3553989999999999,0.934347,-0.026211,-1.361551,2.313226,-1.6510200000000002
746,-0.398836,0.911002,-0.1049089999999999,-0.363081,0.296609,-1.405376
747,-0.373108,0.927701,0.0127409999999999,2.35849,1.542819,5.197586
748,-0.30613,0.951403,0.033411,0.928506,2.517103,-2.655069
749,-0.299131,0.951302,0.0744679999999999,0.454252,1.369255,-1.7905779999999998
750,-0.3105159999999999,0.949789,0.038478,0.433014,-1.299353,-0.035136
751,-0.248209,0.965966,-0.072813,0.8822120000000001,-1.440759,-0.449801
752,-0.091132,0.992081,-0.086431,0.7447729999999999,-0.432572,-0.961069
753,0.038902,0.994122,-0.101031,-0.6512680000000001,5.10889,0.5318930000000001
754,0.1093,0.982074,-0.153573,-2.212053,4.40524,2.389337
755,0.161136,0.963381,-0.214319,-1.6979400000000002,0.332457,0.8721559999999999
756,0.198429,0.943172,-0.266555,0.207348,-0.158993,1.026153
757,0.223311,0.92521,-0.306787,-0.380965,-0.273156,0.549188
758,0.229902,0.913699,-0.3351099999999999,-0.762861,-0.4121579999999999,0.579098
759,0.216455,0.917102,-0.334771,-1.496851,-1.318728,1.299767
760,0.180218,0.93358,-0.309759,-1.567608,-1.550508,0.970465
761,0.146954,0.955718,-0.254967,-1.008374,-1.373717,1.0715709999999998
762,0.117914,0.972272,-0.201951,0.899481,-0.627743,0.214296
763,0.083965,0.985042,-0.150472,0.981464,-0.6210899999999999,0.551503
764,0.0260279999999999,0.99596,-0.085941,0.759983,-0.686298,0.485538
765,-0.049873,0.998629,-0.015888,-0.366814,0.377271,-0.7685350000000001
766,-0.1406369999999999,0.988769,0.050567,-0.995639,1.651917,-0.131149
767,-0.2546739999999999,0.961994,0.098532,-1.308131,2.548748,0.302637
768,-0.370071,0.918475,0.13947,-1.167298,3.562009,-0.186238
769,-0.45357,0.8726879999999999,0.180806,-0.197691,1.695611,-0.477604
770,-0.521598,0.828167,0.2051219999999999,0.412314,1.6665990000000002,-0.366056
771,-0.577283,0.790931,0.2029099999999999,0.985715,0.2408679999999999,-0.609923
772,-0.601326,0.7722640000000001,0.204976,0.913551,-0.640382,-0.414983
773,-0.6018100000000001,0.7707229999999999,0.20931,0.962955,-1.012712,-0.4378869999999999
774,-0.57739,0.789407,0.2084639999999999,0.979643,-1.349557,-0.436689
775,-0.5329550000000001,0.827408,0.177075,1.131435,-1.555786,-0.460721
776,-0.4741399999999999,0.8748,0.099585,1.441074,-2.441908,-0.658896
777,-0.396931,0.916928,0.041098,2.017674,-2.755093,-0.6020260000000001
778,-0.328396,0.94439,0.016822,1.308681,-1.537072,-0.0275029999999999
779,-0.277412,0.95782,0.0749929999999999,0.691291,-0.119929,0.741535
780,-0.2928699999999999,0.949559,0.112096,-1.611122,2.141048,3.04742
781,-0.384389,0.922992,-0.018187,-0.515041,0.749005,-0.613054
782,-0.412927,0.903004,-0.118638,0.471612,-0.243916,-1.153808
783,-0.389581,0.917793,-0.076703,1.03692,0.363869,-0.116763
784,-0.353252,0.934739,-0.038408,0.133434,0.774321,0.619341
785,-0.355748,0.934562,-0.006103,-0.090358,0.364632,1.4188379999999998
786,-0.321289,0.946907,-0.011849,0.775085,-0.704872,-1.384102
787,-0.199218,0.978412,-0.0549659999999999,0.862655,0.054028,-1.188137
788,-0.042124,0.996461,-0.072739,0.6607,0.977416,-1.382904
789,0.0854559999999999,0.990802,-0.1049269999999999,0.0430529999999999,3.977308,0.1741859999999999
