,gravity.x,gravity.y,gravity.z,userAcceleration.x,userAcceleration.y,userAcceleration.z
0,0.173145,0.944242,-0.280037,0.347974,0.23424,3.1232990000000003
1,0.177122,0.947424,-0.266471,0.135897,-0.7894800000000001,0.484382
2,0.148007,0.958256,-0.244605,0.012378,0.362042,0.684714
3,0.1150829999999999,0.972124,-0.20426,0.167311,1.511717,0.4904689999999999
4,0.08536,0.983409,-0.1600329999999999,0.57768,0.687962,-0.0219889999999999
5,0.044919,0.991332,-0.123425,0.51073,0.652772,-0.069782
6,0.012771,0.998458,-0.053919,0.099717,0.98169,0.051569
7,-0.0174889999999999,0.999814,0.007381,-0.311903,0.965137,-0.692852
8,-0.052345,0.997724,0.042372,0.473564,0.726611,-0.610166
9,-0.0924649999999999,0.993368,0.0682509999999999,0.707044,0.621577,-0.855132
10,-0.12777,0.988151,0.084976,0.709695,-0.527946,-0.513458
11,-0.150285,0.98385,0.0971669999999999,0.92296,-1.196466,-0.712631
12,-0.151052,0.983533,0.09916,1.094381,-0.994459,-0.6514220000000001
13,-0.136182,0.986138,0.09473,0.945859,-1.257836,-0.368533
14,-0.107964,0.991127,0.077456,0.128243,-0.7258680000000001,-0.444934
15,-0.073505,0.996688,0.034618,-0.453518,-0.275771,-0.637783
16,-0.05086,0.998386,-0.025034,-0.617414,-0.2589599999999999,-0.258642
17,-0.040594,0.99444,-0.097116,-0.259119,0.231116,0.017343
18,-0.021874,0.985655,-0.167322,0.209938,1.333559,0.14602
19,0.025498,0.96943,-0.244023,0.364196,2.184761,0.454304
20,0.090161,0.944164,-0.316887,-0.986661,0.913899,-0.177071
21,0.153619,0.91045,-0.384026,-0.22175,2.074215,0.282509
22,0.201977,0.885832,-0.4177329999999999,0.451862,0.804048,-0.243675
23,0.2531489999999999,0.856057,-0.45064,0.647807,0.660285,-0.008283
24,0.284937,0.8259,-0.486513,0.427618,0.5254800000000001,0.2588519999999999
25,0.289901,0.806268,-0.51564,0.214387,0.479483,0.580276
26,0.278094,0.799317,-0.532683,-0.336444,-0.090394,0.554732
27,0.260408,0.804728,-0.533475,-1.04738,-0.932901,0.682477
28,0.246613,0.827941,-0.503677,-0.945817,-1.547683,0.731186
29,0.2437659999999999,0.8674639999999999,-0.43368,-0.497352,-1.761934,1.059717
30,0.245369,0.908111,-0.3392949999999999,-0.341392,-1.670043,0.706208
31,0.23615,0.931896,-0.275307,0.092662,-0.6101949999999999,-0.621909
32,0.233197,0.937226,-0.259266,0.392902,-0.073273,-1.584041
33,0.257919,0.928501,-0.267123,0.775192,0.880718,-0.411603
34,0.299106,0.925317,-0.233058,-0.504657,-0.458291,1.664652
35,0.302491,0.932918,-0.1953329999999999,-1.626863,2.417622,-3.3222
36,0.239184,0.930932,-0.275951,-0.194263,1.520057,3.062587
37,0.248134,0.929411,-0.273161,-0.113094,-0.351332,1.326964
38,0.223842,0.938023,-0.264575,-0.4166829999999999,-0.102711,0.912936
39,0.176905,0.956842,-0.230541,-0.326075,0.637015,0.796093
40,0.12842,0.975593,-0.178094,0.8654299999999999,1.58651,0.3667539999999999
41,0.093797,0.98731,-0.128108,0.481856,0.613139,0.106868
42,0.062229,0.995585,-0.070196,0.19833,0.945013,0.097769
43,0.038274,0.999255,-0.003604,-0.431249,1.129575,-0.773435
44,0.0002089999999999,0.9993,0.037251,0.0969889999999999,0.729063,-0.814229
45,-0.044997,0.996717,0.067219,0.4331649999999999,0.6866939999999999,-0.725911
46,-0.090269,0.991864,0.089693,0.800551,0.349796,-0.529894
47,-0.124614,0.986873,0.102668,0.909526,-0.952235,-0.756843
48,-0.140158,0.983977,0.110144,1.119879,-1.120025,-0.7937069999999999
49,-0.135656,0.985112,0.10554,1.039251,-0.959431,-0.7015939999999999
50,-0.117531,0.988108,0.099074,0.218742,-0.80781,-0.433379
51,-0.086449,0.993898,0.068409,-0.184471,-0.5406810000000001,-0.378544
52,-0.058203,0.998183,0.0151639999999999,-0.348352,0.168046,-0.390545
53,-0.037965,0.998039,-0.049638,-0.245711,0.3995889999999999,-0.5182329999999999
54,-0.011752,0.993343,-0.114538,0.148974,1.4673040000000002,0.59107
55,0.035146,0.980391,-0.193875,-0.4529319999999999,0.8863690000000001,0.523999
56,0.099655,0.959253,-0.264373,-0.721374,1.476736,-0.5549930000000001
57,0.16038,0.929699,-0.331557,-0.348536,2.076298,-0.180315
58,0.2069599999999999,0.905426,-0.370625,0.750498,0.850174,-0.173533
59,0.263275,0.8754649999999999,-0.405267,0.312882,0.66079,0.136514
60,0.304352,0.8437040000000001,-0.442184,0.416809,0.5432130000000001,0.305237
61,0.323034,0.817511,-0.47678,-0.097173,0.36175,0.6748850000000001
62,0.326077,0.8029310000000001,-0.4989689999999999,-0.310483,-0.1080609999999999,0.520667
63,0.3087,0.806196,-0.504724,-0.6078180000000001,-0.465605,0.6373989999999999
64,0.299117,0.8261270000000001,-0.4775319999999999,-0.8917069999999999,-1.6605849999999998,1.107338
65,0.296654,0.861614,-0.411838,-0.764305,-1.969662,1.458439
66,0.301342,0.897517,-0.321946,-0.783107,-2.209193,1.035508
67,0.290692,0.919581,-0.264312,-0.373227,-0.998408,-0.152162
68,0.274081,0.929942,-0.245112,0.079664,-0.1054789999999999,-1.696493
69,0.281427,0.925972,-0.251727,0.494788,0.5710529999999999,-1.479916
70,0.311741,0.92313,-0.22503,-0.864201,-0.582585,1.391473
71,0.3155929999999999,0.930224,-0.187281,-1.422984,-0.075885,0.1183109999999999
72,0.266507,0.934605,-0.235539,-2.021955,2.240108,-5.269786
73,0.256382,0.928048,-0.27016,0.174678,0.120277,1.80048
74,0.237281,0.932561,-0.272065,-0.320456,-0.462559,0.93538
75,0.203132,0.94768,-0.246232,-0.195091,0.534223,1.111452
76,0.161866,0.967831,-0.192595,0.278426,1.819294,0.799208
77,0.127896,0.983521,-0.12774,0.817829,1.129302,-0.162726
78,0.092442,0.993003,-0.073408,0.352504,0.907052,-0.20099
79,0.064342,0.997877,-0.00941,0.009709,1.049562,-0.4138229999999999
80,0.029617,0.998729,0.040621,-0.213394,0.946919,-0.946826
81,-0.011903,0.997042,0.07584,0.189989,0.614866,-0.645191
82,-0.050771,0.993727,0.099574,0.624562,0.279802,-0.414638
83,-0.081576,0.989914,0.1157619999999999,0.668093,-0.607102,-0.714974
84,-0.093309,0.987433,0.127492,1.001665,-1.089118,-0.8411299999999999
85,-0.08763,0.988385,0.1241,0.856261,-1.201642,-0.4201819999999999
86,-0.06926,0.99129,0.111949,0.4975279999999999,-1.117862,-0.448497
87,-0.039501,0.996389,0.075057,0.00256,-0.755926,-0.561599
88,-0.0122379999999999,0.999727,0.019559,-0.433151,-0.231203,-0.483808
89,0.007073,0.998544,-0.053357,-0.134438,0.1961119999999999,-0.111026
90,0.028467,0.991071,-0.130213,0.147619,0.6161979999999999,0.059916
91,0.072649,0.975489,-0.207682,0.457502,1.897787,0.702403
92,0.1384099999999999,0.948513,-0.284879,-0.753736,0.8595010000000001,0.34213
93,0.216629,0.913835,-0.343464,-1.040405,1.410887,-0.8957629999999999
94,0.262866,0.8817450000000001,-0.391687,0.452679,0.960098,-0.106833
95,0.313432,0.8458450000000001,-0.431622,0.369139,0.7350409999999999,0.0135919999999999
96,0.362392,0.8092020000000001,-0.462446,0.285298,0.696261,0.092207
97,0.383731,0.7802359999999999,-0.493939,-0.1244079999999999,0.30944,0.723813
98,0.389888,0.760738,-0.5189,0.073109,0.307697,0.651087
99,0.376848,0.75589,-0.535359,-0.559922,-0.64389,0.630452
100,0.348325,0.775601,-0.526408,-0.990827,-1.472561,0.883403
101,0.339055,0.81655,-0.467205,-0.991231,-1.7590400000000002,1.031551
102,0.341459,0.865772,-0.365834,-1.051771,-2.036396,1.148702
103,0.327801,0.903171,-0.2771619999999999,-0.263135,-1.092029,0.17473
104,0.3009469999999999,0.921548,-0.245294,0.229646,-0.092569,-1.611792
105,0.293468,0.916222,-0.2727699999999999,0.753789,0.691657,-1.816845
106,0.332812,0.907992,-0.254512,0.175763,0.276517,1.3276629999999998
107,0.351946,0.90949,-0.2212489999999999,-1.376802,-0.184347,0.926525
108,0.31455,0.920937,-0.2300469999999999,-1.981069,1.013663,-3.534953
109,0.278657,0.913536,-0.296298,0.095321,-0.181145,2.324419
110,0.287373,0.91355,-0.287806,-0.006474,-0.603751,0.592692
111,0.257727,0.927773,-0.269822,-0.061026,-0.4777149999999999,0.532243
112,0.211196,0.948644,-0.235502,0.624559,1.562892,0.845701
113,0.1807359999999999,0.96597,-0.185,0.471989,0.762729,0.0991539999999999
114,0.155075,0.97732,-0.144167,0.167496,0.478048,-0.237303
115,0.121478,0.989003,-0.084281,-0.084506,0.905757,-0.073099
116,0.085483,0.996061,-0.023259,-0.1154819999999999,0.983141,-0.752666
117,0.042168,0.998818,0.02386,0.302406,0.7796850000000001,-0.680873
118,0.0002299999999999,0.998139,0.060858,0.702331,0.712997,-0.414801
119,-0.033208,0.995788,0.085365,0.673375,-0.295211,-0.6279520000000001
120,-0.055425,0.993431,0.100036,0.939107,-1.1016,-0.720229
121,-0.063001,0.993201,0.097807,1.125776,-1.14527,-0.730772
122,-0.054123,0.99493,0.084663,0.885086,-1.1591,-0.402336
123,-0.029274,0.997881,0.057966,0.003349,-0.5898,-0.595396
124,-0.0003,0.999948,0.009367,-0.16805,-0.552454,-0.595076
125,0.022885,0.998086,-0.0573299999999999,-0.218427,-0.344049,-0.181592
126,0.042998,0.989981,-0.13445,-0.064345,0.203867,-0.061915
127,0.074067,0.975827,-0.205585,0.37564,1.260898,0.279147
128,0.1313099999999999,0.951187,-0.2792659999999999,-0.1128779999999999,1.495895,0.673828
129,0.20634,0.919663,-0.334117,-0.711849,1.297104,-0.2225079999999999
130,0.263815,0.8834860000000001,-0.3870989999999999,-0.740606,1.451292,-0.1033029999999999
131,0.302872,0.85349,-0.424045,0.615081,0.599055,0.044971
132,0.353194,0.820508,-0.4494579999999999,0.588029,0.559329,0.014247
133,0.389503,0.7903680000000001,-0.472861,0.29844,0.337027,0.432501
134,0.4008469999999999,0.771462,-0.494125,-0.168624,-0.0037619999999999,0.598526
135,0.395681,0.764113,-0.50947,-0.333136,-0.223235,0.5689489999999999
136,0.374421,0.7764979999999999,-0.5068050000000001,-0.8251040000000001,-0.919,0.807312
137,0.358469,0.814377,-0.4563779999999999,-0.968774,-1.656815,1.184894
138,0.353437,0.8634290000000001,-0.359948,-0.974988,-1.872645,1.013481
139,0.338617,0.8991,-0.277392,-0.3004239999999999,-1.029517,0.287738
140,0.307511,0.921028,-0.2390219999999999,-0.009767,-0.392006,-0.91793
141,0.288962,0.925601,-0.244441,0.443231,0.203381,-1.525167
142,0.313455,0.919874,-0.235724,0.156897,0.464571,0.5371
143,0.330837,0.920093,-0.209675,-1.264095,-0.245944,0.854893
144,0.307786,0.930791,-0.197187,-1.801651,1.250941,-2.803026
145,0.268867,0.925366,-0.267203,0.172402,0.1482119999999999,2.307914
146,0.27439,0.920074,-0.279577,-0.0036229999999999,-0.644057,0.614767
147,0.258324,0.928364,-0.267204,-0.268074,-0.923328,0.570137
148,0.20829,0.947407,-0.2429469999999999,0.198707,1.408214,0.947781
149,0.168982,0.969008,-0.1801559999999999,0.7573340000000001,1.34691,0.440853
150,0.142124,0.981456,-0.128577,0.550625,0.578816,-0.2388239999999999
151,0.109017,0.991231,-0.074586,0.214165,0.8727520000000001,-0.0748429999999999
152,0.0760919999999999,0.997063,-0.007795,-0.0606809999999999,1.065849,-0.775087
153,0.0304839999999999,0.998932,0.034495,0.139758,1.05986,-0.861857
154,-0.013188,0.997464,0.069825,0.635761,0.7353390000000001,-0.556656
155,-0.051347,0.994514,0.091055,0.649857,-0.0545419999999999,-0.523718
156,-0.077341,0.991401,0.105484,0.651621,-0.530403,-0.630402
157,-0.084131,0.990358,0.10999,1.082834,-1.062181,-0.774571
158,-0.073151,0.992217,0.100688,0.646134,-1.32138,-0.397471
159,-0.047996,0.995711,0.079007,0.620979,-1.324873,-0.37579
160,-0.014957,0.999308,0.033854,-0.2062949999999999,-0.369242,-0.629436
161,0.013113,0.99947,-0.0295899999999999,-0.279104,-0.320316,-0.382351
162,0.03587,0.993607,-0.1069869999999999,-0.271878,-0.2404489999999999,-0.088494
163,0.070111,0.980631,-0.182853,0.685779,1.60111,0.26725
164,0.1345319999999999,0.958263,-0.252236,1.045613,2.757725,0.4293909999999999
165,0.2205369999999999,0.925166,-0.308904,0.808607,2.562734,0.616842
166,0.297452,0.8859959999999999,-0.355702,-0.797696,1.308019,-0.4836069999999999
167,0.343018,0.84857,-0.402816,0.022857,1.15169,0.134902
168,0.398436,0.809161,-0.431856,0.198778,0.704862,-0.036314
169,0.448929,0.770943,-0.4517779999999999,-0.081375,0.166389,0.4436449999999999
170,0.4680979999999999,0.745219,-0.474897,-0.25272,-0.072779,0.425489
171,0.465481,0.736546,-0.490734,-0.073742,-0.16451,0.3760489999999999
172,0.443706,0.747771,-0.4939189999999999,-0.977428,-0.860778,1.058083
173,0.419372,0.780492,-0.46363,-1.162887,-1.270253,1.144172
174,0.405807,0.8260709999999999,-0.391049,-1.222641,-1.888693,1.204281
175,0.392793,0.8624709999999999,-0.319137,0.327529,-0.979353,-0.01001
176,0.371736,0.882703,-0.287471,0.438705,-0.674908,-0.848134
177,0.374767,0.88487,-0.276669,1.303029,1.424075,0.268948
178,0.4071639999999999,0.884984,-0.225856,0.389757,0.752437,0.921337
179,0.416049,0.8861379999999999,-0.20409,-2.0455650000000003,-0.8806290000000001,-1.160824
180,0.3633949999999999,0.8938530000000001,-0.262606,-2.590873,0.482917,-4.400663
181,0.297772,0.8958709999999999,-0.329757,-0.991696,2.031864,3.28514
182,0.318602,0.905118,-0.281507,-0.125578,-0.7145050000000001,0.614408
183,0.290157,0.915374,-0.279088,0.068989,-1.128615,0.844548
184,0.2367199999999999,0.937429,-0.255307,0.59731,1.512614,1.055218
185,0.210325,0.95745,-0.197591,0.858798,2.32795,0.673254
186,0.194881,0.969438,-0.148996,0.93047,0.747984,-0.251715
187,0.1532339999999999,0.983951,-0.091372,-0.104894,0.989941,-0.096494
188,0.1185099999999999,0.992488,-0.030198,-0.333278,1.133626,-0.616607
189,0.070383,0.997379,0.016401,-0.137186,1.122052,-0.782637
190,0.024237,0.998423,0.050515,0.65156,0.896963,-0.697259
191,-0.011229,0.997181,0.0741059999999999,0.925428,-0.368473,-0.738016
192,-0.038473,0.995019,0.09189,0.9005639999999999,-0.911218,-0.83954
193,-0.044131,0.994425,0.0957,0.813113,-1.232157,-0.7637
194,-0.035196,0.995646,0.086235,0.5767,-1.234858,-0.392326
195,-0.013826,0.998191,0.058397,0.331331,-1.034172,-0.4560869999999999
196,0.01344,0.999842,0.011063,-0.364651,-0.471995,-0.504075
197,0.035377,0.997938,-0.053459,-0.34507,-0.2817969999999999,-0.142708
198,0.05634,0.990057,-0.128846,-0.246907,-0.033926,-0.124771
199,0.087897,0.976444,-0.1970319999999999,0.7984100000000001,1.477948,0.163661
200,0.145214,0.951195,-0.272271,0.139713,1.418159,0.728051
201,0.222503,0.917973,-0.328345,-0.596695,0.8671840000000001,0.67774
202,0.275431,0.8859299999999999,-0.373172,0.262579,1.573695,0.141986
203,0.306876,0.854568,-0.418967,0.612481,0.730927,0.027395
204,0.349233,0.816861,-0.459095,0.488947,0.734058,0.087788
205,0.377343,0.7843359999999999,-0.4923649999999999,0.2544929999999999,0.5139279999999999,0.5184270000000001
206,0.3814619999999999,0.763053,-0.521759,-0.165824,0.363229,0.7024229999999999
207,0.375181,0.7511220000000001,-0.543185,-0.285657,0.191307,0.659381
208,0.360968,0.753008,-0.5501590000000001,-0.778937,-0.799395,0.650547
209,0.34699,0.780279,-0.520343,-0.854558,-1.385763,0.773242
210,0.352073,0.8238770000000001,-0.444144,-0.823569,-1.554728,0.8805459999999999
211,0.359008,0.8666010000000001,-0.346567,-0.639556,-1.697595,0.6743859999999999
212,0.348304,0.895059,-0.278469,-0.047431,-0.5503779999999999,-0.8318969999999999
213,0.336022,0.901955,-0.271215,0.339683,-0.071175,-1.46667
214,0.362513,0.8888860000000001,-0.2801,0.2615099999999999,0.916121,0.351115
215,0.3941429999999999,0.8830610000000001,-0.2546489999999999,-0.801446,0.564129,1.035242
216,0.36935,0.8881879999999999,-0.273302,-0.957485,1.991756,-2.019957
217,0.358528,0.8789819999999999,-0.314388,-1.123131,-1.287185,1.27386
218,0.350639,0.8837950000000001,-0.30976,-0.881584,-0.0931299999999999,1.103491
219,0.327411,0.906222,-0.267499,-0.714816,0.117704,0.969235
220,0.263654,0.935613,-0.234746,-0.0926029999999999,1.154414,0.381002
221,0.2129909999999999,0.957604,-0.193955,1.237128,1.449195,0.441758
222,0.173239,0.971355,-0.162622,0.639688,0.91576,0.257807
223,0.139463,0.985469,-0.096895,-0.022382,0.849842,0.043321
224,0.104291,0.993765,-0.039264,-0.338376,0.964349,-0.638517
225,0.058605,0.998275,0.000891,0.427342,0.904832,-0.776647
226,0.012482,0.999131,0.039604,0.745529,0.602538,-0.588539
227,-0.028137,0.997339,0.06716,0.7444609999999999,-0.069498,-0.4342399999999999
228,-0.058322,0.994264,0.089584,0.478275,-1.019715,-0.802383
229,-0.0685409999999999,0.992712,0.099058,0.882811,-0.982992,-0.7689189999999999
230,-0.065611,0.993056,0.097585,0.79286,-1.4019,-0.460592
231,-0.051777,0.995205,0.082908,0.6748689999999999,-1.481197,-0.486351
232,-0.022446,0.998644,0.046838,0.06308,-0.6378050000000001,-0.539956
233,0.005078,0.99997,-0.00489,-0.141614,-0.5170899999999999,-0.383537
234,0.0272689999999999,0.997098,-0.071,-0.142168,-0.386716,-0.0847919999999999
235,0.054839,0.988045,-0.144047,0.2220929999999999,0.237175,-0.021862
236,0.108414,0.972139,-0.207803,1.25502,2.899687,0.501352
237,0.197733,0.942924,-0.267931,0.221853,2.663903,0.745913
238,0.2803739999999999,0.907266,-0.313448,-0.759332,1.744574,-0.754912
239,0.3307239999999999,0.8707739999999999,-0.363822,0.076686,1.0945120000000002,0.044731
240,0.382251,0.8365950000000001,-0.39241,0.370648,0.712966,-0.010605
241,0.4382439999999999,0.798064,-0.4135569999999999,0.412968,0.5253,0.353224
242,0.463833,0.7665,-0.444217,-0.38313,0.2375429999999999,0.741336
243,0.46898,0.742951,-0.477572,-0.337099,0.134811,0.6843279999999999
244,0.448276,0.742488,-0.497749,-1.271518,-0.723796,0.5852430000000001
245,0.429845,0.7660319999999999,-0.4779359999999999,-1.368611,-1.2841129999999998,1.106079
246,0.41475,0.813764,-0.407141,-1.299211,-1.49632,1.269049
247,0.400435,0.862884,-0.308342,-1.098006,-1.839049,0.805077
248,0.371461,0.895634,-0.244635,-0.364442,-1.09081,0.091834
249,0.335003,0.914274,-0.227741,-0.143292,-0.838774,-0.565868
250,0.331458,0.908862,-0.2531719999999999,1.032007,0.871533,-1.214358
251,0.366855,0.900675,-0.232791,-0.100848,0.287359,1.643374
252,0.3679199999999999,0.910453,-0.188946,-0.927948,-0.432899,1.836117
253,0.323151,0.924983,-0.199924,-1.201111,2.649983,-3.159573
254,0.301085,0.919306,-0.253407,0.429795,0.581427,2.154592
255,0.296869,0.916215,-0.2690929999999999,0.35253,-0.064179,1.402744
256,0.273212,0.926802,-0.257651,-0.123676,-0.438734,0.8481209999999999
257,0.234973,0.948278,-0.213419,0.2912869999999999,2.012721,1.025721
258,0.208759,0.968625,-0.134813,0.345913,1.326769,0.387728
259,0.1769079999999999,0.980972,-0.079921,0.276964,1.076218,-0.099095
260,0.136799,0.990389,-0.020124,0.349453,1.145033,-0.195971
261,0.094426,0.995106,0.028907,0.086146,1.062526,-0.941611
262,0.045813,0.996928,0.063422,0.2547239999999999,0.854619,-0.74047
263,0.000461,0.996035,0.088886,0.658764,0.098996,-0.487675
264,-0.04053,0.993323,0.107955,0.7612939999999999,-0.462225,-0.65193
265,-0.06432,0.98969,0.12792,1.030232,-1.210225,-0.7540640000000001
266,-0.068013,0.988326,0.136286,1.148091,-1.2889700000000002,-0.599863
267,-0.061408,0.989132,0.133548,0.773429,-1.627758,-0.4582239999999999
268,-0.036132,0.993077,0.111713,0.178344,-0.767354,-0.864597
269,2e-06,0.998236,0.059262,-0.296358,-0.079443,-0.536496
270,0.025873,0.999554,-0.014535,-0.286066,-0.1992,-0.175803
271,0.053693,0.993818,-0.0971139999999999,0.129459,0.41646,-0.008965
272,0.109866,0.978355,-0.1753299999999999,0.683804,1.963295,0.37606
273,0.1932579999999999,0.94741,-0.255064,-0.07607,2.278314,0.7174659999999999
274,0.268776,0.91119,-0.312225,-0.749336,1.987324,-0.741746
275,0.309894,0.874384,-0.373376,-0.212467,1.712759,0.1159299999999999
276,0.358118,0.831709,-0.4242689999999999,0.375189,0.8872389999999999,0.29434
277,0.412551,0.788267,-0.456541,0.455918,0.617495,0.218336
278,0.44226,0.7544770000000001,-0.484937,0.031968,0.415429,0.679746
279,0.449581,0.730761,-0.5136729999999999,-0.0728559999999999,0.315931,0.6782239999999999
280,0.440905,0.719943,-0.535985,-0.803362,-0.303195,0.555104
281,0.418079,0.737842,-0.5299,-1.114658,-1.428043,1.080193
282,0.4122689999999999,0.781959,-0.467513,-1.143302,-1.689094,1.274032
283,0.4199819999999999,0.8306879999999999,-0.365465,-0.979186,-2.056701,1.097933
284,0.407469,0.866361,-0.288755,-0.528655,-1.164884,0.017911
285,0.381179,0.883948,-0.270794,-0.342055,-0.8342200000000001,-0.56374
286,0.369647,0.8835379999999999,-0.287599,1.055234,0.870856,-0.246383
287,0.407398,0.8800620000000001,-0.243945,-0.110202,0.729603,0.8147
288,0.4066619999999999,0.887534,-0.2165659999999999,-0.953766,0.809609,0.31677
289,0.378894,0.881531,-0.281663,-0.398227,0.354476,2.489732
290,0.38178,0.881849,-0.276727,-0.620061,-0.5547310000000001,1.994516
291,0.355753,0.8956770000000001,-0.266824,-1.19848,-1.318223,0.91752
292,0.298045,0.928606,-0.221023,-0.3420809999999999,1.251035,0.646912
293,0.2291699999999999,0.957433,-0.175481,1.060716,2.107646,0.223104
294,0.185477,0.973353,-0.1348069999999999,1.259073,1.005361,0.1385
295,0.14196,0.987108,-0.07387,0.069451,1.093108,0.010241
296,0.101813,0.994746,-0.010212,-0.254111,1.181035,-0.8133050000000001
297,0.051922,0.99819,0.030184,0.068637,1.107096,-0.77405
298,0.0059159999999999,0.998009,0.062711,0.92574,0.613808,-0.613935
299,-0.034684,0.995924,0.083187,0.931855,-0.103865,-0.505916
300,-0.06386,0.992766,0.101614,0.743563,-0.59378,-0.5965630000000001
301,-0.070149,0.99066,0.116877,1.182057,-0.995756,-0.876383
302,-0.058842,0.990963,0.120489,0.846775,-1.465237,-0.432485
303,-0.035334,0.993214,0.11075,0.6706340000000001,-1.335117,-0.527361
304,0.0041649999999999,0.99739,0.072002,-0.208648,-0.288176,-0.700863
305,0.036445,0.999272,0.010776,-0.4374909999999999,-0.131642,-0.287448
306,0.06476,0.995731,-0.065695,-0.15912,0.22749,-0.164072
307,0.106376,0.984456,-0.13972,0.630166,2.010753,0.399578
308,0.170603,0.960157,-0.221323,0.236227,2.074145,0.656503
309,0.244505,0.924847,-0.2913199999999999,-0.620451,1.7833290000000002,-0.059526
310,0.300986,0.8875620000000001,-0.348759,-0.301734,1.947689,0.076588
311,0.346616,0.849131,-0.3985309999999999,0.265231,0.738012,0.091753
312,0.4021619999999999,0.807906,-0.430752,0.344466,0.65735,0.059033
313,0.440895,0.773062,-0.4560479999999999,0.436012,0.441065,0.442193
314,0.455534,0.749394,-0.4805109999999999,0.0267199999999999,0.209468,0.758831
315,0.45523,0.736624,-0.500145,-0.4646899999999999,-0.107351,0.711845
316,0.4435189999999999,0.74244,-0.502063,-0.973854,-0.790566,0.801272
317,0.431174,0.774474,-0.462895,-1.072119,-1.483855,1.036702
318,0.429434,0.820749,-0.376763,-1.191244,-1.831598,1.21122
319,0.4198449999999999,0.860707,-0.287929,-0.98764,-2.096685,0.562008
320,0.3935599999999999,0.8832459999999999,-0.254907,-0.014562,-0.575354,-1.404944
321,0.371351,0.8847,-0.281769,0.6958479999999999,-0.063396,-1.775909
322,0.41341,0.8708030000000001,-0.266055,1.237591,1.45276,-0.159024
323,0.438436,0.8671,-0.2364369999999999,-1.591542,1.521557,-1.278746
324,0.3992719999999999,0.8707590000000001,-0.286971,-1.522914,1.581253,-1.59897
325,0.392184,0.8687219999999999,-0.302496,-0.806491,-0.986276,2.241843
326,0.37611,0.8833479999999999,-0.279692,-0.641415,0.121749,0.910307
327,0.321452,0.917003,-0.236143,-0.501139,0.581044,0.7435430000000001
328,0.23849,0.949577,-0.203507,1.122838,2.031883,0.275314
329,0.1885349999999999,0.968097,-0.165022,1.050952,0.589032,0.2473429999999999
330,0.144747,0.982866,-0.114061,0.581068,0.7652869999999999,0.335451
331,0.110472,0.992731,-0.047631,-0.281477,1.151694,-0.660331
332,0.067324,0.997714,-0.004541,0.318968,0.837674,-0.8711909999999999
333,0.021281,0.999237,0.032546,0.574545,0.598206,-0.7300260000000001
334,-0.021286,0.997907,0.060946,0.768494,0.078234,-0.383944
335,-0.055608,0.994961,0.083343,0.5552729999999999,-0.8139460000000001,-0.71141
336,-0.069952,0.992037,0.104669,0.712408,-1.135805,-0.8682340000000001
337,-0.060313,0.992158,0.10941,1.026622,-1.076966,-0.745625
338,-0.038855,0.994138,0.10082,0.663061,-1.520627,-0.392477
339,-0.0001699999999999,0.997932,0.064158,0.3743,-1.032799,-0.528514
340,0.041066,0.99914,0.004366,-0.293492,-0.0675299999999999,-0.303667
341,0.081073,0.994343,-0.068532,-0.078525,0.635418,-0.437953
342,0.1280369999999999,0.982152,-0.137744,0.111008,0.8698530000000001,-0.079786
343,0.190567,0.957561,-0.2162219999999999,-0.1100309999999999,1.372365,0.8228200000000001
344,0.268042,0.922829,-0.276642,-0.6212979999999999,1.604285,-0.54715
345,0.329109,0.887893,-0.321441,-0.562615,2.117554,-0.387544
346,0.3762,0.85162,-0.364977,0.476415,0.652027,0.081133
347,0.428484,0.810701,-0.398947,0.3835119999999999,0.594176,0.205862
348,0.466004,0.773945,-0.4287689999999999,0.342147,0.501735,0.469616
349,0.479439,0.745085,-0.463659,-0.135536,0.268754,0.690756
350,0.4753739999999999,0.72622,-0.4966069999999999,-0.799547,-0.429666,0.651804
351,0.459071,0.725646,-0.512529,-0.90214,-0.80429,0.788011
352,0.435806,0.754161,-0.491231,-1.011688,-1.517482,1.060155
353,0.43018,0.800929,-0.416475,-1.094456,-1.863673,1.153734
354,0.431403,0.8421280000000001,-0.32358,-1.037589,-1.821544,0.713594
355,0.418697,0.866145,-0.272905,-0.441479,-0.8632920000000001,-0.3164349999999999
356,0.404593,0.870842,-0.2791599999999999,0.691126,0.418296,-0.6548609999999999
357,0.43201,0.8595200000000001,-0.273101,0.5170710000000001,0.912254,0.348586
358,0.436168,0.869275,-0.232615,-0.961117,-0.118848,0.584086
359,0.3985309999999999,0.882703,-0.2489969999999999,-0.510454,1.163546,1.6673779999999998
360,0.388834,0.881019,-0.269453,0.079336,0.860893,2.384062
361,0.38155,0.88465,-0.267967,-0.331882,-0.6473760000000001,0.686714
362,0.358076,0.900279,-0.247531,-0.047057,0.688604,0.847766
363,0.307555,0.930095,-0.20081,0.1361099999999999,0.8585860000000001,0.7020310000000001
364,0.260283,0.953906,-0.149358,0.456849,1.2879459999999998,0.2793469999999999
365,0.2179559999999999,0.969382,-0.113075,0.331788,1.082102,0.1087559999999999
366,0.170413,0.983761,-0.056248,0.343869,1.0747870000000002,0.076435
367,0.120388,0.992693,-0.0075349999999999,0.0477029999999999,1.027616,-1.049792
368,0.065077,0.997406,0.030612,0.273119,0.793702,-0.555454
369,0.017117,0.998068,0.059641,0.5125770000000001,0.662622,-0.392542
370,-0.021262,0.996305,0.083157,0.741446,-0.133298,-0.5462
371,-0.0416459999999999,0.993505,0.105849,1.241689,-1.104589,-0.780196
372,-0.043969,0.992211,0.1165099999999999,1.305963,-1.159249,-0.794854
373,-0.037672,0.992969,0.11218,0.867735,-1.43674,-0.503583
374,-0.012905,0.996292,0.08501,0.110195,-0.44133,-0.940586
375,0.018665,0.99923,0.0343889999999999,-0.1127809999999999,-0.248665,-0.805858
376,0.045231,0.998168,-0.040094,-0.225575,-0.042281,0.008462
377,0.0746039999999999,0.989818,-0.121189,0.2287409999999999,0.788044,0.127461
378,0.126625,0.971166,-0.20198,0.406731,1.5348,0.3717789999999999
379,0.200782,0.939243,-0.278391,-0.593727,1.54623,0.673014
380,0.276323,0.901195,-0.333897,-0.639055,1.83994,-0.667507
381,0.330815,0.8607790000000001,-0.386802,-0.682774,1.609024,0.081428
382,0.38856,0.817731,-0.424656,0.319173,0.660892,0.1542859999999999
383,0.449142,0.775453,-0.443779,0.4364939999999999,0.518752,0.213189
384,0.486297,0.7435579999999999,-0.458947,0.192353,0.33884,0.5111020000000001
385,0.495251,0.725174,-0.4783779999999999,-0.212032,-0.098785,0.579284
386,0.485932,0.72185,-0.492746,-0.795136,-0.650942,0.533334
387,0.460399,0.745447,-0.482013,-0.870174,-1.259226,0.873065
388,0.439279,0.789813,-0.428047,-0.973306,-1.643054,1.099983
389,0.4234479999999999,0.835158,-0.350996,-1.025529,-1.891554,1.041135
390,0.397967,0.8671559999999999,-0.299428,-0.473696,-1.177245,0.171193
391,0.370946,0.880466,-0.29525,-2.1e-05,-0.356326,-0.750572
392,0.3819329999999999,0.8769030000000001,-0.291824,0.5351199999999999,-0.005291,-0.472183
393,0.418066,0.874922,-0.244389,-0.364279,0.349642,0.306996
394,0.395873,0.8894690000000001,-0.228303,-1.3649129999999998,1.144512,-3.077468
395,0.352434,0.8908,-0.286809,-0.28798,1.580605,2.636571
396,0.351045,0.8932770000000001,-0.280744,-0.481309,-0.2491429999999999,1.6460549999999998
397,0.338823,0.901337,-0.269784,-0.6206689999999999,-0.89499,0.900186
398,0.294967,0.925908,-0.235971,-0.162368,0.359462,0.703516
399,0.230861,0.956562,-0.178007,0.353078,2.049343,0.5605140000000001
400,0.189962,0.974409,-0.120141,0.815455,0.985414,0.06521
401,0.148527,0.98663,-0.067038,0.094622,0.8757969999999999,-0.053765
402,0.105903,0.994335,-0.008604,-0.076942,1.1908450000000002,-0.509508
403,0.051394,0.998258,0.028841,0.192761,0.8919090000000001,-0.8428209999999999
404,0.002851,0.998258,0.05887,0.66492,0.713016,-0.509019
405,-0.042538,0.995972,0.0788789999999999,0.966077,0.193069,-0.396461
406,-0.076072,0.992253,0.098171,0.911933,-0.73319,-0.6991229999999999
407,-0.087496,0.9893,0.1167049999999999,1.232852,-1.049374,-0.843893
408,-0.079907,0.989052,0.124025,1.137768,-1.145943,-0.8109609999999999
409,-0.05835,0.991263,0.118252,0.6873020000000001,-1.5241,-0.4394949999999999
410,-0.017096,0.996537,0.081311,-0.273385,-0.270768,-0.60185
411,0.022045,0.999582,0.018466,-0.357586,-0.015711,-0.306384
412,0.0603779999999999,0.99682,-0.051925,-0.060226,0.532385,-0.382828
413,0.114016,0.985996,-0.121679,0.240125,2.12727,0.581121
414,0.1754099999999999,0.963574,-0.201866,-0.170589,1.7449830000000002,0.769127
415,0.2360159999999999,0.933793,-0.268925,-0.6332939999999999,1.539412,-0.012447
416,0.290693,0.90222,-0.318578,9.4e-05,1.226366,0.385534
417,0.344764,0.8669030000000001,-0.360017,0.095498,0.8885290000000001,0.319658
418,0.400254,0.8318209999999999,-0.384533,0.370452,0.49899,0.276715
419,0.440698,0.802775,-0.4016639999999999,0.31594,0.431249,0.515937
420,0.459868,0.782723,-0.419358,0.054674,0.244483,0.677201
421,0.468035,0.771967,-0.430123,-0.832491,-0.524408,0.6896439999999999
422,0.460151,0.780242,-0.423649,-1.148491,-1.120925,0.989704
423,0.445565,0.813535,-0.373668,-1.08062,-1.405271,1.044292
424,0.423588,0.857124,-0.293096,-1.150913,-2.094337,0.935323
425,0.393521,0.8879100000000001,-0.238222,-0.699094,-1.524507,-0.2095469999999999
426,0.354568,0.903708,-0.23997,-0.300842,-1.029929,-0.64594
427,0.342519,0.90185,-0.263325,0.892451,0.679555,-0.679379
428,0.393365,0.8881549999999999,-0.237565,0.291022,1.028669,-0.208053
429,0.411261,0.8858309999999999,-0.214846,-0.930716,0.356936,0.468722
430,0.365882,0.892541,-0.263617,0.2362449999999999,0.377509,2.864492
431,0.359381,0.8873719999999999,-0.288807,-0.118612,-0.263806,1.7833439999999998
432,0.3511829999999999,0.8927809999999999,-0.282143,-0.3935869999999999,-0.941274,1.246468
433,0.321274,0.913617,-0.249157,-0.175705,0.312579,0.797665
434,0.255846,0.944387,-0.206564,0.098067,2.0313830000000004,0.4818939999999999
435,0.212385,0.964842,-0.154799,0.659456,0.8892680000000001,-0.153703
436,0.167864,0.979228,-0.1136869999999999,-0.089861,0.937611,0.324991
437,0.1215069999999999,0.991372,-0.049063,-0.043504,0.925467,0.260367
438,0.0701659999999999,0.997524,-0.003443,0.045191,1.043339,-0.8842979999999999
439,0.021083,0.99925,0.032322,0.7945909999999999,0.72539,-0.5257149999999999
440,-0.025044,0.997855,0.060399,0.969792,0.467325,-0.4358869999999999
441,-0.0622159999999999,0.994738,0.081328,0.7805989999999999,-0.557986,-0.538878
442,-0.0832909999999999,0.991256,0.102284,1.168268,-1.177185,-0.76299
443,-0.081125,0.99079,0.108364,1.220621,-1.140036,-0.7894100000000001
444,-0.067053,0.992071,0.1062369999999999,0.836935,-1.507315,-0.34786
445,-0.037328,0.996001,0.081099,-0.154414,-0.45616,-0.811995
446,-0.001243,0.999481,0.032014,-0.323678,-0.306992,-0.590501
447,0.029242,0.998854,-0.0377529999999999,-0.350943,-0.154066,0.008411
448,0.0677379999999999,0.991888,-0.107519,0.1184809999999999,0.566126,-0.1061039999999999
449,0.131251,0.975428,-0.176931,0.679708,2.479604,0.187215
450,0.207767,0.946204,-0.2480389999999999,-0.498721,1.80874,0.7654340000000001
451,0.273083,0.913674,-0.301028,-0.627575,1.488441,-0.38458
452,0.323104,0.882618,-0.341442,-0.2195119999999999,1.246319,0.189602
453,0.376152,0.848635,-0.3719159999999999,0.259667,0.6604899999999999,0.2386449999999999
454,0.429831,0.813929,-0.390842,0.4279409999999999,0.380254,0.186664
455,0.462758,0.7860520000000001,-0.409842,0.040629,0.306371,0.494025
456,0.469078,0.771422,-0.429961,-0.070564,0.051622,0.59645
457,0.4627979999999999,0.770083,-0.439072,-0.7420640000000001,-0.498079,0.5732119999999999
458,0.445192,0.79173,-0.418283,-1.048829,-1.456083,0.977121
459,0.425971,0.833458,-0.351978,-0.955695,-1.673225,1.055973
460,0.402041,0.873352,-0.274972,-0.8688540000000001,-2.119126,0.8888790000000001
461,0.367502,0.8982469999999999,-0.24101,-0.2408539999999999,-1.257118,0.065763
462,0.335738,0.907804,-0.251321,0.1343089999999999,-0.707411,-0.788321
463,0.348625,0.8984989999999999,-0.266743,0.892601,0.961456,-0.7639279999999999
464,0.392409,0.885188,-0.249896,-0.8744799999999999,0.391942,1.015582
465,0.385359,0.8938450000000001,-0.229192,-1.585524,0.354003,0.755025
466,0.323168,0.903363,-0.281935,-0.275591,0.570437,3.509581
467,0.341759,0.8967219999999999,-0.2812139999999999,-0.341759,-0.402764,1.308435
468,0.343779,0.902046,-0.260998,-0.520613,-0.940391,0.7609520000000001
469,0.301394,0.922667,-0.2404929999999999,-0.3426079999999999,0.8664719999999999,0.598068
470,0.234477,0.951287,-0.200156,0.2281699999999999,1.877906,0.750892
471,0.192173,0.969814,-0.150059,0.586987,1.2654,0.317692
472,0.1491839999999999,0.983433,-0.1029099999999999,0.353731,0.917033,0.091268
473,0.1059339999999999,0.993453,-0.042621,0.149834,0.987367,-0.51666
474,0.055202,0.998466,-0.002105,0.207142,1.051003,-0.7862560000000001
475,0.003123,0.999405,0.0341459999999999,0.432287,0.5519109999999999,-0.516079
476,-0.045866,0.997056,0.061325,0.8464950000000001,0.326171,-0.453705
477,-0.084432,0.99313,0.08093,0.8986559999999999,0.020512,-0.6001569999999999
478,-0.104391,0.989588,0.099009,1.019399,-1.316355,-0.701014
479,-0.100513,0.989873,0.10017,1.063648,-1.240773,-0.621594
480,-0.0840809999999999,0.992125,0.092746,0.868749,-1.382354,-0.355884
481,-0.053107,0.996743,0.060559,-0.1354,-0.445428,-0.757748
482,-0.019538,0.999752,0.009993,-0.168969,-0.448437,-0.707182
483,0.008646,0.998279,-0.057896,-0.161601,-0.345736,-0.125026
484,0.0413069999999999,0.989695,-0.137061,0.109358,0.142309,0.031715
485,0.096225,0.974504,-0.2026619999999999,1.041211,2.948134,0.434077
486,0.180713,0.948191,-0.261278,0.361096,2.644109,0.676668
487,0.260403,0.916169,-0.304655,-0.7176020000000001,1.5248549999999998,-0.5647300000000001
488,0.311138,0.8838309999999999,-0.3493239999999999,0.089069,1.443867,0.2046859999999999
489,0.353668,0.848957,-0.392662,0.4863439999999999,0.6914640000000001,0.290916
490,0.40588,0.814862,-0.413828,0.267994,0.410755,0.292459
491,0.4368869999999999,0.789108,-0.431776,0.05321,0.336457,0.450925
492,0.4453359999999999,0.7747390000000001,-0.44883,-0.150902,0.098338,0.690254
493,0.440638,0.770633,-0.460385,-1.090419,-0.6512180000000001,0.676007
494,0.428113,0.7872819999999999,-0.443733,-1.17822,-0.932759,0.758034
495,0.4116479999999999,0.830132,-0.376056,-1.128872,-1.516198,0.935153
496,0.388205,0.876449,-0.2848239999999999,-0.845633,-1.981796,0.5454899999999999
497,0.355172,0.90481,-0.234865,-0.401208,-1.4164219999999998,0.170351
498,0.320107,0.917958,-0.234251,-0.021371,-0.7715350000000001,-0.750811
499,0.3179,0.915208,-0.247636,0.8688370000000001,0.645201,-0.649169
500,0.358387,0.905216,-0.2283239999999999,0.394436,0.683117,-0.107445
501,0.360328,0.911339,-0.1990299999999999,-1.358665,0.160194,0.5239659999999999
502,0.3086489999999999,0.91925,-0.2443469999999999,0.223593,1.55803,3.466103
503,0.317161,0.911641,-0.261361,0.216836,0.603877,2.45443
504,0.316128,0.912616,-0.2591989999999999,-0.7754939999999999,-1.783939,0.84593
505,0.283932,0.930327,-0.232087,-0.476956,0.633882,0.863908
506,0.212646,0.960769,-0.178027,-0.352462,1.594666,0.8476440000000001
507,0.1622839999999999,0.979273,-0.121142,0.597329,2.067403,0.517199
508,0.115782,0.991303,-0.062449,0.434084,0.760314,-0.4465229999999999
509,0.073489,0.997281,-0.003894,-0.163501,1.055987,-0.477857
510,0.026562,0.999018,0.035264,-0.125637,0.8740290000000001,-0.7193
511,-0.023787,0.997578,0.065261,0.383528,0.5566369999999999,-0.456985
512,-0.072334,0.993938,0.082709,0.6873239999999999,0.368641,-0.408744
513,-0.1112799999999999,0.989307,0.094206,1.026548,-0.343097,-0.538725
514,-0.12755,0.985975,0.107567,1.413637,-1.096967,-0.762368
515,-0.121338,0.986206,0.112513,1.326706,-1.014328,-0.7299140000000001
516,-0.102416,0.988499,0.111201,0.794371,-1.50539,-0.415706
517,-0.068165,0.994251,0.082481,-0.109036,-0.608006,-0.695274
518,-0.033096,0.998942,0.031708,-0.327409,-0.378688,-0.5926060000000001
519,-0.004614,0.999111,-0.041753,-0.084833,0.116352,-0.194682
520,0.037203,0.993633,-0.10629,0.635908,1.6480150000000002,0.032773
521,0.1152329999999999,0.978392,-0.1716359999999999,0.509508,3.000001,0.822469
522,0.1913119999999999,0.950806,-0.24363,-0.35249,1.808929,0.7725920000000001
523,0.251227,0.922694,-0.292421,-0.51731,1.636708,-0.299941
524,0.296159,0.8934559999999999,-0.337663,0.069595,0.88021,0.4572
525,0.355468,0.8633190000000001,-0.3582079999999999,0.5490729999999999,0.409554,0.167931
526,0.407968,0.8332299999999999,-0.373203,0.246679,0.3815989999999999,0.479527
527,0.4333579999999999,0.812063,-0.390827,0.22129,0.402765,0.49715
528,0.444187,0.798017,-0.407258,-0.365757,-0.155469,0.686585
529,0.447053,0.795395,-0.409246,-1.394227,-0.998138,0.985479
530,0.4354739999999999,0.817473,-0.37695,-1.412509,-1.6898490000000002,1.26817
531,0.412789,0.85903,-0.3027559999999999,-1.430017,-2.017996,1.258353
532,0.383321,0.893322,-0.2345829999999999,-1.05692,-2.201595,0.3891239999999999
533,0.339994,0.913915,-0.221702,0.162204,-0.731557,-1.084756
534,0.304602,0.91928,-0.249261,0.631754,-0.318205,-1.404181
535,0.333473,0.907357,-0.2559079999999999,1.139443,1.138054,-0.799879
536,0.381796,0.894284,-0.233402,-0.413763,0.15372,1.376835
537,0.390787,0.899975,-0.193177,-1.401667,-0.9324,0.850709
538,0.339451,0.911684,-0.231501,-2.377613,0.684003,-4.053045
539,0.299819,0.911836,-0.280451,1.075074,2.928328,3.137506
540,0.267619,0.923074,-0.276231,0.844197,0.2214269999999999,0.934022
541,0.2534079999999999,0.93469,-0.249251,-0.140874,-1.15605,0.378417
542,0.225043,0.95171,-0.208782,-0.325477,1.0374709999999998,0.786709
543,0.198366,0.968969,-0.1474329999999999,-0.6676350000000001,1.753184,1.100268
544,0.158081,0.983387,-0.089145,0.227692,1.092205,-0.454343
545,0.109676,0.993515,-0.029736,0.481526,1.163284,-0.445667
546,0.060426,0.998108,0.010611,0.150877,0.725967,-0.748572
547,0.0131949999999999,0.999056,0.041192,0.1400799999999999,0.638487,-0.507303
548,-0.037248,0.997228,0.064273,0.577775,0.487299,-0.4519229999999999
549,-0.082324,0.993421,0.079499,0.885424,-0.097501,-0.4472819999999999
550,-0.109088,0.988871,0.101077,1.202106,-1.339167,-0.708957
551,-0.112381,0.987652,0.109065,1.105668,-1.440274,-0.5992689999999999
552,-0.106249,0.988073,0.111383,0.889711,-1.595433,-0.3640989999999999
553,-0.083301,0.99262,0.088024,0.1213109999999999,-0.4905609999999999,-0.894496
554,-0.047342,0.998154,0.037835,-0.193472,-0.239426,-0.6975640000000001
555,-0.015332,0.999272,-0.034711,-0.290286,-0.223973,-0.073596
556,0.029476,0.994215,-0.10322,0.3373,1.1523,0.047937
557,0.103289,0.980525,-0.167001,0.725538,3.043355,0.681451
558,0.1809,0.952903,-0.243391,-0.432853,1.647622,0.205184
559,0.248191,0.920043,-0.303168,-0.544669,1.505082,-0.358621
560,0.298427,0.887867,-0.350176,-0.383418,1.354015,-0.020277
561,0.351704,0.8542930000000001,-0.3827239999999999,0.098461,0.616807,0.18317
562,0.407647,0.822708,-0.396189,0.36753,0.4591989999999999,0.205592
563,0.44242,0.797216,-0.410733,0.261635,0.49531,0.388974
564,0.4519479999999999,0.78159,-0.4299439999999999,0.176226,0.239132,0.593808
565,0.451298,0.7756350000000001,-0.441262,-0.847751,-0.473984,0.6108939999999999
566,0.441647,0.789024,-0.427059,-1.419034,-1.215904,1.012264
567,0.426226,0.826744,-0.367173,-1.319704,-1.489677,1.193406
568,0.406869,0.8707020000000001,-0.2762699999999999,-1.026558,-2.174733,0.262171
569,0.372296,0.897574,-0.236103,-0.39433,-1.373099,-0.209195
570,0.331178,0.910412,-0.247908,0.326598,-0.527111,-1.205156
571,0.328935,0.905437,-0.268278,1.190764,1.709141,-0.922213
572,0.381495,0.889288,-0.252221,0.097722,0.949594,0.425988
573,0.3954789999999999,0.888532,-0.2325829999999999,-1.364214,-1.006345,1.50744
574,0.373906,0.903563,-0.209177,-1.242131,2.008607,-0.592916
575,0.323698,0.899183,-0.294411,0.509402,3.265566,2.673805
576,0.303344,0.903598,-0.302458,0.8121189999999999,0.826169,1.235625
577,0.300629,0.908893,-0.289004,-0.246689,-2.790073,0.664905
578,0.27607,0.923849,-0.265096,-0.203072,1.202967,0.748235
579,0.231998,0.94959,-0.210815,-0.131152,2.292537,0.964554
580,0.19638,0.966586,-0.16472,0.405594,1.2850780000000002,0.183229
581,0.15103,0.982872,-0.10553,0.262468,0.83625,-0.12941
582,0.112496,0.992863,-0.039385,0.027092,0.858318,-0.608854
583,0.064733,0.997885,0.004282,0.016856,0.657434,-0.592371
584,0.018424,0.999003,0.0404529999999999,0.265436,0.681478,-0.341082
585,-0.025554,0.99757,0.0646809999999999,0.377834,0.2324409999999999,-0.613417
586,-0.0571789999999999,0.994887,0.083135,0.430867,-0.7293689999999999,-0.796956
587,-0.067944,0.993909,0.086667,0.971524,-1.31564,-0.651883
588,-0.063094,0.994774,0.080159,1.038879,-1.440651,-0.361882
589,-0.0489089999999999,0.996882,0.0617799999999999,0.918965,-1.399226,-0.494733
590,-0.018709,0.9996,0.020801,0.104097,-0.679669,-0.7041350000000001
591,0.0131349999999999,0.99928,-0.035375,-0.1890079999999999,-0.599912,-0.550197
592,0.043291,0.993458,-0.105602,-0.206591,-0.43932,0.037273
593,0.081941,0.980076,-0.180893,0.163375,0.144557,0.1479339999999999
594,0.151411,0.958991,-0.239581,0.970278,2.109796,0.334995
595,0.260351,0.923254,-0.282501,-0.6523800000000001,2.10032,-0.165543
596,0.331703,0.886272,-0.32324,-0.990516,1.366963,-0.8163779999999999
597,0.376279,0.8486040000000001,-0.371852,-0.178541,1.270292,0.144939
598,0.4329909999999999,0.8117270000000001,-0.391928,0.342964,0.637721,0.2116
599,0.495937,0.774117,-0.39342,0.283269,0.606559,0.106052
600,0.526301,0.746544,-0.407026,-0.119959,0.441475,0.3775
601,0.5324270000000001,0.731776,-0.42546,-0.190691,-0.149577,0.428176
602,0.528249,0.730069,-0.433525,-0.4960989999999999,-0.262753,0.4052199999999999
603,0.516687,0.7504810000000001,-0.412071,-1.13061,-0.75129,0.680916
604,0.497129,0.797718,-0.341318,-1.626264,-1.599873,1.111673
605,0.465079,0.84629,-0.259775,-1.568885,-1.94715,1.01034
606,0.425887,0.8752770000000001,-0.229123,0.180818,-1.183627,-0.337482
607,0.392544,0.8880129999999999,-0.239438,0.7654449999999999,-0.278897,-1.203357
608,0.405095,0.882784,-0.237862,1.263362,0.269926,-0.702857
609,0.447612,0.871017,-0.202388,0.5040789999999999,0.685883,0.056224
610,0.4453359999999999,0.877656,-0.177152,-1.493752,0.041564,-0.196414
611,0.385758,0.8939799999999999,-0.227985,-0.957383,2.421709,-0.305508
612,0.378538,0.891868,-0.247525,-0.051863,1.531213,2.932767
613,0.382867,0.892739,-0.237523,-0.32493,-1.080758,0.698842
614,0.359214,0.907197,-0.218966,-0.435005,0.844558,0.6198600000000001
615,0.302002,0.933007,-0.19565,-0.3280949999999999,1.898719,0.610414
616,0.252343,0.955266,-0.154197,0.579383,1.520458,0.583183
617,0.2154489999999999,0.969894,-0.1134579999999999,0.545354,0.378113,-0.175223
618,0.180342,0.981957,-0.05677,-0.107573,0.789085,0.1423569999999999
619,0.146102,0.989262,0.00033,-0.4431449999999999,0.842068,-0.5271859999999999
620,0.099335,0.994229,0.040308,-0.040344,0.5775640000000001,-0.555322
621,0.048928,0.996154,0.072564,0.666435,0.771958,-0.367836
622,0.005258,0.995655,0.092873,0.941016,-0.064686,-0.648613
623,-0.026441,0.993914,0.1068559999999999,1.203443,-1.359667,-0.666442
624,-0.036075,0.993473,0.108124,1.259983,-1.269459,-0.665421
625,-0.031528,0.993778,0.106733,1.00986,-1.288273,-0.450209
626,-0.011653,0.995965,0.088878,0.44247,-0.917031,-0.763423
627,0.019383,0.998599,0.049052,-0.095265,-0.684497,-0.6080270000000001
628,0.048319,0.998789,-0.008355,-0.236688,-0.500101,-0.055625
629,0.079025,0.993858,-0.0773659999999999,-0.000641,0.122643,-0.243175
630,0.125447,0.982563,-0.137179,0.563549,1.691143,0.274996
631,0.2052739999999999,0.959041,-0.195169,-0.367231,2.280385,0.8796930000000001
632,0.279,0.930207,-0.238458,-1.002617,1.503708,-0.646887
633,0.330899,0.899609,-0.284953,-0.4198119999999999,1.592457,-0.160222
634,0.389789,0.86798,-0.307674,0.006192,1.114289,0.150844
635,0.453696,0.8348469999999999,-0.311735,0.364358,0.575019,0.135038
636,0.5076350000000001,0.80094,-0.317476,0.278498,0.538782,0.168642
637,0.532857,0.777169,-0.334754,0.184352,0.352988,0.434851
638,0.537461,0.76444,-0.356028,-0.221146,-0.049627,0.4231359999999999
639,0.5315489999999999,0.762695,-0.368429,-0.945047,-0.3639219999999999,0.461339
640,0.5123310000000001,0.780945,-0.357254,-1.466433,-1.265594,1.080261
641,0.487962,0.820739,-0.297101,-1.553025,-1.536956,1.230206
642,0.460852,0.8634569999999999,-0.2050449999999999,-1.526251,-2.149803,0.969709
643,0.426272,0.891217,-0.154949,-0.155093,-0.936795,-0.887547
644,0.395523,0.90418,-0.161261,0.196655,-0.6364029999999999,-1.632379
645,0.411261,0.896309,-0.165769,1.440973,0.592216,-1.291048
646,0.45538,0.8792620000000001,-0.1396859999999999,-0.532269,0.485743,1.243934
647,0.4598859999999999,0.8769520000000001,-0.139446,-1.2532370000000002,0.780488,1.179485
648,0.452604,0.872948,-0.181929,-0.575925,2.520607,-1.27286
649,0.4765689999999999,0.854584,-0.206286,-0.86193,-0.969453,0.843432
650,0.4877979999999999,0.855139,-0.1754339999999999,-0.934896,-1.074728,0.844852
651,0.4579479999999999,0.8765959999999999,-0.147812,-1.109621,-0.3028659999999999,0.793121
652,0.390833,0.910105,-0.13764,-0.2651159999999999,2.419592,0.526342
653,0.353045,0.930223,-0.1001529999999999,0.480817,1.778289,0.317392
654,0.327924,0.942898,-0.0582549999999999,0.644397,0.230762,0.184857
655,0.29434,0.955657,-0.008202,-0.140089,0.574235,0.085213
656,0.252192,0.966653,0.044326,-0.0426589999999999,0.768043,-0.24504
657,0.2000289999999999,0.975673,0.08963,0.216658,0.744725,-0.443238
658,0.153139,0.979212,0.132945,0.8093090000000001,0.377798,-0.65861
659,0.114131,0.979818,0.164048,0.513005,-0.5031180000000001,-0.886444
660,0.084938,0.980895,0.1749619999999999,0.482933,-0.8059529999999999,-0.739904
661,0.072229,0.983707,0.164573,0.596304,-0.92519,-0.700691
662,0.075694,0.986304,0.14648,0.346227,-1.087989,-0.771282
663,0.09379,0.989418,0.110623,0.114767,-0.997673,-0.621777
664,0.1212859999999999,0.99097,0.057017,-0.112116,-0.8306620000000001,-0.142833
665,0.153572,0.988103,-0.007197,-0.112221,-0.296453,-0.226064
666,0.202219,0.977137,-0.065551,0.320562,1.0146389999999998,-0.442276
667,0.274687,0.952902,-0.128493,0.206483,2.98681,0.4963979999999999
668,0.349538,0.92012,-0.1766049999999999,-0.844533,1.460968,0.299392
669,0.3997989999999999,0.88918,-0.222503,-0.350468,1.160182,-0.395523
670,0.451816,0.8555889999999999,-0.252621,-0.413303,1.058382,0.143154
671,0.5121100000000001,0.819122,-0.2584,-0.333369,0.7737890000000001,0.16906
672,0.564058,0.784077,-0.258939,-0.072786,0.396419,0.176236
673,0.602433,0.754444,-0.260531,-0.026475,0.283352,0.1094079999999999
674,0.626441,0.73248,-0.266521,-0.171729,0.188006,0.244456
675,0.637019,0.722939,-0.267498,-0.531321,-0.23098,0.341961
676,0.6397430000000001,0.72763,-0.24753,-1.178562,-0.693725,0.440676
677,0.627049,0.754608,-0.193296,-1.6308790000000002,-1.153275,0.822401
678,0.594791,0.796705,-0.107102,-1.806049,-1.691221,0.672135
679,0.5517380000000001,0.832047,-0.05717,-0.734798,-1.6067209999999998,-0.247258
680,0.511886,0.857086,-0.0579909999999999,0.452454,-0.7105100000000001,-0.898918
681,0.502142,0.8631639999999999,-0.052791,1.537683,0.125376,-0.418919
682,0.5303859999999999,0.8472870000000001,-0.027949,1.262262,1.002627,-1.079015
683,0.541287,0.8397700000000001,-0.042205,-1.171231,0.0375949999999999,0.534621
684,0.515566,0.852375,-0.087382,-1.025637,2.727856,0.378168
685,0.5226029999999999,0.8430469999999999,-0.127067,-0.47025,0.147706,2.044684
686,0.555426,0.823866,-0.112845,-0.756857,-0.7391949999999999,0.998755
687,0.565088,0.8234459999999999,-0.050989,-1.038614,-0.502492,0.493585
688,0.535452,0.8442649999999999,-0.022236,-0.684469,1.663304,0.191181
689,0.487276,0.8731260000000001,-0.014103,-0.171511,2.681714,0.192722
690,0.4761359999999999,0.8792040000000001,0.0167639999999999,0.556823,0.517571,-0.051538
691,0.456849,0.888589,0.041025,-0.435609,0.3766239999999999,0.153494
692,0.428863,0.900193,0.075586,-0.400619,0.3527969999999999,0.032996
693,0.387629,0.914219,0.118032,-0.26858,0.390576,-0.0250449999999999
694,0.3402489999999999,0.926296,0.161834,0.471962,0.7208899999999999,-0.0818779999999999
695,0.301369,0.932229,0.200273,0.720482,0.528922,-0.203401
696,0.264949,0.936595,0.229291,0.8788799999999999,-0.0995279999999999,-0.67175
697,0.241846,0.940833,0.237328,0.254019,-0.499351,-0.951424
698,0.233432,0.946702,0.221917,0.305935,-0.589188,-0.813973
699,0.237627,0.952364,0.191098,0.304212,-0.671556,-0.934781
700,0.253612,0.957251,0.139046,-0.149501,-0.67974,-0.534051
701,0.27551,0.958633,0.0714289999999999,-0.328,-0.6973560000000001,-0.112658
702,0.298172,0.954501,0.002371,-0.358932,-0.602908,0.1047309999999999
703,0.330543,0.942036,-0.057398,0.111977,1.633952,-0.343343
704,0.38747,0.91703,-0.094397,0.05505,1.658959,-0.306345
705,0.454776,0.8799629999999999,-0.137227,-0.496906,0.932064,0.600057
706,0.509957,0.8460780000000001,-0.155186,-0.234475,1.050192,-0.368587
707,0.5453899999999999,0.818666,-0.179788,0.2322739999999999,0.938017,0.254312
708,0.5850489999999999,0.7893180000000001,-0.1862369999999999,-0.327557,0.725071,-0.1005669999999999
709,0.625135,0.758849,-0.182602,-0.341764,0.4400489999999999,-0.171158
710,0.650659,0.736999,-0.182935,-0.416147,0.120164,-0.074344
711,0.664361,0.724136,-0.185046,-0.4857109999999999,-0.060058,0.105029
712,0.66382,0.724747,-0.184593,-0.537035,-0.415771,0.236305
713,0.653022,0.7393270000000001,-0.164154,-0.65464,-0.4963909999999999,0.256363
714,0.633451,0.766632,-0.104897,-1.058958,-0.8325040000000001,0.365578
715,0.597534,0.801798,-0.007716,-1.517318,-1.202021,0.369059
716,0.545208,0.833283,0.091504,-1.351055,-1.541138,0.1280089999999999
717,0.499507,0.8572620000000001,0.124822,-0.034785,-0.900337,-0.668646
718,0.476663,0.8697520000000001,0.127707,1.025794,-0.0818639999999999,-0.415945
719,0.481229,0.858247,0.178366,1.267199,0.2493429999999999,-0.1598109999999999
720,0.491135,0.843115,0.2189239999999999,-0.229508,0.036387,-0.6088779999999999
721,0.5080399999999999,0.8375790000000001,0.200845,-0.260847,2.318442,-1.825159
722,0.525988,0.8319629999999999,0.176512,-0.650866,2.017326,1.4077309999999998
723,0.532297,0.8297,0.168049,-1.251337,-0.735507,-0.8598370000000001
724,0.502795,0.837375,0.214434,-1.306949,-0.657382,0.458158
725,0.447536,0.862483,0.236256,-0.936855,0.493413,0.284298
726,0.392887,0.890597,0.229039,0.079327,2.762449,0.177668
727,0.382874,0.890279,0.246565,1.032378,0.797603,0.402117
728,0.3605,0.8884780000000001,0.283953,0.8886299999999999,0.3351699999999999,-0.095294
729,0.3169929999999999,0.8931040000000001,0.319159,0.257866,0.452217,-0.433218
730,0.275293,0.896389,0.347392,0.04029,0.802188,-0.41415
731,0.229064,0.8995799999999999,0.371841,0.302201,0.668199,-0.540924
732,0.182271,0.902714,0.389698,0.970088,0.187969,-0.856785
733,0.146004,0.90477,0.400067,0.901344,-0.425324,-0.693997
734,0.119832,0.908551,0.400194,0.857341,-0.72746,-0.7538159999999999
735,0.1171079999999999,0.914523,0.387186,0.575321,-0.64136,-0.976175
736,0.135572,0.923688,0.35833,0.5088060000000001,-0.940564,-0.954567
737,0.166845,0.934931,0.313126,0.290339,-0.997934,-0.84221
738,0.2028,0.947637,0.246656,-0.496379,-0.579335,-0.748456
739,0.238208,0.955956,0.17143,-0.573611,-0.369759,-0.2087679999999999
740,0.2702489999999999,0.958168,0.094145,-0.347428,0.151375,-0.5090319999999999
741,0.316671,0.947661,0.0405279999999999,0.406519,1.804979,-0.033463
742,0.388049,0.921616,-0.005028,-0.316608,2.437148,-0.047187
743,0.4559229999999999,0.88897,-0.043049,-0.67185,1.358421,0.222355
744,0.498579,0.863549,-0.07542,0.047915,1.270926,-0.031849
745,0.53961,0.834643,-0.110358,0.559236,0.8271,-0.332025
746,0.58717,0.799114,-0.128978,0.050342,0.8549389999999999,-0.285115
747,0.6240220000000001,0.767211,-0.148228,-0.1052839999999999,0.381333,-0.289958
748,0.6451319999999999,0.743289,-0.1769619999999999,-0.658208,-0.220873,0.135153
749,0.650774,0.732899,-0.198343,-0.663851,-0.210484,0.1565339999999999
750,0.6423840000000001,0.741799,-0.192521,-0.935872,-0.891228,0.4338079999999999
751,0.62846,0.765996,-0.135183,-1.148922,-1.061208,0.595816
752,0.605226,0.795377,-0.032598,-1.295609,-1.209318,0.508825
753,0.56519,0.821608,0.074191,-1.347371,-1.658262,0.192991
754,0.5244949999999999,0.8400989999999999,0.1382789999999999,-0.4276779999999999,-1.209255,-0.4584689999999999
755,0.4998069999999999,0.85188,0.156448,0.7095130000000001,-0.311184,-1.694168
756,0.4917609999999999,0.850612,0.186046,0.924407,0.6520279999999999,0.1159859999999999
757,0.482278,0.8490969999999999,0.215462,0.108771,1.420068,-0.8259200000000001
758,0.4874529999999999,0.851942,0.191224,0.227696,2.393145,0.043975
759,0.487493,0.854532,0.179189,-1.01209,-0.342294,0.532939
760,0.465262,0.862383,0.199519,-1.306052,-0.502657,-0.049799
761,0.413621,0.879994,0.233471,-0.884279,-0.000172,0.241352
762,0.352062,0.903276,0.245204,0.080387,1.400404,0.131794
763,0.302565,0.921535,0.243326,1.308198,0.998829,-0.099847
764,0.275429,0.92702,0.254467,1.015739,0.597867,-0.036084
765,0.235389,0.92837,0.287578,0.07325,0.561529,0.080068
766,0.178036,0.926803,0.330634,0.0578039999999999,0.632538,-0.465888
767,0.12204,0.925706,0.357987,0.729126,1.068175,-0.727692
768,0.077626,0.924814,0.3723869999999999,1.277782,0.820089,-0.737301
769,0.039397,0.92394,0.380476,1.125414,0.136973,-1.065382
770,0.010911,0.922516,0.385776,0.792616,-0.267304,-0.860325
771,-0.0029649999999999,0.921309,0.388794,0.5755060000000001,-0.6269819999999999,-0.8731389999999999
772,0.001215,0.923147,0.384416,0.731115,-0.740347,-0.8909469999999999
773,0.023309,0.927382,0.373361,0.912971,-1.222181,-1.098001
774,0.060557,0.935191,0.3488989999999999,0.703496,-1.482798,-0.698951
775,0.1094509999999999,0.949516,0.293973,-0.412704,-0.272239,-0.919476
776,0.1560369999999999,0.962621,0.221347,-0.555634,-0.1191,-0.5638770000000001
777,0.1982799999999999,0.970181,0.139346,-0.304374,0.776554,-0.252154
778,0.250799,0.965903,0.064146,0.285853,1.892587,-0.0082379999999999
779,0.316073,0.948726,0.0014529999999999,0.4244819999999999,2.6442,-0.001408
780,0.38521,0.922194,-0.034022,-0.766008,1.447725,0.169505
781,0.436253,0.895127,-0.091748,0.66296,0.823959,0.2110719999999999
782,0.4928149999999999,0.859497,-0.135594,0.741301,0.841477,-0.007625
783,0.544745,0.8231719999999999,-0.1600849999999999,0.516076,0.461481,-0.199763
784,0.5752109999999999,0.794291,-0.1955039999999999,0.223617,0.301351,0.143228
785,0.586124,0.771989,-0.245926,-0.071095,0.313781,0.378037
786,0.579022,0.763579,-0.285779,-0.8063020000000001,-0.604247,0.615247
787,0.563713,0.774315,-0.287495,-1.117607,-1.282844,0.743794
788,0.545938,0.804076,-0.235376,-1.189218,-1.394729,0.805872
789,0.5233899999999999,0.8395520000000001,-0.14561,-1.400373,-1.954741,0.75265
790,0.490089,0.869624,-0.0596029999999999,-0.5893619999999999,-1.105281,-0.108397
791,0.448027,0.8938790000000001,-0.015408,-0.206664,-0.743442,-0.953204
792,0.4232729999999999,0.905591,-0.0270259999999999,0.955374,0.269305,-0.399014
793,0.4297689999999999,0.902887,-0.008867,-0.172933,0.934591,-1.0280129999999998
794,0.425624,0.904839,0.009794,-0.6587930000000001,1.952782,-1.683759
795,0.416458,0.908783,-0.025731,-0.168792,1.631516,1.301275
796,0.413567,0.910065,-0.027014,-0.97036,-1.148087,0.245505
797,0.395857,0.918189,-0.014559,-0.999159,-0.88764,0.269518
798,0.346155,0.938169,0.001176,-0.543024,0.427203,0.368697
799,0.273083,0.961884,0.013803,1.454487,1.518997,0.118063
800,0.228737,0.973147,0.0254789999999999,1.453376,0.730665,0.053424
801,0.193815,0.979892,0.047247,0.382342,0.770352,0.161569
802,0.149398,0.984858,0.08786,0.0330209999999999,0.652364,-0.1837
803,0.09621,0.986745,0.130623,-0.006931,0.768046,-0.475487
804,0.040096,0.985401,0.165409,0.6769149999999999,0.880764,-0.636997
805,-0.005314,0.981907,0.189244,1.20467,0.366207,-0.788944
806,-0.048512,0.977177,0.206769,0.917409,-0.286427,-0.711881
807,-0.082119,0.971996,0.220142,0.5180319999999999,-0.8614,-0.6193270000000001
808,-0.097106,0.967717,0.232544,0.8809809999999999,-0.984532,-0.647446
809,-0.090398,0.967802,0.234881,0.987722,-1.196303,-0.771273
810,-0.067679,0.970516,0.231301,0.42298,-1.233226,-0.531121
811,-0.030123,0.977951,0.206605,0.020312,-0.6402439999999999,-0.425645
812,0.0155699999999999,0.987022,0.159776,0.012506,0.0756309999999999,-0.518892
813,0.061871,0.992118,0.108889,0.3564179999999999,0.876717,-0.572573
814,0.1172769999999999,0.991611,0.054196,0.193621,1.364422,0.230533
815,0.181203,0.983304,-0.016241,-0.527241,0.779299,0.263662
816,0.246135,0.966771,-0.068972,-0.340205,1.7797189999999998,-0.523389
817,0.30853,0.944599,-0.1119339999999999,0.318438,1.603955,0.254528
818,0.357501,0.920703,-0.1564809999999999,0.443509,0.68237,-0.158796
819,0.412743,0.890978,-0.189181,0.370551,0.667203,0.019534
820,0.458478,0.862042,-0.2160349999999999,0.4745359999999999,0.48711,0.077302
821,0.490031,0.835513,-0.2485489999999999,0.039464,0.4371609999999999,0.309615
822,0.504854,0.8165180000000001,-0.280019,-0.538546,-0.032338,0.427755
823,0.505246,0.8094819999999999,-0.299091,-0.88995,-0.76395,0.5275
824,0.490909,0.8203309999999999,-0.293353,-0.977786,-1.298053,0.826617
825,0.472876,0.8473350000000001,-0.241664,-1.085272,-1.575103,0.983684
826,0.4516699999999999,0.8780290000000001,-0.158263,-1.068583,-1.900627,0.609358
827,0.4196609999999999,0.902601,-0.095828,-0.369506,-1.159849,-0.4999659999999999
828,0.389748,0.916527,-0.08979,0.5796279999999999,-0.471413,-1.210884
829,0.390048,0.916071,-0.093077,0.716443,0.3976949999999999,0.306349
830,0.409053,0.91078,-0.056047,-0.292125,0.022157,0.088258
831,0.393465,0.918273,-0.044106,-1.454775,1.697495,-1.217216
832,0.346364,0.931236,-0.113219,0.017939,1.313149,2.392104
833,0.351112,0.92956,-0.112365,-0.376517,-0.219157,1.089599
834,0.338445,0.936039,-0.0962929999999999,-0.402929,0.114299,0.542978
835,0.28897,0.955015,-0.0665429999999999,-0.018234,0.7381,0.124923
836,0.223461,0.974016,-0.036648,0.458484,1.277021,0.191266
837,0.177947,0.983938,-0.013661,0.6864779999999999,1.093867,0.260151
838,0.1335299999999999,0.990806,0.021408,0.3380579999999999,0.763329,0.077301
839,0.087388,0.99353,0.072421,0.082579,0.735382,-0.339465
840,0.04018,0.992728,0.113407,0.30804,0.741693,-0.602406
841,-0.007638,0.989324,0.145477,0.8698969999999999,0.607982,-0.672271
842,-0.055707,0.984073,0.168757,1.084683,0.440457,-0.7065229999999999
843,-0.09816,0.977864,0.18474,0.75737,-0.754903,-0.7273729999999999
844,-0.124785,0.971128,0.2032769999999999,1.111708,-1.163053,-0.696808
845,-0.127051,0.968331,0.214889,1.226706,-1.083321,-0.8532709999999999
846,-0.112791,0.970346,0.213753,0.77815,-1.433694,-0.381661
847,-0.08307,0.976475,0.198944,0.255555,-0.81963,-0.650452
848,-0.044524,0.985904,0.1612299999999999,-0.132448,-0.3196739999999999,-0.665258
849,-0.009215,0.994802,0.101334,-0.129945,-0.057485,-0.283753
850,0.0308629999999999,0.999067,0.0299589999999999,0.383825,0.65053,-0.110845
851,0.086307,0.995801,-0.030295,1.031842,2.341617,0.230902
852,0.161959,0.982263,-0.094418,0.4693279999999999,2.073019,0.5326350000000001
853,0.23822,0.96035,-0.144797,-0.593795,1.869118,-0.652567
854,0.296591,0.935045,-0.194197,0.306802,1.053053,0.288908
855,0.342814,0.908153,-0.2402619999999999,0.33788,0.746892,0.098736
856,0.40365,0.875918,-0.26424,0.30831,0.561704,0.06052
857,0.452793,0.8472149999999999,-0.277838,0.379452,0.318434,0.190573
858,0.482199,0.8258690000000001,-0.292257,0.239222,0.187818,0.418066
859,0.495845,0.814441,-0.301351,-0.687663,-0.39043,0.501424
860,0.495141,0.817729,-0.293504,-1.204934,-1.04423,0.6872119999999999
861,0.47762,0.8429610000000001,-0.247558,-1.271626,-1.569218,0.939361
862,0.446114,0.879117,-0.167701,-1.201775,-2.140667,0.787605
863,0.4031949999999999,0.908641,-0.108591,-0.444577,-1.461085,-0.285086
864,0.360097,0.926919,-0.1055339999999999,0.169596,-0.728097,-1.217876
865,0.342066,0.930795,-0.12883,1.130072,0.4972899999999999,-0.580917
866,0.3790239999999999,0.91959,-0.103345,0.649998,1.4318959999999998,-0.784564
867,0.403678,0.911272,-0.081324,-1.28768,2.013335,-0.584341
868,0.382393,0.91472,-0.130575,-0.896752,-0.41446,1.314352
869,0.381256,0.914424,-0.135866,-1.034133,-1.110622,1.072542
870,0.36643,0.923706,-0.1117269999999999,-0.949606,-0.586013,0.737108
871,0.308392,0.947114,-0.088633,-0.543896,0.954055,0.154246
872,0.22269,0.972227,-0.071902,0.7676970000000001,2.217409,0.4405229999999999
873,0.171933,0.983768,-0.051225,1.21828,0.628155,0.154802
874,0.131548,0.991251,-0.010026,0.153441,0.834158,0.01999
875,0.091056,0.99489,0.043434,-0.027732,0.846999,-0.372413
876,0.046674,0.995252,0.085307,0.302798,0.958987,-0.554393
877,0.006498,0.992796,0.119563,0.935687,0.372728,-0.644863
878,-0.033252,0.988278,0.148938,1.004504,0.2197449999999999,-0.606564
879,-0.0690549999999999,0.982252,0.174339,0.8005,-0.299222,-0.56124
880,-0.093969,0.974082,0.205702,0.8443809999999999,-1.0628879999999998,-0.788909
881,-0.097333,0.967264,0.234319,0.965497,-0.8833260000000001,-0.8183189999999999
882,-0.085629,0.966293,0.242745,0.620999,-1.2919459999999998,-0.40728
883,-0.059883,0.970047,0.235379,0.1721869999999999,-0.7112569999999999,-0.780378
884,-0.024909,0.979076,0.201913,-0.154015,-0.378185,-0.8750700000000001
885,0.00793,0.989397,0.144956,-0.147091,-0.072237,-0.420728
886,0.0471959999999999,0.996215,0.072869,0.251922,0.601121,-0.232537
887,0.102792,0.994616,0.012492,0.7009340000000001,1.927976,0.302251
888,0.176116,0.982696,-0.0572299999999999,0.175141,1.7314459999999998,0.615564
889,0.251373,0.961373,-0.112065,-0.479614,2.288902,-0.693249
890,0.312646,0.937499,-0.152749,0.1920079999999999,1.6682290000000002,0.039971
891,0.360534,0.911348,-0.1986099999999999,0.453217,0.635054,0.000505
892,0.418022,0.880432,-0.223795,0.281792,0.563218,0.089701
893,0.46347,0.851827,-0.244077,0.2489019999999999,0.5112869999999999,0.278379
894,0.489985,0.829318,-0.268577,-0.133936,0.2553829999999999,0.420096
895,0.5014850000000001,0.815144,-0.2898969999999999,-0.767766,-0.279652,0.37466
896,0.5005390000000001,0.813832,-0.29517,-1.082417,-1.257451,0.584156
897,0.484808,0.8335030000000001,-0.26499,-1.033316,-1.399894,0.635641
898,0.460013,0.8655379999999999,-0.1980309999999999,-0.980048,-1.7889240000000002,0.611468
899,0.42868,0.8927299999999999,-0.138748,-0.521163,-1.6959220000000002,0.062271
900,0.396468,0.910195,-0.119762,-0.082411,-0.822731,-0.833699
901,0.386703,0.91366,-0.125183,0.4998329999999999,-0.024423,-0.506089
902,0.404993,0.908887,-0.09944,0.386236,0.049487,0.613325
903,0.418224,0.906768,-0.053321,-0.920558,0.424439,-1.492395
904,0.399712,0.913773,-0.072337,-0.08355,2.07547,0.8731030000000001
905,0.393822,0.91373,-0.099924,-0.5180899999999999,0.261746,1.215891
906,0.386842,0.917051,-0.09671,-1.106432,-0.736372,0.598831
907,0.352201,0.933238,-0.070732,-0.847425,-0.074763,0.583412
908,0.285294,0.957743,-0.036298,-0.286653,1.176657,0.153775
909,0.212532,0.977143,-0.0012259999999999,1.159813,2.093261,0.449316
910,0.1658089999999999,0.985437,0.037451,1.338982,0.691138,0.0810029999999999
911,0.125146,0.987546,0.095238,0.285056,0.753985,-0.345161
912,0.085219,0.986297,0.1411859999999999,-0.025374,0.980759,-0.937343
913,0.040779,0.98426,0.171892,0.364235,0.528451,-0.7507189999999999
914,-0.002825,0.980629,0.195795,0.729449,0.348854,-0.555948
915,-0.046375,0.976517,0.210338,0.8189270000000001,-0.220596,-0.5121720000000001
916,-0.083186,0.970066,0.228098,0.8234969999999999,-1.083225,-0.90655
917,-0.091908,0.964873,0.246069,1.181782,-1.1777030000000002,-0.93511
918,-0.079183,0.965143,0.249411,0.8904620000000001,-1.352411,-0.549674
919,-0.050448,0.969498,0.239803,0.0034659999999999,-0.620041,-0.838161
920,-0.011302,0.978387,0.206421,-0.265126,-0.329202,-0.7724
921,0.026558,0.9885,0.148798,-0.142784,0.134745,-0.574839
922,0.0689419999999999,0.994039,0.084339,0.27319,0.841349,-0.328861
923,0.126813,0.991736,0.018965,0.410861,1.72883,0.280061
924,0.192947,0.979856,-0.05134,-0.372558,1.026644,0.4410189999999999
925,0.26052,0.95999,-0.102625,-0.26905,2.248079,-0.4681909999999999
926,0.317132,0.936379,-0.1503519999999999,0.465492,1.178199,0.266303
927,0.373915,0.906946,-0.193966,0.354586,0.790747,-0.034076
928,0.433652,0.874158,-0.218586,0.3801449999999999,0.6468079999999999,0.007206
929,0.475894,0.8453959999999999,-0.242519,0.3735469999999999,0.443239,0.343777
930,0.500339,0.822938,-0.269109,-0.0436579999999999,0.167098,0.432302
931,0.509142,0.810248,-0.290274,-0.6676350000000001,-0.3376369999999999,0.459585
932,0.502877,0.8140850000000001,-0.290458,-1.161798,-1.182265,0.837989
933,0.489042,0.8384379999999999,-0.24051,-1.2675299999999998,-1.594252,1.173524
934,0.472276,0.867617,-0.155492,-1.361665,-2.194766,0.985754
935,0.443223,0.891443,-0.094151,-1.077332,-1.796686,-0.3139909999999999
936,0.405416,0.90966,-0.090207,-0.3078059999999999,-0.7874369999999999,-0.944537
937,0.3820739999999999,0.918731,-0.099677,0.795111,0.363984,-0.127618
938,0.39136,0.917833,-0.066337,0.69,0.6702560000000001,-0.1613089999999999
939,0.392949,0.918772,-0.037797,-0.746129,0.125356,0.055085
940,0.357069,0.932281,-0.057738,-0.289091,1.543061,0.959532
941,0.327939,0.937176,-0.1189089999999999,0.7197140000000001,1.138065,2.584164
942,0.326759,0.936598,-0.126473,0.019874,-0.826048,0.747444
943,0.305056,0.947009,-0.100483,-0.2321489999999999,0.14047,0.5209229999999999
944,0.258586,0.964153,-0.059355,-0.049235,1.054707,0.5026229999999999
945,0.213483,0.976841,-0.013649,0.61687,1.832424,0.518242
946,0.169186,0.985379,0.019574,0.203663,0.812869,-0.042463
947,0.121071,0.989977,0.072565,0.182929,0.962812,0.158041
948,0.066333,0.9902,0.122805,-0.265033,1.016163,-0.673098
949,0.015212,0.987953,0.1539289999999999,0.598954,0.750786,-0.574553
950,-0.030848,0.984731,0.171254,1.165553,0.533747,-0.668706
951,-0.0758559999999999,0.980231,0.18267,1.165318,-0.225959,-0.679725
952,-0.110579,0.974442,0.195477,0.997542,-0.994339,-0.560177
953,-0.119524,0.970145,0.21097,1.189196,-0.995749,-0.7557699999999999
954,-0.1091299999999999,0.969678,0.218612,1.092712,-1.285809,-0.712478
955,-0.082996,0.971802,0.220651,0.714802,-1.51883,-0.486092
956,-0.043706,0.979678,0.195696,-0.080164,-0.398913,-0.567415
957,-0.0034549999999999,0.989492,0.144465,-0.167184,0.013422,-0.38508
958,0.0396269999999999,0.995614,0.084622,0.260407,0.822684,-0.44682
959,0.10207,0.994407,0.026739,0.405513,2.248467,0.303323
960,0.1741359999999999,0.983645,-0.045816,-0.092303,1.936917,0.5258109999999999
961,0.242222,0.964119,-0.1085599999999999,-0.417103,1.825752,-0.575354
962,0.301112,0.940171,-0.159352,0.119542,1.388183,0.4296149999999999
963,0.353404,0.912323,-0.206778,0.317265,0.717133,0.04328
964,0.411563,0.879592,-0.238573,0.412472,0.521622,0.030474
965,0.459552,0.8476389999999999,-0.26515,0.2676969999999999,0.478807,0.2188699999999999
966,0.488965,0.821299,-0.293882,-0.033048,0.299413,0.437284
967,0.505045,0.802942,-0.316542,-0.528193,-0.125544,0.486754
968,0.506839,0.798737,-0.3242219999999999,-1.067585,-0.904328,0.566821
969,0.491807,0.817937,-0.29848,-0.96338,-1.409779,0.93584
970,0.469624,0.852993,-0.227686,-1.097401,-1.954464,1.020487
971,0.440349,0.8844420000000001,-0.154392,-1.033687,-2.132733,0.321872
972,0.399761,0.907385,-0.129715,-0.371288,-1.155676,-0.595001
973,0.3710199999999999,0.918179,-0.1388319999999999,0.498609,-0.332485,-0.726967
974,0.38592,0.915211,-0.115915,1.00147,0.676876,-0.438208
975,0.415366,0.906561,-0.074825,-0.804191,0.890741,-0.928181
976,0.3901,0.915831,-0.095164,-1.111643,1.844759,-1.552068
977,0.380449,0.915382,-0.13159,0.033247,-0.135261,2.114195
978,0.378215,0.917332,-0.124244,-0.608165,-0.884907,0.745155
979,0.34506,0.933393,-0.09845,-0.721845,-0.270353,0.5486300000000001
980,0.275407,0.959054,-0.065936,-0.281068,0.838981,0.112094
981,0.206564,0.977691,-0.03784,0.918955,1.759065,0.435179
982,0.163452,0.986498,-0.00919,0.483521,0.773924,0.172245
983,0.122208,0.991502,0.044346,0.13919,0.926238,-0.064427
984,0.076861,0.992619,0.093676,-0.241061,1.037593,-0.713229
985,0.027708,0.991471,0.12725,0.642962,0.558136,-0.562401
986,-0.018531,0.987423,0.1569279999999999,0.774864,0.4729649999999999,-0.5017159999999999
987,-0.062713,0.982271,0.176594,0.845549,-0.309221,-0.565098
988,-0.098054,0.975099,0.198849,0.811967,-1.052064,-0.718929
989,-0.1130559999999999,0.967668,0.225408,1.039356,-1.150728,-0.7958569999999999
990,-0.106572,0.9641,0.2431579999999999,0.986257,-1.163608,-0.6421600000000001
991,-0.0862059999999999,0.964201,0.250713,0.706491,-1.326719,-0.57394
992,-0.047947,0.971363,0.232653,0.242207,-0.681675,-0.8657090000000001
993,-0.007486,0.982684,0.185064,-0.270422,-0.079868,-0.422933
994,0.033615,0.99248,0.117596,0.0970309999999999,0.4891029999999999,-0.496044
995,0.089924,0.994173,0.059248,0.357998,1.014906,-0.120451
996,0.1633119999999999,0.986512,-0.010093,0.261004,2.048049,0.5342319999999999
997,0.232929,0.969658,-0.074073,-0.447941,1.834465,-0.574181
998,0.297657,0.947305,-0.1183,0.195705,1.6554330000000002,0.2373489999999999
999,0.3472659999999999,0.921828,-0.1721069999999999,0.320916,0.6153569999999999,0.0921049999999999
1000,0.404259,0.891224,-0.205612,0.3673619999999999,0.4979659999999999,-0.04303
1001,0.452639,0.861144,-0.23137,0.34155,0.417543,0.233338
1002,0.4819819999999999,0.836033,-0.262156,-0.0504019999999999,0.325908,0.50767
1003,0.496465,0.8177909999999999,-0.291077,-0.4729819999999999,-0.097332,0.4682159999999999
1004,0.493301,0.813257,-0.308628,-0.982925,-1.036219,0.5836060000000001
1005,0.473469,0.8296709999999999,-0.295734,-0.976505,-1.547215,0.8947790000000001
1006,0.448395,0.862475,-0.234654,-0.97467,-1.966189,0.996876
1007,0.422951,0.8922120000000001,-0.158277,-0.6497729999999999,-1.550003,-0.068011
1008,0.388924,0.9135,-0.119316,-0.237694,-1.043963,-0.7304609999999999
1009,0.361105,0.922988,-0.132954,0.690164,-0.35086,-1.007732
1010,0.37556,0.916988,-0.134415,0.922719,0.7409399999999999,-0.366637
1011,0.401565,0.909576,-0.1067559999999999,-0.995468,1.229447,-0.72291
1012,0.36782,0.919687,-0.137352,-1.424217,2.086371,-1.293053
1013,0.3568679999999999,0.919425,-0.165179,-0.387157,-0.531012,2.2819700000000003
1014,0.362621,0.921757,-0.137299,-0.7638659999999999,-0.96999,0.808579
1015,0.332356,0.93697,-0.107735,-0.680348,-0.158741,0.537423
1016,0.258207,0.962387,-0.084379,-0.061339,1.172562,0.142698
1017,0.18804,0.980868,-0.05018,1.313058,1.783689,0.2792449999999999
1018,0.145012,0.989142,-0.023398,0.99427,0.473642,0.200964
1019,0.098803,0.994679,0.028781,0.2220739999999999,0.808696,0.0947549999999999
1020,0.050888,0.995484,0.0799899999999999,-0.077652,0.970352,-0.749409
1021,0.001116,0.993463,0.1140369999999999,0.511289,0.743429,-0.668968
1022,-0.041683,0.988602,0.144582,0.857433,0.416733,-0.659963
1023,-0.082164,0.98284,0.165071,0.966716,0.097238,-0.56447
1024,-0.114498,0.976164,0.184305,0.7243310000000001,-0.767378,-0.735209
1025,-0.127827,0.971013,0.201909,1.083744,-1.150136,-0.791249
1026,-0.116923,0.971097,0.208021,1.048899,-1.173749,-0.772947
1027,-0.090377,0.974373,0.205919,0.4935449999999999,-1.24102,-0.58716
1028,-0.049369,0.982003,0.18223,0.03437,-0.570412,-0.77212
1029,-0.006924,0.990536,0.136987,-0.252612,-0.2655,-0.634011
1030,0.031729,0.996929,0.071439,-0.063604,0.098561,-0.290052
1031,0.08266,0.996547,0.006242,0.147122,0.478444,-0.115067
1032,0.154291,0.986763,-0.049726,0.817739,2.29731,0.310347
1033,0.231823,0.966816,-0.107266,-0.667705,1.363338,0.038083
1034,0.304167,0.942141,-0.1408329999999999,-0.812437,1.626462,-0.503545
1035,0.35069,0.91698,-0.190122,0.5860920000000001,0.478238,0.309476
1036,0.408038,0.8866379999999999,-0.217627,0.432432,0.556127,-0.131906
1037,0.460093,0.858101,-0.2279449999999999,0.303289,0.388893,0.128106
1038,0.491188,0.836825,-0.2417429999999999,0.18174,0.213132,0.34735
1039,0.5039170000000001,0.822809,-0.262746,-0.219509,-0.082376,0.4076889999999999
1040,0.5015229999999999,0.820074,-0.275565,-0.653776,-0.263083,0.4092469999999999
1041,0.485538,0.834192,-0.261455,-1.265537,-1.296656,0.7986409999999999
1042,0.456951,0.865928,-0.203338,-1.280193,-1.827643,0.929092
1043,0.414546,0.900338,-0.132372,-1.070217,-2.021447,0.762498
1044,0.366871,0.924645,-0.102063,-0.211887,-1.521294,-0.212497
1045,0.3381889999999999,0.933556,-0.118664,1.022346,-0.0559309999999999,-0.7294350000000001
1046,0.357937,0.928624,-0.0975559999999999,1.252246,0.639537,-0.200143
1047,0.390343,0.919248,-0.050923,-0.999703,-0.361753,0.1834299999999999
1048,0.385947,0.921735,-0.037771,-1.919868,0.532977,-2.617594
1049,0.320579,0.939951,-0.117052,-1.927909,1.295126,-1.133376
1050,0.301985,0.945733,-0.11989,0.199892,0.655051,1.119432
1051,0.295108,0.948219,-0.1173579999999999,-0.087497,-0.9000469999999999,0.461443
1052,0.262972,0.960218,-0.093846,-0.116015,0.089434,0.497166
1053,0.20872,0.97639,-0.055474,0.254888,1.723271,0.822808
1054,0.1660569999999999,0.986101,-0.00281,0.489492,1.046721,0.284044
1055,0.120445,0.991845,0.0414029999999999,0.4345479999999999,0.7878029999999999,-0.434882
1056,0.074266,0.992279,0.099211,0.1695539999999999,1.081329,-0.447783
1057,0.0245319999999999,0.989895,0.139576,0.012028,0.7877689999999999,-0.902729
1058,-0.025131,0.984874,0.171367,0.270446,0.620274,-0.561489
1059,-0.076182,0.978631,0.190924,0.929377,0.428535,-0.60018
1060,-0.120943,0.97187,0.20203,1.137667,-0.414695,-0.677784
1061,-0.14973,0.964345,0.218159,1.284053,-1.183874,-0.741138
1062,-0.155592,0.961691,0.2256449999999999,1.297086,-1.260046,-0.919722
1063,-0.145906,0.96295,0.226742,0.848283,-1.521986,-0.427029
1064,-0.115726,0.970743,0.210331,0.005405,-0.4974159999999999,-0.6381720000000001
1065,-0.073944,0.98362,0.1643119999999999,-0.1522369999999999,-0.212792,-0.390096
1066,-0.0316279999999999,0.994413,0.100588,0.075558,0.2786889999999999,-0.683642
1067,0.028239,0.998507,0.046523,0.447424,1.53021,0.002946
1068,0.108321,0.993846,-0.02269,-0.28807,1.963322,0.627792
1069,0.178681,0.979536,-0.092532,-0.539887,1.39583,-0.475842
1070,0.237058,0.959463,-0.152368,-0.091444,1.657923,-0.042121
1071,0.290315,0.936299,-0.197596,0.164443,1.066432,0.267298
1072,0.3476309999999999,0.907936,-0.2340679999999999,0.297541,0.5390699999999999,0.159224
1073,0.398007,0.878597,-0.263897,0.433734,0.409047,0.1212119999999999
1074,0.434076,0.852859,-0.290161,0.136099,0.371109,0.317963
1075,0.454294,0.835468,-0.309184,-0.478525,-0.24889,0.394816
1076,0.460604,0.8283860000000001,-0.318758,-0.934801,-0.937059,0.537905
1077,0.445681,0.84011,-0.309142,-0.925158,-1.32302,0.790557
1078,0.419343,0.871509,-0.254181,-0.936173,-1.947406,1.086365
1079,0.389476,0.904341,-0.174517,-0.877819,-2.179366,0.816134
1080,0.349734,0.927488,-0.1320339999999999,-0.649829,-1.6556529999999998,-0.183884
1081,0.314267,0.939615,-0.135434,0.4249,-0.382348,-0.813465
1082,0.313228,0.938856,-0.142895,0.910404,0.133806,-0.503178
1083,0.352531,0.928931,-0.113097,0.5314409999999999,0.905847,-0.344652
1084,0.352644,0.93181,-0.085749,-1.825834,1.413176,-2.949239
1085,0.309143,0.941081,-0.137035,-1.0084229999999998,1.900212,-1.116719
1086,0.312368,0.936777,-0.157666,0.372767,0.936133,2.2077150000000003
1087,0.312143,0.938074,-0.150218,-0.594507,-1.213084,0.674525
1088,0.291031,0.949532,-0.116924,-0.6822060000000001,-0.881936,0.588222
1089,0.231604,0.969779,-0.076612,-0.426245,0.6876770000000001,0.459943
1090,0.167874,0.985159,-0.035493,0.984011,1.618814,-0.085464
1091,0.1195369999999999,0.992777,0.009144,0.597458,0.553335,0.00964
1092,0.071542,0.995169,0.067075,0.156623,0.839686,-0.378705
1093,0.021709,0.993447,0.112114,0.009037,0.8675309999999999,-0.79467
1094,-0.030568,0.988683,0.146793,0.351369,0.6272840000000001,-0.570377
1095,-0.081624,0.981589,0.172613,0.929448,0.439568,-0.590338
1096,-0.12618,0.974374,0.186143,0.8855790000000001,-0.8584069999999999,-0.762437
1097,-0.156532,0.967006,0.200929,1.220924,-1.257609,-0.821672
1098,-0.16188,0.964533,0.208434,1.283675,-1.240733,-0.96997
1099,-0.149367,0.967222,0.205292,0.8993979999999999,-1.385283,-0.386704
1100,-0.121648,0.974045,0.190818,0.4787949999999999,-0.827485,-0.624992
1101,-0.081873,0.985106,0.151126,-0.032003,-0.4664439999999999,-0.362826
1102,-0.038456,0.995043,0.091582,0.191502,0.2284679999999999,-0.649428
1103,0.018083,0.998873,0.043616,0.7107680000000001,1.574384,-0.17147
1104,0.095948,0.995187,-0.019364,-0.117539,1.868445,0.676087
1105,0.170213,0.981346,-0.089262,-0.628145,1.260292,-0.3014699999999999
1106,0.237069,0.961309,-0.140228,-0.140587,1.857294,-0.263642
1107,0.292196,0.938606,-0.183361,0.278101,1.066643,0.2074389999999999
1108,0.346563,0.911647,-0.220855,0.471689,0.519368,0.216583
1109,0.3985059999999999,0.883343,-0.246742,0.6610189999999999,0.444233,0.020759
1110,0.4328399999999999,0.8571799999999999,-0.279063,0.135458,0.4690229999999999,0.408152
1111,0.4506489999999999,0.8378200000000001,-0.308152,-0.351756,0.15632,0.530946
1112,0.45456,0.828383,-0.327326,-0.906769,-0.457243,0.532404
1113,0.436939,0.837475,-0.328185,-1.048633,-1.320186,0.840575
1114,0.411281,0.8653780000000001,-0.2862719999999999,-0.902599,-1.631461,1.164247
1115,0.387809,0.8982950000000001,-0.2065199999999999,-1.061928,-2.094798,1.036736
1116,0.357784,0.922996,-0.141595,-0.957531,-1.858131,-0.079566
1117,0.32226,0.937769,-0.129299,-0.23768,-0.817117,-1.267323
1118,0.308819,0.940238,-0.143401,0.8465010000000001,0.255182,-1.1351790000000002
1119,0.346839,0.930847,-0.114917,-0.0512309999999999,0.173112,0.5550109999999999
1120,0.364631,0.927312,-0.084346,-1.375525,-0.2497309999999999,-0.093495
1121,0.341115,0.937575,-0.06762,-1.806721,1.566561,-3.5523910000000005
1122,0.310507,0.940155,-0.140266,-0.181051,2.258408,-0.192528
1123,0.321146,0.932177,-0.167009,-0.56872,-1.371371,0.266984
1124,0.328282,0.932029,-0.1534029999999999,-0.785863,-0.9925,0.7793800000000001
1125,0.3045449999999999,0.944187,-0.125471,-0.577387,-0.261158,0.750166
1126,0.246218,0.965524,-0.08437,0.361555,2.544714,0.627796
1127,0.194724,0.979675,-0.047928,1.06019,2.374543,-0.0614309999999999
1128,0.143455,0.989641,0.0027329999999999,0.750649,0.802962,-0.162156
1129,0.091183,0.994145,0.057752,0.025592,0.916866,-0.404692
1130,0.033377,0.99404,0.10365,0.089182,1.160608,-0.498654
1131,-0.025027,0.989828,0.139954,0.606403,0.8922680000000001,-0.610108
1132,-0.077926,0.983226,0.164819,0.922988,0.200001,-0.734582
1133,-0.124597,0.975766,0.179798,0.784234,-0.24075,-0.794788
1134,-0.157218,0.969091,0.190042,0.595634,-1.118627,-0.6023189999999999
1135,-0.169171,0.966799,0.191446,1.078672,-1.347063,-0.645655
1136,-0.161465,0.968425,0.189875,0.995327,-1.3206129999999998,-0.518809
1137,-0.136826,0.974435,0.178118,0.407593,-0.726754,-0.8300190000000001
1138,-0.1011519999999999,0.9843,0.144542,0.023195,-0.620012,-0.571086
1139,-0.068695,0.992965,0.096291,-0.0867,-0.516784,-0.441155
1140,-0.037723,0.998789,0.031125,0.087833,-0.230296,-0.015576
1141,0.003927,0.999374,-0.034776,1.442987,2.659622,-0.128631
1142,0.086437,0.9929,-0.081572,1.177678,3.614248,0.184035
1143,0.186221,0.973091,-0.135621,-0.2877989999999999,2.446373,0.3622599999999999
1144,0.262164,0.946968,-0.185744,-0.478396,1.498528,-0.509904
1145,0.311498,0.920934,-0.234155,0.371745,0.883158,0.1084369999999999
1146,0.373192,0.8914700000000001,-0.2568809999999999,0.435264,0.566858,0.0599059999999999
1147,0.4353399999999999,0.860492,-0.264598,0.163521,0.390271,0.08781
1148,0.475142,0.83421,-0.2798469999999999,0.206666,0.2146949999999999,0.2560739999999999
1149,0.493055,0.8168489999999999,-0.299392,0.080508,-0.250351,0.512573
1150,0.497759,0.81065,-0.308324,-0.780428,-0.6108359999999999,0.6264390000000001
1151,0.490714,0.8227899999999999,-0.2867,-1.549628,-1.057577,0.988421
1152,0.465327,0.856245,-0.224263,-1.732509,-1.686659,1.267583
1153,0.42491,0.89223,-0.152824,-0.788618,-1.996035,0.21746
1154,0.38237,0.914818,-0.129913,0.575867,-1.085656,-0.824829
1155,0.359144,0.922069,-0.144155,1.652742,0.026936,-1.17277
1156,0.381678,0.914494,-0.13416,1.088064,0.913249,-0.850505
1157,0.411437,0.903582,-0.119315,-1.260222,-0.3904289999999999,1.169653
1158,0.399478,0.910733,-0.104681,-2.3116790000000003,1.092548,-3.583444
1159,0.333107,0.923968,-0.187884,-0.3800429999999999,1.137936,3.128756
1160,0.341114,0.923154,-0.17722,-0.128772,0.193363,1.101506
1161,0.32375,0.933628,-0.153304,-0.694538,-0.466602,0.504973
1162,0.267025,0.953903,-0.136905,0.048176,0.8419190000000001,0.4866819999999999
1163,0.200533,0.974387,-0.101649,0.360716,1.439538,0.7497659999999999
1164,0.154167,0.985912,-0.064692,0.556495,0.673497,0.114908
1165,0.1102619999999999,0.993772,-0.0152819999999999,0.2861619999999999,0.812243,-0.086479
1166,0.0674299999999999,0.996434,0.0504509999999999,-0.086946,0.919414,-0.467031
1167,0.018377,0.995739,0.090207,-0.056875,0.977375,-0.7729159999999999
1168,-0.03096,0.992182,0.120775,0.844024,0.72463,-0.648942
1169,-0.078769,0.986733,0.141853,1.068927,0.615516,-0.646522
1170,-0.118038,0.980569,0.156588,0.903454,-0.7062470000000001,-0.6284350000000001
1171,-0.14222,0.97442,0.173921,1.116555,-1.291223,-0.74054
1172,-0.141117,0.972408,0.185677,1.246128,-1.213818,-0.813271
1173,-0.128647,0.973189,0.190579,0.952118,-1.467284,-0.496838
1174,-0.1043019999999999,0.97919,0.174002,0.35122,-0.533999,-0.890769
1175,-0.064621,0.989328,0.130474,-0.124069,-0.142419,-0.4818689999999999
1176,-0.026309,0.997366,0.067375,-0.077115,0.053461,-0.425224
1177,0.022201,0.999727,0.00511,0.35733,0.8888379999999999,-0.000364
1178,0.093411,0.993625,-0.062917,0.5758850000000001,1.813825,0.271291
1179,0.171699,0.975814,-0.135214,-0.020835,2.224092,0.685248
1180,0.243494,0.951556,-0.187693,-0.417597,1.644818,-0.395422
1181,0.3034679999999999,0.923878,-0.2331,0.021254,1.279705,-0.058632
1182,0.364361,0.8913280000000001,-0.269732,0.440601,0.696761,0.092562
1183,0.421992,0.85962,-0.288022,0.57372,0.3810719999999999,0.14903
1184,0.459975,0.832471,-0.3088639999999999,0.284105,0.314075,0.407314
1185,0.477912,0.812028,-0.3349519999999999,-0.10163,0.039412,0.447165
1186,0.475593,0.804971,-0.354703,-0.967522,-0.661493,0.61215
1187,0.455035,0.819241,-0.348956,-1.211703,-1.314907,0.885943
1188,0.434183,0.851174,-0.294906,-1.28541,-1.770791,1.190383
1189,0.415616,0.887508,-0.198928,-1.277417,-2.257213,0.949019
1190,0.383436,0.915809,-0.119364,-0.8512700000000001,-1.515632,-0.175512
1191,0.344882,0.93298,-0.10286,-0.250934,-0.5390590000000001,-1.466949
1192,0.318529,0.938545,-0.132851,0.83119,0.495247,-1.548362
1193,0.347074,0.930334,-0.118294,0.958559,1.4161780000000002,-0.124916
1194,0.366036,0.926245,-0.089792,-1.0380790000000002,1.550409,0.480966
1195,0.34828,0.928796,-0.126551,0.029054,1.005774,0.995859
1196,0.359199,0.919881,-0.157392,-0.733116,-0.963078,1.137983
1197,0.358888,0.921558,-0.148011,-0.861925,-1.310306,0.7967380000000001
1198,0.3265099999999999,0.938726,-0.110269,-0.846728,-0.093344,0.68229
1199,0.250004,0.965175,-0.07687,-0.263432,2.300801,0.179546
1200,0.1759619999999999,0.98288,-0.054383,1.341998,2.0511470000000003,0.155915
1201,0.128018,0.991725,-0.008195,0.990528,0.4164479999999999,0.254335
1202,0.082479,0.99506,0.054988,0.018732,0.835033,-0.4483899999999999
1203,0.039185,0.994073,0.101263,-0.087647,1.100578,-0.680761
1204,-0.008771,0.990884,0.134318,0.751356,0.624778,-0.687235
1205,-0.055082,0.985726,0.158996,1.129621,0.453376,-0.5836020000000001
1206,-0.095245,0.979791,0.175805,0.911804,-0.372979,-0.656518
1207,-0.122793,0.972528,0.197683,0.7758390000000001,-1.195963,-0.7488
1208,-0.125543,0.969015,0.212642,1.152383,-1.251242,-0.809383
1209,-0.1112349999999999,0.970337,0.214569,0.758971,-1.453934,-0.329529
1210,-0.082259,0.975326,0.204792,0.066711,-0.511321,-0.797779
1211,-0.046154,0.98459,0.1685809999999999,-0.222721,-0.2239239999999999,-0.402285
1212,-0.008089,0.993746,0.111231,0.079134,0.295957,-0.604441
1213,0.0409589999999999,0.997464,0.057953,0.503123,1.42377,-0.027436
1214,0.111093,0.993793,-0.002485,0.2544619999999999,1.7710689999999998,0.47685
1215,0.186639,0.980005,-0.068783,-0.465401,1.423194,0.1471829999999999
1216,0.257967,0.958197,-0.123643,-0.176103,1.910013,-0.026839
1217,0.316303,0.933858,-0.166852,0.557812,0.8652299999999999,0.108151
1218,0.370528,0.906378,-0.202893,0.4682779999999999,0.6103,0.0545169999999999
1219,0.42466,0.875179,-0.231742,0.432075,0.4312939999999999,0.1098089999999999
1220,0.462209,0.846065,-0.265547,0.169993,0.5087619999999999,0.26657
1221,0.484834,0.8203959999999999,-0.303095,-0.332155,0.2206199999999999,0.422129
1222,0.4922069999999999,0.804917,-0.331394,-0.955082,-0.526993,0.519108
1223,0.4823229999999999,0.8076949999999999,-0.339079,-1.104225,-0.99225,0.6559119999999999
1224,0.4646409999999999,0.831152,-0.30541,-1.081661,-1.65061,1.273366
1225,0.45378,0.8616209999999999,-0.227315,-1.171584,-2.053302,0.802067
1226,0.4343649999999999,0.886051,-0.161918,-0.804512,-1.686863,-0.3599469999999999
1227,0.412692,0.898702,-0.148311,0.196423,-0.524083,-1.325978
1228,0.405533,0.900831,-0.154991,0.817337,0.03232,0.132911
1229,0.427904,0.8955690000000001,-0.121772,0.537611,0.328796,0.048744
1230,0.418171,0.901778,-0.109105,-1.1477540000000002,2.1796580000000003,-3.00381
1231,0.38996,0.904778,-0.171126,0.5178010000000001,1.479408,2.658431
1232,0.3957699999999999,0.900022,-0.182491,-0.7449979999999999,-1.006772,0.8274950000000001
1233,0.388109,0.909112,-0.1512,-0.724458,-0.798211,0.798035
1234,0.350417,0.93087,-0.1032569999999999,-0.6110680000000001,0.083915,0.4241649999999999
1235,0.278225,0.958318,-0.064724,0.38631,2.042063,0.04179
1236,0.214938,0.97579,-0.040083,1.348248,1.7704099999999998,0.296171
1237,0.163392,0.986544,-0.002219,0.690978,0.651411,0.287147
1238,0.114472,0.991637,0.059344,-0.044343,0.81212,-0.561755
1239,0.064082,0.992337,0.105494,0.048085,0.984867,-0.7867069999999999
1240,0.019673,0.989636,0.142131,0.620219,0.789432,-0.789027
1241,-0.022312,0.985742,0.166677,0.80138,0.409522,-0.6264390000000001
1242,-0.060408,0.981183,0.183292,0.5710890000000001,-0.582929,-0.712238
1243,-0.087614,0.97621,0.198247,0.7960649999999999,-1.435622,-0.804082
1244,-0.0903549999999999,0.975195,0.201976,1.120277,-1.351935,-0.837047
1245,-0.077537,0.977266,0.197242,0.820472,-1.361055,-0.36718
1246,-0.047984,0.983153,0.176275,0.357402,-0.6205890000000001,-0.76055
1247,-0.010411,0.991146,0.132242,-0.097468,-0.2467,-0.766763
1248,0.023183,0.997406,0.067919,-0.128988,-0.27092,-0.115618
1249,0.063236,0.997962,-0.006654,0.199963,0.221261,-0.175216
1250,0.123639,0.989985,-0.0679429999999999,0.811526,1.831197,0.064937
1251,0.20376,0.970602,-0.128022,0.050924,1.7179209999999998,0.435105
1252,0.282673,0.943218,-0.174394,-0.8441049999999999,1.553914,-0.41165
1253,0.335527,0.913702,-0.229236,0.077788,1.27244,0.32494
1254,0.388803,0.8803110000000001,-0.27178,0.4264739999999999,0.580626,0.121771
1255,0.450831,0.841942,-0.296421,0.278204,0.543617,0.11002
1256,0.490191,0.811114,-0.3190429999999999,0.267499,0.425718,0.177746
1257,0.5082270000000001,0.786882,-0.350006,0.114973,0.303587,0.4203939999999999
1258,0.506142,0.775383,-0.377602,-0.719445,-0.5726399999999999,0.559167
1259,0.486662,0.783525,-0.386304,-1.06999,-1.257418,0.7358680000000001
1260,0.461387,0.814314,-0.3521309999999999,-1.077217,-1.573561,0.990834
1261,0.43649,0.856511,-0.275399,-0.892667,-1.8587240000000005,0.874582
1262,0.404735,0.892441,-0.199286,-0.433483,-1.286622,-0.028894
1263,0.361824,0.916667,-0.169651,0.013588,-0.637767,-1.001278
1264,0.339331,0.923044,-0.181166,0.842951,0.228964,-0.384477
1265,0.370044,0.914955,-0.160937,0.8572049999999999,0.606346,-0.020383
1266,0.386241,0.914864,-0.117548,-1.154384,-0.734337,-0.059744
1267,0.360971,0.928244,-0.089646,-2.029886,0.88894,-2.619964
1268,0.295172,0.942486,-0.156744,-1.00527,2.377079,-0.164529
1269,0.282937,0.941238,-0.184371,0.920508,2.124084,1.420531
1270,0.276539,0.942352,-0.188349,-0.096714,-1.583267,0.918131
1271,0.255533,0.953747,-0.158251,0.0893149999999999,-0.550107,0.674914
1272,0.205004,0.972277,-0.112356,0.209531,1.7310310000000002,0.8436030000000001
1273,0.161141,0.98526,-0.057169,0.742927,1.7894439999999998,-0.089438
1274,0.1179809999999999,0.992911,-0.013332,0.304397,0.597665,-0.282154
1275,0.072869,0.996615,0.0376569999999999,0.163489,0.8713049999999999,-0.476652
1276,0.024148,0.996388,0.081203,-0.032983,0.550212,-0.755305
1277,-0.018503,0.992866,0.117648,0.1549309999999999,0.6207050000000001,-0.4972109999999999
1278,-0.063753,0.988268,0.1386609999999999,0.5962689999999999,0.131437,-0.5952189999999999
1279,-0.103875,0.982577,0.154007,0.7949149999999999,-0.905047,-0.795059
1280,-0.1229079999999999,0.978315,0.166605,1.306929,-1.345823,-0.7267399999999999
1281,-0.121137,0.978537,0.166602,1.123105,-1.28945,-0.489768
1282,-0.1058089999999999,0.981685,0.158313,0.92873,-1.309887,-0.5637850000000001
1283,-0.072214,0.988925,0.1295329999999999,0.081232,-0.656054,-0.8761610000000001
1284,-0.031148,0.99619,0.081259,-0.151561,-0.426976,-0.550711
1285,0.005562,0.999858,0.014899,-0.1099779999999999,-0.312618,-0.089484
1286,0.046497,0.99669,-0.066479,0.197476,0.158294,-0.018833
1287,0.104497,0.985499,-0.133592,0.981105,2.179174,0.260256
1288,0.191754,0.964302,-0.182561,0.728549,3.203393,0.2062119999999999
1289,0.272499,0.935794,-0.223631,-0.8783030000000001,1.360333,-0.5223409999999999
1290,0.328338,0.902693,-0.278062,-0.0531919999999999,1.219759,0.477448
1291,0.379008,0.869418,-0.31693,0.754735,0.637235,0.2456559999999999
1292,0.443831,0.833068,-0.33014,0.536562,0.525941,0.116776
1293,0.486037,0.805334,-0.339392,0.164446,0.272303,0.272741
1294,0.508794,0.784395,-0.35473,0.137919,0.2795539999999999,0.385324
1295,0.5129229999999999,0.7756390000000001,-0.367798,-0.966734,-0.12357,0.494828
1296,0.505907,0.78892,-0.348775,-1.477297,-1.013148,0.527349
1297,0.4870529999999999,0.825441,-0.2853179999999999,-1.2265549999999998,-1.403932,0.788568
1298,0.45763,0.868034,-0.1925339999999999,-1.058765,-1.965629,0.985258
1299,0.4176729999999999,0.8990790000000001,-0.131076,-0.624125,-1.616379,0.01662
1300,0.374452,0.91755,-0.133653,0.14453,-0.56321,-1.19609
1301,0.356885,0.920786,-0.157358,0.509707,-0.077158,-0.67687
1302,0.393164,0.911407,-0.1213829999999999,0.55308,0.511338,-0.159913
1303,0.409379,0.908728,-0.081211,-0.752488,3.3007440000000003,-2.406308
1304,0.38594,0.91202,-0.138729,0.120317,2.348631,1.123561
1305,0.398109,0.904404,-0.153418,-0.7182390000000001,-0.8864290000000001,1.224539
1306,0.388215,0.908438,-0.154934,-0.820634,-0.253897,0.968136
1307,0.338706,0.933712,-0.115902,-0.77265,0.12392,0.674999
1308,0.257205,0.963075,-0.079402,-0.2514369999999999,1.583525,0.2421829999999999
1309,0.192043,0.980022,-0.051469,1.394627,0.992985,0.14229
1310,0.144167,0.989487,-0.010094,1.234403,0.576232,0.047784
1311,0.096868,0.994069,0.049123,-0.0732169999999999,0.939876,-0.601689
1312,0.052858,0.994196,0.093535,0.259841,0.801275,-0.602492
1313,0.010586,0.991855,0.126798,0.6650119999999999,0.586468,-0.6412329999999999
1314,-0.029615,0.988247,0.149853,1.048048,0.276996,-0.579388
1315,-0.0661279999999999,0.983584,0.167794,0.7111930000000001,-0.586734,-0.616845
1316,-0.09323,0.977578,0.188718,0.755035,-1.315072,-0.788251
1317,-0.095243,0.974488,0.203138,1.019818,-1.0738379999999998,-0.795713
1318,-0.078196,0.975129,0.2072969999999999,0.742106,-1.331376,-0.359427
1319,-0.049216,0.97856,0.1999,0.527045,-1.111632,-0.59318
1320,-0.009543,0.985972,0.166528,-0.239221,-0.328807,-0.639352
1321,0.027946,0.993581,0.1094609999999999,-0.190834,-0.016332,-0.372721
1322,0.070783,0.996366,0.047051,0.501528,1.333865,-0.008492
1323,0.132512,0.991087,-0.012559,0.403026,1.885454,0.362626
1324,0.209495,0.974624,-0.078689,-0.391257,1.4278110000000002,0.174423
1325,0.280065,0.95092,-0.131484,-0.284261,1.840599,-0.369904
1326,0.337479,0.924553,-0.176873,0.265823,1.407661,0.238137
1327,0.391416,0.895016,-0.213812,0.517428,0.706592,0.129492
1328,0.449538,0.8609209999999999,-0.238134,0.472184,0.625346,-0.016199
1329,0.490093,0.8300790000000001,-0.266,0.275502,0.505904,0.26339
1330,0.5113850000000001,0.804967,-0.300822,-0.078126,0.331142,0.4313
1331,0.516979,0.7893359999999999,-0.331153,-0.708141,-0.233,0.491752
1332,0.504771,0.7917569999999999,-0.343959,-1.172434,-1.154718,0.7938189999999999
1333,0.486768,0.8183199999999999,-0.305597,-1.0822120000000002,-1.489951,1.081049
1334,0.4697439999999999,0.855367,-0.218324,-1.124803,-1.952199,1.042131
1335,0.4441859999999999,0.8856,-0.135591,-1.0590389999999998,-1.735027,-0.069991
1336,0.407396,0.906124,-0.113758,-0.435777,-0.864559,-0.79382
1337,0.378733,0.91683,-0.126321,0.365819,-0.330099,-0.914314
1338,0.388334,0.915637,-0.103818,0.8004020000000001,0.538449,-0.071352
1339,0.405744,0.911701,-0.064385,-0.772947,0.0029879999999999,0.25837
1340,0.388758,0.919631,-0.055832,-1.547434,1.968461,-2.886276
1341,0.354778,0.927296,-0.119279,0.442646,1.046031,2.418245
1342,0.371131,0.920286,-0.123732,-0.2153389999999999,-0.618482,0.924773
1343,0.364123,0.92418,-0.1152319999999999,-0.531238,-0.8203590000000001,0.5959899999999999
1344,0.310395,0.946923,-0.083451,-0.4022219999999999,0.452003,0.602662
1345,0.240774,0.969735,-0.040145,0.5905239999999999,1.694907,-0.083299
1346,0.192412,0.981232,-0.011495,0.13788,0.63652,-0.081294
1347,0.139491,0.989703,0.031608,0.18189,0.883969,0.201592
1348,0.086574,0.992876,0.081675,0.039906,1.119765,-0.570917
1349,0.032545,0.992814,0.115014,0.601015,0.764617,-0.426018
1350,-0.014391,0.99047,0.13685,0.972383,0.7157979999999999,-0.517252
1351,-0.0551269999999999,0.98724,0.149282,1.202328,-0.191647,-0.661977
1352,-0.086667,0.983187,0.160617,1.080197,-0.730013,-0.632862
1353,-0.0984299999999999,0.979695,0.17457,1.143535,-1.235387,-0.562753
1354,-0.088362,0.979117,0.182996,1.057219,-1.141699,-0.672147
1355,-0.062126,0.980632,0.185649,0.8550180000000001,-1.301525,-0.46255
1356,-0.023537,0.985689,0.166821,0.181084,-0.862474,-0.635586
1357,0.016502,0.991696,0.127409,-0.314247,-0.250928,-0.645383
1358,0.049507,0.996542,0.066504,-0.3395309999999999,-0.137731,-0.208731
1359,0.089089,0.996003,-0.003539,0.102714,0.388076,-0.246126
1360,0.147261,0.986811,-0.067005,0.789934,2.060765,0.145572
1361,0.217241,0.967548,-0.128962,0.675002,2.47398,0.343409
1362,0.286667,0.942119,-0.173809,-0.521332,1.419743,0.017208
1363,0.342555,0.912486,-0.2236119999999999,0.391637,1.175466,0.2081239999999999
1364,0.392719,0.881559,-0.261922,0.428738,0.75255,-0.039988
1365,0.447134,0.849302,-0.280599,0.362406,0.495379,-0.00355
1366,0.485431,0.8216479999999999,-0.298717,0.262952,0.313362,0.270305
1367,0.5042270000000001,0.801044,-0.322589,0.074875,0.113034,0.44588
1368,0.504746,0.792283,-0.342782,-0.808778,-0.327363,0.469217
1369,0.4945859999999999,0.800425,-0.338652,-1.1008790000000002,-0.898752,0.486784
1370,0.476793,0.826412,-0.299485,-1.186113,-1.346462,0.821366
1371,0.455208,0.863333,-0.2177579999999999,-1.283378,-1.874762,1.125976
1372,0.424396,0.896609,-0.1263119999999999,-1.153003,-2.088717,0.242675
1373,0.387513,0.91725,-0.091977,-0.38794,-0.9606,-1.057925
1374,0.355778,0.927971,-0.110752,0.5788989999999999,-0.289039,-1.287868
1375,0.366333,0.925115,-0.099682,1.318298,0.8304090000000001,0.174083
1376,0.393173,0.917316,-0.062596,-0.543457,-0.13573,0.645466
1377,0.381848,0.923059,-0.046092,-1.5263799999999998,1.888312,-3.404286
1378,0.3361719999999999,0.933311,-0.126067,0.7414029999999999,1.826729,2.676833
1379,0.3478719999999999,0.926255,-0.144956,-0.3271199999999999,-0.805191,0.8841680000000001
1380,0.349471,0.92634,-0.140492,-0.532867,-1.100092,0.6713600000000001
1381,0.313967,0.943968,-0.101605,-0.472551,0.195803,0.530895
1382,0.238287,0.969255,-0.061119,0.010416,2.194715,0.465797
1383,0.173218,0.984379,-0.031043,1.140396,1.322673,-0.332726
1384,0.119057,0.992821,0.010115,0.611503,0.611137,0.169237
1385,0.074284,0.995078,0.065352,0.098888,0.8172699999999999,-0.528334
1386,0.0294779999999999,0.994244,0.102844,0.1402,0.8068270000000001,-0.581238
1387,-0.0145449999999999,0.99093,0.133461,0.735599,0.4928189999999999,-0.5855640000000001
1388,-0.058237,0.986187,0.154953,1.054529,0.257023,-0.566375
1389,-0.095523,0.980024,0.174334,0.778293,-0.506941,-0.627612
1390,-0.118025,0.973334,0.196607,0.8896780000000001,-1.303077,-0.677824
1391,-0.11887,0.970428,0.210011,0.948811,-1.24504,-0.6102489999999999
1392,-0.103289,0.970987,0.2155889999999999,0.754976,-1.384089,-0.39079
1393,-0.072834,0.975603,0.207023,0.007328,-0.4862229999999999,-0.8538889999999999
1394,-0.034908,0.984722,0.170496,-0.22704,-0.38589,-0.803049
1395,-0.003274,0.993538,0.1133049999999999,-0.24488,-0.377357,-0.322351
1396,0.034374,0.998554,0.0409529999999999,0.43871,0.4912689999999999,-0.251601
1397,0.09456,0.995363,-0.0167259999999999,0.789718,1.5592780000000002,0.0729399999999999
1398,0.180562,0.980741,-0.074265,0.966014,2.628649,0.3947449999999999
1399,0.25804,0.957672,-0.127486,-0.5309590000000001,1.877152,-0.80687
1400,0.313374,0.931798,-0.183096,-0.418309,1.785655,-0.031778
1401,0.35352,0.906949,-0.229006,0.478252,0.809802,0.1323109999999999
1402,0.412076,0.875009,-0.254025,0.341937,0.629675,0.139828
1403,0.459158,0.846036,-0.270877,0.317026,0.491809,0.2169989999999999
1404,0.483239,0.8258909999999999,-0.2904489999999999,-0.0285279999999999,0.381033,0.410414
1405,0.496512,0.812292,-0.306,-0.634299,-0.174932,0.291138
1406,0.494569,0.812037,-0.309798,-1.23401,-0.998271,0.488722
1407,0.4781319999999999,0.832866,-0.27875,-1.235212,-1.441646,0.7889430000000001
1408,0.4495909999999999,0.868748,-0.207656,-1.06159,-1.998844,1.110183
1409,0.4107439999999999,0.902175,-0.131691,-0.772225,-1.90834,0.364448
1410,0.365177,0.925241,-0.102698,-0.360645,-0.959146,-0.592188
1411,0.328052,0.93774,-0.114007,0.293545,-0.447292,-1.180549
1412,0.326522,0.936834,-0.125289,1.181855,0.6792090000000001,-0.149949
1413,0.364691,0.926802,-0.089494,0.154642,0.162248,0.615877
1414,0.3858789999999999,0.92139,-0.045899,-1.229431,-0.5897560000000001,0.062272
1415,0.365784,0.929045,-0.055195,-1.407151,2.798112,-3.347774
1416,0.326651,0.936499,-0.127437,0.7451260000000001,2.01185,2.5328630000000003
1417,0.331318,0.932417,-0.144222,-0.50011,-1.438734,1.038372
1418,0.34141,0.929553,-0.1390829999999999,-0.669504,-1.318636,0.766662
1419,0.323439,0.94174,-0.092108,-0.6297590000000001,0.573976,0.31246
1420,0.2622219999999999,0.964511,-0.030451,0.2000279999999999,2.932034,0.307017
1421,0.200192,0.97974,0.000916,1.02132,1.044308,-0.052216
1422,0.145629,0.988256,0.04593,0.8326879999999999,0.502421,0.0173639999999999
1423,0.102819,0.990019,0.09621,0.17602,0.788988,-0.670764
1424,0.056829,0.990098,0.128224,0.144892,0.80902,-0.5463
1425,0.01292,0.987528,0.1568,0.5546760000000001,0.636679,-0.714737
1426,-0.035455,0.983333,0.178221,0.871713,0.2544599999999999,-0.760405
1427,-0.0788389999999999,0.97764,0.194849,0.755383,-0.634043,-0.705133
1428,-0.109797,0.971339,0.210733,0.901865,-1.432886,-0.590936
1429,-0.118196,0.969236,0.215808,1.084749,-1.525678,-0.741962
1430,-0.107339,0.969796,0.218942,0.825189,-1.44056,-0.321863
1431,-0.080188,0.975574,0.20442,0.378116,-0.742099,-0.69325
1432,-0.044396,0.984956,0.166898,-0.0460589999999999,-0.544312,-0.709149
1433,-0.007474,0.993793,0.1108349999999999,0.256558,0.1204799999999999,-0.50175
1434,0.039099,0.997669,0.0556309999999999,0.525126,0.681851,-0.341901
1435,0.1164839999999999,0.993169,0.003964,-0.027388,1.926204,0.4924659999999999
1436,0.19801,0.978543,-0.056718,-0.541287,1.706836,0.161012
1437,0.271402,0.956026,-0.111024,-0.6770109999999999,1.901838,-0.623564
1438,0.326176,0.932017,-0.157884,0.0993,1.115636,0.141664
1439,0.378286,0.906655,-0.186682,0.591074,0.6282409999999999,0.090536
1440,0.434052,0.876764,-0.2070219999999999,0.497467,0.473608,0.017828
1441,0.477587,0.8484219999999999,-0.228179,0.259886,0.343762,0.174529
1442,0.5025569999999999,0.825528,-0.256739,-0.0593659999999999,0.312442,0.268778
1443,0.5145609999999999,0.809503,-0.282682,-0.781712,-0.323801,0.291638
1444,0.509329,0.807088,-0.298615,-1.25736,-1.161656,0.736313
1445,0.485807,0.828757,-0.2777239999999999,-1.213208,-1.513541,1.003417
1446,0.4522859999999999,0.8666790000000001,-0.210426,-1.1851200000000002,-1.750773,1.132469
1447,0.410997,0.901799,-0.133462,-0.8392350000000001,-1.818089,0.051446
1448,0.368075,0.923913,-0.1042869999999999,-0.256671,-0.902841,-0.932883
1449,0.336262,0.93405,-0.120206,0.641521,-0.3805679999999999,-0.935519
1450,0.343179,0.930153,-0.130441,1.257849,0.885445,-0.2479309999999999
1451,0.379664,0.918608,-0.109476,-0.355906,-0.065489,0.957712
1452,0.388783,0.916942,-0.089639,-1.440343,0.086385,-1.31684
1453,0.3582849999999999,0.926728,-0.11304,-0.2009369999999999,3.041732,0.552967
1454,0.341701,0.92693,-0.154964,0.579212,2.871395,2.821193
1455,0.348451,0.918835,-0.185195,-0.602677,-2.053753,0.864166
1456,0.3604449999999999,0.915994,-0.176087,-0.480608,-0.8764280000000001,0.729691
1457,0.334837,0.932368,-0.136182,-0.438352,0.984136,0.449567
1458,0.273951,0.957108,-0.094153,0.536702,3.1048880000000003,0.155783
1459,0.226709,0.972089,-0.060124,0.830924,0.5036649999999999,0.1035809999999999
1460,0.181843,0.983241,-0.011739,0.279171,0.500188,-0.036295
1461,0.147676,0.987959,0.045762,-0.064455,0.743578,-0.584382
1462,0.105667,0.990876,0.083452,0.258087,0.8123319999999999,-0.368685
1463,0.062197,0.992007,0.109624,0.599958,0.654142,-0.683949
1464,0.020106,0.991749,0.12646,0.805883,0.153255,-0.693095
1465,-0.016618,0.990587,0.135732,0.635682,-0.5582600000000001,-0.647115
1466,-0.0438029999999999,0.989208,0.139684,0.654704,-1.2982129999999998,-0.4891859999999999
1467,-0.054978,0.98945,0.133899,0.81833,-1.531487,-0.618182
