,gravity.x,gravity.y,gravity.z,userAcceleration.x,userAcceleration.y,userAcceleration.z
0,-0.081289,0.989986,-0.115401,0.617162,-0.80952,0.050872
1,-0.0951549999999999,0.994399,-0.045984,0.345018,0.103426,-0.069815
2,-0.112475,0.992681,0.043931,0.1169299999999999,1.238276,-0.164063
3,-0.12771,0.980361,0.150267,0.0318079999999999,1.137269,-0.159682
4,-0.1323369999999999,0.961161,0.242184,0.19032,1.7944240000000002,0.328006
5,-0.1361079999999999,0.939043,0.315703,-0.487671,2.106611,0.373399
6,-0.143831,0.913728,0.380013,-0.569471,1.110869,0.671547
7,-0.158937,0.891551,0.424113,-0.485792,-0.049373,0.626073
8,-0.160213,0.878539,0.449997,-0.134525,0.1867069999999999,0.1537319999999999
9,-0.14073,0.8772540000000001,0.458929,-0.53908,-0.7195550000000001,-0.035071
10,-0.119656,0.887774,0.444451,0.019436,-0.934451,-0.655129
11,-0.09944,0.8970549999999999,0.430581,0.506026,-1.759391,-0.7065060000000001
12,-0.088887,0.902632,0.4211319999999999,0.610722,-1.866255,-0.627217
13,-0.099593,0.906291,0.4107479999999999,0.276107,-1.259822,-0.676495
14,-0.125082,0.91071,0.3936469999999999,0.401159,-0.632161,-0.001496
15,-0.151018,0.910266,0.385496,0.1393599999999999,0.484098,-0.1646099999999999
16,-0.166523,0.896509,0.410535,-0.56834,0.459845,-0.204221
17,-0.191353,0.885266,0.4238909999999999,0.417168,-0.3271,-1.642809
18,-0.214257,0.8786370000000001,0.426716,0.713815,-0.355124,0.292049
19,-0.229536,0.8867149999999999,0.401305,0.194364,-0.056179,0.5930949999999999
20,-0.240311,0.900183,0.363205,-0.242676,0.070475,-0.153
21,-0.199243,0.927649,0.3158579999999999,-0.953833,-0.061239,0.137985
22,-0.13363,0.960296,0.24489,-0.579825,2.112855,0.292494
23,-0.080841,0.98594,0.146229,-0.8464200000000001,2.751029,0.637478
24,-0.076533,0.996649,0.028832,-0.541555,0.92161,0.7357859999999999
25,-0.079319,0.993838,-0.077404,0.001728,0.2085389999999999,-0.141742
26,-0.059826,0.985492,-0.158821,-0.142627,0.112729,0.118446
27,-0.036299,0.976052,-0.214482,0.001982,-0.391137,9.6e-05
28,-0.021233,0.968548,-0.247916,0.3165969999999999,-0.230923,0.305473
29,-0.018433,0.966152,-0.25731,0.093399,-0.5368,0.331132
30,-0.027935,0.966825,-0.253905,-0.4530979999999999,-0.990003,-0.116716
31,-0.054057,0.968342,-0.2436989999999999,-0.303365,-0.989369,0.173326
32,-0.088264,0.971717,-0.219027,0.222663,-0.8762129999999999,0.271304
33,-0.1210329999999999,0.976834,-0.17648,0.388596,-0.635922,0.02522
34,-0.140881,0.983717,-0.1115819999999999,0.037335,0.0091569999999999,-0.601003
35,-0.147823,0.988421,-0.0342,0.295742,1.399442,-0.001383
36,-0.150823,0.986311,0.066631,0.479909,1.983049,-0.254726
37,-0.140725,0.976924,0.16066,1.066125,2.018239,0.164749
38,-0.138069,0.96414,0.226642,0.631309,1.626467,0.197567
39,-0.13089,0.951838,0.277251,-0.385575,1.218832,0.0820019999999999
40,-0.12993,0.939733,0.316253,-0.783324,0.5966899999999999,0.500733
41,-0.136994,0.931447,0.337097,-0.499389,0.1042579999999999,0.155991
42,-0.1421349999999999,0.926861,0.34745,0.042724,-0.811886,-0.435814
43,-0.1336,0.929133,0.344759,0.382211,-1.45875,-0.576296
44,-0.121762,0.937391,0.326293,0.198483,-1.727445,-0.577056
45,-0.123843,0.942834,0.309392,0.0943929999999999,-1.971093,-0.4856609999999999
46,-0.135261,0.945988,0.294629,0.393257,-1.391804,-0.121228
47,-0.14982,0.947873,0.281224,0.115716,-0.278653,-0.148534
48,-0.17789,0.941831,0.285138,-0.124539,0.485979,-0.257413
49,-0.204764,0.924446,0.321663,-0.244684,-0.2496409999999999,-0.240532
50,-0.227223,0.91138,0.34315,0.117665,-1.65462,-0.486567
51,-0.243398,0.907056,0.343513,1.077962,-1.113874,-1.509285
52,-0.233111,0.905749,0.353938,1.290667,-0.029468,1.326223
53,-0.226144,0.907161,0.3548409999999999,-0.389151,3.040944,-1.571272
54,-0.190181,0.935974,0.296273,-1.589681,1.057495,0.199867
55,-0.145076,0.965214,0.2175079999999999,-0.70458,-0.204533,0.411459
56,-0.0999559999999999,0.987345,0.123106,-0.25237,1.151282,0.394228
57,-0.066652,0.997689,0.013044,-0.647963,2.089988,0.556902
58,-0.063686,0.993152,-0.097926,0.027248,0.233533,0.285014
59,-0.0459139999999999,0.981721,-0.184696,-0.097091,0.069854,0.075016
60,-0.021985,0.970766,-0.23901,0.238416,-0.318468,0.179715
61,-0.0037049999999999,0.963532,-0.267561,0.510174,-0.232163,0.363066
62,0.004776,0.96361,-0.267263,0.310623,-0.363299,0.4108479999999999
63,-0.003734,0.966243,-0.2575969999999999,-0.222432,-1.272807,0.13095
64,-0.035916,0.967771,-0.24925,-0.5708489999999999,-1.38133,-0.096194
65,-0.072915,0.970035,-0.231758,-0.092048,-0.986209,-0.094735
66,-0.1073279999999999,0.974313,-0.197966,0.396833,-0.791528,0.2205489999999999
67,-0.1330309999999999,0.980725,-0.143098,0.566487,-0.532559,0.2411969999999999
68,-0.142558,0.987526,-0.066808,0.311717,-0.326317,-0.385036
69,-0.134265,0.990659,0.0236949999999999,0.270938,0.990344,-0.005965
70,-0.125529,0.98402,0.1262569999999999,-0.030049,1.713536,-0.575705
71,-0.115828,0.964705,0.236479,-0.064302,2.2361310000000003,0.024019
72,-0.12744,0.942736,0.308221,0.907011,1.681577,0.719382
73,-0.1224799999999999,0.925329,0.358828,-0.217333,0.806742,0.756452
74,-0.122458,0.9098,0.396563,-0.8262120000000001,0.579901,0.584592
75,-0.133847,0.895174,0.4251359999999999,-0.9005770000000001,0.272153,0.2947889999999999
76,-0.138467,0.892547,0.4291609999999999,0.056695,-0.507904,-0.477181
77,-0.137154,0.90307,0.406997,0.229088,-0.6409699999999999,-0.419204
78,-0.140067,0.913641,0.3816199999999999,0.270179,-1.416556,-0.575407
79,-0.1391099999999999,0.917714,0.372079,0.379222,-1.970906,-0.293817
80,-0.145554,0.917416,0.370344,0.29129,-1.417767,-0.304182
81,-0.168331,0.919631,0.354876,0.297039,-0.640502,-0.1953609999999999
82,-0.191775,0.921126,0.338736,-0.074568,0.3261429999999999,-0.392111
83,-0.198847,0.910047,0.363684,-0.40769,0.031603,-0.536017
84,-0.213317,0.8950870000000001,0.391546,0.567,-0.420935,-1.363256
85,-0.235931,0.881767,0.408431,0.864563,-0.038475,0.622346
86,-0.2344659999999999,0.886608,0.398678,0.557068,-0.4256399999999999,0.8671459999999999
87,-0.256712,0.8879030000000001,0.381733,-0.254443,0.104315,0.38789
88,-0.258354,0.906309,0.334439,-0.801307,0.5028699999999999,-0.519772
89,-0.211115,0.936208,0.280958,0.001704,1.015757,0.364
90,-0.1546529999999999,0.966283,0.20585,-0.288126,1.632304,0.354529
91,-0.1172079999999999,0.987136,0.108718,-0.909724,1.7291580000000002,0.907289
92,-0.09405,0.995542,0.006818,-0.320303,0.7717310000000001,0.497668
93,-0.060461,0.994066,-0.090405,-0.282449,0.30519,0.310986
94,-0.0256589999999999,0.985719,-0.166416,-0.065893,-0.472871,0.176075
95,-0.004231,0.974976,-0.222259,0.435872,-0.814469,-0.093659
96,0.005336,0.967216,-0.253891,0.405507,-0.188316,0.088882
97,0.001896,0.966228,-0.257675,0.162243,-0.471538,0.444809
98,-0.011479,0.9682,-0.249907,-0.152171,-0.920608,-0.062669
99,-0.031675,0.972054,-0.2325989999999999,-0.090838,-1.163491,-0.090491
100,-0.050192,0.978354,-0.20075,0.007208,-1.08695,0.177389
101,-0.068671,0.985186,-0.157128,0.2414,-0.892809,0.242745
102,-0.084197,0.991711,-0.097035,0.158156,-0.6605489999999999,0.082585
103,-0.091353,0.995532,-0.0237819999999999,-0.118318,0.030256,-0.276999
104,-0.1039819999999999,0.992274,0.067632,-0.230246,1.6588189999999998,-0.274465
105,-0.113352,0.976766,0.181857,-0.210927,2.109293,-0.3819909999999999
106,-0.112147,0.956547,0.269136,0.395777,1.728161,0.696822
107,-0.111555,0.939072,0.325102,0.298369,1.346832,0.797609
108,-0.1076829999999999,0.923076,0.369224,-0.40988,0.6956680000000001,0.688652
109,-0.113743,0.907422,0.404525,-0.686199,0.32059,0.4693
110,-0.123806,0.8994219999999999,0.41917,-0.132114,0.2232579999999999,0.070408
111,-0.129375,0.905111,0.405005,0.10345,-0.7251340000000001,-0.379141
112,-0.130496,0.91595,0.379473,0.298403,-1.241633,-0.611224
113,-0.12697,0.922447,0.364641,0.4675,-1.821342,-0.440843
114,-0.124776,0.923283,0.36328,0.390416,-1.461659,-0.590774
115,-0.144864,0.923947,0.354019,0.432126,-1.221264,-0.408005
116,-0.178441,0.929458,0.322894,0.578802,-0.581344,-0.354709
117,-0.193385,0.926461,0.3229039999999999,-0.335592,0.462135,-0.281507
118,-0.197535,0.907958,0.369575,0.073313,-0.366958,-0.975257
119,-0.224367,0.8901690000000001,0.396552,0.8721639999999999,-0.3300949999999999,-0.223838
120,-0.2365429999999999,0.8836940000000001,0.40389,0.906846,-0.369183,0.43368
121,-0.237409,0.8838229999999999,0.403099,-0.1361109999999999,0.448971,-0.4962229999999999
122,-0.2400409999999999,0.8984709999999999,0.367592,-0.424678,0.819332,-0.84919
123,-0.196669,0.928553,0.314808,-0.269609,0.598485,0.52113
124,-0.1612579999999999,0.957282,0.240004,-0.303098,1.318902,0.615175
125,-0.120274,0.981288,0.150338,-0.716198,1.587819,0.967841
126,-0.091156,0.994325,0.054809,-1.086517,1.775832,1.034974
127,-0.058872,0.997581,-0.036892,-0.576412,0.162331,0.476071
128,-0.024434,0.993025,-0.115324,0.003178,-0.138945,0.201811
129,-0.00268,0.984052,-0.177848,0.2681989999999999,-0.8283360000000001,0.003425
130,0.0084319999999999,0.973892,-0.226848,0.044226,-0.578735,0.291454
131,0.0012289999999999,0.968251,-0.2499699999999999,-0.101159,-0.369511,-0.07962
132,-0.021426,0.967032,-0.253744,-0.056837,-0.597754,0.001394
133,-0.0463649999999999,0.968158,-0.246003,0.22558,-0.957141,0.006837
134,-0.064311,0.973664,-0.2187219999999999,0.274241,-0.947632,0.302508
135,-0.0820299999999999,0.980297,-0.1796819999999999,0.363631,-0.863597,0.192057
136,-0.099674,0.987663,-0.120761,-0.092068,-0.370277,-0.532941
137,-0.1206319999999999,0.991798,-0.042185,-0.000309,1.070702,-0.047781
138,-0.153801,0.986135,0.062271,0.197121,1.344904,-0.395996
139,-0.166731,0.972277,0.163928,0.493742,1.041227,-0.194141
140,-0.170754,0.953787,0.247239,0.789773,1.348367,0.179488
141,-0.182942,0.933693,0.307805,0.04485,1.874199,0.438838
142,-0.188948,0.916204,0.353358,-0.761232,0.6412140000000001,0.808339
143,-0.191677,0.905026,0.379712,-0.6154970000000001,0.217044,0.6589079999999999
144,-0.18902,0.900646,0.391284,-0.159155,0.108342,0.162794
145,-0.183912,0.905998,0.381232,0.043425,-0.6296609999999999,-0.429206
146,-0.178614,0.915541,0.360382,0.179499,-1.133314,-0.73732
147,-0.167012,0.922797,0.347198,0.4791149999999999,-2.009268,-0.529205
148,-0.153913,0.927314,0.341163,0.3871739999999999,-1.5788799999999998,-0.608009
149,-0.157246,0.931158,0.328955,0.372838,-1.421561,-0.538397
150,-0.165305,0.938307,0.303724,0.358054,-0.6084579999999999,-0.1499619999999999
151,-0.178782,0.940132,0.290144,-0.286306,0.775887,-0.238157
152,-0.195986,0.926931,0.319973,0.00487,-0.1995299999999999,-0.619015
153,-0.22689,0.908432,0.351094,0.50988,-0.3569489999999999,-1.489918
154,-0.253902,0.8961879999999999,0.3638349999999999,1.203746,-0.426171,0.760905
155,-0.2570389999999999,0.8968280000000001,0.360035,-0.208339,0.603019,-0.495137
156,-0.279651,0.907308,0.31398,-0.892941,1.1987709999999998,-0.594727
157,-0.23079,0.935844,0.266322,-0.4530939999999999,0.218086,0.35558
158,-0.175044,0.963539,0.2023579999999999,-0.535084,1.473381,0.796895
159,-0.1221339999999999,0.985878,0.114564,-1.03845,2.035973,0.903456
160,-0.09619,0.995211,0.017275,-0.345735,0.7202890000000001,0.558454
161,-0.073671,0.994362,-0.076252,-0.428542,0.244713,0.374104
162,-0.036479,0.988211,-0.148677,-0.698659,-0.279151,0.106243
163,-0.011168,0.979625,-0.20052,0.246169,-1.083751,-0.090129
164,-0.000587,0.971226,-0.238152,0.462959,-0.39948,0.192468
165,-0.002665,0.967112,-0.254331,0.32368,-0.286723,0.304929
166,-0.0177419999999999,0.967106,-0.253749,-0.024846,-0.922459,0.0610919999999999
167,-0.042703,0.968618,-0.244851,-0.061377,-1.0563870000000002,-0.086951
168,-0.066809,0.972982,-0.2209989999999999,0.157385,-0.957311,0.138281
169,-0.093683,0.979002,-0.181043,0.370783,-0.8436100000000001,0.25958
170,-0.119496,0.985401,-0.1212569999999999,0.099507,-0.641895,-0.447972
171,-0.135248,0.989994,-0.040206,0.084985,0.595715,0.146621
172,-0.154213,0.986566,0.053867,0.001152,1.616415,-0.306614
173,-0.161849,0.974037,0.1582829999999999,0.447219,1.895821,-0.244968
174,-0.168927,0.954937,0.2440369999999999,0.8929870000000001,1.755954,0.807369
175,-0.170177,0.937894,0.302311,-0.270161,1.358829,0.590252
176,-0.163467,0.919387,0.357776,-1.084839,0.721055,0.6229060000000001
177,-0.165946,0.90069,0.401517,-1.225259,0.346502,0.270754
178,-0.16823,0.886922,0.430192,-0.184614,-0.055959,-0.0613559999999999
179,-0.163638,0.883124,0.439672,0.323061,-0.795295,-0.273092
180,-0.155729,0.890824,0.4268229999999999,0.396986,-0.999711,-0.72353
181,-0.142294,0.8991370000000001,0.413888,0.430411,-1.626035,-0.562539
182,-0.134676,0.903435,0.407019,0.481279,-1.783959,-0.480842
183,-0.152348,0.906027,0.394845,0.628239,-1.562353,-0.373513
184,-0.18215,0.913296,0.364293,0.552863,-0.871136,-0.185567
185,-0.205057,0.916793,0.3426949999999999,-0.158361,-0.023482,-0.115019
186,-0.21363,0.909069,0.357704,-0.779778,0.053334,-0.489037
187,-0.231475,0.8970049999999999,0.376559,0.379073,-0.084032,-1.713427
188,-0.238933,0.8816620000000001,0.406914,0.697337,0.413656,0.762153
189,-0.209975,0.881125,0.423705,-0.157151,0.293451,0.685624
190,-0.217113,0.8973770000000001,0.384152,-0.74358,0.3956679999999999,-0.175244
191,-0.198023,0.921154,0.335052,-0.551077,0.264454,-0.563628
192,-0.150847,0.951419,0.26841,0.17752,1.233609,0.283134
193,-0.105918,0.977613,0.181801,-0.44964,1.695925,0.7575
194,-0.091096,0.992721,0.078761,-0.371154,1.479874,0.695653
195,-0.084712,0.996188,-0.020729,0.2450659999999999,0.328412,0.249169
196,-0.057635,0.993436,-0.0987919999999999,0.0873289999999999,0.210269,0.268592
197,-0.0227069999999999,0.986955,-0.159378,-0.046949,-0.16504,0.336258
198,0.008833,0.979502,-0.201236,-0.414168,-0.4285529999999999,0.4527779999999999
199,0.019532,0.974728,-0.2225329999999999,-0.4886479999999999,-0.655652,0.2189469999999999
200,0.003077,0.974197,-0.225671,-0.313777,-1.055908,0.018777
201,-0.025279,0.974396,-0.223406,-0.212484,-1.054902,-0.102949
202,-0.053396,0.977379,-0.204639,0.092794,-1.008186,0.095355
203,-0.076888,0.982201,-0.171367,0.2989949999999999,-0.91848,0.221996
204,-0.099161,0.987212,-0.1248069999999999,0.577371,-0.696181,0.268178
205,-0.11627,0.991342,-0.060988,0.2826059999999999,-0.098886,-0.151964
206,-0.128114,0.991669,0.013283,0.202623,1.330963,-0.408211
207,-0.146284,0.983829,0.103339,0.047743,2.01077,-0.686621
208,-0.160293,0.966596,0.199985,0.133041,1.398806,0.105602
209,-0.166894,0.946172,0.277312,0.27543,1.387584,0.692964
210,-0.161157,0.92954,0.331633,-0.13407,1.329966,0.634828
211,-0.151274,0.912893,0.379128,-0.852007,0.762339,0.674399
212,-0.15631,0.895806,0.416046,-0.6629649999999999,0.380332,0.186737
213,-0.16053,0.886703,0.4335699999999999,0.044319,-0.4226979999999999,0.029763
214,-0.159922,0.8942690000000001,0.417975,0.375894,-0.806592,-0.4579229999999999
215,-0.156958,0.910675,0.38214,0.1943109999999999,-1.198501,-0.4963979999999999
216,-0.151975,0.923572,0.352015,0.3760199999999999,-1.984622,-0.226176
217,-0.150467,0.929556,0.336572,0.390686,-1.76026,-0.381006
218,-0.167773,0.930755,0.324873,0.504183,-1.465103,-0.4216439999999999
219,-0.19177,0.935485,0.296794,0.382581,-0.5149229999999999,-0.134303
220,-0.212155,0.936641,0.278731,-0.187321,0.516439,-0.457319
221,-0.22537,0.927361,0.298673,-0.121813,0.482703,-0.346937
222,-0.253364,0.90585,0.339468,0.527229,0.583942,-1.438512
223,-0.28539,0.888867,0.3584199999999999,0.385106,-0.166546,0.499566
224,-0.298183,0.8880459999999999,0.34994,0.360744,-0.8152,0.8467610000000001
225,-0.31322,0.8900309999999999,0.331261,-0.092725,0.156767,-0.77845
226,-0.275971,0.912362,0.302376,-0.467452,1.0044620000000002,-0.145256
227,-0.216878,0.944156,0.24805,-0.057017,1.771145,0.4342319999999999
228,-0.186875,0.96896,0.161834,-0.583861,1.054432,0.996293
229,-0.171209,0.983226,0.06285,-0.8635809999999999,1.037617,0.5942689999999999
230,-0.14757,0.988643,-0.028374,-0.739744,0.7616470000000001,0.306511
231,-0.1196769999999999,0.987064,-0.1066759999999999,-0.331067,0.291852,0.453646
232,-0.1040359999999999,0.980438,-0.167076,0.482042,-0.455017,0.211052
233,-0.08985,0.973995,-0.207985,0.454459,-0.72456,0.1797099999999999
234,-0.077311,0.968763,-0.235623,0.219691,-0.4812899999999999,0.368802
235,-0.079264,0.967463,-0.2402679999999999,-0.062932,-0.801188,-0.07829
236,-0.097857,0.966878,-0.23573,0.013583,-0.95786,-0.118122
237,-0.126109,0.968195,-0.216085,0.28773,-0.986887,0.000295
238,-0.156065,0.971253,-0.179746,0.456709,-0.945282,0.199826
239,-0.185666,0.974238,-0.1280069999999999,0.55203,-0.831248,0.285722
240,-0.2078809999999999,0.976325,-0.0597679999999999,0.28419,-0.5361239999999999,-0.327072
241,-0.217032,0.976,0.017832,-0.129175,1.33882,-0.24943
242,-0.2236659999999999,0.9694,0.101161,-0.206921,2.165915,-0.4328869999999999
243,-0.22382,0.956557,0.1868119999999999,0.262791,2.254426,0.189043
244,-0.2271949999999999,0.940817,0.251477,0.90467,1.141275,0.880511
245,-0.224899,0.929286,0.292991,-0.092515,1.056844,0.421197
246,-0.213797,0.919575,0.329648,-0.956064,0.382,0.247256
247,-0.207323,0.911495,0.355232,-0.572905,0.219975,0.177941
248,-0.211248,0.90704,0.364209,0.2545679999999999,-0.365521,0.179446
249,-0.2143,0.911299,0.351575,0.475256,-1.005126,-0.175641
250,-0.2086469999999999,0.923092,0.323054,0.317564,-1.284756,-0.563563
251,-0.195274,0.93275,0.303054,0.340049,-1.757167,-0.5438529999999999
252,-0.181579,0.93659,0.299707,0.161239,-1.367712,-0.519785
253,-0.186019,0.938391,0.291229,0.293639,-1.084647,-0.069016
254,-0.20558,0.942517,0.26343,0.243758,0.078205,-0.110644
255,-0.2241179999999999,0.937739,0.265352,-0.359103,0.186559,0.0511449999999999
256,-0.245299,0.923096,0.296171,0.039198,-0.935441,-0.60182
257,-0.2752949999999999,0.91171,0.3049489999999999,0.915416,-0.398023,-1.396242
258,-0.283675,0.901819,0.325954,0.809325,-0.093042,0.340794
259,-0.267211,0.901479,0.340485,0.126525,0.982814,0.53479
260,-0.281553,0.906759,0.313864,-0.662447,1.004419,-0.102209
261,-0.267676,0.924372,0.271813,-0.4481449999999999,0.417959,-0.207146
262,-0.225388,0.948764,0.221458,-0.304962,0.5410739999999999,0.487709
263,-0.185212,0.971275,0.149393,-0.272262,1.134255,0.589468
264,-0.158317,0.985834,0.0553429999999999,-0.134759,1.203894,0.703812
265,-0.138846,0.98927,-0.045419,-0.1012049999999999,0.850879,0.35888
266,-0.113869,0.985457,-0.126116,-0.475883,0.459352,0.198
267,-0.088833,0.979416,-0.181245,-0.1165809999999999,-0.2427369999999999,0.279679
268,-0.067397,0.973247,-0.219648,0.193679,-0.642482,0.370313
269,-0.048862,0.969122,-0.241684,0.279636,-0.504202,0.560883
270,-0.041542,0.96763,-0.248923,0.073997,-0.4902899999999999,0.298636
271,-0.05118,0.967303,-0.248398,-0.175871,-0.923175,0.057983
272,-0.076593,0.968435,-0.2372,-0.295202,-0.979406,-0.125791
273,-0.108206,0.971522,-0.210792,0.042319,-0.97816,0.119468
274,-0.140927,0.97567,-0.16794,0.4430659999999999,-0.892067,0.204973
275,-0.165521,0.980372,-0.107098,0.259866,-0.521998,-0.341389
276,-0.17897,0.983228,-0.035044,0.281951,0.660021,-0.0150199999999999
277,-0.192302,0.979739,0.0559169999999999,0.699108,2.331189,0.06507
278,-0.202956,0.969178,0.139632,0.843535,1.772262,0.117692
279,-0.2105949999999999,0.95775,0.195853,0.977181,1.374968,0.307687
280,-0.211581,0.948172,0.237061,-0.375227,1.3686459999999998,0.432144
281,-0.212967,0.934933,0.2837949999999999,-1.067261,0.912494,0.383365
282,-0.2165699999999999,0.92048,0.325282,-0.947126,0.304801,0.178564
283,-0.215321,0.907688,0.360184,0.154194,-0.4443399999999999,0.017852
284,-0.207357,0.902798,0.376767,0.344457,-0.689068,-0.039243
285,-0.195819,0.908116,0.370101,0.378467,-1.006825,-0.353133
286,-0.1737759999999999,0.918786,0.354441,0.142572,-1.414361,-0.530954
287,-0.149869,0.925496,0.347838,0.166318,-1.330647,-0.365737
288,-0.1466049999999999,0.931702,0.332316,0.5928329999999999,-1.335861,-0.164896
289,-0.161715,0.937565,0.307921,0.373293,-0.483463,-0.237044
290,-0.179505,0.93419,0.308321,-0.296661,-0.376405,-0.315691
291,-0.199383,0.923152,0.328683,0.049298,-0.701151,-0.788995
292,-0.224284,0.914805,0.335892,0.629634,0.225194,-0.756134
293,-0.224051,0.903552,0.365226,0.513709,1.098447,1.161431
294,-0.206726,0.903406,0.375655,-0.871583,0.693213,-0.376723
295,-0.2250489999999999,0.922114,0.314729,-0.435535,0.296041,-0.45865
296,-0.203127,0.941383,0.26932,-0.294371,0.769875,0.161588
297,-0.147272,0.966239,0.2113949999999999,-0.463736,1.165856,0.517304
298,-0.109675,0.984839,0.134384,-0.4344989999999999,1.391199,0.672775
299,-0.0954309999999999,0.994423,0.044853,0.193743,0.820351,0.487984
300,-0.082011,0.99597,-0.036246,0.250498,0.4481819999999999,0.473227
301,-0.052421,0.994075,-0.095203,-0.555916,0.001042,-0.042539
302,-0.023947,0.99019,-0.137651,-0.012217,-0.6910569999999999,0.22368
303,-0.00515,0.98604,-0.166419,0.268715,-0.827334,0.280082
304,0.006124,0.98384,-0.1789349999999999,0.0647529999999999,-0.641464,0.247813
305,0.007554,0.983714,-0.179573,-0.070344,-0.881602,-0.047585
306,-0.002561,0.984902,-0.173087,0.01013,-1.013451,-0.091455
307,-0.018456,0.987861,-0.1542319999999999,0.217904,-0.994605,0.099194
308,-0.032305,0.992217,-0.120245,0.265353,-0.839858,0.014883
309,-0.041413,0.996383,-0.074186,0.07016,-0.643126,-0.3678
310,-0.047006,0.998715,-0.018821,-0.043296,0.31766,-0.13807
311,-0.057333,0.996754,0.056484,-0.3819369999999999,2.073986,-0.17442
312,-0.07343,0.988503,0.132154,0.729772,2.019996,0.378923
313,-0.092945,0.978129,0.186065,0.739491,1.103124,0.364457
314,-0.10562,0.967647,0.229126,-0.608735,1.095326,0.297623
315,-0.1097549999999999,0.955596,0.273467,-1.022172,1.101029,0.166444
316,-0.116355,0.942745,0.3125489999999999,-0.734201,0.433735,0.0675019999999999
317,-0.1214599999999999,0.933097,0.338482,0.0075689999999999,0.08709,-0.247738
318,-0.121477,0.927951,0.3523409999999999,0.397279,-0.514072,-0.275406
319,-0.1159299999999999,0.929515,0.350081,0.220407,-1.088969,-0.229323
320,-0.101773,0.938222,0.3307179999999999,-0.093814,-1.429891,-0.491058
321,-0.076988,0.946359,0.3138,-0.210335,-1.5360049999999998,-0.564639
322,-0.059244,0.951506,0.30186,0.067102,-1.46617,-0.5016430000000001
323,-0.050082,0.955904,0.289365,0.37604,-1.201616,-0.329084
324,-0.038945,0.955103,0.293692,0.1932569999999999,0.071951,0.1657799999999999
325,-0.036375,0.943972,0.328006,0.143492,0.135695,0.05676
326,-0.056361,0.921189,0.385002,0.997798,2.137343,-0.918708
327,-0.072202,0.8829889999999999,0.4638,0.364774,1.44303,0.774985
328,-0.108441,0.8592120000000001,0.499988,-0.749683,-1.3303120000000002,-1.32268
329,-0.149376,0.862431,0.483624,-0.569298,-0.617711,-0.041485
330,-0.139004,0.8684790000000001,0.475832,-0.3009219999999999,1.177068,-0.596742
331,-0.079776,0.8881969999999999,0.452477,-0.4220859999999999,1.3954030000000002,0.379463
332,-0.073014,0.911787,0.404111,-0.239441,0.886827,0.3721489999999999
333,-0.079787,0.935751,0.343509,-0.096803,0.490031,0.456204
334,-0.079354,0.956359,0.281203,-0.16706,0.600541,0.267931
335,-0.069217,0.97235,0.2230219999999999,-0.244244,0.538606,0.241379
336,-0.056913,0.983516,0.171615,-0.497652,0.2058,0.23668
337,-0.041686,0.989814,0.136113,-0.194383,-0.347724,0.038921
338,-0.025881,0.993307,0.112552,0.116274,-0.8089649999999999,-0.0759919999999999
339,-0.010015,0.994988,0.09947,0.214696,-0.970651,-0.134077
340,0.004682,0.995404,0.095634,0.102129,-0.933728,-0.139564
341,0.013207,0.994933,0.0996539999999999,-0.028664,-0.781813,-0.190749
342,0.010264,0.993798,0.1107099999999999,-0.062907,-0.8610459999999999,-0.11158
343,-0.001761,0.991229,0.132133,0.014197,-1.024325,-0.096458
344,-0.009811,0.986189,0.165322,-0.1568,-0.6543260000000001,-0.340401
345,-0.00795,0.978017,0.208365,-0.672455,0.41038,-0.8257969999999999
346,0.001188,0.963014,0.269444,-0.600248,2.813415,-0.027821
347,-0.0147319999999999,0.946511,0.32233,1.562935,2.246482,0.329083
348,-0.053429,0.933887,0.353548,0.853783,0.551327,-0.1277329999999999
349,-0.066109,0.926155,0.371298,-0.782036,0.466209,-0.01238
350,-0.076013,0.916684,0.392312,-1.489325,0.536701,-0.326577
351,-0.076251,0.905166,0.418159,-0.7986880000000001,0.401093,-0.2293469999999999
352,-0.070913,0.8971129999999999,0.436069,0.046163,0.150098,-0.1698329999999999
353,-0.062567,0.8974120000000001,0.436729,0.3749139999999999,-0.082273,-0.212776
354,-0.049847,0.903247,0.4262109999999999,0.148953,-0.506549,-0.11542
355,-0.038882,0.911584,0.409267,-0.078412,-0.883523,-0.34135
356,-0.0294199999999999,0.92015,0.390455,-0.201125,-1.1377549999999998,-0.455076
357,-0.021811,0.928393,0.370953,-0.201486,-1.210422,-0.413876
358,-0.011773,0.935668,0.352679,-0.193656,-1.226882,-0.454013
359,0.004099,0.937756,0.347265,0.014333,-0.390759,-0.172354
360,0.018706,0.933443,0.358232,-0.071715,-0.237688,-0.141221
361,0.02118,0.923594,0.382781,-0.024506,-0.168605,-0.301696
362,0.019676,0.906012,0.4227899999999999,0.4559859999999999,0.3486579999999999,-1.52713
363,0.0275389999999999,0.8946770000000001,0.44586,0.5461,1.154899,-1.062193
364,0.061524,0.876935,0.47665,-1.951279,2.531359,0.341709
365,0.063784,0.8671559999999999,0.493931,-0.8451110000000001,0.73935,0.182338
366,0.061314,0.86836,0.492125,0.167461,-0.312268,-0.344832
367,0.074522,0.8731479999999999,0.4817189999999999,0.0496389999999999,0.4441279999999999,-0.051208
368,0.085649,0.882019,0.463359,-0.374894,1.234757,0.256337
369,0.089274,0.8976860000000001,0.4314909999999999,-0.5465949999999999,1.059833,0.354642
370,0.095961,0.917927,0.3849619999999999,-0.8703290000000001,0.356319,0.010485
371,0.107828,0.937654,0.330413,-0.69639,0.353331,-0.141753
372,0.124543,0.953168,0.275596,-0.477524,0.4210689999999999,-0.054817
373,0.143514,0.962894,0.228546,-0.5452170000000001,0.405804,-0.066757
374,0.156611,0.969784,0.187045,-0.496745,-0.08215,-0.232226
375,0.164198,0.974542,0.152652,-0.477888,-0.201822,-0.30289
376,0.166654,0.977969,0.125692,-0.102323,-0.602633,-0.24352
377,0.164724,0.980402,0.108046,-0.0045369999999999,-0.783762,-0.182799
378,0.165444,0.980526,0.105793,-0.046914,-0.769116,-0.2415199999999999
379,0.171017,0.979203,0.109134,-0.176281,-0.7836310000000001,-0.3698909999999999
380,0.175591,0.977346,0.118147,-0.046517,-0.7796069999999999,-0.336653
381,0.177656,0.975244,0.131652,-0.000822,-0.8427520000000001,-0.266189
382,0.179066,0.972088,0.151581,-0.207035,-0.725612,-0.641189
383,0.181052,0.967461,0.176733,-0.371588,0.041191,-0.37377
384,0.174121,0.963086,0.205281,0.016492,1.532672,0.489299
385,0.1401339999999999,0.958599,0.24788,0.438647,1.987705,0.118697
386,0.103602,0.952597,0.28604,0.284475,0.289423,0.19896
387,0.086631,0.945156,0.3149099999999999,-0.28144,0.374271,0.261613
388,0.069348,0.935679,0.345962,-0.697735,0.989065,0.489289
389,0.039156,0.92614,0.375134,-0.404253,0.886177,0.433506
390,0.012014,0.916964,0.398781,-0.4126329999999999,0.4965189999999999,0.272941
391,0.0024809999999999,0.910396,0.4137229999999999,-0.550668,0.085347,0.258198
392,0.004036,0.908693,0.417437,-0.4397819999999999,-0.077303,0.136396
393,0.01278,0.910797,0.412646,-0.346657,-0.137513,0.144101
394,0.024709,0.912232,0.40892,-0.2190909999999999,-0.3191989999999999,0.335557
395,0.0301889999999999,0.908445,0.416904,-0.436668,-0.527433,-0.279636
396,0.015557,0.905542,0.423963,-0.354622,-0.737085,-0.528379
397,0.003909,0.909461,0.41576,0.252317,-1.147682,-0.482914
398,0.008404,0.916835,0.3991679999999999,0.236835,-1.013362,-0.036925
399,0.025779,0.920378,0.3901679999999999,-0.021583,-0.949584,-0.110978
400,0.041257,0.91961,0.3906489999999999,-0.142163,-0.860025,-0.5955590000000001
401,0.044191,0.918319,0.393357,-0.111207,-0.512099,-0.550599
402,0.030631,0.921898,0.386209,-0.186729,-0.415199,-1.026773
403,0.023197,0.927717,0.372552,-0.2249949999999999,0.698626,-0.351617
404,0.027892,0.933312,0.3579699999999999,-0.39331,2.2695990000000004,-0.224181
405,0.036764,0.941938,0.333757,-0.318792,0.337832,-0.002703
406,0.036159,0.954656,0.295494,0.133046,-0.148549,0.162315
407,0.049454,0.966287,0.252655,-0.174118,0.565237,0.68277
408,0.081854,0.976399,0.199842,-0.4788729999999999,0.972194,0.598392
409,0.117068,0.98434,0.131766,-0.959201,1.5034530000000002,0.3880699999999999
410,0.136097,0.989234,0.0537309999999999,-0.911396,0.803918,0.273478
411,0.1453819999999999,0.989144,-0.021265,-0.6977800000000001,0.430458,0.3379
412,0.154655,0.984645,-0.080928,-0.507041,0.586674,0.309077
413,0.160355,0.979221,-0.124118,-0.507737,0.112789,0.465213
414,0.1614,0.974841,-0.153717,-0.282173,-0.451251,0.231277
415,0.159223,0.973075,-0.1666359999999999,-0.451856,-0.854102,0.055934
416,0.150551,0.974043,-0.169022,-0.394402,-0.945601,0.109482
417,0.129887,0.978106,-0.162576,-0.179829,-0.974856,0.237344
418,0.099689,0.984774,-0.142393,0.016721,-1.092028,0.124357
419,0.067518,0.991705,-0.109347,0.099734,-0.8381709999999999,-0.216917
420,0.0431,0.997368,-0.058249,0.087043,-0.495903,-0.512293
421,0.020571,0.999768,0.005854,-0.091219,0.994098,0.378988
422,-0.003714,0.995399,0.095705,0.071753,2.04078,0.114027
423,-0.026704,0.981983,0.187049,0.2883,2.106747,0.128625
424,-0.037202,0.963651,0.264545,-0.26596,1.3949,0.331509
425,-0.050489,0.943107,0.328621,-0.659808,0.766229,0.5005569999999999
426,-0.072526,0.921572,0.381359,-0.763717,0.503309,0.6500739999999999
427,-0.0772149999999999,0.904676,0.419033,-0.563913,0.376391,0.577396
428,-0.067457,0.8977790000000001,0.435239,-0.296542,-0.206693,0.321506
429,-0.058313,0.902617,0.426465,-0.234015,-0.1363049999999999,-0.113828
430,-0.049257,0.912482,0.406129,0.228929,-1.245749,-0.565705
431,-0.041487,0.916898,0.396947,0.811629,-1.875806,-0.59316
432,-0.03085,0.915227,0.401744,0.5106930000000001,-1.297566,-0.591716
433,-0.035288,0.914601,0.402803,0.318659,-1.158253,-0.6632859999999999
434,-0.062938,0.916903,0.394104,0.549495,-0.967501,-0.207382
435,-0.097328,0.919319,0.381274,0.35949,-0.435981,-0.249423
436,-0.1209339999999999,0.913464,0.388519,-0.200706,-0.3049739999999999,-0.036896
437,-0.135996,0.906446,0.399813,-0.194662,-0.6732,-0.978319
438,-0.155107,0.904303,0.397702,0.2021349999999999,-0.586158,-0.5749479999999999
439,-0.171735,0.908089,0.381932,0.146833,0.558159,-0.165989
440,-0.193078,0.920468,0.339778,-0.130973,2.463702,0.144872
441,-0.166028,0.938978,0.30124,-0.6004510000000001,-0.151106,0.325683
442,-0.142088,0.95989,0.24169,-0.457964,-0.020742,0.421213
443,-0.11483,0.979696,0.16432,-0.702141,1.157984,0.584581
444,-0.076201,0.994266,0.0749669999999999,-1.202684,2.069744,0.596801
445,-0.0440959999999999,0.998698,-0.025491,-0.674532,0.571477,0.237833
446,-0.0246879999999999,0.99317,-0.114001,0.016647,0.324365,0.059222
447,-0.00552,0.983969,-0.1782369999999999,0.381772,0.072824,0.434737
448,0.0172669999999999,0.974182,-0.225092,-0.113992,-0.284469,0.546244
449,0.0323149999999999,0.967396,-0.251189,-0.347165,-0.380344,0.211364
450,0.020819,0.965936,-0.257931,-0.108358,-0.607568,0.048947
451,-0.011806,0.967644,-0.252032,0.012416,-0.917489,0.055865
452,-0.052746,0.97143,-0.231377,-0.073444,-1.09904,0.2262199999999999
453,-0.091275,0.976762,-0.193906,0.126965,-1.123475,0.296002
454,-0.120995,0.983216,-0.136532,0.385796,-0.681031,-0.33501
455,-0.144926,0.987782,-0.057259,0.281996,0.346645,0.129982
456,-0.169004,0.984474,0.047358,0.070478,1.808739,-0.202219
457,-0.1766849999999999,0.971543,0.15773,0.226306,1.358825,-0.0832519999999999
458,-0.179474,0.953587,0.241771,0.529099,1.414135,0.30779
459,-0.177889,0.934212,0.309185,-0.293379,1.691932,0.4581189999999999
460,-0.172338,0.912481,0.371039,-0.807719,0.659373,0.610712
461,-0.1767,0.8900530000000001,0.420205,-0.322567,0.088798,0.238639
462,-0.179772,0.87534,0.448834,-0.1267619999999999,-0.138402,0.027652
463,-0.177119,0.8754069999999999,0.4497569999999999,0.184093,-0.27505,-0.312611
464,-0.171204,0.8852979999999999,0.43235,0.505799,-0.894545,-0.401588
465,-0.171643,0.8949530000000001,0.411811,0.4953729999999999,-1.576701,-0.487068
466,-0.176129,0.898934,0.401107,0.3815429999999999,-1.757073,-0.631835
467,-0.187986,0.901884,0.388918,0.177778,-1.121291,-0.468081
468,-0.2130949999999999,0.905488,0.366978,0.2380429999999999,-0.818711,-0.1112099999999999
469,-0.24481,0.908401,0.338919,-0.16852,0.198258,-0.316291
470,-0.266313,0.902167,0.339358,-0.129012,-0.263083,-0.686724
471,-0.283042,0.894208,0.346802,0.243781,-0.813168,-1.0715940000000002
472,-0.289021,0.8914979999999999,0.348841,1.613789,-0.823459,0.045324
473,-0.269291,0.8944120000000001,0.357074,1.083759,0.376111,0.012906
474,-0.276006,0.908534,0.313655,-0.734629,3.887014,0.190068
475,-0.2495969999999999,0.933571,0.2571739999999999,-1.607306,0.283058,-0.21065
476,-0.214488,0.960089,0.17949,-1.252218,0.22558,0.732085
477,-0.175056,0.979507,0.099576,-0.726983,1.102448,0.736117
478,-0.127028,0.991793,0.014325,-0.625398,1.747084,0.628024
479,-0.092723,0.992706,-0.077023,-0.1904799999999999,0.567948,0.722958
480,-0.0616289999999999,0.986422,-0.152212,-0.264253,-0.209612,0.308081
481,-0.039403,0.978512,-0.20238,0.3099719999999999,-1.008541,-0.053006
482,-0.027099,0.970959,-0.237696,0.304107,-0.64494,0.263804
483,-0.027179,0.967309,-0.25213,0.053562,-0.388452,0.28634
484,-0.041963,0.966444,-0.253418,-0.075224,-0.722837,-0.0141139999999999
485,-0.0656149999999999,0.967705,-0.243386,-0.010145,-0.971779,-0.102073
486,-0.090494,0.971913,-0.2172369999999999,0.250223,-1.04784,0.243421
487,-0.114795,0.97798,-0.174275,0.507267,-0.921752,0.3150679999999999
488,-0.133376,0.984623,-0.112802,0.101683,-0.5004609999999999,-0.450552
489,-0.143002,0.989093,-0.0352279999999999,0.141843,0.771405,-0.171819
490,-0.155973,0.985497,0.0668049999999999,-0.069704,1.790825,-0.507861
491,-0.154299,0.972146,0.176401,-0.065428,1.291633,-0.064783
492,-0.13859,0.953121,0.268972,0.6514989999999999,1.669148,0.777674
493,-0.130659,0.934331,0.33158,-0.1390559999999999,1.659632,0.720071
494,-0.124422,0.917007,0.378958,-0.8583049999999999,0.8784190000000001,0.749537
495,-0.125375,0.90156,0.414078,-0.7178720000000001,0.1049549999999999,0.381088
496,-0.123627,0.895651,0.4272189999999999,-0.012528,-0.2087,0.097256
497,-0.124582,0.902408,0.412469,0.11355,-0.401019,-0.501748
498,-0.118844,0.912927,0.390426,0.285058,-1.338937,-0.7003159999999999
499,-0.109771,0.917267,0.382835,0.451735,-2.431947,-0.318443
500,-0.117171,0.917149,0.380919,0.426634,-1.941411,-0.434554
501,-0.1497,0.918896,0.364981,0.4312399999999999,-1.1753049999999998,-0.397925
502,-0.178444,0.922162,0.343171,-0.189064,0.328479,-0.223099
503,-0.19411,0.917893,0.346099,-0.760159,0.3918,-0.2318869999999999
504,-0.190575,0.90791,0.373323,-0.498527,-0.253094,-0.248201
505,-0.195415,0.907227,0.37248,0.656932,-0.80185,-2.129271
506,-0.20452,0.907755,0.366252,1.584555,-0.571589,0.4977609999999999
507,-0.191803,0.911605,0.36356,1.287796,0.19162,0.487514
508,-0.190753,0.903168,0.384563,-0.896176,1.199035,-2.3692740000000003
509,-0.19473,0.932938,0.3028139999999999,-1.213702,0.316284,0.786007
510,-0.162631,0.959526,0.229895,-0.677534,1.040032,0.156244
511,-0.102037,0.984411,0.143227,-0.7883600000000001,2.113062,0.4198229999999999
512,-0.060536,0.997144,0.045069,-0.268825,1.246051,0.653325
513,-0.044712,0.997258,-0.058909,0.267124,0.456401,0.464335
514,-0.018726,0.989647,-0.142272,-0.154401,-0.068245,-0.077195
515,0.010313,0.980708,-0.195186,0.271074,-0.930522,0.229717
516,0.032113,0.972495,-0.230686,0.315009,-0.888648,0.442738
517,0.042448,0.969304,-0.242161,-0.1927309999999999,-0.483266,0.385808
518,0.034072,0.96946,-0.242858,-0.36885,-0.950554,-0.011339
519,0.007651,0.971291,-0.237757,-0.256186,-1.02958,-0.268941
520,-0.020259,0.975503,-0.2190369999999999,0.0154069999999999,-0.905862,0.20773
521,-0.048639,0.981907,-0.182991,0.343668,-0.80901,0.368873
522,-0.074348,0.989019,-0.127695,0.434135,-0.72843,0.342157
523,-0.087396,0.994723,-0.053671,-0.1780769999999999,-0.0936309999999999,-0.188959
524,-0.090435,0.995443,0.030107,-0.504306,1.610483,-0.160875
525,-0.09673,0.985557,0.138968,-0.4323079999999999,2.227914,-0.5813659999999999
526,-0.096022,0.96464,0.245437,0.468596,1.390875,0.325669
527,-0.1037589999999999,0.94103,0.322002,0.9002530000000001,1.1400549999999998,0.5201
528,-0.1035809999999999,0.921091,0.375302,0.485158,1.053732,0.732364
529,-0.107814,0.903264,0.415304,-1.275731,0.619609,0.5329689999999999
530,-0.11844,0.8900540000000001,0.4401859999999999,-0.546477,-0.2035,0.181564
531,-0.1160269999999999,0.8929879999999999,0.434853,0.007842,-0.053846,-0.459481
532,-0.1045329999999999,0.905284,0.411729,0.323191,-0.567257,-0.569734
533,-0.093794,0.915275,0.391742,0.488249,-2.00991,-0.310031
534,-0.080686,0.916802,0.39109,0.400663,-1.975991,-0.515785
535,-0.083687,0.913069,0.3991099999999999,0.144326,-1.408293,-0.531327
536,-0.113421,0.913704,0.390216,0.289752,-0.699303,-0.150607
537,-0.157938,0.912696,0.376869,0.016016,0.0104,-0.394706
538,-0.187838,0.8984120000000001,0.39694,-0.145643,-0.023198,-0.888807
539,-0.210352,0.8823059999999999,0.4210399999999999,0.4336649999999999,-0.2185639999999999,0.0572159999999999
540,-0.222515,0.878251,0.4232609999999999,0.846676,0.1660299999999999,0.244067
541,-0.244227,0.8854059999999999,0.395469,0.339885,0.760849,-0.721274
542,-0.241027,0.911554,0.33311,-0.4981239999999999,0.635779,0.114247
543,-0.195981,0.943161,0.268378,-0.852786,0.120193,-0.172018
544,-0.13512,0.973462,0.184673,-1.275097,1.964603,0.971745
545,-0.08173,0.992016,0.095994,-1.518505,2.388599,0.853728
546,-0.059002,0.998234,-0.006207,-0.306095,0.088176,0.580304
547,-0.029644,0.994458,-0.100826,-0.174259,-0.031751,0.250667
548,0.008966,0.983861,-0.178691,-0.190622,-0.752782,0.406871
549,0.031805,0.969908,-0.241373,0.325007,-1.009779,-0.1116089999999999
550,0.0370189999999999,0.959969,-0.277638,0.029723,-0.307076,0.033879
551,0.01925,0.957044,-0.289292,-0.038903,-0.628263,0.227448
552,-0.007877,0.958433,-0.285197,-0.005536,-0.8083319999999999,0.131053
553,-0.033743,0.96302,-0.267294,0.174215,-0.8645709999999999,0.239385
554,-0.060476,0.969861,-0.2360179999999999,0.430562,-0.7973,0.525233
555,-0.086449,0.97898,-0.184711,0.387337,-0.478934,0.334873
556,-0.10099,0.988768,-0.110143,-0.236992,0.205477,-0.404185
557,-0.115819,0.992956,-0.024808,-0.578349,1.462351,-0.633517
558,-0.122344,0.988357,0.090402,-0.408204,2.14238,-1.029336
559,-0.126174,0.971413,0.201063,0.792938,2.137444,0.457293
560,-0.13196,0.955772,0.262821,1.166826,1.339104,0.491421
561,-0.124016,0.942344,0.310796,-0.30062,0.8831110000000001,0.639109
562,-0.124219,0.927672,0.352109,-1.260059,0.278413,0.415225
563,-0.130011,0.915504,0.380703,-0.657358,0.129799,0.002659
564,-0.127924,0.915424,0.381602,0.220423,-0.578617,-0.761591
565,-0.1158299999999999,0.923042,0.366828,0.228348,-1.168892,-0.772666
566,-0.100409,0.928356,0.357855,0.568304,-2.303615,-0.039206
567,-0.0970309999999999,0.927953,0.359827,0.643922,-2.122884,-0.540293
568,-0.122239,0.926837,0.354989,0.6742560000000001,-1.530872,-0.709741
569,-0.156843,0.933885,0.321319,0.322798,-0.355256,-0.105514
570,-0.179612,0.933187,0.31127,-0.395706,0.533625,-0.0563559999999999
571,-0.188717,0.917096,0.35115,-0.310627,-0.029538,-0.725723
572,-0.202575,0.899699,0.386641,0.874252,0.283208,-1.509536
573,-0.199707,0.884466,0.421692,0.666611,0.2406719999999999,0.7635350000000001
574,-0.208017,0.8846870000000001,0.4171859999999999,0.046198,0.553423,1.161473
575,-0.2312489999999999,0.901422,0.365991,-0.875975,0.331915,-0.263696
576,-0.17758,0.932894,0.313308,-0.937288,0.126905,-0.09027
577,-0.109424,0.965728,0.235339,-0.532879,1.805985,0.408918
578,-0.066051,0.988953,0.13266,-1.02741,2.116577,1.032638
579,-0.059837,0.997943,0.022801,-0.5845560000000001,1.515637,0.727825
580,-0.04833,0.996052,-0.074406,0.1890619999999999,0.126339,0.158115
581,-0.021402,0.98922,-0.144836,-0.0509089999999999,-0.541024,-0.045228
582,0.000739,0.981232,-0.1928099999999999,0.287073,-0.773072,0.082122
583,0.017373,0.976286,-0.215768,0.071738,-0.283369,0.518884
584,0.02203,0.975305,-0.219744,-0.217694,-0.696633,0.2586699999999999
585,0.0145189999999999,0.975788,-0.218219,-0.363701,-0.996189,-0.2110719999999999
586,-0.00117,0.978171,-0.207782,-0.1819049999999999,-1.074774,-0.06323
587,-0.0232169999999999,0.982478,-0.184906,0.123879,-0.99853,0.2606969999999999
588,-0.04628,0.988006,-0.147288,0.218018,-1.018188,0.1080119999999999
589,-0.064536,0.99323,-0.096547,0.154334,-0.928624,0.301518
590,-0.07281,0.996769,-0.03378,-0.0145919999999999,0.410351,-0.080554
591,-0.082983,0.995767,0.039392,-0.157709,1.324713,-0.1353089999999999
592,-0.09396,0.984591,0.147454,-0.472096,3.267378,-0.651863
593,-0.096459,0.965711,0.241011,0.937813,2.167544,0.4900069999999999
594,-0.110545,0.950491,0.290406,1.465846,1.73292,0.7763359999999999
595,-0.1033,0.93876,0.328705,-0.411425,1.031104,0.472656
596,-0.100119,0.92531,0.365739,-1.145823,0.371198,0.391113
597,-0.1036859999999999,0.914693,0.390606,-0.654233,0.126521,-0.019359
598,-0.105422,0.914017,0.3917219999999999,0.1357259999999999,-0.7836,-0.034392
599,-0.097444,0.925655,0.365588,0.256089,-1.004329,-0.607837
600,-0.080035,0.935578,0.343914,0.239825,-1.33757,-0.6977800000000001
601,-0.069311,0.938626,0.337884,0.282767,-2.065014,-0.452324
602,-0.08717,0.939019,0.3326139999999999,0.322842,-1.440957,-0.4877649999999999
603,-0.109078,0.941037,0.320219,0.447258,-0.682476,-0.169615
604,-0.121868,0.936384,0.329121,-0.070484,0.338625,-0.103642
605,-0.131552,0.920882,0.366958,-0.53068,0.191117,-0.34735
606,-0.152552,0.90857,0.388864,0.176249,-0.6557930000000001,-1.011408
607,-0.174188,0.8967729999999999,0.406748,1.041253,-0.229033,-0.548776
608,-0.167212,0.8956200000000001,0.412181,0.983618,0.455653,1.066792
609,-0.194073,0.8959370000000001,0.399523,-0.829456,0.720014,-1.996829
610,-0.169619,0.92983,0.326547,-0.769895,0.272669,0.822134
611,-0.1243359999999999,0.957141,0.261553,-0.375984,1.4667940000000002,0.044691
612,-0.058907,0.982624,0.175977,-0.683341,1.842037,0.941729
613,-0.028066,0.996792,0.074885,-0.608332,1.320148,0.715535
614,-0.021159,0.999595,-0.018793,0.191447,-0.089072,0.357309
615,0.003833,0.995315,-0.096568,0.1033289999999999,-0.075484,-0.0865679999999999
616,0.0289579999999999,0.987422,-0.155405,-0.053433,-1.085628,0.078119
617,0.041923,0.978465,-0.202089,0.2571489999999999,-0.603023,0.421389
618,0.038755,0.973713,-0.224438,0.206546,-0.296025,0.298092
619,0.02098,0.971792,-0.234891,-0.206604,-0.767339,0.061169
620,-0.001351,0.972315,-0.233653,-0.1267309999999999,-1.061518,-0.158833
621,-0.019518,0.975859,-0.217509,0.1655599999999999,-0.906493,0.154185
622,-0.039395,0.982042,-0.184481,0.3720219999999999,-0.8265239999999999,0.194201
623,-0.058269,0.989093,-0.13524,0.314205,-0.834034,0.12993
624,-0.067852,0.995236,-0.069937,-0.00362,-0.7690100000000001,-0.448297
625,-0.073706,0.99727,0.003232,-0.343943,1.147216,-0.029278
626,-0.084675,0.991004,0.103585,-0.22993,3.00805,-0.761849
627,-0.099657,0.973663,0.205029,0.3487719999999999,2.890381,-0.234616
628,-0.113592,0.956386,0.26909,0.982854,1.02898,0.72673
629,-0.108231,0.942627,0.315796,-0.7383270000000001,1.095093,0.2052449999999999
630,-0.100267,0.927728,0.359518,-1.509001,0.6336890000000001,0.510676
631,-0.099502,0.915605,0.389554,-0.6207739999999999,0.271864,0.018787
632,-0.091496,0.913562,0.396255,0.36295,-0.574222,0.072465
633,-0.07845,0.924976,0.371821,0.393773,-0.77193,-0.52479
634,-0.058572,0.936592,0.345473,0.104501,-1.353905,-0.542845
635,-0.044211,0.939724,0.339045,-0.032846,-1.801296,-0.461939
636,-0.052618,0.934686,0.35154,0.254858,-1.549951,-0.306633
637,-0.083546,0.931893,0.352961,0.406071,-0.992593,-0.191264
638,-0.119297,0.929827,0.348105,0.037723,-0.23955,-0.406256
639,-0.14155,0.918523,0.369141,-0.2808739999999999,0.023524,-0.28804
640,-0.153001,0.907244,0.3917719999999999,-0.2240889999999999,-1.057757,-0.591845
641,-0.165163,0.902025,0.398823,0.747133,-0.362077,-1.875736
642,-0.161026,0.892259,0.4218189999999999,0.915908,0.22441,0.328334
643,-0.152804,0.8911540000000001,0.427177,-0.442166,2.128453,0.7625810000000001
644,-0.169777,0.909045,0.380525,-0.998878,0.135663,-1.024217
645,-0.129818,0.936954,0.324425,-0.67609,-0.320865,0.2253949999999999
646,-0.07339,0.963557,0.257216,-0.0966539999999999,0.807577,0.353151
647,-0.016279,0.986143,0.1650609999999999,-0.5599689999999999,2.301257,0.8848659999999999
648,-0.002404,0.998134,0.0609179999999999,-0.41761,1.3767280000000002,0.749628
649,0.002252,0.999591,-0.02833,-0.201226,-0.089404,0.322077
650,0.025916,0.995151,-0.094831,-0.74755,-0.334171,-0.36516
651,0.045157,0.987494,-0.151017,-0.146064,-0.949256,0.129563
652,0.052512,0.981132,-0.186047,0.290933,-0.505088,0.34895
653,0.046617,0.978782,-0.199508,0.0733019999999999,-0.648994,0.222946
654,0.030156,0.97843,-0.204345,0.089763,-0.648642,0.2277829999999999
655,0.008624,0.980116,-0.198217,0.003599,-0.947661,-0.080698
656,-0.016113,0.98393,-0.177804,0.305832,-0.8243229999999999,0.104104
657,-0.041108,0.989392,-0.139297,0.453981,-0.7894869999999999,0.266937
658,-0.062202,0.994415,-0.085209,0.025551,-0.709671,-0.631542
659,-0.069966,0.997414,-0.0160979999999999,0.073262,0.54,-0.06427
660,-0.082112,0.994528,0.0645,-0.150615,1.459695,-0.302354
661,-0.089168,0.983245,0.158957,0.3679159999999999,2.17064,0.016459
662,-0.095733,0.966685,0.237368,0.929381,1.247365,0.767027
663,-0.097738,0.954517,0.281659,0.129384,1.226223,0.628192
664,-0.088668,0.942406,0.3224849999999999,-1.0445870000000002,0.683555,0.330286
665,-0.084478,0.931244,0.35445,-0.869899,0.45903,0.317806
666,-0.089017,0.923385,0.373393,-0.566775,0.23822,0.1923109999999999
667,-0.094272,0.922249,0.374908,0.469318,-0.97686,-0.210159
668,-0.094783,0.93012,0.354796,0.248073,-1.281347,-0.78459
669,-0.084897,0.93864,0.334268,0.131848,-1.609615,-0.496606
670,-0.082152,0.942794,0.323076,0.147048,-1.492034,-0.587114
671,-0.095882,0.944919,0.312923,0.300411,-1.263629,-0.258694
672,-0.114782,0.94957,0.29177,0.280142,-0.341171,-0.081458
673,-0.129268,0.946116,0.296885,-0.116627,0.2457929999999999,0.028219
674,-0.143433,0.931994,0.332868,-0.187439,-0.5549189999999999,-0.291135
675,-0.164008,0.921592,0.3517889999999999,0.556998,-0.673393,-1.417677
676,-0.185462,0.909808,0.371269,1.074607,-0.032885,0.337563
677,-0.188085,0.906514,0.377945,0.6470090000000001,1.951656,1.613784
678,-0.216465,0.914741,0.341145,-0.643215,2.277398,-0.5572239999999999
679,-0.196828,0.938145,0.284834,-0.753214,-0.339955,0.281465
680,-0.159573,0.962102,0.221098,-0.2756989999999999,0.177073,0.185839
681,-0.103516,0.984913,0.1386349999999999,-0.243576,0.943722,0.46926
682,-0.064537,0.997013,0.042314,-0.4823989999999999,1.80357,0.706771
683,-0.057612,0.997015,-0.0513169999999999,0.097468,-0.201421,0.498781
684,-0.032705,0.992325,-0.119217,-0.420084,-0.388657,-0.156952
685,-0.003007,0.985592,-0.169088,-0.229384,-0.8139609999999999,-0.033152
686,0.017596,0.978161,-0.207085,0.371304,-0.756588,0.396187
687,0.0260149999999999,0.973676,-0.226431,0.2574929999999999,-0.179105,0.4458069999999999
688,0.020373,0.972667,-0.2312949999999999,-0.1448539999999999,-0.687755,0.135866
689,0.002387,0.973424,-0.228982,-0.204795,-1.048238,-0.013373
690,-0.021095,0.976116,-0.2162079999999999,0.037712,-1.032573,0.086172
691,-0.041516,0.981145,-0.188742,0.11073,-0.909246,0.161901
692,-0.055494,0.987458,-0.147781,-0.036257,-0.84549,-0.287598
693,-0.062562,0.99373,-0.092615,-0.129577,-0.126146,-0.1078089999999999
694,-0.082851,0.996417,-0.016715,0.042187,1.971936,-0.083031
695,-0.107695,0.991459,0.073484,0.829375,1.975612,-0.513258
696,-0.119246,0.982111,0.145696,1.058333,0.676443,0.093226
697,-0.126579,0.97167,0.19956,0.109108,1.57841,0.510005
698,-0.122584,0.959419,0.253921,-1.024191,1.610344,0.346482
699,-0.11488,0.945819,0.303672,-1.102131,1.200132,0.3427199999999999
700,-0.115127,0.93385,0.3386099999999999,-0.1244509999999999,0.2250849999999999,0.037077
701,-0.1205619999999999,0.92771,0.353279,0.412783,-0.595374,-0.0912549999999999
702,-0.116973,0.929079,0.350878,0.460265,-0.962008,-0.228167
703,-0.098951,0.935223,0.339932,0.134077,-1.347805,-0.596417
704,-0.0813059999999999,0.940729,0.3292489999999999,0.031273,-1.52656,-0.426035
705,-0.086326,0.943409,0.320178,0.0472029999999999,-1.545994,-0.4088469999999999
706,-0.105361,0.946324,0.3055449999999999,0.3220969999999999,-1.191929,-0.020603
707,-0.118195,0.949499,0.290636,-0.261169,-0.081182,0.014127
708,-0.129151,0.942926,0.3069179999999999,-0.399032,0.188056,-0.0396899999999999
709,-0.145442,0.92811,0.342705,-0.080694,-0.952585,-0.344307
710,-0.167701,0.920476,0.35297,0.5877600000000001,-0.406118,-1.755954
711,-0.183546,0.906368,0.3805199999999999,1.040433,0.1381109999999999,-0.214214
712,-0.177372,0.904245,0.388415,0.411289,1.217947,0.605328
713,-0.189876,0.917097,0.350525,-1.335926,0.703005,-0.218079
714,-0.196787,0.940175,0.278089,-1.44486,0.50474,0.466815
715,-0.154719,0.96363,0.217871,-0.11147,1.175499,0.225458
716,-0.100136,0.985638,0.135938,-0.172233,1.473712,0.872607
717,-0.079315,0.996071,0.03927,-0.0005639999999999,1.435875,0.7974760000000001
718,-0.069123,0.996261,-0.0517539999999999,0.21753,0.4393319999999999,0.591336
719,-0.043397,0.991098,-0.1258369999999999,-0.618163,0.152366,0.1125309999999999
720,-0.010713,0.984738,-0.173694,-0.948455,-0.273816,0.007145
721,0.01274,0.977595,-0.21009,0.173615,-1.16151,0.283393
722,0.0270149999999999,0.972939,-0.229462,0.209954,-0.280968,0.323182
723,0.025418,0.971977,-0.233683,0.148807,-0.377785,0.376628
724,0.009733,0.972825,-0.2313219999999999,-0.291243,-1.056092,0.023421
725,-0.0124459999999999,0.975145,-0.221201,-0.09905,-1.051134,0.098566
726,-0.033446,0.97945,-0.198879,0.06262,-1.018787,0.1563369999999999
727,-0.052348,0.98507,-0.16398,0.272624,-0.76571,0.311166
728,-0.065586,0.991152,-0.1153579999999999,-0.157391,-0.659701,-0.5513899999999999
729,-0.071385,0.99591,-0.0553149999999999,-0.1277579999999999,-0.236586,-0.247984
730,-0.084752,0.996034,0.026904,-0.296641,2.139937,-0.35657
731,-0.095228,0.988912,0.1139039999999999,0.355589,1.790659,-0.12605
732,-0.106655,0.977485,0.182034,0.874859,1.533043,0.295352
733,-0.1156799999999999,0.966459,0.2292699999999999,0.014331,1.334201,0.33947
734,-0.108815,0.955483,0.274227,-0.81248,0.950477,0.193332
735,-0.100344,0.944513,0.312752,-1.044523,0.594214,0.334984
736,-0.099067,0.936277,0.336985,-0.361382,0.268115,0.123358
737,-0.1029099999999999,0.933399,0.34375,0.395283,-0.215809,0.0159449999999999
738,-0.104859,0.936667,0.334136,0.485612,-0.595176,-0.082366
739,-0.09952,0.944169,0.31405,0.268404,-1.432741,-0.497109
740,-0.088675,0.950357,0.298236,0.085104,-1.545862,-0.357547
741,-0.090999,0.953461,0.287433,0.165172,-1.322572,-0.240207
742,-0.108273,0.956576,0.270603,0.256299,-0.932391,0.003353
743,-0.119469,0.95873,0.257977,-0.181007,-0.078557,0.199527
744,-0.121833,0.952371,0.279524,-0.370019,-0.0481199999999999,-0.015806
745,-0.128452,0.939589,0.317268,0.254291,0.058244,-1.463295
746,-0.1499849999999999,0.917142,0.369245,0.392874,0.529238,0.450106
747,-0.165284,0.910958,0.377919,0.0922559999999999,0.076713,1.002528
748,-0.184563,0.905154,0.382909,-0.30619,-0.038043,-1.386449
749,-0.187027,0.920315,0.343552,-0.606933,0.97147,-0.176331
750,-0.140752,0.945044,0.295072,0.2528579999999999,1.110818,-0.030286
751,-0.087047,0.971671,0.2196969999999999,0.1477,1.63511,0.407439
752,-0.0655029999999999,0.990018,0.124748,-0.255313,1.246325,0.658974
753,-0.0623769999999999,0.997709,0.026008,-0.124299,1.019335,0.569497
754,-0.052907,0.996785,-0.060098,-0.006801,0.127635,0.417916
755,-0.027799,0.991632,-0.1260359999999999,-0.522066,-0.139245,0.155272
756,0.000877,0.984843,-0.173424,-0.638512,-0.534999,0.108498
757,0.021542,0.976843,-0.212854,-0.052121,-0.944265,0.375559
758,0.032463,0.971336,-0.235471,0.011284,-0.475593,0.435559
759,0.025555,0.968959,-0.245884,0.028339,-0.541148,0.294224
760,0.004629,0.967755,-0.251835,-0.121419,-0.984723,-0.008129
761,-0.020547,0.969151,-0.2455949999999999,0.076958,-0.948948,0.0622299999999999
762,-0.041609,0.973582,-0.2244969999999999,0.216521,-0.960536,0.1224619999999999
763,-0.057357,0.980327,-0.188841,0.035628,-0.7105670000000001,-0.53673
764,-0.067548,0.988182,-0.137565,0.026318,0.076027,0.016701
