,gravity.x,gravity.y,gravity.z,userAcceleration.x,userAcceleration.y,userAcceleration.z
0,-0.115682,0.987139,-0.110321,0.163869,4.543409,0.995865
1,-0.089307,0.982788,-0.161705,-1.0877709999999998,2.011521,0.340325
2,-0.046194,0.972704,-0.227398,-0.831263,1.449766,-0.226124
3,-0.021384,0.951369,-0.307305,-0.5647220000000001,0.979493,-0.54769
4,-0.003281,0.936592,-0.350401,0.53479,0.136451,0.365721
5,-0.0075599999999999,0.924146,-0.3819619999999999,0.434027,-0.099988,0.578342
6,-0.0342769999999999,0.913552,-0.405271,0.4688319999999999,-0.243554,0.628278
7,-0.067275,0.909265,-0.410742,-0.195146,-1.497049,1.175711
8,-0.074344,0.91376,-0.399392,0.183948,-2.133456,1.243981
9,-0.062625,0.927949,-0.367403,0.543384,-1.937715,1.247881
10,-0.053239,0.945989,-0.319794,-0.0129539999999999,-1.155095,0.488434
11,-0.040691,0.96074,-0.274444,-0.429158,-0.760636,-0.070329
12,-0.0199349999999999,0.971717,-0.2352989999999999,-0.504494,-0.563773,-0.397163
13,0.001782,0.976636,-0.214883,0.208148,-0.005826,-0.731665
14,0.018584,0.975839,-0.217691,0.255006,-0.169793,-0.493689
15,0.028073,0.968906,-0.245826,0.362323,-0.26218,0.073554
16,0.038332,0.961116,-0.273464,0.005613,-1.426357,2.504756
17,0.045516,0.967983,-0.2468469999999999,-3.978148000000001,1.614536,-6.339136
18,0.008588,0.956123,-0.292833,-3.941221,1.626396,-6.29315
19,0.004407,0.977118,-0.212644,1.437091,0.537912,2.255643
20,0.0072349999999999,0.980912,-0.194307,0.152265,0.522491,1.29146
21,-0.0540799999999999,0.99204,-0.113701,-0.693783,1.454814,1.867928
22,-0.107443,0.99238,-0.0602759999999999,-0.371378,2.642782,-0.099788
23,-0.151318,0.988375,0.014588,1.130078,2.012053,-0.409852
24,-0.165749,0.981272,0.098118,0.999306,1.826742,-0.471577
25,-0.177701,0.967357,0.1806579999999999,-1.2325620000000002,0.7547649999999999,-1.430994
26,-0.187199,0.95246,0.240357,-0.148128,0.098184,-0.792984
27,-0.20728,0.936577,0.282583,0.422643,-0.194542,-0.550878
28,-0.223944,0.925871,0.304315,0.987875,-1.1361059999999998,-1.083261
29,-0.230594,0.923394,0.3068639999999999,0.748966,-0.563134,-0.930934
30,-0.221838,0.925895,0.30578,0.521994,-0.6898880000000001,-0.462793
31,-0.2157739999999999,0.933206,0.28734,0.183426,-1.102944,-0.6281909999999999
32,-0.2146469999999999,0.942115,0.257569,0.078859,-0.673026,-0.80803
33,-0.211596,0.952397,0.219462,0.138735,-0.6459239999999999,-0.633646
34,-0.205616,0.963115,0.173574,0.08376,-0.7229720000000001,-0.4927569999999999
35,-0.199964,0.972564,0.11887,-0.166323,-0.574187,-0.364521
36,-0.189959,0.980002,0.05923,-0.193067,-0.244986,-0.015361
37,-0.17249,0.984939,-0.011745,0.680349,2.0987240000000003,0.6808890000000001
38,-0.1587319999999999,0.983149,-0.090664,-0.7616930000000001,4.578863,0.300091
39,-0.119415,0.979948,-0.159496,-1.084595,3.282717,0.073818
40,-0.0645169999999999,0.974068,-0.216857,-0.6867800000000001,1.520546,-0.014894
41,-0.0230569999999999,0.962909,-0.268836,0.020555,1.042584,0.019278
42,-0.001506,0.949209,-0.314641,0.3402969999999999,0.785609,0.468785
43,-0.0068579999999999,0.933347,-0.358908,0.642783,-0.126325,0.72283
44,-0.014536,0.922094,-0.386692,-0.0746059999999999,-0.6938380000000001,0.562442
45,-0.018712,0.918356,-0.395312,-0.444454,-1.13088,0.707537
46,-0.026741,0.91959,-0.391968,-0.00161,-2.347339,1.43573
47,-0.026858,0.92852,-0.370309,0.438784,-2.073616,1.400033
48,-0.028762,0.946696,-0.32084,0.494278,-1.621394,1.198098
49,-0.026487,0.961726,-0.272726,-0.186358,-0.748942,0.014563
50,-0.0069099999999999,0.972046,-0.234685,-0.375293,-0.27034,-0.971248
51,0.0149349999999999,0.976234,-0.216203,0.295231,-0.069938,-1.201705
52,0.038798,0.975025,-0.218675,0.127126,-0.1279799999999999,-0.700789
53,0.053049,0.969157,-0.240664,0.073416,-0.364375,-0.513196
54,0.047917,0.959044,-0.279171,0.363735,-0.992003,1.917568
55,0.053348,0.960401,-0.273464,-1.107944,-1.605726,1.667934
56,0.028191,0.950061,-0.310787,-0.980095,3.749891,0.719097
57,0.009784,0.966154,-0.257778,1.964764,2.150698,5.209301
58,0.026691,0.968677,-0.246882,0.293957,-0.2284429999999999,-0.221288
59,-0.008822,0.988009,-0.154134,-1.001035,0.584012,1.74793
60,-0.063708,0.995259,-0.073472,-1.213834,2.314052,0.869416
61,-0.1278619999999999,0.991713,-0.012408,0.909784,2.527803,-0.365003
62,-0.174521,0.982809,0.060209,0.843039,1.6733490000000002,-0.4590439999999999
63,-0.183888,0.971472,0.149746,-0.477733,0.810739,-1.3356290000000002
64,-0.1900369999999999,0.957255,0.2180489999999999,-1.005215,0.319646,-1.238495
65,-0.202297,0.943439,0.2626699999999999,0.5348930000000001,-0.297992,-0.579991
66,-0.220998,0.933791,0.281408,0.816823,-0.80252,-0.866064
67,-0.230331,0.931018,0.2831059999999999,1.013091,-1.084018,-1.198939
68,-0.229927,0.932355,0.279005,0.3004989999999999,-0.729703,-0.349439
69,-0.22603,0.936451,0.268266,0.315325,-0.958896,-0.313035
70,-0.2226139999999999,0.942355,0.249815,0.450717,-1.086581,-0.523588
71,-0.214476,0.950648,0.224198,0.24629,-0.6429090000000001,-0.655594
72,-0.201058,0.960362,0.193075,0.1738819999999999,-0.705097,-0.460668
73,-0.189598,0.970346,0.149927,-0.020638,-0.730585,-0.375391
74,-0.180163,0.979043,0.094932,-0.195691,-0.051645,0.044183
75,-0.165674,0.985731,0.029716,-0.003348,0.4861319999999999,0.211388
76,-0.1502,0.987527,-0.0472,0.368538,4.061728,0.632405
77,-0.143469,0.982642,-0.1176,-1.017084,2.455102,0.175736
78,-0.111672,0.977891,-0.176795,-1.138541,2.027663,0.1892
79,-0.071851,0.972428,-0.221855,-0.739032,1.50885,0.238197
80,-0.0398279999999999,0.958607,-0.281929,0.108477,0.834957,0.0676809999999999
81,-0.021685,0.944246,-0.328525,0.548037,0.454146,0.37894
82,-0.024181,0.930477,-0.365548,0.688091,-0.622052,0.32409
83,-0.035194,0.922641,-0.384048,0.167106,-0.956104,0.705734
84,-0.050154,0.920449,-0.387629,0.027144,-1.147805,0.977671
85,-0.053065,0.923771,-0.37925,0.002025,-2.210087,1.436577
86,-0.045669,0.938863,-0.3412469999999999,0.482772,-1.594731,1.441039
87,-0.036621,0.957264,-0.286886,0.323151,-1.240329,0.943075
88,-0.0167669999999999,0.969911,-0.242878,-0.4846819999999999,-0.4897319999999999,-0.671245
89,0.013306,0.977183,-0.211976,-0.193497,0.046331,-1.398711
90,0.039777,0.977497,-0.207159,0.072771,0.115704,-1.303232
91,0.062873,0.971741,-0.2275179999999999,-0.10607,-0.314347,-0.04656
92,0.076688,0.959723,-0.270275,-0.11125,-1.118186,1.580303
93,0.081876,0.959295,-0.270273,-0.449826,-1.728536,2.187449
94,0.075027,0.957734,-0.2776969999999999,-3.086059,0.927703,-4.5574010000000005
95,0.065494,0.963819,-0.258383,2.738079,2.477191,4.559622
96,0.109141,0.966935,-0.230486,2.203023,1.7131189999999998,2.375063
97,0.091949,0.977913,-0.187697,-0.774841,-0.551628,1.410216
98,0.028862,0.996281,-0.081177,-1.180046,1.45097,1.166077
99,-0.049523,0.998116,-0.036189,-0.8872450000000001,2.600059,0.772334
100,-0.117165,0.992742,0.027105,1.795006,2.180232,-0.160742
101,-0.134931,0.983863,0.117499,0.474637,0.917474,-0.721594
102,-0.144795,0.969556,0.19747,-1.12083,0.486637,-1.256384
103,-0.150601,0.955433,0.253901,-0.310642,-0.158161,-0.7162430000000001
104,-0.164291,0.94214,0.292196,0.17015,-0.5321819999999999,-0.664419
105,-0.174841,0.934948,0.308707,0.733038,-1.144772,-1.044302
106,-0.178752,0.933321,0.311379,0.56129,-0.630586,-0.5611510000000001
107,-0.17839,0.934097,0.3092519999999999,0.406829,-0.772034,-0.464281
108,-0.181608,0.938635,0.293223,0.259291,-1.027258,-0.5265449999999999
109,-0.1812099999999999,0.944924,0.272539,0.173703,-0.664696,-0.763598
110,-0.172323,0.954429,0.243654,0.297216,-0.7229979999999999,-0.327486
111,-0.159288,0.964377,0.211188,0.301546,-0.76171,-0.236121
112,-0.149028,0.975336,0.162807,-0.234395,-0.566096,-0.682491
113,-0.139023,0.984599,0.105989,-0.192794,0.2540179999999999,0.040724
114,-0.123885,0.991591,0.037385,0.137389,0.804445,0.421493
115,-0.107346,0.993112,-0.046936,-0.13208,4.316276,0.6439819999999999
116,-0.1036079999999999,0.985964,-0.130914,-1.509918,2.245771,-0.10842
117,-0.079581,0.977052,-0.197572,-1.369439,1.749511,0.4076849999999999
118,-0.039734,0.964313,-0.261764,-0.734771,1.520001,0.083236
119,-0.012937,0.946078,-0.323678,0.403119,0.67703,0.183587
120,-0.0029219999999999,0.928735,-0.37073,0.776817,0.279074,0.428805
121,-0.00502,0.915152,-0.403075,0.951706,-0.188376,0.544615
122,-0.017371,0.910041,-0.414151,-0.200128,-1.1866219999999998,1.069424
123,-0.036622,0.908643,-0.415962,-0.359252,-1.468641,1.324501
124,-0.046986,0.913816,-0.4033989999999999,0.437275,-2.112714,1.433657
125,-0.041629,0.931067,-0.362463,0.4355189999999999,-1.464285,1.036459
126,-0.032331,0.950424,-0.309266,0.180616,-1.130524,0.653962
127,-0.01073,0.964846,-0.262592,-0.647321,-0.427889,-0.608395
128,0.020372,0.974516,-0.223385,-0.194002,-0.049116,-1.242435
129,0.04728,0.977902,-0.203642,-0.027368,-0.085751,-1.121981
130,0.0702,0.974053,-0.215152,-0.016794,-0.328271,-0.0668
131,0.080301,0.961619,-0.26237,-0.202127,-0.721416,1.121913
132,0.079863,0.951396,-0.29743,-1.284178,-0.927791,1.4591889999999998
133,0.037163,0.949519,-0.3114969999999999,1.197151,1.230733,2.564549
134,0.0596559999999999,0.963782,-0.259928,1.865698,0.199365,2.530436
135,0.079987,0.974239,-0.210851,0.8769530000000001,0.08968,0.439534
136,0.027777,0.994169,-0.104182,-0.678182,1.249316,1.619853
137,-0.062637,0.997525,-0.031892,-0.058762,3.007633,0.544297
138,-0.1220329999999999,0.992459,0.011372,0.6149979999999999,3.006397,-0.3467139999999999
139,-0.146416,0.984715,0.094304,0.418587,1.065395,-0.565587
140,-0.150217,0.970298,0.189605,-0.743689,0.577645,-1.147155
141,-0.15567,0.955713,0.2497469999999999,-1.058518,0.46903,-1.249396
142,-0.163621,0.941427,0.294851,-0.0421589999999999,-0.239126,-0.623708
143,-0.176713,0.931315,0.318461,0.5506909999999999,-0.934627,-0.763896
144,-0.182941,0.927368,0.326365,0.705631,-1.106034,-0.978724
145,-0.186817,0.926286,0.327242,0.221592,-0.804063,-0.718813
146,-0.191889,0.928117,0.3190139999999999,0.220439,-1.045076,-0.482558
147,-0.2004119999999999,0.932562,0.300262,0.189548,-0.8795370000000001,-0.64093
148,-0.198792,0.940262,0.276375,0.288956,-0.658768,-0.736474
149,-0.1869289999999999,0.95115,0.245692,0.192605,-0.703638,-0.617274
150,-0.17544,0.963756,0.200971,0.0016579999999999,-0.637386,-0.545423
151,-0.160558,0.976706,0.142344,-0.1271769999999999,0.137796,0.197485
152,-0.137417,0.988315,0.065921,0.6484800000000001,1.889844,0.303678
153,-0.122594,0.992192,-0.022828,0.633657,1.885967,0.392426
154,-0.12815,0.987109,-0.095859,-1.254174,2.766828,0.177402
155,-0.1059089999999999,0.97977,-0.169794,-1.560259,1.967618,0.535105
156,-0.072495,0.969099,-0.235769,-1.363968,1.7614,0.360281
157,-0.044731,0.954525,-0.294749,0.157326,1.119007,0.279475
158,-0.036683,0.938223,-0.344077,0.979386,-0.045049,0.5312720000000001
159,-0.032719,0.925466,-0.377411,0.84055,-0.32285,0.500534
160,-0.03925,0.918455,-0.39357,0.13155,-0.930997,0.739532
161,-0.053012,0.916738,-0.3959519999999999,-0.277569,-2.215856,1.378877
162,-0.054298,0.923613,-0.379456,0.007011,-2.413924,1.388154
163,-0.042317,0.942315,-0.332034,0.562001,-1.80166,1.4056879999999998
164,-0.029468,0.960387,-0.277099,-0.231839,-0.615783,-0.006532
165,-0.008826,0.971269,-0.237809,-0.522928,-0.352373,-0.4906609999999999
166,0.0158069999999999,0.974302,-0.224679,0.136155,0.261156,-1.482093
167,0.038301,0.96965,-0.241471,0.166502,-0.043563,-0.8706200000000001
168,0.053858,0.960011,-0.274726,0.157659,-0.272481,-0.66871
169,0.065463,0.949219,-0.307724,-0.402332,-1.728806,3.282593
170,0.07255,0.956609,-0.28219,-3.829813,-1.4834040000000002,-2.429953
171,0.0389399999999999,0.941132,-0.335786,-3.698226,1.6193540000000002,-5.5465230000000005
172,0.060246,0.969312,-0.238331,2.246685,0.826678,2.4782610000000003
173,0.096899,0.970614,-0.220261,0.271295,0.318448,-0.981384
174,0.044056,0.989538,-0.137369,-0.1363869999999999,0.373423,0.436518
175,-0.034554,0.998003,-0.052832,-0.4370189999999999,2.334303,0.981863
176,-0.079885,0.996794,-0.003947,0.694494,2.3417220000000003,-0.619099
177,-0.1093339999999999,0.991557,0.069688,0.762975,1.6620080000000002,-0.550111
178,-0.122012,0.98051,0.15397,-0.762128,0.683537,-1.435418
179,-0.133915,0.965167,0.224752,-0.958554,0.354307,-1.148351
180,-0.148291,0.949697,0.275821,-0.4155359999999999,0.263804,-1.046283
181,-0.169775,0.935341,0.3103309999999999,0.737799,-1.156777,-0.749463
182,-0.175101,0.930845,0.320717,1.101752,-1.0434709999999998,-1.218651
183,-0.175793,0.931655,0.317975,0.975964,-0.5792229999999999,-1.065549
184,-0.179021,0.935404,0.304898,-0.082057,-0.997569,-0.4683199999999999
185,-0.186476,0.942812,0.2762699999999999,0.083861,-0.913622,-0.529917
186,-0.186923,0.952594,0.240036,0.158801,-0.7232850000000001,-0.732406
187,-0.1789079999999999,0.963342,0.199891,0.276304,-0.721933,-0.4896399999999999
188,-0.16898,0.973824,0.152008,-0.193707,-0.6917800000000001,-0.452362
189,-0.161466,0.98236,0.094286,-0.320407,-0.56929,-0.5169090000000001
190,-0.152437,0.987739,0.033574,0.17386,0.777352,0.339046
191,-0.140047,0.989444,-0.037167,0.79059,1.443891,1.016339
192,-0.13019,0.982169,-0.135603,1.254137,2.687692,1.359969
193,-0.1220779999999999,0.971826,-0.2016069999999999,-0.8133319999999999,2.262702,-0.35067
194,-0.082658,0.963024,-0.256411,-0.985595,1.82259,0.010393
195,-0.055563,0.940239,-0.335944,-0.394785,1.031853,-0.264016
196,-0.0534039999999999,0.917576,-0.393953,0.95355,0.031002,0.58455
197,-0.063305,0.901117,-0.428926,1.046856,-0.04046,0.6527569999999999
198,-0.078198,0.889968,-0.4492649999999999,0.379971,-0.294249,1.063965
199,-0.1020809999999999,0.8853850000000001,-0.453507,-0.347229,-1.922006,1.553559
200,-0.111417,0.890408,-0.4413109999999999,0.447858,-2.26843,1.597226
201,-0.096097,0.910491,-0.402204,0.673002,-1.888457,1.299909
202,-0.077195,0.933862,-0.349197,0.166794,-1.094888,0.381378
203,-0.044088,0.951867,-0.303317,-0.43368,-0.178643,-0.992551
204,-0.010277,0.962541,-0.270932,-0.131981,-0.080675,-1.289691
205,0.013538,0.964279,-0.264536,0.27052,-0.118163,-0.921698
206,0.02988,0.956935,-0.288752,0.463528,-0.592784,0.303217
207,0.041338,0.944564,-0.32571,0.256743,-0.999983,1.121166
208,0.045007,0.944687,-0.324864,-3.911691,-0.011399,-3.399699
209,0.000807,0.936433,-0.3508409999999999,1.477327,2.194259,3.306254
210,0.000655,0.955894,-0.293705,2.333757,0.529504,3.428989
211,0.022615,0.968676,-0.247288,-0.1428549999999999,-0.036455,0.084691
212,-0.016722,0.989182,-0.145721,-0.684343,2.160949,1.7047869999999998
213,-0.092147,0.992487,-0.080458,-0.541246,2.770742,1.108733
214,-0.141315,0.989819,-0.016841,1.033008,1.902943,-0.184819
215,-0.157892,0.985304,0.065117,0.2195219999999999,1.11249,-0.361336
216,-0.160515,0.974046,0.159571,-0.450218,0.8996569999999999,-1.06666
217,-0.1615359999999999,0.959225,0.231917,-0.62388,0.301593,-1.1702709999999998
218,-0.169463,0.943772,0.283846,-0.003739,-0.075746,-0.565295
219,-0.18567,0.929536,0.318561,0.183198,-0.521867,-0.511921
220,-0.1874839999999999,0.927611,0.32308,0.6828310000000001,-1.041319,-1.442403
221,-0.191777,0.928044,0.319293,0.516026,-0.521962,-0.450396
222,-0.196232,0.930321,0.30982,0.390125,-0.8429030000000001,-0.271734
223,-0.20076,0.936353,0.287977,0.316224,-1.07031,-0.663953
224,-0.1972549999999999,0.944931,0.26113,0.31992,-0.6062770000000001,-0.7643800000000001
225,-0.184606,0.955197,0.231326,0.295446,-0.5902069999999999,-0.621371
226,-0.174227,0.966018,0.190915,-0.160673,-0.714675,-0.487683
227,-0.16899,0.975912,0.137958,-0.311158,-0.424856,-0.241794
228,-0.15883,0.984501,0.07433,-0.22528,0.0656549999999999,0.254558
229,-0.139718,0.990181,-0.003817,0.511605,3.68148,0.547061
230,-0.135732,0.986603,-0.090482,-0.380823,4.00853,0.332364
231,-0.122602,0.979909,-0.1573,-1.117938,2.599422,0.098981
232,-0.084978,0.970676,-0.224861,-1.209516,1.94569,0.18708
233,-0.047385,0.954532,-0.2943119999999999,0.008124,1.359067,0.005402
234,-0.022154,0.935617,-0.3523179999999999,0.8851760000000001,0.549033,0.607704
235,-0.002206,0.919341,-0.393452,0.546517,-0.378646,0.284261
236,0.006162,0.910053,-0.414442,-0.168714,-0.91985,0.750028
237,-0.009162,0.905789,-0.423627,-0.230477,-1.220685,1.009701
238,-0.03033,0.905974,-0.422242,-0.2455639999999999,-1.986403,1.407411
239,-0.038073,0.91512,-0.401375,0.107424,-2.407262,1.341225
240,-0.039086,0.934195,-0.354611,0.335656,-1.446554,1.192151
241,-0.0309339999999999,0.949897,-0.311023,-0.37524,-0.643104,0.1230339999999999
242,-0.003257,0.959891,-0.2803469999999999,-0.351311,0.1134119999999999,-1.419299
243,0.026001,0.961267,-0.274383,0.14978,0.137823,-1.682191
244,0.049037,0.953461,-0.297498,0.559408,-0.456726,-0.105426
245,0.068464,0.940612,-0.332504,0.193727,-1.6759939999999998,2.677444
246,0.083285,0.946926,-0.310469,-0.636493,-2.263668,2.961729
247,0.075579,0.939338,-0.3345579999999999,-3.836352,0.442651,-6.384482
248,0.053526,0.953658,-0.296086,2.429384,2.851487,4.447301
249,0.080446,0.958849,-0.272275,0.715727,0.49951,0.27554
250,0.054465,0.978548,-0.198677,-0.756735,-0.283587,0.924598
251,-0.0110829999999999,0.995883,-0.089938,-1.216136,2.315579,1.133593
252,-0.075416,0.996631,-0.032152,-0.220162,2.893307,0.430727
253,-0.128653,0.99114,0.032924,1.482703,2.333552,-0.472042
254,-0.1468539999999999,0.982232,0.116825,-0.273953,0.547721,-0.98151
255,-0.150251,0.967783,0.202025,-0.789309,0.3103849999999999,-1.2232040000000002
256,-0.15562,0.951746,0.26449,-0.310506,0.1862849999999999,-1.262811
257,-0.175336,0.93695,0.302284,0.439252,-0.754745,-0.582801
258,-0.186137,0.929076,0.319632,0.422847,-1.30081,-1.247763
259,-0.19275,0.928424,0.3175989999999999,0.661714,-0.565235,-1.341174
260,-0.1968,0.930014,0.310384,0.499443,-1.031103,-0.44164
261,-0.196289,0.938227,0.284948,0.428818,-1.193491,-0.576757
262,-0.189122,0.948124,0.255515,0.357442,-0.737446,-0.7224189999999999
263,-0.170795,0.959447,0.224244,0.248401,-0.641804,-0.407884
264,-0.150622,0.970499,0.188255,0.148867,-0.671182,-0.324074
265,-0.133013,0.981279,0.139259,-0.2273389999999999,-0.40555,-0.432746
266,-0.1144319999999999,0.99014,0.080759,-0.128076,0.51137,0.286627
267,-0.09285,0.995612,0.01141,0.288636,0.935464,0.864765
268,-0.083851,0.993039,-0.082696,-0.917889,5.079364,0.118615
269,-0.0650169999999999,0.985395,-0.157372,-1.331238,2.337359,0.180825
270,-0.0171009999999999,0.975046,-0.221336,-1.230824,2.2638,0.593224
271,0.017883,0.952425,-0.304243,-0.248978,1.061323,0.094877
272,0.036673,0.928178,-0.370321,0.528101,0.110121,0.394521
273,0.038214,0.9105,-0.4117369999999999,0.760523,-0.329048,0.598474
274,0.019726,0.89949,-0.436493,0.3951449999999999,-0.406112,0.798111
275,0.001975,0.896832,-0.442363,-0.404197,-1.235898,1.105938
276,-0.018282,0.8981450000000001,-0.439316,-0.584333,-1.63838,1.273575
277,-0.025584,0.908192,-0.417767,0.435221,-2.190129,1.496503
278,-0.01961,0.932008,-0.361903,0.5153220000000001,-1.341539,0.974025
279,-0.001694,0.950847,-0.309652,0.15004,-0.947338,0.392583
280,0.027816,0.961273,-0.274186,-0.333205,0.1799319999999999,-1.53929
281,0.0549059999999999,0.960186,-0.273907,0.369884,0.298267,-1.345203
282,0.080509,0.950359,-0.300557,0.186017,0.162099,-0.821117
283,0.084121,0.932233,-0.351943,0.32454,-0.73779,1.018096
284,0.096945,0.925666,-0.365708,-0.285619,-2.066886,2.955125
285,0.097866,0.910668,-0.401378,-1.871868,-1.397729,0.403956
286,0.044419,0.909595,-0.413113,2.572768,1.4492459999999998,4.032178
287,0.072983,0.918821,-0.387866,0.368149,-0.579801,1.184604
288,0.088918,0.943164,-0.320209,-0.370565,-0.194324,1.0830110000000002
289,0.050738,0.975613,-0.21355,-1.123996,3.015018,1.149647
290,-0.022227,0.987598,-0.155413,-0.0766039999999999,3.093578,0.621081
291,-0.081898,0.991183,-0.104143,1.314594,1.963391,-0.236707
292,-0.106359,0.993737,-0.034244,0.416966,1.182762,-0.219006
293,-0.108254,0.992752,0.052157,-0.983817,0.255615,-1.089694
294,-0.1058009999999999,0.987533,0.1165369999999999,-0.988438,-0.04248,-1.300436
295,-0.1086579999999999,0.979397,0.170209,-0.275375,-0.310146,-0.7548189999999999
296,-0.116104,0.970262,0.212383,0.547836,-0.918062,-0.570919
297,-0.1174619999999999,0.966081,0.2299699999999999,0.687241,-1.239778,-1.006368
298,-0.119365,0.965468,0.2315579999999999,0.49377,-0.809813,-1.232031
299,-0.127055,0.965477,0.2273909999999999,-0.168844,-1.024284,-0.3219349999999999
300,-0.14317,0.968351,0.2044369999999999,-0.098865,-1.126737,-0.388748
301,-0.158875,0.971863,0.1738859999999999,0.067825,-0.8129430000000001,-0.574887
302,-0.160752,0.976989,0.140168,0.521057,-0.692443,-0.386277
303,-0.152885,0.983319,0.098518,0.428718,-0.7897,-0.348594
304,-0.150332,0.987419,0.04899,-0.037031,-0.787407,-0.342599
305,-0.148277,0.98891,-0.00825,0.1222,0.511838,0.290065
306,-0.1474339999999999,0.986283,-0.074198,0.583133,1.172958,0.96992
307,-0.146057,0.978761,-0.143841,-0.461029,4.4198900000000005,0.43362
308,-0.129076,0.970557,-0.2033589999999999,-1.103208,2.296685,0.009984
309,-0.095396,0.961567,-0.257458,-1.476641,1.659175,0.741985
310,-0.0612809999999999,0.943552,-0.325502,-0.475768,0.722906,0.13582
311,-0.036097,0.923781,-0.381213,0.356165,0.048997,0.294253
312,-0.014825,0.913947,-0.405561,0.6294029999999999,-0.071417,0.52107
313,-0.013756,0.905902,-0.4232609999999999,0.722252,-0.229663,0.726011
314,-0.020938,0.902853,-0.429437,0.144595,-0.767217,0.853052
315,-0.022727,0.904911,-0.424992,-0.110773,-1.095966,0.915196
316,-0.019527,0.911526,-0.410776,-0.335805,-2.135418,1.0551700000000002
317,-0.021122,0.929964,-0.36704,0.213017,-1.6507889999999998,1.125921
318,-0.0239039999999999,0.948405,-0.316155,0.336755,-1.265483,0.811974
319,-0.01351,0.959594,-0.281058,0.13851,-0.490249,-0.288186
320,0.0178389999999999,0.960069,-0.2791889999999999,-0.201189,0.129607,-1.731111
321,0.052212,0.949089,-0.310646,-0.048199,0.439888,-1.691429
322,0.078107,0.943002,-0.3234869999999999,-0.1847349999999999,-0.192743,-0.651473
323,0.085648,0.924275,-0.371992,-0.335892,1.087703,0.440214
324,0.071972,0.907676,-0.41345,-1.148586,1.94175,2.642485
325,0.0252289999999999,0.887651,-0.459822,-0.4625,0.050352,1.204421
326,0.004957,0.884666,-0.466197,0.1211569999999999,-1.395652,1.678675
327,0.005665,0.905909,-0.423432,0.360928,-1.291025,2.200807
328,-0.003281,0.93252,-0.361099,-0.44928,3.00881,0.326752
329,-0.031836,0.948408,-0.315445,0.983603,1.702303,0.380737
330,-0.047073,0.965221,-0.257157,0.544678,0.423314,0.521195
331,-0.063172,0.976225,-0.20734,-0.4177689999999999,1.065889,-0.115521
332,-0.080151,0.986026,-0.146031,-0.663608,1.270307,-0.5207470000000001
333,-0.090959,0.99319,-0.072767,-0.8109270000000001,0.747761,-0.8780389999999999
334,-0.104668,0.994372,-0.016233,0.197305,0.499555,-0.687975
335,-0.122745,0.992096,0.02595,0.4403109999999999,0.290817,-0.501567
336,-0.139953,0.988716,0.053375,0.657561,-0.3483199999999999,-0.471954
337,-0.151219,0.986215,0.067144,0.307606,-0.8864219999999999,-0.547552
338,-0.156453,0.984825,0.075082,0.1935319999999999,-0.8783340000000001,-0.47062
339,-0.158546,0.98431,0.077411,0.2306889999999999,-0.907375,-0.408175
340,-0.160696,0.984558,0.069405,0.2508,-0.977035,-0.1608359999999999
341,-0.1647839999999999,0.985205,0.047035,0.051213,-0.855856,-0.38961
342,-0.171772,0.985077,0.010575,-0.0062369999999999,-0.811661,-0.293091
343,-0.181316,0.982872,-0.0329029999999999,-0.1391339999999999,-0.774269,0.001698
344,-0.198571,0.976474,-0.084038,-0.389243,-0.595615,0.109367
345,-0.2139579999999999,0.966108,-0.144405,-0.313508,-0.369001,0.185893
346,-0.224657,0.951583,-0.2097949999999999,0.075457,0.234391,0.0075099999999999
347,-0.237394,0.930745,-0.278125,0.949675,2.039149,0.332752
348,-0.234336,0.909157,-0.344262,1.246512,2.714118,0.384133
349,-0.20405,0.8926430000000001,-0.401932,0.103022,2.426678,0.748428
350,-0.156103,0.878458,-0.451596,-1.136682,1.20928,0.450299
351,-0.123042,0.8691139999999999,-0.47906,-0.918843,0.907833,0.508204
352,-0.098182,0.8610030000000001,-0.49903,-0.1138079999999999,0.6772199999999999,0.355002
353,-0.069106,0.855137,-0.5137729999999999,-0.072037,0.610745,0.530573
354,-0.042045,0.8479639999999999,-0.528381,-0.113671,0.3629429999999999,0.54953
355,-0.034087,0.839779,-0.541855,-0.134934,-0.586284,0.447526
356,-0.042717,0.8384459999999999,-0.543305,-0.0533059999999999,-0.800772,0.541108
357,-0.03845,0.843699,-0.5354359999999999,-0.160342,-1.048349,0.606755
358,-0.025535,0.8528819999999999,-0.521476,-0.2286619999999999,-1.0064,0.63369
359,-0.019859,0.863259,-0.504367,-0.118782,-0.964242,0.614185
360,-0.021639,0.873452,-0.486426,-0.098677,-0.879922,0.563757
361,-0.01933,0.8845219999999999,-0.466095,-0.122333,-0.702805,0.279175
362,-0.005287,0.8963120000000001,-0.4433899999999999,-0.215325,-0.4827979999999999,0.186661
363,0.018515,0.908407,-0.4176729999999999,-0.278983,-0.3592579999999999,0.174204
364,0.039336,0.917594,-0.3955639999999999,-0.340072,-0.284003,0.064127
365,0.044687,0.924343,-0.378932,-0.239313,-0.222606,0.388667
366,0.025509,0.934848,-0.354124,-0.123272,0.1032829999999999,0.65164
367,0.012606,0.941716,-0.3361659999999999,0.640912,1.505367,0.571091
368,0.035571,0.933646,-0.356419,-0.052538,1.362954,0.2156269999999999
369,0.035249,0.920906,-0.388181,-0.885317,1.200493,-0.024188
370,0.016307,0.9141,-0.405155,-0.342311,-0.081367,0.93024
371,0.01198,0.914352,-0.404738,0.022871,-0.377212,1.20053
372,0.006761,0.920889,-0.38976,-0.053483,0.092889,1.0767870000000002
373,-0.000291,0.932324,-0.361618,0.622376,1.150714,0.2957
374,0.010179,0.946275,-0.3231969999999999,0.37892,0.571395,0.428925
375,0.029662,0.956917,-0.288835,-0.031875,0.398781,0.342165
376,0.040722,0.963986,-0.262809,-0.664684,0.295719,0.063926
377,0.034133,0.968339,-0.2472869999999999,-0.513305,0.067382,0.032306
378,0.02423,0.970985,-0.2379,-0.326613,0.022423,0.010697
379,0.022354,0.973294,-0.228463,-0.046814,-0.1109579999999999,0.134911
380,0.0320639999999999,0.97502,-0.219783,-0.025533,-0.281172,0.1746319999999999
381,0.047754,0.975313,-0.215594,-0.061944,-0.310899,0.1292599999999999
382,0.066099,0.973725,-0.217912,-0.056593,-0.376741,0.105393
383,0.087128,0.969707,-0.228196,-0.185837,-0.430202,0.150834
384,0.110726,0.96342,-0.2440449999999999,-0.293832,-0.499293,0.258297
385,0.140179,0.955376,-0.260003,-0.461483,-0.596276,0.38543
386,0.171324,0.946756,-0.272576,-0.630812,-0.6466149999999999,0.4387899999999999
387,0.1911119999999999,0.936424,-0.294249,-0.794201,-0.523826,0.535841
388,0.197884,0.924497,-0.325796,-0.570122,-0.2572,0.451056
389,0.1967269999999999,0.914183,-0.35435,-0.081432,0.672182,0.300715
390,0.207416,0.908415,-0.362983,0.064831,0.947801,0.243125
391,0.215951,0.901356,-0.375392,0.0590889999999999,0.45396,0.30833
392,0.2107699999999999,0.8950020000000001,-0.393121,-0.078735,0.305789,-0.124884
393,0.198865,0.897465,-0.393709,-0.150388,0.377712,-0.276915
394,0.188113,0.907826,-0.374782,-0.214984,0.7963520000000001,-0.340779
395,0.1815,0.921495,-0.343368,-0.24458,0.604735,-0.271806
396,0.183088,0.935072,-0.303505,-0.306623,0.389391,-0.198891
397,0.191416,0.948138,-0.253752,-0.33578,-0.0614799999999999,0.112501
398,0.197617,0.960705,-0.194907,-0.287934,-0.154843,0.13053
399,0.199657,0.971237,-0.129738,-0.144771,-0.144561,0.153847
400,0.201768,0.977409,-0.062899,0.2604059999999999,-0.2335429999999999,-0.097044
401,0.201309,0.979514,-0.004557,0.304001,-0.4581979999999999,-0.139013
402,0.201046,0.978769,0.039844,0.214863,-0.746805,-0.140445
403,0.2005819999999999,0.976978,0.072636,0.070918,-0.88335,-0.160512
404,0.197055,0.975747,0.095297,-0.042697,-0.978265,-0.2392639999999999
405,0.189441,0.975426,0.112475,-0.230746,-1.00869,-0.352344
406,0.179123,0.976032,0.123581,-0.380233,-1.0526,-0.468339
407,0.169376,0.976871,0.130498,-0.285785,-0.848468,-0.401357
408,0.162443,0.976991,0.138186,-0.008391,-0.4220899999999999,-0.227405
409,0.155295,0.977826,0.140475,-0.043204,0.1043119999999999,-0.180728
410,0.146341,0.980225,0.133183,-0.4556979999999999,1.453735,-0.255299
411,0.136822,0.982837,0.123717,-0.494931,1.826108,-0.2323599999999999
412,0.139132,0.982414,0.124497,0.23065,0.321587,0.209015
413,0.145723,0.980308,0.13325,-0.103487,0.2808,0.137898
414,0.144957,0.9788,0.144682,-0.234282,0.419546,0.113954
415,0.133854,0.97698,0.166099,-0.09708,0.819468,0.075127
416,0.118709,0.975265,0.186443,-0.0312149999999999,0.8104859999999999,0.0888559999999999
417,0.1016919999999999,0.971888,0.212339,-0.027519,0.654287,0.000978
418,0.08482,0.965499,0.2461969999999999,0.137409,0.75084,0.021411
419,0.064105,0.954869,0.29002,0.4634069999999999,0.8091229999999999,-0.0260279999999999
420,0.042804,0.937313,0.3458449999999999,0.682766,0.929767,-0.2525679999999999
421,0.027537,0.911122,0.4112119999999999,0.039327,0.870281,-1.133487
422,0.006913,0.8814770000000001,0.4721729999999999,-0.204301,0.725823,-1.429463
423,-0.0128569999999999,0.8536809999999999,0.520634,-0.319738,0.566409,-1.6251719999999998
424,-0.0273449999999999,0.8313459999999999,0.55508,-0.015013,0.086394,-0.95927
425,-0.04636,0.81485,0.577813,0.120274,-0.46666,-1.299462
426,-0.065093,0.807006,0.586942,0.111694,-0.674025,-1.518202
427,-0.08471,0.811237,0.578545,0.43818,-0.606952,-1.171349
428,-0.104092,0.8189489999999999,0.564343,0.625195,-0.8313389999999999,-0.527691
429,-0.114264,0.8301459999999999,0.545708,0.491583,-0.909858,-0.72802
430,-0.112652,0.851505,0.5120979999999999,-0.086384,-0.649158,-0.95677
431,-0.1003,0.876125,0.47153,-0.4687909999999999,-0.538493,-0.647617
432,-0.083249,0.901924,0.4237899999999999,-0.502078,-0.0174789999999999,-0.5357890000000001
433,-0.064248,0.928251,0.366357,-0.407675,0.711596,-0.505746
434,-0.039299,0.952642,0.301537,0.171165,1.804744,0.49691
435,-0.033138,0.978059,0.205665,0.098369,3.754455,-0.354621
436,-0.046662,0.991907,0.118064,0.4920199999999999,2.591712,-0.911674
437,-0.022819,0.998437,0.05098,-0.010247,1.869727,-0.344574
438,-0.004693,0.999281,-0.037577,-0.2262179999999999,0.843767,0.19369
439,0.003237,0.99336,-0.1149869999999999,0.0416399999999999,0.040423,0.197217
440,-0.009233,0.984153,-0.177072,-0.004912,-0.563071,0.366159
441,-0.030157,0.975711,-0.216969,-0.100687,-0.702808,0.421879
442,-0.048445,0.970888,-0.234579,-0.04677,-1.037981,0.698034
443,-0.0642799999999999,0.969281,-0.237402,0.203913,-1.766568,1.041647
444,-0.068906,0.972125,-0.224102,0.350538,-1.826602,1.094219
445,-0.0535649999999999,0.981075,-0.18606,0.316687,-1.671291,0.913995
446,-0.038674,0.991595,-0.123451,0.008812,-0.897982,0.006142
447,-0.024908,0.997927,-0.059299,-0.1677799999999999,-0.692522,-0.424068
448,-0.011358,0.999856,-0.012421,0.5040640000000001,0.340537,-1.74266
449,0.0050079999999999,0.999872,-0.015036,0.441434,0.43688,-1.392282
450,0.0225819999999999,0.998401,-0.0517809999999999,0.462464,-0.349124,-0.508582
451,0.036568,0.994971,-0.093224,-1.066063,-1.880149,1.771386
452,0.0438949999999999,0.993947,-0.100691,-2.713099,-1.484166,-1.921205
453,0.023912,0.987956,-0.152865,-0.2822429999999999,3.537786,1.508547
454,0.0070409999999999,0.995134,-0.098263,1.36506,0.086226,0.388561
455,0.026218,0.994514,-0.101245,0.681012,-0.187568,-1.018933
456,-0.000896,0.999162,-0.040878,-0.994755,1.191985,0.412292
457,-0.058474,0.997976,0.024922,0.006823,2.262004,0.421214
458,-0.109002,0.991256,0.07434,0.919564,1.603379,-0.136917
459,-0.1460769999999999,0.980825,0.128991,0.720464,1.337885,-0.22094
460,-0.176385,0.964727,0.195408,0.238443,1.156824,-0.431508
461,-0.185478,0.944298,0.271834,-0.172799,0.759163,-0.971663
462,-0.194253,0.92259,0.333296,-0.306342,0.426332,-1.291792
463,-0.203666,0.8991899999999999,0.387262,-0.037453,-0.064549,-1.053583
464,-0.215856,0.8779819999999999,0.427257,0.543203,-0.353171,-0.567195
465,-0.230379,0.860964,0.453497,0.6043109999999999,-0.655718,-0.697866
466,-0.228685,0.855992,0.463652,0.603533,-0.906606,-1.433791
467,-0.217808,0.858556,0.464149,0.384633,-0.779698,-0.618293
468,-0.2093699999999999,0.8658399999999999,0.454399,0.280613,-0.842784,-0.498451
469,-0.211909,0.880566,0.4238979999999999,0.004206,-0.755215,-0.87449
470,-0.2085679999999999,0.8971389999999999,0.389401,0.184673,-0.615095,-0.64674
471,-0.198873,0.915239,0.3504,0.174977,-0.633195,-0.60774
472,-0.1869859999999999,0.933731,0.305247,-0.00912,-0.552139,-0.553279
473,-0.173466,0.951259,0.254969,-0.070873,0.079762,-0.138071
474,-0.155313,0.968149,0.196363,0.394144,1.128012,0.353243
475,-0.134623,0.98286,0.125927,0.136134,3.440404,0.3579449999999999
476,-0.120762,0.991158,0.054923,-0.188107,2.256065,-0.158042
477,-0.086988,0.996204,0.0023,-0.157168,1.955075,-0.010509
478,-0.059426,0.996793,-0.053559,-0.554221,1.592685,-0.423523
479,-0.031111,0.993902,-0.105768,0.1827369999999999,0.991892,0.008417
480,-0.010499,0.988818,-0.148745,0.398485,-0.028658,0.1043579999999999
481,-0.002752,0.984202,-0.177017,0.19982,-0.405314,0.449447
482,-0.003032,0.981867,-0.1895369999999999,0.007197,-0.682505,0.623268
483,-0.004883,0.980629,-0.195805,-0.3018949999999999,-1.298927,0.814397
484,-0.009097,0.981104,-0.19326,-0.111555,-2.043237,1.003502
485,-0.01128,0.985422,-0.16974,0.258152,-1.920115,0.8934190000000001
486,-0.0068489999999999,0.992599,-0.1212289999999999,0.309034,-1.261016,0.472578
487,0.003187,0.997563,-0.069668,-0.284391,-0.493962,-0.737965
488,0.017461,0.999511,-0.025868,-0.140889,-0.3128039999999999,-1.03709
489,0.031275,0.999507,-0.002137,0.344762,-0.232127,-1.056549
490,0.047635,0.998862,-0.00093,0.184589,-0.401252,-0.726838
491,0.061846,0.99776,-0.0254,0.1537599999999999,-0.580799,-0.431738
492,0.067342,0.995463,-0.067186,0.224681,-1.062571,1.168276
493,0.066651,0.996013,-0.059262,-0.5480649999999999,-2.1683,1.891339
494,0.063135,0.997914,-0.013328,-4.257562999999999,-1.040562,-5.561975
495,0.027382,0.998687,-0.043251,1.9602580000000005,4.076569999999999,5.962486
496,0.029274,0.998385,0.048644,0.322548,0.356413,-3.586135
497,0.006812,0.999224,0.038741,-0.674247,-0.2336599999999999,2.921723
498,-0.044763,0.989492,0.137464,-0.758627,0.513972,1.552188
499,-0.094022,0.977985,0.186279,-0.4972109999999999,2.570966,0.452408
500,-0.1324789999999999,0.958126,0.253844,1.39461,2.330066,-0.798048
501,-0.1460779999999999,0.93615,0.31981,0.674582,1.069084,-1.061967
502,-0.1527339999999999,0.906465,0.393683,-1.124823,0.358992,-1.408103
503,-0.160888,0.8815729999999999,0.443776,-0.169053,-0.012676,-1.083302
504,-0.189636,0.8620969999999999,0.469914,0.220169,-0.3205469999999999,-0.8490340000000001
505,-0.211909,0.8496020000000001,0.4829739999999999,1.105616,-0.93412,-1.275195
506,-0.220488,0.847398,0.483005,1.219527,-0.425767,-0.701816
507,-0.217409,0.849117,0.481378,0.978563,-0.590542,-0.456521
508,-0.208983,0.8566020000000001,0.471753,0.17076,-0.925587,-1.037961
509,-0.20488,0.8697280000000001,0.448988,0.026184,-0.509254,-0.960859
510,-0.1933079999999999,0.886756,0.4198659999999999,0.039087,-0.543251,-0.778722
511,-0.18194,0.907129,0.379482,-0.1777099999999999,-0.687449,-0.647838
512,-0.173623,0.928063,0.329463,-0.355155,-0.5498890000000001,-0.7385510000000001
513,-0.166509,0.946928,0.274946,-0.328059,-0.474531,-0.679517
514,-0.15637,0.964009,0.215006,0.267439,0.971797,0.4189199999999999
515,-0.14428,0.980541,0.133098,0.7113119999999999,3.628879,0.772618
516,-0.115425,0.992275,0.045408,-0.147056,5.287541,0.512712
517,-0.081845,0.99656,-0.012775,-0.8819610000000001,1.959189,0.103564
518,-0.032154,0.997463,-0.063459,-0.434002,1.487141,-0.369799
519,0.000204,0.990681,-0.136179,-0.26235,1.077739,-0.278753
520,0.018591,0.980923,-0.193492,0.594599,-0.178555,0.122279
521,0.022933,0.972541,-0.231588,0.4563,-0.143043,0.131246
522,0.01045,0.966818,-0.255241,0.36928,-0.23606,0.339287
523,-0.009467,0.964811,-0.262765,-0.14013,-1.889249,1.064858
524,-0.028076,0.965506,-0.258851,-0.029617,-2.109824,1.113389
525,-0.036641,0.971159,-0.235587,0.4267479999999999,-1.995009,0.92948
526,-0.038095,0.981688,-0.186631,0.186228,-0.888533,0.5592199999999999
527,-0.032872,0.990687,-0.132105,-0.089991,-0.684199,0.1541539999999999
528,-0.014052,0.996033,-0.087826,-0.651613,-0.3469239999999999,-0.8777200000000001
529,0.011397,0.998188,-0.05901,0.042696,0.060589,-1.6974599999999995
530,0.037353,0.997493,-0.060039,0.236359,-0.073695,-1.051945
531,0.060384,0.99417,-0.089286,0.39799,-0.422728,-0.482827
532,0.075391,0.988382,-0.131946,0.124148,-1.315027,2.6934240000000003
533,0.085793,0.987212,-0.134329,-3.510811,0.125474,-3.245127
534,0.06766,0.985374,-0.156376,1.404981,2.045983,3.61417
535,0.054609,0.991073,-0.121594,1.171237,-0.617034,1.398952
536,0.058508,0.996099,-0.065995,-0.564444,-0.159719,0.583878
537,0.009314,0.998873,0.046444,-1.516608,1.156477,0.621571
538,-0.072643,0.988563,0.132122,-0.373341,2.467477,0.991032
539,-0.12587,0.974873,0.1837599999999999,1.362168,2.4252580000000004,-0.422285
540,-0.160078,0.955128,0.249188,0.852949,1.658184,-0.566647
541,-0.180134,0.926059,0.331592,-0.172833,0.886669,-1.403125
542,-0.198669,0.89643,0.396144,-0.290696,0.4585649999999999,-1.562663
543,-0.216585,0.8700260000000001,0.442867,0.407335,0.235961,-0.960323
544,-0.238394,0.8475360000000001,0.4741689999999999,0.441656,-0.748934,-0.904025
545,-0.243242,0.841173,0.4829569999999999,0.7142189999999999,-0.630113,-1.394197
546,-0.2476469999999999,0.8400190000000001,0.482726,0.6216550000000001,-0.459495,-0.919967
547,-0.254001,0.841908,0.476088,0.280017,-1.104161,-0.662687
548,-0.2591489999999999,0.8515379999999999,0.4557529999999999,0.385553,-0.807974,-0.729191
549,-0.255848,0.86287,0.4358689999999999,0.498569,-0.692185,-0.843706
550,-0.241103,0.88035,0.408458,0.333083,-0.5912270000000001,-0.742839
551,-0.221084,0.8998309999999999,0.376048,-0.086182,-0.603322,-0.7169449999999999
552,-0.203414,0.920594,0.333341,-0.246857,-0.4369659999999999,-0.557614
553,-0.186923,0.943281,0.2743489999999999,0.378161,1.299837,0.6118359999999999
554,-0.161155,0.965931,0.202469,-0.12603,4.611416,0.338867
555,-0.139449,0.982893,0.120263,-0.982835,3.710695,0.049644
556,-0.108999,0.992768,0.050186,-1.014353,1.7474349999999998,0.109757
557,-0.072722,0.997329,-0.005822,-0.826448,1.432892,0.047067
558,-0.032715,0.997928,-0.05531,-0.3588409999999999,1.29646,0.027142
559,0.004029,0.994598,-0.103673,1.009078,-0.028122,0.496968
560,0.0214639999999999,0.988735,-0.148099,0.774968,-0.559261,0.272748
561,0.034608,0.983887,-0.175386,0.424804,-0.78064,0.314241
562,0.038393,0.981856,-0.1856789999999999,-0.4157119999999999,-1.707625,0.8835860000000001
563,0.028618,0.98245,-0.184293,-0.3518139999999999,-2.3372330000000003,0.937039
564,0.017562,0.987298,-0.157878,-0.010451,-2.273767,0.937144
565,0.007887,0.99427,-0.1065599999999999,0.0304279999999999,-0.7522810000000001,0.178078
566,0.005446,0.998009,-0.062757,-0.5755,-0.186532,-0.7624529999999999
567,0.01929,0.999171,-0.03571,-0.476703,0.037969,-1.273906
568,0.042486,0.998347,-0.038589,-0.0276079999999999,-0.045466,-1.171494
569,0.070996,0.995385,-0.064494,-0.026181,-0.245217,-0.970632
570,0.086614,0.989607,-0.11475,0.4570109999999999,-0.641356,0.236058
571,0.08561,0.984132,-0.155396,-3.533196,0.21939,-3.152587
572,0.077654,0.978948,-0.188741,-2.113817,3.341944,-2.174083
573,0.048937,0.976801,-0.2084639999999999,1.938016,-0.059794,2.413924
574,0.056485,0.983031,-0.174501,-0.220609,-0.550613,1.2180799999999998
575,0.049314,0.994028,-0.097299,-1.003217,0.2154449999999999,0.5414979999999999
576,-0.004061,0.999967,0.006371,-1.320127,2.348346,0.828849
577,-0.079382,0.994309,0.070983,0.69895,3.013931,-0.081573
578,-0.126911,0.984511,0.120919,1.08617,1.951738,-0.283898
579,-0.147557,0.968179,0.2021,0.258916,1.209235,-0.587064
580,-0.153926,0.946546,0.283454,-0.82195,0.576907,-1.450049
581,-0.163822,0.925585,0.341236,-0.661587,-0.076907,-1.383366
582,-0.178295,0.902968,0.3909579999999999,0.192882,-0.194426,-0.738873
583,-0.197651,0.8822620000000001,0.427241,0.683094,-0.943816,-0.667048
584,-0.202593,0.871609,0.446363,0.8626280000000001,-0.944424,-1.106428
585,-0.203833,0.8681180000000001,0.452561,0.658041,-0.556716,-1.130585
586,-0.214617,0.866245,0.451161,-0.089201,-0.8905069999999999,-0.769474
587,-0.2305989999999999,0.8708549999999999,0.4340779999999999,-0.065498,-0.8273209999999999,-0.719936
588,-0.237683,0.879862,0.4115069999999999,0.459713,-0.683771,-0.802697
589,-0.236463,0.8953959999999999,0.377277,0.746504,-0.640163,-0.667133
590,-0.2221429999999999,0.91363,0.340471,0.4559229999999999,-0.709666,-0.597643
591,-0.206969,0.93213,0.297127,-0.094178,-0.5946819999999999,-0.7616350000000001
592,-0.190181,0.949907,0.2479849999999999,0.199824,0.787612,-0.036376
593,-0.165955,0.968595,0.185125,0.731126,1.379885,0.675303
594,-0.127577,0.98566,0.110403,0.6601090000000001,4.986295,0.976389
595,-0.088824,0.994933,0.046991,-1.219205,2.11464,0.162695
596,-0.04501,0.998929,-0.010269,-1.395404,1.811908,0.739242
597,-0.008847,0.995363,-0.095738,-0.980868,1.151899,-0.142085
598,0.007667,0.984269,-0.176489,0.240441,-0.076081,-0.031336
599,0.017428,0.975371,-0.219867,0.481046,-0.345671,0.153324
600,0.01354,0.968889,-0.247113,0.7500560000000001,-0.158387,0.514676
601,0.004412,0.966912,-0.255059,-0.086397,-1.312859,0.80758
602,-0.006097,0.966783,-0.2555119999999999,-0.339026,-2.1317310000000003,1.241078
603,-0.015603,0.969343,-0.245203,-0.001884,-2.350217,1.434122
604,-0.006039,0.981171,-0.193031,0.6643789999999999,-1.26503,0.747184
605,0.009564,0.990221,-0.13915,-0.123867,-0.587969,-0.454585
606,0.032533,0.994127,-0.103177,-0.6613479999999999,-0.298586,-1.033313
607,0.055244,0.994619,-0.087604,0.012231,-0.179647,-1.278622
608,0.080108,0.992972,-0.08707,-0.00238,-0.4400699999999999,-0.450115
609,0.0993049999999999,0.988572,-0.113388,-0.038713,-0.488267,-0.2867889999999999
610,0.102188,0.980344,-0.1687519999999999,-0.352661,-0.645047,1.42719
611,0.096573,0.971428,-0.216783,-2.203018,-0.082649,0.527772
612,0.055817,0.965223,-0.255387,0.360931,2.505892,1.4000709999999998
613,0.048466,0.971788,-0.230807,0.798031,-1.503771,1.5463129999999998
614,0.051823,0.986158,-0.1574809999999999,-1.399479,1.243624,0.2127639999999999
615,0.016412,0.9987,-0.048164,-1.130487,2.033419,0.586128
616,-0.0558139999999999,0.997107,0.051512,0.721204,3.376443,0.644365
617,-0.1011389999999999,0.989256,0.105521,1.365696,2.112337,-0.482489
618,-0.1358329999999999,0.975382,0.173693,0.514251,1.369802,-0.3523429999999999
619,-0.142368,0.955885,0.256913,-0.088604,0.7785350000000001,-1.003266
620,-0.143691,0.933479,0.328571,-0.610474,0.1222,-1.528446
621,-0.150978,0.912084,0.38118,-0.4145279999999999,-0.113545,-0.958969
622,-0.160672,0.8927579999999999,0.4209,0.215192,-0.5705680000000001,-0.7834939999999999
623,-0.168176,0.88131,0.441585,0.425195,-0.938301,-1.314129
624,-0.175764,0.879418,0.442401,0.186521,-0.919594,-1.068149
625,-0.18398,0.877813,0.442248,0.181081,-0.8836719999999999,-0.553546
626,-0.198177,0.8833129999999999,0.424818,0.313381,-0.917783,-0.730299
627,-0.203852,0.892592,0.402134,0.459741,-0.615462,-0.8426549999999999
628,-0.190873,0.906225,0.377242,0.533967,-0.640279,-0.636031
629,-0.174581,0.924857,0.33786,0.2364699999999999,-0.738043,-0.6251979999999999
630,-0.160318,0.943981,0.288421,-0.061866,-0.571971,-0.674758
631,-0.145478,0.961424,0.233427,0.117203,0.6448689999999999,-0.075773
632,-0.1259849999999999,0.977973,0.166391,0.468377,1.15429,0.42507
633,-0.096813,0.990505,0.097559,0.41505,4.633122,1.146535
634,-0.080526,0.996485,0.022877,-0.699442,1.914175,0.085231
635,-0.046223,0.998322,-0.034763,-0.8213159999999999,1.6525419999999995,0.21355
636,-0.004514,0.995111,-0.098619,-0.531573,1.300452,0.138903
637,0.021932,0.985266,-0.169595,0.231258,-0.184591,0.195123
638,0.040387,0.976572,-0.21135,0.2280599999999999,-0.456186,0.101288
639,0.039229,0.970504,-0.237859,0.314286,-0.52304,0.802236
640,0.027027,0.967205,-0.25254,-0.209781,-1.311474,0.894935
641,0.019525,0.968344,-0.24884,-0.561807,-1.836798,0.910843
642,0.007725,0.973222,-0.229721,0.1235769999999999,-2.195909,0.883301
643,-0.001275,0.982306,-0.1872619999999999,0.516839,-1.200354,0.75527
644,-0.003072,0.991005,-0.13376,0.3951469999999999,-0.890496,0.439622
645,0.009856,0.995629,-0.092833,-0.4206229999999999,-0.060525,-0.816164
646,0.030941,0.997305,-0.066461,0.142292,-0.008352,-1.406393
647,0.057611,0.996857,-0.054288,0.314337,-0.264298,-0.834522
648,0.085885,0.994517,-0.059586,0.288321,-0.453868,-0.5951529999999999
649,0.097718,0.9911,-0.090353,0.4244529999999999,-1.108013,1.303565
650,0.102059,0.988662,-0.1101029999999999,0.042045,-1.614898,2.0809740000000003
651,0.102504,0.989135,-0.105345,-4.453837999999999,2.431001,-5.503054
652,0.075888,0.989517,-0.122839,2.976205,1.946915,4.36817
653,0.098157,0.99189,-0.080692,1.77846,1.034538,1.63956
654,0.079542,0.996191,-0.0355959999999999,-1.078016,-0.2185119999999999,1.665631
655,0.018906,0.997006,0.074915,-1.545792,1.724338,0.85874
656,-0.042163,0.991263,0.124939,0.4355199999999999,2.6307,-0.274124
657,-0.080487,0.979466,0.184819,1.535824,2.601726,-0.432927
658,-0.095935,0.961145,0.258818,0.391651,1.12284,-0.817869
659,-0.11218,0.935167,0.335956,-0.877307,0.297545,-1.456515
660,-0.118622,0.911182,0.394543,-0.5855560000000001,0.104581,-1.415768
661,-0.140071,0.887387,0.439218,0.233394,-0.386486,-0.71702
662,-0.157665,0.8709110000000001,0.465449,0.685604,-0.96167,-1.2564799999999998
663,-0.166429,0.8678389999999999,0.468128,0.692125,-0.615657,-1.0983459999999998
664,-0.171998,0.8678020000000001,0.466179,0.465638,-0.7823829999999999,-0.546151
665,-0.175589,0.873834,0.4533979999999999,0.2324119999999999,-1.171518,-0.8516379999999999
666,-0.175137,0.8842770000000001,0.43286,0.2858239999999999,-0.672867,-0.7960649999999999
667,-0.160946,0.89817,0.409113,0.4481159999999999,-0.691383,-0.656764
668,-0.143344,0.916103,0.374426,0.155338,-0.75761,-0.633062
669,-0.127289,0.935261,0.330262,-0.288253,-0.546909,-0.662339
670,-0.110344,0.953691,0.279796,-0.474052,-0.259111,-0.483409
671,-0.09102,0.971213,0.220113,-0.0216349999999999,0.8788540000000001,0.379877
672,-0.072222,0.987183,0.142279,0.582414,3.14096,0.504983
673,-0.054715,0.996828,0.057712,-1.2363,4.203093,-0.188693
674,-0.0172289999999999,0.999824,-0.006693,-0.768462,1.67292,-0.134252
675,0.021504,0.998169,-0.056461,-0.726033,1.391281,0.08826
676,0.050216,0.992276,-0.113394,-0.098327,0.895252,0.248267
677,0.061225,0.984341,-0.165276,0.18406,-0.000195,0.350807
678,0.0609799999999999,0.977418,-0.2023049999999999,0.3948,-0.311098,0.28017
679,0.056469,0.973117,-0.223266,-0.167446,-1.368442,0.805954
680,0.0504579999999999,0.97274,-0.226326,-0.339033,-1.893914,0.849144
681,0.037065,0.976419,-0.212664,-0.202745,-2.4549950000000003,1.001803
682,0.023652,0.985152,-0.1700279999999999,0.555053,-1.26364,0.784927
683,0.0178569999999999,0.992855,-0.1179549999999999,0.326854,-0.868801,0.362706
684,0.022621,0.996348,-0.0822929999999999,-0.333992,-0.331934,-0.65788
685,0.0379899999999999,0.996746,-0.071034,0.08614,-0.016659,-1.178478
686,0.06346,0.994907,-0.078261,0.021013,-0.123859,-1.091783
687,0.089562,0.99145,-0.094859,-0.103142,-0.570811,-0.642217
688,0.101033,0.986671,-0.12754,0.149974,-1.3067540000000002,1.971702
689,0.102676,0.986179,-0.130004,-1.383896,-1.7392009999999998,0.926848
690,0.094402,0.985182,-0.143174,-2.65263,2.841936,-0.930984
691,0.056132,0.990032,-0.129148,2.874272,1.134831,3.873137
692,0.073504,0.993724,-0.084272,1.804884,1.098011,1.162534
693,0.045208,0.998258,-0.037819,0.107242,0.231219,-0.450721
694,-0.0308959999999999,0.998129,0.052673,-1.105166,2.086786,0.763138
695,-0.0837779999999999,0.991837,0.096077,-0.315026,2.597152,-0.288582
696,-0.1221849999999999,0.978361,0.166943,1.010979,1.921816,-0.4876979999999999
697,-0.137217,0.959336,0.2466489999999999,-0.8194170000000001,0.529312,-1.268072
698,-0.14978,0.934536,0.322796,-0.845475,0.373401,-1.446346
699,-0.166115,0.912996,0.372602,0.094796,0.109571,-0.923017
700,-0.188283,0.894697,0.405038,0.744008,-0.6222810000000001,-0.8126770000000001
701,-0.201902,0.883452,0.422771,0.928511,-1.036971,-1.040523
702,-0.202725,0.880551,0.428392,0.749173,-0.558682,-0.936006
703,-0.201684,0.8833290000000001,0.4231319999999999,0.15748,-0.808591,-0.689841
704,-0.203091,0.889009,0.4103699999999999,0.0467949999999999,-1.100298,-0.58487
705,-0.205866,0.8981629999999999,0.388472,0.0593659999999999,-0.72522,-0.80699
706,-0.2031599999999999,0.910536,0.360052,0.130467,-0.629271,-0.776572
707,-0.1940619999999999,0.924623,0.327719,0.13086,-0.670244,-0.588324
708,-0.188059,0.940042,0.284505,-0.1290339999999999,-0.565286,-0.638936
709,-0.18361,0.954915,0.2332659999999999,-0.096938,-0.015767,-0.20432
710,-0.176535,0.969403,0.170537,0.6966,1.165058,0.8379469999999999
711,-0.169206,0.98201,0.0837649999999999,0.791048,4.8510290000000005,0.692709
712,-0.1517109999999999,0.988241,0.018841,-0.8599620000000001,2.326426,-0.293179
713,-0.125298,0.991538,-0.0338329999999999,-1.370949,1.6175469999999998,0.30106
714,-0.096477,0.991239,-0.09016,-0.8842049999999999,1.067309,-0.065968
715,-0.078347,0.985308,-0.15173,0.075905,0.4536409999999999,-0.083911
716,-0.067826,0.980117,-0.186452,0.945908,-0.105529,0.502095
717,-0.0617789999999999,0.974854,-0.2140929999999999,0.886761,-0.193864,0.557156
718,-0.061034,0.971246,-0.230106,0.184111,-1.007669,0.8449129999999999
719,-0.069636,0.970717,-0.2299,-0.089132,-1.78607,1.119701
720,-0.072656,0.975632,-0.207019,0.328134,-2.12909,1.010242
721,-0.065332,0.98478,-0.1610359999999999,0.6213770000000001,-1.552423,0.7222390000000001
722,-0.0528059999999999,0.991439,-0.119388,0.07513,-0.947845,-0.137249
723,-0.0309899999999999,0.995556,-0.088888,-0.70781,-0.3851429999999999,-1.074213
724,-0.0019039999999999,0.997351,-0.072666,-0.443302,-0.09751,-1.3107719999999998
725,0.028075,0.996775,-0.075137,0.061051,-0.372538,-0.704771
726,0.049607,0.994136,-0.096051,0.129104,-0.71516,0.000897
727,0.052243,0.99009,-0.130328,0.070453,-1.256173,1.443057
728,0.047118,0.989072,-0.139679,-0.461089,-1.559506,1.7954259999999995
729,0.035469,0.986688,-0.158692,-0.065636,3.276984,3.974518
730,0.007833,0.990241,-0.139125,1.306925,0.602014,1.487224
731,0.008645,0.992316,-0.123398,0.80445,-0.155097,-0.388076
732,-0.027056,0.998132,-0.05471,-0.919508,1.237433,1.859978
733,-0.081492,0.996306,0.026936,-0.410726,2.618196,0.112194
734,-0.12577,0.987949,0.090173,0.930656,2.609921,-0.30871
735,-0.1536,0.973905,0.1670559999999999,1.390599,1.828097,-0.317233
736,-0.166038,0.955454,0.2439869999999999,-0.673959,0.7034819999999999,-1.294341
737,-0.170809,0.933234,0.316052,-1.183622,0.38923,-1.584087
738,-0.1806299999999999,0.910477,0.372014,-0.1281769999999999,-0.013352,-0.880132
739,-0.2111869999999999,0.8901049999999999,0.403861,0.58019,-0.8583209999999999,-0.712119
740,-0.226326,0.8789319999999999,0.419814,0.926384,-1.046687,-1.433257
741,-0.234235,0.879076,0.415149,0.934614,-0.332781,-0.808643
742,-0.236375,0.8815879999999999,0.408556,0.427598,-0.929577,-0.612047
743,-0.237839,0.8898469999999999,0.389351,0.110901,-0.988388,-0.7632979999999999
744,-0.235833,0.901727,0.362298,0.2061239999999999,-0.690271,-0.765039
745,-0.228048,0.916133,0.3296699999999999,0.30393,-0.693142,-0.596729
746,-0.215742,0.93141,0.293121,0.010222,-0.548704,-0.592484
747,-0.203898,0.947279,0.2471409999999999,-0.090795,-0.32945,-0.398767
748,-0.186618,0.96309,0.193964,0.148898,0.5427390000000001,0.0418
749,-0.163953,0.977627,0.13174,0.686063,1.833775,0.409901
750,-0.1521279999999999,0.986752,0.056295,-0.5008560000000001,4.289356,0.027354
751,-0.132906,0.991125,0.000346,-0.730284,2.235896,0.0931289999999999
752,-0.098519,0.993933,-0.0488209999999999,-0.615974,1.6854490000000002,-0.020118
753,-0.065769,0.992211,-0.105753,-0.098507,1.047095,-0.21665
754,-0.044548,0.986802,-0.155658,0.6136699999999999,0.328047,0.4790979999999999
755,-0.038515,0.979595,-0.197239,0.637606,-0.207088,0.377827
756,-0.037319,0.974345,-0.221928,0.096188,-0.625743,0.581807
757,-0.040556,0.971698,-0.232707,-0.249513,-1.235644,0.8699450000000001
758,-0.04375,0.971663,-0.2322699999999999,-0.360516,-1.895812,0.957459
759,-0.044672,0.976434,-0.211128,0.106516,-2.205605,0.8947370000000001
760,-0.046139,0.985117,-0.165555,0.317608,-1.428141,0.727765
761,-0.046159,0.991802,-0.119122,0.020799,-0.940975,-0.046848
762,-0.037409,0.995571,-0.086199,-0.318166,-0.4122119999999999,-0.948866
763,-0.0228699999999999,0.996617,-0.0788789999999999,0.175901,0.015361,-1.486047
764,-0.006241,0.995496,-0.094552,0.247696,0.0683309999999999,-1.076377
765,0.00325,0.991524,-0.12985,0.319214,-0.118737,-0.523928
766,0.001292,0.984226,-0.176887,0.3684139999999999,-1.243076,2.682303
767,0.006958,0.983476,-0.180885,-3.430435,-0.476624,-2.130226
768,-0.031085,0.973405,-0.226956,1.318942,2.911788,4.033901999999999
769,-0.026022,0.984949,-0.17085,0.879293,-0.538981,0.696149
770,-0.012827,0.991838,-0.126825,0.064447,-0.278443,0.417368
771,-0.055821,0.998129,-0.024772,-1.289348,2.3395490000000003,1.07357
772,-0.1079609999999999,0.993357,0.039694,0.7298020000000001,2.242162,-0.379812
773,-0.144419,0.984661,0.097854,1.165904,1.995838,-0.663787
774,-0.1640309999999999,0.973358,0.160179,0.230254,1.270661,-0.59922
775,-0.1643069999999999,0.956881,0.2395219999999999,-0.778991,0.263182,-1.255681
776,-0.168069,0.937714,0.304026,-0.614432,0.029235,-1.237269
777,-0.18625,0.917181,0.352247,0.432755,-0.193319,-0.34007
778,-0.2065409999999999,0.8977,0.389183,0.7783800000000001,-1.0845280000000002,-0.902656
779,-0.2054929999999999,0.887335,0.4127909999999999,0.848757,-1.206748,-1.211848
780,-0.199248,0.8851049999999999,0.4205689999999999,0.2165659999999999,-0.67023,-1.036856
781,-0.202917,0.887376,0.413975,-0.31698,-0.99608,-0.731725
782,-0.21085,0.895142,0.3927469999999999,-0.044765,-0.8098,-0.5825819999999999
783,-0.212561,0.905587,0.367041,0.405829,-0.597725,-0.702581
784,-0.202465,0.921336,0.331867,0.4391739999999999,-0.6008100000000001,-0.677967
785,-0.191298,0.937919,0.289312,0.014891,-0.463859,-0.36257
786,-0.176609,0.954966,0.238406,-0.020978,0.402333,0.0313079999999999
787,-0.153567,0.972501,0.175067,0.557589,1.167269,0.255963
788,-0.135419,0.98583,0.098946,0.492917,2.567957,0.138633
789,-0.131712,0.990801,0.0309149999999999,-0.783678,3.574049,-0.0299839999999999
790,-0.106485,0.993775,-0.03261,-0.8807280000000001,1.883483,0.050295
791,-0.077357,0.993087,-0.088239,-0.314138,1.3064440000000002,-0.178042
792,-0.0441509999999999,0.9899,-0.134685,0.690376,0.7732220000000001,0.351726
793,-0.030496,0.983531,-0.178125,0.799722,-0.170085,0.381006
794,-0.0235009999999999,0.977719,-0.208581,0.5168020000000001,-0.432644,0.4983149999999999
795,-0.02206,0.974088,-0.2250719999999999,-0.185582,-1.037718,0.838673
796,-0.0252879999999999,0.972732,-0.2305309999999999,-0.471141,-1.685272,1.040956
797,-0.030599,0.975125,-0.219516,-0.171916,-2.384396,1.085742
798,-0.0302069999999999,0.982578,-0.183355,0.225016,-1.728291,0.8219200000000001
799,-0.025886,0.990579,-0.134438,-0.0283279999999999,-1.031839,0.177773
800,-0.0137069999999999,0.995841,-0.090022,-0.20309,-0.543113,-0.476888
801,0.004185,0.99818,-0.060084,0.038036,-0.186107,-1.171666
802,0.024075,0.998053,-0.05746,0.259219,-0.09252,-1.014699
803,0.0435,0.995981,-0.07824,0.054415,-0.216577,-0.531791
804,0.050327,0.990983,-0.124144,0.204037,-0.3826449999999999,-0.255205
805,0.046909,0.985393,-0.163682,-0.150851,-1.190288,3.013398
806,0.04433,0.981553,-0.1859579999999999,-4.004581,2.372573,-5.803208000000001
807,0.007405,0.979021,-0.203603,1.21223,0.945737,3.470479
808,0.003903,0.985218,-0.171235,0.697665,-0.581928,0.852891
809,-0.013155,0.994842,-0.100534,-0.074598,-0.089508,1.06521
810,-0.066341,0.997763,-0.007575,-0.8284950000000001,2.575647,0.901786
811,-0.110312,0.991886,0.063109,1.067755,2.811505,-0.108168
812,-0.137122,0.980556,0.140342,1.105612,1.715947,-0.387412
813,-0.1463539999999999,0.96437,0.220358,-0.0859,1.039246,-0.6986439999999999
814,-0.140021,0.940881,0.308422,-1.0267879999999998,0.340491,-1.674557
815,-0.147742,0.917587,0.369043,-0.784387,0.1750799999999999,-1.38952
816,-0.171372,0.896775,0.407936,0.1545109999999999,-0.085007,-0.608604
817,-0.187245,0.88508,0.426098,0.5776560000000001,-1.1291129999999998,-1.195751
818,-0.192524,0.8845370000000001,0.4248699999999999,0.791813,-0.8417969999999999,-1.189885
819,-0.196305,0.8858299999999999,0.4204229999999999,0.41713,-0.908398,-0.490431
820,-0.19783,0.892625,0.4050559999999999,0.175308,-1.176057,-0.80389
821,-0.197926,0.904613,0.377474,0.055622,-0.8475459999999999,-0.8803120000000001
822,-0.1927019999999999,0.919133,0.34358,0.069319,-0.675343,-0.6089760000000001
823,-0.185953,0.932475,0.309675,0.005091,-0.8077350000000001,-0.464368
824,-0.183275,0.947417,0.262295,-0.131117,-0.582168,-0.707256
825,-0.17699,0.961309,0.211062,-0.01112,0.245996,-0.128191
826,-0.163977,0.97456,0.152752,0.7190300000000001,1.123905,0.618976
827,-0.147509,0.985902,0.078908,0.938937,2.439406,0.578395
828,-0.133546,0.990988,0.009908,-0.714797,4.493784,-0.0216419999999999
829,-0.107717,0.993074,-0.046816,-1.18397,1.904616,0.062304
830,-0.057578,0.994268,-0.0900379999999999,-0.7451720000000001,1.632472,0.012996
831,-0.02226,0.988531,-0.149339,0.386701,0.467722,0.18773
832,-0.007123,0.98,-0.198849,0.689664,-0.413258,0.229946
833,-0.0076359999999999,0.972829,-0.231382,0.5122140000000001,-0.444783,0.277128
834,-0.016519,0.969384,-0.244975,-0.025916,-0.8315670000000001,0.655406
835,-0.029654,0.96865,-0.246638,-0.193261,-1.452231,0.938303
836,-0.039288,0.970509,-0.237827,-0.1371349999999999,-2.095997,0.990528
837,-0.037785,0.977458,-0.207701,0.334263,-1.79835,1.068404
838,-0.033605,0.986665,-0.159228,0.313008,-1.153642,0.493609
839,-0.019423,0.992388,-0.121574,-0.358904,-0.588595,-0.582879
840,0.010371,0.995081,-0.098471,-0.60377,-0.2410989999999999,-1.102868
841,0.041183,0.994011,-0.101175,0.142167,0.15847,-1.322974
842,0.069322,0.989594,-0.126055,0.290694,-0.304123,-0.6953560000000001
843,0.076583,0.980832,-0.179152,0.522569,-0.965436,1.518553
844,0.074519,0.977482,-0.197404,-0.424555,-2.5768470000000003,2.625444
845,0.074779,0.984451,-0.158919,-4.2644,-1.341766,-5.133363
846,0.049591,0.974364,-0.2194239999999999,3.064637,4.832765,6.904712
847,0.05559,0.986613,-0.153285,1.548261,1.331411,-0.55605
848,0.049655,0.984123,-0.170375,-0.46889,-0.6879350000000001,0.8228409999999999
849,0.012679,0.99491,-0.099923,-1.0195299999999998,-0.204459,2.352334
850,-0.025147,0.998978,-0.03743,-1.1837,2.462295,-0.4548649999999999
851,-0.079836,0.99626,0.032898,1.430163,2.782106,-0.415222
852,-0.110291,0.989308,0.0953649999999999,1.232316,1.632213,-0.678693
853,-0.1305869999999999,0.978513,0.159523,-0.288068,0.666263,-0.8891979999999999
854,-0.1474619999999999,0.963723,0.222439,-0.977676,0.087439,-1.347104
855,-0.166519,0.946984,0.274735,-0.2187199999999999,-0.140053,-1.236375
856,-0.187946,0.930249,0.315116,0.723774,-0.455808,-0.4624399999999999
857,-0.200021,0.913368,0.35459,1.052484,-1.214119,-0.168159
858,-0.182788,0.908485,0.375803,1.005664,-1.142281,-1.219186
859,-0.163878,0.91021,0.380324,0.433577,-0.635918,-1.191878
860,-0.158141,0.912858,0.3763849999999999,-0.654572,-1.064165,-0.617992
861,-0.164724,0.922707,0.348514,-0.6174270000000001,-0.956917,-0.68523
862,-0.172893,0.934545,0.310994,0.064296,-0.604574,-0.590734
863,-0.176075,0.948805,0.262207,0.3074989999999999,-0.555006,-0.5796359999999999
864,-0.172478,0.962611,0.208846,0.263604,-0.350673,-0.43428
865,-0.162683,0.975162,0.150266,0.350031,0.944501,0.301058
866,-0.143973,0.985949,0.084634,0.483938,1.7063419999999998,0.2901829999999999
867,-0.1304809999999999,0.991315,0.016074,-0.451428,4.027774,0.14367
868,-0.105727,0.993336,-0.045775,-0.662904,1.962902,0.198027
869,-0.0731639999999999,0.992678,-0.0960559999999999,-0.8322620000000001,1.698148,0.180605
870,-0.045064,0.989348,-0.1383869999999999,-0.418879,1.236788,-0.210246
871,-0.018499,0.985219,-0.170269,0.775381,0.501216,0.4879409999999999
872,-0.002583,0.979057,-0.203545,0.560963,-0.12809,0.250511
873,0.0040149999999999,0.973682,-0.227856,0.034789,-0.7676270000000001,0.542157
874,0.010216,0.971606,-0.236366,-0.380257,-1.42055,0.8413309999999999
875,0.01318,0.97173,-0.235708,-0.425655,-1.985905,1.018759
876,0.011512,0.976668,-0.214426,0.045861,-2.099776,0.984431
877,0.008279,0.985413,-0.16995,0.137382,-1.402298,0.496946
878,0.004799,0.992406,-0.12287,-0.056999,-0.8207899999999999,-0.0328769999999999
879,0.011918,0.996416,-0.083685,-0.212251,-0.324602,-0.7780699999999999
880,0.0278529999999999,0.99733,-0.067427,0.13917,-0.044831,-1.106157
881,0.048767,0.996024,-0.074471,0.0849299999999999,-0.178169,-0.855842
882,0.06602,0.993258,-0.095234,-0.022792,-0.455889,-0.594708
883,0.0675419999999999,0.98813,-0.137941,0.305154,-0.8619399999999999,0.837571
884,0.066304,0.984774,-0.160665,-0.453846,-1.510012,2.627584
885,0.063548,0.98132,-0.181555,-2.693721,3.822513,-3.750726
886,0.020538,0.983421,-0.180145,1.703064,1.260491,3.726273
887,0.029432,0.984917,-0.170477,0.622621,-0.291603,-0.510035
888,0.008832,0.991939,-0.126367,-0.405865,0.009099,1.607172
889,-0.03149,0.99844,-0.045985,-1.221317,1.828907,1.067866
890,-0.067264,0.997582,0.017085,0.726871,2.37313,-0.157649
891,-0.1071109999999999,0.990348,0.087887,1.021265,1.702584,-0.3775139999999999
892,-0.126402,0.980559,0.150042,-0.078539,1.0914469999999998,-0.7136399999999999
893,-0.1260089999999999,0.964957,0.23014,-0.904051,0.275354,-1.261955
894,-0.134232,0.947003,0.291807,-0.5865630000000001,-0.117092,-1.353865
895,-0.154643,0.929651,0.334393,0.366023,-0.076227,-0.582684
896,-0.1809599999999999,0.915609,0.3590219999999999,0.564413,-0.955495,-0.668928
897,-0.1912299999999999,0.909313,0.369546,0.56185,-1.114559,-1.349725
898,-0.201906,0.908424,0.366037,0.720064,-0.331642,-0.811655
899,-0.205588,0.910361,0.359109,0.5768949999999999,-1.015571,-0.345605
900,-0.2054909999999999,0.91809,0.338923,0.220002,-1.132613,-0.724436
901,-0.204725,0.927947,0.311427,0.051771,-0.816191,-0.666179
902,-0.2008339999999999,0.939408,0.277784,0.1436589999999999,-0.706742,-0.4475229999999999
903,-0.199023,0.951017,0.2365219999999999,-0.052594,-0.6774720000000001,-0.362331
904,-0.197193,0.961452,0.191603,-0.24049,-0.476207,-0.365721
905,-0.1924809999999999,0.971909,0.135389,0.089515,0.566177,0.119265
906,-0.177725,0.981775,0.067227,0.897208,2.663687,0.48981
907,-0.146743,0.989164,0.002959,-0.662995,2.006868,-0.115324
908,-0.100232,0.993662,-0.0507769999999999,-0.983248,1.899282,0.0875809999999999
909,-0.04423,0.995371,-0.085269,-1.173864,1.881888,0.36684
910,-0.0017879999999999,0.992168,-0.1248599999999999,0.077182,0.775929,0.176252
911,0.020852,0.982724,-0.183874,0.505256,0.391452,0.139624
912,0.033657,0.975004,-0.219604,0.0513809999999999,-0.2870769999999999,-0.035248
913,0.039804,0.971564,-0.23339,0.024176,-0.642645,0.603431
914,0.030133,0.970214,-0.240352,-0.056378,-0.985106,0.6439159999999999
915,0.02228,0.971433,-0.236249,-0.196353,-1.420957,0.6358159999999999
916,0.014097,0.975524,-0.2194219999999999,-0.101194,-1.775054,0.691224
917,0.000673,0.982145,-0.188101,0.065459,-1.464506,0.751425
918,-0.005712,0.988546,-0.150783,0.239232,-0.974645,0.428081
919,0.0067459999999999,0.99253,-0.121775,-0.060198,-0.412833,-0.7410479999999999
920,0.036007,0.993108,-0.111488,-0.089077,-0.215551,-1.141854
921,0.069031,0.991014,-0.114523,0.157409,-0.171632,-0.7521760000000001
922,0.094752,0.987523,-0.1257349999999999,0.044134,-0.406011,-0.778913
923,0.1051,0.980892,-0.16369,0.383242,-1.142696,1.809198
924,0.117389,0.977012,-0.177926,-1.758762,-0.6671520000000001,1.326867
925,0.095236,0.970593,-0.221065,-0.064719,4.545658,1.529201
926,0.0514769999999999,0.97306,-0.224709,1.4038,1.974526,5.140007
927,0.051744,0.969065,-0.2412989999999999,0.04936,-1.1001379999999998,-0.417133
928,0.041582,0.979593,-0.196618,-0.462435,0.04621,1.805108
