,gravity.x,gravity.y,gravity.z,userAcceleration.x,userAcceleration.y,userAcceleration.z
0,0.256888,0.966,0.029054,0.064874,-0.846249,-0.171922
1,0.282632,0.958377,-0.040307,0.239188,-0.36185,0.069375
2,0.306565,0.944505,-0.1179839999999999,0.207503,0.522841,0.315403
3,0.336698,0.921611,-0.193027,0.2776969999999999,1.411168,-0.007291
4,0.361271,0.891933,-0.271904,0.377606,3.610844,-0.071937
5,0.3652019999999999,0.8628469999999999,-0.349453,0.198641,2.599785,-0.207523
6,0.356699,0.82565,-0.437108,0.770178,1.466129,0.295507
7,0.361255,0.781958,-0.507969,1.370511,1.08555,-0.018719
8,0.356905,0.749276,-0.557854,1.080228,0.546516,-0.089943
9,0.329354,0.73573,-0.591797,0.466132,0.199527,0.373581
10,0.294626,0.737197,-0.608057,-0.514246,-0.468474,0.597849
11,0.269072,0.74853,-0.606052,-0.976103,-1.407222,0.987324
12,0.263003,0.772898,-0.5774560000000001,-0.92676,-1.421503,1.151949
13,0.2776369999999999,0.807978,-0.519698,-1.04372,-1.325281,1.922835
14,0.306623,0.8423870000000001,-0.4431279999999999,-1.131604,-1.178095,1.7025130000000002
15,0.339378,0.857986,-0.385588,-0.195961,-0.196319,-0.019396
16,0.351146,0.859442,-0.371553,1.206761,0.5870609999999999,-1.934446
17,0.3547929999999999,0.841614,-0.40719,1.619557,0.05925,-0.0652529999999999
18,0.400286,0.827734,-0.3932199999999999,1.0107549999999998,-0.7541260000000001,0.322846
19,0.436173,0.811489,-0.388887,-0.457383,1.35889,0.301958
20,0.444904,0.775193,-0.448476,-1.06702,-0.771684,0.351064
21,0.467352,0.7748229999999999,-0.425706,-1.517599,-1.488584,-0.6040939999999999
22,0.475305,0.786748,-0.393836,-0.200418,0.90594,1.303458
23,0.457192,0.821469,-0.3408199999999999,0.747322,1.635623,-0.296875
24,0.422942,0.857728,-0.2922599999999999,0.601975,1.338072,0.212578
25,0.374527,0.891437,-0.255073,1.363861,1.152966,0.286323
26,0.332708,0.921057,-0.20237,1.600001,1.2847540000000002,-0.3361889999999999
27,0.303822,0.942829,-0.136958,1.282665,0.829342,-0.546621
28,0.297062,0.952016,-0.0735659999999999,0.806392,0.8122050000000001,0.0400279999999999
29,0.288991,0.9573,-0.00724,-0.00089,0.221655,0.062995
30,0.2669829999999999,0.962518,0.047648,-0.35965,-0.138269,0.007695
31,0.235132,0.967531,0.092672,-0.514506,-1.060625,-1.128576
32,0.211436,0.968562,0.131046,0.598485,-1.198405,-0.710865
33,0.197105,0.967729,0.156974,0.449517,-1.371507,-0.691825
34,0.195013,0.968029,0.157735,0.1227359999999999,-0.97369,-0.3703349999999999
35,0.199747,0.971618,0.126691,0.025427,-1.029067,-0.524259
36,0.206911,0.975038,0.080501,0.0990429999999999,-1.070115,-0.156413
37,0.219782,0.975176,0.026816,0.13201,-0.963839,-0.117163
38,0.2387139999999999,0.970533,-0.0327589999999999,0.088694,-0.463941,0.11627
39,0.259848,0.960702,-0.097589,0.362528,-0.0992059999999999,0.282876
40,0.289649,0.943346,-0.161846,0.400735,0.499922,0.326305
41,0.332043,0.912398,-0.239314,0.460025,2.336427,-0.31194
42,0.354438,0.8818540000000001,-0.3109679999999999,0.476739,3.869153,-0.096808
43,0.350296,0.853108,-0.3866449999999999,0.408661,1.883388,-0.015668
44,0.361819,0.8096369999999999,-0.4621369999999999,1.176724,1.465525,0.059244
45,0.375897,0.7638510000000001,-0.524623,1.427295,0.962834,-0.139455
46,0.3628909999999999,0.735065,-0.5727,0.920891,0.292279,0.128853
47,0.326599,0.727156,-0.603799,-0.0554809999999999,-0.167327,0.4237149999999999
48,0.295073,0.7321979999999999,-0.613853,-0.960631,-1.011052,0.753288
49,0.2851619999999999,0.750642,-0.595999,-0.98821,-1.357134,1.081
50,0.287783,0.78293,-0.551541,-1.0312370000000002,-1.26259,1.23956
51,0.292884,0.8176180000000001,-0.495697,-1.158225,-1.277762,1.783753
52,0.315192,0.846385,-0.429279,-1.145865,-1.006557,1.345051
53,0.338104,0.8628040000000001,-0.375832,-0.68219,-0.382976,0.1714099999999999
54,0.33364,0.866506,-0.371276,0.717843,0.416682,-1.535966
55,0.344222,0.842775,-0.413806,2.004945,0.602324,-0.794186
56,0.390604,0.833766,-0.3902,0.667212,-1.1582290000000002,1.4218309999999998
57,0.42183,0.8398389999999999,-0.341647,-0.904587,-1.308192,1.782458
58,0.4238189999999999,0.826061,-0.371476,-0.388007,1.131184,0.633759
59,0.440268,0.817712,-0.370817,-0.4924229999999999,1.058143,0.203382
60,0.432288,0.83199,-0.347725,-0.473517,0.054301,1.225655
61,0.407876,0.860908,-0.304084,-0.056207,0.8272940000000001,0.902106
62,0.355803,0.8987379999999999,-0.256254,0.466966,1.465596,0.850676
63,0.310965,0.921362,-0.233204,2.28988,1.649515,0.1577339999999999
64,0.301959,0.93999,-0.158838,2.077619,0.697873,-0.836233
65,0.288946,0.953335,-0.087482,1.069071,0.614079,-0.934415
66,0.282777,0.958944,-0.021273,0.688063,0.6008859999999999,0.223543
67,0.273008,0.961028,0.043361,-0.668654,-0.2057639999999999,-0.598155
68,0.246796,0.965448,0.0836129999999999,-0.642441,-0.2101829999999999,-0.638407
69,0.2216469999999999,0.968363,0.1146,-0.727308,-0.95045,-0.98548
70,0.2043869999999999,0.969157,0.137655,0.604024,-1.197077,-0.5376489999999999
71,0.199009,0.968612,0.1489079999999999,0.437511,-1.1833790000000002,-0.8903780000000001
72,0.208335,0.968566,0.135878,0.041405,-1.080184,-0.493605
73,0.2211,0.969753,0.103352,-0.069595,-1.203655,-0.063053
74,0.238577,0.969788,0.050804,-0.080496,-1.232148,0.0456769999999999
75,0.264753,0.964166,-0.016677,0.197191,-0.654245,-0.038712
76,0.297925,0.950764,-0.085312,0.309741,0.0589409999999999,0.046173
77,0.337431,0.928745,-0.153501,0.34604,2.082867,-0.215579
78,0.370263,0.898066,-0.237433,0.422355,3.504446,-0.070703
79,0.378585,0.8702350000000001,-0.315209,0.0816809999999999,2.90749,-0.0632549999999999
80,0.372741,0.838455,-0.397555,0.429963,1.632721,0.27283
81,0.379634,0.7928970000000001,-0.476641,1.093938,1.325557,0.106722
82,0.388538,0.746355,-0.540358,1.179898,0.75894,-0.170488
83,0.369724,0.721089,-0.5859439999999999,0.757504,0.225185,0.140509
84,0.334844,0.715824,-0.612758,0.0161539999999999,-0.2410769999999999,0.356608
85,0.302919,0.7225550000000001,-0.62141,-0.679689,-0.8279629999999999,0.8698540000000001
86,0.291283,0.73935,-0.607051,-0.875984,-1.206712,1.297374
87,0.299172,0.769571,-0.564138,-1.040581,-1.4869629999999998,1.674566
88,0.324967,0.807196,-0.492774,-1.125794,-1.261343,1.624015
89,0.364726,0.83554,-0.410904,-1.026057,-0.848159,0.6255189999999999
90,0.379904,0.85111,-0.362324,-0.199423,-0.137319,-0.730969
91,0.372478,0.8476870000000001,-0.377731,1.393437,0.582733,-1.465363
92,0.395421,0.8271069999999999,-0.399412,1.417583,-0.0687909999999999,0.338957
93,0.427981,0.820068,-0.379888,-0.140307,-1.125228,1.704351
94,0.4509609999999999,0.8032779999999999,-0.3890659999999999,-0.809009,0.198721,1.05737
95,0.461714,0.772125,-0.436621,-0.29579,0.548462,0.325812
96,0.4831479999999999,0.780155,-0.397391,-0.8896430000000001,-0.642796,1.085013
97,0.486461,0.7935800000000001,-0.365487,-0.45956,0.298385,0.805337
98,0.4755729999999999,0.818231,-0.322988,0.0431649999999999,1.287955,0.121465
99,0.438338,0.856876,-0.271321,0.245256,0.983211,0.4789479999999999
100,0.379527,0.8948659999999999,-0.234875,0.808385,1.18097,0.692044
101,0.33987,0.922834,-0.181267,2.277607,1.558092,0.134026
102,0.321436,0.94069,-0.108498,1.775915,0.796172,-0.627143
103,0.311944,0.949352,-0.037581,0.823142,0.749211,-0.508897
104,0.303827,0.95224,0.030294,0.320472,0.274582,-0.007421
105,0.284105,0.955176,0.083137,-0.937639,-0.516776,-0.650962
106,0.255275,0.958761,0.124894,-0.580852,-0.956518,-1.223222
107,0.234612,0.960567,0.1491849999999999,0.6711189999999999,-1.143016,-0.455001
108,0.2199969999999999,0.963208,0.154333,0.4637489999999999,-1.175351,-0.358862
109,0.2200239999999999,0.965687,0.137938,-0.009285,-1.148533,-0.514113
110,0.22573,0.968734,0.1029009999999999,-0.0723029999999999,-1.212173,-0.463375
111,0.2347969999999999,0.970694,0.051106,0.030431,-1.2474120000000002,-0.04897
112,0.25286,0.967357,-0.016474,0.279916,-0.7526510000000001,-0.151724
113,0.278476,0.956485,-0.0870529999999999,0.3341949999999999,-0.366137,-0.026061
114,0.3084909999999999,0.938441,-0.15541,0.208416,-0.064082,0.266113
115,0.339766,0.912351,-0.228399,0.39647,2.250079,0.0104269999999999
116,0.37011,0.879157,-0.300156,0.32238,3.745965,-0.362045
117,0.3815989999999999,0.846601,-0.371,0.298226,2.969164,-0.2461269999999999
118,0.383997,0.805874,-0.4506739999999999,1.066473,1.337482,0.256109
119,0.394286,0.757115,-0.520874,1.187119,1.010387,-0.16539
120,0.3886739999999999,0.722681,-0.571541,1.031018,0.789495,-0.058403
121,0.360983,0.708244,-0.606693,0.027613,0.0221479999999999,0.453312
122,0.328806,0.708129,-0.624848,-0.615687,-0.547027,0.672059
123,0.304766,0.72001,-0.6234569999999999,-0.932757,-1.119714,0.8403299999999999
124,0.300933,0.744922,-0.59542,-0.8773639999999999,-1.48949,1.085075
125,0.306179,0.780349,-0.5452560000000001,-0.958736,-1.608276,1.678221
126,0.3290949999999999,0.8200370000000001,-0.4682189999999999,-1.0962459999999998,-1.458159,1.807407
127,0.365657,0.8450139999999999,-0.390177,-0.824169,-0.678556,0.30453
128,0.3776199999999999,0.8545709999999999,-0.356516,0.2974739999999999,0.173612,-0.8965049999999999
129,0.371962,0.8407370000000001,-0.393444,1.630709,0.99871,-1.426701
130,0.394422,0.81609,-0.422401,0.983462,-0.559315,0.182319
131,0.441109,0.805768,-0.395163,-0.41697,-1.201047,2.07305
132,0.47245,0.805272,-0.358218,-1.057777,-0.066976,1.273333
133,0.4488689999999999,0.780749,-0.434674,-0.252015,1.583509,1.179272
134,0.4713739999999999,0.796886,-0.377852,-1.042373,0.213047,-0.012056
135,0.466755,0.809683,-0.355734,-1.039616,-0.2158719999999999,0.022512
136,0.45387,0.8371799999999999,-0.305162,-0.295591,0.8968440000000001,0.7827770000000001
137,0.4303109999999999,0.86565,-0.2558809999999999,0.30675,1.487606,0.616324
138,0.3986099999999999,0.893431,-0.20708,1.382884,1.629533,0.551852
139,0.392828,0.908533,-0.142285,2.707865,1.342581,-0.247058
140,0.372847,0.924704,-0.076795,1.795869,0.5162140000000001,-0.8329489999999999
141,0.355751,0.934519,-0.01027,0.63279,0.555899,-0.8760680000000001
142,0.344066,0.938099,0.039711,0.376896,0.149395,-0.080696
143,0.318069,0.943719,0.090633,-0.574066,-0.391015,0.538304
144,0.274404,0.953514,0.1245069999999999,-1.114797,-1.072334,-1.541453
145,0.247691,0.957719,0.146325,-0.115504,-1.030183,-0.956399
146,0.233987,0.959297,0.15807,0.415671,-1.180321,-0.352025
147,0.237773,0.959413,0.151588,0.2188159999999999,-1.2246709999999998,-0.462455
148,0.2445639999999999,0.96225,0.1193839999999999,-0.085354,-0.982544,-0.373732
149,0.25797,0.964309,0.059573,-0.108113,-0.790374,-0.4528689999999999
150,0.276932,0.960835,-0.009717,-0.085739,-0.73563,-0.348468
151,0.297828,0.950814,-0.085102,0.353616,-0.123513,0.318775
152,0.323601,0.931702,-0.164938,0.299964,0.131424,0.39623
153,0.365568,0.90076,-0.234487,0.520876,1.889295,0.158452
154,0.408375,0.8654790000000001,-0.290116,0.4686689999999999,2.995559,-0.6200100000000001
155,0.427189,0.8260430000000001,-0.367635,0.4275319999999999,2.512641,-0.412181
156,0.4316439999999999,0.785983,-0.442614,0.952679,1.263562,0.289873
157,0.437114,0.7437520000000001,-0.505726,1.113942,0.731086,-0.117764
158,0.42018,0.718024,-0.554875,0.956331,0.554407,0.111027
159,0.386255,0.710689,-0.587982,0.3087519999999999,0.133183,0.3957219999999999
160,0.345645,0.7167060000000001,-0.605687,-0.6827270000000001,-0.739884,0.796559
161,0.309969,0.73196,-0.606754,-0.72304,-0.962901,0.981342
162,0.29817,0.755792,-0.582982,-0.920653,-1.460184,1.439641
163,0.301942,0.790237,-0.533246,-1.095888,-1.348189,2.044065
164,0.323752,0.8266180000000001,-0.460305,-1.260245,-0.8952370000000001,1.058098
165,0.344675,0.845959,-0.4068739999999999,-0.477304,-0.147655,-0.3542949999999999
166,0.350197,0.845368,-0.4033719999999999,1.537239,0.382294,-1.432565
167,0.367749,0.82096,-0.4367819999999999,1.534884,0.00361,-0.246125
168,0.412731,0.809268,-0.418009,0.100544,-0.8659549999999999,2.48411
169,0.4441729999999999,0.806024,-0.391189,-0.4400529999999999,0.919272,0.121322
170,0.4321529999999999,0.781057,-0.450763,-0.3412409999999999,0.344431,0.7086359999999999
171,0.4594939999999999,0.790518,-0.404896,-0.83283,-0.789083,0.878178
172,0.463906,0.807134,-0.365127,-0.399209,0.391855,1.034103
173,0.440988,0.8397209999999999,-0.316846,0.1130289999999999,1.107164,0.238081
174,0.4006699999999999,0.8745950000000001,-0.273017,0.37849,1.219964,0.535713
175,0.340779,0.908909,-0.240302,1.3629870000000002,1.768962,0.326575
176,0.3043679999999999,0.934789,-0.183083,2.312057,1.334055,-0.350547
177,0.296993,0.948179,-0.1128779999999999,1.22588,0.379534,-0.6786409999999999
178,0.299484,0.953411,-0.036144,0.666642,0.6229600000000001,-0.175343
179,0.288154,0.957113,0.029833,-0.651054,-0.2082719999999999,-0.018206
180,0.261813,0.962392,0.072404,-0.913592,-0.624792,-0.610139
181,0.2340469999999999,0.966795,0.102547,-0.8685379999999999,-1.046401,-0.750099
182,0.2174579999999999,0.966194,0.13845,0.534099,-1.035148,-0.7108369999999999
183,0.217201,0.962802,0.160692,0.10273,-1.040271,-0.72835
184,0.234629,0.959554,0.1555369999999999,-0.086756,-1.126836,-0.543339
185,0.2489739999999999,0.96142,0.116919,-0.120602,-0.899683,-0.226492
186,0.259469,0.964013,0.057814,0.033851,-0.912698,-0.282118
187,0.279649,0.960066,-0.007571,0.412047,-0.413954,0.0715669999999999
188,0.303845,0.949043,-0.083577,0.303852,-0.001594,0.31046
189,0.336805,0.928571,-0.155908,0.258914,0.91733,0.11944
190,0.378504,0.8977860000000001,-0.225179,0.309224,2.222789,-0.261607
191,0.40213,0.8645139999999999,-0.301494,0.427734,2.935931,0.013866
192,0.42065,0.8258479999999999,-0.375527,0.8776440000000001,1.69498,0.213738
193,0.434164,0.778216,-0.453735,1.356196,1.236204,0.14653
194,0.447903,0.729398,-0.517065,1.145771,0.4997279999999999,-0.131098
195,0.4297979999999999,0.7030350000000001,-0.5665789999999999,0.717389,0.211455,0.366582
196,0.3881179999999999,0.698342,-0.6013970000000001,0.222188,-0.072548,0.5705899999999999
197,0.351244,0.70489,-0.616241,-0.931292,-1.072902,0.976531
198,0.330596,0.72115,-0.6088060000000001,-1.179274,-1.389515,1.263103
199,0.332226,0.751145,-0.57044,-1.081143,-1.59433,1.497991
200,0.349884,0.7932899999999999,-0.498264,-1.334152,-1.315857,1.7699919999999998
201,0.380627,0.826658,-0.414431,-1.254666,-0.711942,0.515658
202,0.394516,0.842723,-0.366291,0.618424,0.33225,-1.155392
203,0.395607,0.8394219999999999,-0.372637,1.422981,0.926157,-2.1953720000000003
204,0.403906,0.813901,-0.417634,1.528726,0.081683,0.253465
205,0.4397149999999999,0.8039189999999999,-0.400447,-0.360598,0.278051,1.135143
206,0.459657,0.791317,-0.403145,-0.305223,1.360889,0.456139
207,0.4626909999999999,0.764935,-0.4480909999999999,-0.8834059999999999,-0.748181,0.742265
208,0.495635,0.767884,-0.405823,-0.556426,0.272155,1.26146
209,0.508748,0.78082,-0.362614,-0.388357,0.865909,0.93285
210,0.48375,0.8224889999999999,-0.299148,-0.009889,1.374486,0.5830069999999999
211,0.428952,0.867606,-0.2515,0.850925,1.873971,0.488591
212,0.368825,0.901135,-0.227848,2.352122,1.364291,0.070103
213,0.339514,0.926078,-0.16462,2.28924,0.989571,-0.577872
214,0.333095,0.937838,-0.097452,0.896977,0.776502,-0.346091
215,0.336871,0.941192,-0.0258009999999999,0.695523,0.75168,0.081571
216,0.32316,0.945804,0.031817,-0.290369,-0.1054869999999999,-0.158816
217,0.294533,0.952939,0.071741,-0.7728659999999999,-1.126004,-0.5101100000000001
218,0.265239,0.958553,0.103988,0.3819929999999999,-1.307887,-0.633574
219,0.244721,0.959278,0.141018,0.391891,-1.0746950000000002,-0.801601
220,0.2352409999999999,0.957402,0.167421,0.118198,-1.014836,-0.639772
221,0.242733,0.956108,0.16409,-0.1631119999999999,-1.032341,-0.5164310000000001
222,0.2534409999999999,0.959018,0.1266509999999999,-0.218651,-0.965518,-0.250324
223,0.262466,0.962261,0.071793,0.090882,-1.0100360000000002,-0.154252
224,0.279782,0.959958,0.013905,0.551029,-0.5862390000000001,-0.033391
225,0.307982,0.94995,-0.052279,0.3044139999999999,-0.128325,0.166384
226,0.344549,0.931568,-0.116004,0.238901,0.718075,0.0210939999999999
227,0.387423,0.902605,-0.187612,0.590741,3.359236,-0.068781
228,0.4100689999999999,0.8720969999999999,-0.266989,0.377895,3.241063,-0.12417
229,0.416796,0.842456,-0.341384,0.4832439999999999,2.0085580000000003,0.138
230,0.408618,0.805996,-0.428247,1.4044,1.20348,0.365869
231,0.430156,0.751225,-0.500622,1.511159,0.994793,0.010601
232,0.428575,0.712937,-0.555014,0.7158800000000001,0.190109,0.159017
233,0.399069,0.6984520000000001,-0.594057,-0.125555,-0.233502,0.5389729999999999
234,0.3564739999999999,0.699835,-0.6189939999999999,-0.7701399999999999,-1.012732,0.908865
235,0.321432,0.712036,-0.624246,-1.107168,-1.499633,1.331338
236,0.3079409999999999,0.738776,-0.599482,-1.131382,-1.756598,1.75738
237,0.317056,0.779094,-0.540817,-1.346688,-1.47935,1.949677
238,0.348017,0.816606,-0.460471,-1.4142709999999998,-1.189515,1.380774
239,0.369383,0.835507,-0.406789,-0.093123,-0.171643,-0.334132
240,0.372147,0.837534,-0.400047,1.447906,0.7178859999999999,-2.0299
241,0.377079,0.815347,-0.439334,1.904064,1.048652,-1.23013
242,0.403764,0.8015100000000001,-0.441079,-0.495118,-1.126049,2.288155
243,0.4424659999999999,0.796963,-0.411178,-0.815665,0.027545,1.586486
244,0.438505,0.77171,-0.460621,-0.689588,1.58823,-0.835628
245,0.455657,0.76462,-0.455772,-1.048354,-0.568056,0.612083
246,0.476401,0.771898,-0.420963,-0.604224,0.149382,1.175342
247,0.472103,0.794466,-0.382015,0.020847,1.098036,0.625911
248,0.44497,0.831765,-0.331906,0.2610389999999999,1.2927620000000002,0.55975
249,0.402632,0.867445,-0.2922639999999999,0.923967,1.773302,0.515423
250,0.3577079999999999,0.902087,-0.241401,2.225543,1.130735,-0.626031
251,0.329583,0.92719,-0.178001,1.700386,0.639232,-0.8481219999999999
252,0.32032,0.941185,-0.107491,1.091667,0.536659,-0.249092
253,0.318055,0.947341,-0.037061,-0.208176,-0.259002,0.150495
254,0.303663,0.95233,0.029054,-0.983976,-0.130247,-0.672243
255,0.278093,0.957949,0.070604,-1.074236,-0.964769,-0.8317120000000001
256,0.2529389999999999,0.96173,0.1052829999999999,0.545249,-1.172102,-0.672833
257,0.237161,0.96257,0.13115,0.408087,-1.179229,-0.730576
258,0.242194,0.961624,0.128872,0.074197,-1.14241,-0.444302
259,0.250564,0.963704,0.092087,0.026367,-0.939106,-0.255295
260,0.257983,0.965594,0.0325639999999999,0.00575,-0.989123,-0.054735
261,0.2716409999999999,0.961992,-0.027786,0.095287,-0.992235,-0.134415
262,0.2922599999999999,0.951784,-0.093177,0.390129,-0.540651,0.1921759999999999
263,0.317453,0.934412,-0.161521,0.353995,-0.02543,0.281775
264,0.352021,0.908449,-0.225372,0.386474,1.26132,0.195678
265,0.384225,0.8736719999999999,-0.29843,0.321479,3.567002,-0.427964
266,0.397248,0.838124,-0.373812,0.214813,1.766002,-0.092039
267,0.390664,0.799227,-0.45674,0.96955,1.134291,0.387252
268,0.408482,0.750369,-0.519696,1.45628,0.748746,-0.216648
269,0.421047,0.710579,-0.5637300000000001,0.943165,0.204033,0.122706
270,0.398537,0.6967949999999999,-0.596357,-0.006722,-0.125002,0.5251439999999999
271,0.360598,0.700704,-0.615613,-0.822649,-0.755544,0.836957
272,0.329058,0.714634,-0.617264,-1.184801,-1.414448,1.053971
273,0.318247,0.740205,-0.5922930000000001,-1.075922,-1.692902,1.377083
274,0.3226239999999999,0.781582,-0.5338890000000001,-1.126182,-1.330487,1.771362
275,0.33931,0.822752,-0.456007,-1.191178,-0.788801,0.978528
276,0.355633,0.8443450000000001,-0.400748,-0.401959,0.001022,-0.4135529999999999
277,0.35236,0.844075,-0.4041949999999999,1.354443,0.955211,-2.283656
278,0.3486889999999999,0.81587,-0.461265,1.717183,-0.049437,0.18177
279,0.384902,0.7978310000000001,-0.464014,0.278733,-0.900294,2.246622
280,0.430004,0.796143,-0.425731,-0.468013,0.7166899999999999,1.185817
281,0.445164,0.767584,-0.461126,-1.170261,-0.025565,-0.209208
282,0.455422,0.76056,-0.4627439999999999,-0.97384,-1.049958,1.854941
283,0.472254,0.774524,-0.420811,-0.411447,0.8066220000000001,1.034153
284,0.468055,0.802941,-0.369057,-0.107963,1.23481,0.8187949999999999
285,0.438205,0.8430129999999999,-0.311926,0.511761,1.541356,0.502844
286,0.394419,0.871416,-0.291648,1.440893,1.7763650000000002,0.342155
287,0.364736,0.898266,-0.245106,2.038508,0.827793,-0.595684
288,0.362119,0.915457,-0.175496,1.472414,0.461206,-0.847834
289,0.360212,0.92739,-0.100919,1.003634,0.4906399999999999,-0.959093
290,0.354423,0.933977,-0.045397,0.35894,0.079253,0.743304
291,0.339782,0.940314,0.018599,-0.996154,-0.496054,-0.884733
292,0.30954,0.949142,0.057473,-0.279892,-1.218749,-0.688226
293,0.28192,0.954164,0.100399,0.519411,-1.202043,-0.7020529999999999
294,0.261876,0.955977,0.132344,0.405895,-1.169311,-0.663381
295,0.255104,0.95676,0.139714,0.0399399999999999,-1.128925,-0.368016
296,0.262114,0.95847,0.1123369999999999,0.007448,-1.186817,-0.382952
297,0.2706179999999999,0.960903,0.058482,-0.0111569999999999,-0.993541,-0.347209
298,0.286929,0.957946,0.000695,0.178647,-0.662688,-0.6501239999999999
299,0.315176,0.947455,-0.0546139999999999,0.031199,-0.620337,0.343646
300,0.334757,0.934535,-0.120716,0.50556,-0.09756,0.603168
301,0.341576,0.918495,-0.199207,0.71363,1.405769,0.504596
302,0.369981,0.887194,-0.275669,1.0281209999999998,5.285627,-0.789241
303,0.399529,0.854884,-0.330973,0.3563449999999999,4.174184,-0.703024
304,0.377523,0.823109,-0.4242189999999999,0.2114349999999999,0.956524,0.4640439999999999
305,0.376381,0.7739699999999999,-0.5092180000000001,0.7106560000000001,0.926195,0.366946
306,0.40597,0.723748,-0.558008,1.023336,0.655662,0.024988
307,0.408677,0.689391,-0.598096,0.6126550000000001,0.022935,0.367078
308,0.383685,0.678559,-0.62637,-0.283511,-0.656068,0.577389
309,0.347305,0.686658,-0.638652,-0.979827,-1.130628,0.8809469999999999
310,0.32586,0.704872,-0.630053,-0.985177,-1.401284,1.038622
311,0.326138,0.7358180000000001,-0.5934659999999999,-0.954205,-1.400033,1.367697
312,0.333122,0.776638,-0.534658,-0.948844,-0.938488,1.775045
313,0.351342,0.812632,-0.464955,-0.8989799999999999,-0.566141,0.970082
314,0.376302,0.8290959999999999,-0.41351,-0.227651,0.315267,-0.431583
315,0.381393,0.8212079999999999,-0.424443,1.538804,0.6854140000000001,-1.78622
316,0.391029,0.7849149999999999,-0.480625,1.5170370000000002,-0.668292,0.10587
317,0.44391,0.770602,-0.457287,-0.471879,-0.385287,2.479016
318,0.4626729999999999,0.767291,-0.444065,-0.552883,1.345136,-0.170407
319,0.477279,0.74248,-0.470024,-1.192978,-0.688571,-0.275734
320,0.503013,0.746764,-0.435105,-0.621634,-0.094161,1.238312
321,0.506962,0.759963,-0.4067429999999999,-0.433079,0.437791,0.8725940000000001
322,0.498038,0.78904,-0.359677,0.299081,1.32096,0.336819
323,0.469833,0.8311129999999999,-0.297492,0.821839,1.5555450000000002,0.389579
324,0.416929,0.8704770000000001,-0.261596,2.131197,1.664618,0.374511
325,0.387826,0.897489,-0.2099909999999999,2.577002,1.516161,0.058822
326,0.380028,0.915207,-0.13404,0.831917,0.549072,-0.569344
327,0.376837,0.924117,-0.06319,0.568567,0.556565,0.329059
328,0.36868,0.929549,-0.002044,0.2162659999999999,0.213151,0.688338
329,0.341682,0.938582,0.048036,-0.632332,-0.882918,-0.797944
330,0.311521,0.946065,0.088917,0.2378559999999999,-1.1791120000000002,-0.775913
331,0.288593,0.949112,0.126053,0.724102,-1.167481,-0.666397
332,0.274052,0.951658,0.138679,0.118771,-1.100294,-0.401466
333,0.281185,0.95218,0.119491,0.096256,-1.135285,-0.5087119999999999
334,0.2998989999999999,0.951324,0.07095,0.0600559999999999,-1.165038,-0.527753
335,0.32054,0.947176,0.010208,0.0021379999999999,-1.050767,-0.1035609999999999
336,0.346564,0.936087,-0.060214,0.503076,-0.4893399999999999,0.053897
337,0.381865,0.913622,-0.139525,0.518053,-0.135942,0.125808
338,0.422426,0.885383,-0.194023,0.380567,1.204552,-0.128013
339,0.441067,0.8541639999999999,-0.275423,0.286808,3.834893,0.035905
340,0.430835,0.827076,-0.360998,-0.024189,2.317943,-0.01977
341,0.409181,0.79642,-0.445289,0.290923,1.752805,0.3785469999999999
342,0.40191,0.743438,-0.534568,1.471625,1.094666,0.275871
343,0.405073,0.68699,-0.6032890000000001,1.142824,0.323859,-0.086927
344,0.381156,0.657903,-0.649523,0.571969,0.13801,0.240298
345,0.336443,0.654393,-0.677181,-0.255846,-0.5550579999999999,0.623638
346,0.291607,0.666441,-0.686163,-1.021863,-1.2942790000000002,1.004186
347,0.269687,0.6894060000000001,-0.672299,-0.978503,-1.546202,1.449597
348,0.279321,0.721362,-0.633731,-0.932122,-1.639117,1.83121
349,0.3135429999999999,0.7657619999999999,-0.561511,-1.125311,-0.953049,1.5712620000000002
350,0.367009,0.803717,-0.468337,-0.765004,-0.179449,-0.060945
351,0.390682,0.8193239999999999,-0.419608,-0.1756849999999999,0.2277949999999999,-0.758447
352,0.376426,0.8102229999999999,-0.449262,1.433556,0.640323,-0.5351130000000001
353,0.382244,0.784012,-0.4890899999999999,0.5271640000000001,-0.974061,1.158143
354,0.419955,0.780172,-0.463643,-0.741366,-1.257559,2.123784
355,0.4475689999999999,0.7788510000000001,-0.439396,-0.597166,1.190311,-0.158993
356,0.4445729999999999,0.761995,-0.470865,-0.357979,1.326109,1.015421
357,0.463664,0.764598,-0.447661,-0.858592,-0.931697,-0.316728
358,0.466154,0.779744,-0.417966,-0.382917,0.352809,1.186094
359,0.455264,0.8030609999999999,-0.384478,0.117506,1.124017,0.978106
360,0.427167,0.840151,-0.334171,1.040911,1.648726,0.984607
361,0.395821,0.8691479999999999,-0.296484,2.370811,1.455315,0.604589
362,0.387764,0.88946,-0.241855,1.986839,0.8054100000000001,-0.3453489999999999
363,0.395106,0.906832,-0.146769,0.836324,0.44586,-1.339376
364,0.401805,0.913299,-0.066566,0.5846140000000001,0.661485,-0.4108199999999999
365,0.395739,0.917987,-0.026154,-0.054247,-0.1049829999999999,0.991227
366,0.375898,0.926092,0.032371,-1.622922,-0.338842,-1.222724
367,0.33812,0.939629,0.052572,-0.939042,-0.664254,-0.801504
368,0.306678,0.948417,0.08029,0.7991560000000001,-1.146506,-0.315153
369,0.28229,0.95518,0.0890799999999999,0.394879,-1.340083,-0.55429
370,0.278325,0.957359,0.077411,0.201991,-1.306083,-0.368243
371,0.288772,0.956274,0.046314,-0.0234979999999999,-1.330175,-0.318561
372,0.306826,0.951761,-0.001437,0.020201,-1.245447,-0.218488
373,0.331377,0.941253,-0.065005,0.255582,-1.002151,0.015215
374,0.362881,0.921495,-0.138417,0.437961,0.309417,0.309361
375,0.4057139999999999,0.892892,-0.1952809999999999,0.479433,0.821464,0.354796
376,0.4434439999999999,0.858891,-0.256239,0.630088,1.861125,-0.005816
377,0.458678,0.819349,-0.343916,0.282091,2.736834,-0.287661
378,0.465247,0.780622,-0.417336,0.675683,1.874087,0.1290059999999999
379,0.475688,0.727639,-0.494225,1.063802,1.243629,0.307687
380,0.48705,0.671834,-0.558049,0.942592,0.146205,0.2103159999999999
381,0.463959,0.647813,-0.604216,0.533874,0.094298,0.45941
382,0.419159,0.648779,-0.63513,0.073151,-0.128408,0.611051
383,0.373835,0.663343,-0.6482439999999999,-1.309123,-1.253111,1.121358
384,0.3493969999999999,0.686396,-0.637793,-1.41208,-1.380305,1.28179
385,0.350726,0.7247060000000001,-0.593118,-1.364215,-1.7016349999999998,2.115091
386,0.375976,0.775095,-0.5078050000000001,-1.413849,-1.041788,1.474236
387,0.407059,0.807914,-0.4261149999999999,-0.903244,-0.336509,-0.140855
388,0.410405,0.819292,-0.400404,0.637584,0.205168,-1.334459
389,0.4038469999999999,0.801844,-0.4403979999999999,1.75869,1.005896,-0.9377
390,0.417705,0.7813220000000001,-0.463739,0.901371,-0.6558189999999999,0.7602939999999999
391,0.448269,0.782225,-0.432637,-0.632946,-1.155531,2.0162400000000003
392,0.46434,0.773245,-0.43183,-0.378784,1.668955,-1.397668
393,0.4524649999999999,0.7550720000000001,-0.474488,-0.6662859999999999,-0.0155699999999999,0.966355
394,0.487551,0.77068,-0.410296,-0.6441359999999999,0.101528,1.004305
395,0.500255,0.78875,-0.357232,-0.408382,0.69262,0.651909
396,0.488429,0.8164939999999999,-0.307846,-0.060542,1.275684,0.5203399999999999
397,0.450014,0.852708,-0.265276,0.8231940000000001,1.518402,0.70714
398,0.387559,0.888659,-0.245106,1.455641,1.602994,0.7020609999999999
399,0.355241,0.915975,-0.186515,2.188308,1.034831,-0.514749
400,0.355673,0.92796,-0.111264,1.001032,0.4281189999999999,-0.717791
401,0.360227,0.931731,-0.045906,0.671221,-0.110869,0.443885
402,0.353109,0.935567,0.004593,-0.7665770000000001,-0.4440659999999999,-0.6398010000000001
403,0.330743,0.94191,0.05837,-0.6794520000000001,-0.95752,-0.758367
404,0.301323,0.948445,0.098228,0.557991,-0.999852,-0.672172
405,0.277978,0.95129,0.133294,0.1733,-1.118099,-0.875649
406,0.2662199999999999,0.954592,0.133694,0.086716,-0.83449,-0.124615
407,0.2655659999999999,0.959693,0.091958,0.040891,-1.116783,-0.4613279999999999
408,0.276358,0.960343,0.036897,-0.062521,-1.257996,-0.325364
409,0.295506,0.955317,-0.006205,0.143963,-1.10937,-0.2281389999999999
410,0.325351,0.943146,-0.06795,0.361509,-0.53157,0.268786
411,0.357319,0.922553,-0.14565,0.36578,-0.02642,0.415822
412,0.39081,0.896551,-0.20847,0.804427,1.7053630000000002,0.38535
413,0.432597,0.862358,-0.263046,0.897466,4.063651999999999,-0.162185
414,0.4545979999999999,0.8214299999999999,-0.344368,0.095481,2.9361080000000004,-0.348275
415,0.446113,0.783747,-0.432112,0.56672,1.479773,0.478362
416,0.4623069999999999,0.73114,-0.5017,1.905781,0.4591369999999999,-0.17019
417,0.484321,0.674244,-0.5575180000000001,1.523919,0.4213369999999999,-0.056084
418,0.463132,0.650971,-0.6014510000000001,0.310825,-0.1118779999999999,0.3346969999999999
419,0.4177369999999999,0.650932,-0.633862,-1.040494,-1.25219,1.010342
420,0.375558,0.666629,-0.643863,-1.350884,-1.381259,1.185062
421,0.3643099999999999,0.696226,-0.618503,-1.516104,-1.345533,1.25896
422,0.383272,0.736895,-0.5568529999999999,-1.62314,-1.28171,2.051329
423,0.412691,0.777507,-0.474516,-1.550249,-0.6049760000000001,1.192366
424,0.430192,0.802303,-0.413812,-1.325028,-0.309063,0.554483
425,0.418452,0.816971,-0.396803,1.699742,0.699249,-1.7246419999999998
426,0.407651,0.803946,-0.4329979999999999,2.21062,0.859506,-0.709412
427,0.443013,0.77696,-0.447291,1.925288,-0.096357,0.2043869999999999
428,0.489043,0.773555,-0.403045,-0.029616,1.559086,0.142119
429,0.510879,0.74442,-0.429928,-0.5441739999999999,1.436137,0.98576
430,0.523858,0.720334,-0.45463,-1.1353540000000002,0.03313,0.013758
431,0.52846,0.734761,-0.425268,-0.587587,0.483302,1.149527
432,0.536862,0.764353,-0.357128,-0.422543,1.031576,0.7629199999999999
433,0.5134,0.805922,-0.294797,-0.347659,1.374742,0.658246
434,0.473146,0.8410280000000001,-0.262297,0.786863,1.437994,0.5426770000000001
435,0.422212,0.869625,-0.2559,1.841185,1.517643,0.174388
436,0.40196,0.896642,-0.185625,2.224658,1.201671,-0.256559
437,0.405059,0.907639,-0.1100599999999999,1.304078,0.422912,-0.996782
438,0.40906,0.911444,-0.043981,0.91847,0.262232,0.222951
439,0.4062139999999999,0.913763,0.004579,-1.026804,-0.315756,-0.96248
440,0.380716,0.923208,0.052307,-1.395807,-0.734517,-0.786133
441,0.350802,0.932718,0.083474,0.274458,-1.182214,-0.706155
442,0.326635,0.938144,0.114838,0.285456,-1.183276,-0.64122
443,0.314705,0.940997,0.124411,0.0895,-1.101321,-0.593802
444,0.318771,0.943316,0.092374,-0.156174,-1.080919,-0.363385
445,0.328238,0.943718,0.040609,-0.0578679999999999,-1.158501,-0.2515469999999999
446,0.346988,0.937855,-0.004438,0.09831,-0.928715,-0.604571
447,0.3784119999999999,0.923539,-0.06224,0.108832,-0.7223970000000001,-0.286408
448,0.410701,0.901184,-0.138512,0.380604,-0.176681,0.6107560000000001
449,0.4369989999999999,0.874044,-0.212305,0.440259,0.257945,0.6450739999999999
450,0.474091,0.8424299999999999,-0.256017,1.008743,2.74366,0.004262
451,0.507315,0.799345,-0.321983,0.2026,3.296876,-0.433312
452,0.503499,0.757882,-0.4148479999999999,0.413188,1.325461,0.466346
453,0.5150319999999999,0.706023,-0.486076,1.360303,0.739915,0.24781
454,0.535625,0.649036,-0.5402359999999999,1.348591,0.4638029999999999,0.184278
455,0.5248229999999999,0.615645,-0.5878260000000001,0.4222899999999999,0.244188,0.420712
456,0.4925609999999999,0.6065189999999999,-0.624112,-0.5438609999999999,-0.295011,0.6171840000000001
457,0.4515119999999999,0.613304,-0.648068,-1.236591,-0.803322,0.8988459999999999
458,0.425177,0.6304109999999999,-0.649465,-1.250784,-1.337732,1.114614
459,0.428902,0.658914,-0.617958,-1.23272,-1.552042,1.475273
460,0.443752,0.704254,-0.554172,-1.305966,-1.100753,1.829502
461,0.4708,0.745012,-0.472547,-1.263295,-0.492738,0.514066
462,0.482888,0.765203,-0.425768,0.03379,0.155848,-0.729444
463,0.46941,0.760872,-0.4480229999999999,1.819713,0.8628620000000001,-1.478659
464,0.4750939999999999,0.724184,-0.499839,1.347461,-0.581133,0.1482609999999999
465,0.5256770000000001,0.710561,-0.467721,0.363407,-0.8196760000000001,1.631539
466,0.55207,0.707942,-0.4404899999999999,-0.508949,1.433552,-0.626542
467,0.541553,0.687918,-0.483202,-1.038471,-0.681754,1.480822
468,0.561362,0.702704,-0.437122,-0.686469,-0.171668,1.7044549999999998
469,0.559966,0.731254,-0.389489,-0.5488430000000001,0.485147,1.15136
470,0.536204,0.775505,-0.333276,0.4800609999999999,1.581765,0.439828
471,0.496877,0.818276,-0.289021,0.83015,1.630531,0.526691
472,0.452046,0.849353,-0.272486,1.14976,1.536649,0.548578
473,0.4260649999999999,0.8809819999999999,-0.205752,1.44927,0.36261,-0.592695
474,0.425109,0.895803,-0.129668,1.147996,0.310557,-0.787568
475,0.427567,0.902064,-0.058819,0.985396,0.294026,-0.7370479999999999
476,0.427409,0.903938,-0.014497,-0.7513380000000001,-0.3569719999999999,-0.4954979999999999
477,0.417667,0.907712,0.040075,-1.179889,-0.424573,-1.072729
478,0.390922,0.91762,0.071735,-0.7452,-0.8195209999999999,-0.773364
479,0.36661,0.92527,0.097282,0.369245,-1.022652,-0.673362
480,0.349725,0.931386,0.101023,0.032676,-1.1066790000000002,-0.422464
481,0.347516,0.935006,0.070633,-0.0633669999999999,-1.157693,-0.253326
482,0.356761,0.933856,0.025047,-0.083553,-1.265369,-0.324363
483,0.377131,0.925948,-0.0196539999999999,0.0230919999999999,-1.05342,-0.5029899999999999
484,0.409015,0.90852,-0.085397,0.4319119999999999,-0.400509,0.19079
485,0.4363939999999999,0.8833799999999999,-0.1708609999999999,0.47039,-0.0619539999999999,0.486
486,0.4591119999999999,0.8540040000000001,-0.244721,0.66778,0.740189,0.6879430000000001
487,0.503636,0.8155,-0.285142,0.5783189999999999,4.049414,-0.759505
488,0.530199,0.765461,-0.364629,0.226621,3.382274,-0.138423
489,0.5369550000000001,0.715535,-0.4468609999999999,0.388933,1.576167,0.28878
490,0.5529930000000001,0.658904,-0.509943,1.618455,0.7968609999999999,-0.053961
491,0.559181,0.609676,-0.561791,1.446373,0.828572,0.138391
492,0.5396380000000001,0.584879,-0.605561,0.478733,0.315847,0.3533489999999999
493,0.507181,0.579205,-0.6381899999999999,-0.590815,-0.362698,0.6030949999999999
494,0.470451,0.589558,-0.656579,-1.000358,-0.996571,0.928734
495,0.4469609999999999,0.613441,-0.6510859999999999,-1.088975,-1.209023,1.030801
496,0.448827,0.650783,-0.6124,-1.301396,-1.386058,1.45911
497,0.463315,0.700904,-0.542283,-1.414029,-0.769813,1.367371
498,0.482808,0.743424,-0.462833,-1.374425,-0.586213,0.853107
499,0.490955,0.766215,-0.414577,0.247662,0.342916,-0.795323
500,0.4767439999999999,0.764418,-0.4340239999999999,1.856706,0.7965260000000001,-0.522656
501,0.49496,0.728601,-0.473447,0.8560690000000001,-0.772806,0.519025
502,0.541651,0.717705,-0.437619,-0.72172,-1.0566950000000002,1.607175
503,0.572407,0.7114229999999999,-0.407705,-0.37328,1.593783,-0.107843
504,0.57306,0.707386,-0.413767,-0.684724,0.5440020000000001,0.7104590000000001
505,0.569144,0.715429,-0.405256,-0.8982610000000001,-0.5194449999999999,0.912596
506,0.569947,0.7315659999999999,-0.374123,-0.540513,0.23369,0.867608
507,0.554867,0.7653220000000001,-0.326192,0.09792,1.366529,0.457097
508,0.5188729999999999,0.802114,-0.2956,0.659578,1.62971,0.66117
509,0.482356,0.830108,-0.279729,1.337605,1.154969,0.554372
510,0.475867,0.847269,-0.2359679999999999,1.800988,0.861074,0.079825
511,0.4797909999999999,0.863196,-0.157123,1.532324,0.391366,-0.709363
512,0.467521,0.8790520000000001,-0.093203,0.975854,0.417991,-0.574858
513,0.458568,0.8872270000000001,-0.050393,0.233983,-0.087071,0.570214
514,0.437648,0.8991129999999999,0.007386,-1.323879,-0.195927,-0.731141
515,0.395472,0.917581,0.04052,-0.253474,-0.981103,-0.6831430000000001
516,0.358419,0.930506,0.075435,0.6091260000000001,-1.204462,-0.605053
517,0.32725,0.940005,0.096401,0.33376,-1.179705,-0.345638
518,0.317218,0.944618,0.08405,0.0685539999999999,-1.284675,-0.410253
519,0.327236,0.943634,0.04967,-0.065349,-1.372299,-0.325991
520,0.349972,0.936703,0.010206,-0.063167,-1.304897,-0.783216
521,0.382703,0.922448,-0.051223,0.538104,-0.544,0.312652
522,0.417602,0.8992399999999999,-0.130279,0.655076,-0.220712,0.526413
523,0.455599,0.8681479999999999,-0.1968369999999999,0.62779,0.085374,0.579558
524,0.508041,0.828938,-0.2339929999999999,0.955613,3.5784870000000004,-0.18042
525,0.545574,0.781275,-0.303242,0.568806,3.915045,-0.122845
526,0.558619,0.732779,-0.388558,0.189016,3.1651700000000003,-0.190239
527,0.5616399999999999,0.686135,-0.462359,1.211416,0.935996,0.393313
528,0.5894149999999999,0.6236229999999999,-0.5135,1.483858,0.621525,0.025768
529,0.586921,0.5831609999999999,-0.561645,0.342263,0.166794,0.449905
530,0.559986,0.571421,-0.59991,-0.530918,-0.302622,0.5523640000000001
531,0.526733,0.5762550000000001,-0.624884,-1.128448,-0.799949,0.8424440000000001
532,0.5019399999999999,0.594406,-0.6282800000000001,-1.382937,-1.143753,1.229354
533,0.495646,0.62676,-0.6012529999999999,-1.501505,-1.366429,1.931911
534,0.504564,0.676412,-0.5365439999999999,-1.625124,-1.289862,1.903151
535,0.522896,0.720553,-0.4553899999999999,-1.461861,-0.548129,0.178764
536,0.531608,0.743872,-0.405024,-0.110023,0.062936,-0.8890889999999999
537,0.512182,0.7548560000000001,-0.409705,2.017832,0.679546,-1.258218
538,0.516061,0.726685,-0.453439,1.354758,-0.409348,0.637552
539,0.557401,0.708808,-0.4323109999999999,-0.39784,-1.067008,1.951583
540,0.588326,0.695272,-0.412877,-0.629433,0.1180369999999999,1.391774
541,0.574329,0.666575,-0.475206,-0.731907,0.070089,1.615007
542,0.611336,0.663093,-0.43194,-0.840568,-0.566566,1.240305
543,0.630846,0.6786300000000001,-0.376154,-0.427858,0.472768,0.653787
544,0.6128560000000001,0.714042,-0.338449,0.120497,1.220406,0.350915
545,0.572337,0.762583,-0.301485,0.644979,1.52506,0.4499069999999999
546,0.522945,0.808577,-0.269679,0.982838,1.343095,0.625575
547,0.474638,0.8426290000000001,-0.254342,2.010713,1.035392,0.242242
548,0.4653319999999999,0.8652280000000001,-0.18666,1.808121,0.4746,-0.450883
549,0.463149,0.879209,-0.1117079999999999,1.040772,0.51317,-0.911791
550,0.457722,0.8866870000000001,-0.065354,0.479046,-0.119414,0.417176
551,0.448367,0.893742,-0.013656,-1.255709,-0.2110949999999999,-0.659135
552,0.416284,0.90895,0.022635,-0.612329,-0.911971,-0.5503600000000001
553,0.38287,0.922228,0.053853,0.326679,-1.10074,-0.515538
554,0.353113,0.932414,0.076872,0.307761,-1.225001,-0.372634
555,0.3406079999999999,0.937844,0.066541,0.043441,-1.246743,-0.250165
556,0.351598,0.93569,0.029257,-0.103322,-1.337332,-0.425527
557,0.374223,0.927294,-0.0087739999999999,-0.098985,-1.231203,-0.337158
558,0.4037409999999999,0.912933,-0.0595059999999999,-0.020425,-1.112106,-0.512592
559,0.435695,0.8909100000000001,-0.128235,0.111638,-0.434809,0.318787
560,0.464628,0.8623780000000001,-0.201047,0.476168,-0.0254639999999999,0.724897
561,0.491547,0.829625,-0.264762,0.913238,1.11201,0.578758
562,0.540708,0.785538,-0.300934,1.545153,4.262909,-0.951736
563,0.5687979999999999,0.734749,-0.369607,0.396916,2.635704,-0.217551
564,0.570259,0.6868529999999999,-0.450593,0.848427,0.902686,0.345323
565,0.596445,0.631907,-0.494918,1.212377,0.696386,0.267196
566,0.609097,0.590168,-0.529812,1.018879,0.7001,0.238705
567,0.59286,0.573639,-0.5652020000000001,0.154196,0.07431,0.4675
568,0.561322,0.5747869999999999,-0.595429,-0.7627229999999999,-0.37183,0.664719
569,0.532414,0.587145,-0.609748,-1.531346,-1.042559,0.989982
570,0.527296,0.612483,-0.588915,-1.565076,-1.321605,1.312396
571,0.5422359999999999,0.658792,-0.5215069999999999,-1.71376,-1.279382,1.5788950000000002
572,0.553438,0.70935,-0.436492,-1.439394,-0.408141,0.388976
573,0.555005,0.742378,-0.375288,-0.988797,-0.24366,-0.0493339999999999
574,0.540457,0.763592,-0.353311,1.774164,0.641284,-1.503653
575,0.524838,0.749558,-0.403367,1.6012,-0.171646,0.442368
576,0.5553819999999999,0.727272,-0.403264,0.146217,-1.482033,1.575871
577,0.587943,0.714313,-0.3795739999999999,-0.397254,0.71919,1.441051
578,0.602286,0.694174,-0.3941719999999999,-0.104666,1.357981,0.90116
579,0.626305,0.666017,-0.4051659999999999,-1.480477,-0.4447649999999999,-0.060547
580,0.643482,0.681528,-0.348491,-0.87981,-0.131815,1.099697
581,0.629459,0.715873,-0.302165,-0.187427,1.273446,0.522532
582,0.597145,0.7591399999999999,-0.259073,0.515465,2.1232450000000003,0.382517
583,0.554366,0.798878,-0.233381,0.75232,1.206203,0.5976239999999999
584,0.513674,0.8280649999999999,-0.224596,1.691984,0.788101,0.457827
585,0.507258,0.842362,-0.181966,1.811681,0.533508,-0.468425
586,0.505886,0.857303,-0.095423,1.235294,0.526135,-1.241217
587,0.491013,0.8694620000000001,-0.054186,0.903976,-0.07544,0.5302600000000001
588,0.483796,0.8750100000000001,-0.0170729999999999,-0.5899979999999999,-0.322871,-0.2472849999999999
589,0.456603,0.889481,0.018192,-0.860549,-0.904724,-0.466267
590,0.422684,0.904834,0.051058,0.397186,-1.26604,-0.327364
591,0.393721,0.915271,0.085178,0.317811,-1.467395,-0.8988079999999999
592,0.379698,0.919941,0.097622,-0.102187,-1.189641,-0.139324
593,0.3843519999999999,0.920855,0.065528,-0.270354,-1.235079,-0.538978
594,0.399506,0.916589,0.015888,-0.1246039999999999,-1.250192,-0.4246399999999999
595,0.4302,0.90203,-0.035565,0.121314,-0.802954,-0.343754
596,0.4678479999999999,0.8773920000000001,-0.1062839999999999,0.46068,-0.378338,0.379263
597,0.507877,0.841578,-0.183855,0.561855,0.106298,0.543611
598,0.5540390000000001,0.799701,-0.231332,0.67205,0.648846,0.588082
599,0.607073,0.747319,-0.270133,0.540388,3.697154,-0.006555
600,0.625336,0.695345,-0.3541849999999999,0.522125,3.749129,0.077498
601,0.635065,0.640777,-0.431386,0.777273,0.955933,0.443105
602,0.6565439999999999,0.581329,-0.480628,1.337795,0.378556,0.135459
603,0.670554,0.5311739999999999,-0.517888,1.0700610000000002,0.386795,0.188741
604,0.652245,0.511933,-0.5590149999999999,0.151893,-0.0338759999999999,0.447565
605,0.6205149999999999,0.514352,-0.591947,-0.918489,-0.4203729999999999,0.6351600000000001
606,0.589645,0.531401,-0.608219,-1.418807,-0.917708,1.118167
607,0.578574,0.562036,-0.591071,-1.7094029999999998,-1.209847,1.603431
608,0.5941489999999999,0.607421,-0.5272789999999999,-1.85834,-0.864822,1.808651
609,0.61112,0.658939,-0.4385529999999999,-1.811346,-0.432544,0.836701
610,0.617326,0.691346,-0.375427,-0.89464,-0.171174,-0.4209449999999999
611,0.6011310000000001,0.711344,-0.364179,2.341084,0.4081619999999999,-0.986926
612,0.585285,0.6989810000000001,-0.410931,2.094846,0.1217589999999999,0.23576
613,0.624625,0.673547,-0.395188,1.284371,-0.6179439999999999,0.6931
614,0.653243,0.6560819999999999,-0.377925,-0.777937,0.287644,0.909373
615,0.651066,0.641949,-0.404983,-0.015934,2.251377,-2.231431
616,0.658201,0.621428,-0.424965,-0.471113,1.144349,1.204078
617,0.688217,0.6349739999999999,-0.350943,-0.799362,0.01856,1.164176
618,0.674547,0.662397,-0.325902,-0.397692,0.532458,0.802556
619,0.650127,0.7066720000000001,-0.2791889999999999,0.91686,2.042581,0.5758800000000001
620,0.6167189999999999,0.7471300000000001,-0.2478909999999999,1.215052,1.292757,0.67793
621,0.5878909999999999,0.771714,-0.2425639999999999,2.239135,0.241439,0.37939
622,0.587499,0.789324,-0.178347,1.746332,0.085585,-0.8374459999999999
623,0.567979,0.816821,-0.100984,1.042449,0.295255,-0.909026
624,0.5497890000000001,0.83295,-0.062622,0.362885,-0.239307,0.626846
625,0.5404909999999999,0.8409209999999999,-0.02677,-1.1607610000000002,-0.02102,-0.416696
626,0.5146609999999999,0.8573780000000001,0.004601,-0.5030180000000001,-0.93828,-0.385827
627,0.4834779999999999,0.8748540000000001,0.029562,0.432828,-1.477561,-0.387594
628,0.456735,0.887978,0.0536769999999999,0.070288,-1.508309,-0.561337
629,0.4474479999999999,0.8930889999999999,0.046635,-0.263183,-1.220192,-0.094959
630,0.4570359999999999,0.889401,0.008743,-0.326756,-1.318753,-0.536758
631,0.480047,0.876286,-0.040875,-0.132009,-1.074193,-0.339115
632,0.508601,0.855404,-0.097987,0.077657,-0.605603,-0.271703
633,0.540641,0.824577,-0.166657,0.307793,-0.284385,0.582581
634,0.571692,0.785396,-0.23731,0.616677,0.295903,0.6304069999999999
635,0.606902,0.741755,-0.28542,1.384019,2.243749,0.0146069999999999
636,0.653698,0.684588,-0.322511,1.567508,4.17288,-0.517714
637,0.6751119999999999,0.623933,-0.393607,0.398588,1.564207,-0.009728
638,0.694416,0.560393,-0.451378,1.307141,0.541963,0.264656
639,0.721249,0.491168,-0.4884159999999999,1.347278,0.407605,0.003431
640,0.7184689999999999,0.450493,-0.529958,0.919256,0.226845,0.238118
641,0.6919350000000001,0.442324,-0.5705899999999999,-0.64683,-0.130999,0.5644710000000001
642,0.653309,0.456414,-0.604046,-1.138294,-0.325997,0.801952
643,0.617789,0.483116,-0.6204310000000001,-1.406287,-0.542381,1.078225
644,0.607905,0.521601,-0.598649,-2.04925,-0.742777,1.41681
645,0.622071,0.572062,-0.534575,-1.982514,-0.558894,1.52252
646,0.636562,0.6211300000000001,-0.4571449999999999,-1.683727,-0.342535,0.6679609999999999
647,0.6474409999999999,0.649053,-0.399433,-0.541255,0.046107,-0.149563
648,0.643897,0.6674680000000001,-0.374004,0.148583,0.2265449999999999,-0.7935979999999999
649,0.640776,0.652987,-0.403746,2.019899,-0.4197869999999999,0.566054
650,0.67802,0.622388,-0.391048,0.066532,-1.483563,1.808665
651,0.697308,0.606146,-0.382551,-0.922405,-0.436133,1.113722
652,0.695587,0.5889949999999999,-0.411388,0.545395,2.552194,-1.809361
653,0.712303,0.560076,-0.423009,-0.6948770000000001,0.8258639999999999,0.778203
654,0.749859,0.5735279999999999,-0.329809,-1.219082,-0.2619889999999999,0.269719
655,0.736323,0.609137,-0.294578,-0.352595,0.685754,0.750159
656,0.708913,0.661145,-0.24561,0.378001,1.635897,0.518696
657,0.669508,0.713114,-0.207898,0.857851,1.431967,0.5808840000000001
658,0.631304,0.746785,-0.209195,1.907636,0.845333,0.687466
659,0.621685,0.763309,-0.175675,2.253056,0.234128,-0.108855
660,0.608917,0.789125,-0.080598,1.298249,0.357161,-1.39421
661,0.590719,0.806148,-0.0342149999999999,1.036265,-0.024043,0.2609
662,0.579583,0.814851,0.009685,-0.411477,-0.254747,-0.007579
663,0.5530510000000001,0.83193,0.044925,-1.41026,-0.148535,-0.7875850000000001
664,0.521001,0.850507,0.072028,0.24583,-1.519483,-0.34368
665,0.494039,0.864332,0.094057,0.0428259999999999,-1.416883,-0.610842
666,0.477759,0.8731389999999999,0.09677,-0.244498,-1.272569,-0.402739
667,0.482531,0.8740290000000001,0.056816,-0.3155699999999999,-1.227239,-0.533821
668,0.5023489999999999,0.8646,0.010185,-0.220137,-1.161033,-0.4961319999999999
669,0.529027,0.847389,-0.045321,0.030223,-0.774422,0.005266
670,0.558605,0.8210370000000001,-0.11769,0.57114,-0.37461,0.568878
671,0.593286,0.7811,-0.194648,0.606101,0.25633,0.217017
672,0.641371,0.731464,-0.23151,1.3468950000000002,2.106747,-0.348736
673,0.68166,0.6802560000000001,-0.269418,1.313762,4.002942,-0.248313
674,0.683671,0.637324,-0.355536,0.085845,2.008946,0.111701
675,0.692155,0.5827600000000001,-0.425802,0.932082,1.158817,0.159627
676,0.7067359999999999,0.525934,-0.4731939999999999,1.738042,0.254553,0.085285
677,0.719497,0.467124,-0.513922,1.210542,0.164392,0.1811579999999999
678,0.700141,0.4449909999999999,-0.558375,0.208535,-0.097762,0.322474
679,0.6618850000000001,0.452712,-0.597458,-0.904454,-0.331466,0.682786
680,0.6239560000000001,0.478429,-0.617885,-1.37983,-0.578222,0.902446
681,0.5976640000000001,0.515213,-0.6142890000000001,-1.595451,-0.959091,1.383118
682,0.599254,0.560447,-0.571655,-1.841381,-0.827094,1.6695099999999998
683,0.618376,0.610209,-0.495229,-1.917372,-0.459559,1.342046
684,0.6416029999999999,0.6433979999999999,-0.417588,-1.130708,-0.127514,0.031022
685,0.650229,0.65723,-0.381111,0.781,0.516857,-1.6653060000000002
686,0.634548,0.650324,-0.417641,2.104435,0.092825,-0.325493
687,0.655666,0.618436,-0.4331689999999999,0.519917,-1.3158379999999998,1.248797
688,0.691072,0.599294,-0.404055,-0.50638,-1.347799,2.123827
689,0.695437,0.578539,-0.42621,0.600309,2.461133,-1.690382
690,0.70221,0.544089,-0.4591979999999999,-0.673204,0.277627,0.6442720000000001
691,0.747653,0.541521,-0.384402,-1.377445,-0.162904,-0.190565
692,0.747529,0.569479,-0.34189,-0.027055,1.322733,0.512758
693,0.731734,0.6165930000000001,-0.29047,0.3490769999999999,1.531005,0.1826819999999999
694,0.697753,0.672528,-0.246658,0.744279,1.3486049999999998,0.408035
695,0.658112,0.716892,-0.230106,2.321823,0.610196,0.661029
696,0.6356310000000001,0.74119,-0.215881,2.533192,0.325186,0.304214
697,0.629196,0.767949,-0.1198299999999999,2.2658080000000003,0.081965,-0.28819
698,0.614118,0.787668,-0.049305,0.6208359999999999,-0.06997,0.408192
699,0.605589,0.7956989999999999,-0.010838,-0.251783,-0.2097159999999999,0.22353
700,0.5819479999999999,0.8126760000000001,0.029795,-1.352379,-0.076057,-0.748088
701,0.54866,0.833825,0.060832,-0.15419,-1.200249,-0.5177109999999999
702,0.520579,0.850109,0.079397,0.271871,-1.481365,-0.577002
703,0.501744,0.8610700000000001,0.082481,0.033931,-1.3766040000000002,-0.517662
704,0.508201,0.8601340000000001,0.043519,-0.303871,-1.354335,-0.293168
705,0.5315840000000001,0.846981,-0.005867,-0.295576,-1.300716,-0.476433
706,0.561121,0.8252520000000001,-0.063989,-0.045404,-0.889385,-0.44808
707,0.5927520000000001,0.792903,-0.141224,0.56391,-0.3188269999999999,0.6535989999999999
708,0.623396,0.750476,-0.2194449999999999,0.599672,0.082761,0.632211
709,0.658583,0.705304,-0.262314,1.499788,2.726581,-0.5167689999999999
710,0.692525,0.654849,-0.302615,1.156626,4.153912999999999,-0.290677
711,0.700019,0.599427,-0.3881429999999999,0.297631,2.913619,-0.294367
712,0.7007140000000001,0.542775,-0.4630229999999999,1.384735,0.293987,0.360362
713,0.725301,0.468612,-0.504319,1.522517,0.157944,0.000657
714,0.725413,0.41688,-0.5477069999999999,0.7991689999999999,0.091558,0.145318
715,0.693371,0.404474,-0.5963510000000001,-0.351208,0.06507,0.495505
716,0.652562,0.417238,-0.632512,-1.233114,-0.308336,0.904592
717,0.617611,0.441346,-0.6509739999999999,-1.527203,-0.789277,1.340366
718,0.6011489999999999,0.477368,-0.640887,-2.016219,-0.8204,1.566409
719,0.610686,0.522595,-0.5949399999999999,-2.059844,-0.619183,1.750763
720,0.634759,0.568484,-0.523358,-1.632836,-0.196688,0.964047
721,0.662159,0.601649,-0.446721,-0.410282,-0.045207,-0.123592
722,0.669175,0.627445,-0.3981369999999999,0.26628,0.1517609999999999,-0.823421
723,0.6541859999999999,0.631075,-0.4168689999999999,2.547916,0.159925,-0.869294
724,0.6851079999999999,0.603558,-0.407848,0.067929,-0.850095,1.710796
725,0.720422,0.573439,-0.390069,0.31359,1.361467,0.480142
726,0.726392,0.523323,-0.445514,0.181811,1.785148,-0.690091
727,0.751252,0.5017729999999999,-0.4287649999999999,-1.422684,-0.683567,1.566537
728,0.778485,0.5255479999999999,-0.343155,-0.558987,0.420085,1.101501
729,0.767462,0.575592,-0.2822929999999999,-0.2391869999999999,1.172119,0.760824
730,0.7254550000000001,0.6466069999999999,-0.235813,0.7255189999999999,1.5441129999999998,0.192692
731,0.687203,0.692539,-0.219396,1.06385,1.017879,0.604803
732,0.666676,0.709684,-0.227779,2.342219,0.540194,0.345531
733,0.659066,0.736206,-0.1537,2.015846,0.132919,-0.904588
734,0.636416,0.7667,-0.084483,1.228849,0.245996,-0.3648119999999999
735,0.635426,0.771247,-0.037462,0.378368,-0.017432,0.604464
736,0.618862,0.785396,0.012356,-1.425869,0.217305,-0.673702
737,0.5848220000000001,0.809968,0.043868,-0.7019479999999999,-0.795991,-0.537536
738,0.553231,0.8297690000000001,0.073544,0.2197489999999999,-1.359524,-0.504009
739,0.525012,0.845772,0.094985,0.053296,-1.2648549999999998,-0.673812
740,0.510053,0.856095,0.083287,-0.104367,-1.138826,-0.4679609999999999
741,0.514594,0.856683,0.035735,-0.3260409999999999,-1.253808,-0.2293849999999999
742,0.535199,0.844601,-0.014185,-0.35603,-1.360608,-0.267218
743,0.5599109999999999,0.8255389999999999,-0.070535,0.125712,-1.046075,0.342325
744,0.591685,0.792067,-0.150097,0.561711,-0.734282,0.587002
745,0.644634,0.743073,-0.179668,0.6117739999999999,0.46405,0.039516
746,0.6904819999999999,0.69097,-0.213979,1.325754,2.243478,0.012639
747,0.705397,0.6514340000000001,-0.279359,1.4974379999999998,3.416758,0.391496
748,0.707846,0.609996,-0.356164,0.183466,2.342473,-0.160972
749,0.7113229999999999,0.565189,-0.417821,0.97105,1.07655,0.250798
750,0.725988,0.5106390000000001,-0.460634,1.87678,0.098308,0.256258
751,0.737143,0.4549149999999999,-0.499667,1.298715,-0.1132099999999999,0.032397
752,0.709861,0.445295,-0.545716,0.14042,0.091799,0.411102
753,0.666087,0.461809,-0.585711,-0.662043,-0.121065,0.709749
754,0.626103,0.4881149999999999,-0.608057,-1.337178,-0.535189,0.985728
755,0.602917,0.519878,-0.605156,-1.903531,-1.124431,1.574913
756,0.605471,0.556554,-0.5689,-1.983737,-1.162649,1.6466740000000002
757,0.623686,0.5983229999999999,-0.503011,-2.026183,-0.988124,1.71372
758,0.649265,0.6262409999999999,-0.431592,-0.687595,-0.174764,-0.2259699999999999
759,0.6570060000000001,0.644668,-0.390819,0.0637279999999999,0.067078,-0.87093
760,0.639889,0.637359,-0.4293119999999999,1.437656,0.290162,-2.141565
761,0.663495,0.602582,-0.4434689999999999,0.301578,-1.543988,1.1684290000000002
762,0.701955,0.578347,-0.415653,-0.7537739999999999,-1.008294,2.300571
763,0.705979,0.552701,-0.442843,0.6863090000000001,2.727054,0.302996
764,0.688717,0.51708,-0.508224,-1.41177,-0.033484,0.857605
765,0.741875,0.531626,-0.408642,-1.574562,-0.501383,0.6576960000000001
766,0.7442439999999999,0.563027,-0.359297,-0.306973,1.118583,0.8757
767,0.7225600000000001,0.607727,-0.329495,0.155201,1.455704,0.494427
768,0.69519,0.662379,-0.279209,0.820817,1.457342,0.412128
769,0.672506,0.698349,-0.245024,1.576457,0.922897,0.76486
770,0.661075,0.715634,-0.225476,2.637876,0.394351,0.0189639999999999
771,0.65371,0.743868,-0.138977,1.536231,0.152022,-1.36496
772,0.635936,0.767223,-0.083329,0.935735,-0.084973,0.193574
773,0.62979,0.775806,-0.038472,-0.429121,-0.0418269999999999,-0.079372
774,0.60821,0.793768,-0.001519,-1.482935,-0.136724,-0.4877689999999999
775,0.575472,0.817416,0.025539,-0.293504,-1.023715,-0.357876
776,0.5450619999999999,0.8368629999999999,0.050559,0.236692,-1.5427959999999998,-0.7319399999999999
777,0.5199229999999999,0.8514079999999999,0.069089,0.057011,-1.265302,-0.263028
778,0.510263,0.858442,0.0519419999999999,-0.154138,-1.26663,-0.325746
779,0.520724,0.853642,0.011395,-0.279864,-1.361867,-0.326413
780,0.543513,0.8386049999999999,-0.036405,-0.174418,-1.285458,-0.22333
781,0.565817,0.818617,-0.098524,0.540872,-0.8407120000000001,0.339201
782,0.5996600000000001,0.78309,-0.164829,0.61497,-0.093836,0.207554
783,0.649199,0.737545,-0.185901,0.595964,0.6758460000000001,-0.0621769999999999
784,0.687952,0.688926,-0.2282449999999999,1.533026,2.71325,0.2107889999999999
785,0.702645,0.648975,-0.291743,0.91912,3.619687,0.208567
786,0.7115560000000001,0.600833,-0.364255,0.344337,1.927869,0.051541
787,0.715304,0.553401,-0.42671,0.570752,1.320073,0.376585
788,0.729963,0.4929449999999999,-0.4734489999999999,1.27991,0.205709,0.170455
789,0.734548,0.44428,-0.512883,1.275324,0.254375,0.20989
790,0.71517,0.427677,-0.552829,-0.0971279999999999,0.004208,0.231906
791,0.683177,0.433821,-0.587421,-0.909724,-0.244216,0.650105
792,0.6575880000000001,0.4537,-0.60144,-1.152827,-0.430338,0.893051
793,0.647001,0.489881,-0.584296,-1.911436,-0.988538,1.598456
794,0.651672,0.533325,-0.5393359999999999,-1.911804,-0.7915800000000001,1.859968
795,0.669329,0.574372,-0.471264,-1.7667259999999998,-0.384598,0.6739310000000001
796,0.679689,0.597399,-0.425594,-0.663561,-0.028475,-0.404729
797,0.6702739999999999,0.61478,-0.415659,1.090194,0.126004,-1.247809
798,0.663799,0.599932,-0.4465939999999999,1.966511,-0.239352,0.340622
799,0.697267,0.572746,-0.431016,0.007964,-0.8516459999999999,1.744141
800,0.707609,0.542452,-0.452802,-0.0271889999999999,1.372465,0.1443299999999999
801,0.705752,0.490943,-0.510768,-0.642779,0.254312,1.90008
802,0.745757,0.494538,-0.446401,-1.445403,-0.477814,0.988164
803,0.7600720000000001,0.524349,-0.3838519999999999,-0.453767,0.560413,0.956545
804,0.743853,0.5607449999999999,-0.363651,0.311583,1.768342,0.214329
805,0.722622,0.617893,-0.309869,0.456272,1.44067,0.578561
806,0.700309,0.6672279999999999,-0.253704,1.423958,0.863274,0.7211420000000001
807,0.676962,0.697563,-0.234778,2.1432740000000003,0.69143,0.489355
808,0.6643319999999999,0.7294229999999999,-0.1630839999999999,2.367727,0.51899,-0.059649
809,0.642642,0.758446,-0.108444,0.901288,0.119743,0.292664
810,0.639695,0.766576,-0.0560279999999999,0.6058640000000001,-0.022573,0.219144
811,0.629896,0.77641,-0.02018,-1.002027,0.020175,-0.306556
812,0.602867,0.7977350000000001,0.01254,-0.73153,-1.001715,-0.626325
813,0.573851,0.8178880000000001,0.041732,-0.1025069999999999,-1.280031,-0.417205
814,0.550477,0.832477,0.062804,-0.012071,-1.245655,-0.516433
815,0.5372279999999999,0.841498,0.057057,-0.2355159999999999,-1.125143,-0.370411
816,0.535423,0.84431,0.021227,-0.184013,-1.222179,-0.489825
817,0.5515979999999999,0.833656,-0.0273069999999999,-0.214684,-1.287895,-0.383277
818,0.573012,0.8154020000000001,-0.08226,-0.087065,-0.924045,-0.155746
819,0.5992569999999999,0.7870779999999999,-0.146254,0.259477,-0.41162,0.553434
820,0.629434,0.748214,-0.2097159999999999,0.593329,0.040284,0.382384
821,0.660625,0.702091,-0.26577,1.361515,1.535885,0.7093430000000001
822,0.699418,0.6558729999999999,-0.283966,1.848418,3.528011,-0.743011
823,0.713642,0.606628,-0.350302,0.5113340000000001,2.496812,-0.201288
824,0.721929,0.5479390000000001,-0.422581,0.596766,1.211339,0.3766219999999999
825,0.7360180000000001,0.496199,-0.4604979999999999,1.592672,0.494982,0.159397
826,0.74808,0.441196,-0.495699,1.360456,0.300717,0.185839
827,0.737769,0.411946,-0.534783,0.382257,0.1580609999999999,0.204277
828,0.7086210000000001,0.414463,-0.5710270000000001,-0.6764859999999999,-0.068897,0.489134
829,0.677725,0.4321109999999999,-0.594949,-1.314215,-0.474393,0.8807309999999999
830,0.656079,0.465233,-0.594234,-1.692593,-0.788017,1.094539
831,0.6509550000000001,0.515695,-0.557056,-2.009629,-0.893365,1.395328
832,0.653097,0.5707260000000001,-0.497726,-1.846746,-0.532808,1.318938
833,0.657071,0.60734,-0.44653,-1.415601,-0.162378,0.487088
834,0.661438,0.622214,-0.418739,-0.715454,-0.00582,0.0096049999999999
835,0.654045,0.619632,-0.433907,2.445381,0.140775,-0.843391
836,0.674662,0.581569,-0.4545359999999999,1.056143,-0.954219,0.427817
837,0.708144,0.557014,-0.4338899999999999,-1.004241,-0.705024,2.285819
838,0.714206,0.5450659999999999,-0.439097,-0.44318,1.521859,-0.7824300000000001
839,0.709326,0.517861,-0.478196,-0.360678,0.675269,2.253495
840,0.7542949999999999,0.509989,-0.4134529999999999,-1.176887,0.040166,0.380128
841,0.757894,0.527415,-0.383956,-0.483785,0.294988,1.196883
842,0.74561,0.5676770000000001,-0.349,0.268047,1.184963,0.344026
843,0.726618,0.6241369999999999,-0.287179,0.759466,1.410546,0.707742
844,0.7071430000000001,0.668617,-0.22998,1.416865,1.119041,0.765579
845,0.688743,0.6925859999999999,-0.214356,2.003334,0.158015,-0.339401
846,0.671513,0.7281880000000001,-0.137121,1.417903,0.085685,-1.315256
847,0.6409159999999999,0.761977,-0.092777,1.099486,0.161622,-1.309979
848,0.627717,0.776859,-0.049499,-0.134141,-0.108814,0.064361
849,0.6110760000000001,0.7913979999999999,-0.016239,-0.741798,-0.252137,-0.431515
850,0.582811,0.8125439999999999,0.009635,-1.223665,-0.251615,-0.4617979999999999
851,0.5506800000000001,0.834149,0.030598,0.106028,-1.54794,-0.499897
852,0.525409,0.849066,0.054963,0.038297,-1.494085,-0.674058
853,0.516073,0.855245,0.047044,-0.285833,-1.3022200000000002,-0.280168
854,0.526439,0.850175,0.0073709999999999,-0.388942,-1.189194,-0.291627
855,0.545094,0.8371629999999999,-0.044947,0.018825,-1.045064,-0.265661
856,0.569257,0.814187,-0.114171,0.511599,-0.548349,0.2978719999999999
857,0.600417,0.778615,-0.182341,0.528779,-0.160405,0.182448
858,0.6404270000000001,0.733193,-0.22863,0.526474,0.208427,0.3033369999999999
859,0.683878,0.6837529999999999,-0.254527,1.917043,3.5390410000000005,0.2037
860,0.701701,0.640018,-0.313026,1.244848,3.51817,0.078437
861,0.713454,0.5799890000000001,-0.393177,0.384797,2.106015,0.017002
862,0.710595,0.538914,-0.452349,1.637152,0.297313,0.106798
863,0.728763,0.47934,-0.48901,1.6753810000000002,0.384048,0.1134
864,0.726328,0.438673,-0.529157,0.5793659999999999,0.121675,0.210416
865,0.697118,0.435476,-0.569546,-0.495229,-0.172201,0.566326
866,0.664083,0.45347,-0.594435,-0.918936,-0.268915,0.695616
867,0.6363479999999999,0.485718,-0.599279,-1.60313,-0.671982,1.159215
868,0.6227090000000001,0.531643,-0.574095,-1.916654,-1.021175,1.724882
869,0.627404,0.584738,-0.5142369999999999,-1.849221,-0.630469,1.863114
870,0.642899,0.628885,-0.437239,-1.7737740000000002,-0.3501829999999999,0.298048
871,0.652407,0.6422329999999999,-0.402362,-0.158465,0.107126,-1.093747
872,0.64428,0.641072,-0.4170399999999999,2.409659,0.075923,-1.264402
873,0.6592819999999999,0.606063,-0.445003,1.209828,-0.782623,0.8970600000000001
874,0.699613,0.581883,-0.414664,-0.703138,-0.178837,2.044791
875,0.701579,0.556689,-0.444835,0.147954,2.586622,-1.865818
876,0.6981069999999999,0.524922,-0.486926,-0.8371299999999999,-0.238576,1.704639
877,0.748077,0.522929,-0.408557,-1.057373,0.134267,0.572681
878,0.750798,0.5524100000000001,-0.362132,-0.238835,1.096303,0.629558
879,0.729942,0.598336,-0.330412,0.091164,1.544761,0.154783
880,0.707501,0.654792,-0.265861,0.5105930000000001,1.334558,0.5696939999999999
881,0.68058,0.702282,-0.208808,1.29026,1.081317,0.8089970000000001
882,0.664741,0.7180340000000001,-0.206244,2.928963,0.299025,0.296835
883,0.658625,0.741649,-0.127122,2.437979,0.001149,-0.439529
884,0.634784,0.768328,-0.081911,0.8174859999999999,-0.069964,0.519213
885,0.629101,0.776385,-0.0380389999999999,0.232257,-0.170748,0.437377
886,0.6133310000000001,0.789792,-0.0065,-0.3275949999999999,-0.243634,-0.03563
887,0.583839,0.811346,0.028939,-0.152152,-1.339331,-0.4949729999999999
888,0.5558350000000001,0.829067,0.06069,0.145536,-1.513896,-0.638555
889,0.534845,0.8406129999999999,0.08542,0.148245,-1.455344,-0.717195
890,0.528473,0.8459540000000001,0.071174,-0.2634579999999999,-1.237769,-0.4701909999999999
891,0.543471,0.8390770000000001,0.024009,-0.327345,-1.086849,-0.365592
892,0.569756,0.821255,-0.0300959999999999,-0.349358,-1.12759,-0.307825
893,0.598053,0.7955300000000001,-0.097223,0.155472,-0.491652,0.326181
894,0.627121,0.759411,-0.173213,0.329406,-0.29031,0.565181
895,0.65596,0.717541,-0.234181,0.414475,-0.0263339999999999,0.429463
896,0.693095,0.667299,-0.272619,2.145879,3.638548,-0.181436
897,0.7123149999999999,0.62317,-0.322889,1.670635,3.985091,-0.212328
898,0.7057260000000001,0.5704779999999999,-0.420116,0.761529,2.817782,-0.072712
899,0.709118,0.518451,-0.477863,1.485096,0.397015,0.197223
900,0.726366,0.452546,-0.5172899999999999,1.453307,0.598815,0.14261
901,0.7191390000000001,0.415037,-0.557295,1.26751,0.4737409999999999,0.1295599999999999
902,0.692558,0.409683,-0.5937319999999999,-0.527961,-0.0944059999999999,0.5754670000000001
903,0.65773,0.426409,-0.6209359999999999,-0.958725,-0.326281,0.7847689999999999
904,0.629966,0.456321,-0.628418,-1.453498,-0.741858,1.131058
905,0.626034,0.497025,-0.6008680000000001,-1.826321,-0.958024,1.44352
906,0.640835,0.547477,-0.538139,-1.965481,-0.7388680000000001,1.7137369999999998
907,0.659904,0.5893970000000001,-0.465972,-1.44619,-0.263424,0.34645
908,0.674136,0.606953,-0.420882,0.135923,0.051296,-0.981675
909,0.666597,0.612224,-0.4252319999999999,1.309401,0.132435,-1.608551
910,0.676138,0.578751,-0.4559359999999999,1.00236,-0.911759,0.752369
911,0.7149439999999999,0.551339,-0.4299689999999999,-0.953912,-0.689904,2.016913
912,0.724527,0.531084,-0.439321,-0.951501,0.092329,1.601934
913,0.715555,0.509916,-0.477451,-0.43551,0.592638,2.245213
914,0.7405010000000001,0.50067,-0.4483069999999999,-1.0587540000000002,-0.132827,0.5709420000000001
915,0.773583,0.515284,-0.36884,-0.4516229999999999,0.731649,1.045872
916,0.764309,0.555001,-0.328326,0.130894,1.329368,0.458483
917,0.744649,0.607349,-0.276796,0.380641,1.412915,0.5281239999999999
918,0.71933,0.655081,-0.2311369999999999,1.394058,1.03245,0.820584
919,0.70005,0.679946,-0.218158,2.6324080000000003,0.258439,0.153476
920,0.685978,0.714625,-0.13687,2.16032,0.002141,-0.478822
921,0.6598689999999999,0.746808,-0.082696,1.027616,0.184802,-0.1226109999999999
922,0.653877,0.7558600000000001,-0.03329,0.116676,0.1203,0.159603
923,0.639386,0.768867,-0.004039,-0.765302,0.0546809999999999,-0.3124429999999999
924,0.607162,0.7941819999999999,0.024831,-1.091446,-0.584938,-0.652349
925,0.573217,0.817892,0.049621,0.19282,-1.428854,-0.461059
926,0.545747,0.8351940000000001,0.067811,0.318755,-1.504246,-0.452943
927,0.532015,0.8446879999999999,0.0587279999999999,-0.113802,-1.33358,-0.326245
928,0.534721,0.844561,0.027906,-0.246406,-1.439119,-0.3900119999999999
929,0.5600229999999999,0.828204,-0.021004,-0.283259,-1.304218,-0.34037
930,0.589218,0.803412,-0.085677,0.132553,-0.794089,-0.074846
931,0.619987,0.766837,-0.166034,0.486641,-0.315451,0.430438
932,0.655539,0.720771,-0.2252739999999999,0.509851,0.088082,0.427392
933,0.694503,0.669519,-0.263441,1.503739,2.069129,0.330655
934,0.717078,0.624825,-0.308845,1.689157,4.179634,0.078376
935,0.7203510000000001,0.568733,-0.397027,0.318254,2.19413,-0.1128609999999999
936,0.7185739999999999,0.5158020000000001,-0.4664689999999999,0.516472,1.606573,0.485039
937,0.7311529999999999,0.451663,-0.511283,1.611605,0.4838229999999999,0.098884
938,0.72148,0.4102949999999999,-0.557782,0.4184279999999999,0.050093,0.287075
939,0.686797,0.406675,-0.602429,-0.037505,0.015902,0.444684
940,0.645111,0.424389,-0.635391,-0.4929199999999999,-0.12289,0.673171
941,0.616508,0.451042,-0.6453479999999999,-1.735053,-0.688286,1.318383
942,0.616359,0.4928359999999999,-0.614175,-1.821589,-0.874275,1.588876
943,0.633733,0.546214,-0.547747,-1.98969,-1.040294,1.668993
944,0.650733,0.5886600000000001,-0.479603,-1.48017,-0.186454,0.33698
945,0.663558,0.6072420000000001,-0.436968,-0.6963189999999999,-0.0685149999999999,-0.092573
946,0.659025,0.6176159999999999,-0.42922,0.1176779999999999,0.096084,-0.7866920000000001
947,0.6551560000000001,0.5956859999999999,-0.464675,1.090923,-0.8780959999999999,0.663085
948,0.692174,0.5730270000000001,-0.438781,0.186336,-1.274153,1.050369
949,0.705727,0.557869,-0.436721,-0.7788010000000001,-0.58416,2.107742
950,0.6991539999999999,0.527508,-0.4826109999999999,-0.579617,0.233677,1.941977
951,0.7347560000000001,0.5120819999999999,-0.444859,-0.927215,-0.197476,0.736668
952,0.7595609999999999,0.52576,-0.382931,-0.463358,0.551816,1.034328
953,0.752667,0.55701,-0.351032,0.2615389999999999,1.504711,0.283176
954,0.738408,0.607494,-0.2927389999999999,0.512904,1.278492,0.625533
955,0.7151489999999999,0.659022,-0.232903,1.154068,0.974111,0.744728
956,0.687114,0.6919649999999999,-0.2214719999999999,2.725392,0.595282,0.460638
957,0.676363,0.721867,-0.146392,2.502943,0.324123,-0.172394
958,0.648598,0.756365,-0.084977,1.03994,0.189298,-0.384322
959,0.6374609999999999,0.769599,-0.0367339999999999,0.428793,-0.099357,0.464713
960,0.622894,0.7822600000000001,0.007722,-0.26178,-0.162067,0.071105
961,0.588917,0.806883,0.04587,-0.761296,-0.69496,-0.8751549999999999
962,0.553791,0.829153,0.076209,0.1846269999999999,-1.589834,-0.589438
963,0.5269159999999999,0.8451219999999999,0.090084,0.325349,-1.603667,-0.464306
964,0.5176810000000001,0.852667,0.070375,-0.087184,-1.490683,-0.649172
965,0.531358,0.8466950000000001,0.0274649999999999,-0.28064,-1.271317,-0.414443
966,0.560392,0.827628,-0.0313279999999999,0.01285,-1.036612,-0.17076
967,0.593957,0.795642,-0.118991,0.682121,-0.34949,0.156604
968,0.637259,0.749483,-0.17935,0.323328,0.028593,0.237409
969,0.67695,0.70007,-0.2272239999999999,0.6181399999999999,1.160007,0.292776
970,0.697236,0.659695,-0.280456,1.440185,3.10271,0.623626
971,0.7007899999999999,0.618374,-0.355668,0.7690739999999999,2.958057,-0.164581
972,0.702324,0.558815,-0.440976,0.901588,1.80349,0.296048
973,0.702843,0.500257,-0.5057159999999999,1.677375,0.310626,0.0072109999999999
974,0.705175,0.4379979999999999,-0.557567,1.338496,0.229207,0.266719
975,0.680652,0.4107,-0.606658,0.7770199999999999,0.143316,0.372023
976,0.638597,0.4150609999999999,-0.648008,-0.4584819999999999,-0.135718,0.8585940000000001
977,0.597952,0.434659,-0.6734399999999999,-1.250586,-0.4993109999999999,0.960702
978,0.575802,0.460222,-0.675754,-1.517483,-0.67148,1.078372
979,0.587375,0.494518,-0.640655,-1.914248,-1.003307,1.813003
980,0.621027,0.542416,-0.565778,-2.099177,-0.587933,1.7534459999999998
981,0.6517069999999999,0.587036,-0.480271,-1.993809,-0.2953639999999999,1.170579
982,0.663442,0.612749,-0.4293909999999999,0.165064,0.064696,-0.96221
983,0.649976,0.616779,-0.4439689999999999,2.519579,0.258633,-1.445115
984,0.656741,0.584623,-0.4763409999999999,2.132016,0.197771,-0.200844
985,0.696763,0.560555,-0.4475409999999999,-0.553636,-0.7151569999999999,2.446473
986,0.711106,0.534679,-0.456552,-0.145768,1.590031,-1.540442
987,0.7169979999999999,0.498378,-0.487368,-0.5739310000000001,0.4122659999999999,1.777728
988,0.7640680000000001,0.501772,-0.405485,-1.042266,-0.093157,1.481703
989,0.766241,0.5301560000000001,-0.363046,-0.423849,0.417812,0.845834
990,0.749023,0.570764,-0.336429,0.351624,1.439429,0.304492
991,0.7288979999999999,0.633979,-0.258398,0.483932,1.285347,0.6750689999999999
992,0.697365,0.6887260000000001,-0.198314,2.412208,1.209056,0.372631
993,0.684653,0.709495,-0.166905,2.997659,0.549477,-0.432872
994,0.666521,0.737375,-0.109622,2.421675,0.1262569999999999,-0.841794
995,0.6517189999999999,0.756437,-0.055257,0.319686,-0.075773,0.5413560000000001
996,0.644791,0.764153,-0.017429,-0.318726,0.032066,0.0743289999999999
997,0.620946,0.783786,0.009709,-0.967488,0.2235079999999999,-0.323857
998,0.584318,0.8104600000000001,0.041419,0.131274,-1.59882,-0.503272
999,0.55376,0.8290709999999999,0.077324,0.110639,-1.536362,-0.758995
1000,0.536307,0.83946,0.087568,-0.168479,-1.185453,-0.288282
1001,0.537719,0.8411069999999999,0.058177,-0.199981,-1.232007,-0.5068
1002,0.5583359999999999,0.8295950000000001,0.004711,-0.256105,-1.030354,-0.552211
1003,0.585832,0.808809,-0.051167,0.035582,-0.722108,-0.4105939999999999
1004,0.616849,0.776898,-0.126164,0.399433,-0.38461,0.674916
1005,0.647041,0.7348899999999999,-0.203139,0.6280600000000001,0.136906,0.33792
1006,0.685563,0.680291,-0.259228,1.443694,1.933631,0.218915
1007,0.717367,0.634505,-0.287713,2.010523,4.025361,0.046594
1008,0.7045859999999999,0.6017520000000001,-0.376093,0.34084,2.199563,-0.044272
1009,0.700034,0.543818,-0.462826,0.8765959999999999,1.413625,0.440106
1010,0.705034,0.492106,-0.51064,1.433287,0.2302449999999999,0.285298
1011,0.7146399999999999,0.43565,-0.5472600000000001,1.114782,0.2057679999999999,0.300327
1012,0.698605,0.412574,-0.584576,0.071171,0.0730519999999999,0.393384
1013,0.6662939999999999,0.4182869999999999,-0.61732,-0.809192,-0.264067,0.71992
1014,0.632629,0.439378,-0.637749,-1.302657,-0.727937,1.239785
1015,0.618084,0.47068,-0.629626,-1.778057,-1.027488,1.630969
1016,0.637283,0.5120020000000001,-0.575951,-2.107498,-0.769601,1.765343
1017,0.660654,0.556547,-0.503772,-1.903238,-0.313795,0.89223
1018,0.676387,0.5796359999999999,-0.454442,-0.7660170000000001,-0.072861,-0.107341
1019,0.679028,0.5947600000000001,-0.430321,0.856266,0.348584,-1.330269
1020,0.656367,0.591291,-0.468564,1.94959,0.044695,-0.174976
1021,0.683317,0.561036,-0.467238,0.277148,-1.119676,1.084334
1022,0.7204010000000001,0.53451,-0.441946,-1.372181,-0.7183470000000001,1.990713
1023,0.727429,0.525327,-0.4414439999999999,-1.238339,-0.224607,1.301063
1024,0.7072229999999999,0.4952539999999999,-0.504533,-0.066018,1.4159700000000002,2.495332
1025,0.746372,0.505384,-0.433025,-0.823032,0.346529,0.634472
1026,0.7673300000000001,0.527988,-0.363906,-0.297664,0.489102,0.869674
1027,0.757564,0.571366,-0.315645,0.293462,1.271468,0.6593640000000001
1028,0.738766,0.62007,-0.264065,1.464084,1.260972,0.660428
1029,0.72287,0.644279,-0.249711,1.860962,0.87159,0.654832
1030,0.7118680000000001,0.67305,-0.200599,2.409073,0.3543389999999999,0.460685
1031,0.689585,0.7136600000000001,-0.123103,1.038611,0.379434,-0.485234
1032,0.667253,0.740585,-0.0793659999999999,1.097502,0.2159739999999999,0.580144
1033,0.653961,0.756038,-0.0270779999999999,0.571,-0.0071819999999999,0.767389
1034,0.628274,0.777963,0.005946,-1.020044,-0.436609,-0.615001
1035,0.587813,0.8073,0.052286,-0.3059219999999999,-1.097247,-0.725626
1036,0.553534,0.8286610000000001,0.083139,0.216684,-1.5338,-0.648645
1037,0.532201,0.842277,0.0855679999999999,-0.130849,-1.30294,-0.439556
1038,0.531323,0.8451639999999999,0.0581649999999999,-0.183362,-1.422221,-0.69055
1039,0.551082,0.834425,0.005944,-0.227382,-1.373228,-0.653313
1040,0.578991,0.813316,-0.057245,-0.008083,-0.723549,-0.283453
1041,0.610003,0.781261,-0.1323609999999999,-0.014407,-0.463603,0.23635
1042,0.6355689999999999,0.742635,-0.2110389999999999,0.138723,-0.279394,0.619685
1043,0.662057,0.693986,-0.282943,1.240882,1.547652,0.663971
1044,0.696628,0.647809,-0.308295,1.7116209999999998,2.9304080000000003,-0.955438
1045,0.697153,0.5954079999999999,-0.399326,0.93244,2.231801,0.018345
1046,0.691966,0.5398569999999999,-0.479305,1.31191,1.218337,0.334011
1047,0.695801,0.4777949999999999,-0.536255,1.611725,0.640842,0.214294
1048,0.693549,0.421792,-0.584018,0.929742,0.359809,0.1915319999999999
1049,0.6658,0.398692,-0.630676,0.28055,0.129247,0.533142
1050,0.62364,0.404227,-0.669082,-0.077208,-0.113303,0.741714
1051,0.576833,0.428034,-0.695736,-1.209187,-0.431849,1.136791
1052,0.550673,0.455834,-0.6992649999999999,-1.613158,-0.635156,1.418961
1053,0.5623239999999999,0.489556,-0.666427,-1.836951,-0.7481770000000001,1.479278
1054,0.599607,0.5354300000000001,-0.594796,-2.140257,-0.425567,1.7164700000000002
1055,0.63679,0.5742010000000001,-0.514575,-1.161311,0.079882,0.363559
1056,0.660682,0.593773,-0.459269,0.439644,0.1138839999999999,-0.993978
1057,0.662532,0.58944,-0.462176,2.188679,0.193503,-1.100553
1058,0.670465,0.559845,-0.486875,0.751899,-1.152115,1.532117
1059,0.702533,0.544238,-0.458528,-0.461261,0.227185,2.014482
1060,0.699234,0.518605,-0.4920529999999999,0.366303,1.449519,0.302127
1061,0.722912,0.482562,-0.4944979999999999,-1.298031,-0.137454,-0.39016
1062,0.770552,0.494764,-0.401812,-0.864516,-0.035505,1.487078
1063,0.770858,0.53457,-0.346421,-0.051376,1.073279,0.477585
1064,0.746368,0.588032,-0.311685,0.269852,1.390468,0.717737
1065,0.718011,0.6548470000000001,-0.235859,0.8603430000000001,1.345229,0.6879460000000001
1066,0.6864,0.699655,-0.198322,2.627976,1.040198,0.132099
1067,0.672222,0.722237,-0.162743,1.523929,-0.043266,-1.033805
1068,0.644178,0.757466,-0.106172,1.130297,0.189266,-0.66638
1069,0.628425,0.776516,-0.0458,0.818017,0.039234,0.4185109999999999
1070,0.6128,0.790129,-0.012833,-1.047508,-0.233275,-0.54895
1071,0.58057,0.8139029999999999,0.022184,-0.903568,-0.938827,-0.565657
1072,0.546722,0.8353079999999999,0.057856,-0.422393,-1.493634,-0.5658979999999999
1073,0.5214880000000001,0.848096,0.093672,-0.051167,-1.349927,-0.534895
1074,0.5151680000000001,0.8519120000000001,0.094014,-0.044847,-1.353743,-0.535237
1075,0.5279729999999999,0.847592,0.0531429999999999,-0.266865,-1.065991,-0.43504
1076,0.5533779999999999,0.8329209999999999,0.002872,-0.191425,-0.978642,-0.53461
1077,0.584174,0.809862,-0.0534539999999999,-0.0556399999999999,-0.655138,-0.6265539999999999
1078,0.618736,0.775517,-0.1254289999999999,-0.146217,-0.4334149999999999,-0.034468
1079,0.648287,0.733633,-0.203717,0.936109,0.499506,0.31683
1080,0.685457,0.679876,-0.260598,1.366515,1.41012,0.282479
1081,0.72043,0.629631,-0.290758,1.928267,2.950325,-0.139524
1082,0.706819,0.589566,-0.390914,0.5933970000000001,1.299274,0.238296
1083,0.7055939999999999,0.533875,-0.465951,0.955005,0.856658,0.50744
1084,0.723288,0.4699569999999999,-0.505955,1.277871,0.5516340000000001,0.453206
1085,0.71473,0.432569,-0.549584,0.431022,0.246432,0.578209
1086,0.685208,0.42591,-0.590837,-0.030194,0.066613,0.588411
1087,0.65135,0.436668,-0.620534,-0.9465,-0.092613,0.831105
1088,0.6294649999999999,0.45485,-0.6299859999999999,-1.6925599999999998,-0.629045,1.220059
1089,0.637141,0.484229,-0.599642,-2.015193,-0.939933,1.56621
1090,0.662814,0.533144,-0.525768,-2.042911,-0.4650439999999999,1.371318
1091,0.683758,0.569288,-0.4564899999999999,-1.15939,-0.045148,-0.003075
1092,0.693209,0.584183,-0.422122,-0.428347,0.030364,-0.623395
1093,0.684992,0.580723,-0.439935,2.37258,0.0542559999999999,-0.436911
1094,0.699801,0.552327,-0.453001,0.460401,-1.122243,1.377043
1095,0.731543,0.5384140000000001,-0.418272,-1.127463,-0.378761,1.854597
1096,0.735267,0.518519,-0.436483,0.909234,2.9910330000000003,-3.753077
1097,0.7236899999999999,0.4853659999999999,-0.490601,-0.669155,0.503877,1.6530619999999998
1098,0.773037,0.4921109999999999,-0.400296,-1.324871,0.10022,0.471417
1099,0.7772020000000001,0.51847,-0.356569,-0.415599,0.49656,1.019182
1100,0.765597,0.567863,-0.302304,0.282407,1.524452,0.736233
1101,0.739,0.630566,-0.2371909999999999,1.243056,1.52634,0.755196
1102,0.7203069999999999,0.663985,-0.200689,2.373001,0.863771,0.725241
1103,0.709278,0.6838029999999999,-0.171268,2.100597,-0.091014,-0.605312
1104,0.6825,0.724345,-0.097537,0.978618,0.304464,-1.5328190000000002
1105,0.659837,0.748779,-0.062763,1.2753290000000002,-0.009949,0.918873
1106,0.644424,0.764468,-0.017349,-0.5567770000000001,-0.214861,0.063263
1107,0.625283,0.7803680000000001,0.006369,-1.234475,-0.284061,-0.62525
1108,0.593421,0.8037569999999999,0.042674,-0.187827,-1.453659,-0.499187
1109,0.564797,0.82205,0.072333,0.100563,-1.560072,-0.610449
1110,0.5471630000000001,0.833723,0.074255,-0.095182,-1.304227,-0.4131069999999999
1111,0.549564,0.834564,0.038431,-0.282001,-1.32257,-0.484079
1112,0.570127,0.8213969999999999,-0.016046,-0.168317,-1.04358,-0.625433
1113,0.597254,0.7983180000000001,-0.077277,0.0108849999999999,-0.804437,-0.277856
1114,0.624776,0.763817,-0.161972,0.164806,-0.627617,0.373825
1115,0.656003,0.717105,-0.235408,0.891574,0.719724,0.368877
1116,0.6994739999999999,0.658687,-0.2772449999999999,0.848103,0.778142,0.410714
1117,0.724549,0.613563,-0.313952,1.977126,4.110299,-0.054823
1118,0.716216,0.563529,-0.411664,0.621766,1.519067,0.444729
1119,0.718721,0.507788,-0.474962,1.125196,0.922327,0.4278729999999999
1120,0.738736,0.436958,-0.513161,1.463305,0.377785,0.313087
1121,0.73034,0.394251,-0.557824,0.541984,0.073431,0.2308739999999999
1122,0.696055,0.393889,-0.6002970000000001,0.5762689999999999,0.073793,0.273347
1123,0.656573,0.4182869999999999,-0.6276520000000001,-1.033907,-0.234601,0.8816649999999999
1124,0.627942,0.450276,-0.634774,-1.519025,-0.674275,1.307198
1125,0.6261899999999999,0.494854,-0.6024970000000001,-1.970703,-0.904613,1.860279
1126,0.643984,0.552222,-0.529465,-2.256517,-0.648871,1.915222
1127,0.662644,0.5877760000000001,-0.464133,-1.977723,-0.14196,0.453635
1128,0.6741739999999999,0.595887,-0.436355,-0.268671,0.099441,-0.553162
1129,0.666557,0.601017,-0.440996,1.775368,0.11285,-1.646513
1130,0.677311,0.576264,-0.457347,1.402874,-0.389268,0.750254
1131,0.7102470000000001,0.558812,-0.428106,-0.516735,-0.917775,2.19219
1132,0.716536,0.531346,-0.451935,-0.038786,1.814251,-0.757721
1133,0.718033,0.4968,-0.487458,-0.442475,0.330837,2.395966
1134,0.758422,0.5040399999999999,-0.413202,-0.841628,-0.193768,0.723749
1135,0.766137,0.5329149999999999,-0.359211,0.041801,1.102766,0.6458619999999999
1136,0.752215,0.58281,-0.30741,0.287534,1.442901,0.6062529999999999
1137,0.7261310000000001,0.645147,-0.237731,0.83759,1.36146,0.7774810000000001
1138,0.692785,0.694501,-0.194198,2.469477,0.981052,0.453476
1139,0.671934,0.720133,-0.17294,1.935808,0.266104,-0.8357120000000001
1140,0.642411,0.758157,-0.111805,1.273116,0.230429,-0.323132
1141,0.6270060000000001,0.776829,-0.0582679999999999,0.777199,0.075543,0.4878939999999999
1142,0.612924,0.7897460000000001,-0.024914,-0.435388,0.006214,-0.573414
1143,0.59077,0.806833,0.002435,-0.856929,-0.716318,-0.464624
1144,0.555946,0.8302719999999999,0.039583,0.013665,-1.447383,-0.320513
1145,0.526249,0.8475159999999999,0.069091,-0.117725,-1.613873,-1.150161
1146,0.509792,0.856718,0.078356,-0.267345,-1.242476,-0.325029
1147,0.514702,0.856492,0.038697,-0.309395,-1.194337,-0.253983
1148,0.533103,0.8457479999999999,-0.022476,-0.218604,-1.157485,-0.338837
1149,0.558474,0.825575,-0.0808,0.164015,-0.922849,-0.0565899999999999
1150,0.588282,0.79161,-0.165143,0.609685,-0.331832,0.203718
1151,0.630845,0.7452270000000001,-0.216026,0.630554,0.166654,0.303428
1152,0.6783939999999999,0.6892189999999999,-0.25447,1.574444,2.261144,0.0026079999999999
1153,0.694476,0.646034,-0.316764,1.784253,4.256722,0.291464
1154,0.694585,0.59233,-0.408281,0.529505,2.391938,-0.057173
1155,0.688531,0.5386,-0.485626,1.361502,0.705144,0.3920889999999999
1156,0.700518,0.472004,-0.535242,1.546797,0.1876789999999999,0.2094219999999999
1157,0.686724,0.4313229999999999,-0.585122,0.234342,0.017942,0.494806
1158,0.646468,0.426055,-0.632894,-0.178038,-0.0596,0.6998800000000001
1159,0.598121,0.444343,-0.66694,-0.602073,-0.25434,0.877893
1160,0.560085,0.471397,-0.68124,-1.964367,-0.7817,1.661816
1161,0.557146,0.502442,-0.6611640000000001,-2.078783,-0.969499,1.999452
1162,0.592626,0.54014,-0.59753,-2.207143,-1.027261,2.201153
1163,0.6387970000000001,0.566887,-0.520169,-0.836047,0.037453,-0.2139469999999999
1164,0.665177,0.576442,-0.4746069999999999,-0.027116,0.074895,-1.044207
1165,0.6614439999999999,0.572013,-0.485068,1.181833,0.2397699999999999,-1.791651
1166,0.672562,0.547706,-0.49767,0.0228729999999999,-1.173088,2.547582
1167,0.703109,0.541908,-0.460404,-0.986449,-0.937721,2.1207130000000003
1168,0.689563,0.5358470000000001,-0.487205,-1.254642,-0.211216,1.587623
1169,0.673479,0.500567,-0.543926,-0.812121,0.4103819999999999,1.25227
1170,0.724166,0.511536,-0.462505,-0.925613,-0.129349,1.087856
1171,0.750023,0.544265,-0.375818,-0.734398,-0.226287,0.8730559999999999
1172,0.7368600000000001,0.588622,-0.332504,0.5593130000000001,1.545854,0.8669879999999999
1173,0.702724,0.656265,-0.274758,0.944294,1.6790169999999998,0.737359
1174,0.674825,0.700876,-0.231044,1.820445,1.209647,0.704631
1175,0.671845,0.7135630000000001,-0.198615,2.504363,0.115569,-0.147745
1176,0.65242,0.748495,-0.118742,1.1940309999999998,0.202219,-1.708605
1177,0.641021,0.763668,-0.076803,1.06929,0.084446,0.141591
1178,0.627684,0.777654,-0.035524,-0.080199,0.091151,0.789751
1179,0.595587,0.803287,0.001467,-1.8521330000000005,-0.089587,-0.8837450000000001
1180,0.560904,0.8273299999999999,0.030128,0.00657,-1.594175,-0.629219
1181,0.529996,0.845686,0.062557,0.094607,-1.445585,-0.497066
1182,0.512081,0.8564459999999999,0.065336,-0.074138,-1.303192,-0.453946
1183,0.5136729999999999,0.8573559999999999,0.03278,-0.196321,-1.302196,-0.44965
1184,0.534171,0.845199,-0.017168,-0.020087,-1.176513,-0.447233
1185,0.5610729999999999,0.8244049999999999,-0.074484,0.125908,-0.813113,0.122442
1186,0.591733,0.791458,-0.153106,0.537845,-0.29773,0.64978
1187,0.629622,0.7467,-0.214503,0.796938,0.300816,0.324153
1188,0.680984,0.6876680000000001,-0.251732,1.153184,1.35881,0.299736
1189,0.7035,0.642922,-0.302879,1.7593150000000002,4.342628,0.337624
1190,0.703317,0.587684,-0.399962,0.419775,2.190682,0.0612169999999999
1191,0.7130310000000001,0.518548,-0.471902,1.164486,1.041709,0.473199
1192,0.7187640000000001,0.457556,-0.523467,1.5952620000000002,0.123849,0.3200679999999999
1193,0.7144149999999999,0.405062,-0.5705560000000001,0.8402879999999999,-0.017611,0.355331
1194,0.682295,0.391884,-0.617169,-0.129851,0.091926,0.4585689999999999
1195,0.631629,0.408248,-0.6590729999999999,-0.999274,-0.348495,0.962539
1196,0.592631,0.4359159999999999,-0.677321,-1.557459,-0.850146,1.4293049999999998
1197,0.585168,0.474894,-0.657307,-2.035638,-1.0590469999999998,1.80164
1198,0.604839,0.523775,-0.5998560000000001,-2.295513,-0.800325,1.7808099999999998
1199,0.633885,0.562321,-0.5310199999999999,-1.7739,-0.275227,0.698576
1200,0.6560699999999999,0.579956,-0.482929,-0.191074,-0.010941,-0.371869
1201,0.653226,0.588074,-0.47693,2.354327,0.4519189999999999,-1.915527
1202,0.649134,0.5610390000000001,-0.513672,1.23577,-0.401738,0.795974
1203,0.6834819999999999,0.549185,-0.48088,-0.4226939999999999,-1.387213,1.692657
1204,0.702751,0.546316,-0.455717,-1.307609,-0.423513,1.646375
1205,0.668122,0.531821,-0.520363,1.32428,3.020653,-2.175514
1206,0.676934,0.507677,-0.532937,-0.77958,0.867674,1.266931
1207,0.733047,0.5284,-0.4282899999999999,-1.50328,-0.396839,-0.148293
1208,0.7275729999999999,0.554757,-0.4035829999999999,-0.354664,0.402275,1.093128
1209,0.712022,0.607433,-0.352202,0.304274,1.338169,0.7732829999999999
1210,0.6839890000000001,0.672488,-0.282694,1.469637,1.57118,0.8994850000000001
1211,0.6731739999999999,0.692704,-0.258833,2.840284,0.092696,0.239851
1212,0.673024,0.714913,-0.189563,2.2037310000000003,-0.0471279999999999,-0.783933
1213,0.6506850000000001,0.748622,-0.127166,1.52827,0.046712,-1.909044
1214,0.640474,0.763738,-0.080578,0.14163,-0.148824,0.579357
1215,0.624311,0.7802939999999999,-0.037058,-0.6639229999999999,0.051844,-0.181006
1216,0.590262,0.807182,-0.006731,-1.268698,-0.273917,-0.772795
1217,0.555722,0.83111,0.0206289999999999,0.300678,-1.546701,-0.356261
1218,0.5282720000000001,0.848195,0.038585,0.270464,-1.586461,-0.318538
1219,0.513606,0.8575020000000001,0.02992,-0.120463,-1.55872,-0.584439
1220,0.523421,0.852058,-0.004944,-0.342024,-1.418388,-0.470825
1221,0.553103,0.831234,-0.055893,-0.333819,-1.08012,-0.281677
1222,0.582986,0.8029,-0.124404,0.0891179999999999,-0.65463,-0.127289
1223,0.6110800000000001,0.764439,-0.205451,0.501591,-0.303426,0.553138
1224,0.642229,0.718885,-0.265975,0.612028,0.1332269999999999,0.4757989999999999
1225,0.687193,0.665337,-0.291699,1.87198,2.383491,0.5084960000000001
1226,0.701649,0.618124,-0.354412,1.88699,4.224419999999999,-0.105625
1227,0.699947,0.558307,-0.4453819999999999,0.62032,2.025556,0.215844
1228,0.710924,0.493312,-0.5012260000000001,1.303114,0.693105,0.4298909999999999
1229,0.720426,0.430316,-0.543886,1.440523,0.639173,0.288378
1230,0.700971,0.400127,-0.59037,0.70003,0.336842,0.377708
1231,0.663333,0.400964,-0.631835,-0.212131,-0.032311,0.589095
1232,0.623028,0.4201899999999999,-0.659754,-1.539242,-0.765313,1.213389
1233,0.604795,0.451539,-0.655998,-1.993406,-0.939882,1.749946
1234,0.618306,0.498115,-0.6079289999999999,-2.105947,-1.050163,1.836978
1235,0.645096,0.545259,-0.535297,-2.228515,-0.4651189999999999,1.579059
1236,0.668615,0.567032,-0.481068,-0.8434200000000001,-0.0005639999999999,-0.114299
1237,0.678268,0.580519,-0.4504979999999999,0.998109,0.25316,-1.538196
1238,0.664837,0.58067,-0.469905,2.091587,-0.159298,0.3433489999999999
1239,0.688908,0.564415,-0.454795,1.239132,-0.869057,1.234718
1240,0.719802,0.547602,-0.426631,-1.041488,-0.590097,1.468013
1241,0.714853,0.533803,-0.4517029999999999,0.803442,2.660548,-3.3239620000000003
1242,0.716641,0.507099,-0.478825,0.283771,1.458721,2.212009
1243,0.7617550000000001,0.519281,-0.387393,-1.445852,-0.019663,-0.640012
1244,0.764787,0.5498850000000001,-0.335742,-0.471651,0.671337,0.927478
1245,0.752974,0.600952,-0.26811,-0.1164839999999999,1.140762,0.655668
1246,0.722759,0.655891,-0.217766,1.099537,1.533989,0.721535
1247,0.683299,0.691883,-0.23323,1.138998,1.497997,0.736999
1248,0.675723,0.715098,-0.178963,2.80618,-0.042216,0.5224840000000001
1249,0.6624800000000001,0.744604,-0.081736,1.103023,0.369028,-1.824636
1250,0.6571520000000001,0.752045,-0.050735,0.647382,-0.023255,0.575073
1251,0.648373,0.7612180000000001,-0.012415,-0.561001,0.160627,-0.08727
1252,0.614877,0.7883720000000001,0.0197479999999999,-1.201105,-0.560558,-0.591388
1253,0.582777,0.8111079999999999,0.049691,0.104418,-1.4638639999999998,-0.47448
1254,0.556951,0.826759,0.07918,0.110713,-1.60598,-0.7378100000000001
1255,0.545467,0.834968,0.072727,-0.168117,-1.197532,-0.368855
1256,0.552601,0.8327370000000001,0.03428,-0.269382,-1.166478,-0.496652
1257,0.576752,0.816733,-0.017271,-0.306564,-1.221305,-0.52463
1258,0.605273,0.791403,-0.085561,-0.200396,-1.018088,-0.287837
1259,0.63588,0.751521,-0.17569,0.633514,-0.196224,0.378357
1260,0.676449,0.7011229999999999,-0.2254739999999999,0.744328,0.328204,0.355952
1261,0.716357,0.648791,-0.256704,1.410016,2.5310330000000003,-0.174296
1262,0.718275,0.613028,-0.329049,1.613833,4.286599,0.277642
1263,0.707108,0.5609890000000001,-0.4304489999999999,0.591919,3.468445,0.283767
1264,0.69871,0.515009,-0.496556,1.259359,0.761907,0.363438
1265,0.709727,0.446684,-0.544755,1.619359,0.146455,0.348756
1266,0.6901390000000001,0.411131,-0.595548,0.8643649999999999,0.0621049999999999,0.275937
1267,0.648098,0.413182,-0.639725,-0.164501,0.052669,0.482422
1268,0.601671,0.435334,-0.669683,-1.06563,-0.565919,1.109181
1269,0.581446,0.460384,-0.670795,-1.379389,-0.80569,1.378391
1270,0.598386,0.494137,-0.630683,-2.253659,-0.913845,1.980689
1271,0.635975,0.531464,-0.559535,-1.972218,-0.244355,1.054743
1272,0.672038,0.556021,-0.489083,-1.554408,-0.0409459999999999,0.306618
1273,0.686339,0.573336,-0.4474619999999999,0.71541,0.116422,-1.38756
1274,0.669375,0.579833,-0.464466,2.371077,0.228196,-0.139447
1275,0.685819,0.551783,-0.4745359999999999,0.469714,-0.994486,1.216601
1276,0.7250260000000001,0.5316390000000001,-0.437828,-0.497762,-0.822975,1.960136
1277,0.723043,0.504889,-0.47148,-0.411993,0.361475,2.047911
1278,0.72431,0.4781649999999999,-0.4967189999999999,-0.728995,0.0384829999999999,0.892181
1279,0.771174,0.483001,-0.414725,-1.066141,0.0841529999999999,0.735892
1280,0.769818,0.5202060000000001,-0.369814,0.201328,1.678524,0.386217
1281,0.751974,0.57634,-0.319942,0.219171,1.622391,0.336345
1282,0.726643,0.6357470000000001,-0.2604059999999999,1.0081440000000002,1.276744,0.762069
1283,0.7027869999999999,0.669959,-0.239251,2.661898,0.285089,0.014962
1284,0.693937,0.6950109999999999,-0.188167,2.045825,0.016384,-0.623433
1285,0.670198,0.7319899999999999,-0.1225589999999999,1.415496,0.115041,-1.141601
1286,0.667427,0.7409220000000001,-0.074633,-0.227577,0.076461,0.080492
1287,0.658103,0.752306,-0.030499,-0.795493,0.248167,-0.4436529999999999
1288,0.62584,0.7799229999999999,0.006143,-1.300218,-0.005738,-0.547647
1289,0.59268,0.804211,0.044366,0.19121,-1.455884,-0.718987
1290,0.563819,0.822458,0.075266,0.155801,-1.411325,-0.76272
1291,0.549459,0.8323969999999999,0.072128,0.02833,-1.290222,-0.529892
1292,0.550768,0.834158,0.0287779999999999,-0.291384,-1.132528,-0.37175
1293,0.571429,0.820335,-0.022643,-0.276659,-1.265892,-0.51439
1294,0.599842,0.7956340000000001,-0.084562,0.204678,-0.663691,0.214582
1295,0.627243,0.761117,-0.1651109999999999,0.428467,-0.1658859999999999,0.5386770000000001
1296,0.656357,0.718097,-0.231361,0.4707189999999999,-0.000964,0.399802
1297,0.691381,0.6694829999999999,-0.271625,1.874599,2.948299,-5.7e-05
1298,0.7134659999999999,0.6311260000000001,-0.30437,1.153263,3.433358,0.071216
1299,0.7035939999999999,0.58911,-0.397367,0.552143,2.211245,0.02464
1300,0.708014,0.530579,-0.466045,1.477121,0.688232,0.180599
1301,0.721966,0.466797,-0.510746,1.355014,0.495926,0.141697
1302,0.7186670000000001,0.422937,-0.551941,0.92443,0.390265,0.296539
1303,0.694113,0.410554,-0.5913109999999999,-0.408713,-0.021623,0.630923
1304,0.659528,0.421601,-0.622312,-1.20268,-0.440552,0.8818030000000001
1305,0.628652,0.444263,-0.6382979999999999,-1.372899,-0.655841,1.042656
1306,0.616912,0.476251,-0.62658,-2.032744,-0.958627,1.700661
1307,0.6309899999999999,0.521034,-0.574781,-2.058541,-0.549506,1.805234
1308,0.656127,0.563956,-0.501445,-1.936416,-0.367621,1.153499
1309,0.673507,0.58367,-0.453556,0.074219,0.0601289999999999,-0.99992
1310,0.675339,0.589271,-0.443477,2.45665,0.183342,-1.36916
1311,0.680134,0.558517,-0.474838,1.011806,-0.765899,1.057617
1312,0.710229,0.538896,-0.452947,-0.876703,-0.674195,2.0802970000000003
1313,0.718217,0.518515,-0.4640069999999999,-0.0492709999999999,1.869989,-2.814924
1314,0.708905,0.489181,-0.508087,-0.561474,0.342835,1.815933
1315,0.743762,0.489246,-0.4554689999999999,-1.1953,-0.017811,0.307794
1316,0.768623,0.51999,-0.372591,-0.483741,0.822829,1.124758
1317,0.755654,0.5660810000000001,-0.329444,0.086937,1.449498,0.699607
1318,0.733334,0.622714,-0.272842,0.736438,1.494123,0.6497649999999999
1319,0.706972,0.667424,-0.2339429999999999,2.604689,0.4878949999999999,0.641917
1320,0.692036,0.684516,-0.2291659999999999,2.682658,0.106393,-0.0208639999999999
1321,0.686317,0.71385,-0.139209,2.073982,-0.118819,-0.693601
1322,0.669022,0.738052,-0.087642,0.408386,0.0532679999999999,0.391048
1323,0.664687,0.74559,-0.047738,0.412721,0.04573,0.351144
1324,0.64504,0.764018,-0.013855,-1.107961,-0.129954,-0.643829
1325,0.611942,0.790661,0.019343,0.052486,-1.452221,-0.5360520000000001
1326,0.583221,0.810638,0.052057,0.081207,-1.472198,-0.568765
1327,0.56392,0.823049,0.067647,-0.155091,-1.149541,-0.385625
1328,0.5596800000000001,0.827728,0.040198,-0.333469,-1.231003,-0.271216
1329,0.577548,0.8162590000000001,-0.012302,-0.433581,-1.197851,-0.371777
1330,0.602298,0.795288,-0.0688899999999999,-0.128071,-0.8719030000000001,-0.58321
1331,0.6291899999999999,0.763659,-0.144701,0.425193,-0.38727,0.588946
1332,0.655089,0.71967,-0.230057,0.516664,-0.0787549999999999,0.535721
1333,0.682457,0.672624,-0.286046,1.224662,1.25012,0.657216
1334,0.713745,0.630575,-0.304856,2.032043,3.644175,-0.313583
1335,0.710849,0.584354,-0.391432,0.638883,3.082287,-0.071779
1336,0.707964,0.522501,-0.475157,0.649473,1.525915,0.535048
1337,0.7165199999999999,0.463187,-0.521586,1.598513,0.120416,0.384562
1338,0.727035,0.400526,-0.557669,1.3374629999999998,0.149401,0.160727
1339,0.701133,0.381486,-0.6023930000000001,0.314187,-0.053804,0.406302
1340,0.657105,0.394244,-0.6424810000000001,-0.590882,-0.162875,0.736857
1341,0.612432,0.4220819999999999,-0.6684100000000001,-1.296941,-0.492654,1.077864
1342,0.588133,0.457393,-0.666999,-1.939223,-0.821132,1.643898
1343,0.595653,0.5017590000000001,-0.627242,-2.143168,-0.681874,1.861602
1344,0.620929,0.54756,-0.560912,-1.8185,-0.210463,0.87361
1345,0.649238,0.572932,-0.500235,-0.402,0.141851,-0.4517609999999999
1346,0.663766,0.5838939999999999,-0.467416,2.290702,0.329421,-1.548285
1347,0.6618470000000001,0.5630390000000001,-0.4949149999999999,1.687976,-0.634099,0.832485
1348,0.6916359999999999,0.5351779999999999,-0.484996,-0.59726,-0.883353,2.411891
1349,0.713152,0.521099,-0.468898,-0.791766,0.563175,0.191768
1350,0.700983,0.488038,-0.520037,0.058172,2.063003,-1.938734
1351,0.727304,0.468233,-0.50178,-1.061624,0.075667,0.694666
1352,0.770683,0.485283,-0.41297,-0.610847,0.562508,1.234259
1353,0.769659,0.5179819999999999,-0.37325,0.021265,1.378975,0.470189
1354,0.762648,0.5680850000000001,-0.309259,0.44748,1.5405719999999998,0.546533
1355,0.740455,0.6265069999999999,-0.243329,1.11805,1.113132,0.7198760000000001
1356,0.716996,0.658806,-0.227786,2.713623,0.71827,0.784976
1357,0.703723,0.67887,-0.209532,2.233793,0.034143,-1.007326
1358,0.68261,0.717191,-0.140262,1.3604040000000002,0.09035,-0.960095
1359,0.665613,0.738738,-0.105919,0.6971189999999999,-0.161925,1.092964
1360,0.650833,0.756743,-0.061233,-1.078262,-0.048491,-0.366791
1361,0.6209060000000001,0.7834939999999999,-0.024577,-1.215663,-0.699434,-0.367238
1362,0.58646,0.8098609999999999,0.013468,0.238614,-1.510575,-0.4848119999999999
1363,0.556515,0.829098,0.053653,0.031269,-1.465969,-0.6949649999999999
1364,0.537675,0.840483,0.066975,-0.264314,-1.210279,-0.424717
1365,0.538592,0.841986,0.031139,-0.36394,-1.09107,-0.406597
1366,0.5594,0.8286110000000001,-0.021597,-0.326368,-0.999937,-0.441797
1367,0.5883189999999999,0.804334,-0.083183,0.568861,-0.5356420000000001,0.396019
1368,0.619217,0.7653340000000001,-0.1755779999999999,0.537964,-0.496642,0.488413
1369,0.658616,0.716214,-0.2307739999999999,0.616454,0.349338,0.292663
1370,0.701539,0.661929,-0.263981,2.084044,3.725537,0.514484
1371,0.712829,0.621109,-0.325719,1.578125,4.073441000000001,0.275228
1372,0.703933,0.573937,-0.418413,0.514847,2.274222,-0.003477
1373,0.6948350000000001,0.51864,-0.498209,1.38744,0.787466,0.502741
1374,0.6996979999999999,0.4571199999999999,-0.549054,1.511514,0.167117,0.270688
1375,0.6920970000000001,0.410969,-0.593383,0.6723600000000001,0.072216,0.36708
1376,0.657633,0.4036389999999999,-0.636075,-0.19549,-0.032942,0.6816840000000001
1377,0.612504,0.421558,-0.668674,-1.030015,-0.4158199999999999,0.975559
1378,0.574628,0.448184,-0.684786,-1.607373,-0.784976,1.370958
1379,0.5706829999999999,0.478506,-0.667346,-2.027256,-1.022695,1.877764
1380,0.604121,0.5227350000000001,-0.601484,-2.147182,-0.660415,2.006589
1381,0.644809,0.564112,-0.5157470000000001,-1.661213,-0.098643,0.441925
1382,0.665621,0.584608,-0.463873,-0.155978,0.071016,-0.851282
1383,0.6605770000000001,0.590504,-0.463617,2.233741,0.414272,-1.7429720000000002
1384,0.659924,0.5613560000000001,-0.499376,1.204288,-0.431962,0.8648239999999999
1385,0.6924170000000001,0.54591,-0.471738,-0.635212,-1.117962,2.132307
1386,0.710298,0.5240630000000001,-0.469926,-0.83568,0.170914,1.514055
1387,0.709884,0.492092,-0.503891,-0.414093,0.528568,1.609467
1388,0.7429100000000001,0.484335,-0.462062,-1.159764,-0.2186949999999999,-0.316594
1389,0.767992,0.5043529999999999,-0.39473,-0.309313,0.80598,1.042573
1390,0.767792,0.551354,-0.326341,0.262176,1.590949,0.6352399999999999
1391,0.751911,0.610888,-0.247873,0.900814,1.535612,0.600351
1392,0.7225689999999999,0.657918,-0.2122079999999999,2.019863,0.860865,0.7348210000000001
1393,0.6976060000000001,0.676085,-0.237171,2.5453900000000003,0.033022,-0.159466
1394,0.693108,0.706759,-0.141733,1.2632219999999998,0.316587,-1.670278
1395,0.6753979999999999,0.731956,-0.089849,0.838976,0.016701,0.350546
1396,0.670531,0.739726,-0.0564529999999999,-0.351836,-0.152278,0.094432
1397,0.650619,0.759142,-0.019815,-1.368347,-0.292802,-0.4662229999999999
1398,0.614618,0.788725,0.012289,0.024665,-1.420119,-0.359198
1399,0.584637,0.810054,0.044781,0.0992929999999999,-1.512722,-0.8274809999999999
1400,0.562982,0.823616,0.068574,-0.158517,-1.250618,-0.355546
1401,0.559262,0.827888,0.042679,-0.31683,-1.264961,-0.350143
1402,0.5763659999999999,0.817144,-0.008451,-0.3634449999999999,-1.130056,-0.5230130000000001
1403,0.602125,0.795666,-0.065993,0.006761,-0.679409,-0.2486739999999999
1404,0.6285390000000001,0.763063,-0.150561,0.456559,-0.428575,0.613421
1405,0.659229,0.715735,-0.230511,0.573361,0.160959,0.225079
1406,0.6979270000000001,0.661852,-0.273578,1.264215,1.928496,-0.137615
1407,0.722454,0.61644,-0.313142,2.01949,4.190323,0.199846
1408,0.705914,0.581034,-0.405069,0.504154,2.499425,0.16305
1409,0.6962689999999999,0.521676,-0.493012,1.1982469999999998,1.142997,0.5034489999999999
1410,0.702709,0.459431,-0.543249,1.720508,0.11607,0.179572
1411,0.7011930000000001,0.400513,-0.589843,1.419809,0.147536,0.229812
1412,0.665572,0.386204,-0.638638,-0.492202,-0.07436,0.757351
1413,0.6171220000000001,0.403157,-0.6757380000000001,-0.443752,-0.091313,0.794452
1414,0.572616,0.431375,-0.697155,-1.516815,-0.6147100000000001,1.369136
1415,0.561233,0.461427,-0.687096,-2.120879,-1.079225,2.309014
1416,0.59443,0.50163,-0.628505,-2.154077,-1.119427,2.250423
1417,0.646569,0.543588,-0.5352180000000001,-1.833031,-0.2044,0.617905
1418,0.675983,0.567364,-0.470256,0.351757,0.149082,-0.897709
1419,0.676836,0.586091,-0.4454079999999999,0.350905,0.130355,-0.922558
1420,0.654259,0.581761,-0.4832149999999999,1.616478,0.139369,0.320342
1421,0.671193,0.5645939999999999,-0.4803439999999999,-0.368459,-0.417941,1.966611
1422,0.6944859999999999,0.542263,-0.4729029999999999,-0.391752,-0.395611,1.95917
1423,0.6989569999999999,0.4825689999999999,-0.52781,-0.178235,0.774038,1.586786
1424,0.735668,0.4523069999999999,-0.5041899999999999,-1.201763,-0.524436,1.078302
1425,0.7707609999999999,0.4748239999999999,-0.424813,-0.717828,0.339492,1.227334
1426,0.762864,0.515378,-0.39041,0.059264,1.579348,0.371672
1427,0.743404,0.573947,-0.343412,0.403828,1.633771,0.658323
1428,0.7239300000000001,0.631942,-0.276713,0.942894,1.147797,0.67689
1429,0.706795,0.6587890000000001,-0.257748,2.505562,0.601801,0.4424399999999999
1430,0.698209,0.688344,-0.19668,2.19437,0.0314889999999999,-0.561713
1431,0.6752630000000001,0.724727,-0.137065,1.19397,0.115071,-0.476933
1432,0.6703899999999999,0.736978,-0.086233,-0.267528,-0.065759,-0.0308779999999999
1433,0.657104,0.7524310000000001,-0.045347,-1.285003,0.169734,-0.548143
1434,0.626028,0.779766,-0.006908,-0.2862909999999999,-1.106915,-0.469074
1435,0.592284,0.805427,0.021948,0.059587,-1.427085,-0.730169
1436,0.564226,0.824152,0.049157,-0.0558179999999999,-1.207819,-0.368081
1437,0.551164,0.8337370000000001,0.0331,-0.206499,-1.372448,-0.3942449999999999
1438,0.557429,0.8301209999999999,-0.012927,-0.32928,-1.415493,-0.5081
1439,0.578162,0.813337,-0.064854,-0.035254,-0.95883,-0.272701
1440,0.601445,0.7869970000000001,-0.137461,0.1180069999999999,-0.783701,0.230814
1441,0.6273989999999999,0.746316,-0.222212,0.586743,-0.032098,0.393171
1442,0.669309,0.69271,-0.268653,1.113497,1.377985,0.216239
1443,0.711667,0.638483,-0.293028,1.686236,2.756583,-0.275301
1444,0.70635,0.604301,-0.368627,0.48498,2.904152,0.047536
1445,0.695947,0.551905,-0.4594069999999999,0.72814,1.470174,0.25082
1446,0.694702,0.4973619999999999,-0.519633,1.266419,0.8720540000000001,0.26475
1447,0.7013,0.4390989999999999,-0.561577,1.380762,-0.105709,0.319496
1448,0.68633,0.405167,-0.6039770000000001,0.305888,-0.106018,0.404926
1449,0.64722,0.410146,-0.6425609999999999,-0.522265,-0.127004,0.750487
1450,0.600874,0.434614,-0.6708649999999999,-1.193541,-0.4700899999999999,1.08833
1451,0.569364,0.463238,-0.679142,-1.612989,-0.6436270000000001,1.379154
