,gravity.x,gravity.y,gravity.z,userAcceleration.x,userAcceleration.y,userAcceleration.z
0,0.233475,0.729665,-0.642712,0.457321,-0.211461,0.0512049999999999
1,0.25166,0.752233,-0.6089439999999999,0.043292,-0.1458799999999999,0.193599
2,0.273181,0.7764220000000001,-0.5679270000000001,-0.287906,0.054434,-0.059637
3,0.294097,0.791521,-0.535725,-0.3841239999999999,0.382612,0.045826
4,0.316126,0.800866,-0.508604,-0.238032,0.5071640000000001,0.386427
5,0.347545,0.812185,-0.46858,-0.3610489999999999,0.229059,0.445417
6,0.371363,0.82552,-0.4249779999999999,-0.400767,-0.058827,0.065786
7,0.387187,0.8354540000000001,-0.390003,-0.149562,-0.321584,0.312381
8,0.408209,0.842231,-0.352155,-0.105963,-0.343802,0.362073
9,0.4289689999999999,0.847327,-0.313086,-0.013671,-0.176306,0.330893
10,0.442575,0.8513809999999999,-0.281563,-0.040231,0.2520739999999999,0.144906
11,0.453892,0.852772,-0.258383,-0.014561,0.271251,0.059622
12,0.467381,0.8529899999999999,-0.232302,0.024547,0.032936,0.044435
13,0.477892,0.8548790000000001,-0.201992,0.0847,-0.1635339999999999,0.130154
14,0.48468,0.858582,-0.167096,0.104126,-0.185914,0.3194099999999999
15,0.487852,0.86229,-0.135856,0.079408,0.028274,0.325034
16,0.488838,0.8642610000000001,-0.118703,0.0823899999999999,0.24281,0.0994159999999999
17,0.4847979999999999,0.866973,-0.115454,0.205159,0.261521,-0.033838
18,0.477415,0.870389,-0.120404,0.246401,0.244189,-0.033664
19,0.470909,0.874511,-0.116078,0.1710279999999999,0.186783,0.141255
20,0.466855,0.8780459999999999,-0.105266,-0.063382,0.262868,0.128246
21,0.460655,0.882657,-0.093346,-0.117683,0.335406,0.0797809999999999
22,0.449979,0.8897809999999999,-0.076206,-0.038435,0.268757,0.05756
23,0.43483,0.899207,-0.048467,0.032195,0.2264949999999999,0.035863
24,0.416806,0.908922,-0.01151,0.129855,0.239027,-0.05012
25,0.39689,0.917454,0.027492,0.176764,0.2634849999999999,-0.1574819999999999
26,0.376957,0.923932,0.065219,0.195796,0.29906,-0.328006
27,0.355468,0.92908,0.102239,0.151506,0.227261,-0.391317
28,0.3340579999999999,0.933274,0.13193,0.181552,0.165756,-0.461825
29,0.3158559999999999,0.936865,0.150065,0.131868,-0.005209,-0.663172
30,0.301042,0.940561,0.157219,0.015791,-0.045603,-0.250481
31,0.295464,0.943783,0.148243,-0.219215,0.009251,0.069043
32,0.302175,0.944289,0.130415,-0.458532,-0.132689,-0.468778
33,0.314394,0.942241,0.115493,-0.244951,-0.358257,-0.708739
34,0.32406,0.941769,0.089752,-0.134272,-0.411099,-0.515671
35,0.339358,0.939455,0.047547,-0.025271,-0.158693,0.194869
36,0.364125,0.931304,0.009235,-0.032597,0.095872,0.27789
37,0.3851699999999999,0.922526,-0.024286,-0.360176,0.691915,-0.047552
38,0.397594,0.914892,-0.069944,-0.603176,0.50764,0.119154
39,0.404984,0.905206,-0.128801,-0.647202,0.365515,0.213807
40,0.407644,0.8907209999999999,-0.201104,-0.639608,0.240429,0.154076
41,0.38043,0.8835129999999999,-0.2732699999999999,-0.542509,-0.0092459999999999,-0.04869
42,0.3645239999999999,0.868477,-0.33596,-0.4930489999999999,-0.045342,-0.03843
43,0.346041,0.853722,-0.3891199999999999,-0.383181,-0.07943,0.033971
44,0.335528,0.838607,-0.429138,-0.159777,-0.0308829999999999,0.057235
45,0.333242,0.824367,-0.457568,-0.078725,-0.10487,0.04201
46,0.333529,0.8120149999999999,-0.478947,0.06883,-0.167392,0.079472
47,0.332665,0.8029609999999999,-0.494558,0.095145,-0.290388,0.196569
48,0.3296159999999999,0.796024,-0.507641,-0.038249,-0.364536,0.227169
49,0.325741,0.790039,-0.519356,-0.1416589999999999,-0.399658,0.225502
50,0.322106,0.786184,-0.527411,-0.2407,-0.484106,0.17359
51,0.319582,0.787654,-0.526753,-0.323,-0.575984,0.106145
52,0.32098,0.793553,-0.516958,-0.317959,-0.557301,0.041845
53,0.3270949999999999,0.8033319999999999,-0.4976609999999999,-0.280144,-0.380297,-0.021534
54,0.335495,0.817833,-0.467538,-0.199371,-0.237709,-0.174139
55,0.343937,0.8346690000000001,-0.4301569999999999,-0.097676,-0.025663,-0.503894
56,0.350527,0.848198,-0.397103,0.097868,0.312217,-0.908897
57,0.353536,0.853462,-0.382903,0.167369,0.45974,-1.036362
58,0.34969,0.857397,-0.377606,0.040309,0.470758,-0.824024
59,0.346596,0.8614379999999999,-0.37121,-0.147423,0.371701,-0.750266
60,0.343975,0.8563790000000001,-0.3850929999999999,-0.12646,1.216573,-1.115685
61,0.3334809999999999,0.8352129999999999,-0.437275,0.260681,1.3396370000000002,0.301288
62,0.331389,0.823677,-0.46015,-0.278395,-0.285102,0.781561
63,0.362257,0.8189960000000001,-0.4449899999999999,-0.730971,-0.913081,1.226865
64,0.411684,0.8204299999999999,-0.3967489999999999,-1.384081,-0.285869,0.059561
65,0.434539,0.815005,-0.38333,-0.7790060000000001,0.709134,-0.10286
66,0.448342,0.819772,-0.3563179999999999,-0.3528679999999999,0.81539,0.916025
67,0.460079,0.8490049999999999,-0.259843,-0.6432,0.488321,1.132356
68,0.4632239999999999,0.875481,-0.137681,-0.475736,0.225501,0.8815930000000001
69,0.468909,0.881973,-0.047413,-0.0240389999999999,0.251801,0.492222
70,0.466076,0.8846280000000001,-0.0144009999999999,0.266529,0.349,-0.008853
71,0.452571,0.891689,0.008412,0.192159,0.215977,-0.203771
72,0.440935,0.895962,0.053182,0.113844,0.021976,0.15446
73,0.43405,0.894943,0.1033289999999999,0.088548,-0.120621,0.327
74,0.428793,0.8916649999999999,0.145153,0.061136,-0.135821,0.2938119999999999
75,0.422717,0.8884790000000001,0.178649,0.000608,-0.035681,0.06688
76,0.414667,0.885785,0.208415,-0.009165,-0.030225,0.030721
77,0.4088699999999999,0.882832,0.231156,-0.002162,-0.072972,-0.010895
78,0.403549,0.8811969999999999,0.24625,0.042007,-0.089068,-0.083744
79,0.396287,0.8812989999999999,0.257427,0.08145,-0.112546,-0.2401239999999999
80,0.389667,0.8813780000000001,0.26708,0.09483,-0.193054,-0.192678
81,0.3860949999999999,0.881365,0.272264,0.087508,-0.262117,-0.180147
82,0.3856969999999999,0.881769,0.271516,0.074477,-0.251062,-0.118669
83,0.3875989999999999,0.8807530000000001,0.272105,0.0072069999999999,-0.140122,0.03362
84,0.38863,0.8775360000000001,0.280888,-0.047153,-0.157077,-0.032841
85,0.389112,0.876859,0.282331,0.0578179999999999,-0.173139,-0.274503
86,0.384413,0.881806,0.273211,0.050417,0.044418,-0.574099
87,0.375456,0.886366,0.270903,0.085497,0.101457,-0.335066
88,0.362432,0.891423,0.272045,0.146753,0.2499199999999999,0.028675
89,0.347097,0.896553,0.275167,0.27325,0.367607,-0.153341
90,0.332409,0.900492,0.280391,0.3312719999999999,0.355658,-0.252803
91,0.316481,0.904339,0.2863739999999999,0.411287,0.3951449999999999,-0.52992
92,0.300838,0.906846,0.295173,0.352834,0.501922,-0.182609
93,0.287431,0.908454,0.3034719999999999,0.334212,0.605294,-0.126576
94,0.281072,0.908558,0.309065,0.272501,0.4670829999999999,-0.2146739999999999
95,0.278565,0.911145,0.303671,0.164184,0.4528529999999999,-0.327459
96,0.278181,0.918032,0.282549,-0.000684,0.383894,-0.23224
97,0.2771699999999999,0.928729,0.2462489999999999,-0.159281,0.235913,-0.139438
98,0.2752949999999999,0.939511,0.203792,-0.299037,0.1393,-0.182033
99,0.27257,0.948434,0.161801,-0.268511,0.148338,-0.150921
100,0.269852,0.954992,0.123165,-0.188782,0.110788,-0.019939
101,0.272378,0.958233,0.08718,-0.091882,-0.007595,0.200875
102,0.284396,0.956966,0.057744,-0.079501,-0.003735,0.2379409999999999
103,0.303987,0.952263,0.0280699999999999,-0.141344,0.047112,0.227346
104,0.33092,0.943507,-0.016898,-0.018802,0.161275,0.087867
105,0.36584,0.927492,-0.076941,0.020086,0.15489,0.094687
106,0.403126,0.903587,-0.144981,-0.127125,0.091942,0.103934
107,0.430251,0.8755299999999999,-0.219844,-0.119368,-0.043636,0.008296
108,0.448292,0.8453629999999999,-0.29051,-0.130925,-0.114924,0.069838
109,0.463563,0.81477,-0.348224,-0.163499,-0.263897,-0.065259
110,0.4771189999999999,0.783505,-0.398092,-0.2974469999999999,-0.173977,-0.060801
111,0.48568,0.7520140000000001,-0.445633,-0.423256,-0.017899,0.0608679999999999
112,0.487751,0.723247,-0.488889,-0.204242,-0.0982929999999999,0.076017
113,0.483955,0.698024,-0.527779,-0.063453,-0.08372,0.062446
114,0.473254,0.677739,-0.562762,0.066465,0.0567429999999999,0.0077379999999999
115,0.4564539999999999,0.66464,-0.591526,-0.1101099999999999,0.1045099999999999,-0.08749
116,0.43442,0.659574,-0.6133850000000001,-0.143771,0.086016,-0.099444
117,0.412797,0.663492,-0.624001,-0.1049349999999999,0.033423,-0.170341
118,0.394348,0.67689,-0.621538,-0.098328,-0.0415139999999999,-0.112898
119,0.377831,0.696392,-0.6101489999999999,-0.164971,-0.075711,-0.122288
120,0.364559,0.718518,-0.592308,-0.100963,-0.116513,-0.196144
121,0.361698,0.740966,-0.565813,0.027783,-0.171721,0.146791
122,0.373118,0.768976,-0.5190939999999999,-0.2278239999999999,-0.126642,0.273001
123,0.3902239999999999,0.796258,-0.462275,-0.382579,0.267127,-0.197729
124,0.397344,0.815263,-0.4212649999999999,-0.302144,0.655517,-0.22261
125,0.399353,0.829259,-0.390955,-0.04161,0.510157,0.596201
126,0.412942,0.8471049999999999,-0.334504,-0.262215,-0.104047,0.4863439999999999
127,0.4224979999999999,0.8619899999999999,-0.280124,-0.30415,-0.337057,0.066288
128,0.427803,0.8719709999999999,-0.2380159999999999,-0.176857,-0.398521,0.153422
129,0.434747,0.878901,-0.196286,-0.060403,-0.279993,0.378583
130,0.436168,0.887336,-0.149636,-0.072826,-0.011329,0.302102
131,0.424696,0.8981879999999999,-0.113541,-0.075636,0.2954,-0.02446
132,0.410138,0.907213,-0.093549,0.120532,0.372282,-0.2336599999999999
133,0.399621,0.913994,-0.070133,0.2276679999999999,-0.022606,-0.0518
134,0.392935,0.918613,-0.041855,0.296106,-0.180042,0.033829
135,0.382843,0.923634,-0.018196,0.322403,-0.172871,0.1067579999999999
136,0.366846,0.930282,0.00018,0.177344,-0.105346,0.202655
137,0.350458,0.936567,0.00458,0.2420409999999999,-0.007963,0.04733
138,0.33187,0.943313,-0.0049,0.279413,0.172074,-0.1201
139,0.3157,0.948839,-0.006161,0.277623,0.178251,-0.132633
140,0.303992,0.952674,0.000765,0.266656,0.094888,-0.211871
141,0.293777,0.955687,0.018896,0.187927,0.0179919999999999,-0.1161099999999999
142,0.283613,0.957864,0.0454,0.1502099999999999,0.0090099999999999,-0.152365
143,0.2727429999999999,0.959306,0.073097,0.163963,-0.041841,-0.312889
144,0.260677,0.960358,0.09879,0.198933,-0.024049,-0.446187
145,0.2490139999999999,0.961265,0.118163,0.243983,0.034081,-0.555373
146,0.241027,0.96221,0.126723,0.0876779999999999,0.11294,-0.343367
147,0.2374119999999999,0.96345,0.124095,-0.00351,0.078771,-0.280834
148,0.238499,0.965276,0.106584,-0.071782,0.05923,-0.2511
149,0.242757,0.967256,0.074055,-0.102895,0.119063,-0.1459089999999999
150,0.250357,0.967667,0.030699,-0.100454,0.12764,-0.069411
151,0.261971,0.964869,-0.019957,-0.083474,0.1333359999999999,0.026625
152,0.280543,0.957025,-0.073479,0.1161859999999999,0.230353,0.069237
153,0.305527,0.944331,-0.1220319999999999,0.107223,0.329869,0.101174
154,0.333823,0.926915,-0.1714369999999999,0.151773,0.492992,0.063085
155,0.360821,0.902569,-0.2349,-0.089947,0.318394,0.297858
156,0.37417,0.877891,-0.298838,-0.2016089999999999,0.207497,0.557902
157,0.377845,0.863084,-0.33514,-0.394889,-0.1600359999999999,0.288723
158,0.385681,0.844083,-0.372523,-0.350387,-0.195127,0.059336
159,0.392306,0.821599,-0.413608,-0.145998,-0.0240979999999999,-0.256223
160,0.392032,0.795599,-0.461881,-0.219028,0.016932,-0.131045
161,0.3790969999999999,0.770019,-0.513181,-0.278649,-0.028656,0.025221
162,0.360452,0.747527,-0.557922,-0.272317,-0.177978,0.221329
163,0.344303,0.72965,-0.590819,-0.17876,-0.304143,0.100325
164,0.332439,0.7169449999999999,-0.6127600000000001,-0.141445,-0.266475,0.063566
165,0.322635,0.7111689999999999,-0.624616,-0.177783,-0.266421,0.062803
166,0.313936,0.711909,-0.628195,-0.167269,-0.3367719999999999,0.036688
167,0.306594,0.7169220000000001,-0.6261180000000001,-0.142425,-0.36423,0.0485569999999999
168,0.300904,0.724212,-0.620462,-0.160569,-0.338699,0.021616
169,0.297226,0.733507,-0.6112489999999999,-0.152374,-0.3192,-0.040576
170,0.296877,0.746232,-0.595821,-0.089525,-0.185731,-0.158833
171,0.299828,0.761663,-0.574433,0.158118,-0.026769,-0.452347
172,0.311094,0.7742640000000001,-0.551122,0.462008,-0.020938,-0.349238
173,0.331499,0.786877,-0.520512,-0.019441,0.258472,-0.07716
174,0.3486849999999999,0.7999149999999999,-0.488421,-0.37255,0.65913,-0.549604
175,0.346412,0.818954,-0.457507,-0.234092,0.709275,-0.000104
176,0.348754,0.840404,-0.414839,-0.096648,0.186817,0.5265029999999999
177,0.364484,0.860751,-0.355329,-0.05,0.06442,0.340925
178,0.379812,0.877006,-0.294284,-0.010107,-0.044288,0.307467
179,0.38992,0.890824,-0.233227,-0.040525,-0.103425,0.316952
180,0.39421,0.9004700000000001,-0.183719,-0.0352009999999999,0.0274629999999999,0.2529639999999999
181,0.390534,0.908688,-0.147548,-0.063904,0.173817,0.1130019999999999
182,0.383319,0.916588,-0.113724,-0.013553,0.216438,0.08371
183,0.374556,0.924003,-0.076982,0.0715809999999999,0.129281,-0.013411
184,0.364105,0.930288,-0.044629,0.090927,-0.068731,-0.0894809999999999
185,0.35615,0.934173,-0.02186,0.148046,-0.199157,-0.16329
186,0.346558,0.938026,-0.002235,0.14125,-0.342429,-0.04615
187,0.3317199999999999,0.943236,0.016355,0.0894679999999999,-0.398619,0.083407
188,0.312492,0.949486,0.02873,0.051583,-0.312019,0.12662
189,0.293952,0.955288,0.031909,0.177164,-0.115505,0.104719
190,0.2792139999999999,0.959666,0.032864,0.3588929999999999,-0.021892,-0.0939909999999999
191,0.271574,0.961615,0.039299,0.513521,-0.046789,-0.39048
192,0.269003,0.961815,0.050483,0.3584989999999999,-0.089348,-0.238746
193,0.267675,0.961192,0.066789,0.141032,-0.0619759999999999,-0.090608
194,0.265364,0.960289,0.086177,0.034075,0.028877,-0.147045
195,0.260291,0.959675,0.10617,0.059014,0.062938,-0.327789
196,0.2513869999999999,0.959655,0.125967,0.1063099999999999,0.0420699999999999,-0.404333
197,0.240887,0.959453,0.146368,0.226734,0.086781,-0.428121
198,0.231936,0.958649,0.16492,0.223264,0.201309,-0.43288
199,0.226517,0.95899,0.170375,0.2097929999999999,0.38125,-0.513271
200,0.222626,0.963432,0.149119,-0.0459139999999999,0.5789569999999999,-0.1459
201,0.220297,0.969582,0.106675,-0.143743,0.445747,-0.10344
202,0.222092,0.973691,0.051004,-0.078873,0.209171,-0.021188
203,0.231,0.972878,-0.012148,0.073046,0.134422,-0.095426
204,0.249048,0.96553,-0.075677,0.381613,0.109742,-0.343009
205,0.281605,0.948575,-0.144582,0.64767,0.1903099999999999,-0.066814
206,0.320865,0.92242,-0.214909,0.346951,0.49036,0.347447
207,0.343659,0.897932,-0.274986,-0.0273449999999999,0.4926319999999999,0.744193
208,0.358335,0.875008,-0.325509,-0.30615,0.151588,0.564859
209,0.376475,0.8485469999999999,-0.371799,-0.321604,0.025781,-0.1485109999999999
210,0.38072,0.8171619999999999,-0.43278,-0.285459,0.031425,-0.301519
211,0.359151,0.787828,-0.500337,-0.317526,0.07028,-0.277861
212,0.335615,0.7624479999999999,-0.553204,-0.172758,-0.4041869999999999,0.428571
213,0.3269829999999999,0.73569,-0.593162,-0.085421,-0.369708,0.333977
214,0.3280889999999999,0.708957,-0.62429,-0.016733,-0.289005,0.287315
215,0.325771,0.68705,-0.649489,-0.306865,-0.124215,0.212126
216,0.315734,0.672158,-0.669713,-0.356719,-0.142724,0.165074
217,0.298425,0.666845,-0.682833,-0.345101,-0.4158229999999999,0.149782
218,0.283578,0.671221,-0.684869,-0.23037,-0.559466,0.0756309999999999
219,0.278104,0.682813,-0.675592,-0.092069,-0.46565,-0.0058049999999999
220,0.280677,0.698318,-0.658462,-0.109443,-0.275513,-0.101914
221,0.285248,0.716581,-0.63651,0.029708,-0.210554,-0.161082
222,0.288909,0.733654,-0.6150479999999999,0.263734,-0.011364,-0.6066630000000001
223,0.296223,0.745935,-0.596517,0.578533,0.095679,-0.3304539999999999
224,0.304531,0.758907,-0.575605,0.204869,0.5467420000000001,-0.099307
225,0.3129699999999999,0.772629,-0.552354,-0.1678589999999999,0.651428,-0.6514270000000001
226,0.3042829999999999,0.793384,-0.527213,-0.342598,0.4916649999999999,0.0325079999999999
227,0.298734,0.819903,-0.488382,-0.21745,-0.076983,0.449503
228,0.312904,0.8439700000000001,-0.435666,-0.263115,-0.069038,0.458692
229,0.336093,0.86315,-0.376847,-0.262607,0.053506,0.3271949999999999
230,0.350302,0.8808450000000001,-0.318434,-0.1293089999999999,0.041076,0.171279
231,0.355448,0.8970040000000001,-0.262754,0.061208,0.084502,0.069761
232,0.35479,0.909785,-0.215444,0.242851,0.163763,-0.021632
233,0.351015,0.919579,-0.176532,0.308378,0.1085579999999999,0.152362
234,0.348408,0.926737,-0.1406059999999999,0.200726,0.021352,0.12875
235,0.34564,0.932122,-0.108078,0.067614,-0.014337,0.0657799999999999
236,0.343655,0.935776,-0.078899,0.023624,-0.083694,0.02209
237,0.342154,0.938086,-0.054086,0.080942,-0.29772,-0.0035159999999999
238,0.340638,0.939511,-0.035847,0.099609,-0.356045,-0.068905
239,0.34007,0.940007,-0.0271819999999999,0.137591,-0.281667,-0.084619
240,0.343649,0.938653,-0.028918,0.150033,-0.2313619999999999,-0.091779
241,0.353254,0.934729,-0.038649,0.155047,-0.237463,-0.151079
242,0.367476,0.928641,-0.050862,0.039675,-0.440818,-0.317958
243,0.383655,0.921308,-0.063245,-0.0034219999999999,-0.509656,-0.250918
244,0.400995,0.913337,-0.070845,-0.065866,-0.5569069999999999,-0.152314
245,0.416045,0.906478,-0.072142,-0.316588,-0.500686,0.005125
246,0.424523,0.902906,-0.067394,-0.3663409999999999,-0.38403,0.051982
247,0.426464,0.902733,-0.05658,-0.079815,-0.043923,0.237228
248,0.426322,0.903432,-0.045385,0.201745,0.03834,0.172399
249,0.4265029999999999,0.903942,-0.031369,0.287303,0.009281,0.004621
250,0.425349,0.90479,-0.02081,0.21555,0.256953,-0.241062
251,0.421633,0.906676,-0.0128259999999999,0.162885,0.4097,-0.076133
252,0.414058,0.91024,-0.004468,0.286809,0.297616,0.03671
253,0.39926,0.916783,0.010057,0.430544,0.264461,-0.078325
254,0.37693,0.925569,0.035295,0.488274,0.643568,-0.01584
255,0.3498719999999999,0.934132,0.070622,0.515804,0.751782,0.042644
256,0.324283,0.939149,0.113311,0.520977,0.824889,0.029786
257,0.300181,0.940944,0.156576,0.441579,0.846852,-0.2695059999999999
258,0.277545,0.942111,0.188136,0.4635439999999999,0.88461,-0.401698
259,0.257982,0.944452,0.2036079999999999,0.437377,0.860922,-0.445475
260,0.24044,0.949245,0.202787,0.2463,0.437123,-0.524335
261,0.228672,0.956094,0.1832859999999999,0.210064,0.246894,-0.579526
262,0.226825,0.963319,0.1434119999999999,0.164761,0.114241,-0.6326390000000001
263,0.229954,0.96925,0.087608,0.128185,-0.203701,-0.430427
264,0.233259,0.972141,0.023075,0.179003,-0.249057,0.063458
265,0.246096,0.968586,-0.035742,0.15373,-0.255696,0.196768
266,0.275487,0.958083,-0.078639,0.123927,0.019578,0.193416
267,0.311904,0.942716,-0.1183309999999999,0.040406,0.2643,0.278762
268,0.348217,0.920811,-0.175646,-0.344448,0.318981,0.013353
269,0.372344,0.893734,-0.250199,-0.2236929999999999,0.197605,-0.125609
270,0.383401,0.8614209999999999,-0.333103,-0.086832,0.181624,0.060535
271,0.385108,0.8228840000000001,-0.417797,0.008554,0.2065199999999999,0.122463
272,0.381625,0.777996,-0.499085,0.020566,-0.020793,0.2221219999999999
273,0.371715,0.725526,-0.5791729999999999,-0.057521,-0.039536,0.257441
274,0.349747,0.667644,-0.657213,-0.164017,-0.160503,0.330812
275,0.316891,0.6036779999999999,-0.731542,-0.1143309999999999,0.035406,0.224065
276,0.268737,0.541367,-0.796682,0.012772,0.072875,0.194723
277,0.2133179999999999,0.483877,-0.8487389999999999,-0.004075,0.037317,0.326721
278,0.152402,0.431689,-0.8890549999999999,-0.144834,-0.036868,0.437547
279,0.0906309999999999,0.389405,-0.916597,-0.211694,-0.139801,0.512437
280,0.039803,0.3615489999999999,-0.931503,-0.219659,-0.222648,0.538177
281,0.006265,0.349972,-0.936739,-0.193338,-0.356838,0.428667
282,-0.007504,0.355571,-0.934619,-0.2219269999999999,-0.352535,0.15758
283,-0.0129539999999999,0.375311,-0.926808,-0.1155549999999999,-0.368139,0.0213819999999999
284,-0.018409,0.403251,-0.914904,-0.018288,-0.423271,0.050143
285,-0.023142,0.435518,-0.899882,0.034693,-0.537691,-0.030522
286,-0.022299,0.467369,-0.8837809999999999,0.281088,-0.525978,-0.234093
287,-0.013777,0.4968329999999999,-0.8677370000000001,0.2479239999999999,-0.33329,0.031921
288,-0.005212,0.5319520000000001,-0.846758,-0.017737,-0.210755,0.179232
289,0.0067079999999999,0.5549649999999999,-0.8318469999999999,-0.323251,0.717115,-0.64583
290,0.023772,0.574883,-0.81789,0.331102,0.628654,-0.192974
291,0.066323,0.611611,-0.788374,0.252707,0.0952679999999999,0.258909
292,0.1074789999999999,0.647938,-0.7540720000000001,-0.17503,-0.123417,0.282392
293,0.157422,0.676334,-0.719577,-0.020581,-0.071368,0.428531
294,0.210761,0.698871,-0.6834899999999999,-0.090018,0.118588,0.283725
295,0.2620139999999999,0.719097,-0.643622,-0.181829,0.244511,0.140143
296,0.303602,0.741835,-0.597919,-0.1603369999999999,0.297823,0.012622
297,0.337862,0.765983,-0.546918,-0.166093,0.190346,0.0451779999999999
298,0.365692,0.786554,-0.497597,-0.1064599999999999,0.182822,0.0166699999999999
299,0.386863,0.805722,-0.448496,-0.154777,0.1221339999999999,0.099466
300,0.4017199999999999,0.8247610000000001,-0.397983,-0.138033,0.065437,0.114292
301,0.411808,0.843205,-0.34557,-0.086766,-0.040654,0.081288
302,0.420825,0.8589379999999999,-0.291773,-0.067858,0.052439,0.076823
303,0.427666,0.874498,-0.228813,-0.072197,0.067946,0.0996929999999999
304,0.431938,0.8874569999999999,-0.160776,-0.059837,0.080774,0.011393
305,0.4307069999999999,0.897708,-0.092795,0.144748,-0.0343199999999999,0.12934
306,0.423227,0.90545,-0.032236,0.191077,-0.0105069999999999,0.12179
307,0.409783,0.912015,0.017496,0.207511,0.009784,0.134711
308,0.397323,0.915965,0.056057,0.146744,-0.108027,-0.00613
309,0.3881239999999999,0.918222,0.078922,0.101744,-0.197045,-0.031925
310,0.383874,0.919558,0.083987,0.01966,-0.194674,-0.155932
311,0.38118,0.920532,0.085576,-0.020859,-0.154571,-0.144902
312,0.3776219999999999,0.921568,0.09008,-0.060041,-0.166731,-0.116356
313,0.375455,0.922126,0.093369,-0.068234,-0.208213,-0.11345
314,0.375134,0.921929,0.09654,-0.066297,-0.251046,0.031893
315,0.376166,0.920939,0.101833,-0.082801,-0.2052409999999999,0.033177
316,0.377709,0.919869,0.10572,-0.089883,-0.212914,-0.069251
317,0.379343,0.919079,0.1067359999999999,-0.058313,-0.318295,-0.096314
318,0.380596,0.918604,0.106368,-0.046612,-0.333048,-0.092085
319,0.3815949999999999,0.918258,0.105771,-0.02898,-0.224059,-0.033505
320,0.381824,0.91781,0.1087849999999999,0.055371,-0.133417,-0.0066739999999999
321,0.3799099999999999,0.917875,0.11478,0.074512,-0.020749,0.116513
322,0.3778579999999999,0.918447,0.1169579999999999,0.085719,0.065745,-0.06372
323,0.369459,0.920825,0.124824,0.18242,-0.00806,-0.150535
324,0.3597,0.923581,0.132715,0.327098,0.103778,-0.016291
325,0.348603,0.92647,0.141877,0.328018,0.102018,-0.0205389999999999
326,0.336034,0.93063,0.144944,0.370798,0.200428,-0.174928
327,0.3199099999999999,0.935559,0.149622,0.357717,0.248782,-0.066675
328,0.29989,0.940699,0.158592,0.3936219999999999,0.2152,-0.064369
329,0.277285,0.945927,0.1683329999999999,0.4246649999999999,0.210812,-0.257017
330,0.254318,0.94961,0.1832,0.457001,0.513555,0.118253
331,0.238909,0.949536,0.203232,0.4486819999999999,0.485217,0.0686799999999999
332,0.2296699999999999,0.948943,0.216236,0.293981,0.596162,-0.400821
333,0.220384,0.949555,0.223104,0.215788,0.574142,-0.367666
334,0.208328,0.952234,0.223271,0.138061,0.557715,-0.3325849999999999
335,0.193391,0.95828,0.210473,0.02864,0.44211,-0.187829
336,0.18235,0.965344,0.1867069999999999,0.007073,0.331485,-0.070344
337,0.179272,0.970987,0.1582569999999999,-0.0881919999999999,-0.0531559999999999,-0.173531
338,0.182313,0.97495,0.127411,-0.084413,-0.2958119999999999,-0.1106109999999999
339,0.191196,0.977147,0.0928809999999999,-0.111454,-0.432439,-0.0028699999999999
340,0.206794,0.976889,0.054074,-0.063529,-0.453101,0.212772
341,0.229646,0.973165,0.014553,-0.073976,-0.207006,-0.0454209999999999
342,0.255713,0.966461,-0.023728,-0.244269,0.104095,-0.333526
343,0.276778,0.959032,-0.060426,-0.385634,0.1867349999999999,-0.294219
344,0.292281,0.951222,-0.098733,-0.413009,0.128627,0.057107
345,0.3043119999999999,0.941278,-0.146251,-0.467901,0.035116,0.139156
346,0.309392,0.928983,-0.203144,-0.47646,0.055926,0.148563
347,0.300978,0.916996,-0.261785,-0.37155,0.021771,0.375768
348,0.28814,0.902878,-0.31904,-0.23771,-0.028992,0.250681
349,0.278173,0.8860610000000001,-0.370831,-0.072561,-0.028548,-0.115604
350,0.271221,0.868519,-0.414865,0.002186,0.0664169999999999,-0.104513
351,0.266016,0.85345,-0.448172,-0.042322,0.108891,0.073538
352,0.261924,0.8406129999999999,-0.474095,-0.121619,-0.023215,0.225484
353,0.256861,0.8306629999999999,-0.493985,-0.130854,-0.2414909999999999,0.189328
354,0.250315,0.824061,-0.508199,-0.090952,-0.265818,0.198094
355,0.2460239999999999,0.8197399999999999,-0.517202,-0.048163,-0.287498,0.229818
356,0.2453409999999999,0.817189,-0.521546,-0.044215,-0.439854,0.212205
357,0.247605,0.817657,-0.5197390000000001,-0.147599,-0.4229729999999999,0.106638
358,0.25263,0.823159,-0.5085149999999999,-0.17246,-0.394784,0.028595
359,0.259255,0.831573,-0.491196,-0.0952529999999999,-0.326416,-0.006576
360,0.265752,0.841183,-0.470943,0.0110569999999999,-0.249279,-0.069996
361,0.27142,0.851305,-0.4490119999999999,0.082813,-0.171648,-0.126306
362,0.2766139999999999,0.860734,-0.4273439999999999,0.076093,-0.186051,-0.1732119999999999
363,0.2823,0.868308,-0.407858,0.006168,-0.18148,-0.289896
364,0.287068,0.874142,-0.3917489999999999,0.055965,-0.171002,-0.419896
365,0.294031,0.8770870000000001,-0.379822,0.11756,-0.08955,-0.545044
366,0.306328,0.875584,-0.373519,0.298241,0.131054,-0.723359
367,0.313239,0.876151,-0.366388,0.269434,0.179513,-0.72872
368,0.313141,0.8784620000000001,-0.3608989999999999,0.199722,-0.011488,-0.63222
369,0.314847,0.876604,-0.363919,0.266162,-0.127489,-0.234881
370,0.319874,0.8707889999999999,-0.373372,-0.019703,0.649749,0.316945
371,0.318054,0.8658049999999999,-0.386294,-0.465286,1.537729,0.4926779999999999
372,0.308167,0.867267,-0.391,-0.706879,1.41589,0.481226
373,0.32589,0.865059,-0.381403,-0.698647,0.12368,0.474558
374,0.343622,0.86954,-0.354718,-0.641397,-0.174029,0.508465
375,0.351301,0.878172,-0.324657,-0.575056,-0.046354,0.5429189999999999
376,0.330138,0.918524,-0.2175389999999999,-0.269423,0.148722,0.755854
377,0.334357,0.929971,-0.15284,-0.18566,0.216926,0.8962030000000001
378,0.343923,0.935581,-0.080035,0.012126,0.168133,0.778049
379,0.355086,0.934686,-0.016641,0.192003,0.162787,0.6762630000000001
380,0.359543,0.932567,0.032373,0.335739,-0.037639,0.329596
381,0.365716,0.928672,0.061811,0.4585329999999999,-0.125937,0.222598
382,0.372008,0.924773,0.080028,0.533143,-0.117629,0.16898
383,0.377537,0.921619,0.089914,0.146618,-0.139972,0.0381839999999999
384,0.384154,0.918283,0.09582,0.110368,-0.181329,0.074682
385,0.389739,0.915429,0.100463,0.1691599999999999,-0.209283,0.08397
386,0.394063,0.913196,0.103867,0.496425,-0.187869,-0.086197
387,0.3981889999999999,0.91115,0.106075,0.4958689999999999,-0.145342,-0.121609
388,0.404303,0.908172,0.108457,0.392633,-0.1218099999999999,-0.142591
389,0.4115439999999999,0.904759,0.109739,0.268418,-0.159291,-0.114973
390,0.418335,0.901758,0.108758,0.098709,-0.099298,-0.107644
391,0.42422,0.899797,0.101993,-0.037669,-0.00345,-0.113971
392,0.429122,0.8985350000000001,0.092141,-0.108595,0.009897,-0.152643
393,0.431716,0.8983709999999999,0.080932,-0.080108,-0.015055,-0.110885
394,0.435297,0.897334,0.07285,-0.09582,-0.029689,-0.006795
395,0.4398069999999999,0.895797,0.064163,-0.107761,-0.076263,0.06131
396,0.446664,0.893244,0.051051,-0.131829,-0.1226299999999999,-0.160045
397,0.4543979999999999,0.8900969999999999,0.03535,-0.004218,-0.2352199999999999,-0.131725
398,0.465229,0.88495,0.020633,0.08897,-0.3589179999999999,0.065731
399,0.4785609999999999,0.8780540000000001,-0.000878,0.044297,-0.490893,-0.214942
400,0.487004,0.8723850000000001,-0.042081,-0.027669,-0.290461,-0.800219
401,0.490879,0.8689319999999999,-0.063209,-0.099369,-0.231984,0.247184
402,0.4880489999999999,0.871,-0.056281,-0.16232,-0.034177,0.8369049999999999
403,0.472692,0.880245,-0.041607,-0.230963,0.494359,0.005932
404,0.4485949999999999,0.892883,-0.0390089999999999,0.538633,0.864166,-0.45655
405,0.422881,0.905805,-0.026254,0.681413,0.583026,0.115472
406,0.403466,0.914941,-0.009923,0.678367,0.414786,0.4714859999999999
407,0.388779,0.92131,0.006197,0.769088,0.519516,-0.20006
408,0.372897,0.927667,0.019521,0.789502,0.756903,-0.34847
409,0.351177,0.935184,0.045889,0.7390479999999999,0.857907,0.0261019999999999
410,0.323459,0.942912,0.079323,0.7818729999999999,0.911596,-0.165352
411,0.2967,0.949159,0.105202,0.580955,0.803329,-0.3743059999999999
412,0.274407,0.955156,0.1112549999999999,0.174049,0.726195,-0.371615
413,0.256884,0.961271,0.099843,-0.0018629999999999,0.416811,-0.33814
414,0.243335,0.967283,0.071771,0.029264,0.111116,-0.22114
415,0.23544,0.971398,0.030894,0.045489,-0.05175,-0.220683
416,0.229535,0.97304,-0.02252,0.093372,-0.139712,-0.122896
417,0.231969,0.969768,-0.075762,0.222804,-0.210506,0.2560449999999999
418,0.248801,0.961621,-0.115682,0.11242,-0.163251,0.2227219999999999
419,0.27569,0.950045,-0.146321,0.3396969999999999,-0.156832,0.08672
420,0.311627,0.933771,-0.175955,0.0307959999999999,0.19219,0.020834
421,0.344109,0.910277,-0.230185,-0.21241,0.237337,0.086768
422,0.364031,0.8785649999999999,-0.3092,-0.092547,0.194265,0.230876
423,0.369213,0.839935,-0.397732,0.065587,0.12828,0.273067
424,0.361178,0.800606,-0.478101,0.037931,-0.054359,0.401945
425,0.345045,0.762794,-0.54689,0.060396,-0.373512,0.490616
426,0.322979,0.722258,-0.611578,0.066929,-0.337782,0.510824
427,0.300696,0.675562,-0.6732,-0.066108,-0.139734,0.333356
428,0.268317,0.626324,-0.7319319999999999,-0.285971,0.040531,0.464796
429,0.22583,0.57765,-0.784424,-0.330734,0.121126,0.5878760000000001
430,0.1787109999999999,0.529866,-0.829039,-0.357757,0.152965,0.693449
431,0.128,0.480481,-0.867614,-0.285638,-0.186796,0.8483569999999999
432,0.08824,0.428952,-0.899007,-0.245879,-0.135266,0.87975
433,0.060759,0.381826,-0.922235,-0.22624,-0.363637,0.6188600000000001
434,0.045854,0.346326,-0.936993,-0.095094,-0.400236,0.2898679999999999
435,0.0347279999999999,0.323369,-0.945635,0.009141,-0.299505,0.235583
436,0.023418,0.309903,-0.95048,0.028477,-0.208402,0.222056
437,0.016603,0.305234,-0.952133,0.1128369999999999,-0.255979,-0.030289
438,0.015568,0.310404,-0.950477,0.1317559999999999,-0.189616,-0.1330039999999999
439,0.013634,0.324575,-0.945762,0.109993,-0.157949,-0.196588
440,0.009225,0.344915,-0.938589,0.1267619999999999,-0.066061,-0.297511
441,0.006006,0.365224,-0.9309,0.2121179999999999,-0.049306,-0.435601
442,0.012094,0.373512,-0.927546,0.513357,0.272148,-0.959401
443,0.020019,0.371032,-0.928404,0.479142,0.406068,-0.948885
444,0.012804,0.3873,-0.921865,0.03401,0.297347,-0.048121
445,0.02313,0.428437,-0.903276,-0.661512,-0.3275909999999999,0.8761760000000001
446,0.033208,0.463833,-0.8853,-0.614079,0.568821,-0.6360319999999999
447,0.073801,0.502542,-0.861397,0.330557,0.205527,0.198265
448,0.096783,0.539168,-0.8366180000000001,0.077305,0.667802,0.200403
449,0.120963,0.573167,-0.810462,0.050942,0.255248,0.361563
450,0.161769,0.608215,-0.777113,-0.036006,0.252823,0.279615
451,0.202921,0.64141,-0.739876,-0.039164,0.305291,0.367653
452,0.244763,0.674525,-0.696496,-0.048138,0.268575,0.367852
453,0.282059,0.708066,-0.647368,0.013641,0.165896,0.276045
454,0.311789,0.740211,-0.5957140000000001,0.06669,0.132012,0.234294
455,0.337451,0.769885,-0.541667,0.081295,0.096539,0.3433489999999999
456,0.367656,0.795508,-0.48166,0.026387,0.006143,0.354661
457,0.393609,0.814692,-0.425851,0.007758,0.035833,0.29989
458,0.413113,0.8294790000000001,-0.375901,0.004733,0.046787,0.170167
459,0.425511,0.8431569999999999,-0.328673,0.065914,4.3e-05,0.151259
460,0.4311029999999999,0.856857,-0.282749,0.075977,-0.118835,0.199802
461,0.433322,0.8687010000000001,-0.239978,0.090359,-0.134418,0.262256
462,0.430938,0.878524,-0.206126,0.055924,-0.159423,0.237498
463,0.420523,0.886608,-0.192581,0.18873,-0.112453,0.149109
464,0.403402,0.893659,-0.196573,0.436411,-0.133679,-0.011663
465,0.388422,0.898465,-0.204667,0.495306,-0.161634,-0.091048
466,0.384321,0.899985,-0.205728,0.286074,-0.373694,0.022424
467,0.393282,0.897144,-0.201151,-0.027056,-0.414279,0.070933
468,0.4112729999999999,0.8903709999999999,-0.195179,-0.238894,-0.289296,-0.0601919999999999
469,0.4260609999999999,0.8845219999999999,-0.1899819999999999,-0.32575,-0.283478,-0.0328269999999999
470,0.434621,0.8807649999999999,-0.1880369999999999,-0.297536,-0.361966,0.064211
471,0.44028,0.877388,-0.190637,-0.232669,-0.403527,0.104852
472,0.445509,0.8740450000000001,-0.193821,-0.194777,-0.3822239999999999,0.09177
473,0.4480229999999999,0.871607,-0.198937,-0.1198369999999999,-0.285288,-0.022697
474,0.447593,0.87023,-0.205816,0.027932,-0.115591,0.049612
475,0.448075,0.869568,-0.207558,0.050918,0.046478,0.082924
476,0.449033,0.8703719999999999,-0.202044,-0.019879,0.020543,0.299471
477,0.447705,0.8722219999999999,-0.196948,-0.0349089999999999,0.106339,0.279407
478,0.440168,0.878084,-0.187673,0.029772,0.316054,0.1424619999999999
479,0.425706,0.887832,-0.174728,0.39096,0.5112770000000001,0.282882
480,0.407814,0.8993770000000001,-0.1575069999999999,0.464897,0.543738,0.279028
481,0.389659,0.910177,-0.140511,0.637608,0.5734199999999999,0.017998
482,0.375525,0.91909,-0.119392,0.6861970000000001,0.6312939999999999,-0.042778
483,0.360638,0.928811,-0.0851519999999999,0.645618,0.719749,0.063881
484,0.339257,0.93954,-0.0465779999999999,0.6196510000000001,1.108373,-0.102042
485,0.314305,0.949267,-0.0102379999999999,0.58813,1.057676,-0.268678
486,0.288745,0.957293,0.0147229999999999,0.351056,0.8156720000000001,-0.446028
487,0.266157,0.96376,0.018095,0.158449,0.5225380000000001,-0.358946
488,0.24663,0.969106,0.002747,0.031461,0.212321,-0.204834
489,0.230577,0.972669,-0.027367,-0.010561,0.01491,-0.2735059999999999
490,0.217561,0.973459,-0.071032,0.110945,-0.2259,-0.3538489999999999
491,0.2096179999999999,0.969436,-0.12749,0.206077,-0.396667,-0.158399
492,0.221192,0.956979,-0.187791,0.350921,-0.422906,0.213167
493,0.248067,0.939671,-0.235546,0.276179,-0.275669,0.254787
494,0.276868,0.923,-0.267236,0.157183,-0.038646,0.152581
495,0.302867,0.905154,-0.298274,-0.009059,0.200559,0.18072
496,0.318685,0.882548,-0.345757,-0.157141,0.318761,0.272988
497,0.324275,0.85472,-0.405339,-0.1094619999999999,0.321336,0.381138
498,0.326414,0.821471,-0.467588,0.007601,0.247727,0.359053
499,0.324359,0.7838149999999999,-0.529552,0.078885,0.151671,0.375957
500,0.314343,0.741861,-0.59231,0.08379,0.106742,0.236429
501,0.294376,0.695786,-0.655153,0.0561179999999999,0.0787809999999999,0.301561
502,0.266667,0.649978,-0.71163,-0.087285,0.06215,0.428518
503,0.229592,0.607359,-0.760528,-0.199623,0.027819,0.519867
504,0.1877849999999999,0.5648489999999999,-0.8035439999999999,-0.230463,-0.032363,0.653413
505,0.1482359999999999,0.520878,-0.8406620000000001,-0.227902,-0.070927,0.7421810000000001
506,0.113897,0.476749,-0.8716290000000001,-0.178777,-0.09911,0.769426
507,0.084253,0.433201,-0.897351,-0.131632,-0.1050609999999999,0.792309
508,0.064927,0.390932,-0.918127,-0.155747,-0.257311,0.706823
509,0.049567,0.35343,-0.934147,-0.198554,-0.365072,0.578892
510,0.03764,0.324533,-0.945125,-0.197614,-0.419443,0.4997359999999999
511,0.028623,0.305146,-0.951875,-0.07478,-0.39975,0.260576
512,0.021235,0.2948,-0.955323,0.076101,-0.387848,0.173035
513,0.016033,0.289254,-0.957118,0.084095,-0.381768,0.162074
514,0.013548,0.289195,-0.957174,0.027788,-0.289378,-0.025568
515,0.015283,0.296182,-0.955009,0.097342,-0.192697,-0.160683
516,0.019548,0.3078079999999999,-0.951248,0.219451,-0.083489,-0.313508
517,0.0248919999999999,0.317268,-0.948009,0.377055,0.112358,-0.798085
518,0.030202,0.306299,-0.951456,0.608271,0.333289,-1.467642
519,0.026513,0.287245,-0.95749,0.6486270000000001,0.307191,-0.816573
520,0.014339,0.297967,-0.954468,-0.180309,0.391837,0.00731
521,0.015976,0.335812,-0.941794,-1.0097969999999998,0.005146,0.269766
522,0.02388,0.381198,-0.924185,-0.205154,0.318829,-0.297113
523,0.067709,0.432461,-0.899107,0.25686,0.1142619999999999,0.1222819999999999
524,0.099159,0.473588,-0.8751469999999999,0.157814,0.939285,-0.074133
525,0.119925,0.5098560000000001,-0.8518600000000001,0.245371,0.695298,0.164146
526,0.151964,0.551478,-0.8202309999999999,-0.064684,0.2964219999999999,0.250849
527,0.191722,0.592787,-0.7822060000000001,-0.213359,0.163332,0.367426
528,0.2381239999999999,0.6316649999999999,-0.7377640000000001,-0.2358199999999999,0.125308,0.387453
529,0.284144,0.668642,-0.687154,-0.0762429999999999,0.161925,0.322133
530,0.323546,0.705584,-0.630452,0.015168,0.203474,0.276997
531,0.354304,0.73748,-0.574972,0.164266,0.204842,0.284704
532,0.391854,0.762567,-0.514726,0.0883559999999999,0.1584539999999999,0.276933
533,0.428598,0.7839149999999999,-0.4492,-0.011316,0.077001,0.220746
534,0.457222,0.802243,-0.383868,-0.08123,-0.113293,0.247454
535,0.4799029999999999,0.816411,-0.321195,-0.047881,-0.189519,0.2149329999999999
536,0.496983,0.8283799999999999,-0.258447,0.034496,-0.19279,0.215844
537,0.503269,0.841686,-0.195665,0.051342,-0.195263,0.2050949999999999
538,0.49623,0.857776,-0.134074,0.052247,-0.210117,0.194987
539,0.4824199999999999,0.872202,-0.080836,0.157838,-0.135965,0.35818
540,0.471192,0.880826,-0.046084,0.21968,-0.1225859999999999,0.240405
541,0.460577,0.8867219999999999,-0.039909,0.639093,-0.01543,-0.151925
542,0.451459,0.8907879999999999,-0.051778,0.35451,-0.250316,-0.137248
543,0.451414,0.889964,-0.064726,0.1756619999999999,-0.333339,-0.043672
544,0.4618779999999999,0.88413,-0.070595,-0.1257869999999999,-0.361944,0.004845
545,0.476035,0.8766729999999999,-0.06953,-0.4097659999999999,-0.241526,0.015987
546,0.487679,0.870442,-0.067078,-0.42991,-0.223286,0.062653
547,0.495016,0.8660889999999999,-0.069638,-0.401373,-0.215576,0.057782
548,0.498007,0.8638040000000001,-0.076364,-0.208258,-0.301457,-0.006675
549,0.500616,0.861519,-0.0846659999999999,-0.174429,-0.3529739999999999,0.062419
550,0.505043,0.857915,-0.09441,-0.158973,-0.385244,0.122227
551,0.510945,0.8535659999999999,-0.101789,-0.173237,-0.300954,0.158277
552,0.515784,0.850068,-0.10654,-0.125098,-0.168916,0.074039
553,0.518004,0.848565,-0.107744,-0.0797409999999999,-0.102136,0.072512
554,0.51751,0.8496049999999999,-0.101758,0.033637,0.052464,0.215192
555,0.516625,0.8546790000000001,-0.05121,0.062721,0.086681,0.131563
556,0.510104,0.8591639999999999,-0.040385,0.11662,0.141217,0.069773
557,0.503812,0.8632290000000001,-0.031764,0.136401,0.208579,0.121501
558,0.497245,0.8672,-0.026664,0.162316,0.34859,0.097052
559,0.487637,0.872748,-0.022822,0.403675,0.471139,0.106089
560,0.473312,0.880741,-0.016483,0.4914409999999999,0.449322,0.124591
561,0.456921,0.889498,-0.004029,0.40871,0.7202430000000001,0.2196659999999999
562,0.439406,0.8981030000000001,0.0182629999999999,0.41678,0.982055,0.186327
563,0.416493,0.908005,0.045381,0.53741,1.032394,0.022673
564,0.391634,0.917003,0.075692,0.626356,0.781911,-0.03048
565,0.3709929999999999,0.922813,0.103824,0.37272,0.544991,-0.108097
566,0.351851,0.927891,0.123366,0.1029829999999999,0.583034,-0.233169
567,0.332657,0.933979,0.13047,-0.047547,0.419231,-0.273903
568,0.313589,0.941215,0.125603,-0.0660299999999999,0.214546,-0.323692
569,0.300567,0.94738,0.11014,-0.007552,-0.001228,-0.387438
570,0.294597,0.951731,0.086142,0.0694169999999999,-0.199381,-0.346976
571,0.295242,0.953913,0.053678,0.100891,-0.435435,-0.108701
572,0.3047809999999999,0.952282,0.016378,0.098341,-0.475307,0.19813
573,0.325,0.945503,-0.019953,0.063092,-0.248665,0.162424
574,0.350696,0.93525,-0.048171,-0.121264,-0.041375,-0.11638
575,0.373534,0.924712,-0.073347,-0.379256,0.032487,-0.303163
576,0.390914,0.914402,-0.105144,-0.4987939999999999,0.006298,-0.122502
577,0.403084,0.903796,-0.143793,-0.439751,-0.067996,0.225152
578,0.4072,0.89151,-0.19849,-0.439,-0.067032,0.204746
579,0.401012,0.877194,-0.264046,-0.420772,-0.0589409999999999,0.290428
580,0.386131,0.863324,-0.324924,-0.294105,-0.1755789999999999,0.4302859999999999
581,0.370608,0.847749,-0.3794349999999999,-0.173846,-0.216676,0.1809329999999999
582,0.357934,0.82915,-0.42941,-0.1389099999999999,-0.155093,0.1038029999999999
583,0.3485,0.809659,-0.472229,-0.1168559999999999,-0.046582,-0.047256
584,0.338761,0.7927069999999999,-0.506811,-0.077943,-0.075498,0.153173
585,0.3291,0.780076,-0.532142,-0.073943,-0.175293,0.267707
586,0.323333,0.770311,-0.549615,-0.092635,-0.252901,0.324228
587,0.319607,0.7643840000000001,-0.559972,-0.187756,-0.320048,0.337041
588,0.316938,0.763262,-0.5630109999999999,-0.185087,-0.318926,0.34008
589,0.31609,0.768319,-0.5565720000000001,-0.210301,-0.380471,0.319237
590,0.317299,0.778899,-0.54096,-0.373086,-0.446669,0.317297
591,0.320008,0.791474,-0.520734,-0.4115609999999999,-0.450684,0.270154
592,0.323926,0.805025,-0.496997,-0.402448,-0.43622,0.273105
593,0.328734,0.8213239999999999,-0.4662189999999999,-0.224517,-0.298558,0.027956
594,0.3322469999999999,0.840348,-0.428284,-0.1479359999999999,-0.252305,-0.134902
595,0.334259,0.8594200000000001,-0.38687,-0.041275,-0.182479,-0.280825
596,0.342406,0.8708809999999999,-0.352596,0.42502,0.413207,-0.6708569999999999
597,0.358022,0.872258,-0.3331449999999999,0.537058,0.457835,-0.5761569999999999
598,0.371152,0.8711040000000001,-0.3215949999999999,0.457675,0.280065,-0.4402
599,0.387255,0.864484,-0.320469,-0.02083,0.2456989999999999,-0.5566979999999999
600,0.412168,0.846368,-0.337312,0.078295,1.217673,-0.716232
601,0.4183659999999999,0.834405,-0.358803,0.13623,1.635658,0.142921
602,0.40675,0.836958,-0.366136,-0.35986,0.41765,0.71277
603,0.424492,0.835134,-0.3497969999999999,-0.677056,-0.365743,0.667058
604,0.457018,0.8299129999999999,-0.319967,-1.236086,-0.114093,-0.1152589999999999
605,0.477595,0.8277979999999999,-0.294371,-0.8577530000000001,0.112296,0.285536
606,0.488016,0.836166,-0.250335,-0.67248,0.078233,0.468535
607,0.485342,0.853784,-0.188406,-0.505789,0.250251,0.766791
608,0.4802899999999999,0.8679680000000001,-0.126306,-0.29372,0.2214179999999999,0.54992
609,0.482934,0.87305,-0.067514,-0.106515,0.180768,0.304117
610,0.4872039999999999,0.8730479999999999,-0.020491,0.4042449999999999,0.0841669999999999,0.074324
611,0.487828,0.87251,0.027405,0.197063,-0.032956,0.153321
612,0.487217,0.8705790000000001,0.068651,-0.0548279999999999,-0.031727,0.160566
613,0.4879479999999999,0.866799,0.102793,-0.208178,-0.036385,0.282339
614,0.487908,0.863325,0.128902,-0.318948,-0.082746,0.237859
615,0.486013,0.86156,0.146648,-0.25327,0.084546,0.08588
616,0.482763,0.860035,0.165169,-0.104726,0.056912,0.118736
617,0.482277,0.857606,0.178666,0.1190869999999999,0.0772549999999999,-0.006043
618,0.4823699999999999,0.853834,0.195669,0.131949,-0.068754,-0.016546
619,0.483138,0.84875,0.214943,0.1043559999999999,-0.085094,0.088021
620,0.483545,0.8439530000000001,0.232225,0.098868,-0.153126,0.077315
621,0.483518,0.840823,0.243365,0.1897299999999999,-0.133151,-0.136035
622,0.480883,0.839542,0.252825,0.175245,-0.06084,-0.239092
623,0.47876,0.838159,0.2613,0.1492609999999999,-0.025461,-0.253854
624,0.477417,0.836139,0.270082,0.118576,-0.077396,-0.277589
625,0.475018,0.834822,0.278263,0.174015,-0.1071299999999999,-0.259877
626,0.471876,0.8341149999999999,0.2856329999999999,0.2426019999999999,-0.042229,-0.2783239999999999
627,0.467738,0.834614,0.29093,0.221242,0.047008,-0.249991
628,0.465018,0.835706,0.292152,0.206979,0.143465,-0.205833
629,0.4655229999999999,0.8368,0.288192,0.083244,0.422218,0.089249
630,0.472968,0.8357459999999999,0.278981,0.0001149999999999,0.476785,0.1544299999999999
631,0.489354,0.830203,0.267013,-0.0247389999999999,0.351011,-0.433166
632,0.5091399999999999,0.82731,0.23735,-0.0206599999999999,0.299903,-0.30751
633,0.5255340000000001,0.8312430000000001,0.181247,-0.037634,0.340236,-0.270846
634,0.541061,0.835326,0.097384,-0.246277,0.893541,-0.758822
635,0.546569,0.8374,0.00475,-0.504943,0.718996,-0.072041
636,0.540704,0.8371149999999999,-0.082935,-0.660852,0.466734,0.4440489999999999
637,0.530419,0.832852,-0.158153,-0.549569,0.265323,0.395076
638,0.5136850000000001,0.822665,-0.243617,0.232408,0.257627,0.282756
639,0.520418,0.789755,-0.324733,0.663954,0.357248,-0.38387
640,0.537937,0.749711,-0.3854309999999999,0.493435,0.174117,-0.2324889999999999
641,0.532217,0.719046,-0.4468979999999999,0.187189,-0.011359,0.127028
642,0.509926,0.693584,-0.508838,-0.076637,-0.103069,0.374606
643,0.486447,0.6684260000000001,-0.56265,-0.229733,-0.118667,0.374143
644,0.463692,0.64891,-0.603246,-0.384515,-0.187835,0.32375
645,0.446263,0.63445,-0.631127,-0.621175,-0.260732,0.3265619999999999
646,0.429937,0.6244270000000001,-0.652108,-0.595312,-0.242652,0.265588
647,0.415097,0.6217189999999999,-0.664198,-0.422757,-0.2953949999999999,0.163115
648,0.403408,0.62527,-0.668057,-0.23251,-0.423884,0.145413
649,0.39847,0.629903,-0.666665,-0.056887,-0.423925,-0.052069
650,0.39946,0.635317,-0.6609119999999999,-0.065934,-0.449175,-0.167915
651,0.402728,0.638678,-0.655668,-0.025362,-0.310019,-0.480074
652,0.402122,0.639783,-0.654962,0.139748,-0.172101,-0.474051
653,0.398684,0.641564,-0.655321,0.150083,-0.147195,-0.438825
654,0.397361,0.642289,-0.655415,0.136773,0.031646,-0.4546159999999999
655,0.406656,0.6355,-0.6563319999999999,-0.076044,0.403395,-0.427958
656,0.41601,0.628217,-0.6574800000000001,-0.359506,0.73746,-0.123816
657,0.41363,0.634953,-0.652492,-0.506998,0.27531,-0.000966
658,0.412492,0.650691,-0.6375350000000001,-0.665284,0.454991,-0.044655
659,0.4071639999999999,0.672691,-0.617822,-0.241805,0.2564929999999999,0.309747
660,0.419406,0.696348,-0.582407,-0.098621,0.206118,0.837641
661,0.453797,0.719663,-0.525504,-0.272476,0.323138,0.660163
662,0.484192,0.741502,-0.46447,-0.261963,0.480376,0.35067
663,0.506616,0.760088,-0.406948,-0.060815,0.5188729999999999,0.2802389999999999
664,0.5281100000000001,0.777266,-0.34199,0.088757,0.383607,0.151865
665,0.542801,0.7934,-0.27547,0.088959,0.17506,0.144336
666,0.55087,0.806339,-0.215313,0.026538,0.03204,0.207409
667,0.5538270000000001,0.817005,-0.160555,-0.077508,-0.027104,0.252077
668,0.55379,0.825752,-0.1070069999999999,-0.134647,0.012871,0.167264
669,0.548539,0.834425,-0.0532809999999999,-0.200471,-0.066481,0.1113859999999999
670,0.540089,0.8416030000000001,-0.002979,-0.119755,-0.119999,0.075824
671,0.5297470000000001,0.846936,0.045458,0.003547,-0.1007049999999999,0.206419
672,0.5147689999999999,0.852292,0.092796,0.0284589999999999,-0.110776,0.211251
673,0.498011,0.857289,0.130537,0.061163,-0.128804,0.1874859999999999
674,0.484992,0.861725,0.149039,0.274652,-0.1409,-0.0197509999999999
675,0.47617,0.865798,0.153802,0.321513,-0.10527,-0.163186
676,0.471333,0.8681469999999999,0.155452,0.2316239999999999,-0.063399,-0.157237
677,0.469341,0.869575,0.1534849999999999,-0.099727,0.011925,-0.1761599999999999
678,0.468004,0.870711,0.15111,-0.13965,-0.0146629999999999,-0.14284
679,0.463404,0.873447,0.149488,-0.170085,-0.073917,-0.127301
680,0.454991,0.8785799999999999,0.145193,-0.045368,0.008551,-0.037268
681,0.443582,0.8845780000000001,0.144072,0.024283,0.041585,-0.03871
682,0.4303189999999999,0.8906860000000001,0.146645,0.0966279999999999,0.058075,-0.031563
683,0.4177949999999999,0.8960629999999999,0.150064,0.391226,0.077112,-0.267679
684,0.4071,0.8995799999999999,0.158191,0.435551,0.097993,-0.277362
685,0.397275,0.901419,0.172092,0.428317,0.12095,-0.284564
686,0.388427,0.902408,0.186504,0.0990149999999999,0.346783,-0.2989159999999999
687,0.382168,0.902999,0.196319,0.0262029999999999,0.415589,-0.235046
688,0.377309,0.904604,0.198315,-0.0380459999999999,0.4513529999999999,-0.2220889999999999
689,0.372856,0.907608,0.19294,-0.013588,0.457702,-0.201851
690,0.369766,0.912689,0.173987,0.042237,0.40657,-0.177465
691,0.369595,0.918575,0.14007,0.070713,0.293141,-0.235361
692,0.372478,0.923205,0.094615,0.041005,0.142667,-0.214961
693,0.379767,0.924236,0.039563,0.018274,0.087987,-0.138348
694,0.396157,0.918011,-0.017761,0.343238,0.172641,0.007797
695,0.4237899999999999,0.902687,-0.07455,0.221687,0.384285,-0.179966
696,0.458335,0.8784040000000001,-0.13541,0.055261,0.452468,-0.145703
697,0.48212,0.851721,-0.205262,-0.31676,0.3977,0.301926
698,0.48508,0.82986,-0.275734,-0.38126,0.025487,0.60038
699,0.488313,0.80661,-0.3330639999999999,-0.359132,-0.158203,0.4216569999999999
700,0.49966,0.774709,-0.387513,-0.042232,-0.156865,-0.290466
701,0.49808,0.741541,-0.449481,-0.269198,-0.009089,-0.135892
702,0.483415,0.714992,-0.505071,-0.316118,-0.029918,0.112264
703,0.471916,0.692342,-0.545855,-0.319252,-0.254888,0.2484
704,0.467575,0.672659,-0.5735,-0.284943,-0.269461,0.214751
705,0.465768,0.658356,-0.5912930000000001,-0.258096,-0.1464079999999999,0.101837
706,0.462095,0.651699,-0.6014619999999999,-0.270811,-0.084637,0.070181
707,0.454606,0.6537229999999999,-0.604963,-0.269181,-0.118566,0.058744
708,0.446709,0.66438,-0.599208,-0.23098,-0.281903,0.008616
709,0.440922,0.681848,-0.58367,-0.155369,-0.3498469999999999,-0.072381
710,0.43975,0.7017770000000001,-0.560471,0.0298389999999999,-0.379558,-0.207153
711,0.446937,0.716335,-0.535827,0.31678,-0.320431,-0.031678
712,0.4632489999999999,0.725276,-0.509289,-0.032493,0.179494,0.1900599999999999
713,0.476412,0.737574,-0.478556,-0.122317,0.459905,-0.099325
714,0.486479,0.750657,-0.447047,-0.295912,0.5153340000000001,-0.132253
715,0.482076,0.767894,-0.421832,-0.344548,0.170399,0.503405
716,0.47622,0.7937069999999999,-0.378474,-0.400704,-0.122763,0.46136
717,0.476379,0.817146,-0.324555,-0.298141,-0.140129,0.370423
718,0.479822,0.836248,-0.265444,-0.058542,0.255839,0.33652
719,0.479803,0.8529959999999999,-0.205396,0.218104,0.675035,0.199018
720,0.479333,0.864499,-0.15127,0.369239,0.504963,0.12713
721,0.479263,0.870792,-0.109673,0.311173,0.131329,0.081872
722,0.47525,0.876554,-0.076089,0.1758569999999999,-0.0230389999999999,0.043282
723,0.4659149999999999,0.8836149999999999,-0.046334,0.058758,-0.070002,0.0142449999999999
724,0.455053,0.8902,-0.021689,-0.005986,-0.04021,-0.067362
725,0.444443,0.895806,-0.001307,-0.050186,-0.056283,-0.066533
726,0.433201,0.901177,0.014745,-0.108769,-0.117638,-0.033041
727,0.420595,0.906927,0.024145,-0.099473,-0.144858,-0.041616
728,0.4067139999999999,0.913175,0.026376,0.057184,-0.193357,-0.04046
729,0.394305,0.918638,0.025062,0.117551,-0.2389349999999999,-0.030417
730,0.385945,0.922128,0.026951,0.14732,-0.277917,0.002987
731,0.381888,0.923711,0.030337,0.0043729999999999,-0.317479,-0.037905
732,0.381061,0.923874,0.035342,-0.039738,-0.301025,-0.080828
733,0.381628,0.923327,0.042752,-0.065863,-0.285387,-0.0611539999999999
734,0.381637,0.92319,0.045523,-0.1519619999999999,-0.126575,0.009958
735,0.379392,0.923901,0.049684,-0.138837,-0.093457,-0.072862
736,0.37299,0.925958,0.0589919999999999,-0.072346,-0.087213,-0.168627
737,0.364801,0.928704,0.066551,0.246329,-0.036874,-0.249
738,0.356159,0.931435,0.074701,0.205837,-0.011604,-0.141
739,0.346959,0.933698,0.08847,0.173442,0.034457,-0.035598
740,0.337425,0.935382,0.105852,0.1933369999999999,0.3769349999999999,-0.156527
741,0.329054,0.936395,0.122015,0.200518,0.4603939999999999,-0.155661
742,0.32245,0.9371,0.133681,0.228652,0.498569,-0.138716
743,0.3166469999999999,0.938053,0.140681,0.316135,0.760372,-0.2624
744,0.313321,0.939771,0.136603,0.352023,0.741915,-0.2849489999999999
745,0.312708,0.94285,0.115098,0.288901,0.499945,-0.220933
746,0.316218,0.945515,0.077509,0.121114,0.251934,-0.184473
747,0.323914,0.945622,0.02963,-0.020722,0.072398,-0.234021
748,0.333706,0.94236,-0.0244449999999999,-0.101544,0.049995,-0.34143
749,0.346639,0.935078,-0.07396,0.012217,0.001308,-0.187591
750,0.3628989999999999,0.924251,-0.118599,0.097047,0.011876,-0.095848
751,0.384162,0.908204,-0.166091,0.058252,0.203994,-0.066285
752,0.408306,0.885908,-0.220121,-0.017849,0.312182,0.004728
753,0.4272939999999999,0.861024,-0.275784,-0.093646,0.231535,0.268231
754,0.439663,0.836142,-0.327967,-0.13934,-0.0085209999999999,0.4562479999999999
755,0.447926,0.8113819999999999,-0.375529,-0.052952,-0.102413,0.356227
756,0.454221,0.783846,-0.423401,-0.033048,-0.0554529999999999,0.262208
757,0.451399,0.7536649999999999,-0.477732,-0.079985,-0.086001,0.04246
758,0.44214,0.721264,-0.533189,-0.2059639999999999,-0.0345269999999999,0.058869
759,0.427787,0.693086,-0.580199,-0.383979,-0.041657,0.097472
760,0.413093,0.6707989999999999,-0.615941,-0.472343,-0.306053,0.29279
761,0.40225,0.651104,-0.643629,-0.419416,-0.270336,0.31529
762,0.393318,0.6344810000000001,-0.665383,-0.276008,-0.066549,0.187539
763,0.383661,0.6221979999999999,-0.682403,-0.195994,-0.0547389999999999,0.105972
764,0.374848,0.6159720000000001,-0.692869,-0.179475,-0.124517,0.031477
765,0.370053,0.61633,-0.695124,-0.204312,-0.1930359999999999,-0.018926
766,0.370902,0.622026,-0.689576,-0.205634,-0.2170429999999999,-0.080932
767,0.375282,0.632487,-0.677586,-0.094872,-0.138163,-0.16067
768,0.379832,0.646714,-0.661429,0.064184,-0.084,-0.185617
769,0.386529,0.663391,-0.6407079999999999,0.227729,-0.171463,-0.04847
770,0.397907,0.681491,-0.6141989999999999,0.127194,-0.09621,0.024156
771,0.413318,0.696596,-0.586449,-0.0606559999999999,0.605284,-0.350639
772,0.424361,0.7095560000000001,-0.562537,-0.2091969999999999,0.883965,-0.8083279999999999
773,0.4224279999999999,0.730514,-0.536566,0.108303,0.362015,0.233435
774,0.428055,0.75708,-0.493558,0.071976,0.123276,0.284619
775,0.433407,0.783058,-0.4460699999999999,-0.136715,0.092064,0.313364
776,0.442968,0.806719,-0.391132,-0.265951,0.048429,0.39725
777,0.455988,0.828324,-0.325505,-0.2716159999999999,-0.007829,0.417058
778,0.464478,0.848008,-0.255231,-0.135956,0.0307,0.35896
779,0.4615069999999999,0.865785,-0.193459,0.073466,0.293348,0.159493
780,0.449981,0.881876,-0.140754,0.109925,0.267736,0.113746
781,0.437838,0.8943399999999999,-0.091946,0.134001,0.217919,0.080288
782,0.426818,0.902896,-0.0510399999999999,0.058702,-0.02251,0.0029289999999999
783,0.416075,0.909055,-0.022357,0.066637,-0.074552,-0.025845
784,0.40637,0.913706,-0.002109,0.078249,-0.126017,-0.042111
785,0.398807,0.916908,0.015233,0.00642,-0.222023,-0.06725
786,0.392032,0.919563,0.026746,-0.018298,-0.258857,-0.127652
787,0.384842,0.922364,0.033785,-0.005997,-0.304017,-0.1726849999999999
788,0.377276,0.925318,0.038087,0.082609,-0.330103,-0.044953
789,0.37133,0.927565,0.041675,0.1033869999999999,-0.302535,-0.0585059999999999
790,0.368312,0.928509,0.047094,0.11385,-0.289379,-0.063147
791,0.3678619999999999,0.928288,0.0543909999999999,0.027951,-0.258275,-0.0623559999999999
792,0.367802,0.927826,0.062136,-0.007618,-0.198395,-0.047686
793,0.3662289999999999,0.928033,0.068052,-0.048266,-0.13537,-0.084455
794,0.361973,0.929382,0.072277,0.034206,-0.024322,-0.010005
795,0.354993,0.931663,0.0773539999999999,0.1092559999999999,0.112297,-0.0663059999999999
796,0.3461639999999999,0.933989,0.088513,0.233289,0.103425,-0.1080599999999999
797,0.336314,0.936123,0.102796,0.323644,0.077503,-0.139982
798,0.325989,0.937865,0.1189119999999999,0.340118,0.113206,-0.205277
799,0.316888,0.938835,0.134799,0.33129,0.398064,-0.173068
800,0.310189,0.938868,0.149366,0.2316349999999999,0.526602,-0.0748419999999999
801,0.306249,0.938585,0.158965,0.197154,0.5608350000000001,-0.134658
802,0.305318,0.938499,0.161248,0.116297,0.693703,-0.238396
803,0.305686,0.940666,0.147323,0.127328,0.563225,-0.249298
804,0.3058329999999999,0.945131,0.1148589999999999,0.123274,0.435408,-0.2471829999999999
805,0.309454,0.948407,0.069011,0.117197,0.077716,-0.23051
806,0.319901,0.947397,0.010079,0.088028,-0.006861,-0.311303
807,0.338072,0.939723,-0.051263,0.165178,0.123799,-0.4388039999999999
808,0.364843,0.925648,-0.100324,0.299998,0.175182,-0.229678
809,0.398777,0.90422,-0.15285,0.218319,0.369126,-0.0348329999999999
810,0.43293,0.8753139999999999,-0.215401,0.046242,0.5578529999999999,0.313881
811,0.452577,0.8463940000000001,-0.280696,-0.235033,0.383143,0.610392
812,0.4534899999999999,0.823544,-0.3407659999999999,-0.418562,0.076449,0.765159
813,0.460136,0.799407,-0.386295,-0.369041,-0.143904,0.379474
814,0.476117,0.769402,-0.425832,-0.218793,-0.079842,-0.16775
815,0.4826569999999999,0.7339640000000001,-0.4778479999999999,-0.233512,0.144438,-0.289547
816,0.471778,0.701738,-0.533844,-0.363746,0.192107,-0.127747
817,0.451754,0.677287,-0.5806899999999999,-0.407458,-0.195231,0.362932
818,0.436189,0.661024,-0.6105619999999999,-0.245531,-0.350996,0.276501
819,0.430764,0.652111,-0.623854,-0.105722,-0.227291,0.1126079999999999
820,0.429701,0.651591,-0.62513,-0.1025069999999999,-0.123484,0.04998
821,0.425679,0.659392,-0.619677,-0.235448,-0.206252,0.08449
822,0.4201859999999999,0.6738350000000001,-0.607775,-0.241445,-0.287055,0.067858
823,0.4193909999999999,0.6916859999999999,-0.587947,-0.231631,-0.351873,0.021342
824,0.4265899999999999,0.709146,-0.5613670000000001,-0.035294,-0.433801,0.196758
825,0.439775,0.726454,-0.5280739999999999,-0.165056,-0.406478,0.240842
826,0.452027,0.744687,-0.491033,-0.336091,-0.241071,0.078008
827,0.457291,0.762474,-0.457733,0.178726,0.717949,0.036819
828,0.4671109999999999,0.7830060000000001,-0.410742,0.193686,0.524718,0.580191
829,0.4814279999999999,0.807683,-0.340405,-0.021193,0.268413,0.582806
830,0.486496,0.8240059999999999,-0.290405,-0.057388,0.116378,0.131775
831,0.489652,0.836892,-0.2446469999999999,-0.002927,0.092994,0.174167
832,0.493414,0.848331,-0.1920339999999999,0.01359,0.0957,0.205111
833,0.491752,0.8587520000000001,-0.14396,-0.011908,0.227078,0.260705
834,0.485098,0.8674950000000001,-0.110145,-0.005255,0.218336,0.22689
835,0.477747,0.8746360000000001,-0.082278,0.014746,0.178754,-0.089154
836,0.470346,0.8809600000000001,-0.0518029999999999,-0.005777,-0.032236,0.0416259999999999
837,0.461844,0.886595,-0.025484,-0.018103,-0.044554,0.045153
838,0.451788,0.89212,-0.0030399999999999,-0.029287,-0.073532,-0.000469
839,0.439638,0.8979440000000001,0.020346,-0.04265,-0.165614,0.010919
840,0.425485,0.904023,0.041295,-0.024988,-0.191468,0.027598
841,0.40954,0.91074,0.053197,0.091864,-0.189945,0.005473
842,0.394392,0.917085,0.0583929999999999,0.2065139999999999,-0.076875,-0.017591
843,0.383684,0.921463,0.060763,0.233,-0.069229,-0.062671
844,0.381611,0.922359,0.060224,0.158993,-0.126552,-0.091749
845,0.376125,0.924551,0.0611179999999999,0.057622,-0.168402,-0.110114
846,0.370239,0.926901,0.061466,-0.003525,-0.1575069999999999,-0.110401
847,0.363284,0.929534,0.063181,-0.003649,-0.108352,-0.1144049999999999
848,0.355228,0.932085,0.070932,0.060086,-0.073976,-0.043955
849,0.36524,0.92751,0.079523,0.127893,-0.06519,-0.037973
850,0.356136,0.929738,0.093565,0.251378,-0.034246,-0.166441
851,0.349016,0.930793,0.10868,0.300642,0.000206,-0.243308
852,0.343668,0.930834,0.124261,0.281728,0.130751,-0.297097
853,0.3437739999999999,0.929477,0.133759,0.074973,0.321515,-0.2933199999999999
854,0.348497,0.927422,0.135785,-0.008089,0.379859,-0.320477
855,0.352157,0.92727,0.127102,-0.1387779999999999,0.572104,-0.220043
856,0.351893,0.930251,0.103941,-0.117671,0.570588,-0.203306
857,0.349434,0.934474,0.068222,-0.0437699999999999,0.288839,-0.132614
858,0.351124,0.936094,0.020971,0.0926169999999999,0.033068,-0.003453
859,0.361656,0.931675,-0.034463,0.255211,-0.04195,-0.039557
860,0.385417,0.918097,-0.092474,0.36858,0.236215,-0.353387
861,0.420763,0.8957149999999999,-0.1437119999999999,0.2827739999999999,0.536155,-0.272105
862,0.4578489999999999,0.8678520000000001,-0.192894,0.031241,0.651619,0.119804
863,0.482467,0.838878,-0.252009,-0.251251,0.527806,0.549662
864,0.492436,0.81314,-0.310339,-0.4299659999999999,0.201692,0.773764
865,0.501483,0.787669,-0.3578989999999999,-0.366901,-0.027964,0.231053
866,0.51354,0.759584,-0.399135,-0.178838,0.047209,-0.274266
867,0.514846,0.729334,-0.450561,-0.1386099999999999,0.244069,-0.252198
868,0.5014529999999999,0.7008439999999999,-0.507309,-0.310092,0.159447,0.118317
869,0.484389,0.674925,-0.556636,-0.365325,-0.124067,0.397182
870,0.472017,0.654907,-0.590167,-0.2888199999999999,-0.291016,0.260409
871,0.465451,0.641777,-0.60949,-0.187574,-0.208565,0.161568
872,0.463212,0.6341760000000001,-0.6190760000000001,-0.215608,-0.0293329999999999,0.100918
873,0.45756,0.63441,-0.623027,-0.220484,-0.041118,0.089153
874,0.4498819999999999,0.642566,-0.620255,-0.273628,-0.364978,0.093994
875,0.442801,0.655937,-0.611288,-0.203986,-0.35952,-0.075418
876,0.4385479999999999,0.670722,-0.59817,-0.081477,-0.354957,-0.122518
877,0.442609,0.686523,-0.576874,0.027423,-0.376708,0.129776
878,0.451077,0.711114,-0.5393020000000001,-0.311231,-0.264962,0.067622
879,0.463736,0.733093,-0.497518,-0.434546,0.114228,-0.1265359999999999
880,0.4705859999999999,0.750686,-0.463703,-0.458379,0.451402,-0.369214
881,0.484904,0.7723770000000001,-0.410246,-0.074519,0.354576,0.38513
882,0.4972149999999999,0.793053,-0.351915,-0.1519849999999999,0.242271,-0.0642529999999999
883,0.501889,0.806275,-0.313094,-0.065534,0.250381,-0.175492
884,0.508582,0.8197190000000001,-0.263449,-0.112952,-0.029786,0.378531
885,0.514916,0.83144,-0.208735,-0.155632,-0.00156,0.409937
886,0.516393,0.841836,-0.157005,-0.175222,0.045295,0.391731
887,0.5123939999999999,0.8512780000000001,-0.113046,-0.134494,0.26385,0.056329
888,0.504428,0.8600530000000001,-0.076561,-0.044299,0.241693,-0.012748
889,0.495091,0.8677219999999999,-0.044084,0.03329,0.162078,-0.014587
890,0.486268,0.873618,-0.018298,0.16365,-0.002234,-0.003552
891,0.4776829999999999,0.878525,0.0035409999999999,0.138803,-0.035538,-0.037354
892,0.46845,0.8831030000000001,0.026125,0.085016,-0.096376,0.0069099999999999
893,0.4587989999999999,0.887333,0.046297,0.018237,-0.1730539999999999,0.014906
894,0.44802,0.8922680000000001,0.0559879999999999,-0.037849,-0.194103,0.029019
895,0.4392859999999999,0.896459,0.0582149999999999,0.004973,-0.154546,-0.012667
896,0.431522,0.900174,0.058947,0.0229,-0.162397,-0.033663
897,0.423515,0.904079,0.057233,0.0260089999999999,-0.156582,-0.056852
898,0.41645,0.907414,0.056299,0.023171,-0.0938,-0.084665
899,0.41053,0.910056,0.057129,0.015816,-0.04827,-0.101532
900,0.403551,0.913045,0.059126,0.010618,-0.0065049999999999,-0.116988
901,0.396404,0.916097,0.060246,0.0690799999999999,0.001353,0.005703
902,0.416688,0.906658,0.065897,0.073532,-0.006878,-0.001428
903,0.407369,0.909973,0.077456,0.152125,-0.008209,0.0148139999999999
904,0.398309,0.912308,0.095099,0.2948969999999999,0.065704,-0.372061
905,0.390895,0.913353,0.1139609999999999,0.261052,0.165825,-0.398537
906,0.38652,0.91321,0.1290319999999999,0.189133,0.282926,-0.298069
907,0.383771,0.913113,0.137639,-0.075391,0.501743,-0.216405
908,0.380869,0.913778,0.141243,-0.055277,0.546412,-0.212486
909,0.378073,0.91627,0.132328,0.012384,0.361562,-0.212605
910,0.377576,0.919503,0.109317,0.000796,0.189673,-0.274875
911,0.38167,0.921374,0.073471,-0.0753799999999999,0.162626,-0.4087679999999999
912,0.390417,0.920241,0.027031,-0.099768,0.16887,-0.4531479999999999
913,0.404525,0.914213,-0.023951,0.022569,0.093614,-0.000295
914,0.428297,0.900944,-0.069724,0.160814,0.1675829999999999,0.086799
915,0.460633,0.8816200000000001,-0.1027759999999999,0.10292,0.3119989999999999,0.0315029999999999
916,0.4951109999999999,0.857614,-0.13915,-0.309167,0.339178,-0.197642
917,0.511559,0.8339700000000001,-0.2068829999999999,-0.6147090000000001,0.352935,-0.183589
918,0.504725,0.8131689999999999,-0.289844,-0.480646,0.205584,0.3562659999999999
919,0.49156,0.791675,-0.362795,-0.343,0.1216859999999999,0.363527
920,0.480757,0.763173,-0.431787,0.022234,0.174007,0.080347
921,0.468999,0.732137,-0.493979,0.033992,0.205042,0.142538
922,0.453685,0.7017770000000001,-0.549254,-0.215938,0.09017,0.2686139999999999
923,0.439868,0.667222,-0.601108,-0.271945,-0.084809,0.062259
924,0.42706,0.633905,-0.644813,-0.259137,-0.051493,0.105964
925,0.416216,0.605718,-0.678137,-0.30028,-0.046468,0.028662
926,0.403027,0.58536,-0.703507,-0.253751,0.0032939999999999,0.162766
927,0.387853,0.574117,-0.721083,-0.245611,-0.069447,0.243177
928,0.376363,0.571915,-0.7288789999999999,-0.261998,-0.113343,0.220883
929,0.37139,0.579932,-0.7250850000000001,-0.27175,-0.208655,0.10715
930,0.370799,0.597491,-0.710994,-0.232936,-0.2154719999999999,0.175991
931,0.372816,0.6206430000000001,-0.68979,-0.2261179999999999,-0.219657,0.076677
932,0.376305,0.648328,-0.6618649999999999,-0.159859,-0.2801329999999999,-0.1158599999999999
933,0.382234,0.674862,-0.631235,0.036544,-0.278378,-0.345174
934,0.391127,0.698041,-0.599799,0.184862,-0.25018,-0.158273
935,0.404278,0.721167,-0.562563,-0.07742,-0.1797089999999999,-0.115446
936,0.420696,0.736854,-0.529208,-0.068034,0.145379,-0.4343689999999999
937,0.444151,0.7449600000000001,-0.497759,0.056902,0.540165,-0.193159
938,0.475554,0.753038,-0.454733,-0.293074,0.252974,0.113943
939,0.498206,0.762638,-0.412522,-0.399893,0.063,-0.057235
940,0.511887,0.770623,-0.379621,-0.343018,-0.06997,0.147016
941,0.527337,0.779423,-0.338253,-0.446115,-0.020329,0.370007
942,0.5427529999999999,0.788597,-0.289022,-0.4918189999999999,0.103951,0.32987
943,0.543276,0.8074060000000001,-0.230101,-0.385897,0.264707,0.1938619999999999
944,0.5452130000000001,0.8189420000000001,-0.179102,-0.3684389999999999,0.321042,0.021601
945,0.542376,0.829842,-0.131117,-0.243532,0.2846599999999999,-0.063219
946,0.539383,0.838283,-0.079675,0.051819,0.081487,0.1907589999999999
947,0.534614,0.844814,-0.021844,0.080621,0.028431,0.163049
948,0.528442,0.848033,0.039866,0.089051,-0.031474,0.162191
949,0.5166470000000001,0.850735,0.096576,0.0645299999999999,-0.061337,0.072125
950,0.502606,0.852374,0.1443819999999999,0.073383,-0.110904,-0.022053
951,0.493149,0.85056,0.182626,0.1238099999999999,-0.034016,-0.021966
952,0.4857649999999999,0.848132,0.2114329999999999,0.058608,0.012051,-0.088309
953,0.480612,0.845454,0.232851,-0.079092,0.024968,-0.229708
954,0.476501,0.84286,0.250069,-0.17778,0.002142,-0.212761
955,0.470075,0.842194,0.26408,-0.227323,-0.049119,-0.153454
956,0.460165,0.8441780000000001,0.274976,-0.137975,-0.046281,-0.127378
957,0.447175,0.847613,0.2856329999999999,-0.050294,-0.016543,-0.131687
958,0.432908,0.8510639999999999,0.297121,0.028182,-0.033147,-0.092425
959,0.4186689999999999,0.854432,0.307671,0.094072,-0.021913,0.022575
960,0.405828,0.8572860000000001,0.316804,0.1062569999999999,0.0051259999999999,-0.188737
961,0.394183,0.859668,0.324948,0.1100589999999999,-0.004092,-0.213467
962,0.382319,0.861192,0.334935,0.096974,-0.0189669999999999,-0.185078
963,0.370931,0.862542,0.344138,0.046092,-0.0281459999999999,-0.233451
964,0.3593469999999999,0.864358,0.351788,0.061749,-0.0232169999999999,-0.270565
965,0.348317,0.8655790000000001,0.35979,0.29243,-0.1117789999999999,-0.339205
966,0.34019,0.865233,0.368298,0.300557,-0.1114329999999999,-0.3477139999999999
967,0.33571,0.8632799999999999,0.376891,0.372084,-0.033812,-0.382125
968,0.33399,0.8608819999999999,0.38384,0.365778,0.012882,-0.387822
969,0.3329789999999999,0.8600909999999999,0.3864829999999999,0.3557869999999999,0.0290089999999999,-0.374703
970,0.331601,0.861241,0.385104,0.288211,0.05476,-0.341937
971,0.334403,0.862944,0.378817,0.20144,0.178102,-0.219881
972,0.3458429999999999,0.8643700000000001,0.365044,0.088621,0.440485,-0.026284
973,0.364795,0.863743,0.347669,-0.008288,0.360501,-0.227307
974,0.383357,0.864776,0.324346,-0.0508529999999999,0.239732,-0.4426779999999999
975,0.398282,0.8718319999999999,0.285097,-0.005917,0.231119,-0.379
976,0.4100399999999999,0.8823479999999999,0.230933,0.004587,0.462272,-0.505622
977,0.4161,0.893016,0.171416,-0.191293,0.706975,-0.551543
978,0.415231,0.902694,0.112817,-0.462624,0.58777,0.064215
979,0.414439,0.908064,0.0605029999999999,-0.5447489999999999,0.441119,0.246336
980,0.414434,0.910075,-0.002868,-0.373144,0.264226,0.266586
981,0.411966,0.906622,-0.091214,-0.182947,0.125497,0.165844
982,0.4114529999999999,0.8950819999999999,-0.1718589999999999,-0.094055,0.045394,-0.025026
983,0.414164,0.881503,-0.226761,0.019537,0.055951,-0.053588
984,0.424487,0.8675069999999999,-0.259312,0.153439,-0.013777,-0.028515
985,0.43956,0.8532270000000001,-0.280696,0.196442,-0.107424,-0.026692
986,0.452456,0.8389620000000001,-0.3023679999999999,0.135435,-0.221347,0.07959
987,0.4595649999999999,0.827117,-0.3235389999999999,-0.12468,-0.326202,0.170844
988,0.461095,0.821241,-0.336088,-0.442189,-0.514966,0.198439
989,0.4569899999999999,0.8229139999999999,-0.337599,-0.568379,-0.656211,0.189024
990,0.4480479999999999,0.8321799999999999,-0.326694,-0.539799,-0.6433220000000001,0.091693
991,0.438146,0.8468110000000001,-0.30156,-0.317845,-0.547022,-0.1160269999999999
992,0.4267729999999999,0.865858,-0.2610639999999999,0.010452,-0.405683,-0.377929
993,0.414488,0.8845709999999999,-0.213854,0.209169,-0.217075,-0.634917
994,0.408955,0.8946200000000001,-0.180031,0.486172,0.118167,-0.727028
995,0.406089,0.898125,-0.168713,0.4828119999999999,0.257363,-0.538593
996,0.408017,0.897025,-0.169908,0.164279,0.142084,-0.404036
997,0.413855,0.894599,-0.16857,0.02009,-0.100364,-0.219766
998,0.423069,0.892282,-0.157624,0.1393849999999999,0.689398,0.168214
999,0.4200359999999999,0.897028,-0.137513,0.041024,1.567037,0.213639
1000,0.421526,0.8985549999999999,-0.122127,-0.4929979999999999,0.455175,0.043193
1001,0.444927,0.8885360000000001,-0.111998,-0.515483,-0.027208,-0.249894
1002,0.454406,0.8841379999999999,-0.108699,-0.701431,-0.094877,-0.459783
1003,0.450325,0.8881959999999999,-0.091184,-0.560493,-0.254957,0.548291
1004,0.4421489999999999,0.8962200000000001,-0.035972,-0.452464,-0.1033119999999999,0.8024979999999999
1005,0.4251399999999999,0.904762,0.025727,-0.279815,0.229744,0.691756
1006,0.404964,0.911182,0.0758419999999999,-0.100261,0.194851,0.327021
1007,0.395146,0.91275,0.103669,0.4105029999999999,0.164429,-0.161622
1008,0.386386,0.912727,0.132797,0.457776,0.027993,0.015412
1009,0.37948,0.912237,0.154331,0.282782,-0.0513519999999999,0.215587
1010,0.377974,0.911465,0.162377,0.132524,-0.066372,0.032096
1011,0.379305,0.910019,0.167313,0.075971,-0.10939,0.020141
1012,0.380318,0.909367,0.16855,0.096397,-0.154713,0.047912
1013,0.3817239999999999,0.908687,0.169039,0.194967,-0.138073,-0.043947
1014,0.3847239999999999,0.907138,0.17055,0.232066,-0.1365849999999999,-0.06386
1015,0.388375,0.905501,0.170975,0.175223,-0.131072,-0.075684
1016,0.391398,0.904319,0.170335,0.078619,-0.094825,-0.025285
1017,0.393572,0.903405,0.170178,0.015363,-0.166649,-0.104032
1018,0.394248,0.904184,0.164378,0.0536279999999999,-0.184137,-0.256846
1019,0.388711,0.908435,0.153782,0.059012,-0.153003,-0.10001
1020,0.375583,0.914236,0.15202,0.099851,-0.023397,0.003696
1021,0.356967,0.920061,0.161437,0.326459,0.088285,0.162491
1022,0.339791,0.923988,0.175465,0.8238139999999999,0.396507,-0.561177
1023,0.326397,0.926429,0.187603,0.6971470000000001,0.432214,-0.48573
1024,0.316828,0.927258,0.1995299999999999,0.530767,0.434558,-0.28646
1025,0.3094139999999999,0.928364,0.20592,0.104527,0.68713,-0.228686
1026,0.3024199999999999,0.929736,0.21008,0.05366,0.629087,-0.334759
1027,0.294328,0.933951,0.202747,0.034926,0.559869,-0.415897
1028,0.287946,0.940328,0.1813,0.335925,0.1320589999999999,-0.034801
1029,0.284673,0.947371,0.146456,0.31924,0.007905,0.093717
1030,0.288278,0.95229,0.100195,0.237784,-0.057149,0.14657
1031,0.29836,0.953044,0.0518429999999999,-0.088247,0.129826,-0.0673309999999999
1032,0.312264,0.949984,0.0046,-0.135644,0.150525,0.019555
1033,0.332518,0.942284,-0.039143,-0.177153,0.25138,0.075459
1034,0.358636,0.929769,-0.083122,-0.075616,0.254892,0.095787
1035,0.387279,0.911031,-0.141552,0.07343,0.329875,0.093411
1036,0.416207,0.8848879999999999,-0.209152,0.022194,0.287017,0.270615
1037,0.4396529999999999,0.8540260000000001,-0.278109,-0.08449,0.155221,0.4350159999999999
1038,0.454866,0.821548,-0.343737,-0.151674,-0.043732,0.391756
1039,0.464646,0.787772,-0.404375,-0.0907299999999999,-0.090278,0.141115
1040,0.469062,0.755396,-0.457555,-0.194709,-0.102641,-0.080729
1041,0.46657,0.7273029999999999,-0.503332,-0.217547,-0.187096,-0.068582
1042,0.453127,0.704861,-0.545754,-0.105669,-0.1671099999999999,0.110177
1043,0.432878,0.691715,-0.578055,-0.085923,-0.144626,0.157492
1044,0.4145979999999999,0.688036,-0.595579,-0.089556,-0.138903,0.196196
1045,0.39838,0.69279,-0.601112,-0.137241,-0.140773,0.137504
1046,0.384629,0.7047640000000001,-0.596128,-0.196946,-0.235678,0.130491
1047,0.37401,0.7215739999999999,-0.582622,-0.258806,-0.416108,0.069469
1048,0.3665,0.738536,-0.5659,-0.13095,-0.457942,-0.122302
1049,0.366242,0.753494,-0.5459970000000001,0.035171,-0.407715,0.319343
1050,0.3731489999999999,0.773587,-0.512174,-0.260707,-0.257108,0.349546
1051,0.382309,0.7948109999999999,-0.471292,-0.308609,0.129384,-0.141043
1052,0.390852,0.8119109999999999,-0.433629,0.183397,0.622811,0.045644
1053,0.410183,0.8321700000000001,-0.373151,0.023899,0.477552,0.72746
1054,0.4227579999999999,0.8498959999999999,-0.314566,-0.081511,0.333606,0.0259149999999999
1055,0.422407,0.861614,-0.281414,0.253863,0.110829,0.286526
1056,0.426034,0.8734850000000001,-0.235626,0.18151,-0.033595,0.325134
1057,0.428728,0.882099,-0.195176,0.100172,-0.096073,0.3481
1058,0.426267,0.8889,-0.167791,-0.131223,-0.022247,0.269185
1059,0.418972,0.895948,-0.14744,-0.165066,0.046801,0.10322
1060,0.407386,0.904104,-0.128968,-0.025733,0.0035189999999999,0.039292
1061,0.393773,0.91244,-0.1113349999999999,0.097941,-0.087138,0.085502
1062,0.382292,0.919486,-0.091639,0.145952,-0.100501,0.111857
1063,0.374849,0.924353,-0.071129,0.191878,-0.141577,0.117638
1064,0.368237,0.928192,-0.053495,0.228183,-0.1698599999999999,0.087049
1065,0.359636,0.932115,-0.042703,0.211286,-0.1851819999999999,0.114801
1066,0.349638,0.93609,-0.0385779999999999,0.161898,-0.2181179999999999,0.084583
1067,0.340387,0.939494,-0.038581,0.124106,-0.206141,0.072929
1068,0.333223,0.942069,-0.038321,0.080138,-0.1689369999999999,0.066412
1069,0.325943,0.944628,-0.037925,0.038025,-0.147585,0.024849
1070,0.317877,0.947366,-0.038097,0.029443,-0.121667,-0.008122
1071,0.309148,0.950223,-0.038766,0.032786,-0.107221,-0.043708
1072,0.3000239999999999,0.953188,-0.037663,0.058237,-0.077989,0.033696
1073,0.289857,0.956452,-0.034386,0.12419,-0.016816,0.040673
1074,0.278144,0.960135,-0.027887,0.208718,-0.0053159999999999,0.060113
1075,0.265257,0.964029,-0.01695,0.291231,-0.033716,0.055784
1076,0.2540969999999999,0.967177,-0.001942,0.356133,-0.106398,0.004429
1077,0.240002,0.970654,0.015169,0.384158,-0.083691,-0.041552
1078,0.2270829999999999,0.973254,0.034795,0.4692979999999999,0.274671,-0.002034
1079,0.217766,0.974763,0.0491399999999999,0.389885,0.433486,0.095178
1080,0.213942,0.975177,0.057088,0.239275,0.341702,-0.154729
1081,0.2112119999999999,0.9754,0.06312,0.20282,0.4641899999999999,-0.212
1082,0.2094469999999999,0.975933,0.060714,0.26295,0.523456,-0.281707
1083,0.208613,0.976879,0.046777,0.280721,0.357578,-0.262842
1084,0.2104469999999999,0.977392,0.0204,0.218417,0.132181,-0.125243
1085,0.21611,0.976178,-0.019309,0.098176,0.008014,-0.131509
1086,0.2244,0.972079,-0.068607,0.0257839999999999,0.054273,-0.262478
1087,0.234376,0.964556,-0.121241,-0.066774,0.1449869999999999,-0.468313
1088,0.249026,0.952873,-0.173261,0.046201,0.1241839999999999,-0.147784
1089,0.265468,0.935035,-0.2350239999999999,0.1181069999999999,0.21386,0.150246
1090,0.280147,0.911426,-0.301365,0.069569,0.387906,0.376942
1091,0.297084,0.8855120000000001,-0.357223,0.043217,0.269044,0.54303
1092,0.31148,0.8605790000000001,-0.402969,-0.165545,0.088975,0.5380699999999999
1093,0.317588,0.837651,-0.444385,-0.139869,-0.020253,0.583774
1094,0.327189,0.812086,-0.483181,-0.138498,-0.04788,0.28857
1095,0.3365,0.780972,-0.526166,-0.094327,0.039874,-0.046405
1096,0.334432,0.746971,-0.574621,-0.170873,-0.014305,0.041295
1097,0.329316,0.7126979999999999,-0.6193649999999999,-0.453446,-0.155645,0.0878559999999999
1098,0.321073,0.6838350000000001,-0.655196,-0.395322,-0.2052119999999999,0.18724
1099,0.312366,0.663895,-0.679463,-0.114124,-0.208359,0.091725
1100,0.305214,0.651854,-0.6942119999999999,0.157768,-0.138091,0.045942
1101,0.3002,0.647235,-0.7006899999999999,0.208544,-0.07825,-0.009912
1102,0.294903,0.652468,-0.6980810000000001,0.1635319999999999,-0.112994,-0.005761
1103,0.28859,0.665984,-0.6878810000000001,-0.077225,-0.298537,0.064773
1104,0.282217,0.6844279999999999,-0.672244,-0.160452,-0.2680619999999999,-0.020261
1105,0.28101,0.7037869999999999,-0.65247,-0.071019,-0.3246219999999999,-0.080822
1106,0.293011,0.7234550000000001,-0.625105,0.031025,-0.23786,0.327773
1107,0.308182,0.747079,-0.5889800000000001,0.015854,-0.2614829999999999,0.291647
1108,0.325745,0.7651899999999999,-0.555315,-0.123643,0.404412,-0.3890969999999999
1109,0.337865,0.784921,-0.519371,0.133479,0.5935729999999999,0.2072369999999999
1110,0.358643,0.813479,-0.457851,-0.119065,0.228483,0.533092
1111,0.371128,0.837829,-0.400384,-0.170628,0.074662,0.206246
1112,0.381596,0.8540040000000001,-0.353641,0.115673,0.100815,0.315708
1113,0.394106,0.868741,-0.2999489999999999,0.112699,0.067065,0.287498
1114,0.401752,0.879481,-0.255163,0.090695,0.050115,0.287939
1115,0.403589,0.8870120000000001,-0.224336,0.020331,0.116406,0.099519
1116,0.400144,0.8942129999999999,-0.200668,0.026141,0.1087619999999999,-0.018479
1117,0.393161,0.902151,-0.17762,0.07414,0.05221,-0.045341
1118,0.387161,0.909133,-0.153567,0.092377,-0.259841,0.145038
1119,0.384101,0.914047,-0.130324,0.0924919999999999,-0.270233,0.115889
1120,0.3795699999999999,0.918834,-0.108029,0.095101,-0.26704,0.08157
1121,0.371856,0.924294,-0.0860409999999999,0.064133,-0.213921,0.1426049999999999
1122,0.358944,0.93069,-0.070545,0.078114,-0.1819859999999999,0.15102
1123,0.344026,0.936632,-0.06608,0.232482,-0.067491,0.080469
1124,0.331262,0.941133,-0.067334,0.260764,-0.1081559999999999,0.071072
1125,0.321186,0.944372,-0.070725,0.234539,-0.146291,0.100678
1126,0.313459,0.946883,-0.071801,0.068591,-0.170821,0.002205
1127,0.305996,0.949488,-0.0695669999999999,0.0593299999999999,-0.100244,0.044893
1128,0.297788,0.952257,-0.067295,0.03345,-0.004702,0.142231
1129,0.287377,0.95588,-0.0608909999999999,0.085105,-0.001473,0.056329
1130,0.274608,0.960272,-0.049679,0.242085,0.034647,-0.100437
1131,0.260317,0.964758,-0.038442,0.3214849999999999,0.071802,-0.157603
1132,0.24789,0.968546,-0.021671,0.419743,0.105215,-0.086194
1133,0.236746,0.971571,-0.001234,0.419855,0.287935,-0.018007
1134,0.227903,0.973544,0.016502,0.381212,0.373532,0.0483629999999999
1135,0.221191,0.974734,0.031132,0.291245,0.3517889999999999,-0.242238
1136,0.21497,0.975776,0.04061,0.289806,0.415414,-0.263754
1137,0.211867,0.976645,0.035748,0.31154,0.5217689999999999,-0.248792
1138,0.210926,0.977402,0.013978,0.199291,0.220688,-0.182557
1139,0.212731,0.976863,-0.022,0.060707,0.049809,-0.1340049999999999
1140,0.218675,0.973443,-0.067755,0.006285,0.015235,-0.139245
1141,0.227809,0.96648,-0.118403,0.01064,0.020413,-0.0580799999999999
1142,0.243407,0.955031,-0.169318,0.089464,0.047471,0.02378
1143,0.267266,0.938494,-0.218626,0.218406,0.163572,0.151106
1144,0.297529,0.917227,-0.2649,0.130389,0.314173,0.170448
1145,0.326879,0.8930370000000001,-0.309251,0.043467,0.305923,0.366334
1146,0.346999,0.8686659999999999,-0.35357,-0.218169,0.147478,0.464074
1147,0.3557889999999999,0.845937,-0.3972469999999999,-0.256134,0.002254,0.534149
1148,0.359617,0.823325,-0.439104,-0.135069,-0.016653,0.295336
1149,0.359908,0.798433,-0.48267,-0.058562,-0.045717,0.1038859999999999
1150,0.358433,0.768486,-0.5300520000000001,-0.015842,-0.08651,-0.008125
1151,0.352019,0.73807,-0.575617,-0.1920609999999999,-0.141116,0.092859
1152,0.34217,0.7113079999999999,-0.613971,-0.277885,-0.252171,0.246417
1153,0.330974,0.689492,-0.644249,-0.218288,-0.273446,0.276024
1154,0.322657,0.672895,-0.665661,-0.133357,-0.289045,0.269573
1155,0.3173,0.662382,-0.678654,-0.101022,-0.1891,0.170368
1156,0.311723,0.659937,-0.683602,-0.053239,-0.17547,0.110696
1157,0.30615,0.664283,-0.681909,-0.036482,-0.251259,0.05845
1158,0.301794,0.673579,-0.6746939999999999,-0.009207,-0.2922619999999999,0.034526
1159,0.2993159999999999,0.685714,-0.6634800000000001,0.0564429999999999,-0.2251119999999999,-0.047701
1160,0.300834,0.700079,-0.647602,0.28576,-0.281622,-0.082821
1161,0.3130489999999999,0.716771,-0.623089,0.366517,-0.332372,0.0557059999999999
1162,0.332681,0.73482,-0.591069,0.295584,-0.307895,0.100483
1163,0.35354,0.747091,-0.5629069999999999,-0.233758,0.8929239999999999,-0.630467
1164,0.354948,0.766678,-0.534993,-0.057981,0.778412,-0.256374
1165,0.367163,0.7921050000000001,-0.4876069999999999,0.137841,0.556558,0.269543
1166,0.384874,0.815284,-0.432647,0.000487,0.133172,0.190368
1167,0.396295,0.8339290000000001,-0.384075,-0.022561,0.103739,0.1700549999999999
1168,0.404149,0.851583,-0.33387,-0.037984,0.047876,0.1774369999999999
1169,0.409258,0.867692,-0.282169,-0.06534,-0.013016,0.359439
1170,0.4092409999999999,0.880648,-0.238707,-0.057236,0.0600559999999999,0.261641
1171,0.404276,0.8921709999999999,-0.201476,-0.037622,0.126338,0.17131
1172,0.3975909999999999,0.902591,-0.165078,0.098457,0.0159729999999999,0.076135
1173,0.389283,0.91181,-0.130618,0.124572,-0.0568139999999999,0.086245
1174,0.378386,0.919961,-0.1024539999999999,0.102282,-0.148232,0.0675419999999999
1175,0.365115,0.927464,-0.0806289999999999,0.122373,-0.206288,0.086535
1176,0.352565,0.933807,-0.060854,0.176549,-0.2031089999999999,0.09508
1177,0.340908,0.939129,-0.0426389999999999,0.230366,-0.21481,0.071203
1178,0.330911,0.943165,-0.030612,0.242652,-0.214299,0.113314
1179,0.319454,0.947232,-0.026476,0.142506,-0.1839569999999999,0.108019
1180,0.310832,0.950202,-0.022338,0.081151,-0.181724,0.054824
1181,0.303303,0.952725,-0.01795,0.052821,-0.185513,0.032781
1182,0.296625,0.954916,-0.012189,0.0458579999999999,-0.183798,0.025571
1183,0.290639,0.956815,-0.005769,0.02473,-0.142072,-0.0283959999999999
1184,0.285081,0.958502,-0.001668,0.043013,-0.152441,0.010548
1185,0.279321,0.960191,0.003599,0.072837,-0.13495,0.167818
1186,0.271938,0.962208,0.014313,0.147602,-0.071522,0.025498
1187,0.263462,0.964224,0.0293149999999999,0.224148,-0.055624,-0.135104
1188,0.254612,0.966022,0.044444,0.372402,-0.039462,-0.2518559999999999
1189,0.245806,0.967329,0.062089,0.3754099999999999,0.125399,-0.079346
1190,0.238436,0.967846,0.080144,0.287138,0.35474,-0.120122
1191,0.232895,0.9682,0.09137,0.28894,0.480195,-0.12732
1192,0.227711,0.968917,0.096682,0.2087369999999999,0.6481180000000001,-0.180727
1193,0.223654,0.970364,0.091501,0.253366,0.658008,-0.14892
1194,0.220836,0.972904,0.068485,0.268926,0.409115,-0.127994
1195,0.221322,0.974744,0.029847,0.1947549999999999,0.211627,-0.041566
1196,0.227591,0.973571,-0.019014,0.121316,0.094803,-0.049147
1197,0.237732,0.968577,-0.073094,0.057464,0.090307,-0.078304
1198,0.253969,0.959092,-0.125069,0.053694,0.160308,-0.045768
1199,0.280516,0.944335,-0.171881,0.187639,0.2178969999999999,0.125251
1200,0.311876,0.923556,-0.223107,0.157957,0.341779,0.098428
1201,0.341785,0.8985299999999999,-0.275368,0.012737,0.365203,0.2923969999999999
1202,0.361697,0.8736440000000001,-0.325454,-0.140261,0.262815,0.440246
1203,0.368762,0.8520260000000001,-0.371571,-0.1567869999999999,0.157449,0.510793
1204,0.374638,0.828147,-0.416915,-0.148457,-0.106681,0.406386
1205,0.375251,0.8002779999999999,-0.467699,-0.007697,-0.025086,0.001818
1206,0.367563,0.769678,-0.522008,0.042181,-0.016291,0.016332
1207,0.353085,0.739682,-0.5728880000000001,-0.154965,-0.131299,0.19859
1208,0.335241,0.715724,-0.61266,-0.304892,-0.355327,0.389744
1209,0.3200409999999999,0.698854,-0.6396689999999999,-0.30556,-0.386583,0.410314
1210,0.311969,0.686567,-0.6567350000000001,-0.280521,-0.366773,0.383161
1211,0.307717,0.680177,-0.665335,-0.068032,-0.14409,0.15595
1212,0.304023,0.681341,-0.665842,-0.0300819999999999,-0.118139,0.093591
1213,0.300959,0.689652,-0.6586380000000001,0.013403,-0.16568,0.075691
1214,0.298175,0.701958,-0.646798,-0.049884,-0.355247,0.04493
1215,0.297749,0.714348,-0.633287,-0.00742,-0.359444,-0.0582409999999999
1216,0.305557,0.727563,-0.614237,0.111908,-0.404671,-0.050374
1217,0.316656,0.750152,-0.580518,-0.00379,-0.40126,0.180692
1218,0.3342179999999999,0.767988,-0.546345,-0.021352,-0.419096,0.146519
1219,0.347699,0.7765,-0.5255029999999999,0.010593,0.7956439999999999,-0.81872
1220,0.366564,0.792304,-0.487734,0.16905,0.570427,0.494433
1221,0.382896,0.811824,-0.440831,-0.031562,0.427235,0.003606
1222,0.38559,0.8249139999999999,-0.4133229999999999,-0.049988,0.38819,-0.4195779999999999
1223,0.391838,0.840571,-0.374037,-0.140541,-0.18719,0.384871
1224,0.400687,0.855477,-0.328038,-0.233665,-0.250359,0.39948
1225,0.408462,0.8673540000000001,-0.284352,-0.271316,-0.257048,0.443364
1226,0.408941,0.879474,-0.243501,-0.138677,0.208646,0.145784
1227,0.39885,0.893342,-0.2070239999999999,-0.060562,0.288878,0.023812
1228,0.3901139999999999,0.904171,-0.174031,0.069633,0.243306,0.083088
1229,0.385919,0.910749,-0.146977,0.094107,0.10277,0.143894
1230,0.383395,0.915123,-0.1247289999999999,0.03053,-0.032219,0.098301
1231,0.380726,0.918756,-0.104572,0.072124,-0.121728,0.077717
1232,0.376243,0.92251,-0.086117,0.162789,-0.159647,0.101239
1233,0.369802,0.926526,-0.069257,0.160319,-0.2343719999999999,0.140119
1234,0.363267,0.930156,-0.053359,0.223387,-0.213603,0.125533
1235,0.355294,0.933768,-0.042935,0.2290869999999999,-0.157645,0.09364
1236,0.348319,0.936698,-0.035651,0.173119,-0.071738,0.026008
1237,0.3436639999999999,0.938626,-0.029599,0.102763,-0.0912289999999999,-0.040256
1238,0.337269,0.941102,-0.024017,0.050717,-0.055146,-0.0467529999999999
1239,0.3301719999999999,0.943727,-0.01911,0.042234,-0.036989,-0.035394
1240,0.332497,0.942733,-0.026465,0.0606149999999999,-0.094344,-0.026117
1241,0.321473,0.946677,-0.0213849999999999,0.098906,-0.104102,0.004998
1242,0.317551,0.948195,-0.009426,0.190384,-0.015974,0.051189
1243,0.306552,0.951831,0.0065379999999999,0.233105,-0.04105,-0.001289
1244,0.295514,0.954968,0.026597,0.250278,-0.057599,-0.064347
1245,0.285308,0.957222,0.04822,0.329819,0.108345,-0.245333
1246,0.277524,0.958352,0.067389,0.289355,0.363608,-0.354589
1247,0.273014,0.958854,0.077862,0.2360489999999999,0.527963,-0.217617
1248,0.270459,0.959957,0.073035,0.143084,0.589893,-0.079673
1249,0.269707,0.961176,0.058306,0.0873179999999999,0.54447,0.022032
1250,0.270868,0.962116,0.0310329999999999,0.101797,0.254498,0.092441
1251,0.274671,0.961501,-0.008426,0.033816,0.029878,-0.016247
1252,0.282723,0.957683,-0.05395,-0.059151,-0.0012619999999999,-0.152501
1253,0.296119,0.949716,-0.101749,-0.0536409999999999,0.0197199999999999,-0.214429
1254,0.315119,0.936646,-0.152952,0.048483,0.0281519999999999,-0.026522
1255,0.343425,0.916541,-0.204969,0.34876,0.18818,0.116559
1256,0.377272,0.891127,-0.252109,0.238375,0.369722,0.119129
1257,0.403903,0.8634639999999999,-0.302146,-0.064349,0.383835,0.2201449999999999
1258,0.406024,0.8370860000000001,-0.36665,-0.234118,0.271892,0.411877
1259,0.387506,0.8233379999999999,-0.4146729999999999,-0.12243,-0.075062,0.419983
1260,0.3830429999999999,0.7955260000000001,-0.469485,-0.109911,-0.098626,0.259326
1261,0.377379,0.763382,-0.524246,-0.077986,-0.044403,0.173995
1262,0.360452,0.72983,-0.5808810000000001,-0.2926269999999999,0.079603,0.238382
1263,0.341124,0.698857,-0.628676,-0.2732989999999999,0.110577,0.286178
1264,0.331369,0.670887,-0.663405,-0.254815,-0.212909,0.333357
1265,0.326898,0.645622,-0.6901520000000001,-0.1242,-0.241813,0.148526
1266,0.317404,0.624909,-0.713262,-0.023398,-0.140138,0.092596
1267,0.300297,0.611167,-0.732323,-0.038486,-0.120841,0.152215
1268,0.27914,0.6068,-0.744228,-0.101207,-0.170307,0.2028309999999999
1269,0.260992,0.612284,-0.746319,-0.088903,-0.385126,0.1575119999999999
1270,0.2499179999999999,0.626393,-0.738358,-0.047174,-0.441441,0.11847
1271,0.245146,0.645622,-0.72324,-0.047941,-0.37281,0.060215
1272,0.242436,0.664429,-0.706936,-0.018209,-0.315659,-0.236485
1273,0.2439,0.678226,-0.6931970000000001,0.318524,-0.271381,-0.331308
1274,0.251688,0.694384,-0.6741550000000001,0.3426119999999999,-0.204088,-0.029153
1275,0.263993,0.712299,-0.6503369999999999,0.148147,0.209576,-0.353936
1276,0.2806659999999999,0.729811,-0.62338,0.199223,0.5840930000000001,-0.491977
1277,0.301128,0.753332,-0.584648,0.218388,0.434565,0.269554
1278,0.31792,0.779509,-0.539715,-0.2200349999999999,0.080873,0.133633
1279,0.3349519999999999,0.799248,-0.499009,-0.15557,0.0543289999999999,0.328431
1280,0.360519,0.817571,-0.449003,-0.1906119999999999,0.0497079999999999,0.410139
1281,0.385579,0.8346549999999999,-0.393294,-0.204381,0.070771,0.337737
1282,0.404657,0.8487899999999999,-0.340306,-0.08909,0.1369119999999999,0.27155
1283,0.415116,0.8615139999999999,-0.292356,-0.051682,0.192273,0.111738
1284,0.415951,0.874338,-0.250036,0.007358,0.1751309999999999,0.09049
1285,0.411931,0.8876639999999999,-0.2058289999999999,0.08842,0.115479,0.193896
1286,0.405562,0.899927,-0.160158,0.105775,0.0531059999999999,0.284059
1287,0.400843,0.908169,-0.120641,0.112127,0.048893,0.250752
1288,0.3986659999999999,0.912821,-0.088447,0.154922,-0.050043,0.127815
1289,0.396738,0.915873,-0.06145,0.149481,-0.171457,0.05289
1290,0.392275,0.918769,-0.04453,0.120039,-0.170967,0.096135
1291,0.390448,0.919941,-0.0354839999999999,0.093088,-0.150227,0.115363
1292,0.391244,0.919858,-0.0281,0.010139,-0.222257,0.069878
1293,0.39196,0.919719,-0.021988,-0.051445,-0.276287,0.011581
1294,0.392596,0.919559,-0.016748,-0.061373,-0.2770869999999999,0.0216
1295,0.394311,0.918906,-0.011429,-0.057671,-0.233954,0.076233
1296,0.397742,0.917475,-0.0064189999999999,-0.068504,-0.180612,0.094875
1297,0.401944,0.915658,-0.003505,-0.068112,-0.168328,0.007701
1298,0.40583,0.913938,-0.004469,-0.032417,-0.169232,-0.009492
1299,0.408742,0.912613,-0.008175,-0.021978,-0.124894,0.077054
1300,0.4104239999999999,0.911818,-0.0118319999999999,-0.049294,-0.092574,0.142615
1301,0.410954,0.911538,-0.014667,-0.0950049999999999,-0.024484,0.146366
1302,0.4091639999999999,0.912307,-0.016748,-0.0738679999999999,-0.024612,0.156962
1303,0.395242,0.918397,0.018183,-0.030756,-0.008744,0.118414
1304,0.388087,0.921424,0.019141,0.1718039999999999,-0.0689309999999999,0.05752
1305,0.380492,0.924603,0.018303,0.2065449999999999,-0.048199,0.098839
1306,0.371275,0.928288,0.020891,0.291048,0.100948,-0.024232
1307,0.3604469999999999,0.932408,0.026319,0.373546,0.187327,0.033511
1308,0.348313,0.936831,0.032016,0.403426,0.20622,0.029935
1309,0.334661,0.941407,0.041886,0.476222,0.273452,-0.042588
1310,0.32144,0.945283,0.05583,0.500582,0.404876,0.176347
1311,0.3103599999999999,0.947886,0.072032,0.489689,0.280981,0.014043
1312,0.300269,0.949727,0.088636,0.364633,0.398738,-0.176207
1313,0.287519,0.952037,0.1046839999999999,0.287814,0.564504,-0.311684
1314,0.2711639999999999,0.955751,0.114061,0.355041,0.668303,-0.374818
1315,0.255139,0.960027,0.115122,0.385761,0.312892,-0.231791
1316,0.243337,0.963669,0.1101299999999999,0.041972,0.0302579999999999,-0.281196
1317,0.23526,0.967032,0.097482,-0.0665429999999999,-0.053564,-0.275491
1318,0.230593,0.969789,0.079605,-0.167574,-0.268952,-0.305954
1319,0.2316349999999999,0.971133,0.0569659999999999,-0.100547,-0.360996,-0.254781
1320,0.239267,0.970493,0.0299079999999999,-0.044672,-0.429432,0.058074
1321,0.2556239999999999,0.966775,-0.0014449999999999,-0.0346459999999999,-0.326501,0.196849
1322,0.276717,0.960261,-0.0364079999999999,-0.127944,-0.00085,0.07013
1323,0.29623,0.952233,-0.074164,-0.2452349999999999,0.099021,-0.001443
1324,0.313323,0.942776,-0.114023,-0.373138,0.221423,-0.128439
1325,0.328617,0.932253,-0.151377,-0.550633,0.206236,0.088969
1326,0.339827,0.920609,-0.192346,-0.575346,0.126282,0.18841
1327,0.341242,0.907073,-0.246521,-0.604258,0.0701,0.23758
1328,0.331379,0.892616,-0.305653,-0.386692,0.007637,0.344334
1329,0.313422,0.8777590000000001,-0.3623619999999999,-0.287619,0.017535,0.273342
1330,0.297622,0.8613069999999999,-0.41179,-0.151412,-0.0296269999999999,0.117463
1331,0.292909,0.8436170000000001,-0.4500159999999999,0.136931,0.077678,0.093571
1332,0.297045,0.826451,-0.478272,0.086927,0.053676,0.1162869999999999
1333,0.30421,0.81057,-0.500433,-0.0511579999999999,-0.105294,0.15212
1334,0.30695,0.796675,-0.520663,-0.060002,-0.136015,0.2481409999999999
1335,0.303679,0.785057,-0.539875,-0.061415,-0.135292,0.238346
1336,0.2985,0.777841,-0.553048,-0.08976,-0.3427969999999999,0.160866
1337,0.293914,0.775964,-0.558116,-0.211287,-0.406961,0.116924
1338,0.291821,0.7782100000000001,-0.556084,-0.2382929999999999,-0.360501,0.1195
1339,0.292157,0.783884,-0.547878,-0.215634,-0.313593,0.09344
1340,0.294164,0.7925800000000001,-0.5341199999999999,-0.131444,-0.2130659999999999,0.026872
1341,0.296413,0.8045359999999999,-0.5146470000000001,-0.070995,-0.179642,0.011946
1342,0.299498,0.817671,-0.491645,-0.010893,-0.131316,-0.019967
1343,0.3045,0.830369,-0.466655,-0.070385,-0.116746,-0.14774
1344,0.311799,0.841557,-0.441093,-0.07071,-0.094838,-0.262963
1345,0.3189059999999999,0.8494379999999999,-0.420421,0.011218,0.043094,-0.468342
1346,0.3250889999999999,0.851806,-0.410784,0.2379599999999999,0.276154,-0.591443
1347,0.3286739999999999,0.8525299999999999,-0.406406,0.119919,0.177057,-0.5218010000000001
1348,0.333135,0.8528120000000001,-0.402159,0.034449,-0.113463,-0.471681
1349,0.3407989999999999,0.849891,-0.401923,0.03353,0.0719539999999999,-0.27778
1350,0.3513179999999999,0.8444290000000001,-0.404369,-0.258651,0.843635,0.336651
1351,0.3497659999999999,0.844248,-0.406091,-0.614002,1.075979,0.487833
1352,0.342361,0.8441200000000001,-0.412614,-0.998916,0.631985,-0.395416
1353,0.350093,0.8453870000000001,-0.40343,-0.301967,-0.030369,0.296435
1354,0.357132,0.8578469999999999,-0.369533,-0.3032829999999999,-0.325407,0.489177
1355,0.368902,0.8685780000000001,-0.330884,0.055063,0.072798,0.752545
1356,0.390718,0.8755629999999999,-0.28413,0.0473769999999999,0.215975,0.835643
1357,0.413973,0.882434,-0.223465,-0.02991,0.2647219999999999,0.7979890000000001
1358,0.437367,0.8848370000000001,-0.16054,-0.079487,0.277318,0.3228789999999999
1359,0.4563029999999999,0.882294,-0.115519,-0.01656,0.32428,0.014872
1360,0.4682689999999999,0.88041,-0.074851,-0.0612399999999999,0.07685,-0.0375459999999999
1361,0.4785189999999999,0.877245,-0.038221,-0.151401,-0.054201,0.155348
1362,0.486725,0.873554,-0.0014609999999999,-0.275422,-0.044986,0.139904
1363,0.488914,0.871502,0.038031,-0.390205,-0.052777,0.263803
1364,0.483597,0.872394,0.071153,-0.337982,-0.020603,0.377242
1365,0.4762479999999999,0.874043,0.096104,-0.139792,0.0601,0.417629
1366,0.472653,0.8735459999999999,0.116257,0.123691,0.078434,0.298874
1367,0.475063,0.869927,0.132447,0.40453,-0.0198449999999999,0.104125
1368,0.480443,0.86475,0.146223,0.489726,-0.0985149999999999,-0.083341
1369,0.488674,0.8582190000000001,0.157029,0.216007,-0.094349,-0.134903
1370,0.499488,0.850693,0.1638119999999999,-0.022971,-0.103393,0.01937
1371,0.509604,0.8436100000000001,0.169188,-0.09571,-0.158582,0.095003
1372,0.517529,0.8374510000000001,0.175614,-0.001385,-0.252459,-0.0572509999999999
1373,0.52396,0.8323809999999999,0.180577,0.03503,-0.180083,-0.2458389999999999
1374,0.528892,0.8290350000000001,0.181586,0.060082,-0.043452,-0.383582
1375,0.5332720000000001,0.828234,0.172192,0.17939,-0.0569929999999999,-0.575909
1376,0.5325770000000001,0.8306540000000001,0.162409,-0.046737,-0.02705,0.250494
1377,0.524107,0.834152,0.17176,0.1049819999999999,-0.096451,0.154503
1378,0.51348,0.839098,0.179592,0.2877139999999999,0.199842,-0.406109
1379,0.5021140000000001,0.8450030000000001,0.1839859999999999,0.324698,0.360319,-0.356533
1380,0.489506,0.8510610000000001,0.189946,0.165294,0.4397569999999999,-0.052541
1381,0.4747479999999999,0.857197,0.199568,0.1589799999999999,0.590969,-0.183744
1382,0.457022,0.864276,0.210137,0.17222,0.5710569999999999,-0.16375
1383,0.437679,0.870777,0.224017,0.188923,0.476101,-0.1153589999999999
1384,0.422489,0.876188,0.231944,0.39378,0.333636,-0.085521
1385,0.41183,0.88194,0.229296,0.32813,0.233172,-0.081393
1386,0.4063989999999999,0.8878280000000001,0.2158719999999999,0.110661,0.204853,-0.067618
1387,0.405939,0.8936629999999999,0.1912589999999999,-0.1031579999999999,0.149321,-0.195425
1388,0.407011,0.899758,0.157407,-0.2558269999999999,0.099372,-0.2821929999999999
1389,0.409844,0.904281,0.1196,-0.263359,0.054795,-0.204255
1390,0.414721,0.906332,0.081047,-0.179858,-0.018133,-0.013603
1391,0.4196029999999999,0.906757,0.041541,-0.128252,-0.0260339999999999,0.09472
1392,0.425722,0.904852,0.001939,-0.164858,0.16398,0.032149
1393,0.4393479999999999,0.8975120000000001,-0.03803,-0.088747,0.32368,-0.046305
1394,0.458871,0.884192,-0.087416,-0.085015,0.3351679999999999,-0.072389
1395,0.479782,0.8646870000000001,-0.148747,-0.120102,0.273512,0.077534
1396,0.495796,0.839985,-0.220478,-0.118248,0.1792099999999999,0.2585639999999999
1397,0.505432,0.8113670000000001,-0.293635,-0.084336,0.140797,0.310023
1398,0.511709,0.779388,-0.361537,-0.087499,0.1201329999999999,0.207164
1399,0.516822,0.746233,-0.419562,-0.169074,0.1313,0.040762
1400,0.516579,0.713669,-0.4730979999999999,-0.17997,0.107208,0.024047
1401,0.5109819999999999,0.6820890000000001,-0.5231180000000001,-0.27116,0.001657,0.118424
1402,0.500892,0.651253,-0.570067,-0.284873,-0.016609,0.202666
1403,0.484531,0.625896,-0.611133,-0.275577,-0.0767019999999999,0.219302
1404,0.4696869999999999,0.607564,-0.640516,-0.293006,-0.075093,0.202482
1405,0.454542,0.59651,-0.661489,-0.223478,-0.070036,0.070104
1406,0.43861,0.593955,-0.6744180000000001,-0.125911,-0.02056,-0.001501
1407,0.425671,0.598576,-0.67861,-0.101299,-0.01601,-0.010797
1408,0.414313,0.609635,-0.675788,-0.188208,-0.16887,0.031593
1409,0.404726,0.623524,-0.66889,-0.16147,-0.27332,-0.031991
1410,0.403638,0.635548,-0.658145,0.034731,-0.369923,-0.005094
1411,0.41433,0.652383,-0.6346069999999999,-0.090661,-0.401727,0.397791
1412,0.433177,0.6807529999999999,-0.590705,-0.360164,-0.411283,0.424308
1413,0.461713,0.7081270000000001,-0.534208,-0.785931,0.145831,-0.270953
1414,0.459609,0.730967,-0.504428,-0.2383559999999999,0.987844,-0.422437
1415,0.474076,0.757815,-0.4482939999999999,0.126128,0.55116,0.908621
1416,0.499135,0.785914,-0.3649699999999999,-0.076696,0.365545,0.312678
1417,0.515204,0.800574,-0.306017,0.2048579999999999,0.404062,0.075975
1418,0.525339,0.812312,-0.253313,0.194433,0.21433,0.201479
1419,0.528684,0.823651,-0.205165,0.01639,0.064472,0.268611
1420,0.525931,0.834134,-0.166185,-0.1037049999999999,0.0174129999999999,0.2556469999999999
1421,0.519046,0.8444280000000001,-0.132413,-0.181293,0.039148,0.130094
1422,0.5093880000000001,0.8542700000000001,-0.103665,-0.185413,0.07499,0.031017
1423,0.499353,0.8630540000000001,-0.076055,-0.112924,-0.0309459999999999,0.10758
1424,0.4902,0.8705200000000001,-0.043582,-0.077297,-0.083212,0.133608
1425,0.480533,0.876933,-0.008744,-0.041706,-0.148555,0.134858
1426,0.468614,0.8832399999999999,0.016982,0.0753009999999999,-0.11673,0.160692
1427,0.457066,0.888914,0.030379,0.161647,-0.115354,0.123003
1428,0.448231,0.8932200000000001,0.035311,0.105053,-0.123216,-0.062945
1429,0.441604,0.896548,0.034456,0.002442,-0.120563,-0.120699
1430,0.435417,0.899652,0.032207,-0.0356519999999999,-0.117487,-0.066357
1431,0.428513,0.903027,0.030326,-0.038345,-0.087475,-0.094093
1432,0.420187,0.906928,0.030397,-0.009283,-0.077003,-0.074465
1433,0.411135,0.910895,0.035203,0.034315,-0.072882,-0.006486
1434,0.401482,0.914977,0.040365,0.074043,-0.046035,0.188044
1435,0.392164,0.918792,0.045041,0.094485,-0.0153949999999999,0.064059
1436,0.382163,0.922417,0.055663,0.183053,-0.024346,-0.212096
1437,0.37209,0.925786,0.066844,0.292537,0.0109959999999999,-0.28184
1438,0.363124,0.928376,0.079113,0.288045,0.040145,-0.285183
1439,0.355565,0.930127,0.091852,0.211284,0.1703059999999999,-0.029535
1440,0.351193,0.930308,0.105788,0.029849,0.338278,0.0123
1441,0.34929,0.929702,0.116838,-0.069871,0.326631,-0.200914
1442,0.346819,0.929934,0.122226,-0.012331,0.4726229999999999,-0.2289769999999999
1443,0.343576,0.931809,0.116994,0.128195,0.545059,-0.241765
1444,0.340721,0.934924,0.099124,0.189903,0.4351779999999999,-0.137882
1445,0.341253,0.937608,0.066618,0.1102549999999999,0.30487,-0.105192
1446,0.346721,0.937671,0.023621,0.045949,0.252499,-0.123169
1447,0.355635,0.934339,-0.02314,-0.148924,0.182361,-0.262291
1448,0.368854,0.9268,-0.070625,0.007153,0.119327,-0.015557
1449,0.388186,0.91407,-0.117417,0.062985,0.176414,0.052887
1450,0.414357,0.895766,-0.160972,0.0641279999999999,0.203401,0.023856
1451,0.444805,0.8720540000000001,-0.2041319999999999,0.003559,0.3313,0.089768
1452,0.472547,0.8455739999999999,-0.248403,-0.1683319999999999,0.315238,0.228261
1453,0.4913649999999999,0.818178,-0.298571,-0.263063,0.242948,0.352007
1454,0.503236,0.789948,-0.350335,-0.241533,-0.1260079999999999,0.2707449999999999
1455,0.508716,0.763208,-0.398399,-0.202594,-0.133631,0.168174
1456,0.505877,0.73957,-0.443988,-0.1793539999999999,-0.117744,0.063205
1457,0.4931069999999999,0.715655,-0.494655,-0.252506,-0.0784779999999999,0.131161
1458,0.476613,0.688843,-0.546201,-0.293782,-0.053193,0.177289
1459,0.457081,0.664829,-0.590829,-0.350178,-0.095326,0.220788
1460,0.434595,0.64727,-0.6262340000000001,-0.289118,-0.265907,0.259184
1461,0.418012,0.6350779999999999,-0.649571,-0.260511,-0.230826,0.243733
1462,0.40961,0.6268600000000001,-0.662772,-0.1983059999999999,-0.104491,0.151862
1463,0.404918,0.625861,-0.666587,-0.173015,-0.022361,0.018501
1464,0.39954,0.632491,-0.663568,-0.142047,-0.087234,-0.049444
1465,0.3935079999999999,0.6440319999999999,-0.656029,-0.146682,-0.198705,-0.023384
1466,0.389807,0.656891,-0.645402,-0.090338,-0.2182619999999999,-0.094512
1467,0.392403,0.669485,-0.630722,0.026802,-0.236502,-0.030121
1468,0.40637,0.6851649999999999,-0.604494,-0.01164,-0.147018,0.186678
1469,0.4270859999999999,0.704434,-0.5668949999999999,-0.1331099999999999,0.6048,-0.264358
1470,0.447399,0.720453,-0.529889,-0.171932,0.987418,-0.622302
1471,0.451039,0.7404029999999999,-0.498364,-0.005482,0.498992,0.3528409999999999
1472,0.456445,0.764388,-0.4553779999999999,-0.101754,0.139817,0.192134
1473,0.460552,0.7860729999999999,-0.412287,-0.102367,0.129393,0.303538
1474,0.469315,0.804619,-0.363774,-0.174195,0.052177,0.369985
1475,0.479386,0.8223590000000001,-0.306456,-0.176239,0.03636,0.390288
1476,0.480768,0.8415450000000001,-0.2463,-0.118707,0.106895,0.2720869999999999
1477,0.4778779999999999,0.854247,-0.204682,-0.039722,0.205629,0.148545
1478,0.472839,0.8653129999999999,-0.1663,0.0328069999999999,0.131711,0.127649
1479,0.46737,0.875866,-0.120098,0.074546,-0.000683,0.1232109999999999
1480,0.459355,0.884892,-0.077191,0.115764,-0.002767,0.127972
1481,0.451077,0.8915200000000001,-0.04148,0.124789,-0.000468,0.055671
1482,0.444745,0.895597,-0.010384,0.095493,-0.0621009999999999,0.006829
1483,0.440047,0.897824,0.0164659999999999,0.001817,-0.096005,-0.100374
1484,0.433227,0.90073,0.0316269999999999,-0.018508,-0.149143,-0.024211
1485,0.424569,0.904672,0.036191,-0.033059,-0.198785,0.023288
1486,0.4162869999999999,0.908568,0.034765,-0.047787,-0.2109369999999999,-0.082327
1487,0.408902,0.912035,0.03148,-0.029736,-0.216936,-0.031297
1488,0.402183,0.915076,0.02976,0.005929,-0.251913,0.041377
1489,0.394995,0.918097,0.032823,0.014078,-0.190817,0.0548539999999999
1490,0.387673,0.921107,0.03567,0.03286,-0.082774,0.044591
1491,0.3826239999999999,0.923082,0.038975,0.044774,-0.044618,0.01405
1492,0.376038,0.925604,0.043036,0.068267,-0.025916,-0.055441
1493,0.368683,0.928137,0.0513309999999999,0.272583,0.065287,-0.285965
1494,0.360772,0.930566,0.062371,0.299796,0.0699679999999999,-0.267678
1495,0.351376,0.933079,0.076802,0.259921,0.080303,-0.236394
1496,0.340405,0.935638,0.093303,0.2231929999999999,0.167725,-0.32014
1497,0.331067,0.937239,0.109441,0.194278,0.269548,-0.343984
1498,0.324683,0.938357,0.118605,0.108819,0.519407,-0.180693
1499,0.320497,0.939516,0.120798,0.0587139999999999,0.649046,-0.233515
1500,0.318268,0.941567,0.1102559999999999,0.078216,0.568275,-0.203731
1501,0.317867,0.944724,0.080358,0.088246,0.320306,-0.234228
1502,0.320307,0.946654,0.0353459999999999,0.06719,0.162827,-0.361884
1503,0.329967,0.943856,-0.016045,0.137395,0.104545,-0.334434
1504,0.351552,0.933727,-0.06756,0.548991,0.010303,0.081262
1505,0.392323,0.91262,-0.114925,0.571742,0.316415,0.097011
1506,0.4415409999999999,0.882964,-0.159426,0.090182,0.572237,0.1043119999999999
1507,0.477308,0.8527100000000001,-0.212278,-0.31233,0.574414,0.298459
1508,0.486581,0.827541,-0.280028,-0.516839,0.342122,0.53276
1509,0.4860739999999999,0.8011149999999999,-0.349209,-0.520879,0.0700399999999999,0.377712
1510,0.485019,0.7692829999999999,-0.415884,-0.302402,-0.08659,-0.023508
1511,0.4702699999999999,0.7370770000000001,-0.48535,-0.274393,-0.235459,0.154616
1512,0.449238,0.706472,-0.5468850000000001,-0.2813449999999999,-0.2221119999999999,0.253138
1513,0.438543,0.676795,-0.591294,-0.31809,-0.209846,0.324845
1514,0.432753,0.647844,-0.626915,-0.146742,-0.04056,0.211495
1515,0.4255649999999999,0.6237199999999999,-0.655643,-0.127149,0.020338,0.223865
1516,0.415048,0.607484,-0.6772729999999999,-0.2585989999999999,-0.019944,0.203167
1517,0.399437,0.6006100000000001,-0.692616,-0.3864059999999999,-0.1961,0.212178
1518,0.384944,0.6030979999999999,-0.698635,-0.419246,-0.294199,0.219052
1519,0.378565,0.6144649999999999,-0.692186,-0.316691,-0.3043909999999999,0.141282
1520,0.378567,0.631884,-0.676321,-0.151318,-0.294894,0.035894
1521,0.38269,0.648559,-0.657967,-0.048873,-0.284011,-0.046074
1522,0.395036,0.665782,-0.632994,0.300338,-0.323176,0.146269
1523,0.415252,0.685818,-0.5976779999999999,0.032379,0.018757,0.137427
1524,0.4345449999999999,0.7060069999999999,-0.559218,-0.293249,0.8481920000000001,-0.606202
1525,0.4403479999999999,0.723971,-0.530999,0.191153,1.022977,-0.1100839999999999
1526,0.450187,0.743013,-0.495241,0.217156,0.289351,0.4559649999999999
1527,0.469176,0.7676390000000001,-0.4365819999999999,-0.089415,0.138122,-0.0416589999999999
1528,0.4786609999999999,0.784442,-0.394378,-0.110817,0.1108369999999999,0.14125
1529,0.485332,0.802068,-0.34805,-0.214138,-0.12412,0.369825
1530,0.494004,0.818832,-0.292362,-0.263108,-0.1416619999999999,0.404132
1531,0.499561,0.8320700000000001,-0.241038,-0.203983,0.070717,0.297373
1532,0.493942,0.845722,-0.20193,-0.1289819999999999,0.315899,0.061625
1533,0.482479,0.860584,-0.163122,-0.037273,0.310757,0.038107
1534,0.4728989999999999,0.8728100000000001,-0.120702,0.03441,0.156899,0.113103
1535,0.463214,0.8824489999999999,-0.081959,0.044141,0.030927,0.106556
1536,0.454325,0.889524,-0.04834,0.08338,0.005786,0.001465
1537,0.4456199999999999,0.8949870000000001,-0.020507,0.101148,-0.0259529999999999,-0.006501
1538,0.436275,0.899811,-0.001977,0.111088,-0.145035,0.084237
1539,0.428225,0.903639,0.007687,0.081693,-0.168257,0.082416
1540,0.422422,0.906299,0.013499,0.006624,-0.193912,-0.006953
1541,0.417104,0.908664,0.01883,0.000407,-0.229144,0.040588
1542,0.411239,0.911213,0.023937,0.000474,-0.233982,0.0125469999999999
1543,0.405382,0.91373,0.027607,0.013747,-0.166157,-0.117451
1544,0.3992489999999999,0.916228,0.033543,0.0286829999999999,-0.132095,-0.062535
1545,0.392698,0.918887,0.037874,-0.006346,-0.083499,-0.010515
1546,0.387183,0.92122,0.037978,0.025049,-0.092989,0.118775
1547,0.38502,0.921429,0.052233,0.002569,-0.071164,0.120664
1548,0.37797,0.923886,0.059784,0.002203,-0.054379,0.011398
1549,0.3684469999999999,0.926973,0.070477,0.167869,-0.065233,-0.4058199999999999
1550,0.358634,0.929636,0.084613,0.277154,-0.060159,-0.299853
1551,0.349251,0.931505,0.101595,0.313957,-0.016176,-0.223086
1552,0.342302,0.931995,0.119227,0.177824,0.345334,-0.171397
1553,0.336775,0.931935,0.13446,0.081315,0.503383,-0.20639
1554,0.332032,0.932197,0.144092,0.0830679999999999,0.6420819999999999,-0.33704
1555,0.329057,0.93369,0.141225,0.127151,0.668773,-0.227162
1556,0.328092,0.937261,0.1178859999999999,0.124056,0.4424689999999999,-0.166745
1557,0.32932,0.940909,0.078981,0.035243,0.2308889999999999,-0.127123
1558,0.334961,0.941751,0.030097,-0.001007,0.074561,-0.101111
1559,0.346668,0.937715,-0.022601,0.054485,0.053755,-0.101087
1560,0.366551,0.927509,-0.073266,0.224346,0.186795,-0.092933
1561,0.395838,0.911003,-0.115701,0.285909,0.32325,-0.1160799999999999
1562,0.4317899999999999,0.8874850000000001,-0.161021,-1.3e-05,0.413739,0.200984
1563,0.465076,0.858606,-0.2156409999999999,-0.149692,0.412009,0.255024
1564,0.481046,0.832255,-0.2755829999999999,-0.2566199999999999,0.344869,0.4365479999999999
1565,0.4813739999999999,0.8144,-0.324085,-0.4369409999999999,-0.024102,0.279407
1566,0.481626,0.7920520000000001,-0.375087,-0.356977,-0.053511,0.136973
1567,0.479234,0.767119,-0.426454,-0.206803,-0.087157,0.043764
1568,0.475017,0.738279,-0.478856,-0.240108,0.047457,-0.043742
1569,0.4643609999999999,0.7111,-0.527926,-0.290991,-0.046411,0.255267
1570,0.45427,0.68894,-0.564801,-0.309952,-0.240957,0.287885
1571,0.448337,0.671459,-0.5900310000000001,-0.2273739999999999,-0.224529,0.2067
1572,0.443588,0.658411,-0.608049,-0.216477,-0.076029,0.157274
1573,0.4359939999999999,0.651253,-0.621111,-0.262029,-0.024788,0.119433
1574,0.424272,0.651929,-0.628475,-0.301241,-0.164823,0.1224329999999999
1575,0.41273,0.659423,-0.628343,-0.287593,-0.307845,0.1430529999999999
1576,0.405105,0.6712020000000001,-0.620788,-0.197906,-0.287505,0.095001
1577,0.401371,0.685139,-0.607853,-0.01633,-0.256581,-0.037639
1578,0.404476,0.700042,-0.588507,0.12157,-0.291198,-0.000895
1579,0.41681,0.716795,-0.558994,0.008925,-0.228437,0.057697
1580,0.432537,0.729842,-0.529378,-0.046505,0.489442,-0.373469
1581,0.449863,0.7401300000000001,-0.499832,-0.209201,0.6891,-0.160721
1582,0.462132,0.759015,-0.458618,-0.1729619999999999,0.4164609999999999,0.270538
1583,0.475327,0.7794,-0.408167,-0.1859289999999999,0.299824,-0.10784
1584,0.484245,0.796145,-0.362849,-0.0298529999999999,0.28317,0.0878549999999999
1585,0.4918949999999999,0.813944,-0.309085,0.009554,0.077871,0.2056909999999999
1586,0.498011,0.8296879999999999,-0.252197,-0.0339,-0.0287389999999999,0.322585
1587,0.500741,0.8416620000000001,-0.20215,-0.082558,0.047712,0.252824
1588,0.4979739999999999,0.8522780000000001,-0.160142,-0.114673,0.1309529999999999,0.117295
1589,0.491147,0.862656,-0.120827,-0.127179,0.070282,0.0767299999999999
1590,0.484539,0.870856,-0.0826539999999999,-0.044948,0.014215,0.081067
1591,0.477355,0.8774129999999999,-0.047741,-0.008117,-0.010378,0.076916
1592,0.468667,0.8831600000000001,-0.019478,-0.00126,-0.072735,0.054283
1593,0.460984,0.887394,0.005017,0.006423,-0.076969,0.029788
1594,0.455105,0.889942,0.029716,0.0393569999999999,-0.16103,-0.004905
1595,0.448132,0.892445,0.0521559999999999,0.0326269999999999,-0.22057,0.004943
1596,0.4383869999999999,0.896509,0.063943,0.031492,-0.197198,0.033759
1597,0.428749,0.900939,0.066957,0.034523,-0.06227,-0.02408
1598,0.4209029999999999,0.904527,0.068347,0.0562549999999999,-0.047945,-0.062488
1599,0.414213,0.907697,0.067185,0.068575,-0.063016,-0.049927
1600,0.4073199999999999,0.91091,0.065827,0.042693,-0.063086,-0.062958
1601,0.400945,0.913628,0.0672779999999999,0.0166419999999999,-0.080605,-0.007845
1602,0.393215,0.916722,0.0707309999999999,0.008366,-0.0103349999999999,-0.067694
1603,0.383675,0.92041,0.075095,0.080085,0.075409,-0.11283
1604,0.377879,0.922405,0.079853,0.206258,0.002964,0.024883
1605,0.36682,0.925996,0.089305,0.258668,-0.024186,0.032231
1606,0.356585,0.928472,0.103864,0.268567,-0.031529,-0.215863
1607,0.345431,0.930641,0.12077,0.300092,0.025735,-0.384961
1608,0.337002,0.931651,0.135851,0.273029,0.244786,-0.24425
1609,0.332764,0.931805,0.1449369999999999,0.124206,0.408878,-0.1221859999999999
1610,0.330509,0.931632,0.151081,0.03648,0.4189989999999999,-0.262714
1611,0.328691,0.932256,0.151195,0.009093,0.491953,-0.2199969999999999
1612,0.328815,0.934202,0.13837,0.05,0.37636,-0.215976
1613,0.3310389999999999,0.936867,0.112668,0.013428,0.178902,-0.205136
1614,0.336905,0.938609,0.074214,-0.052298,0.100484,-0.312251
1615,0.347516,0.937198,0.029867,-0.072385,0.095486,-0.301641
1616,0.363,0.931622,-0.017637,0.087729,0.087543,-0.152895
1617,0.384499,0.920793,-0.065582,0.281654,0.192214,0.088897
1618,0.415315,0.903418,-0.1065339999999999,0.136672,0.24827,-0.0565679999999999
1619,0.450758,0.8803040000000001,-0.147929,-0.108152,0.29856,-0.000875
1620,0.479097,0.8548469999999999,-0.1992529999999999,-0.342012,0.235042,0.334294
1621,0.495422,0.82901,-0.25942,-0.447586,0.108078,0.357198
1622,0.503737,0.804133,-0.315627,-0.369566,0.002722,0.133421
1623,0.504997,0.7797310000000001,-0.370131,-0.169273,0.0369339999999999,-0.079454
1624,0.497705,0.753397,-0.4297479999999999,-0.153939,0.051855,0.006561
1625,0.4891689999999999,0.722383,-0.48875,-0.214434,0.061324,0.0825
1626,0.4801609999999999,0.690836,-0.540547,-0.3110469999999999,-0.004358,0.046651
1627,0.465734,0.663659,-0.5853619999999999,-0.281225,-0.141045,0.1292
1628,0.450028,0.643025,-0.6196729999999999,-0.241059,-0.204167,0.191542
1629,0.437963,0.6267020000000001,-0.64454,-0.19396,-0.1092619999999999,0.116968
1630,0.4276779999999999,0.615692,-0.661827,-0.200917,-0.027344,0.088676
1631,0.416804,0.6125470000000001,-0.67161,-0.2369489999999999,-0.070662,0.052149
1632,0.40669,0.618174,-0.672655,-0.261426,-0.2362469999999999,0.0530559999999999
1633,0.399787,0.630544,-0.66527,-0.287955,-0.274648,0.03496
1634,0.394571,0.647489,-0.651975,-0.200617,-0.285947,-0.059282
1635,0.393989,0.663968,-0.635546,0.050317,-0.263623,-0.049009
1636,0.402555,0.684053,-0.6082930000000001,0.102603,-0.253283,0.195711
1637,0.414292,0.710681,-0.5685899999999999,-0.208085,0.307813,-0.4152659999999999
1638,0.428131,0.729769,-0.533048,-0.300705,0.6181770000000001,-0.515994
1639,0.437723,0.748405,-0.498285,-0.202494,0.729378,-0.404486
1640,0.4633859999999999,0.770261,-0.438146,-0.145164,0.236087,0.181752
1641,0.485075,0.790057,-0.37485,-0.166853,0.2162909999999999,0.1184559999999999
1642,0.4966779999999999,0.803351,-0.3285389999999999,-0.230794,0.061319,0.040591
1643,0.509729,0.814184,-0.277993,-0.2333619999999999,-0.096945,0.3966909999999999
1644,0.522362,0.8247450000000001,-0.216642,-0.257103,-0.117989,0.387723
1645,0.5278619999999999,0.834832,-0.1562579999999999,-0.238327,-0.011132,0.260689
1646,0.5236310000000001,0.8454389999999999,-0.105084,-0.154567,0.177372,-0.0188319999999999
1647,0.513066,0.856089,-0.062247,-0.085835,0.214788,-0.095453
1648,0.502877,0.864043,-0.023329,0.102363,0.1133589999999999,0.0767809999999999
1649,0.493606,0.869613,0.011284,0.084138,-0.003173,0.099602
1650,0.486127,0.87302,0.0389339999999999,0.079958,-0.037571,0.063148
1651,0.481102,0.8744049999999999,0.062902,0.045525,-0.121262,0.026194
1652,0.4769819999999999,0.8748610000000001,0.0843,-0.008385,-0.15843,0.0457819999999999
1653,0.473109,0.875259,0.100446,-0.033687,-0.128539,0.010348
1654,0.468235,0.876509,0.1117529999999999,-0.065967,-0.115156,-0.001081
1655,0.4631729999999999,0.8784620000000001,0.117369,-0.002114,-0.124098,-0.040526
1656,0.458675,0.880525,0.1195529999999999,0.072575,-0.12349,-0.1150829999999999
1657,0.454497,0.882549,0.1205789999999999,0.121324,-0.11398,-0.1144299999999999
1658,0.5074529999999999,0.857395,0.085821,0.091088,-0.0280339999999999,-0.073446
1659,0.505526,0.858516,0.085983,0.0782289999999999,-0.019466,-0.076553
1660,0.501976,0.8621989999999999,0.068063,-0.002785,-0.00226,-0.053995
1661,0.498816,0.863892,0.069812,-0.032339,-0.017289,-0.024432
1662,0.493884,0.866618,0.071075,-0.063861,0.01534,-0.00328
1663,0.470342,0.879761,0.06927,-0.056142,0.033233,0.016225
1664,0.462367,0.8838290000000001,0.0711519999999999,-0.013118,-0.0361579999999999,0.089599
1665,0.455891,0.8862120000000001,0.082407,0.0231129999999999,-0.010251,0.043906
1666,0.445534,0.890942,0.087871,0.087257,0.004108,0.007954
1667,0.436134,0.894906,0.094499,0.3663869999999999,0.0121219999999999,-0.2917639999999999
1668,0.425301,0.899063,0.103947,0.382087,-0.004226,-0.245442
1669,0.413456,0.903128,0.115815,0.395458,0.124688,-0.196473
1670,0.400748,0.90671,0.131449,0.322275,0.266905,-0.105127
1671,0.388144,0.909483,0.148946,0.307291,0.358186,-0.0052689999999999
1672,0.380743,0.910188,0.163073,0.1985569999999999,0.483153,-0.10924
1673,0.3810719999999999,0.908633,0.170794,-0.060485,0.431684,-0.508807
1674,0.380188,0.908432,0.173805,-0.1930849999999999,0.427124,-0.563408
1675,0.373216,0.913244,0.1633869999999999,-0.146852,0.383189,-0.231548
1676,0.365064,0.920072,0.142111,-0.057203,0.165865,-0.150213
1677,0.36217,0.924459,0.119198,-0.106524,-0.060903,-0.185879
1678,0.365266,0.925944,0.095958,-0.159714,-0.2076219999999999,-0.119289
1679,0.3736489999999999,0.924906,0.07025,-0.196967,-0.1904549999999999,0.0878
1680,0.389003,0.920158,0.044566,-0.215938,0.0014269999999999,0.06168
1681,0.408458,0.912531,0.021209,-0.326366,0.180243,-0.048293
1682,0.427041,0.904226,-0.003304,-0.470132,0.22587,-0.257438
1683,0.446716,0.894149,-0.030715,-0.431839,0.239702,-0.21573
1684,0.462153,0.88428,-0.06681,-0.466609,0.182416,-0.009026
1685,0.47301,0.8740469999999999,-0.110921,-0.50725,0.116889,0.127447
1686,0.4784739999999999,0.863079,-0.161733,-0.419789,0.057911,0.156454
1687,0.479008,0.85157,-0.213025,-0.317677,0.058647,0.097196
1688,0.477004,0.840302,-0.257603,-0.2491449999999999,0.000976,0.108234
1689,0.474654,0.8283959999999999,-0.297428,-0.166197,0.038318,0.00394
1690,0.475667,0.81523,-0.330365,-0.011326,0.061265,-0.009998
1691,0.479634,0.8016260000000001,-0.356857,-0.0376779999999999,0.0413759999999999,-0.020386
1692,0.4795069999999999,0.790618,-0.380784,-0.07756,0.002229,0.027497
1693,0.4758489999999999,0.7817149999999999,-0.403099,-0.245457,-0.052498,0.086906
1694,0.4687449999999999,0.775237,-0.423422,-0.262385,-0.101333,0.126669
1695,0.458952,0.771659,-0.440347,-0.2361579999999999,-0.240546,0.159967
1696,0.45011,0.7713,-0.449997,-0.285025,-0.258575,0.096054
1697,0.443983,0.773087,-0.453007,-0.289915,-0.2740329999999999,0.081715
1698,0.4416529999999999,0.774872,-0.452234,-0.260363,-0.2788239999999999,0.043894
1699,0.441684,0.7783979999999999,-0.446107,-0.120761,-0.19626,-0.134215
1700,0.444309,0.783976,-0.4335569999999999,-0.021793,-0.219782,-0.084952
1701,0.4508649999999999,0.7881600000000001,-0.418958,-0.004545,-0.193525,-0.146213
1702,0.4582239999999999,0.792914,-0.401644,-0.095248,-0.163428,-0.201505
1703,0.462509,0.8004640000000001,-0.381239,-0.187698,-0.153949,-0.24251
1704,0.46273,0.810551,-0.35901,-0.1930609999999999,-0.182499,-0.2073199999999999
1705,0.460823,0.82104,-0.33695,-0.181252,-0.202449,-0.188043
1706,0.4584149999999999,0.83037,-0.316767,-0.1469069999999999,-0.1299,-0.285497
1707,0.456642,0.83842,-0.29754,-0.117195,-0.1310069999999999,-0.373801
1708,0.458664,0.8433729999999999,-0.27991,-0.101532,-0.127095,-0.4534579999999999
1709,0.460964,0.8481040000000001,-0.261213,0.154454,0.328913,-0.647708
1710,0.456301,0.8576819999999999,-0.237003,0.1237,0.366668,-0.648526
1711,0.449027,0.86745,-0.214254,0.06347,0.308255,-0.6143890000000001
1712,0.444622,0.8721,-0.204336,-0.029079,0.69655,-0.297037
1713,0.442556,0.87254,-0.206925,0.03277,1.120914,-0.046905
1714,0.437066,0.8736450000000001,-0.213817,0.0047979999999999,1.526746,0.222911
1715,0.438731,0.870641,-0.222485,-0.455821,-0.205846,0.26048
1716,0.4638359999999999,0.8611620000000001,-0.207982,-0.322326,-0.478166,0.500905
1717,0.4911189999999999,0.8563139999999999,-0.159777,-0.7294010000000001,-0.5539,0.5539569999999999
1718,0.5000359999999999,0.857456,-0.121377,-0.728201,-0.180073,0.226694
1719,0.494712,0.864403,-0.089813,-0.570701,-0.0017629999999999,0.221786
1720,0.482643,0.8751700000000001,-0.0336589999999999,-0.355537,0.362928,0.441587
1721,0.46624,0.8841459999999999,0.030111,-0.281853,0.3148289999999999,0.416025
1722,0.4589609999999999,0.884783,0.080705,0.1416859999999999,0.154066,0.175765
1723,0.458484,0.881501,0.1129059999999999,0.3709679999999999,-0.026017,-0.083747
1724,0.457063,0.878733,0.1375549999999999,0.3637829999999999,-0.091883,-0.084058
1725,0.456338,0.875316,0.159928,-0.128503,0.037098,0.0778809999999999
1726,0.451288,0.873495,0.18261,-0.348902,0.064356,0.122322
1727,0.442104,0.874084,0.201296,-0.399242,0.095337,0.1232119999999999
1728,0.435934,0.875035,0.210418,-0.027395,0.09074,0.051042
1729,0.431201,0.8758309999999999,0.216761,0.282544,-0.004325,-0.1105599999999999
1730,0.428667,0.874445,0.2271369999999999,0.444929,-0.085169,-0.146891
1731,0.426514,0.8716379999999999,0.241522,0.338669,-0.183894,-0.074988
1732,0.427255,0.868859,0.250073,0.2322139999999999,-0.233682,-0.080822
1733,0.430145,0.867179,0.250951,0.145951,-0.2061219999999999,-0.219976
1734,0.432791,0.8659959999999999,0.250488,0.1250099999999999,-0.156065,-0.2313079999999999
1735,0.434641,0.8652540000000001,0.2498449999999999,0.113271,-0.117024,-0.146162
1736,0.4363979999999999,0.8645790000000001,0.249119,0.082188,-0.094132,-0.14301
1737,0.439475,0.863468,0.247557,0.076028,-0.0615419999999999,-0.196547
1738,0.442697,0.862634,0.244707,0.064002,-0.18812,-0.1859299999999999
1739,0.444862,0.8624379999999999,0.241451,0.053047,-0.13203,-0.044902
1740,0.4468729999999999,0.861869,0.239762,0.181819,-0.161597,-0.299867
1741,0.446818,0.864441,0.230424,0.193807,0.03923,-0.262239
1742,0.443851,0.8657360000000001,0.2312969999999999,0.163922,0.069414,-0.282062
1743,0.438762,0.870442,0.223201,0.105275,0.1117819999999999,-0.281597
1744,0.424864,0.8772110000000001,0.223588,0.072496,0.150697,-0.153077
