,gravity.x,gravity.y,gravity.z,userAcceleration.x,userAcceleration.y,userAcceleration.z
0,0.247265,0.699591,-0.670396,-0.402767,-0.420218,0.6409159999999999
1,0.198258,0.684068,-0.7019569999999999,-0.4344479999999999,-1.0184030000000002,0.948585
2,0.15897,0.6897479999999999,-0.706381,-0.4473609999999999,-1.1376700000000002,1.286475
3,0.13572,0.710415,-0.6905720000000001,-0.430718,-1.317958,1.229406
4,0.127096,0.743373,-0.6566890000000001,-0.338506,-1.408275,1.013516
5,0.135441,0.7826890000000001,-0.6074970000000001,-0.347508,-1.3927200000000002,0.617949
6,0.152352,0.8239299999999999,-0.545826,-0.155632,-0.970536,0.501225
7,0.17088,0.8574870000000001,-0.4852979999999999,-0.011869,-0.0452,-0.223336
8,0.1794329999999999,0.8877209999999999,-0.423972,-0.008214,0.311925,1.022345
9,0.173191,0.912175,-0.371399,0.023022,0.432612,0.102219
10,0.151706,0.928824,-0.338036,-0.007495,0.235117,-0.171486
11,0.119551,0.943362,-0.309471,-0.071807,-0.216754,0.338508
12,0.075139,0.955043,-0.286782,0.173641,-0.109233,0.163491
13,0.012625,0.961452,-0.274677,0.089197,1.282902,-0.024106
14,-0.050531,0.96298,-0.264786,0.289438,1.7289290000000002,-0.1335599999999999
15,-0.089753,0.966975,-0.238537,0.3769389999999999,1.271474,0.314038
16,-0.095692,0.978092,-0.184865,0.213612,0.91232,-0.013362
17,-0.117165,0.986207,-0.116892,0.155083,1.126739,0.0785309999999999
18,-0.165305,0.98502,-0.049043,0.489188,1.387096,-0.011382
19,-0.206765,0.978345,0.009164,0.3755429999999999,1.015765,-0.5914699999999999
20,-0.2442929999999999,0.968498,0.048232,0.439835,0.969017,-0.716537
21,-0.27258,0.958877,0.079057,0.495663,0.147752,-0.40764
22,-0.291371,0.950965,0.103742,0.82642,-1.1295389999999998,-0.2395449999999999
23,-0.2949239999999999,0.947535,0.123249,1.072512,-1.174952,-0.369129
24,-0.273236,0.954134,0.122332,1.16943,-1.117265,-0.537295
25,-0.233011,0.967096,0.102104,0.6571140000000001,-0.975778,-0.117821
26,-0.183882,0.980387,0.07088,0.183836,-0.974893,0.0069549999999999
27,-0.1260099999999999,0.991376,0.035925,-0.0953649999999999,-0.936017,0.119989
28,-0.064752,0.997899,-0.0005769999999999,-0.439841,-0.476735,0.096723
29,-0.011595,0.999285,-0.035916,-0.5105149999999999,-0.232775,0.0441709999999999
30,0.032454,0.996869,-0.072069,-0.475355,0.007465,0.0764789999999999
31,0.087122,0.991256,-0.099077,-0.518626,1.2284700000000002,-0.040038
32,0.154884,0.981121,-0.115793,-0.254799,0.989964,-0.2412929999999999
33,0.221956,0.966356,-0.129946,0.119001,0.7072579999999999,-0.560117
34,0.290405,0.941703,-0.169871,0.855865,0.915261,-0.790776
35,0.35911,0.90595,-0.224255,0.390569,1.817378,-0.2252989999999999
36,0.410122,0.867769,-0.280667,0.354892,1.840361,-0.2589599999999999
37,0.439889,0.8276479999999999,-0.348558,0.423347,1.072269,-0.359098
38,0.452496,0.785022,-0.423067,0.347095,0.651181,-0.2373489999999999
39,0.441941,0.744521,-0.500374,0.141433,0.610505,-0.081719
40,0.40315,0.714205,-0.572171,-0.230818,-0.811022,0.295178
41,0.35359,0.705616,-0.6140680000000001,-0.6258520000000001,-0.928745,0.699441
42,0.31698,0.713559,-0.624785,-0.671457,-1.051053,0.8265819999999999
43,0.299394,0.7333649999999999,-0.610359,-0.823976,-1.337979,1.14405
44,0.295846,0.764871,-0.572228,-0.643594,-1.548013,1.088952
45,0.294548,0.805967,-0.513475,-0.4197609999999999,-1.226652,0.692659
46,0.287511,0.847518,-0.4461479999999999,-0.3619739999999999,-0.892608,0.134976
47,0.278792,0.876408,-0.392659,-0.066176,-0.157994,-0.487377
48,0.282401,0.894598,-0.346325,0.154397,0.438593,0.579816
49,0.287935,0.915866,-0.279785,-0.336916,0.206159,0.7131810000000001
50,0.279641,0.932211,-0.2297409999999999,-0.385049,0.084345,-0.116695
51,0.258276,0.941338,-0.217192,-0.176458,-0.039818,-0.153703
52,0.234107,0.950666,-0.203531,-0.266531,-0.456327,0.244211
53,0.204664,0.961682,-0.18242,-0.278562,-0.405026,0.451677
54,0.171655,0.972152,-0.1595359999999999,-0.201379,0.290986,0.189123
55,0.13319,0.981259,-0.139237,-0.017986,0.870166,-0.141967
56,0.099273,0.987398,-0.123233,0.156144,0.597121,-0.065183
57,0.071683,0.99166,-0.107092,0.125003,0.247964,0.195287
58,0.042453,0.995783,-0.081302,0.294568,0.561682,0.0267519999999999
59,0.004961,0.999027,-0.043781,0.60626,1.155606,-0.0754809999999999
60,-0.029068,0.999574,0.001286,0.786682,1.470549,-0.271275
61,-0.061074,0.996879,0.049986,0.202904,1.181039,-0.348722
62,-0.097836,0.990367,0.097966,0.137677,0.943792,-0.254994
63,-0.135679,0.981725,0.133427,0.308164,0.880366,-0.405186
64,-0.166314,0.973866,0.154662,0.457207,0.375378,-0.6853779999999999
65,-0.192983,0.965588,0.174332,0.4381,-0.666928,-0.591431
66,-0.220685,0.956637,0.190102,0.581479,-0.902041,-0.584679
67,-0.233908,0.95237,0.195635,0.955786,-1.099694,-0.464571
68,-0.224359,0.955553,0.19125,0.939828,-1.137194,-0.539242
69,-0.1923619999999999,0.965553,0.1752119999999999,0.816203,-1.071297,-0.500484
70,-0.147905,0.977148,0.152648,0.252306,-0.678702,0.055146
71,-0.096572,0.986868,0.129464,0.020278,-0.5966859999999999,0.237846
72,-0.043144,0.993759,0.102842,-0.310036,-0.326508,0.164354
73,0.008348,0.997339,0.072396,-0.795,0.846045,-0.632866
74,0.048193,0.998365,0.030681,-0.868841,1.369769,-0.356182
75,0.072122,0.997345,-0.009825,-0.785226,1.523178,-0.11812
76,0.090791,0.995062,-0.040054,-0.391984,0.295755,-0.154801
77,0.105213,0.992075,-0.0686539999999999,0.098476,0.233465,-0.134654
78,0.127169,0.986248,-0.105546,0.137571,0.2529949999999999,-0.038848
79,0.168698,0.976833,-0.13166,0.28844,0.870182,-0.002449
80,0.219542,0.962117,-0.161643,-0.481825,0.4469399999999999,-0.399132
81,0.25855,0.944283,-0.2036619999999999,-0.676214,0.082679,-0.08804
82,0.294701,0.923459,-0.245707,-0.3542099999999999,-0.254758,0.208704
83,0.3290889999999999,0.899175,-0.288411,-0.180057,-0.296438,0.2257429999999999
84,0.354571,0.8721559999999999,-0.337077,-0.041537,-0.4667449999999999,0.364207
85,0.368161,0.845891,-0.3859059999999999,-0.127423,-0.951421,0.444759
86,0.36759,0.8252659999999999,-0.4287319999999999,-0.194433,-0.991175,0.538565
87,0.359741,0.811199,-0.461021,-0.3226159999999999,-0.91122,0.519005
88,0.3508469999999999,0.801303,-0.48458,-0.345232,-0.784045,0.252189
89,0.340072,0.794508,-0.503096,-0.215881,-0.695509,0.13893
90,0.324976,0.788858,-0.521624,0.044012,-0.482614,0.002611
91,0.3053619999999999,0.783796,-0.540754,0.448697,-0.14221,-0.151522
92,0.288804,0.7788149999999999,-0.556809,0.691298,0.102105,-0.507949
93,0.278937,0.779139,-0.561368,0.7957850000000001,0.227819,-0.64255
94,0.270689,0.787274,-0.554008,0.295854,0.01778,-0.168007
95,0.2621179999999999,0.803466,-0.534542,-0.355273,0.301606,-0.348256
96,0.252511,0.81042,-0.5286350000000001,-0.050012,1.821767,-0.63236
97,0.244713,0.8217190000000001,-0.514676,-0.580635,-0.348574,0.163388
98,0.2436969999999999,0.842864,-0.47978,-0.54988,-0.48233,0.109038
99,0.2443719999999999,0.869584,-0.429073,-0.622607,-0.41565,0.47845
100,0.237928,0.896275,-0.374269,-0.48544,-0.026662,-0.043974
101,0.22583,0.918779,-0.323793,-0.174637,0.29138,0.130022
102,0.212353,0.939448,-0.268961,-0.151028,0.4427239999999999,0.082194
103,0.196208,0.957105,-0.213184,-0.167812,0.114428,0.041111
104,0.182581,0.970713,-0.15613,-0.15275,-0.096247,0.056612
105,0.171544,0.980523,-0.095619,-0.118123,-0.080316,0.122993
106,0.154948,0.987377,-0.032756,-0.072292,0.062931,0.128581
107,0.127095,0.991508,0.027466,-0.064565,0.176339,0.042877
108,0.0860799999999999,0.99349,0.074581,0.017115,0.062937,-0.02531
109,0.045278,0.993427,0.105102,0.172725,-0.119755,-0.01715
110,0.013138,0.991385,0.130293,0.256027,-0.038993,0.170336
111,-0.011448,0.988644,0.149818,0.276829,-0.0205039999999999,0.1738819999999999
112,-0.034231,0.985996,0.163199,0.093527,-0.2594329999999999,0.0077599999999999
113,-0.055838,0.982153,0.179584,0.056891,-0.313299,0.023053
114,-0.0791429999999999,0.977491,0.195551,0.086772,-0.277998,0.068075
115,-0.1036,0.972432,0.208894,0.3338239999999999,-0.047474,-0.04123
116,-0.125202,0.966854,0.222509,0.517383,0.001972,-0.142996
117,-0.140065,0.960768,0.239371,0.615804,0.000261,-0.231924
118,-0.148916,0.954701,0.257607,0.6979569999999999,0.082057,-0.491585
119,-0.152146,0.948519,0.277767,0.462693,0.05853,-0.465205
120,-0.153699,0.94387,0.292364,0.389859,-0.0317459999999999,-0.505438
121,-0.154175,0.941591,0.299377,0.2897349999999999,-0.01198,-0.305114
122,-0.151146,0.939849,0.306314,0.06913,-0.0261069999999999,-0.217234
123,-0.146472,0.938145,0.313719,-0.024991,-0.0192,-0.237761
124,-0.148763,0.936494,0.317553,0.218617,0.002227,-0.253191
125,-0.152947,0.937354,0.3129909999999999,0.458566,0.148766,-0.0778679999999999
126,-0.143293,0.942446,0.302079,0.3316929999999999,0.351056,-0.085297
127,-0.121923,0.95208,0.28048,0.023733,0.647835,-0.113549
128,-0.096226,0.965196,0.24316,0.1378059999999999,0.416731,-0.274761
129,-0.064841,0.980062,0.18779,0.12609,0.2159219999999999,-0.167877
130,-0.0277529999999999,0.991063,0.130438,-0.2357659999999999,0.48582,-0.170309
131,0.014577,0.99667,0.080173,-0.638067,0.83231,-0.343127
132,0.05795,0.997807,0.031861,-0.681439,0.8311729999999999,-0.294815
133,0.091087,0.995427,-0.028647,-0.534705,0.423915,-0.0667659999999999
134,0.111785,0.988427,-0.1025089999999999,-0.356597,0.249823,0.065522
135,0.128512,0.976634,-0.172233,-0.084094,0.129903,0.394111
136,0.149909,0.962514,-0.226027,0.072869,-0.136998,0.4330279999999999
137,0.174123,0.94881,-0.263503,0.158717,-0.298252,0.539519
138,0.204232,0.934884,-0.290303,0.090751,-0.298806,0.325444
139,0.229959,0.920047,-0.317217,-0.1630339999999999,-0.4248229999999999,0.146197
140,0.244246,0.905752,-0.346341,-0.295042,-0.570562,0.244549
141,0.247606,0.89464,-0.371895,-0.257662,-0.625582,0.308479
142,0.241106,0.8894620000000001,-0.388227,-0.218737,-0.719143,0.37338
143,0.2272699999999999,0.891473,-0.391943,-0.185507,-0.741708,0.326467
144,0.2085159999999999,0.900923,-0.380596,-0.083883,-0.7006359999999999,0.210628
145,0.183602,0.917589,-0.352585,0.1012179999999999,-0.7187060000000001,0.063232
146,0.15277,0.938994,-0.308132,0.297349,-0.652983,-0.178333
147,0.123149,0.95842,-0.257409,0.568288,0.241852,-0.506858
148,0.117282,0.964957,-0.234724,1.095609,2.385446,-0.742815
149,0.131383,0.959346,-0.249775,0.390514,1.066518,-0.927333
150,0.154519,0.951058,-0.267594,0.234306,0.195442,-0.206344
151,0.174748,0.950433,-0.257162,-0.417027,0.2278349999999999,0.402701
152,0.1817599999999999,0.959011,-0.217379,-1.157117,0.8307379999999999,0.421572
153,0.16842,0.969237,-0.1794619999999999,-1.410211,1.027421,-0.170117
154,0.142032,0.97313,-0.1812119999999999,-0.621631,-0.2837989999999999,-0.1798259999999999
155,0.112941,0.977154,-0.18002,-0.232753,-0.6139789999999999,0.603222
156,0.0846919999999999,0.980045,-0.17981,-0.176199,-0.662098,0.772019
157,0.058605,0.982196,-0.178464,-0.268916,0.2279179999999999,0.877469
158,0.0350399999999999,0.984963,-0.169155,-0.2694,0.504173,0.7747310000000001
159,0.022477,0.990628,-0.134699,0.037215,0.274387,0.486827
160,0.020472,0.996164,-0.085035,0.226766,-0.006295,0.083601
161,0.022302,0.999026,-0.037959,0.285208,0.033002,-0.048772
162,0.027971,0.99951,-0.013728,0.274748,-0.022719,-0.106389
163,0.036775,0.999287,-0.008066,0.293806,0.082501,0.155283
164,0.046617,0.998907,0.001801,0.386214,0.114817,0.29518
165,0.058898,0.998016,0.022054,0.310808,-0.0835409999999999,0.122447
166,0.071221,0.996698,0.038866,-0.059197,-0.244272,-0.0674299999999999
167,0.076,0.995643,0.053945,-0.068569,-0.192374,-0.122015
168,0.073671,0.994855,0.069483,0.002471,-0.189389,-0.083017
169,0.069739,0.994123,0.08275,0.298471,0.113772,-0.133135
170,0.0661,0.993105,0.096765,0.210481,-0.038943,-0.14544
171,0.0604679999999999,0.99255,0.1057299999999999,0.135638,-0.181911,-0.159853
172,0.0532059999999999,0.992066,0.1138589999999999,-0.081908,-0.015168,-0.301038
173,0.044006,0.99144,0.122884,-0.122451,0.016937,-0.227758
174,0.035393,0.990811,0.130499,-0.070991,0.122546,-0.158805
175,0.029985,0.990138,0.136812,0.017256,0.726247,-0.0859549999999999
176,0.025452,0.989838,0.139865,0.0241389999999999,0.889358,-0.253436
177,0.0215379999999999,0.990615,0.134933,0.497734,0.61023,-0.511199
178,0.026886,0.992445,0.119666,0.469894,0.093828,-0.247901
179,0.047898,0.994219,0.09604,0.483458,-0.072711,-0.2169199999999999
180,0.084185,0.994674,0.059394,0.393217,-0.089172,-0.209877
181,0.133071,0.99094,0.017947,0.163484,0.0536009999999999,-0.403811
182,0.187746,0.981981,-0.021378,-0.029772,0.30844,-0.362441
183,0.2406,0.968532,-0.0636419999999999,-0.389587,0.494084,-0.32683
184,0.288363,0.951228,-0.1095619999999999,-0.134951,0.552083,-0.4296979999999999
185,0.34767,0.923569,-0.161676,-0.076628,0.759201,-0.511451
186,0.419159,0.879296,-0.226136,-0.108322,1.493216,-0.287887
187,0.491767,0.822169,-0.286702,0.244759,1.833028,-0.123317
188,0.557914,0.755373,-0.343713,0.31524,1.852156,-0.271887
189,0.599587,0.6785909999999999,-0.42427,0.8993450000000001,1.806715,0.205703
190,0.6213810000000001,0.5981569999999999,-0.506054,0.314059,0.922595,-0.3629949999999999
191,0.593784,0.532904,-0.602852,-0.269794,0.002313,0.363075
192,0.542644,0.4921819999999999,-0.680655,-0.5673020000000001,-0.21348,0.603797
193,0.496762,0.477724,-0.724572,-0.688535,-0.539644,0.598733
194,0.4624689999999999,0.487585,-0.740528,-0.920523,-0.8778739999999999,1.29903
195,0.455326,0.522506,-0.720877,-1.13834,-1.140807,1.416907
196,0.468004,0.575062,-0.671025,-0.992692,-1.24361,0.989689
197,0.481956,0.6348739999999999,-0.603863,-0.939582,-1.1035629999999998,0.7074239999999999
198,0.483497,0.691947,-0.53613,-0.709709,-0.660118,0.2459989999999999
199,0.478751,0.7381989999999999,-0.4752439999999999,0.2475679999999999,0.356238,-0.296073
200,0.485354,0.770891,-0.412497,0.454481,0.8089729999999999,0.842292
201,0.485568,0.804538,-0.34196,-0.343371,0.59924,0.7885840000000001
202,0.470663,0.8292790000000001,-0.301277,-0.376501,0.5213840000000001,-0.112481
203,0.438292,0.855345,-0.276186,-0.5055529999999999,0.184557,0.319201
204,0.400938,0.8755370000000001,-0.2695889999999999,-0.459776,-0.139087,0.569042
205,0.356198,0.896983,-0.261799,-0.28471,0.4262899999999999,0.236394
206,0.3030719999999999,0.922771,-0.23798,0.03105,0.931858,-0.18008
207,0.2556239999999999,0.945331,-0.202483,0.5919260000000001,1.738965,0.0991809999999999
208,0.2274969999999999,0.960938,-0.157593,1.035976,0.8429409999999999,0.170365
209,0.213253,0.972231,-0.096336,0.483326,0.997739,-0.075539
210,0.178001,0.983341,-0.036695,-0.5890880000000001,1.224239,-0.364077
211,0.130568,0.991345,0.013279,0.284807,1.081607,-0.538349
212,0.091758,0.994692,0.046451,0.523095,0.741957,-0.5858949999999999
213,0.0618279999999999,0.995898,0.06599,0.385713,-0.167315,-0.47816
214,0.032291,0.996608,0.075625,0.251278,-1.089488,-0.302676
215,0.016003,0.99671,0.079381,0.70911,-1.143546,-0.459187
216,0.023446,0.997702,0.063481,0.860999,-1.134177,-0.559895
217,0.055162,0.998127,0.026257,0.734099,-0.8499639999999999,-0.264935
218,0.107918,0.994059,-0.0137819999999999,0.081795,-0.759013,0.303592
219,0.174973,0.982934,-0.0567,-0.218324,-0.719537,0.311521
220,0.238417,0.966604,-0.093946,-0.559325,-0.30573,-0.562762
221,0.29373,0.944872,-0.144675,-0.659712,0.329862,-0.409692
222,0.345776,0.917049,-0.198624,-0.379131,0.792179,-0.1069329999999999
223,0.4093699999999999,0.882627,-0.231034,0.160683,1.941363,0.379197
224,0.479833,0.8399479999999999,-0.253455,0.474803,1.6898830000000002,-0.2376489999999999
225,0.547682,0.781249,-0.299476,0.70453,1.598145,-0.754418
226,0.603251,0.710947,-0.361435,0.463491,1.822393,0.180206
227,0.636973,0.639405,-0.430604,0.252004,1.429183,0.143815
228,0.648542,0.5705060000000001,-0.503895,0.0835289999999999,1.035481,-0.175366
229,0.61875,0.5181020000000001,-0.590521,-0.493612,-0.530217,0.4439899999999999
230,0.572426,0.490852,-0.656802,-0.625634,-0.699561,0.588519
231,0.5319119999999999,0.4924699999999999,-0.688868,-1.065237,-0.7090989999999999,0.993129
232,0.507799,0.514744,-0.690779,-1.199358,-0.871082,1.372236
233,0.495843,0.551588,-0.670736,-0.8548819999999999,-1.076414,1.258138
234,0.4936,0.600797,-0.628807,-0.835045,-1.148069,1.081169
235,0.497906,0.6532600000000001,-0.570383,-0.6861229999999999,-0.719803,0.515573
236,0.502699,0.699375,-0.508097,-0.459913,-0.596134,0.3638099999999999
237,0.512971,0.7338520000000001,-0.445326,-0.144532,0.115818,-0.506945
238,0.520088,0.764424,-0.380994,-0.519966,0.516108,1.207944
239,0.513608,0.797097,-0.3175449999999999,-0.546567,0.206062,0.481195
240,0.4969229999999999,0.822203,-0.277563,-0.196981,0.14432,0.0622309999999999
241,0.482988,0.841258,-0.2428969999999999,0.043212,0.19869,0.097374
242,0.460351,0.8595280000000001,-0.22199,-0.229562,0.386276,0.36588
243,0.432804,0.876808,-0.209472,-0.238026,0.963127,0.052917
244,0.4021929999999999,0.8923540000000001,-0.20478,-0.295168,0.54185,0.122291
245,0.3681239999999999,0.90885,-0.196126,-0.050283,0.592492,0.08814
246,0.325528,0.929796,-0.171757,0.5915560000000001,1.195296,0.284092
247,0.294207,0.947434,-0.125702,0.850691,1.626007,-0.0329589999999999
248,0.26794,0.960478,-0.0753539999999999,0.157765,1.134233,-0.083032
249,0.228513,0.97316,-0.027025,0.01842,0.958832,-0.045622
250,0.183798,0.982907,0.010053,0.206919,0.828235,-0.201734
251,0.146504,0.988642,0.033337,0.2276409999999999,0.667684,-0.426404
252,0.114254,0.992141,0.050886,0.048405,-0.207183,-0.447111
253,0.081732,0.994581,0.064163,0.067987,-1.273923,-0.4757689999999999
254,0.05947,0.995801,0.069502,0.307656,-1.266019,-0.4998609999999999
255,0.061744,0.996154,0.062067,0.692376,-1.101699,-0.616969
256,0.087621,0.995246,0.042385,0.560771,-1.046805,-0.3740199999999999
257,0.1305319999999999,0.991364,0.012167,0.337104,-1.0046389999999998,-0.172278
258,0.183351,0.982838,-0.020019,-0.146761,-0.873677,0.3138579999999999
259,0.23893,0.969801,-0.048854,-0.406761,-0.396346,0.064357
260,0.283465,0.956033,-0.075088,-0.4333369999999999,-0.195276,-0.092667
261,0.320892,0.939876,-0.116836,-0.608291,0.918339,-0.290101
262,0.35882,0.922079,-0.144941,-0.545557,1.6488740000000002,-0.148851
263,0.395328,0.905459,-0.154435,-0.686862,1.214567,-0.222075
264,0.425299,0.8873270000000001,-0.178219,-0.50878,0.364123,0.107357
265,0.4506449999999999,0.8687459999999999,-0.205401,-0.042884,0.370084,0.125979
266,0.488468,0.8441690000000001,-0.220835,-0.010594,0.553597,-0.012518
267,0.5272399999999999,0.815732,-0.2378849999999999,-0.598499,0.5063810000000001,-0.2201989999999999
268,0.554746,0.788669,-0.265042,-0.6533180000000001,0.018963,0.157254
269,0.581427,0.756102,-0.300404,-0.286933,-0.026304,0.25063
270,0.6074579999999999,0.718169,-0.339438,-0.200903,-0.089172,0.257285
271,0.6197189999999999,0.6817,-0.388877,-0.419783,-0.385161,0.297493
272,0.6197060000000001,0.6466189999999999,-0.444793,-0.518083,-0.395505,0.4073469999999999
273,0.6091310000000001,0.615301,-0.5003569999999999,-0.660523,-0.5153260000000001,0.64208
274,0.593478,0.591481,-0.545828,-0.6894100000000001,-0.695409,0.718527
275,0.5793590000000001,0.578411,-0.574263,-0.6005229999999999,-0.6587029999999999,0.5727369999999999
276,0.56942,0.575419,-0.587067,-0.4587479999999999,-0.51736,0.311402
277,0.561611,0.5780529999999999,-0.591982,-0.300136,-0.2329449999999999,0.067751
278,0.552959,0.581713,-0.596525,0.038472,-0.06946,-0.103869
279,0.547419,0.586548,-0.5969,0.4833119999999999,0.199997,-0.272256
280,0.54707,0.593815,-0.5899939999999999,0.558063,0.346935,-0.559207
281,0.54718,0.602866,-0.580639,0.552902,0.3628929999999999,-0.59412
282,0.5529189999999999,0.613352,-0.5639810000000001,0.0662669999999999,0.396124,-0.040618
283,0.550999,0.622505,-0.555771,-0.467839,1.407753,-1.1764370000000002
284,0.536488,0.639388,-0.55078,-0.8659709999999999,-0.021575,0.060957
285,0.523559,0.668043,-0.528771,-0.22383,-0.227293,0.330132
286,0.524192,0.702765,-0.480975,-0.6244430000000001,-0.399314,0.290607
287,0.5254800000000001,0.734599,-0.429218,-0.469999,0.0810289999999999,0.175693
288,0.524203,0.763494,-0.377201,-0.414218,0.208644,0.101078
289,0.517932,0.791858,-0.323573,-0.359958,0.221021,0.213297
290,0.5075149999999999,0.8206049999999999,-0.262732,-0.397483,0.318342,0.262259
291,0.4913939999999999,0.848427,-0.196709,-0.339844,0.377587,0.226433
292,0.46993,0.8730399999999999,-0.130216,-0.277761,0.535774,0.0417
293,0.4447359999999999,0.893106,-0.0675279999999999,-0.206134,0.588263,0.0060659999999999
294,0.4172909999999999,0.908624,-0.016099,-0.148416,0.377204,0.047777
295,0.388532,0.921078,0.0253949999999999,-0.197614,0.073352,0.067821
296,0.3551829999999999,0.932918,0.059133,-0.271809,-0.108272,0.042552
297,0.3211489999999999,0.943181,0.085197,-0.222455,-0.215856,0.024773
298,0.292555,0.950715,0.102657,-0.129484,-0.140076,0.122852
299,0.268573,0.955786,0.1197,0.048261,-0.161795,0.243642
300,0.244626,0.958546,0.14606,0.136997,-0.152836,0.190748
301,0.2229469999999999,0.957854,0.181098,0.2064349999999999,-0.281737,-0.007651
302,0.2050449999999999,0.953114,0.222518,0.168506,-0.32755,-0.160827
303,0.1930319999999999,0.946121,0.259959,0.141792,-0.306426,-0.310816
304,0.188714,0.937727,0.291615,-0.015436,-0.163816,-0.3131
305,0.185114,0.929825,0.318029,-0.076257,-0.047562,-0.318746
306,0.17459,0.922765,0.34352,-0.155715,0.148554,-0.504027
307,0.155871,0.919966,0.359653,-0.131243,-0.140059,-0.5177189999999999
308,0.134998,0.921346,0.364529,-0.071979,-0.22469,-0.454007
309,0.11785,0.92195,0.3689219999999999,0.156899,0.009798,-0.284923
310,0.107963,0.921337,0.373451,0.477731,0.018543,-0.147591
311,0.106238,0.920007,0.377205,0.596567,0.043433,-0.228951
312,0.116673,0.921075,0.371469,0.5492199999999999,0.09368,-0.27656
313,0.143413,0.922513,0.358307,0.106617,0.395953,-0.2929239999999999
314,0.181475,0.926307,0.330159,-0.079867,0.5011220000000001,-0.290547
315,0.220415,0.934674,0.2789,-0.350954,0.437641,-0.362488
316,0.2543829999999999,0.939515,0.229316,-0.718204,1.081237,-0.788199
317,0.293912,0.940573,0.170071,-0.917706,1.101404,-0.598263
318,0.330303,0.937787,0.106967,-0.922832,0.766483,0.082196
319,0.344934,0.936436,0.063998,-0.523141,0.60635,-0.1785
320,0.356833,0.933584,0.032832,0.144967,0.2409,-0.164943
321,0.385417,0.922693,0.008905,0.208028,0.0796419999999999,-0.072229
322,0.418105,0.90821,-0.0182039999999999,-0.02748,-0.22074,0.184571
323,0.445329,0.8942709999999999,-0.044147,-0.211717,-0.533569,0.160251
324,0.465099,0.882346,-0.071674,-0.338252,-0.590278,-0.012494
325,0.477128,0.8728959999999999,-0.101934,-0.49022,-0.5902729999999999,0.063833
326,0.483462,0.866552,-0.1238599999999999,-0.51398,-0.55747,0.098409
327,0.4839489999999999,0.8653420000000001,-0.130252,-0.439317,-0.5673229999999999,0.082218
328,0.477179,0.870087,-0.123447,-0.2987579999999999,-0.582382,0.011417
329,0.462811,0.8801389999999999,-0.105601,-0.122647,-0.620282,-0.053152
330,0.4401229999999999,0.895123,-0.07096,-0.008711,-0.6663939999999999,-0.200051
331,0.407059,0.913152,-0.021099,0.056961,-0.5943350000000001,-0.548862
332,0.363626,0.931023,0.030974,0.307761,0.299171,-0.634199
333,0.334553,0.940639,0.057089,1.103969,2.182469,-1.101691
334,0.3546829999999999,0.934443,0.031667,0.649361,0.921086,-1.207372
335,0.383628,0.923218,0.022018,0.257226,-0.381195,0.066208
336,0.388705,0.920385,0.04227,-0.63457,0.04893,0.365475
337,0.369569,0.924796,0.090311,-1.089921,0.700875,0.083975
338,0.33268,0.934213,0.128665,-1.498894,1.552329,-0.860751
339,0.299939,0.948249,0.104142,-0.584088,0.046807,-0.47397
340,0.263464,0.959363,0.100966,-0.06217,-0.5075350000000001,0.525575
341,0.238598,0.965781,0.101604,-0.117306,-0.478339,0.625325
342,0.217139,0.969165,0.116428,-0.222541,-0.004275,0.541668
343,0.194688,0.970309,0.1434619999999999,-0.294801,0.267728,0.228196
344,0.174981,0.966886,0.185738,-0.225579,0.210528,-0.022789
345,0.150609,0.959079,0.239726,0.113032,-0.0781429999999999,-0.145976
346,0.124388,0.950709,0.284013,0.416871,-0.11288,-0.427858
347,0.107356,0.946993,0.3027579999999999,0.521947,-0.0686669999999999,-0.5343859999999999
348,0.103182,0.946604,0.305415,0.461683,0.059607,0.088078
349,0.1029089999999999,0.941512,0.320857,0.288097,0.0540789999999999,-0.191661
350,0.106567,0.934468,0.339702,0.126892,-0.019429,-0.481868
351,0.106614,0.931083,0.348857,-0.1250619999999999,-0.176536,-0.2765309999999999
352,0.097888,0.92792,0.359676,0.297483,-0.220934,-0.111034
353,0.090375,0.922895,0.374273,0.35036,-0.192945,-0.157904
354,0.084508,0.916795,0.390294,0.197322,0.0984179999999999,-0.343816
355,0.076864,0.912326,0.4021639999999999,0.048579,0.195859,-0.334018
356,0.065782,0.909967,0.409407,-0.061571,0.2151699999999999,-0.305159
357,0.051324,0.908302,0.4151319999999999,-0.059854,0.187783,-0.276918
358,0.034213,0.907527,0.418577,0.040769,0.2035269999999999,-0.274717
359,0.0149729999999999,0.906828,0.421213,0.202679,0.3088849999999999,-0.306543
360,-0.001841,0.906844,0.421443,0.485544,0.544588,-0.263316
361,-0.012229,0.906837,0.421284,0.785514,0.704125,-0.369358
362,-0.0154949999999999,0.907933,0.418809,0.531181,0.571346,-0.378053
363,-0.012296,0.912436,0.409015,0.361021,0.402032,-0.2254659999999999
364,-0.000707,0.920758,0.3901139999999999,0.253392,0.093647,-0.224434
365,0.0166419999999999,0.932007,0.362035,0.205236,-0.031205,-0.284047
366,0.039161,0.944693,0.325584,0.183175,-0.032935,-0.408378
367,0.069828,0.956018,0.2848489999999999,0.098629,0.088828,-0.487577
368,0.1040809999999999,0.96481,0.241443,0.012298,0.134067,-0.491015
369,0.136163,0.970073,0.201007,0.151572,0.0837909999999999,-0.403232
370,0.1774859999999999,0.971478,0.15721,0.626286,0.170444,-0.538573
371,0.245824,0.963308,0.107682,0.5454359999999999,0.5339149999999999,-0.414216
372,0.334594,0.940921,0.051983,0.1943369999999999,1.026761,-0.340725
373,0.4277319999999999,0.903898,0.001269,0.5149560000000001,1.358294,-0.55884
374,0.520166,0.852727,-0.047659,0.5817319999999999,1.382319,-0.655908
375,0.600617,0.791987,-0.109563,1.609832,2.105428,-0.255259
376,0.656547,0.7289100000000001,-0.193976,0.542672,1.530184,-0.555505
377,0.6640189999999999,0.68025,-0.310372,0.046217,-0.031827,0.287835
378,0.637077,0.64771,-0.4178489999999999,-0.008522,-0.300359,0.342715
379,0.587242,0.636914,-0.499481,-0.584739,-0.699109,0.430649
380,0.535084,0.648122,-0.5418649999999999,-1.308995,-0.978429,1.276407
381,0.508413,0.677107,-0.532013,-1.666784,-1.26486,1.666641
382,0.504667,0.7221390000000001,-0.473097,-1.402448,-1.46634,1.149794
383,0.498753,0.7713800000000001,-0.395235,-0.982975,-1.048953,0.340334
384,0.491483,0.803558,-0.335753,-0.396574,-0.064301,-0.434908
385,0.490846,0.8299280000000001,-0.265104,0.131377,0.450056,1.099531
386,0.4714819999999999,0.86361,-0.178526,-0.136262,0.167838,0.45474
387,0.4281859999999999,0.892192,-0.143665,-0.0330899999999999,0.698537,-0.263424
388,0.381096,0.916848,-0.1189279999999999,-0.173012,-0.025476,0.179383
389,0.3452659999999999,0.932837,-0.102933,-0.1410269999999999,-0.163306,0.28819
390,0.306384,0.947173,-0.094773,-0.020709,-0.055647,0.078095
391,0.254839,0.962921,-0.0884799999999999,0.2109199999999999,0.342697,-0.019247
392,0.197598,0.977724,-0.070699,0.484897,0.547819,0.133794
393,0.149319,0.988123,-0.036118,1.222263,1.207861,0.059144
394,0.1215329999999999,0.992517,0.0112819999999999,0.701281,1.309928,-0.2939199999999999
395,0.088008,0.994654,0.053885,0.238683,1.31336,-0.490393
396,0.036879,0.994649,0.096429,0.2151199999999999,1.043025,-0.244317
397,-0.009756,0.991688,0.128243,0.677312,0.476727,-0.5235529999999999
398,-0.047975,0.987585,0.14953,0.7787029999999999,0.314737,-0.718148
399,-0.076419,0.982453,0.170091,0.329334,-0.5075390000000001,-0.39087
400,-0.1047579999999999,0.977397,0.183593,0.541755,-0.964549,-0.351256
401,-0.120127,0.975376,0.184925,0.696543,-1.120044,-0.431797
402,-0.111163,0.979293,0.169153,1.05086,-1.202758,-0.655329
403,-0.074289,0.988174,0.1340839999999999,0.66018,-1.04396,-0.09377
404,-0.018812,0.995822,0.089276,0.286878,-0.967288,0.20853
405,0.044941,0.997918,0.04612,-0.039096,-0.884042,-0.06916
406,0.109983,0.993852,0.0122,0.021975,-0.221025,-0.445535
407,0.182658,0.982853,-0.024977,-0.022654,0.253841,-0.6727310000000001
408,0.258874,0.96421,-0.057196,-0.231866,1.573967,0.154975
409,0.327653,0.942243,-0.06935,0.2392409999999999,1.173098,-0.033067
410,0.406866,0.909703,-0.08301,0.521616,0.817226,-0.487593
411,0.494875,0.862403,-0.106531,0.749891,0.887856,-0.422034
412,0.577633,0.802392,-0.149991,1.132755,1.103767,-0.16672
413,0.64268,0.7381909999999999,-0.205006,1.324529,1.578322,-0.240734
414,0.67791,0.683091,-0.2716909999999999,0.469825,0.926513,-0.38874
415,0.674147,0.640625,-0.367585,-0.1551809999999999,0.230622,0.313202
416,0.6430060000000001,0.614008,-0.457746,-0.5222479999999999,-0.378061,0.5685859999999999
417,0.607647,0.612631,-0.505413,-0.7820239999999999,-0.55593,0.5560109999999999
418,0.5804199999999999,0.628596,-0.517663,-1.022299,-0.517756,0.918206
419,0.558654,0.654792,-0.509066,-1.23593,-0.8176640000000001,1.130221
420,0.543004,0.689433,-0.4793989999999999,-0.97466,-1.118907,0.917341
421,0.530507,0.73007,-0.43076,-0.893178,-1.193174,0.5723
422,0.5153989999999999,0.769161,-0.37782,-0.674838,-1.029491,0.232724
423,0.4978649999999999,0.803875,-0.325433,-0.303209,-0.901226,0.163537
424,0.493608,0.82335,-0.280067,0.195769,0.199477,-0.396371
425,0.503996,0.8379530000000001,-0.2093159999999999,0.198824,0.633727,0.7386739999999999
426,0.493584,0.855093,-0.15868,-0.317925,0.46734,-0.431302
427,0.463284,0.873733,-0.148145,-0.27789,0.04538,0.037702
428,0.440125,0.887496,-0.13649,-0.172897,-0.202972,0.06659
429,0.415138,0.901543,-0.121941,-0.312538,-0.14904,0.076135
430,0.378399,0.918708,-0.113044,-0.4363829999999999,0.058297,0.128242
431,0.336642,0.935434,-0.107816,-0.459017,0.2499449999999999,0.076306
432,0.293199,0.950707,-0.100896,-0.051882,0.498619,0.211903
433,0.241573,0.96677,-0.083596,0.758061,0.6616029999999999,0.358071
434,0.192446,0.979504,-0.0593789999999999,1.165266,0.796131,0.19062
435,0.155777,0.987408,-0.027336,1.515778,0.8526799999999999,-0.086113
436,0.132912,0.991041,0.012624,0.794166,0.935472,0.1795759999999999
437,0.087808,0.99457,0.055745,-0.39071,1.713483,-0.293767
438,0.035264,0.994703,0.096489,0.440062,1.014132,-0.245521
439,-0.0103769999999999,0.991981,0.125907,0.853425,0.493325,-0.499289
440,-0.047123,0.987701,0.149039,0.910389,0.189774,-0.6124029999999999
441,-0.0808929999999999,0.981829,0.171621,0.340461,-0.84305,-0.373266
442,-0.106692,0.975958,0.190025,0.394137,-1.031316,-0.560096
443,-0.115523,0.973718,0.196247,0.652007,-0.932458,-0.6998939999999999
444,-0.107391,0.97678,0.185345,0.681503,-0.8591200000000001,-0.474682
445,-0.0863309999999999,0.982361,0.16583,0.448559,-0.789764,-0.23692
446,-0.053661,0.98845,0.141678,0.245586,-0.8503120000000001,-0.155991
447,-0.0133009999999999,0.993475,0.113212,-0.086842,-0.8971309999999999,0.175194
448,0.031925,0.995786,0.085888,-0.034229,-0.710996,0.056949
449,0.07824,0.99469,0.066757,0.087074,-0.237229,-0.044998
450,0.12553,0.991099,0.044182,-0.035365,0.5324,-0.1625599999999999
451,0.175738,0.984303,0.015867,0.059721,1.061596,-0.309797
452,0.223669,0.974414,-0.021823,0.413721,0.385662,-0.140714
453,0.286505,0.955773,-0.066334,0.757425,0.307807,-0.187176
454,0.365271,0.92355,-0.1167059999999999,0.4984229999999999,0.917087,-0.096627
455,0.445039,0.880582,-0.162807,0.289855,1.13483,-0.0409589999999999
456,0.527762,0.8241620000000001,-0.205461,0.152703,1.271022,-0.218398
457,0.60237,0.757794,-0.250778,0.511324,1.2519870000000002,-0.621948
458,0.651618,0.695448,-0.302883,0.232111,1.086092,-0.419972
459,0.67167,0.638703,-0.37538,0.844413,1.059097,0.020903
460,0.658664,0.597134,-0.457806,0.108548,0.069858,0.134671
461,0.62772,0.575298,-0.5243979999999999,-0.16425,-0.057171,0.258712
462,0.5917399999999999,0.5711579999999999,-0.568873,-0.5662119999999999,-0.569159,0.433436
463,0.5593,0.58802,-0.584303,-0.985707,-0.607597,0.844725
464,0.535763,0.619259,-0.573996,-1.169628,-0.943996,1.22138
465,0.525177,0.662341,-0.5343100000000001,-1.122254,-1.3427,1.045143
466,0.5163310000000001,0.711688,-0.476336,-0.738316,-1.253314,0.447314
467,0.504983,0.7550020000000001,-0.418277,-0.585992,-1.007474,0.271487
468,0.501913,0.783288,-0.36679,-0.174322,-0.311761,-0.34897
469,0.519303,0.802662,-0.29334,0.373199,0.057308,1.161215
470,0.537609,0.816792,-0.209325,-0.124218,0.293041,-0.210063
471,0.53036,0.833465,-0.15506,0.044072,0.922776,-0.265427
472,0.513995,0.851252,-0.105675,0.007718,0.51856,0.034737
473,0.499981,0.8632610000000001,-0.0691919999999999,-0.117489,0.359654,-0.360282
474,0.4765069999999999,0.877919,-0.046767,-0.125113,0.413707,-0.352021
475,0.440981,0.8970819999999999,-0.027686,-0.169863,-0.0070519999999999,0.022833
476,0.397217,0.917685,-0.007711,-0.137238,-0.121406,0.108404
477,0.3507119999999999,0.936235,0.021278,-0.024281,0.083571,0.33442
478,0.304583,0.950381,0.063175,0.038221,0.221967,0.236126
479,0.262133,0.959095,0.106814,0.126768,0.113995,0.012556
480,0.22039,0.965303,0.140016,0.237755,0.001448,-0.067415
481,0.184285,0.969219,0.163212,0.2149449999999999,-0.198574,-0.008549
482,0.159334,0.970567,0.180549,0.203459,-0.333986,-0.002082
483,0.140328,0.97041,0.196461,-0.144235,-0.5081760000000001,0.032787
484,0.121372,0.969506,0.212867,-0.204578,-0.416162,-0.062644
485,0.099824,0.969281,0.224757,-0.082323,-0.3567619999999999,-0.059917
486,0.075147,0.969276,0.234186,0.121051,-0.335884,-0.0244379999999999
487,0.052463,0.967987,0.245428,0.300854,-0.299377,-0.1028039999999999
488,0.036911,0.964368,0.26195,0.29779,-0.244901,-0.139529
489,0.0301529999999999,0.95972,0.279311,0.17761,-0.163867,-0.212996
490,0.02532,0.955378,0.294275,0.159174,0.0335139999999999,-0.271127
491,0.0185719999999999,0.953209,0.301717,0.133879,0.015816,-0.304158
492,0.008103,0.952565,0.304206,0.142761,-0.137165,-0.261878
493,-0.00344,0.953308,0.301958,0.20948,-0.005005,-0.181779
494,-0.017329,0.955434,0.294673,0.458003,0.060283,-0.038981
495,-0.028695,0.956883,0.289027,0.6692739999999999,0.0624799999999999,-0.043468
496,-0.025569,0.957518,0.287215,0.731105,0.03322,-0.181914
497,-0.005109,0.958257,0.285839,0.535931,0.267848,-0.100338
498,0.030593,0.961351,0.273596,0.339479,0.300276,-0.073492
499,0.077831,0.967735,0.239621,0.0297589999999999,0.2253349999999999,-0.244748
500,0.123649,0.974337,0.1880599999999999,-0.316703,0.218077,-0.507885
501,0.163803,0.978287,0.126932,-0.55275,0.791458,-0.6491180000000001
502,0.2108449999999999,0.975401,0.0642399999999999,-0.6168359999999999,0.734392,-0.1063079999999999
503,0.256837,0.966428,0.006391,-0.5987100000000001,0.798388,0.052463
504,0.284056,0.957691,-0.04615,-0.578825,0.950847,0.004417
505,0.304454,0.946747,-0.104734,0.267873,0.29216,-0.096468
506,0.336068,0.928711,-0.156668,0.24755,0.189041,0.14501
507,0.3744119999999999,0.905849,-0.198104,0.003045,0.11469,0.301757
508,0.412338,0.88223,-0.2272429999999999,-0.14064,-0.220655,0.169839
509,0.44311,0.857032,-0.262948,-0.125621,-0.19831,0.092919
510,0.4615979999999999,0.8328110000000001,-0.305526,-0.230488,-0.354997,0.433181
511,0.4707409999999999,0.812533,-0.343781,-0.314141,-0.5126069999999999,0.460114
512,0.470447,0.8,-0.372388,-0.401096,-0.625272,0.35246
513,0.463478,0.7959649999999999,-0.389386,-0.400016,-0.6534479999999999,0.339169
514,0.4517899999999999,0.800338,-0.394131,-0.353569,-0.6709890000000001,0.332913
515,0.437885,0.81234,-0.385167,-0.131091,-0.625649,0.290364
516,0.4216109999999999,0.830741,-0.363467,0.078816,-0.600074,0.141741
517,0.4028719999999999,0.853356,-0.330865,0.23435,-0.615883,0.002588
518,0.390109,0.8707309999999999,-0.299392,0.7048,-0.380573,-0.6880350000000001
519,0.38837,0.8770319999999999,-0.282802,0.88046,0.575483,-0.967961
520,0.390543,0.875677,-0.284004,0.748877,1.075724,-1.068886
521,0.399767,0.8714879999999999,-0.284054,0.157987,0.4073199999999999,-0.341221
522,0.41265,0.868439,-0.274821,-0.346335,0.314651,0.51118
523,0.419226,0.877476,-0.232977,-0.788855,0.618771,0.26531
524,0.40584,0.8980090000000001,-0.169894,-1.081484,1.177354,-0.165555
525,0.371456,0.917259,-0.14369,-1.094265,1.33625,-0.791078
526,0.343669,0.924982,-0.162143,-0.5032909999999999,0.129781,0.857074
527,0.332552,0.930762,-0.151927,-0.384035,-0.1529,0.7772020000000001
528,0.311342,0.940788,-0.134075,-0.201448,-0.273994,0.8431049999999999
529,0.287779,0.951323,-0.110265,-0.035445,-0.005751,0.726324
530,0.26875,0.959069,-0.089172,-0.048612,0.278251,0.630981
531,0.257841,0.964662,-0.054188,0.035601,0.068816,0.554143
532,0.250675,0.968062,-0.002919,0.179058,-0.0230849999999999,0.412419
533,0.241585,0.969239,0.046925,0.313683,-0.0921179999999999,0.31863
534,0.233621,0.968253,0.08886,0.474021,-0.075752,0.120048
535,0.230809,0.965658,0.119247,0.409023,-0.093588,-0.158173
536,0.231148,0.963432,0.135492,0.35041,-0.007759,-0.189569
537,0.2296349999999999,0.961459,0.151169,0.499568,-0.039935,-0.100464
538,0.2292739999999999,0.959736,0.16226,0.419408,-0.314198,-0.136931
539,0.2293239999999999,0.958567,0.168964,0.319626,-0.38682,-0.184833
540,0.225315,0.958143,0.176588,0.2036089999999999,-0.268003,-0.235014
541,0.2162099999999999,0.957569,0.190529,0.250373,-0.194538,-0.103263
542,0.204158,0.956296,0.2092949999999999,0.0621539999999999,-0.355359,-0.13999
543,0.194286,0.954396,0.226646,0.019627,-0.513554,-0.06945
544,0.189098,0.951058,0.244371,0.067875,-0.276589,0.009734
545,0.185965,0.947523,0.260006,-0.081504,0.588061,-0.199154
546,0.178024,0.948465,0.262119,-0.266556,1.075674,-0.330158
547,0.162015,0.953562,0.2538809999999999,-0.123944,0.4068199999999999,-0.162206
548,0.144223,0.957574,0.249475,0.175433,0.406287,0.100135
549,0.125938,0.959694,0.251221,0.270592,0.653373,0.034332
550,0.114845,0.961888,0.248131,0.698875,0.561718,-0.290428
551,0.114388,0.96428,0.238885,0.345862,0.30249,-0.16752
552,0.124922,0.96607,0.22603,0.2478199999999999,0.141306,-0.048173
553,0.147268,0.967677,0.204696,0.274134,-0.078059,-0.144424
554,0.179788,0.968197,0.173948,0.221152,-0.100995,-0.200498
555,0.21993,0.965352,0.140406,0.1153049999999999,-0.0865529999999999,-0.201503
556,0.265761,0.958432,0.103763,-0.001952,-0.014188,-0.16225
557,0.314471,0.947158,0.063154,-0.129916,0.25882,-0.199019
558,0.364112,0.930985,0.026025,-0.2115389999999999,0.443557,-0.134866
559,0.412437,0.910923,-0.010176,-0.27967,0.523891,-0.073137
560,0.4634069999999999,0.884928,-0.046322,0.1146109999999999,0.385168,-0.170353
561,0.536108,0.8391540000000001,-0.091649,0.341807,0.4713779999999999,-0.282573
562,0.626297,0.7686970000000001,-0.129793,0.368149,0.6039220000000001,-0.1918619999999999
563,0.721584,0.6738770000000001,-0.1587329999999999,0.6917,1.0984,-0.541248
564,0.79008,0.571333,-0.222131,0.7306560000000001,1.362108,-0.264533
565,0.834,0.46119,-0.302886,1.12297,1.670707,-0.051759
566,0.8378760000000001,0.368032,-0.403125,0.093795,0.8944200000000001,0.416202
567,0.804032,0.292697,-0.517547,-0.470414,0.129544,0.435775
568,0.756724,0.24535,-0.6059439999999999,-0.70048,-0.084187,0.481371
569,0.717171,0.233221,-0.6567109999999999,-1.207711,-0.203238,0.913303
570,0.68501,0.25324,-0.6831020000000001,-1.369671,-0.354009,1.201672
571,0.673588,0.297177,-0.676729,-1.429233,-0.641736,1.428941
572,0.683463,0.358417,-0.635934,-1.143424,-0.8931459999999999,0.915993
573,0.6937949999999999,0.427235,-0.579753,-1.040826,-0.81493,0.746974
574,0.699418,0.4906149999999999,-0.519716,-0.621736,-0.485931,0.364962
575,0.702432,0.550479,-0.4511699999999999,-0.492975,-0.357333,0.362273
576,0.6969489999999999,0.607985,-0.380275,-0.615803,-0.348829,0.448665
577,0.699955,0.635842,-0.325207,1.184124,1.1914129999999998,0.958371
578,0.7192069999999999,0.647947,-0.250793,-0.194014,1.130525,-0.2133489999999999
579,0.706434,0.665274,-0.241564,-0.5818,0.5635319999999999,-0.8090649999999999
580,0.690315,0.6855359999999999,-0.2312929999999999,-0.55413,-0.4147689999999999,0.2438969999999999
581,0.672511,0.710739,-0.206321,-0.56216,-0.252106,0.168525
582,0.644334,0.742373,-0.183593,-0.7715920000000001,0.08093,0.310821
583,0.6039760000000001,0.777768,-0.174013,-0.461063,0.994113,0.072404
584,0.5564279999999999,0.8124060000000001,-0.174286,0.231582,1.166049,0.0588529999999999
585,0.5112359999999999,0.843189,-0.166314,0.592279,1.189053,0.1504599999999999
586,0.475063,0.867343,-0.148397,1.137363,1.045774,0.470129
587,0.455996,0.883531,-0.106913,0.796934,0.926649,0.0577639999999999
588,0.437956,0.896811,-0.06256,-0.460875,1.127053,-0.034364
589,0.388255,0.921365,-0.018296,0.026083,1.144645,-0.099655
590,0.343835,0.938752,0.0226,0.468024,1.142318,-0.541841
591,0.3084389999999999,0.949888,0.050669,0.682558,0.501132,-0.61323
592,0.27419,0.959083,0.070493,0.13116,-0.299659,-0.367429
593,0.239635,0.967429,0.0815169999999999,-0.068996,-0.984656,-0.446385
594,0.212966,0.973912,0.078293,0.098207,-1.3267870000000002,-0.514664
595,0.208182,0.976144,0.061582,0.581873,-1.295373,-0.5563779999999999
596,0.231007,0.97244,0.031404,0.680996,-1.178372,-0.30861
597,0.279455,0.960083,-0.011658,0.3114719999999999,-0.8943629999999999,0.439194
598,0.3372239999999999,0.940478,-0.042087,-0.301503,-0.55205,0.267994
599,0.3922219999999999,0.917794,-0.061689,-0.209361,-0.0066159999999999,-0.013064
600,0.443925,0.8916229999999999,-0.089043,-0.196229,1.125406,-0.180839
601,0.493759,0.8632,-0.105251,-0.092346,1.826405,-0.200688
602,0.537809,0.835318,-0.114003,-0.349699,1.022485,-0.092037
603,0.580557,0.802491,-0.137673,-0.279532,0.40451,0.0318839999999999
604,0.626963,0.761095,-0.166266,-0.053385,0.590056,0.12844
605,0.685462,0.704741,-0.1829589999999999,0.105324,0.8225110000000001,0.041144
606,0.742003,0.641833,-0.193582,-0.144164,0.361249,0.020395
607,0.792892,0.5700350000000001,-0.2153489999999999,-0.233932,0.198092,-0.055998
608,0.8278049999999999,0.49676,-0.260694,-0.410401,0.140203,-0.019366
609,0.838124,0.425415,-0.341415,-0.645726,-0.250046,0.3759
610,0.82791,0.361525,-0.428788,-1.106642,-0.928099,0.664841
611,0.810014,0.309054,-0.498355,-1.083406,-0.21921,0.808139
612,0.7928430000000001,0.266621,-0.548004,-0.957775,-0.1292,0.618103
613,0.778544,0.234244,-0.582233,-0.685053,-0.010626,0.2408179999999999
614,0.761735,0.21424,-0.6114390000000001,-0.298981,-0.001929,-0.011028
615,0.735904,0.209811,-0.643756,0.4129609999999999,-0.25809,0.04378
616,0.7052470000000001,0.229003,-0.670956,0.510177,-0.512252,0.300045
617,0.686343,0.265926,-0.6769149999999999,0.469999,-0.173427,0.191609
618,0.683528,0.300981,-0.664979,0.815617,0.299971,-0.5661010000000001
619,0.681595,0.319423,-0.658327,0.454895,1.456792,-0.162672
620,0.678184,0.355401,-0.6432359999999999,-0.495704,0.8535520000000001,-0.2035809999999999
621,0.6836840000000001,0.404879,-0.607161,-0.770202,-0.275393,0.811904
622,0.700991,0.44883,-0.5542199999999999,-0.187777,0.51371,-0.020594
623,0.718436,0.488145,-0.495538,-0.14025,0.7054729999999999,-0.130988
624,0.724101,0.534423,-0.435964,-0.174128,0.6482399999999999,0.059423
625,0.7167020000000001,0.582993,-0.382689,-0.393018,0.417892,0.108016
626,0.70449,0.626666,-0.333132,-0.384254,0.161908,0.183855
627,0.691909,0.662709,-0.286483,-0.239058,0.105419,0.247604
628,0.673399,0.698019,-0.243508,-0.251447,0.084894,0.207559
629,0.646277,0.735157,-0.204604,-0.164099,0.039273,0.228683
630,0.608984,0.773567,-0.175284,-0.035559,0.04647,0.194541
631,0.564925,0.809882,-0.157932,0.09636,0.202065,0.095997
632,0.526931,0.837838,-0.1427,0.202363,0.180548,0.100219
633,0.50415,0.854425,-0.125632,0.166825,-0.126474,0.185538
634,0.492987,0.8634850000000001,-0.106539,-0.014303,-0.388662,0.01427
635,0.4889989999999999,0.8679790000000001,-0.0865129999999999,-0.293351,-0.47476,-0.14037
636,0.4826899999999999,0.8729290000000001,-0.070687,-0.272638,-0.543293,-0.051292
637,0.478242,0.876555,-0.0541009999999999,0.000197,-0.503112,-0.038733
638,0.479302,0.876835,-0.037709,0.083686,-0.430485,-0.022731
639,0.481566,0.8758030000000001,-0.032492,-0.123716,-0.241694,-0.219965
640,0.479203,0.8769309999999999,-0.0367399999999999,-0.18686,-0.232033,-0.024219
641,0.474067,0.879654,-0.0382399999999999,-0.259254,-0.113129,-0.112303
642,0.4607989999999999,0.886609,-0.039781,-0.454741,0.310153,-0.044707
643,0.435005,0.8995860000000001,-0.038838,-0.581124,0.8660389999999999,0.248403
644,0.392502,0.919311,-0.0283269999999999,-0.1355589999999999,1.040665,-0.033655
645,0.345307,0.938455,-0.007666,0.55838,0.908759,-0.200892
646,0.303689,0.952679,0.012975,0.8493870000000001,1.285251,-0.086751
647,0.262946,0.964408,0.0277639999999999,0.677834,1.425134,-0.1219869999999999
648,0.2228099999999999,0.974142,0.037372,0.19847,0.82226,-0.062488
649,0.188891,0.980796,0.0485019999999999,-0.0128199999999999,0.077446,-0.051737
650,0.160937,0.984881,0.06406,-0.001712,-0.514223,-0.0606419999999999
651,0.149127,0.986008,0.0744539999999999,0.421231,-0.574357,-0.080939
652,0.164317,0.984061,0.067958,0.598333,-0.471427,-0.1174109999999999
653,0.206379,0.97725,0.048831,0.5888180000000001,-0.3817,-0.0878169999999999
654,0.272296,0.961987,0.020733,0.304913,-0.201337,0.061161
655,0.347701,0.937544,-0.010483,-0.071319,-0.094542,0.185043
656,0.413217,0.909776,-0.039425,-0.3438199999999999,0.056502,0.02087
657,0.461701,0.8843290000000001,-0.069208,-0.4670109999999999,0.2038819999999999,-0.178259
658,0.5073439999999999,0.8562420000000001,-0.097197,-0.5040939999999999,0.286306,-0.075441
659,0.562966,0.817786,-0.119546,-0.1154559999999999,0.332117,0.1250089999999999
660,0.631881,0.762157,-0.140848,0.262315,0.629628,0.099145
661,0.71022,0.687921,-0.149491,0.043198,0.716727,-0.256103
662,0.7750819999999999,0.606492,-0.177231,-0.069119,0.334701,-0.194152
663,0.828084,0.514199,-0.22332,0.122676,0.463325,-0.183479
664,0.8647040000000001,0.4139739999999999,-0.284446,0.622159,0.682584,-0.247216
665,0.8652120000000001,0.33223,-0.375537,0.222877,0.487854,0.1263
666,0.837146,0.2777409999999999,-0.4712149999999999,0.06796,0.585953,0.129083
667,0.793499,0.2494739999999999,-0.555086,-0.0250349999999999,0.117622,0.35991
668,0.7543770000000001,0.246492,-0.608404,-0.187467,-0.082521,0.226125
669,0.7276199999999999,0.27007,-0.630578,-0.4755149999999999,-0.389683,0.371316
670,0.708811,0.312756,-0.6322720000000001,-0.4616949999999999,-0.7209899999999999,0.501199
671,0.702377,0.3674219999999999,-0.609644,-0.695968,-0.840032,0.519022
672,0.698838,0.433961,-0.568595,-1.160203,-0.961244,0.707206
673,0.68984,0.5057020000000001,-0.518057,-1.262838,-0.80189,0.115438
674,0.687013,0.529713,-0.497407,0.949751,1.190044,0.82271
675,0.706903,0.546063,-0.449556,-1.251138,0.666263,-0.467757
676,0.714281,0.56629,-0.411236,-0.4645399999999999,0.8277680000000001,0.243786
677,0.715924,0.5996130000000001,-0.357651,-0.730984,0.011548,0.526626
678,0.714055,0.6343409999999999,-0.296196,-0.589971,-0.212817,0.215691
679,0.710272,0.662301,-0.2384659999999999,-0.235663,0.204489,-0.010008
680,0.694281,0.694801,-0.187674,-0.17478,0.626992,-0.047143
681,0.666076,0.7314109999999999,-0.146205,-0.20642,0.468296,-0.039342
682,0.638493,0.76102,-0.114764,-0.272099,0.108975,-0.007382
683,0.6150939999999999,0.784423,-0.079587,-0.328351,0.080704,0.119901
684,0.590752,0.805921,-0.038697,-0.325874,0.046557,0.156617
685,0.56238,0.826875,0.000798,-0.270815,-0.021318,0.108592
686,0.530362,0.8469270000000001,0.037745,-0.229153,0.119794,0.099661
687,0.493418,0.866726,0.072933,-0.182688,0.178242,0.131901
688,0.456125,0.8840290000000001,0.102157,-0.071726,-0.040767,0.075958
689,0.425986,0.896432,0.122227,-0.006141,-0.338967,0.202175
690,0.406566,0.903334,0.136695,-0.098934,-0.320967,0.246407
691,0.393104,0.906067,0.1565369999999999,-0.247307,-0.305924,0.17435
692,0.386397,0.904119,0.18237,-0.5233140000000001,-0.1323599999999999,-0.002148
693,0.383078,0.8992479999999999,0.211179,-0.519995,-0.127489,-0.030957
694,0.373141,0.896912,0.237289,-0.533572,-0.088532,-0.1242359999999999
695,0.351367,0.901292,0.253387,-0.002688,0.062697,-0.198532
696,0.327213,0.907643,0.262882,0.240902,0.016673,-0.137104
697,0.312859,0.910384,0.270762,0.325783,-0.067473,-0.097849
698,0.304787,0.90985,0.281547,0.141761,-0.181563,-0.159553
699,0.297754,0.908529,0.293103,0.136053,-0.127431,-0.2080199999999999
700,0.291715,0.906953,0.303858,0.163103,-0.099076,-0.227762
701,0.288075,0.905814,0.310652,0.116329,0.004586,-0.234983
702,0.2862969999999999,0.904964,0.314745,0.064304,0.021504,-0.210742
703,0.285168,0.903832,0.318997,-0.021878,-0.028877,-0.146405
704,0.283065,0.90358,0.3215719999999999,0.073899,-0.077012,-0.08706
705,0.2823469999999999,0.901482,0.328027,0.138048,-0.032982,-0.101739
706,0.291121,0.921869,0.255731,0.022325,0.216101,-0.078943
707,0.304553,0.916796,0.258308,0.038709,0.360379,-0.113441
708,0.330804,0.909991,0.249952,0.039511,0.472288,-0.010526
709,0.3677269999999999,0.902766,0.223117,-0.039876,0.4532359999999999,-0.155825
710,0.407053,0.8952959999999999,0.180955,-0.408671,0.382613,-0.200792
711,0.438274,0.886742,0.146952,-0.628139,0.7392340000000001,-0.3805489999999999
712,0.467704,0.87651,0.1139029999999999,-0.698264,0.8214110000000001,-0.435299
713,0.501683,0.862334,0.068461,-0.760564,0.740556,-0.169322
714,0.526709,0.8498180000000001,0.019451,-0.778266,0.6545,0.01189
715,0.544395,0.8384950000000001,-0.02352,-0.448798,0.378577,-0.036172
716,0.566688,0.821567,-0.0623299999999999,-0.12043,0.133893,0.0547919999999999
717,0.594974,0.7981590000000001,-0.094562,-0.040256,0.033156,0.2095219999999999
718,0.62551,0.77076,-0.1210789999999999,-0.08158,-0.055656,0.07251
719,0.650565,0.743621,-0.154226,-0.276328,-0.06488,-0.081538
720,0.665578,0.719076,-0.199821,-0.4125569999999999,-0.177359,0.153205
721,0.6715260000000001,0.699823,-0.243503,-0.464633,-0.276468,0.243808
722,0.670134,0.688046,-0.278402,-0.45648,-0.306988,0.264364
723,0.6643720000000001,0.684854,-0.299297,-0.487691,-0.405069,0.27676
724,0.657637,0.689859,-0.302661,-0.562315,-0.4935239999999999,0.193576
725,0.65147,0.701967,-0.2877909999999999,-0.503307,-0.429934,0.092264
726,0.644135,0.7194560000000001,-0.259746,-0.2701719999999999,-0.401005,-0.029897
727,0.6329140000000001,0.7409819999999999,-0.224409,-0.018473,-0.4322359999999999,-0.232958
728,0.61759,0.764538,-0.184547,0.246806,-0.416043,-0.5082479999999999
729,0.601558,0.7853680000000001,-0.146009,0.66805,-0.0505199999999999,-0.801715
730,0.589787,0.797327,-0.128114,1.005413,0.803838,-0.8996870000000001
731,0.591909,0.794337,-0.136619,0.5803020000000001,1.069448,-0.73568
732,0.603797,0.7830189999999999,-0.149341,0.0208819999999999,0.225801,-0.428052
733,0.618491,0.774062,-0.135236,-0.359427,0.307054,0.151289
734,0.619378,0.781468,-0.075293,-0.936685,0.594386,0.033499
735,0.592746,0.8053779999999999,-0.002907,-1.198444,1.099026,-0.249275
736,0.553495,0.832839,-0.003647,-1.104368,1.228502,-1.427337
737,0.532655,0.8461559999999999,-0.016998,-0.433122,-0.167872,0.44223
738,0.5143770000000001,0.8575510000000001,0.003512,-0.5161319999999999,-0.238242,0.674848
739,0.492329,0.8698030000000001,0.032326,-0.5352819999999999,-0.1933349999999999,0.6482319999999999
740,0.467233,0.8816309999999999,0.066402,-0.5070439999999999,0.0931309999999999,0.536945
741,0.442612,0.890926,0.101658,-0.34076,0.417729,0.361263
742,0.424104,0.8941049999999999,0.143878,-0.239671,0.330504,0.255994
743,0.40415,0.892677,0.199444,-0.14472,0.038796,0.248554
744,0.37976,0.8880040000000001,0.259264,-0.005737,0.028301,0.103407
745,0.3541539999999999,0.881058,0.313525,0.116503,0.0466769999999999,-0.070514
746,0.332973,0.8797809999999999,0.339265,0.139302,-0.110997,-0.246644
747,0.317088,0.8808159999999999,0.351574,0.315297,0.08917,-0.008343
748,0.298189,0.8788370000000001,0.3724429999999999,0.457258,0.160607,0.006692
749,0.28526,0.873301,0.394915,0.476703,-0.310984,-0.220842
750,0.281545,0.8651770000000001,0.4149529999999999,0.414256,-0.4147229999999999,-0.307531
751,0.282436,0.856656,0.4316899999999999,0.269185,-0.461514,-0.423801
752,0.282158,0.8495809999999999,0.445627,0.1157609999999999,-0.137179,-0.391596
753,0.278857,0.844774,0.456707,0.1191069999999999,0.0230849999999999,-0.390179
754,0.271119,0.841234,0.467767,0.148071,0.37535,-0.446557
755,0.259548,0.839276,0.4777409999999999,0.160374,0.287479,-0.62157
756,0.2448989999999999,0.842197,0.480326,0.103917,-0.006885,-0.574427
757,0.230763,0.848182,0.476782,0.167202,0.065026,-0.315389
758,0.216442,0.8554440000000001,0.470484,0.169574,0.5947060000000001,-0.399683
759,0.198639,0.8626219999999999,0.465202,0.061325,0.5235479999999999,-0.297172
760,0.177851,0.869761,0.4602949999999999,0.15447,0.265676,-0.3160239999999999
761,0.157038,0.8754350000000001,0.457099,0.371648,0.325905,-0.19744
762,0.140098,0.880494,0.452868,0.4516229999999999,0.621596,-0.277254
763,0.128328,0.887793,0.441975,0.312452,0.484292,-0.470647
764,0.12049,0.8964620000000001,0.42641,0.28898,0.191657,-0.476443
765,0.1173309999999999,0.902071,0.415318,0.47268,-0.288134,-0.418523
766,0.13316,0.903094,0.40826,0.735965,-0.245761,-0.190426
767,0.166537,0.903572,0.394729,0.547604,-0.081916,-0.2393489999999999
768,0.2106849999999999,0.906369,0.366189,0.112633,0.034213,-0.378274
769,0.261181,0.908216,0.326981,-0.035336,0.401431,-0.381211
770,0.317146,0.904722,0.284405,-0.031455,0.578158,-0.398846
771,0.368397,0.898803,0.237539,-0.027287,0.94899,-0.378515
772,0.413313,0.890809,0.188737,0.0164349999999999,0.709869,-0.236771
773,0.476934,0.866809,0.1454869999999999,0.548564,0.683926,-0.28779
774,0.576623,0.809373,0.111404,1.037268,1.1935870000000002,-0.6965939999999999
775,0.678686,0.731052,0.070274,1.079966,1.555202,-0.7462989999999999
776,0.749873,0.6614770000000001,0.011445,1.088491,1.247276,-0.128114
777,0.8092560000000001,0.583346,-0.06931,0.631646,0.8697790000000001,-0.359614
778,0.8376319999999999,0.522354,-0.159725,0.952468,1.0336459999999998,-0.297352
779,0.8337690000000001,0.482475,-0.268402,-0.245665,0.140205,0.2513579999999999
780,0.804195,0.466533,-0.368253,-0.911801,-0.631084,0.5653199999999999
781,0.770686,0.475091,-0.4246479999999999,-1.46432,-0.344613,0.999767
782,0.749308,0.5024430000000001,-0.431374,-2.067683,-0.6306930000000001,1.507256
783,0.744207,0.5453939999999999,-0.385611,-1.863058,-1.198211,1.139944
784,0.736829,0.598286,-0.314851,-1.493848,-0.877338,0.42595
785,0.717914,0.651721,-0.2446469999999999,-0.88689,-0.396319,0.200794
786,0.689616,0.7008909999999999,-0.182137,-0.486171,-0.251382,0.1189809999999999
787,0.671563,0.7342270000000001,-0.099524,0.496589,0.784144,1.14385
788,0.643385,0.765113,-0.025474,-0.007094,0.564233,-0.7227100000000001
789,0.606061,0.795272,-0.0149139999999999,0.092746,0.418534,-0.55752
790,0.57258,0.819838,0.002925,-0.023828,0.068254,-0.265239
791,0.536077,0.844045,0.014111,-0.391759,-0.511846,0.148578
792,0.482443,0.8756079999999999,0.023419,-0.267569,-0.329725,0.256503
793,0.404217,0.913982,0.035155,-0.08691,0.014577,0.233476
794,0.3396079999999999,0.938974,0.054616,0.672706,1.684622,-0.169896
795,0.30833,0.94689,0.091209,1.338933,0.944803,0.3771739999999999
796,0.272972,0.95298,0.13154,0.643288,1.03933,-0.6510560000000001
797,0.2214989999999999,0.960016,0.171155,0.694654,1.004522,-0.231717
798,0.167215,0.963681,0.208194,0.553504,0.782321,-0.553088
799,0.115494,0.964093,0.2391059999999999,0.605911,0.625598,-0.667161
800,0.071249,0.962336,0.262333,0.232828,-0.070811,-0.618718
801,0.032905,0.96131,0.273473,0.220971,-0.925619,-0.567815
802,0.014543,0.962833,0.269682,0.591399,-1.047702,-0.670927
803,0.022633,0.967754,0.250852,0.73074,-1.132549,-0.537183
804,0.0514049999999999,0.973249,0.223901,0.6284810000000001,-1.123304,-0.397775
805,0.091515,0.977043,0.192354,0.249931,-1.076484,-0.199633
806,0.14267,0.977588,0.154775,-0.128967,-0.8442870000000001,0.176234
807,0.211802,0.971152,0.1095059999999999,-0.206614,-0.4335699999999999,-0.088114
808,0.280922,0.956358,0.080321,0.099525,0.845095,-0.305861
809,0.340188,0.938008,0.06635,0.118048,2.213832,0.053126
810,0.381717,0.922753,0.052985,-0.2471949999999999,2.26525,0.04815
811,0.416922,0.908544,0.0267089999999999,-0.457068,0.289149,-0.162375
812,0.467309,0.8840790000000001,0.004059,-0.239434,0.1112359999999999,-0.035813
813,0.537642,0.842949,-0.019196,0.5218520000000001,0.425133,-0.042419
814,0.604627,0.7953819999999999,-0.042243,-0.042249,0.090696,-0.320596
815,0.663136,0.744221,-0.079851,-0.144719,-0.049748,-0.179365
816,0.711588,0.687394,-0.145339,-0.5028630000000001,-0.120057,0.05873
817,0.7419899999999999,0.629953,-0.229352,-0.648332,-0.5582520000000001,0.201215
818,0.7524270000000001,0.578163,-0.315554,-0.731156,-0.591484,0.390063
819,0.754106,0.533601,-0.382868,-1.201066,-0.4236,0.714793
820,0.755322,0.497184,-0.426955,-1.061169,-0.491065,0.498183
821,0.7586149999999999,0.466891,-0.454433,-0.742685,-0.371066,0.172543
822,0.761266,0.440072,-0.4762399999999999,-0.389669,-0.297494,-0.099993
823,0.7606149999999999,0.416396,-0.498071,-0.09289,-0.314772,-0.210623
824,0.753798,0.406091,-0.516598,0.304628,-0.373483,0.120663
825,0.7410640000000001,0.413514,-0.528985,0.680292,-0.32393,-0.157264
826,0.7193039999999999,0.4337149999999999,-0.542669,0.635738,-0.197692,-0.310435
827,0.700403,0.46321,-0.543017,0.542608,-0.171813,-0.288328
828,0.689168,0.500388,-0.5240739999999999,0.195002,0.584359,-0.929539
829,0.679726,0.5232439999999999,-0.513988,0.931511,1.328135,-0.820118
830,0.671516,0.5578890000000001,-0.48767,-0.430747,0.084232,0.352538
831,0.659617,0.605592,-0.4451479999999999,-0.7851819999999999,-0.373827,0.359134
832,0.652003,0.647043,-0.3952489999999999,-0.496134,-0.1239869999999999,0.1124569999999999
833,0.650632,0.679628,-0.338788,-0.244092,0.372984,-0.248966
834,0.641846,0.7124119999999999,-0.2837179999999999,-0.102448,0.376104,-0.09174
835,0.625333,0.744757,-0.2329969999999999,-0.116223,0.166375,0.062724
836,0.6022,0.775042,-0.19146,-0.151928,-0.061907,0.024224
837,0.5759989999999999,0.801561,-0.160363,-0.1389109999999999,-0.387193,-0.016273
838,0.551071,0.824197,-0.130423,-0.174515,-0.477838,-0.002618
839,0.524886,0.844827,-0.103692,-0.038131,-0.2589349999999999,-0.0085209999999999
840,0.494129,0.866059,-0.075954,0.001614,-0.141327,-0.075963
841,0.452164,0.890567,-0.0492779999999999,0.0031739999999999,-0.038928,-0.048623
842,0.398501,0.916515,-0.034436,0.08743,0.3488199999999999,0.0571259999999999
843,0.34438,0.938579,-0.02145,0.353588,0.679264,-0.1001929999999999
844,0.304255,0.952566,-0.006007,0.8153739999999999,0.999858,-0.200933
845,0.281314,0.959384,0.020789,0.3024719999999999,0.62695,-0.093024
846,0.248782,0.966739,0.059251,-0.186908,0.978497,-0.47136
847,0.196037,0.975524,0.099549,0.505821,0.989167,-0.0365
848,0.148796,0.979023,0.139146,0.968895,0.8681450000000001,-0.136598
849,0.10126,0.981078,0.164983,0.617047,0.602388,-0.350851
850,0.059585,0.981658,0.181065,0.447403,0.363267,-0.530613
851,0.015596,0.98093,0.1937,0.197157,-0.215213,-0.652562
852,-0.02725,0.979122,0.201402,0.463971,-0.8376889999999999,-0.5289020000000001
853,-0.0551059999999999,0.977835,0.201963,0.715827,-1.344885,-0.473355
854,-0.056338,0.979114,0.195318,0.790682,-1.355853,-0.53475
855,-0.032479,0.983412,0.178415,0.618462,-1.315352,-0.486795
856,0.01269,0.989356,0.144916,0.156606,-0.910987,-0.212665
857,0.071544,0.990696,0.115715,0.099843,-0.68169,-0.064736
858,0.1363349999999999,0.985333,0.102564,0.10277,-0.4125939999999999,0.181738
859,0.2043319999999999,0.974626,0.09132,-0.0463579999999999,0.240263,-0.150845
860,0.2661489999999999,0.960977,0.07534,-0.281407,1.052161,-0.516945
861,0.310775,0.948693,0.05821,-0.221633,0.80796,-0.471281
862,0.356544,0.933413,0.04005,0.130959,0.221906,-0.324901
863,0.417677,0.908456,0.01555,0.372347,0.326728,-0.26465
864,0.4899689999999999,0.8714870000000001,-0.020692,0.627768,0.542514,-0.308882
865,0.567134,0.8220790000000001,-0.0503399999999999,0.70168,0.685489,-0.126005
866,0.637868,0.766509,-0.074684,0.377025,0.808976,-0.373604
867,0.700731,0.703412,-0.11907,0.407011,1.107425,-0.300791
868,0.752321,0.635357,-0.174142,0.3481889999999999,1.281391,-0.5083529999999999
869,0.782072,0.574671,-0.241055,0.688311,1.007055,-0.106357
870,0.787493,0.527958,-0.317973,0.248991,0.244411,0.1100569999999999
871,0.776746,0.497637,-0.386024,-0.128721,0.233351,0.161079
872,0.756158,0.484738,-0.4395989999999999,-0.3048329999999999,-0.016034,0.2113739999999999
873,0.7309939999999999,0.495011,-0.4696869999999999,-0.665045,-0.647614,0.490347
874,0.706856,0.524412,-0.4747,-0.78164,-0.691724,0.6531359999999999
875,0.685569,0.564208,-0.460064,-0.920081,-1.010405,0.936199
876,0.670299,0.6110909999999999,-0.421022,-0.97166,-1.173042,0.915452
877,0.6481600000000001,0.6615810000000001,-0.377084,-1.049344,-1.185796,0.274286
878,0.626129,0.703778,-0.335633,-0.457657,-0.424649,-0.337386
879,0.629238,0.715484,-0.303535,0.5451550000000001,0.4521189999999999,-1.181054
880,0.65997,0.71506,-0.230477,1.355106,0.690717,0.34237
881,0.660514,0.7282,-0.182856,-0.233618,0.4117989999999999,-0.345525
882,0.6467649999999999,0.7498520000000001,-0.139311,-0.18154,0.186351,0.106306
883,0.631324,0.769756,-0.094313,-0.174125,0.078907,0.336317
884,0.6144390000000001,0.7866989999999999,-0.059646,-0.312346,0.043608,-0.190323
885,0.58915,0.80755,-0.027447,-0.32821,0.223227,-0.169163
886,0.555022,0.8317680000000001,0.010012,-0.322234,0.373051,-0.193239
887,0.514705,0.855941,0.049308,-0.050136,0.2670909999999999,-0.005668
888,0.464462,0.8809049999999999,0.090928,0.118622,0.282959,0.0267019999999999
889,0.411717,0.901549,0.132982,0.26533,0.304231,0.034941
890,0.369723,0.914036,0.16682,0.219754,0.237576,-0.174694
891,0.32868,0.924396,0.193511,0.118692,0.114575,-0.11595
892,0.283153,0.936006,0.20905,0.100301,0.00247,-0.136815
893,0.242265,0.946645,0.2125,0.222503,-0.045049,-0.181784
894,0.214963,0.951686,0.2192489999999999,0.305255,-0.293071,-0.067959
895,0.194122,0.953534,0.23038,0.008347,-0.5404939999999999,0.064603
896,0.173122,0.953729,0.2457949999999999,-0.133144,-0.50979,-0.013022
897,0.154172,0.951478,0.266281,-0.1264009999999999,-0.442399,-0.086914
898,0.135224,0.947993,0.288112,0.061889,-0.249491,-0.233532
899,0.11702,0.94453,0.306844,0.100876,-0.232952,-0.2276969999999999
900,0.0986679999999999,0.940117,0.326235,0.097728,-0.206749,-0.252169
901,0.07957,0.934948,0.345725,0.006948,-0.093166,-0.423117
902,0.057484,0.932725,0.355954,0.038463,-0.058182,-0.3858
903,0.030041,0.934085,0.3557599999999999,0.098804,-0.051135,-0.32866
904,0.0033759999999999,0.936224,0.351365,0.308026,-0.192754,-0.228242
905,-0.014953,0.937371,0.347986,0.427063,-0.15928,-0.173975
906,-0.0267899999999999,0.938209,0.345005,0.5504100000000001,-0.08271,-0.145816
907,-0.0311459999999999,0.938438,0.344016,0.695635,0.033013,-0.262442
908,-0.0241389999999999,0.938559,0.3442469999999999,0.555496,0.163141,-0.247324
909,-0.001555,0.937915,0.346837,0.3488449999999999,0.4948399999999999,-0.01209
910,0.033877,0.940318,0.338581,0.246152,0.524404,-0.0970039999999999
911,0.075169,0.948244,0.3084909999999999,0.098735,0.281889,-0.405109
912,0.116048,0.958818,0.259198,-0.125615,0.305388,-0.340619
913,0.147351,0.967666,0.204684,-0.266415,0.6740729999999999,-0.428546
914,0.183222,0.972349,0.144747,-0.47993,0.644594,-0.3322469999999999
915,0.227719,0.969749,0.08784,-0.649564,0.67614,-0.164164
916,0.263278,0.964224,0.0307,-0.5569189999999999,0.6763859999999999,-0.070663
917,0.288065,0.957166,-0.028961,-0.179072,0.215259,-0.020828
918,0.3138829999999999,0.946153,-0.079124,0.049322,-0.027055,0.241218
919,0.345827,0.931276,-0.1145289999999999,0.045866,-0.2458969999999999,0.414272
920,0.383682,0.912885,-0.139349,0.035523,-0.389356,0.1170099999999999
921,0.418855,0.893875,-0.1598,-0.020555,-0.364181,-0.0065819999999999
922,0.443558,0.8767229999999999,-0.186018,-0.095444,-0.347319,0.0066359999999999
923,0.458876,0.863318,-0.210009,-0.304106,-0.459052,0.174456
924,0.463776,0.857044,-0.224448,-0.309006,-0.4527779999999999,0.188895
925,0.459258,0.8594040000000001,-0.224714,-0.282759,-0.586959,0.168272
926,0.443184,0.871589,-0.209548,-0.071251,-0.6698529999999999,-0.153825
927,0.411362,0.893582,-0.179668,0.065521,-0.690457,-0.27831
928,0.363717,0.920414,-0.1433029999999999,0.245078,-0.672367,-0.370689
929,0.322451,0.93965,-0.114329,1.361936,0.446626,-0.236165
930,0.314273,0.944965,-0.090893,1.373746,1.003216,-0.445377
931,0.326042,0.941793,-0.081916,1.015023,0.8837229999999999,-0.732445
932,0.33713,0.939012,-0.06773,-0.154223,0.464156,0.193875
933,0.329763,0.943467,-0.03337,-0.458501,0.665954,-0.113222
934,0.310342,0.950572,-0.009267,-0.8352450000000001,1.203725,-0.251963
935,0.289091,0.957045,-0.021852,-0.723661,0.501146,-0.507109
936,0.27254,0.961649,-0.030628,-0.225986,-0.541697,0.4525479999999999
937,0.26033,0.964983,-0.031957,-0.198715,-0.391802,0.503729
938,0.2449719999999999,0.969174,-0.025994,-0.291939,-0.164578,0.567025
939,0.225405,0.974173,-0.012872,-0.2359949999999999,0.136377,0.536493
940,0.204016,0.97887,0.0132319999999999,-0.0557919999999999,0.1801569999999999,0.252057
941,0.183297,0.981257,0.059337,-0.004784,-0.086238,0.167133
942,0.167518,0.979887,0.108365,0.017205,-0.207884,0.106555
943,0.16359,0.976569,0.13977,0.211577,-0.255774,-0.290069
944,0.165316,0.975221,0.1469619999999999,0.2153449999999999,-0.125871,-0.194066
945,0.165692,0.974945,0.148363,0.283145,0.032532,-0.011812
946,0.1660829999999999,0.974776,0.149035,0.487695,-0.080535,-0.109789
947,0.165979,0.97473,0.149452,0.515173,-0.165221,-0.099205
948,0.163917,0.974659,0.152168,0.4999619999999999,-0.3396639999999999,-0.071846
949,0.160999,0.973911,0.159877,0.343517,-0.316471,-0.0554
950,0.155921,0.972267,0.174267,0.349786,-0.26841,-0.083538
951,0.151613,0.969863,0.190692,0.411787,-0.153411,-0.174548
952,0.152766,0.966583,0.205826,0.160527,-0.157027,-0.232727
953,0.1582849999999999,0.963751,0.2147389999999999,-0.081442,-0.0937559999999999,-0.281161
954,0.162704,0.963304,0.213438,-0.007888,0.0919929999999999,-0.131635
955,0.1663069999999999,0.964153,0.206726,0.279844,0.303853,0.025299
956,0.17392,0.965035,0.196067,0.212173,0.263892,0.135263
957,0.194161,0.964725,0.17774,0.096367,0.410641,-0.056982
958,0.2270579999999999,0.962036,0.151381,0.231728,0.587464,-0.3024739999999999
959,0.267459,0.958268,0.100859,0.353116,0.346038,-0.365477
960,0.313702,0.948599,0.041674,0.081149,0.455546,-0.2100699999999999
961,0.362859,0.931801,-0.008103,-0.103063,0.68383,-0.232665
962,0.408151,0.910975,-0.059364,-0.4146359999999999,0.644887,0.000816
963,0.447067,0.8872209999999999,-0.11383,-0.400833,0.493699,0.100601
964,0.481318,0.860176,-0.168575,-0.262446,0.341133,0.179805
965,0.5210600000000001,0.824829,-0.2194159999999999,0.261136,0.250748,0.186136
966,0.5709930000000001,0.775354,-0.269784,0.211203,0.300223,0.236504
967,0.61042,0.717481,-0.335557,0.119835,0.5351899999999999,0.167176
968,0.632309,0.6599119999999999,-0.405823,-0.621536,-0.014283,0.456283
969,0.637842,0.607341,-0.473589,-0.377527,-0.181667,0.638414
970,0.635392,0.564236,-0.527169,-0.470521,-0.382855,0.456308
971,0.628916,0.5304260000000001,-0.5684239999999999,-0.362773,-0.394669,0.46468
972,0.615946,0.512987,-0.59787,-0.3407239999999999,-0.6345689999999999,0.504196
973,0.605518,0.51036,-0.610635,-0.162128,-0.661315,0.330056
974,0.60515,0.514779,-0.607282,0.126387,-0.5356529999999999,-0.102862
975,0.604201,0.5216270000000001,-0.602363,0.4458479999999999,-0.369252,-0.334359
976,0.602205,0.5313140000000001,-0.5958600000000001,0.477965,-0.280246,-0.2055159999999999
977,0.606527,0.552778,-0.571451,0.072413,-0.251051,0.142465
978,0.612634,0.566559,-0.551075,0.179617,1.061431,-1.037853
979,0.629793,0.581455,-0.515038,0.244032,1.624829,0.381875
980,0.639458,0.613737,-0.463047,-0.518044,0.454668,0.4244729999999999
981,0.640825,0.645325,-0.415801,-0.937425,-0.022446,0.329437
982,0.639796,0.679581,-0.358917,-0.6943,0.223678,0.460266
983,0.631221,0.714863,-0.3008679999999999,-0.342922,0.485439,0.290278
984,0.616208,0.748184,-0.245961,0.032366,0.751938,0.241734
985,0.594242,0.7773979999999999,-0.2062,-0.097629,0.441658,0.191399
986,0.571348,0.801404,-0.17692,-0.150587,0.214725,0.204798
987,0.543704,0.824891,-0.154688,-0.153263,-0.058884,0.208811
988,0.507171,0.850289,-0.140619,0.145722,-0.0012439999999999,0.133218
989,0.473762,0.8715799999999999,-0.126038,0.577294,0.085543,0.144624
990,0.4581119999999999,0.881928,-0.11101,0.479357,-0.21666,0.160449
991,0.462437,0.8817459999999999,-0.093082,0.213863,-0.223879,0.355441
992,0.470516,0.8797719999999999,-0.067854,-0.381817,-0.1216839999999999,-0.081331
993,0.467609,0.882282,-0.0539269999999999,-0.4051389999999999,-0.171955,0.069933
994,0.464966,0.884445,-0.0393709999999999,-0.074722,-0.281037,0.056766
995,0.4692199999999999,0.88277,-0.02315,0.008853,-0.354877,-0.051039
996,0.472717,0.881114,-0.0128289999999999,0.043458,-0.300792,-0.163867
997,0.47406,0.8803979999999999,-0.012376,0.111755,-0.285702,-0.129195
998,0.477589,0.8784270000000001,-0.016178,0.022105,-0.44671,0.004917
999,0.4856189999999999,0.873973,-0.018215,-0.321603,-0.504039,-0.043598
1000,0.493253,0.8694780000000001,-0.026413,-0.32266,-0.334977,-0.289337
1001,0.499911,0.865417,-0.033629,-0.012194,-0.393829,0.057815
1002,0.50448,0.862554,-0.038582,-0.383478,-0.197881,-0.19741
1003,0.502635,0.863345,-0.044522,-0.288752,0.054456,-0.086185
1004,0.4937819999999999,0.868643,-0.040342,-0.368812,0.694712,0.25044
1005,0.472438,0.8808799999999999,-0.029006,-0.182338,1.114131,0.20523
1006,0.446451,0.8947579999999999,-0.0088069999999999,0.192266,1.443011,0.148944
1007,0.415491,0.909509,0.012176,0.594015,1.514915,-0.087936
1008,0.3764119999999999,0.925942,0.030558,0.992988,1.6955490000000002,-0.235469
1009,0.333525,0.941848,0.040878,0.8678299999999999,1.28415,-0.204467
1010,0.289608,0.95597,0.04729,0.332676,1.007836,-0.270969
1011,0.247692,0.967287,0.054688,0.145527,0.343473,-0.220673
1012,0.2082699999999999,0.976109,0.061827,0.153532,-0.324497,-0.275557
1013,0.17844,0.981908,0.063274,0.33862,-0.684315,-0.169338
1014,0.170681,0.983649,0.057349,0.5604439999999999,-0.6424479999999999,-0.2192599999999999
1015,0.191511,0.980788,0.036949,0.571489,-0.510634,-0.097008
1016,0.233548,0.972303,0.008352,0.374957,-0.505598,0.135187
1017,0.286049,0.957976,-0.021087,0.084297,-0.396544,0.209442
1018,0.343904,0.937345,-0.055699,-0.046083,-0.275922,-0.049114
1019,0.403012,0.910336,-0.0941159999999999,0.028827,0.004855,-0.552826
1020,0.463312,0.8755069999999999,-0.13718,0.035407,0.377972,-0.519772
1021,0.522043,0.832614,-0.184973,-0.00683,0.738492,-0.122598
1022,0.577422,0.781974,-0.234717,0.308931,0.936013,0.269431
1023,0.63847,0.717965,-0.277261,0.131962,0.4464479999999999,0.352472
1024,0.695124,0.6390560000000001,-0.329244,0.339589,0.425336,0.067846
1025,0.734405,0.5546300000000001,-0.391186,0.945038,0.611614,-0.207706
1026,0.742159,0.4746229999999999,-0.473208,0.841047,1.469652,-0.182355
1027,0.7238100000000001,0.394901,-0.565815,0.602056,1.139935,0.236104
1028,0.673942,0.329896,-0.661035,-0.030998,0.948516,0.4268119999999999
1029,0.610815,0.2947369999999999,-0.734869,-0.34458,0.224261,0.673513
1030,0.576735,0.294471,-0.762011,-0.351546,-0.297569,0.6556270000000001
1031,0.565096,0.323117,-0.759117,-0.774722,-0.3391079999999999,0.494301
1032,0.5651390000000001,0.367243,-0.738747,-1.103042,-0.6078439999999999,0.923104
1033,0.575996,0.419563,-0.7015640000000001,-0.957573,-0.898125,1.1075700000000002
1034,0.592967,0.481609,-0.645321,-0.81338,-0.991038,0.985287
1035,0.603478,0.541562,-0.585253,-0.939553,-0.7929350000000001,0.633608
1036,0.609614,0.572105,-0.548691,-0.452524,-0.1351089999999999,-0.016418
1037,0.6395460000000001,0.592114,-0.490282,0.257838,0.910938,0.542009
1038,0.6534760000000001,0.630897,-0.4182479999999999,-0.088154,0.534828,0.512516
1039,0.638179,0.662301,-0.392529,-0.479731,0.1819069999999999,0.247296
1040,0.622626,0.691357,-0.3665449999999999,-0.357688,0.069065,0.2079909999999999
1041,0.6028060000000001,0.724258,-0.334765,-0.3291699999999999,0.074402,0.230959
1042,0.5829810000000001,0.7523,-0.306874,-0.27541,-0.239376,0.4903909999999999
1043,0.5624020000000001,0.775948,-0.2856599999999999,-0.256372,-0.248269,0.487625
1044,0.525826,0.807405,-0.267573,-0.158654,0.418379,0.3365579999999999
1045,0.470583,0.8460610000000001,-0.250448,0.198789,1.426415,0.090139
1046,0.428674,0.8737959999999999,-0.229589,0.8487299999999999,1.416594,0.333898
1047,0.408046,0.890496,-0.201266,0.819616,0.782539,0.112201
1048,0.385531,0.907631,-0.16602,0.249387,0.99311,0.056157
1049,0.345129,0.930146,-0.125325,0.690103,0.986542,0.0507699999999999
1050,0.303744,0.948743,-0.087275,1.128812,0.7519859999999999,-0.093496
1051,0.260902,0.963641,-0.057595,0.96801,0.304715,-0.186637
1052,0.22221,0.97449,-0.031363,0.422795,0.073331,-0.245355
1053,0.188999,0.981843,-0.015976,-0.332859,-0.4997569999999999,-0.122193
1054,0.165068,0.986254,-0.006762,-0.3493489999999999,-1.062762,-0.22569
1055,0.161241,0.986872,-0.008738,0.271239,-1.223032,-0.4461569999999999
1056,0.183475,0.982541,-0.030688,0.4572569999999999,-1.254467,-0.521588
1057,0.226651,0.971998,-0.061979,0.25809,-1.017713,-0.194369
1058,0.277175,0.956485,-0.091124,-0.065886,-0.8418760000000001,0.1511819999999999
1059,0.325817,0.936556,-0.129228,-0.361141,-0.759325,0.365525
1060,0.372401,0.913319,-0.164799,-0.370723,-0.693974,0.205861
1061,0.426195,0.884266,-0.190856,0.058821,0.5367850000000001,-0.048845
1062,0.491072,0.845141,-0.211138,-0.020506,0.985425,0.05681
1063,0.5558960000000001,0.79966,-0.2269769999999999,0.061688,1.6522290000000002,-0.226255
1064,0.621955,0.7414470000000001,-0.251839,0.616372,1.224144,-0.289054
1065,0.691318,0.668176,-0.274981,0.708004,1.047293,-0.012327
1066,0.750202,0.593102,-0.292272,0.306591,1.094093,0.112447
1067,0.792272,0.515912,-0.325785,0.666529,1.391711,-0.171499
1068,0.811956,0.443416,-0.379614,0.872035,1.074605,-0.111276
1069,0.810791,0.377948,-0.446955,0.553329,0.913266,-0.009038
1070,0.783709,0.329669,-0.526418,0.085035,0.905469,0.3305099999999999
1071,0.740332,0.303014,-0.600074,-0.288779,0.097941,0.635047
1072,0.697245,0.30032,-0.650888,-0.14268,-0.258648,0.621133
1073,0.66976,0.323652,-0.6683319999999999,-0.568045,-0.569761,0.605359
1074,0.655928,0.358909,-0.664033,-0.900206,-0.611671,0.773042
1075,0.653181,0.397526,-0.644457,-1.169233,-0.826191,1.113177
1076,0.656668,0.445839,-0.608287,-1.150015,-0.930717,1.034907
1077,0.658393,0.50235,-0.5605,-1.256263,-0.8227389999999999,0.643706
1078,0.6607310000000001,0.5459069999999999,-0.515187,-0.827418,-0.45527,0.204335
1079,0.68871,0.5616140000000001,-0.458546,0.968974,0.8765879999999999,1.00536
1080,0.7246090000000001,0.5852470000000001,-0.363901,0.522233,0.850407,1.3035219999999998
1081,0.70804,0.614264,-0.34836,-0.358431,0.738336,0.1756609999999999
1082,0.689643,0.6368689999999999,-0.344653,-0.443839,-0.167356,0.239978
1083,0.6776409999999999,0.661284,-0.321716,-0.360914,-0.285277,0.389481
1084,0.65559,0.691679,-0.302948,-0.372829,-0.230803,0.5177609999999999
1085,0.6241439999999999,0.726395,-0.287731,-0.361952,0.481902,0.469143
1086,0.574581,0.7710670000000001,-0.274422,-0.036541,1.5732620000000002,-0.269081
1087,0.538281,0.802118,-0.2585639999999999,0.73154,1.3163200000000002,0.3277469999999999
1088,0.510591,0.8254370000000001,-0.24072,1.227492,0.917803,0.647458
1089,0.488535,0.84862,-0.2029119999999999,1.370718,0.528227,0.169769
1090,0.463991,0.870616,-0.163508,0.887709,1.162831,0.1050059999999999
1091,0.417332,0.898747,-0.134468,0.604137,1.068462,0.122155
1092,0.36757,0.923865,-0.106584,0.327971,0.4183439999999999,-0.053435
1093,0.317239,0.945005,-0.079496,0.127844,0.1147339999999999,-0.316104
1094,0.267059,0.962476,-0.04809,0.2113199999999999,-0.316328,-0.493918
1095,0.216561,0.975941,-0.025179,0.336707,-0.914387,-0.516706
1096,0.172919,0.984752,-0.018876,0.034997,-0.94752,-0.385741
1097,0.151036,0.988234,-0.024013,0.289425,-0.756666,-0.34702
1098,0.152977,0.987583,-0.035657,0.447609,-0.6359899999999999,-0.2968469999999999
1099,0.163063,0.985405,-0.048804,0.319634,-1.119225,-0.1206599999999999
1100,0.178421,0.982269,-0.05752,0.147537,-1.495529,-0.003195
1101,0.205604,0.976473,-0.064979,0.100975,-1.5963459999999998,0.297187
1102,0.248581,0.966296,-0.0668899999999999,-0.138489,-1.287219,0.275264
1103,0.3070489999999999,0.948687,-0.075556,-0.6984520000000001,-0.916933,0.225626
1104,0.367669,0.927273,-0.070558,-0.711846,-0.016797,0.029542
1105,0.4109109999999999,0.909447,-0.063659,-0.386054,0.437339,-0.018815
1106,0.4566149999999999,0.8873,-0.0647679999999999,-0.4184229999999999,1.938933,-0.22698
1107,0.502412,0.861151,-0.077433,-0.752504,1.68101,-0.383214
1108,0.55494,0.8278209999999999,-0.082145,-0.5188229999999999,0.944747,-0.343514
1109,0.6040770000000001,0.792936,-0.079608,-0.582379,1.404787,-0.283871
1110,0.6355310000000001,0.767895,-0.080198,-0.745028,1.766514,-0.159639
1111,0.6590050000000001,0.748213,-0.0767159999999999,-0.581505,1.333467,-0.094701
1112,0.6867340000000001,0.723308,-0.072223,-0.334683,0.698017,-0.339078
1113,0.7113649999999999,0.699281,-0.070434,-0.38591,0.473479,-0.217454
1114,0.726404,0.683474,-0.0720789999999999,-0.51864,0.2149329999999999,-0.031924
1115,0.732779,0.67552,-0.081867,-0.508017,-0.089018,0.005115
1116,0.733174,0.6720649999999999,-0.103823,-0.469075,-0.268379,0.143649
1117,0.730953,0.669986,-0.1297,-0.4133409999999999,-0.587497,0.145142
1118,0.7197319999999999,0.6764979999999999,-0.155987,-0.442556,-0.7324970000000001,0.042141
1119,0.700175,0.689895,-0.183834,-0.561305,-0.670043,-0.129887
1120,0.674967,0.706468,-0.212882,-0.57725,-0.53,0.035986
1121,0.647163,0.725156,-0.2352119999999999,-0.601676,-0.495175,0.237409
1122,0.620384,0.744408,-0.2469309999999999,-0.6360859999999999,-0.479195,0.250929
1123,0.595437,0.7638119999999999,-0.249081,-0.5449,-0.404208,0.149594
1124,0.5709890000000001,0.783697,-0.2445099999999999,-0.207997,-0.362952,-0.003811
1125,0.549855,0.803434,-0.228357,0.173717,-0.3417949999999999,-0.112692
1126,0.541033,0.817533,-0.197273,0.431592,-0.2484719999999999,-0.314003
1127,0.545034,0.8218280000000001,-0.165926,0.546,0.702846,-0.869916
1128,0.554177,0.8190029999999999,-0.14872,0.3080969999999999,0.713712,-1.002861
1129,0.56842,0.8114239999999999,-0.135958,-0.006164,0.225655,-0.465742
1130,0.580002,0.807496,-0.1074339999999999,-0.457337,-0.030366,-0.259036
1131,0.576148,0.814686,-0.065835,-0.7060609999999999,0.154293,0.000634
1132,0.544186,0.838933,-0.0068,-0.921368,0.56486,-0.164541
1133,0.491763,0.8700889999999999,0.033274,-1.286578,0.880857,-0.187204
1134,0.4470659999999999,0.894451,0.009049,-1.426603,0.912815,-0.748917
1135,0.426162,0.904585,-0.01024,-1.328078,0.062044,0.450502
1136,0.4181829999999999,0.90825,0.014029,-0.58011,0.014281,0.763498
1137,0.4011679999999999,0.914988,0.043052,-0.537902,-0.057108,0.748116
1138,0.384782,0.919542,0.079849,-0.579271,0.343473,1.230958
1139,0.3648969999999999,0.922065,0.128989,-0.410688,0.134728,0.757867
1140,0.340321,0.920975,0.1896769999999999,-0.057316,0.117202,0.573415
1141,0.306009,0.918793,0.249335,0.3263,0.1758569999999999,0.525644
1142,0.264201,0.915724,0.302716,0.5717369999999999,0.127702,0.128742
1143,0.2295829999999999,0.911206,0.342031,0.61757,-0.089673,-0.099844
1144,0.20699,0.909287,0.361028,0.536219,-0.0742039999999999,0.029795
1145,0.1872359999999999,0.908038,0.374699,0.545751,0.021558,-0.0288579999999999
1146,0.172969,0.905483,0.38752,0.515904,0.013768,-0.033929
1147,0.16171,0.902988,0.3980599999999999,0.385333,-0.120654,-0.155949
1148,0.146054,0.903811,0.402223,0.361697,-0.158464,-0.290711
1149,0.132949,0.905038,0.404003,0.537568,-0.2742699999999999,-0.1794089999999999
1150,0.123892,0.904495,0.408077,0.460657,-0.282181,-0.232678
1151,0.112273,0.904162,0.412159,0.0452129999999999,-0.048342,-0.349124
1152,0.096302,0.904468,0.415516,0.061184,-0.048648,-0.352482
1153,0.075044,0.904858,0.419034,0.074477,-0.125668,-0.353833
1154,0.050577,0.90335,0.4258989999999999,0.148016,-0.0147699999999999,-0.340251
1155,0.02455,0.901715,0.431621,0.085848,0.076495,-0.448741
1156,-0.0003,0.901797,0.432148,0.200388,0.177457,-0.413105
1157,-0.022406,0.904543,0.425781,0.362417,0.476377,-0.394485
1158,-0.041051,0.911025,0.410289,0.412801,0.670655,-0.413234
1159,-0.058296,0.91883,0.390311,0.5574720000000001,0.725167,-0.430274
1160,-0.074767,0.92508,0.372325,0.929336,0.547744,-0.399302
1161,-0.0839039999999999,0.929345,0.359538,0.720119,0.643683,-0.398875
1162,-0.084074,0.933442,0.348721,0.4617739999999999,0.750853,-0.4462859999999999
1163,-0.075266,0.939739,0.33349,0.477701,0.4677779999999999,-0.3284849999999999
1164,-0.057434,0.949132,0.30958,0.42627,0.198115,-0.303766
1165,-0.033157,0.959225,0.280674,0.373702,-0.031475,-0.274937
1166,-0.001124,0.967896,0.251332,0.282634,-0.14798,-0.175038
1167,0.041589,0.973299,0.2257219999999999,0.1901769999999999,-0.084887,-0.155074
1168,0.093169,0.974597,0.203649,0.074632,-0.020526,-0.191885
1169,0.150134,0.972042,0.180516,-0.0154139999999999,0.495228,-0.378605
1170,0.203903,0.966449,0.156177,-0.0827789999999999,0.6697810000000001,-0.346943
1171,0.249007,0.959846,0.129164,-0.237868,0.758355,-0.187224
1172,0.287428,0.952745,0.098253,-0.323271,0.491346,-0.065813
1173,0.332022,0.941289,0.0610649999999999,-0.224509,0.358577,-0.027755
1174,0.395682,0.91809,0.023229,0.126351,0.315003,-0.180974
1175,0.466284,0.8845059999999999,-0.014924,-0.016943,0.283524,-0.214598
1176,0.533824,0.8432290000000001,-0.06317,0.008886,0.172273,-0.143876
1177,0.593734,0.794998,-0.124306,-0.0115959999999999,0.109268,0.068749
1178,0.634112,0.744588,-0.208534,-0.220477,-0.017522,0.450462
1179,0.651844,0.695959,-0.301225,-0.374394,-0.202093,0.6084149999999999
1180,0.6553220000000001,0.652031,-0.381321,-0.599902,-0.4428939999999999,0.337177
1181,0.653189,0.6109020000000001,-0.447371,-0.6404479999999999,-0.168016,0.410948
1182,0.65241,0.571836,-0.497355,-0.7601829999999999,-0.279478,0.50854
1183,0.655072,0.535852,-0.532674,-0.6653560000000001,-0.349024,0.352528
1184,0.660465,0.5041180000000001,-0.556461,-0.6574439999999999,-0.4765149999999999,0.3624449999999999
1185,0.673004,0.475375,-0.566641,-0.62674,-0.465487,0.185476
1186,0.688472,0.4493569999999999,-0.569282,-0.4352979999999999,-0.47786,0.003868
1187,0.6985859999999999,0.429921,-0.571965,-0.275856,-0.482152,-0.078914
1188,0.698384,0.4175319999999999,-0.581313,0.1604259999999999,-0.436468,-0.201463
1189,0.687557,0.4132189999999999,-0.597087,0.489033,-0.099514,-0.3376659999999999
1190,0.6757989999999999,0.416958,-0.607815,0.779676,0.16666,-0.664859
1191,0.658768,0.433928,-0.614596,0.574645,0.3866739999999999,-0.904614
1192,0.637772,0.467762,-0.6119180000000001,0.451263,0.2933,-1.003209
1193,0.620269,0.509035,-0.596781,0.427125,-0.014956,-0.945745
1194,0.599996,0.552476,-0.578596,-0.070577,-0.087662,-0.402025
1195,0.583011,0.59513,-0.553096,-0.517475,0.034737,0.182232
1196,0.5705720000000001,0.6394770000000001,-0.515281,-0.499359,-0.0517539999999999,0.275596
1197,0.5593560000000001,0.6818420000000001,-0.471391,-0.406936,-0.108066,0.069887
1198,0.5537449999999999,0.71754,-0.422492,-0.3069949999999999,0.2243239999999999,-0.035454
1199,0.5493899999999999,0.7510359999999999,-0.366212,-0.165769,0.16353,0.002214
1200,0.5380590000000001,0.785926,-0.304646,-0.108204,0.073709,0.039754
1201,0.518897,0.8186899999999999,-0.2459449999999999,-0.046439,-0.028437,0.11092
1202,0.493237,0.847908,-0.194329,0.047275,-0.155007,0.0465019999999999
1203,0.4593489999999999,0.874084,-0.158022,-0.043837,-0.272628,-0.082594
1204,0.424256,0.896056,-0.130708,-0.0872049999999999,-0.276901,-0.1310869999999999
1205,0.386829,0.915995,-0.1063539999999999,-0.281696,-0.208582,0.114243
1206,0.336011,0.937406,-0.091437,-0.30557,-0.086286,0.271933
1207,0.267238,0.960452,-0.078162,0.1228369999999999,0.243558,-0.048364
1208,0.2159489999999999,0.975456,-0.0429579999999999,1.456308,1.294152,0.156926
1209,0.1938079999999999,0.981033,0.00264,1.322092,1.11818,-0.079301
1210,0.159058,0.986397,0.041414,0.195907,0.753944,-0.426226
1211,0.110527,0.990288,0.084296,0.8668600000000001,0.5014109999999999,-0.195639
1212,0.062849,0.99036,0.123402,1.001009,0.882915,-0.498021
1213,0.020219,0.986918,0.159923,0.719923,0.847448,-0.669276
1214,-0.019952,0.982163,0.186949,0.396905,0.081436,-0.437025
1215,-0.053573,0.978489,0.199199,0.394027,-0.848057,-0.509563
1216,-0.068825,0.978335,0.195231,0.7540520000000001,-1.218676,-0.549754
1217,-0.055763,0.983452,0.172348,0.812721,-1.124214,-0.416077
1218,-0.018256,0.990686,0.134904,0.6337189999999999,-1.034433,-0.304033
1219,0.040785,0.995379,0.086887,-0.063521,-0.545122,0.14732
1220,0.11039,0.992115,0.059272,0.102547,-0.098896,-0.109672
1221,0.183061,0.982318,0.039131,0.127593,0.462277,-0.182426
1222,0.253556,0.967274,0.009037,-0.254288,1.301082,-0.365757
1223,0.311121,0.950235,-0.015731,-0.448038,1.203573,-0.122514
1224,0.364486,0.930529,-0.035461,-0.502013,0.7905399999999999,0.053222
1225,0.424727,0.903871,-0.0511519999999999,-0.1162859999999999,0.486235,0.089879
1226,0.492633,0.867785,-0.065216,0.231,0.321439,-0.191727
1227,0.568734,0.817609,-0.089715,0.177955,0.273684,-0.165457
1228,0.63963,0.759785,-0.1165829999999999,0.003345,0.027339,-0.223597
1229,0.698116,0.698168,-0.1587059999999999,-0.22044,0.004438,-0.1089789999999999
1230,0.735799,0.638971,-0.224295,-0.7248439999999999,-0.272333,0.153143
1231,0.753088,0.584852,-0.30133,-0.820242,-0.431425,0.401336
1232,0.756939,0.53897,-0.3695239999999999,-1.19009,-0.665237,0.568118
1233,0.754834,0.501872,-0.422308,-1.214444,-0.598003,0.662024
1234,0.752954,0.471516,-0.459051,-0.863351,-0.318226,0.473684
1235,0.755153,0.446003,-0.480437,-0.62527,-0.225269,0.088714
1236,0.755313,0.4249439999999999,-0.4989189999999999,-0.4391199999999999,-0.2397639999999999,-0.179929
1237,0.745167,0.411627,-0.524675,0.02708,-0.39852,0.046098
1238,0.728942,0.410943,-0.547508,0.3850099999999999,-0.377617,0.109702
1239,0.713752,0.422256,-0.558796,0.8043140000000001,-0.3175659999999999,-0.339916
1240,0.7039340000000001,0.4398859999999999,-0.557649,0.756393,-0.229742,-0.4236439999999999
1241,0.688268,0.460531,-0.56053,0.75175,1.171641,-0.7599199999999999
1242,0.670499,0.489858,-0.557194,0.661608,1.105112,-0.669338
1243,0.657917,0.534148,-0.5308729999999999,-0.693684,-0.216033,0.242115
1244,0.649225,0.581643,-0.490095,-0.479577,0.12728,0.343336
1245,0.6446350000000001,0.623807,-0.441933,-0.296842,0.2750579999999999,0.125588
1246,0.6406069999999999,0.663535,-0.386443,-0.101682,0.332483,-0.141527
1247,0.629249,0.703785,-0.329735,-0.213661,0.2314409999999999,-0.118447
1248,0.6110140000000001,0.743197,-0.272602,-0.279197,0.063871,-0.052075
1249,0.588079,0.779432,-0.215961,-0.228307,-0.111403,-0.046094
1250,0.565118,0.809122,-0.161102,-0.130975,-0.2496739999999999,-0.03537
1251,0.538254,0.835716,-0.108868,-0.08432,-0.231178,0.048779
1252,0.50163,0.8627670000000001,-0.063173,-0.078427,-0.213048,0.0121319999999999
1253,0.454146,0.890501,-0.027363,-0.0155629999999999,-0.208784,-0.019451
1254,0.394572,0.91885,-0.004049,0.031835,-0.150067,-0.018488
1255,0.3345059999999999,0.942323,0.011062,0.173916,-0.1292579999999999,-0.081665
1256,0.300617,0.953325,0.0281,0.532436,0.012388,-0.16607
1257,0.2893429999999999,0.95615,0.045237,0.4211979999999999,-0.2793469999999999,-0.130839
1258,0.2872,0.955815,0.062634,0.148042,-0.4305,-0.178738
1259,0.285258,0.955584,0.073989,-0.222606,-0.422915,-0.265686
1260,0.278638,0.956852,0.082356,-0.128156,-0.460682,-0.194737
1261,0.274363,0.957416,0.089822,0.199133,-0.504947,-0.3302239999999999
1262,0.272947,0.95749,0.0932679999999999,0.177523,-0.317033,-0.210501
1263,0.272649,0.957828,0.090632,-0.043935,-0.173313,-0.180003
1264,0.269375,0.959104,0.086849,-0.09129,-0.101286,-0.064022
1265,0.2571739999999999,0.962602,0.085116,-0.265825,0.118742,0.1118599999999999
1266,0.2268389999999999,0.969442,0.093343,-0.445604,0.322428,0.094828
1267,0.190189,0.975656,0.109126,0.347805,0.758749,-0.189006
1268,0.152637,0.980113,0.126755,0.7467159999999999,1.189397,-0.288666
1269,0.117845,0.982016,0.147455,1.006591,1.208093,-0.291879
1270,0.0877,0.981421,0.1706099999999999,0.441719,1.3084049999999998,-0.340364
1271,0.059951,0.978943,0.195093,0.016648,0.974197,-0.441874
1272,0.033786,0.975349,0.21803,0.090726,0.318855,-0.424405
1273,0.012477,0.972446,0.23276,0.1313369999999999,-0.133884,-0.15259
1274,0.007748,0.971767,0.235781,0.416858,-0.316738,-0.12311
1275,0.0288839999999999,0.973154,0.2282989999999999,0.4655319999999999,-0.320521,-0.122998
1276,0.078949,0.974679,0.20917,0.364105,-0.271325,-0.180224
1277,0.1481299999999999,0.972755,0.178299,0.2625,-0.110663,-0.105224
1278,0.215407,0.96603,0.142723,0.002015,0.155506,-0.07238
1279,0.266529,0.958847,0.0977799999999999,-0.25774,0.587372,-0.175172
1280,0.297593,0.952591,0.063206,-0.372376,0.533066,-0.1130099999999999
1281,0.343335,0.938562,0.03477,-0.210537,0.455572,-0.288722
1282,0.401696,0.915762,-0.0027429999999999,-0.299721,0.477701,-0.271015
1283,0.474018,0.879826,-0.034668,0.186108,0.5447960000000001,0.1065369999999999
1284,0.5472819999999999,0.83425,-0.067073,-0.07632,0.35824,-0.035726
1285,0.608221,0.786651,-0.105998,-0.290487,0.042053,-0.330098
1286,0.658597,0.734136,-0.165177,-0.243177,0.205821,0.00612
1287,0.695693,0.67909,-0.234177,-0.218077,0.033953,0.239166
1288,0.711796,0.630038,-0.3104679999999999,-0.715443,-0.697955,0.312436
1289,0.713788,0.588781,-0.379257,-0.966794,-0.686956,0.556702
1290,0.711846,0.5555100000000001,-0.4297399999999999,-0.856576,-0.5768270000000001,0.558708
1291,0.709375,0.528695,-0.466114,-0.843942,-0.505929,0.509037
1292,0.708224,0.509022,-0.489193,-0.8262200000000001,-0.450413,0.510357
1293,0.7049270000000001,0.4988579999999999,-0.504195,-0.760103,-0.50751,0.480026
1294,0.69386,0.500276,-0.517953,-0.095914,-0.657655,0.165231
1295,0.677319,0.508933,-0.5312439999999999,0.466999,-0.609916,-0.0210479999999999
1296,0.657151,0.5231779999999999,-0.542616,0.50978,-0.5600729999999999,-0.1522089999999999
1297,0.642257,0.540045,-0.543922,0.286896,-0.2248139999999999,-0.2457659999999999
1298,0.646536,0.545583,-0.5332210000000001,0.738337,1.033961,-1.013898
1299,0.652057,0.556625,-0.514766,1.387815,1.0533290000000002,-0.7855270000000001
1300,0.6446649999999999,0.583023,-0.494453,0.336185,0.251388,-0.4605479999999999
1301,0.628549,0.6187590000000001,-0.471229,-0.41372,-0.374008,-0.018304
1302,0.618987,0.651975,-0.437922,-0.631851,-0.404615,0.268412
1303,0.6159640000000001,0.678305,-0.400601,-0.487638,-0.015891,-0.075321
1304,0.6158640000000001,0.7026180000000001,-0.356414,-0.384602,0.181126,-0.143326
1305,0.613386,0.729472,-0.302685,-0.307432,0.240621,-0.094074
1306,0.604476,0.758085,-0.244756,-0.335509,0.1586779999999999,0.020284
1307,0.5893390000000001,0.785219,-0.189997,-0.294082,0.066648,-0.033819
1308,0.572202,0.8076949999999999,-0.1421349999999999,-0.2433449999999999,-0.1984109999999999,-0.117753
1309,0.551419,0.8286,-0.096678,-0.278348,-0.2056909999999999,-0.1375289999999999
1310,0.5256069999999999,0.8490559999999999,-0.0531919999999999,-0.157931,-0.085033,-0.140259
1311,0.495741,0.868382,-0.011876,-0.089964,-0.0071,-0.123271
1312,0.461484,0.8867209999999999,0.0273139999999999,-0.000867,-0.025041,-0.17302
1313,0.422868,0.903929,0.063883,0.052123,-0.077696,-0.141214
1314,0.38124,0.918939,0.100966,0.129945,0.006965,-0.096587
1315,0.329427,0.934205,0.136838,0.202723,0.149078,-0.105069
1316,0.267023,0.949254,0.166131,0.116156,0.12208,-0.216241
1317,0.209563,0.960432,0.183403,0.058808,0.086778,-0.28991
1318,0.169155,0.966237,0.1943109999999999,0.293979,-0.047841,-0.2326099999999999
1319,0.146622,0.967524,0.205868,0.545288,-0.181178,-0.081066
1320,0.134638,0.965334,0.2235739999999999,0.485907,-0.390322,0.079313
1321,0.127723,0.961264,0.244213,0.150506,-0.509162,-0.038327
1322,0.125915,0.955553,0.266544,-0.121597,-0.4197399999999999,-0.161045
1323,0.122088,0.949475,0.289089,-0.251346,-0.2957889999999999,-0.209164
1324,0.114625,0.94473,0.307128,-0.250428,-0.187726,-0.253035
1325,0.102493,0.940293,0.32454,-0.180892,-0.061234,-0.260529
1326,0.085364,0.934067,0.346717,-0.004905,-0.002396,-0.282798
1327,0.0668769999999999,0.926695,0.369789,0.081912,-0.03903,-0.271934
1328,0.048937,0.921594,0.385033,0.034727,-0.084497,-0.365654
1329,0.027898,0.918465,0.394492,0.089458,-0.040017,-0.3237219999999999
1330,0.001132,0.917072,0.398694,0.189557,0.016582,-0.301984
1331,-0.019612,0.920116,0.39113,0.773075,-0.100505,0.010573
1332,-0.027898,0.919685,0.391642,0.7779590000000001,-0.0496589999999999,0.077078
1333,-0.026198,0.914074,0.404678,0.697752,0.0688059999999999,-0.00949
1334,-0.015841,0.91349,0.406529,0.107759,0.519127,-0.250066
1335,0.003186,0.918165,0.396162,0.088733,0.514452,-0.239698
1336,0.03138,0.924695,0.37939,0.264488,0.3158289999999999,-0.033198
1337,0.067455,0.935119,0.34783,0.051335,0.1918349999999999,-0.385183
1338,0.105896,0.946393,0.305138,-0.051987,0.303531,-0.36277
1339,0.14156,0.956042,0.256765,-0.193013,0.558424,-0.389791
1340,0.177456,0.962569,0.204828,-0.3146469999999999,0.58777,-0.353723
1341,0.213677,0.964736,0.15366,-0.4912649999999999,0.654908,-0.268208
1342,0.242605,0.964495,0.104295,-0.542868,0.643354,-0.160706
1343,0.265638,0.962482,0.05524,-0.2626469999999999,0.063305,-0.025882
1344,0.2868239999999999,0.957923,0.010129,-0.200246,-0.073265,0.03107
1345,0.309585,0.950566,-0.02389,0.039216,-0.205006,0.208567
1346,0.342335,0.938329,-0.0483,0.294688,-0.3447469999999999,0.2440699999999999
1347,0.378652,0.922779,-0.071348,0.1930339999999999,-0.290989,-0.009585
1348,0.404186,0.909091,-0.100874,-0.047833,-0.255817,-0.092364
1349,0.420751,0.8976360000000001,-0.131179,-0.2448929999999999,-0.275459,0.08113
1350,0.429534,0.889916,-0.1534309999999999,-0.383956,-0.366707,0.189197
1351,0.430922,0.8874569999999999,-0.163452,-0.345717,-0.522299,0.188431
1352,0.423781,0.891073,-0.162445,-0.261778,-0.597891,0.157638
1353,0.408033,0.900294,-0.151559,-0.176954,-0.611781,0.079553
1354,0.383036,0.914732,-0.128605,0.10761,-0.671415,-0.08752
1355,0.347436,0.932992,-0.09383,0.269523,-0.656014,-0.185238
1356,0.30912,0.949237,-0.058168,0.527505,-0.055408,-0.3654159999999999
1357,0.291543,0.955605,-0.042563,1.378623,1.232506,-0.591928
1358,0.305548,0.950996,-0.047294,0.926828,0.665536,-0.610101
1359,0.330188,0.942285,-0.055359,0.49986,0.233038,-0.433579
1360,0.346044,0.937505,-0.036432,-0.051336,0.31422,0.176294
1361,0.336729,0.941585,0.004361,-0.5796640000000001,0.954106,-0.307629
1362,0.3024159999999999,0.952972,0.019434,-0.8781909999999999,1.259522,-0.8851110000000001
1363,0.2752,0.961379,0.002069,-0.673882,-0.064696,-0.289087
1364,0.256778,0.966452,-0.004882,-0.196964,-0.498633,0.329085
1365,0.238646,0.971078,-0.0067129999999999,-0.23271,-0.71653,0.595061
1366,0.22549,0.974234,0.00341,-0.364269,-0.479162,0.626855
1367,0.2112119999999999,0.977139,0.024002,-0.387345,0.191394,0.395997
1368,0.194205,0.979404,0.0551409999999999,-0.211997,0.481213,0.19875
1369,0.17523,0.979551,0.098796,-0.098799,0.2375659999999999,0.150532
1370,0.1572589999999999,0.976555,0.146953,-0.0068379999999999,-0.040123,0.0821269999999999
1371,0.145341,0.971608,0.186655,0.150848,-0.164723,-0.137675
1372,0.142777,0.968812,0.202492,0.24533,-0.1980599999999999,-0.192101
1373,0.14253,0.9685,0.204153,0.278063,-0.0132539999999999,0.0546669999999999
1374,0.142591,0.968559,0.2038309999999999,0.315615,0.004952,0.032818
1375,0.143762,0.968356,0.203976,0.3386909999999999,-0.034457,0.023227
1376,0.1436349999999999,0.96803,0.2056059999999999,0.29504,-0.258496,0.024237
1377,0.141438,0.967167,0.211114,0.297237,-0.257634,0.018729
1378,0.135897,0.965447,0.222327,0.321302,-0.191949,-0.035818
1379,0.127769,0.962799,0.2380739999999999,0.403755,-0.107635,-0.170157
1380,0.118713,0.959418,0.255754,0.42978,-0.093344,-0.2191789999999999
1381,0.1092099999999999,0.95677,0.269538,0.4673739999999999,-0.064359,-0.251869
1382,0.103993,0.955038,0.277622,0.407802,-0.068914,-0.334171
1383,0.104498,0.953751,0.2818239999999999,0.247858,-0.078599,-0.275949
1384,0.1086849999999999,0.954337,0.278234,0.080737,-0.054099,-0.215856
1385,0.1151259999999999,0.955868,0.270276,0.101717,0.056599,-0.130841
1386,0.122388,0.958338,0.258063,0.094455,0.054129,-0.118628
1387,0.13663,0.961066,0.240146,-0.0302759999999999,0.300103,-0.089634
1388,0.158932,0.964636,0.210247,0.169773,0.384424,-0.270351
1389,0.191202,0.969531,0.153095,0.463842,-0.0070519999999999,-0.171848
1390,0.238594,0.965738,0.102033,0.418037,0.169043,-0.011289
1391,0.2906019999999999,0.954907,0.0607539999999999,-0.033018,0.8200719999999999,-0.302117
1392,0.329017,0.944146,0.0180099999999999,-0.397682,1.219718,-0.240453
1393,0.35477,0.934618,-0.024824,-0.58649,0.721052,0.00662
1394,0.372636,0.925279,-0.070644,-0.210114,0.302138,0.045513
1395,0.394289,0.911913,-0.113755,0.109205,0.058973,0.1109319999999999
1396,0.4244199999999999,0.893316,-0.147795,-0.011654,-0.1162319999999999,0.216552
1397,0.4584399999999999,0.8719129999999999,-0.172018,-0.179585,-0.073711,0.216619
1398,0.4886609999999999,0.851051,-0.192125,-0.273863,-0.029305,0.167421
1399,0.5160560000000001,0.828679,-0.216721,-0.27248,-0.119603,0.138993
1400,0.537454,0.807582,-0.242788,-0.358041,-0.265971,0.244207
1401,0.548362,0.791945,-0.26854,-0.332343,-0.339155,0.263383
1402,0.547676,0.784504,-0.290852,-0.363732,-0.3952219999999999,0.297978
1403,0.537838,0.785702,-0.305606,-0.374004,-0.448864,0.303028
1404,0.5209229999999999,0.7954680000000001,-0.309616,-0.348469,-0.502301,0.257888
1405,0.498247,0.813725,-0.299322,-0.238054,-0.558934,0.153647
1406,0.4692939999999999,0.839292,-0.274489,-0.018885,-0.602612,-0.166155
1407,0.4353579999999999,0.8657729999999999,-0.2467619999999999,0.379858,-0.4523819999999999,-0.370593
1408,0.405226,0.8837860000000001,-0.23389,1.029253,0.206851,-0.230557
1409,0.396919,0.886568,-0.237577,1.101753,1.074507,-0.391391
1410,0.4067929999999999,0.87966,-0.246391,0.395148,0.440347,-0.381188
1411,0.422882,0.8730049999999999,-0.24295,-0.064712,0.095578,0.212356
1412,0.435255,0.875266,-0.21084,-0.506666,0.868066,0.417718
1413,0.436489,0.8823780000000001,-0.175713,-1.112195,1.378028,0.066643
1414,0.426892,0.886214,-0.1799349999999999,-0.809384,0.306184,-0.497433
1415,0.414304,0.892983,-0.175849,-0.2276429999999999,-0.4583819999999999,0.430961
1416,0.404483,0.898338,-0.1713839999999999,-0.04938,-0.5263899999999999,0.485288
1417,0.395835,0.902977,-0.167142,-0.0972659999999999,-0.373085,0.5528529999999999
1418,0.383214,0.910071,-0.157818,-0.102666,0.512444,0.584408
1419,0.370315,0.918034,-0.141667,-0.020751,0.510875,0.486134
1420,0.358664,0.927453,-0.1057369999999999,0.176126,0.185829,0.288217
1421,0.352672,0.933623,-0.062918,0.297993,-0.203154,-0.149347
1422,0.357094,0.932949,-0.045592,0.186378,-0.362438,-0.351808
1423,0.364623,0.930248,-0.04095,-0.06079,-0.107448,0.2344159999999999
1424,0.3720469999999999,0.928013,-0.018974,0.044014,0.079708,0.464897
1425,0.375785,0.926671,0.0072689999999999,0.098123,0.037852,-0.246115
1426,0.3810929999999999,0.924259,0.022379,0.063686,-0.161914,-0.125818
1427,0.388803,0.920553,0.037422,0.057272,-0.303732,-0.011192
1428,0.395904,0.916982,0.048881,0.08931,-0.287023,-0.01078
1429,0.406754,0.911729,0.057332,0.1590869999999999,-0.293046,-0.048711
1430,0.420396,0.905487,0.05786,0.062224,-0.171417,-0.306792
1431,0.432262,0.900116,0.054104,0.037068,-0.134186,-0.067013
1432,0.442289,0.895459,0.0502009999999999,-0.12689,-0.224378,-0.0643
1433,0.450333,0.891908,0.041076,-0.312454,-0.065019,-0.2224269999999999
1434,0.452241,0.891352,0.03094,-0.310167,0.096166,0.035466
1435,0.441158,0.8970889999999999,0.024453,-0.29388,0.2200219999999999,0.406165
1436,0.4103949999999999,0.911451,0.028633,-0.424159,0.897051,0.424599
1437,0.372432,0.927144,0.04106,-0.164988,1.362895,0.471452
1438,0.338182,0.939228,0.058908,0.813322,1.62315,0.229086
1439,0.300033,0.950799,0.077115,1.134567,0.847907,-0.049908
1440,0.2599309999999999,0.961391,0.090273,0.792132,0.904835,-0.01288
1441,0.2224679999999999,0.97019,0.096048,0.327306,0.5061439999999999,-0.137552
1442,0.189745,0.976827,0.098952,0.061201,-0.158803,-0.2659289999999999
1443,0.167563,0.980309,0.104416,0.097559,-0.546517,-0.047333
1444,0.165913,0.980834,0.102085,0.4007219999999999,-0.5066069999999999,-0.127674
1445,0.191413,0.97787,0.084354,0.591118,-0.4356489999999999,-0.142734
1446,0.239934,0.969051,0.057945,0.272288,-0.278484,0.054665
1447,0.295835,0.954572,0.035466,-0.0756049999999999,0.049425,-0.104893
1448,0.34553,0.938388,0.0045829999999999,-0.2075449999999999,0.201291,-0.238866
1449,0.390351,0.920031,-0.033969,-0.072571,0.076612,-0.297635
1450,0.438256,0.896071,-0.070529,0.067177,0.118394,-0.074765
1451,0.494368,0.862742,-0.106128,0.3240369999999999,0.308721,-0.149747
1452,0.564086,0.8118270000000001,-0.150769,0.450822,0.740801,-0.279254
1453,0.634525,0.747261,-0.197403,0.289059,0.8227620000000001,0.002334
1454,0.699137,0.672,-0.244155,0.385076,0.911878,-0.195618
1455,0.744641,0.5923229999999999,-0.307657,0.896732,1.62365,-0.173773
1456,0.756934,0.518408,-0.397862,1.230737,1.3994540000000002,0.137059
1457,0.730776,0.456768,-0.507268,0.210813,0.387561,0.286138
1458,0.676901,0.41211,-0.609888,-0.273963,0.4586939999999999,0.554682
1459,0.62712,0.391685,-0.6732739999999999,-0.67897,-0.065711,0.592967
1460,0.595828,0.394686,-0.699434,-0.8247709999999999,-0.3992489999999999,0.605592
1461,0.570018,0.415533,-0.708807,-0.8999739999999999,-0.739019,1.12406
1462,0.558864,0.447758,-0.697982,-1.1837719999999998,-1.211766,1.670928
1463,0.569682,0.493105,-0.6574979999999999,-1.159541,-1.24898,1.241483
1464,0.585492,0.5426270000000001,-0.602286,-1.097363,-0.726511,0.500312
1465,0.598301,0.588005,-0.544315,-0.734043,-0.391502,0.326999
1466,0.6113270000000001,0.623542,-0.487305,-0.174163,0.1990289999999999,-0.286682
1467,0.631948,0.6582100000000001,-0.4091349999999999,0.309534,0.732583,0.343354
1468,0.629677,0.688272,-0.360247,-0.122871,0.726935,0.071963
1469,0.6167199999999999,0.711679,-0.336391,-0.178808,0.436774,-0.047261
1470,0.598424,0.738062,-0.311675,-0.291249,-0.2204539999999999,0.177596
1471,0.572604,0.7659199999999999,-0.2923679999999999,-0.310305,-0.742697,0.4136289999999999
1472,0.539119,0.793959,-0.281012,-0.485347,-0.108626,0.482092
1473,0.491109,0.825679,-0.277586,-0.427571,0.653065,-0.000658
1474,0.443297,0.855008,-0.269142,0.128175,1.156375,0.14138
1475,0.4149229999999999,0.877925,-0.238903,0.965234,1.112981,0.401897
1476,0.39808,0.894695,-0.202586,1.150275,0.493626,0.128672
1477,0.372089,0.913925,-0.162102,0.680447,0.8577889999999999,-0.0004799999999999
1478,0.325117,0.938269,-0.118047,0.289217,1.145914,0.156423
1479,0.273448,0.958744,-0.077588,0.216252,1.220119,-0.113025
1480,0.225082,0.973314,-0.044511,0.533692,0.948362,-0.500625
1481,0.183081,0.982873,-0.02063,0.5068600000000001,0.086189,-0.494843
1482,0.141585,0.989834,-0.0128479999999999,-0.131118,-0.533749,-0.212951
1483,0.111894,0.993597,-0.015073,0.450439,-1.064535,-0.334567
1484,0.109081,0.993439,-0.034113,0.728245,-1.065765,-0.352315
1485,0.139747,0.987684,-0.070252,0.898385,-1.097349,-0.316558
1486,0.196574,0.974067,-0.1119609999999999,-0.070445,-0.865516,0.536095
1487,0.2605639999999999,0.954104,-0.147565,-0.327337,-0.8021119999999999,0.455182
1488,0.320704,0.931292,-0.172708,-0.123393,-0.242282,-0.133948
1489,0.382219,0.900993,-0.205197,-0.002397,0.631463,-0.1008179999999999
1490,0.4448029999999999,0.8668309999999999,-0.225254,-0.006265,0.996603,0.17722
1491,0.5060140000000001,0.830987,-0.231077,-0.049868,0.6209939999999999,0.190656
1492,0.5684520000000001,0.785017,-0.246161,-0.1072099999999999,0.459474,0.126654
1493,0.632447,0.7269439999999999,-0.267487,0.402007,0.53447,0.034318
1494,0.699083,0.653165,-0.29094,0.584593,0.650378,0.129761
1495,0.755267,0.57544,-0.313733,0.800824,1.183898,-0.216128
1496,0.794068,0.4927149999999999,-0.355917,0.711929,1.642997,-0.227869
1497,0.799377,0.425992,-0.4236939999999999,1.206925,1.7999900000000002,0.078449
1498,0.7723800000000001,0.381083,-0.50813,0.076741,0.40743,0.684308
1499,0.7270840000000001,0.357859,-0.5859,-0.8236110000000001,-0.20785,0.61033
1500,0.683963,0.362799,-0.6329020000000001,-1.082172,-0.435705,0.76312
1501,0.655963,0.388787,-0.6469550000000001,-1.33002,-0.485741,1.086164
1502,0.6452479999999999,0.4296319999999999,-0.6317159999999999,-1.7521509999999998,-0.977361,1.279696
1503,0.643372,0.482612,-0.5942649999999999,-1.50322,-1.152305,0.954205
1504,0.6329560000000001,0.541985,-0.552821,-1.184165,-0.8783040000000001,0.545878
1505,0.621101,0.586187,-0.520201,-0.477272,-0.358892,0.403044
1506,0.651403,0.603737,-0.459528,1.118662,0.758476,0.5378970000000001
1507,0.687026,0.625195,-0.370291,0.821198,0.8198280000000001,1.141867
1508,0.673346,0.65149,-0.349506,0.1413819999999999,0.864943,0.05022
1509,0.6561899999999999,0.68194,-0.32305,0.158538,0.8344940000000001,0.0237639999999999
1510,0.642614,0.713095,-0.280232,-0.447302,-0.061774,0.197286
1511,0.626132,0.740404,-0.244434,-0.7571140000000001,-0.091371,0.501957
