,gravity.x,gravity.y,gravity.z,userAcceleration.x,userAcceleration.y,userAcceleration.z
0,0.108609,0.993682,0.028279,0.0277279999999999,0.228562,-0.212758
1,0.093582,0.994888,0.037935,0.242111,0.368591,-0.165941
2,0.081701,0.995814,0.040981,0.486612,0.199117,-0.1807359999999999
3,0.072937,0.996552,0.039539,0.432098,0.147674,-0.182865
4,0.064353,0.997251,0.036716,0.162759,0.361452,-0.23305
5,0.058422,0.997629,0.036371,-0.129894,0.675924,-0.35827
6,0.057469,0.997798,0.033098,-0.109456,0.7274520000000001,-0.274553
7,0.061614,0.997946,0.017571,-0.267486,0.616953,-0.282448
8,0.073082,0.997236,-0.013411,-0.241646,0.25722,-0.6874859999999999
9,0.0930179999999999,0.994235,-0.053334,-0.261582,0.260221,-0.647563
10,0.1208279999999999,0.987786,-0.098382,-0.06756,0.359824,-0.628745
11,0.1579829999999999,0.976033,-0.149668,0.30889,0.370357,-0.4141439999999999
12,0.205784,0.956935,-0.204761,0.30276,0.357975,0.172489
13,0.254054,0.929898,-0.2659829999999999,0.185842,0.492069,0.48191
14,0.2975219999999999,0.905133,-0.30367,-0.128974,0.181125,0.535222
15,0.323094,0.885184,-0.334752,-0.469838,0.0281149999999999,0.592
16,0.3341969999999999,0.862719,-0.379511,-0.3281699999999999,0.0602549999999999,0.456156
17,0.356577,0.8312790000000001,-0.426414,-0.859751,0.36968,-0.808449
18,0.374623,0.788183,-0.488289,-0.824391,0.009028,0.187553
19,0.374447,0.751875,-0.542654,-0.085049,-0.156919,0.806143
20,0.391441,0.716659,-0.577212,-0.388206,0.0008699999999999,0.377871
21,0.406403,0.680381,-0.609851,-0.354965,-0.0140449999999999,0.305576
22,0.415137,0.641729,-0.644861,-0.2708489999999999,-0.129293,0.346262
23,0.4166319999999999,0.604921,-0.678593,-0.504324,-0.145478,0.579991
24,0.410672,0.577084,-0.70592,-0.524609,-0.209851,0.617999
25,0.403809,0.559574,-0.723751,-0.431764,-0.37096,0.608745
26,0.394638,0.5509729999999999,-0.735316,-0.389237,-0.439691,0.546122
27,0.389463,0.553098,-0.736479,-0.343473,-0.507413,0.480467
28,0.391356,0.564567,-0.726708,-0.154417,-0.542289,0.221978
29,0.39938,0.584666,-0.706159,-0.0277529999999999,-0.524104,0.1115849999999999
30,0.414979,0.613626,-0.671755,0.1167599999999999,-0.191293,-0.146558
31,0.43391,0.6477539999999999,-0.626208,0.330632,0.028332,0.044176
32,0.46033,0.680988,-0.569519,0.219572,1.633679,-0.525726
33,0.479716,0.712549,-0.5120020000000001,0.792547,2.357443,-0.0297769999999999
34,0.487412,0.7336520000000001,-0.47348,-0.217728,0.034384,0.23703
35,0.476929,0.749556,-0.459026,-0.482285,-0.815596,0.49113
36,0.471538,0.7702439999999999,-0.4293909999999999,-0.59077,-0.858561,-0.03533
37,0.457672,0.795385,-0.397365,-0.7307130000000001,0.433589,0.409221
38,0.439096,0.8244100000000001,-0.357133,-0.596246,0.8058850000000001,0.307679
39,0.421968,0.849542,-0.316576,-0.289705,1.012976,0.234865
40,0.408653,0.8690620000000001,-0.278806,-0.017128,0.343019,0.135404
41,0.396416,0.885408,-0.2427079999999999,-0.2488639999999999,0.011611,0.117967
42,0.38366,0.900708,-0.203788,-0.231987,-0.039273,0.126273
43,0.367289,0.915389,-0.1648079999999999,-0.085017,0.018922,0.1657539999999999
44,0.343873,0.929552,-0.13298,0.109801,0.052305,0.119583
45,0.314598,0.942946,-0.108993,0.25283,0.055207,0.049712
46,0.285956,0.954112,-0.088871,0.249353,-0.036449,0.017628
47,0.2631,0.962375,-0.067915,0.018288,-0.141361,-0.033846
48,0.2447949999999999,0.968266,-0.050355,-0.064512,-0.154988,0.0037549999999999
49,0.231182,0.97242,-0.030871,-0.1910059999999999,-0.190163,-0.096357
50,0.220351,0.975326,-0.013613,-0.103148,-0.16896,-0.070829
51,0.2106199999999999,0.977568,-0.000692,-0.033343,-0.141828,-0.192439
52,0.201948,0.979346,0.009886,-0.058058,-0.125968,-0.169463
53,0.195842,0.980492,0.016779,-0.1177319999999999,-0.139534,-0.110178
54,0.191621,0.981274,0.019573,-0.053132,-0.050045,0.049442
55,0.187565,0.98204,0.02038,-0.081898,-0.17421,-0.010614
56,0.18353,0.982848,0.018025,0.002887,-0.108306,0.057674
57,0.181164,0.983329,0.015575,-0.044018,-0.088416,0.029851
58,0.1784369999999999,0.983835,0.015112,-0.191499,-0.000559,0.0186099999999999
59,0.173598,0.98467,0.016953,-0.284636,0.0695139999999999,0.024063
60,0.163967,0.986176,0.023922,-0.240963,0.165146,0.082218
61,0.148305,0.988272,0.03638,-0.019506,0.222284,0.01225
62,0.127391,0.990405,0.053563,0.18372,0.276853,-0.008397
63,0.105246,0.991634,0.0747299999999999,0.285105,0.418919,-0.0880659999999999
64,0.081814,0.992048,0.09564,0.256413,0.539675,-0.158079
65,0.059009,0.992245,0.109399,0.177563,0.672596,-0.004281
66,0.041095,0.992644,0.1138769999999999,0.106839,0.58925,-0.1138309999999999
67,0.026562,0.993626,0.109552,-0.246655,0.388698,-0.37388
68,0.015118,0.994906,0.0996659999999999,-0.278866,0.011503,-0.339473
69,0.008526,0.996379,0.084585,-0.162823,-0.030773,-0.2172909999999999
70,0.012541,0.99811,0.060159,0.034135,0.025358,-0.1491029999999999
71,0.03076,0.999056,0.030664,0.40404,0.015623,-0.12005
72,0.064738,0.997898,0.002672,0.4431199999999999,-0.041004,-0.10489
73,0.110426,0.993682,-0.020023,0.136263,0.083772,-0.242535
74,0.158616,0.986698,-0.035579,-0.25348,0.32603,-0.174566
75,0.2026109999999999,0.978193,-0.045661,-0.451009,0.361879,-0.14956
76,0.241527,0.968756,-0.05634,-0.6518510000000001,0.114419,-0.338451
77,0.277025,0.958207,-0.071375,-0.756258,0.048217,-0.294805
78,0.306434,0.947655,-0.089707,-0.810905,0.062935,-0.17923
79,0.330016,0.937694,-0.1087089999999999,-0.574828,-0.029979,-0.040461
80,0.354394,0.926082,-0.12952,-0.5346,-0.001812,-0.056271
81,0.378666,0.91296,-0.152035,-0.35265,0.02071,-0.113971
82,0.399654,0.900184,-0.173044,-0.450359,-0.015372,-0.032309
83,0.4145569999999999,0.888857,-0.195125,-0.44596,-0.011904,0.017238
84,0.424064,0.87874,-0.219054,-0.421485,-0.004304,0.0038439999999999
85,0.42994,0.86929,-0.2438969999999999,-0.35067,-0.009503,0.0445259999999999
86,0.433402,0.85987,-0.269787,-0.2878179999999999,-0.056739,0.117795
87,0.437454,0.850334,-0.292515,-0.260314,-0.0747299999999999,0.128666
88,0.441222,0.8420780000000001,-0.310203,-0.259703,-0.127555,0.068428
89,0.443072,0.8358909999999999,-0.323994,-0.260104,-0.123305,0.098423
90,0.4418829999999999,0.8319629999999999,-0.335523,-0.26482,-0.11509,0.1259279999999999
91,0.436656,0.83065,-0.345472,-0.320216,-0.157356,0.16908
92,0.427233,0.8318139999999999,-0.3543389999999999,-0.3124719999999999,-0.227841,0.172164
93,0.414688,0.8356450000000001,-0.360181,-0.298736,-0.249982,0.146757
94,0.4011119999999999,0.8417690000000001,-0.361293,-0.251469,-0.22745,0.081432
95,0.387103,0.849347,-0.358832,-0.198581,-0.206311,0.03034
96,0.372517,0.857641,-0.354516,-0.153691,-0.1935329999999999,0.020546
97,0.3578679999999999,0.865728,-0.349919,-0.198047,-0.18331,-0.049129
98,0.342312,0.8724790000000001,-0.3487139999999999,-0.188137,-0.2173429999999999,-0.158397
99,0.3266739999999999,0.877251,-0.35173,-0.071196,-0.1827619999999999,-0.234085
100,0.312227,0.880936,-0.355617,0.1126079999999999,0.0099329999999999,-0.401494
101,0.300067,0.8843409999999999,-0.357631,0.166486,0.063123,-0.440922
102,0.2922639999999999,0.887293,-0.35678,0.217807,0.082342,-0.45482
103,0.290153,0.8892450000000001,-0.35363,0.284615,-0.050683,-0.418434
104,0.293761,0.891043,-0.346042,-0.028975,-0.107276,-0.297116
105,0.299478,0.893075,-0.335751,-0.096322,-0.097527,-0.255314
106,0.300559,0.896323,-0.325986,-0.053474,-0.1003179999999999,-0.262256
107,0.29778,0.9006700000000001,-0.316415,-0.1960339999999999,0.0617169999999999,-0.314841
108,0.293684,0.906964,-0.301936,-0.276213,0.248005,-0.346959
109,0.28978,0.915348,-0.279577,-0.347794,0.5566979999999999,-0.4303079999999999
110,0.291209,0.921764,-0.256021,-0.402201,0.716008,-0.596518
111,0.299196,0.92246,-0.244022,-0.085451,0.6422979999999999,-0.7673
112,0.321728,0.913081,-0.2505409999999999,-0.562619,-0.081203,-0.287285
113,0.337901,0.908436,-0.2460969999999999,-0.467265,-0.780278,0.920444
114,0.342337,0.917028,-0.204601,-0.717963,-0.65447,0.560619
115,0.339095,0.926317,-0.164159,-0.389586,-0.14171,0.6440939999999999
116,0.3306469999999999,0.934036,-0.13508,-0.188526,0.525726,0.2655119999999999
117,0.319678,0.940259,-0.117117,-0.02111,0.720279,-0.040979
118,0.315567,0.943189,-0.103967,-0.086746,0.180483,0.221826
119,0.318262,0.944644,-0.079718,-0.511271,0.049466,0.295416
120,0.322123,0.945902,-0.038784,-0.744242,0.015463,0.129162
121,0.321536,0.946873,0.006643,-0.637347,0.044704,0.079966
122,0.311627,0.949074,0.046307,-0.465084,0.0883559999999999,0.1147339999999999
123,0.29445,0.95212,0.082245,-0.2295849999999999,0.107023,0.053909
124,0.274865,0.954242,0.117766,-0.0544669999999999,0.025693,0.061112
125,0.257349,0.954843,0.148469,0.036733,0.021536,0.177398
126,0.243665,0.954081,0.174225,0.070148,0.0564169999999999,0.1612859999999999
127,0.2320739999999999,0.952572,0.19684,0.108792,0.02776,0.186171
128,0.219823,0.951279,0.216201,0.2271369999999999,0.001511,0.074174
129,0.203955,0.949443,0.238655,0.266489,0.04366,-0.0181199999999999
130,0.185329,0.946685,0.263508,0.235875,0.122117,-0.231754
131,0.167249,0.945749,0.278538,0.313372,0.059577,-0.258686
132,0.151088,0.946744,0.284329,0.331227,0.032534,-0.243069
133,0.137956,0.947706,0.287779,0.4498729999999999,-0.065214,-0.184188
134,0.129131,0.948189,0.290273,0.445454,-0.076942,-0.13535
135,0.12061,0.948215,0.293831,0.300563,-0.127445,-0.190621
136,0.1133599999999999,0.946893,0.3008969999999999,0.171964,-0.082299,-0.250253
137,0.107509,0.945233,0.308175,0.116932,-0.050793,-0.241265
138,0.101639,0.944046,0.313753,0.010544,-0.006333,-0.218996
139,0.093795,0.943543,0.317687,-0.01924,0.025252,-0.301406
140,0.083361,0.944387,0.31809,-0.046968,0.058177,-0.287771
141,0.069891,0.946158,0.316065,-0.0035,0.1732119999999999,-0.216165
142,0.054491,0.948006,0.313546,0.129576,0.217658,-0.205789
143,0.038821,0.949855,0.310266,0.184842,0.223775,-0.20205
144,0.02175,0.950767,0.309137,0.181299,0.307107,-0.260217
145,0.001117,0.950618,0.310353,0.195737,0.441502,-0.269978
146,-0.022424,0.949932,0.311642,0.249551,0.490909,-0.2580679999999999
147,-0.046267,0.949378,0.310703,0.457003,0.56138,-0.245838
148,-0.065421,0.950041,0.305183,0.489738,0.528948,-0.300957
149,-0.078441,0.952648,0.293775,0.390025,0.5280189999999999,-0.3719449999999999
150,-0.086147,0.957219,0.276234,0.0101129999999999,0.461528,-0.267262
151,-0.089684,0.962916,0.254448,-0.057807,0.080587,-0.147011
152,-0.085813,0.969076,0.2313489999999999,0.111891,0.037821,-0.187922
153,-0.068934,0.975855,0.2072429999999999,0.164347,0.141012,-0.201078
154,-0.038277,0.98267,0.1813519999999999,0.340996,0.289119,-0.224901
155,0.003857,0.988113,0.153662,0.2672,0.305573,-0.332129
156,0.05125,0.991245,0.121663,0.095646,0.382428,-0.379765
157,0.097532,0.991874,0.0816559999999999,-0.331358,0.500954,-0.24552
158,0.138292,0.989803,0.034059,-0.447664,0.412922,-0.162477
159,0.174341,0.984567,-0.015078,-0.383112,0.236227,-0.115354
160,0.208826,0.976015,-0.061494,-0.1021519999999999,0.096784,-0.167983
161,0.248433,0.961603,-0.116604,-0.141042,0.146277,0.01791
162,0.2831849999999999,0.940502,-0.187772,-0.019849,0.404255,0.262739
163,0.322337,0.919808,-0.223716,0.143254,-0.0259329999999999,0.123619
164,0.356076,0.89469,-0.269694,0.102282,0.026025,0.1095839999999999
165,0.386062,0.864763,-0.321151,-0.1120599999999999,-0.109788,0.094757
166,0.409905,0.832234,-0.373311,-0.278619,-0.141835,0.3813829999999999
167,0.428131,0.800091,-0.420185,-0.396363,-0.328167,0.403019
168,0.439721,0.771718,-0.45945,-0.343789,-0.382619,0.320626
169,0.442163,0.749957,-0.49199,-0.29989,-0.3689909999999999,0.225831
170,0.433117,0.734648,-0.5222060000000001,-0.367489,-0.589476,0.428929
171,0.416358,0.7283970000000001,-0.544134,-0.359519,-0.789554,0.6065119999999999
172,0.401521,0.7337130000000001,-0.548128,-0.324251,-0.7815949999999999,0.354616
173,0.39603,0.748387,-0.532047,-0.122929,-0.684865,0.022831
174,0.397478,0.772369,-0.495435,0.014174,-0.682937,-0.009127
175,0.4027679999999999,0.802355,-0.440457,0.170535,-0.486697,-0.019306
176,0.405537,0.827174,-0.389,0.501171,0.347081,-0.535012
177,0.411892,0.84439,-0.342561,0.474018,1.626816,-0.177626
178,0.416678,0.857088,-0.3029489999999999,0.659784,0.925017,-0.949706
179,0.40543,0.8643280000000001,-0.297594,-0.500736,-0.57995,0.505617
180,0.389305,0.877453,-0.280206,-0.7245560000000001,-0.938961,0.2137389999999999
181,0.367038,0.895107,-0.253108,-0.594547,-0.362514,-0.049931
182,0.334401,0.916039,-0.221462,-0.55428,0.04409,0.131236
183,0.296616,0.935836,-0.190335,-0.229477,0.826585,0.116147
184,0.264667,0.949918,-0.166144,0.129971,0.193545,0.1579809999999999
185,0.240561,0.959961,-0.143536,-0.04389,0.019989,0.0898409999999999
186,0.2167199999999999,0.969305,-0.11609,-0.098358,-0.100882,0.10161
187,0.190941,0.977677,-0.087675,-0.0237199999999999,-0.1158599999999999,0.215223
188,0.163238,0.984686,-0.0611769999999999,0.065613,-0.0435399999999999,0.118367
189,0.134385,0.990223,-0.037362,0.2242579999999999,-0.0341529999999999,-0.023399
190,0.108771,0.993965,-0.014145,0.167322,-0.123298,-0.066803
191,0.0847,0.99638,0.007094,0.019976,-0.178921,-0.0748279999999999
192,0.061449,0.997712,0.028151,0.074431,-0.253342,-0.135969
193,0.03961,0.997984,0.04956,0.1385819999999999,-0.232298,-0.114548
194,0.01969,0.997438,0.068756,0.17251,-0.181687,-0.048675
195,0.001925,0.996262,0.086337,0.143323,-0.110963,-0.109133
196,-0.012481,0.9949,0.100073,0.134674,-0.115414,-0.162207
197,-0.024786,0.993372,0.11222,0.116949,-0.127833,-0.167274
198,-0.036333,0.991702,0.1233,0.099001,0.0085569999999999,-0.183923
199,-0.049759,0.990149,0.13086,0.2210079999999999,0.127358,-0.145264
200,-0.063165,0.989004,0.133704,0.422693,0.172403,-0.185324
201,-0.074445,0.988031,0.1350869999999999,0.581861,0.200232,-0.188172
202,-0.083803,0.986817,0.138438,0.578264,0.182113,-0.207362
203,-0.094663,0.985164,0.143128,0.285016,0.2095679999999999,-0.223267
204,-0.107129,0.983164,0.148009,0.297482,0.211569,-0.228148
205,-0.118177,0.981486,0.1507089999999999,-0.030504,0.5605060000000001,-0.2988719999999999
206,-0.12625,0.981128,0.1464329999999999,0.211867,0.559689,-0.127466
207,-0.12646,0.982875,0.134012,0.206386,0.6211899999999999,-0.197244
208,-0.120567,0.986114,0.1141819999999999,-0.017556,0.542329,-0.589799
209,-0.112447,0.989632,0.089317,-0.066477,0.342155,-0.611671
210,-0.101525,0.993165,0.057543,0.239114,0.192291,-0.5318470000000001
211,-0.082116,0.996567,0.010288,0.561471,0.309646,-0.341754
212,-0.0475709999999999,0.997567,-0.050906,0.669092,0.309745,-0.111127
213,-0.003814,0.993965,-0.109614,0.550949,0.19027,0.298015
214,0.042824,0.987331,-0.152775,0.255363,0.119939,0.324742
215,0.089709,0.977689,-0.189929,-0.159595,0.215686,0.1221339999999999
216,0.12994,0.968718,-0.211418,-0.373409,0.123231,-0.110496
217,0.162601,0.95723,-0.239309,-0.361057,-0.039398,0.054769
218,0.190295,0.939138,-0.286016,0.250868,-0.0297139999999999,0.166021
219,0.228771,0.915165,-0.331865,0.254918,0.0747029999999999,0.094301
220,0.267204,0.889107,-0.371603,-0.080558,0.046333,0.05245
221,0.294699,0.8629290000000001,-0.410493,-0.2549949999999999,-0.08174,0.2665869999999999
222,0.317062,0.834147,-0.451296,-0.292572,-0.139689,0.342775
223,0.337145,0.804334,-0.489262,-0.276659,-0.196974,0.320317
224,0.353354,0.776351,-0.521938,-0.199439,-0.226241,0.261165
225,0.368901,0.7509520000000001,-0.547706,-0.353642,-0.277624,0.286247
226,0.375171,0.7307279999999999,-0.570335,-0.318378,-0.426544,0.39283
227,0.3764119999999999,0.7187520000000001,-0.584558,-0.29464,-0.473513,0.4293149999999999
228,0.376615,0.717348,-0.58615,-0.293759,-0.708162,0.359038
229,0.376923,0.725838,-0.5754020000000001,-0.162079,-0.746513,0.2270739999999999
230,0.38345,0.7434649999999999,-0.547927,-0.023831,-0.704021,0.146698
231,0.389603,0.770289,-0.504838,0.14064,-0.502787,0.076554
232,0.382372,0.804301,-0.45485,0.149214,-0.668513,0.5081939999999999
233,0.370693,0.8396379999999999,-0.396978,-0.036892,-0.429513,-0.4001409999999999
234,0.350269,0.87055,-0.345619,0.636121,2.710932,-0.241402
235,0.346984,0.888275,-0.300942,1.224183,1.011444,-0.061103
236,0.339748,0.895442,-0.287664,0.362705,-0.006618,0.308264
237,0.326563,0.904501,-0.274281,-0.355249,-0.417426,-0.235286
238,0.293193,0.922332,-0.25167,-0.447643,-0.4832149999999999,0.261893
239,0.250563,0.942208,-0.222394,-0.454435,-0.289147,0.248288
240,0.21224,0.958793,-0.188856,-0.096411,0.7613310000000001,0.3322739999999999
241,0.183175,0.970316,-0.15789,0.367804,0.188497,0.049049
242,0.164832,0.977431,-0.132121,0.188195,0.042787,-0.012959
243,0.1463829999999999,0.983676,-0.104645,0.107478,-0.061084,-0.014542
244,0.124789,0.989244,-0.076299,0.050367,-0.249086,0.085745
245,0.100243,0.993659,-0.0509019999999999,0.152656,-0.2152929999999999,0.0325
246,0.074687,0.996843,-0.0268769999999999,0.248128,-0.2006089999999999,-0.018228
247,0.048848,0.998793,-0.0047409999999999,0.269267,-0.2312,-0.019383
248,0.0270589999999999,0.999481,0.017385,0.205546,-0.2374869999999999,-0.039129
249,0.009664,0.99917,0.03951,0.142466,-0.264765,-0.076146
250,-0.005004,0.9981,0.061373,0.010513,-0.288307,-0.062533
251,-0.019022,0.996348,0.083211,-0.018515,-0.185527,-0.090627
252,-0.03533,0.994085,0.1026779999999999,0.08573,-0.104315,-0.15648
253,-0.051657,0.991558,0.118913,0.221655,-0.089535,-0.152361
254,-0.066836,0.988906,0.13264,0.201266,-0.0714409999999999,-0.165966
255,-0.081826,0.98629,0.143292,0.150582,0.001702,-0.225415
256,-0.0961539999999999,0.983856,0.150925,0.265847,0.2358559999999999,-0.28331
257,-0.107067,0.982341,0.153422,0.498501,0.364277,-0.204325
258,-0.113915,0.981262,0.155387,0.611244,0.231171,-0.176291
259,-0.12153,0.979949,0.157882,0.485955,0.239534,-0.247054
260,-0.130379,0.978218,0.1615089999999999,0.251534,0.291023,-0.233348
261,-0.140203,0.976205,0.1654119999999999,0.133749,0.51586,-0.253867
262,-0.149104,0.975035,0.1645299999999999,0.323894,0.5042439999999999,-0.04722
263,-0.148827,0.976574,0.155401,0.173577,0.8120310000000001,-0.01351
264,-0.143522,0.979807,0.139194,-0.157351,0.637304,-0.4571409999999999
265,-0.136736,0.983419,0.1191079999999999,-0.0130289999999999,0.297984,-0.51608
266,-0.129424,0.987294,0.092171,0.245132,0.1398579999999999,-0.517418
267,-0.114304,0.992028,0.053014,0.441193,0.36721,-0.4218189999999999
268,-0.084482,0.99642,-0.002298,0.654672,0.335001,-0.339728
269,-0.040221,0.997144,-0.063884,0.617308,0.252032,-0.009007
270,0.0061579999999999,0.993595,-0.112816,0.444083,0.193081,0.40435
271,0.0524279999999999,0.987267,-0.150171,-0.083663,0.200996,0.213327
272,0.0954179999999999,0.980029,-0.174455,-0.2862449999999999,0.196088,-0.195372
273,0.133393,0.970431,-0.2011599999999999,-0.447038,0.154157,-0.198544
274,0.1642539999999999,0.956624,-0.2405969999999999,-0.064462,-0.061162,0.18855
275,0.198263,0.937035,-0.287495,0.367517,-0.029427,0.072346
276,0.243366,0.911444,-0.3317219999999999,0.137264,0.055902,0.051113
277,0.277149,0.885709,-0.372432,-0.16225,-0.105039,0.236384
278,0.306251,0.8578530000000001,-0.41267,-0.235709,-0.1196319999999999,0.347592
279,0.329741,0.82691,-0.4555079999999999,-0.191832,-0.190023,0.398563
280,0.346493,0.794809,-0.4982149999999999,-0.318676,-0.173746,0.358307
281,0.35523,0.767027,-0.534302,-0.343786,-0.168639,0.413727
282,0.361284,0.745807,-0.559682,-0.334337,-0.395526,0.414083
283,0.36363,0.731374,-0.576943,-0.408277,-0.5107470000000001,0.439309
284,0.361784,0.727946,-0.582413,-0.391584,-0.709543,0.405778
285,0.361394,0.7360329999999999,-0.572405,-0.249989,-0.765529,0.242571
286,0.367984,0.7540359999999999,-0.5440729999999999,-0.000598,-0.699379,0.123388
287,0.380792,0.782746,-0.4922439999999999,0.107093,-0.537216,0.221217
288,0.384549,0.816832,-0.430005,0.118702,-0.684966,0.185467
289,0.381058,0.8485659999999999,-0.367052,-0.309098,0.667273,-0.0514049999999999
290,0.364067,0.8770479999999999,-0.313431,0.5986560000000001,2.951001,-0.851303
291,0.350932,0.893524,-0.280102,0.795415,0.625855,0.172253
292,0.33851,0.903666,-0.262285,-0.057962,-0.3472389999999999,-0.204619
293,0.318469,0.915336,-0.246441,-0.347934,-0.190025,0.186703
294,0.282994,0.932868,-0.222861,-0.341817,-0.199455,0.2793489999999999
295,0.240926,0.950685,-0.195317,-0.362417,0.113341,0.203526
296,0.2017779999999999,0.964892,-0.168118,0.069875,0.555463,0.247967
297,0.169797,0.975074,-0.142813,0.282962,0.414026,0.145346
298,0.1452369999999999,0.98217,-0.11934,0.334667,0.07679,0.019197
299,0.121816,0.987913,-0.095829,0.264582,-0.08064,0.0604139999999999
300,0.098437,0.992637,-0.070542,0.199079,-0.154029,0.072022
301,0.0747299999999999,0.996205,-0.044561,0.251945,-0.221836,0.013922
302,0.0501459999999999,0.998538,-0.020043,0.245401,-0.306216,0.010033
303,0.0282839999999999,0.999583,0.0053289999999999,0.260488,-0.302592,-0.0435529999999999
304,0.010851,0.999436,0.031681,0.18939,-0.308075,-0.069157
305,-0.0037799999999999,0.998313,0.057878,0.02856,-0.2620159999999999,-0.068498
306,-0.017526,0.996291,0.084202,-0.003684,-0.251418,-0.097233
307,-0.031715,0.993634,0.108067,-0.041405,-0.201429,-0.100987
308,-0.046013,0.990665,0.128294,-0.00962,-0.151889,-0.142149
309,-0.06027,0.987749,0.143919,0.0126629999999999,-0.098696,-0.2149489999999999
310,-0.073685,0.98572,0.151394,0.086045,-0.018053,-0.166271
311,-0.086625,0.984203,0.154381,0.170991,0.1552619999999999,-0.21354
312,-0.099386,0.982523,0.157367,0.381185,0.320242,-0.201496
313,-0.110647,0.980993,0.159386,0.667455,0.3391369999999999,-0.0808789999999999
314,-0.122444,0.978947,0.163291,0.517021,0.327358,-0.25785
315,-0.1359119999999999,0.97655,0.166949,0.44536,0.418775,-0.329394
316,-0.148247,0.974217,0.170052,0.2320179999999999,0.553127,-0.443062
317,-0.1559809999999999,0.973332,0.16819,0.1592609999999999,0.618388,-0.242393
318,-0.158289,0.975089,0.155369,0.337656,0.718988,-0.172184
319,-0.151529,0.979685,0.131338,0.112222,0.572653,-0.235159
320,-0.137822,0.985648,0.097449,-0.262371,0.455697,-0.5987
321,-0.118933,0.991311,0.056148,-0.222925,0.200599,-0.684582
322,-0.089013,0.996024,0.002726,0.604775,0.238717,-0.460566
323,-0.039022,0.997266,-0.062708,0.7850550000000001,0.204592,-0.2410179999999999
324,0.022297,0.992285,-0.1219329999999999,0.69067,0.286477,0.34317
325,0.078174,0.983784,-0.161408,0.174267,0.2327679999999999,0.492936
326,0.126138,0.974944,-0.18322,-0.10589,0.330049,0.2742699999999999
327,0.163856,0.965198,-0.203811,-0.359993,0.0697899999999999,0.024154
328,0.196327,0.950424,-0.241133,-0.177376,0.046845,0.12509
329,0.2340679999999999,0.927342,-0.291968,0.0966809999999999,0.090358,-0.1160829999999999
330,0.273771,0.8995690000000001,-0.3403239999999999,-0.112318,-0.00603,0.210304
331,0.3008429999999999,0.8733850000000001,-0.383,-0.057434,-0.157976,0.391499
332,0.325934,0.846058,-0.4218409999999999,-0.150687,-0.1673619999999999,0.226101
333,0.34813,0.815933,-0.461579,-0.232606,-0.17421,0.3185119999999999
334,0.3638,0.785463,-0.500695,-0.448837,-0.136918,0.414666
335,0.373611,0.757741,-0.535015,-0.4552,-0.087804,0.393077
336,0.379972,0.7383390000000001,-0.5572020000000001,-0.442609,-0.156354,0.371487
337,0.385787,0.7244520000000001,-0.571257,-0.306655,-0.501918,0.34381
338,0.3861719999999999,0.718378,-0.578621,-0.322619,-0.51008,0.365807
339,0.383711,0.724514,-0.572575,-0.380904,-0.648296,0.360661
340,0.385357,0.742128,-0.548401,-0.14642,-0.838533,0.2458949999999999
341,0.396517,0.769361,-0.500853,0.103361,-0.648054,0.147551
342,0.400165,0.8043279999999999,-0.439227,0.175335,-0.582359,0.219165
343,0.391715,0.836217,-0.383792,0.441613,-0.4953359999999999,-0.153501
344,0.381613,0.866818,-0.320925,0.612314,3.41582,-1.303663
345,0.364789,0.8879040000000001,-0.2802699999999999,1.585712,2.522466,-0.57085
346,0.359419,0.896183,-0.260134,-0.331022,-0.6398510000000001,-0.048109
347,0.3463719999999999,0.905214,-0.246189,-0.5139739999999999,-0.637407,-0.049145
348,0.315651,0.922183,-0.223467,-0.435417,-0.5492739999999999,0.199053
349,0.273392,0.942443,-0.192493,-0.434158,-0.163069,0.329929
350,0.233379,0.95972,-0.156417,-0.2958179999999999,0.646741,0.232421
351,0.2015549999999999,0.971415,-0.125389,0.404723,0.770803,0.225701
352,0.178447,0.978582,-0.1026,0.343968,0.163874,0.020828
353,0.155163,0.984856,-0.077312,0.1418029999999999,-0.0951,-0.00359
354,0.128243,0.990477,-0.050013,0.082633,-0.270751,0.025096
355,0.100127,0.994659,-0.024913,0.1526799999999999,-0.255432,-0.003956
356,0.071733,0.997418,-0.002352,0.170226,-0.253918,-0.04965
357,0.044996,0.998774,0.020503,0.268786,-0.255121,-0.07545
358,0.020651,0.998844,0.043338,0.29394,-0.251026,-0.078098
359,-3e-06,0.997839,0.065657,0.246799,-0.27471,-0.027617
360,-0.0171909999999999,0.995929,0.08845,0.108301,-0.26752,-0.034174
361,-0.033648,0.993628,0.1075349999999999,-0.0498329999999999,-0.120673,-0.134604
362,-0.052034,0.991196,0.121715,-0.0696389999999999,-0.010667,-0.3990889999999999
363,-0.070786,0.988788,0.131449,0.014328,0.013683,-0.371821
364,-0.087142,0.986715,0.1370819999999999,0.2001339999999999,0.145228,-0.159619
365,-0.099415,0.985256,0.139209,0.286503,0.110829,0.005033
366,-0.107677,0.984336,0.139573,0.373546,0.160485,-0.037202
367,-0.114671,0.983562,0.13946,0.632524,0.308537,-0.142207
368,-0.1219359999999999,0.982669,0.139587,0.566058,0.323056,-0.2245329999999999
369,-0.1322549999999999,0.981252,0.1401599999999999,0.275398,0.3209639999999999,-0.365166
370,-0.142838,0.979682,0.140757,0.071747,0.409738,-0.401378
371,-0.148032,0.979357,0.137619,0.034491,0.510008,-0.344909
372,-0.14684,0.980963,0.127045,0.111607,0.701745,-0.193222
373,-0.137452,0.984979,0.104477,-0.2362969999999999,0.402167,-0.491989
374,-0.121917,0.990002,0.070878,-0.2873699999999999,0.364505,-0.686128
375,-0.098186,0.994772,0.027953,0.215694,0.351664,-0.679595
376,-0.064273,0.997568,-0.02682,0.6398189999999999,0.140844,-0.375508
377,-0.014049,0.995628,-0.092312,0.668331,0.079842,-0.076695
378,0.046005,0.988637,-0.143083,0.388809,0.24708,0.4352279999999999
379,0.100661,0.980259,-0.170159,0.015229,0.237576,0.4317399999999999
380,0.146346,0.971756,-0.185115,-0.2772969999999999,0.179642,0.242
381,0.185868,0.960684,-0.206236,-0.545929,0.073419,-0.1704119999999999
382,0.21966,0.944339,-0.244883,-0.402018,0.076886,-0.144979
383,0.252835,0.920524,-0.297833,-0.140195,0.080666,-0.061939
384,0.294605,0.8925049999999999,-0.341522,-0.11182,-0.042148,0.175491
385,0.322972,0.8669709999999999,-0.379532,-0.132466,-0.1957829999999999,0.1138769999999999
386,0.3452449999999999,0.839289,-0.419994,-0.254882,-0.196986,0.1501579999999999
387,0.360969,0.810824,-0.460718,-0.299217,-0.18825,0.228937
388,0.369818,0.782468,-0.500973,-0.261588,-0.171491,0.242703
389,0.37262,0.757059,-0.536668,-0.298707,-0.184534,0.316346
390,0.370256,0.737838,-0.5643600000000001,-0.285661,-0.271789,0.369429
391,0.363356,0.724878,-0.585253,-0.331404,-0.471277,0.406313
392,0.354475,0.720979,-0.595426,-0.316343,-0.6510640000000001,0.296858
393,0.347332,0.726846,-0.592497,-0.3501849999999999,-0.680321,0.2484719999999999
394,0.345444,0.742129,-0.5743779999999999,-0.279922,-0.75548,0.242103
395,0.3512639999999999,0.764506,-0.5405,0.00683,-0.626963,0.1540099999999999
396,0.355767,0.791443,-0.497034,0.084464,-0.4973149999999999,-0.014898
397,0.353437,0.818192,-0.453474,0.491183,-0.434205,0.058164
398,0.360256,0.84451,-0.396248,0.275486,1.127002,-0.306328
399,0.359484,0.868949,-0.3401369999999999,0.867735,2.166299,-0.404858
400,0.360701,0.8789549999999999,-0.311973,0.489519,0.797192,-0.3239829999999999
401,0.357063,0.8876940000000001,-0.2906849999999999,-0.317955,-0.4973439999999999,0.2801869999999999
402,0.3442989999999999,0.901545,-0.262046,-0.424301,-0.838404,-0.038735
403,0.32135,0.918442,-0.230632,-0.428817,-0.446641,0.041667
404,0.292355,0.936092,-0.1955849999999999,-0.328839,0.183476,0.1934789999999999
405,0.26693,0.950448,-0.159341,-0.088158,0.910315,0.143517
406,0.24586,0.960867,-0.127595,0.373265,0.536234,0.221559
407,0.2278329999999999,0.968473,-0.100721,0.13348,0.0214409999999999,0.079481
408,0.205611,0.975871,-0.073433,-0.001983,-0.103877,0.118583
409,0.178559,0.982819,-0.046644,0.0616909999999999,-0.126053,0.118772
410,0.147124,0.988826,-0.023864,0.175279,-0.028316,0.083633
411,0.1188039999999999,0.992909,-0.0026969999999999,0.335465,0.003047,0.057751
412,0.098246,0.994942,0.020704,0.095709,-0.138375,-0.070189
413,0.079269,0.995875,0.044037,0.013977,-0.174205,-0.086838
414,0.061438,0.9959,0.066321,-0.072669,-0.2114909999999999,-0.115439
415,0.043224,0.995242,0.087263,0.082951,-0.200274,-0.070875
416,0.022948,0.994281,0.10425,0.192583,-0.185474,-0.054476
417,0.003066,0.99316,0.116678,0.280076,-0.1660569999999999,-0.059412
418,-0.014552,0.991639,0.128181,0.312693,-0.13733,-0.127434
419,-0.028385,0.989829,0.139371,0.314701,-0.09725,-0.154356
420,-0.039892,0.988148,0.1482,0.275442,-0.006855,-0.171042
421,-0.049309,0.986431,0.156563,0.317803,0.006595,-0.0833059999999999
422,-0.0565279999999999,0.985361,0.160805,0.34199,-0.016947,-0.040001
423,-0.06129,0.984783,0.162589,0.111247,-0.036343,-0.03884
424,-0.064759,0.984866,0.160737,0.000932,0.067777,-0.072464
425,-0.071332,0.984573,0.159746,-0.0154449999999999,0.145264,-0.0625169999999999
426,-0.080474,0.983969,0.159119,0.087798,0.090387,-0.046417
427,-0.093961,0.982621,0.160054,0.325315,0.134139,-0.076696
428,-0.1104619999999999,0.980518,0.162397,0.455158,0.197232,-0.0541809999999999
429,-0.127237,0.978028,0.1651099999999999,0.409815,0.275496,-0.104197
430,-0.142527,0.97558,0.167093,0.382365,0.427802,-0.168664
431,-0.154584,0.973971,0.165751,0.328733,0.5254340000000001,-0.119914
432,-0.160649,0.974075,0.159251,0.438206,0.431641,-0.059855
433,-0.162448,0.97571,0.14694,0.0750919999999999,0.405607,-0.2711469999999999
434,-0.163875,0.977888,0.129886,0.102321,0.399111,-0.36951
435,-0.165211,0.980383,0.107445,0.2496989999999999,0.198785,-0.276711
436,-0.163278,0.983552,0.07718,0.297723,-0.019319,-0.240968
437,-0.151774,0.98763,0.039275,0.5012310000000001,0.165659,-0.155746
438,-0.1246839999999999,0.99219,-0.002264,0.622074,0.132291,-0.048823
439,-0.08183,0.996082,-0.033435,0.6676,-0.042972,-0.002332
440,-0.0319459999999999,0.998338,-0.047899,0.157343,0.1631,0.006898
441,0.015337,0.998454,-0.053372,-0.039385,0.2816059999999999,0.061764
442,0.055991,0.99651,-0.0618549999999999,-0.292029,0.322978,-0.026768
443,0.090691,0.992648,-0.080121,-0.385429,0.219968,-0.281894
444,0.122214,0.986977,-0.104567,-0.624228,0.152916,-0.499986
445,0.145844,0.979621,-0.13808,-0.814439,0.00599,-0.058164
446,0.161882,0.970974,-0.176062,-0.527818,-0.05981,0.361807
447,0.180361,0.96082,-0.210448,-0.075366,0.06042,0.053054
448,0.203861,0.946947,-0.2484469999999999,-0.330906,0.11212,-0.342053
449,0.218056,0.932029,-0.289427,-0.4861069999999999,-0.028495,0.136198
450,0.229919,0.917807,-0.323671,-0.438187,-0.011358,0.216157
451,0.240048,0.903159,-0.355914,-0.130978,-0.0157229999999999,0.199695
452,0.249146,0.8878209999999999,-0.3869039999999999,-0.039307,0.0076709999999999,0.084689
453,0.251671,0.870612,-0.4227189999999999,-0.038048,-0.010199,0.140874
454,0.249349,0.854928,-0.4548819999999999,-0.023839,-0.0923549999999999,0.23659
455,0.243687,0.842443,-0.480523,-0.13358,-0.273092,0.337227
456,0.234765,0.8331379999999999,-0.500762,-0.163293,-0.3218,0.400863
457,0.224845,0.827788,-0.514012,-0.143165,-0.425826,0.43317
458,0.213259,0.8262649999999999,-0.521347,-0.108416,-0.44864,0.443222
459,0.199759,0.828683,-0.5228550000000001,-0.137,-0.404534,0.413358
460,0.183677,0.8346389999999999,-0.519266,-0.113746,-0.414626,0.343378
461,0.1658359999999999,0.8427469999999999,-0.512125,-0.117069,-0.418721,0.271921
462,0.14602,0.8505209999999999,-0.50526,-0.11001,-0.4525109999999999,-0.016026
463,0.127264,0.855416,-0.502059,0.191111,-0.161431,-0.468308
464,0.115046,0.8574709999999999,-0.501501,0.371893,0.04678,-0.5079899999999999
465,0.12022,0.8623139999999999,-0.491892,0.503499,0.386511,-0.374807
466,0.1331099999999999,0.868302,-0.477839,0.414299,0.031174,-0.3804369999999999
467,0.1459069999999999,0.87131,-0.468535,0.367353,-0.072345,-0.441438
468,0.1532089999999999,0.8736389999999999,-0.46182,0.121266,-0.187192,-0.455737
469,0.153572,0.8771959999999999,-0.454904,0.341057,0.094209,-0.373801
470,0.144688,0.8835790000000001,-0.445364,0.469265,0.373486,-0.1525359999999999
471,0.142472,0.8932959999999999,-0.4262859999999999,0.331878,0.786499,0.429368
472,0.1516,0.904122,-0.399469,-0.0228,0.622947,-0.144797
473,0.1658099999999999,0.8995549999999999,-0.4041079999999999,-0.470787,0.599042,-0.8694059999999999
474,0.178768,0.89346,-0.4120279999999999,-0.492855,-0.618496,0.683085
475,0.200354,0.902369,-0.381553,-0.460684,-0.725962,0.8181229999999999
476,0.2207199999999999,0.9154,-0.336631,-0.176439,-0.46142,0.953315
477,0.2266239999999999,0.926585,-0.300127,-0.337204,0.423864,0.5003380000000001
478,0.216361,0.935238,-0.280199,-0.228782,0.943729,0.054018
479,0.2109989999999999,0.940462,-0.266468,0.032791,0.699294,0.159352
480,0.217389,0.943978,-0.248275,-0.172223,0.026969,0.441818
481,0.2297719999999999,0.949209,-0.214944,-0.416753,0.082575,0.403817
482,0.241867,0.954287,-0.175585,-0.411652,0.111143,0.357745
483,0.249742,0.958662,-0.136343,-0.330979,0.1022059999999999,0.3174639999999999
484,0.250455,0.963008,-0.099406,-0.209912,0.026235,0.31576
485,0.2461739999999999,0.9668,-0.068465,-0.077244,-0.026676,0.258589
486,0.238759,0.970168,-0.041956,-0.019109,-0.079619,0.284281
487,0.23121,0.972686,-0.020356,0.017309,0.012345,0.372636
488,0.224755,0.974403,-0.003989,0.233405,0.037575,0.435126
489,0.220793,0.975192,0.015565,0.332826,-0.032352,0.409331
490,0.216034,0.975445,0.042751,0.4841,-0.065609,0.086247
491,0.2085449999999999,0.975853,0.064898,0.35101,0.047142,-0.1811849999999999
492,0.20132,0.976381,0.0783669999999999,0.408284,-0.008288,-0.1105329999999999
493,0.193409,0.977386,0.085444,0.450054,-0.11879,0.0512139999999999
494,0.186331,0.978071,0.093,0.356958,-0.172895,-0.0071239999999999
495,0.1818779999999999,0.978046,0.101672,0.2858949999999999,-0.111103,-0.018481
496,0.1771589999999999,0.978252,0.107838,0.098842,-0.057659,-0.035771
497,0.170592,0.978859,0.112812,0.00377,-0.058128,-0.031925
498,0.16171,0.979679,0.118625,0.041797,0.044323,0.0034909999999999
499,0.151977,0.980601,0.123765,0.132691,0.136892,-0.023515
500,0.140469,0.981817,0.127652,0.0971409999999999,0.120813,-0.006131
501,0.126112,0.983052,0.133027,0.083025,0.118923,-0.0132909999999999
502,0.109524,0.984245,0.138776,0.225773,0.416634,-0.078168
503,0.092614,0.985595,0.141481,0.261619,0.433671,-0.113527
504,0.075999,0.987185,0.140292,0.216573,0.374326,-0.158694
505,0.061332,0.989129,0.133621,0.2085659999999999,0.397239,-0.021743
506,0.0523169999999999,0.991333,0.120475,0.26853,0.376587,-0.0184849999999999
507,0.056257,0.993418,0.099744,0.0671409999999999,0.301275,-0.1042299999999999
508,0.072445,0.995003,0.068652,-0.151531,0.347999,-0.26694
509,0.097082,0.994788,0.031049,-0.184423,0.417016,-0.18678
510,0.127792,0.991758,-0.008902,-0.186279,0.371066,-0.1192109999999999
511,0.16685,0.985044,-0.04292,-0.107981,0.303637,-0.078769
512,0.217363,0.973616,-0.069424,-0.034609,0.207644,0.014782
513,0.2736679999999999,0.957067,-0.095508,-0.098986,0.3872469999999999,-0.1210599999999999
514,0.324028,0.937319,-0.12819,-0.2976,0.512968,-0.075836
515,0.367307,0.915619,-0.16347,-0.36923,0.4324949999999999,0.052157
516,0.408637,0.8919969999999999,-0.193265,-0.417167,0.272371,0.055234
517,0.448416,0.865927,-0.221558,-0.45748,0.2451719999999999,-0.149078
518,0.485599,0.834471,-0.260474,-0.540225,0.2440659999999999,-0.1879819999999999
519,0.519624,0.798561,-0.303787,-0.422608,0.218788,0.256439
520,0.548474,0.760753,-0.347026,-0.124981,-0.065746,0.817348
521,0.5753199999999999,0.719548,-0.388914,-0.1834589999999999,0.076747,-0.004092
522,0.5933579999999999,0.685443,-0.4220069999999999,-0.1089069999999999,0.075482,0.0756169999999999
523,0.614875,0.6492859999999999,-0.447607,-0.2538829999999999,-0.0227449999999999,0.154059
524,0.625861,0.614078,-0.480835,-0.291907,-0.151539,0.3853
525,0.625656,0.584114,-0.5170710000000001,-0.3917239999999999,-0.177788,0.4294699999999999
526,0.615332,0.564737,-0.549942,-0.454153,-0.309061,0.324844
527,0.5950449999999999,0.557054,-0.579318,-0.522963,-0.543413,0.519122
528,0.571005,0.559599,-0.600665,-0.5474,-0.601225,0.5851930000000001
529,0.5518689999999999,0.57294,-0.605952,-0.602727,-0.674045,0.459254
530,0.544589,0.596357,-0.589728,-0.2576469999999999,-0.436902,0.111396
531,0.551017,0.627997,-0.549542,-0.130775,-0.351523,0.033566
532,0.562565,0.6624220000000001,-0.494687,-0.001515,-0.1799079999999999,0.0948
533,0.5654600000000001,0.693425,-0.446558,0.206726,-0.073948,0.147257
534,0.577653,0.715176,-0.393493,0.850432,1.892154,-0.317872
535,0.596658,0.719766,-0.354869,1.332526,2.575308,-0.568959
536,0.580476,0.729783,-0.361193,-0.92679,-0.589036,0.8678450000000001
537,0.5666770000000001,0.748308,-0.344831,-0.97723,-0.944124,0.4918649999999999
538,0.5485939999999999,0.7733359999999999,-0.317793,-0.806467,-0.74912,-0.243319
539,0.519991,0.804967,-0.285713,-0.6616989999999999,0.337656,0.295037
540,0.4896189999999999,0.83519,-0.250452,-0.347941,1.151398,0.282679
541,0.4661659999999999,0.855512,-0.225352,0.293463,0.924548,0.407084
542,0.4494729999999999,0.8704049999999999,-0.2009109999999999,-0.153055,0.134097,0.179289
543,0.43194,0.885581,-0.170789,-0.292261,-0.035926,0.179822
544,0.410535,0.9006850000000001,-0.142203,-0.171567,-0.057775,0.243995
545,0.386101,0.914937,-0.117525,-0.03466,0.069438,0.145997
546,0.36027,0.927924,-0.0957,0.014242,0.0375459999999999,0.082196
547,0.337098,0.938576,-0.073725,-0.0555419999999999,-0.152138,0.044764
548,0.315501,0.947434,-0.0531179999999999,-0.116816,-0.179109,0.016925
549,0.295573,0.954735,-0.033352,-0.132105,-0.208107,-0.015018
550,0.276965,0.960765,-0.0146819999999999,-0.111071,-0.223842,0.006213
551,0.26006,0.965587,0.002204,-0.085271,-0.204646,0.066338
552,0.244179,0.969523,0.019909,-0.034569,-0.147807,-0.010601
553,0.22879,0.972829,0.0353949999999999,-0.049042,-0.061559,-0.134363
554,0.214177,0.97556,0.049033,-0.027821,-0.039983,-0.130423
555,0.199054,0.978072,0.061207,0.011517,0.060853,-0.089085
556,0.182541,0.98082,0.068295,0.125412,0.149322,-0.116422
557,0.166848,0.983464,0.070389,0.252708,0.170665,-0.134232
558,0.154308,0.985333,0.072819,0.384449,0.094837,-0.175861
559,0.142169,0.986923,0.075925,0.23103,0.136093,-0.132672
560,0.129251,0.988442,0.079191,0.008581,0.29203,-0.140455
561,0.117745,0.989506,0.083709,-0.1638109999999999,0.565044,-0.299881
562,0.1094849999999999,0.990533,0.0827779999999999,-0.067615,0.538795,-0.243148
563,0.105722,0.992095,0.067569,0.2471679999999999,0.60431,-0.13216
564,0.110169,0.993096,0.040218,0.117019,0.557624,-0.078945
565,0.121698,0.992542,0.00674,-0.430017,0.4706689999999999,-0.470485
566,0.138478,0.989883,-0.030832,-0.3240099999999999,0.202729,-0.4667409999999999
567,0.162994,0.983859,-0.073819,-0.154465,0.213819,-0.426196
568,0.200998,0.971474,-0.125825,0.501455,0.344062,-0.184355
569,0.252803,0.950441,-0.180965,0.5746359999999999,0.392653,-0.0054979999999999
570,0.308282,0.922471,-0.2323889999999999,0.236456,0.325561,0.4473859999999999
571,0.358303,0.898242,-0.254512,-0.148311,0.399335,0.232509
572,0.3935619999999999,0.878345,-0.271321,-0.6840890000000001,0.1235769999999999,0.344975
573,0.4182939999999999,0.854015,-0.309332,-0.426152,0.146108,0.074575
574,0.449669,0.817364,-0.360153,-0.088264,0.278095,-0.193191
575,0.48251,0.7739020000000001,-0.410191,-0.6070369999999999,0.110223,0.183308
576,0.499208,0.736034,-0.457211,-0.316698,0.01479,0.432247
577,0.517678,0.696969,-0.4962279999999999,-0.377037,0.010017,0.310604
578,0.529746,0.65903,-0.5338970000000001,-0.379707,0.005368,0.372337
579,0.536894,0.622417,-0.569508,-0.25009,-0.016293,0.368641
580,0.542263,0.586149,-0.601979,-0.377636,-0.015912,0.432805
581,0.539466,0.557137,-0.631326,-0.640586,-0.057732,0.444345
582,0.529898,0.540945,-0.653135,-0.600715,-0.30306,0.523466
583,0.52331,0.536764,-0.661838,-0.577204,-0.498037,0.5106850000000001
584,0.5202260000000001,0.545136,-0.657412,-0.5224840000000001,-0.657624,0.435671
585,0.524174,0.56116,-0.6405770000000001,-0.214405,-0.721454,0.342939
586,0.540408,0.585431,-0.604341,0.081907,-0.5359619999999999,0.251589
587,0.556757,0.6206119999999999,-0.552142,0.179526,-0.370322,0.276309
588,0.5663520000000001,0.6620199999999999,-0.490889,0.190102,-0.397128,0.534941
589,0.558513,0.707892,-0.432378,-0.471477,0.7049810000000001,-0.736903
590,0.541283,0.745037,-0.38978,0.29145,2.892368,-0.5837
591,0.539266,0.762065,-0.358394,1.0932879999999998,1.103962,0.12762
592,0.527281,0.773005,-0.352752,-0.542845,-0.181803,0.053741
593,0.502872,0.7943180000000001,-0.340846,-0.595508,-0.385535,0.4030559999999999
594,0.465491,0.825573,-0.318975,-0.6588350000000001,-0.413784,0.389226
595,0.4305479999999999,0.8558680000000001,-0.286556,-0.514532,0.4914979999999999,0.423336
596,0.405311,0.879225,-0.250367,-0.106544,0.7139909999999999,0.418412
597,0.386956,0.895228,-0.2209699999999999,0.4790109999999999,0.6125079999999999,0.280617
598,0.371579,0.907545,-0.195669,0.022723,-0.012984,0.073293
599,0.351352,0.920827,-0.169188,-0.145481,-0.2090199999999999,0.1030859999999999
600,0.328775,0.933551,-0.142773,-0.1160829999999999,-0.224964,0.070217
601,0.303912,0.94506,-0.120392,0.038831,-0.209983,0.065307
602,0.279149,0.955035,-0.099899,0.034861,-0.194583,0.020492
603,0.254573,0.963721,-0.080187,0.0306129999999999,-0.196188,0.029421
604,0.233082,0.970479,-0.061961,-0.122196,-0.1976359999999999,0.035137
605,0.215004,0.975657,-0.043153,-0.104118,-0.202814,0.016328
606,0.197339,0.980027,-0.024481,-0.205731,-0.1504059999999999,0.022619
607,0.17809,0.983977,-0.008211,-0.187001,-0.117995,-0.017317
608,0.158019,0.987427,0.003467,-0.10527,-0.070984,-0.158252
609,0.139579,0.990129,0.012458,-0.018119,-0.05617,-0.185539
610,0.124124,0.992002,0.022786,0.184226,0.127871,-0.069127
611,0.11164,0.993241,0.031672,0.272027,0.230896,-0.051539
612,0.100788,0.994262,0.035756,0.410763,0.141801,-0.064427
613,0.091268,0.995179,0.035817,0.4616649999999999,0.117843,-0.129887
614,0.0807529999999999,0.996118,0.034943,0.2446559999999999,0.251944,-0.150422
615,0.070076,0.996903,0.0356019999999999,-0.009468,0.415832,-0.181049
616,0.063364,0.997297,0.037105,-0.212839,0.656496,-0.2619889999999999
617,0.06109,0.997674,0.030121,0.044668,0.75347,-0.185898
618,0.065704,0.9978,0.008482,-0.179916,0.680316,-0.182371
619,0.079095,0.996607,-0.022649,-0.4311,0.52352,-0.480372
620,0.099205,0.993127,-0.062054,-0.308006,0.27584,-0.519215
621,0.129762,0.984963,-0.1140279999999999,0.247832,0.338187,-0.395555
622,0.177386,0.968252,-0.176115,0.635602,0.308131,-0.12314
623,0.2383699999999999,0.943175,-0.231505,0.559634,0.396882,0.366164
624,0.293365,0.915938,-0.273841,0.223557,0.168382,0.672614
625,0.34171,0.893117,-0.292526,-0.332188,0.4607189999999999,0.386444
626,0.3779369999999999,0.87215,-0.310664,-0.599174,0.248272,0.269358
627,0.408769,0.8430129999999999,-0.349617,-0.574709,0.206044,0.265343
628,0.439116,0.8038649999999999,-0.401215,-0.252394,0.180388,-0.122726
629,0.46729,0.759521,-0.452509,-0.43044,0.027207,0.378229
630,0.487089,0.723175,-0.489651,-0.2447949999999999,-0.078751,0.481671
631,0.506412,0.684407,-0.52453,-0.439487,-0.054157,0.304925
632,0.514101,0.646521,-0.563655,-0.3845389999999999,-0.106894,0.447215
633,0.523776,0.607738,-0.5969180000000001,-0.2362389999999999,-0.1176099999999999,0.421259
634,0.528258,0.574191,-0.625496,-0.5303939999999999,-0.091128,0.521065
635,0.5261640000000001,0.551004,-0.647722,-0.750132,-0.185449,0.5357069999999999
636,0.5218119999999999,0.536408,-0.663307,-0.565955,-0.275147,0.501747
637,0.518067,0.533012,-0.668956,-0.463822,-0.399681,0.493404
638,0.516945,0.543234,-0.661561,-0.451637,-0.477178,0.413499
639,0.522292,0.563806,-0.63979,-0.0951679999999999,-0.453409,0.33347
640,0.536805,0.595295,-0.597881,0.072387,-0.276005,0.348003
641,0.548743,0.6362869999999999,-0.542233,0.0871059999999999,-0.235088,0.390027
642,0.5527,0.678299,-0.484178,0.204945,-0.084061,-0.013151
643,0.554898,0.718342,-0.419606,0.121234,2.682598,-0.74255
644,0.552089,0.743038,-0.378269,1.145772,3.20203,-0.8399780000000001
645,0.5501229999999999,0.75454,-0.357813,0.7238479999999999,0.630455,0.25062
646,0.535116,0.768139,-0.35158,-0.8456629999999999,-0.609219,-0.0719279999999999
647,0.507767,0.793962,-0.334354,-0.8598790000000001,-0.637101,0.097111
648,0.4761609999999999,0.8250649999999999,-0.304194,-0.768306,0.01925,0.356257
649,0.447506,0.854424,-0.263994,-0.496899,0.975883,0.295351
650,0.4244439999999999,0.876808,-0.225942,0.03515,1.088463,0.377706
651,0.405401,0.89275,-0.196572,0.047922,0.1981,0.054146
652,0.3831989999999999,0.908447,-0.166961,-0.172399,-0.186798,0.151107
653,0.356971,0.924131,-0.136187,-0.127174,-0.2080969999999999,0.1206849999999999
654,0.32797,0.938195,-0.110538,-0.0500769999999999,-0.198007,0.097354
655,0.2982039999999999,0.950243,-0.090028,0.180098,-0.218798,0.064287
656,0.269754,0.960224,-0.072074,0.071387,-0.2770579999999999,0.045295
657,0.2429349999999999,0.968441,-0.055649,0.028641,-0.319592,0.079285
658,0.218804,0.975005,-0.038492,-0.125161,-0.317351,0.146418
659,0.199856,0.979647,-0.018475,-0.2239949999999999,-0.2091849999999999,0.178265
660,0.181142,0.983452,-0.000682,-0.234853,-0.058449,0.0017649999999999
661,0.160969,0.986882,0.012048,-0.121418,-0.104664,-0.201638
662,0.1429109999999999,0.989376,0.026511,-0.051419,-0.006756,-0.263907
663,0.128229,0.991058,0.036777,0.015585,0.164246,-0.114292
664,0.1167619999999999,0.992447,0.037517,0.12779,0.20224,-0.03886
665,0.108678,0.993531,0.032809,0.458003,0.203902,-0.0046869999999999
666,0.1019019999999999,0.994342,0.029856,0.6803859999999999,0.134427,0.051382
667,0.093016,0.995185,0.03078,0.335283,0.2120909999999999,-0.079714
668,0.0813509999999999,0.996088,0.0343819999999999,-0.025259,0.4635979999999999,-0.223148
669,0.071342,0.996722,0.038033,-0.216102,0.660047,-0.328484
670,0.066353,0.997172,0.035162,0.016304,0.810521,-0.189001
671,0.069099,0.997473,0.0162509999999999,-0.1588359999999999,0.587701,-0.205368
672,0.081182,0.996579,-0.015227,-0.332815,0.433231,-0.5225850000000001
673,0.102874,0.993182,-0.054762,-0.275497,0.284803,-0.587328
674,0.136451,0.98493,-0.10624,0.140404,0.3542119999999999,-0.491722
675,0.186228,0.967998,-0.168205,0.305791,0.32871,-0.307686
676,0.249636,0.942115,-0.223818,0.367338,0.41372,0.29146
677,0.3083639999999999,0.913436,-0.2655949999999999,0.133332,0.252946,0.61023
678,0.358217,0.8871370000000001,-0.290969,-0.4358689999999999,0.45202,0.423629
679,0.392061,0.863399,-0.317529,-0.68442,0.289723,0.304818
680,0.419706,0.8342729999999999,-0.357533,-0.297315,0.185777,0.11623
681,0.458241,0.791054,-0.405269,-0.181477,0.282157,-0.281163
682,0.4851979999999999,0.745512,-0.456937,-0.326109,-0.057798,0.6631130000000001
683,0.503881,0.7053729999999999,-0.498547,-0.1761069999999999,-0.057988,0.602429
684,0.5219779999999999,0.664126,-0.53523,-0.32839,-0.0264459999999999,0.369672
685,0.5283979999999999,0.623607,-0.576113,-0.427354,-0.129237,0.4236319999999999
686,0.525876,0.5835130000000001,-0.618841,-0.344419,-0.0598309999999999,0.472143
687,0.519731,0.550602,-0.653234,-0.576433,-0.157414,0.553014
688,0.511905,0.529285,-0.676615,-0.535755,-0.204273,0.533075
689,0.500462,0.521367,-0.691166,-0.561559,-0.275838,0.6059770000000001
690,0.4944189999999999,0.5286810000000001,-0.68996,-0.527835,-0.614161,0.4380979999999999
691,0.5004,0.550599,-0.6681600000000001,-0.289615,-0.612413,0.267968
692,0.517568,0.5853149999999999,-0.62412,-0.032492,-0.461826,0.174062
693,0.535075,0.627604,-0.565512,0.004292,-0.40922,0.525686
694,0.545439,0.6750010000000001,-0.496857,0.032625,-0.372266,0.360016
695,0.5405439999999999,0.722541,-0.430977,-0.1063099999999999,0.094338,-0.293846
696,0.536454,0.754616,-0.377845,1.622131,3.796241,-1.047586
697,0.529273,0.765029,-0.366872,-0.058371,0.108521,0.798543
698,0.518352,0.776258,-0.35879,-0.7695420000000001,-0.690473,-0.088766
699,0.499756,0.79685,-0.339511,-0.881791,-0.6814939999999999,0.059833
700,0.468563,0.827839,-0.308424,-0.691921,-0.090016,0.36775
701,0.436562,0.858535,-0.268933,-0.442391,0.86319,0.3513
702,0.413593,0.881468,-0.227921,0.527188,0.997621,0.324036
703,0.396939,0.8958860000000001,-0.199552,0.2165409999999999,0.189228,0.134855
704,0.378946,0.909268,-0.172118,-0.194223,-0.154889,0.085006
705,0.3568739999999999,0.923639,-0.13973,-0.176714,-0.239008,0.048573
706,0.33195,0.93659,-0.1122599999999999,-0.0190229999999999,-0.2368829999999999,0.073746
707,0.304425,0.947982,-0.0929919999999999,-0.0044979999999999,-0.175567,0.019918
708,0.276896,0.957799,-0.077088,0.025655,-0.258168,-0.024536
709,0.250731,0.966011,-0.062841,-0.014616,-0.317162,0.0355269999999999
710,0.2279489999999999,0.972541,-0.04685,-0.056685,-0.267234,0.118078
711,0.208554,0.977604,-0.0280519999999999,-0.1328859999999999,-0.172551,0.028922
712,0.188334,0.982033,-0.011518,-0.154353,-0.123589,0.002057
713,0.166788,0.985981,0.003908,0.057638,0.002178,-0.053133
714,0.145798,0.989166,0.016907,0.2501219999999999,0.162369,-0.152573
715,0.12834,0.991367,0.026685,0.35695,0.25584,-0.227262
716,0.112288,0.993179,0.031303,0.4082659999999999,0.2457889999999999,-0.218269
717,0.097573,0.994701,0.032275,0.411812,0.199482,-0.253604
718,0.085477,0.995833,0.031652,0.429614,0.219331,-0.273931
719,0.078778,0.996391,0.031471,0.056613,0.383003,-0.416405
720,0.079389,0.996415,0.029091,-0.225843,0.7172229999999999,-0.371895
721,0.0873179999999999,0.996065,0.014907,-0.213569,0.855619,-0.393187
722,0.105063,0.994328,-0.016299,-0.439795,0.417049,-0.442335
723,0.135728,0.988926,-0.059972,-0.47339,0.486034,-0.462443
724,0.17684,0.977708,-0.113178,-0.0851809999999999,0.350753,-0.366299
725,0.230587,0.958047,-0.170203,0.293369,0.375952,-0.1369109999999999
726,0.29131,0.931152,-0.21929,0.381786,0.398102,0.381399
727,0.344988,0.902641,-0.257326,-0.455431,0.265373,0.275865
728,0.376275,0.875604,-0.30287,-0.585,0.304969,0.450194
729,0.394976,0.8480260000000001,-0.35333,-0.276949,0.191281,0.462506
730,0.430175,0.806937,-0.4047199999999999,-0.824218,0.585779,-0.3978
731,0.450974,0.766201,-0.457771,-0.896576,0.2318909999999999,0.21064
732,0.469793,0.7254689999999999,-0.502976,-0.299124,-0.053366,0.527802
733,0.491782,0.681613,-0.541804,-0.460319,0.097028,0.277796
734,0.506143,0.638008,-0.580313,-0.26925,0.063423,0.284246
735,0.508641,0.59304,-0.6241680000000001,-0.242665,0.0811539999999999,0.466087
736,0.504231,0.55438,-0.662126,-0.5965159999999999,-0.15486,0.563951
737,0.5000560000000001,0.523717,-0.689683,-0.6725869999999999,-0.237736,0.546129
738,0.494742,0.501329,-0.709858,-0.510382,-0.269029,0.640125
739,0.4901359999999999,0.489106,-0.721485,-0.400231,-0.3633429999999999,0.604755
740,0.4888479999999999,0.488958,-0.722459,-0.379778,-0.551122,0.443619
741,0.490575,0.499914,-0.713737,-0.206059,-0.5304770000000001,0.282478
742,0.4940729999999999,0.5180020000000001,-0.698257,-0.0488829999999999,-0.455121,0.180527
743,0.501772,0.539335,-0.676269,0.036436,-0.391096,0.070282
744,0.511917,0.562088,-0.649612,0.052094,-0.310745,-0.1651
745,0.527319,0.5903189999999999,-0.61111,0.0399259999999999,-0.195101,-0.933278
746,0.551162,0.608359,-0.571066,1.014145,1.563775,-1.187006
747,0.582691,0.617362,-0.528519,0.98312,1.75187,0.740067
748,0.571157,0.639337,-0.5148050000000001,-0.387686,-0.840082,0.6567270000000001
749,0.569542,0.6602359999999999,-0.4895989999999999,-0.6570050000000001,-1.061496,0.027273
750,0.572785,0.6827810000000001,-0.4535689999999999,-0.7464149999999999,-0.835475,-0.137694
751,0.572148,0.703511,-0.421563,-0.62212,-0.020176,0.157937
752,0.576257,0.7237060000000001,-0.379702,-0.704064,0.790027,0.296756
753,0.5744319999999999,0.7450399999999999,-0.339026,-0.242813,1.269334,0.12197
754,0.572103,0.76379,-0.29886,-0.131719,0.551395,0.259905
755,0.568182,0.7822979999999999,-0.255293,-0.43482,0.133458,0.205778
756,0.562574,0.799269,-0.211365,-0.47923,0.147799,0.187195
757,0.553671,0.815467,-0.168692,-0.33045,0.223687,0.21604
758,0.543874,0.829305,-0.128246,-0.271719,0.228998,0.152248
759,0.531193,0.842139,-0.092898,-0.331425,0.258157,0.084185
760,0.515927,0.854671,-0.057873,-0.347363,0.242756,0.0565
761,0.497534,0.8671709999999999,-0.021588,-0.2657989999999999,0.06305,0.047665
762,0.475954,0.8793479999999999,0.014427,-0.1722119999999999,-0.038543,0.021981
763,0.454759,0.8893139999999999,0.04803,-0.1067359999999999,-0.076982,-0.0110879999999999
764,0.435921,0.896277,0.081561,-0.039925,-0.083136,0.0426
765,0.419166,0.901233,0.109866,0.02285,-0.090518,0.117093
766,0.405584,0.904145,0.134221,0.050029,-0.034898,0.108424
767,0.3927239999999999,0.905499,0.160723,-0.069604,-0.062206,0.040525
768,0.37804,0.905924,0.1907319999999999,-0.2574349999999999,-0.011164,-0.062619
769,0.361926,0.906137,0.218896,-0.296588,0.0611779999999999,-0.104272
770,0.346348,0.906283,0.24225,-0.117603,0.108579,-0.047288
771,0.329335,0.90657,0.263932,-0.145299,0.083939,-0.09134
772,0.308892,0.908485,0.281481,-0.183969,0.071633,-0.068392
773,0.284693,0.91181,0.295875,-0.080867,0.075449,-0.059394
774,0.256836,0.915893,0.308489,-0.001831,0.07721,-0.049578
775,0.226401,0.919959,0.3200139999999999,0.134454,-0.030295,-0.098624
776,0.193684,0.923546,0.330968,0.185634,-0.095497,-0.1225329999999999
777,0.160872,0.925585,0.342641,0.268251,-0.165377,-0.132009
778,0.129596,0.925241,0.356545,0.329144,-0.20672,-0.152489
779,0.099183,0.922584,0.372816,0.295653,-0.176429,-0.208586
780,0.069512,0.91879,0.3885659999999999,0.170784,0.00452,-0.299699
781,0.03923,0.914884,0.401792,0.1084599999999999,0.190661,-0.220152
782,0.008546,0.911898,0.410315,0.224196,0.197843,-0.29888
783,-0.0197229999999999,0.911039,0.411835,0.343682,0.195696,-0.376786
784,-0.041749,0.913832,0.403927,0.4931649999999999,0.137987,-0.432293
785,-0.056614,0.921488,0.384245,0.553517,0.1489619999999999,-0.345488
786,-0.059686,0.935489,0.348263,0.6605770000000001,0.251492,-0.357525
787,-0.038971,0.952175,0.303042,0.341751,0.173069,-0.666872
788,0.008066,0.968457,0.249033,0.06336,0.105716,-0.603617
789,0.066349,0.979252,0.191455,-0.359944,0.702129,-0.384418
790,0.125579,0.98239,0.13832,-0.488677,1.015886,-0.350555
791,0.178346,0.978247,0.105917,-0.690843,1.0270629999999998,-0.214757
792,0.226279,0.970558,0.082512,-0.8476020000000001,0.777138,-0.589547
793,0.2742199999999999,0.960295,0.051279,-0.184925,0.476838,-0.433893
794,0.32329,0.946089,0.0197919999999999,0.272413,0.431962,-0.021227
795,0.3749969999999999,0.927014,-0.003831,-0.208676,0.38663,-0.4395439999999999
796,0.409551,0.911288,-0.042613,-0.5168050000000001,0.057279,-0.0846
797,0.431502,0.8984540000000001,-0.081113,-0.543151,-0.173982,-0.008151
798,0.4458569999999999,0.887337,-0.1176329999999999,-0.4486189999999999,-0.314553,0.12302
799,0.4561689999999999,0.8769469999999999,-0.151218,-0.364098,-0.262384,0.3109159999999999
800,0.466956,0.8663290000000001,-0.177259,-0.310141,-0.357738,0.172498
801,0.4780689999999999,0.8561030000000001,-0.196295,-0.288677,-0.353478,0.121832
802,0.4843229999999999,0.849101,-0.21084,-0.404504,-0.347255,0.010965
803,0.483383,0.845873,-0.225463,-0.453995,-0.4519069999999999,0.104338
804,0.475097,0.847716,-0.2359119999999999,-0.278213,-0.605712,0.160824
805,0.4596229999999999,0.855751,-0.2375519999999999,-0.164549,-0.6220319999999999,0.068576
806,0.440723,0.867951,-0.2289489999999999,0.041363,-0.654435,-0.352258
807,0.423763,0.879072,-0.218293,0.469639,-0.471067,-0.645903
808,0.429516,0.881418,-0.1965,0.813404,-0.122293,-0.675829
809,0.435544,0.884114,-0.169229,0.922976,0.31364,-0.88021
810,0.4383859999999999,0.887598,-0.141355,0.287627,-0.0074709999999999,0.026213
811,0.4291069999999999,0.896993,-0.10614,-0.5824729999999999,-0.361623,0.358657
812,0.401582,0.913269,-0.0683,-1.565034,0.320999,-1.201963
813,0.382849,0.921325,-0.067672,-0.018195,1.06128,0.429504
814,0.381107,0.9238,-0.036673,0.024685,0.352568,0.302405
815,0.3684989999999999,0.929503,-0.015008,-0.6089319999999999,-0.060302,-0.50843
816,0.340087,0.940343,0.009408,-0.620757,0.065791,0.301291
817,0.302125,0.952799,0.029775,-0.273179,0.19956,0.269877
818,0.271711,0.9616,0.0386079999999999,-0.04466,0.337976,0.214535
819,0.251838,0.966397,0.051454,0.234963,0.2424199999999999,0.20462
820,0.2368849999999999,0.968769,0.073242,0.026055,0.020458,0.105499
821,0.221996,0.969583,0.10304,-0.035518,-0.044229,0.1181359999999999
822,0.204836,0.970019,0.130753,-0.17499,-0.038333,-0.0699169999999999
823,0.185909,0.970798,0.151591,-0.08308,0.01907,-0.0695139999999999
824,0.165232,0.971326,0.170922,0.038732,0.0009789999999999,-0.077767
825,0.143604,0.971901,0.1864849999999999,0.118893,-0.003853,-0.115776
826,0.1237109999999999,0.972326,0.198165,0.272468,-0.095037,-0.0906049999999999
827,0.105577,0.972851,0.205926,0.303588,-0.099346,-0.085519
828,0.087325,0.973195,0.212738,0.299531,0.00439,-0.182525
829,0.068935,0.97377,0.216819,0.326954,0.155731,-0.210486
830,0.051769,0.974319,0.219121,0.4962649999999999,0.230332,-0.322347
831,0.03546,0.974533,0.2213989999999999,0.542024,0.2333219999999999,-0.411188
832,0.019614,0.974354,0.2241449999999999,0.3761219999999999,0.248821,-0.465966
833,0.001798,0.974382,0.224871,0.344974,0.3516829999999999,-0.5289020000000001
834,-0.014031,0.975372,0.220098,0.221291,0.461319,-0.638418
835,-0.023166,0.977914,0.207698,0.169147,0.701758,-0.550303
836,-0.023858,0.9829,0.182566,0.244745,0.643367,-0.481043
837,-0.0112769999999999,0.989264,0.145678,-0.010528,0.485056,-0.679537
838,0.0160669999999999,0.995027,0.098263,0.057099,0.319213,-0.6988489999999999
839,0.0603039999999999,0.997395,0.039473,0.384703,0.348537,-0.432967
840,0.118306,0.992596,-0.027364,0.386775,0.3447909999999999,-0.058925
841,0.18039,0.979896,-0.085189,0.256729,0.38453,0.211348
842,0.238809,0.961438,-0.1363869999999999,-0.424447,0.3377409999999999,0.097859
843,0.279541,0.942163,-0.184879,-0.410889,0.459769,0.604664
844,0.318427,0.921757,-0.221277,0.28692,0.34071,-0.0678309999999999
845,0.380345,0.884493,-0.270192,-0.741414,0.196973,0.047902
846,0.4141649999999999,0.8488370000000001,-0.3285389999999999,-0.473995,0.01214,0.444902
847,0.44736,0.8157439999999999,-0.366641,-0.174471,-0.075083,0.077625
848,0.480926,0.7820229999999999,-0.396417,-0.039611,-0.069498,0.106668
849,0.5032939999999999,0.7487229999999999,-0.4314,-0.0202,-0.172215,0.222431
850,0.508165,0.720715,-0.471525,0.001143,-0.125988,0.317167
851,0.4957689999999999,0.70568,-0.5061859999999999,-0.44125,-0.441291,0.516471
852,0.474366,0.705607,-0.526396,-0.500397,-0.791834,0.458067
853,0.4540149999999999,0.721322,-0.523031,-0.655233,-0.931222,0.426016
854,0.4449689999999999,0.748193,-0.4921439999999999,-0.373268,-1.09646,0.486376
855,0.452681,0.781909,-0.428596,-0.188643,-1.2321950000000002,0.712471
856,0.44659,0.821672,-0.3541289999999999,-0.681026,-1.0327620000000002,0.250583
857,0.424799,0.852376,-0.304951,0.06835,-0.603414,-0.281093
858,0.411701,0.877813,-0.244827,-0.1129339999999999,2.033014,-0.631043
859,0.397403,0.8915190000000001,-0.2173909999999999,0.7080960000000001,0.65914,0.633193
860,0.382161,0.8983469999999999,-0.21661,-0.208165,-0.518541,-0.000996
861,0.365269,0.908867,-0.20133,-0.6350600000000001,-0.448708,0.051016
862,0.328214,0.928136,-0.175595,-0.5604680000000001,-0.172643,0.244732
863,0.287977,0.946422,-0.146111,-0.371977,0.359822,0.233742
864,0.256438,0.959264,-0.118518,0.203843,0.813625,0.241733
865,0.235904,0.966885,-0.097352,0.207929,0.106357,0.088715
866,0.219002,0.972679,-0.0769929999999999,-0.003335,0.044564,0.0120209999999999
867,0.197581,0.978865,-0.052701,-0.122599,-0.1388839999999999,-0.00043
868,0.173618,0.984405,-0.028214,-0.034885,-0.228287,0.088273
869,0.146919,0.989122,-0.00678,0.057076,-0.2341929999999999,0.040669
870,0.120414,0.992628,0.013552,0.084634,-0.1900609999999999,-0.008578
871,0.095303,0.99486,0.034124,0.089786,-0.167009,-0.048117
872,0.0734529999999999,0.995789,0.05479,0.173251,-0.157578,-0.079998
873,0.053263,0.995845,0.073807,0.2050679999999999,-0.158458,-0.088715
874,0.031901,0.995296,0.091429,0.248601,-0.161938,-0.116362
875,0.009581,0.994281,0.1063289999999999,0.29236,-0.105289,-0.185172
876,-0.013706,0.99292,0.117953,0.467228,0.063461,-0.219546
877,-0.036011,0.991371,0.126006,0.570008,0.121117,-0.26892
878,-0.054012,0.989759,0.132106,0.573833,0.13608,-0.310817
879,-0.070083,0.988075,0.137066,0.491943,0.196312,-0.307873
880,-0.083896,0.986945,0.13745,0.267399,0.379876,-0.34529
881,-0.093595,0.986564,0.133875,0.241376,0.623848,-0.458277
882,-0.096895,0.987877,0.121253,0.458971,0.765571,-0.462226
883,-0.091345,0.99118,0.095971,0.156729,0.658295,-0.566445
884,-0.0764929999999999,0.995196,0.061048,0.142823,0.261869,-0.659712
885,-0.050525,0.998556,0.018086,0.19353,0.183131,-0.546193
886,-0.010516,0.999269,-0.036659,0.550692,0.212019,-0.29905
887,0.045536,0.993955,-0.099865,0.693753,0.276446,0.25668
888,0.108356,0.981555,-0.15749,0.490124,0.179608,0.415226
889,0.168103,0.965828,-0.197264,0.147739,0.518853,0.25865
890,0.212108,0.951753,-0.221744,-0.342113,0.327452,0.504871
891,0.247498,0.935709,-0.251374,-0.152084,0.306937,0.2547
892,0.2988889999999999,0.908557,-0.291863,0.153046,0.386227,-0.242439
893,0.3393739999999999,0.8763110000000001,-0.341906,-0.5103340000000001,-0.005736,0.385057
894,0.371199,0.8446370000000001,-0.385741,-0.150694,-0.110048,0.197432
895,0.40002,0.812246,-0.424543,-0.205348,-0.116521,0.070265
896,0.418502,0.780518,-0.464375,-0.12062,-0.220261,0.295964
897,0.430303,0.751075,-0.500722,-0.090688,-0.242774,0.399694
898,0.435597,0.726626,-0.531287,-0.157521,-0.300128,0.458945
899,0.424635,0.713196,-0.557703,-0.499372,-0.460252,0.551737
900,0.405308,0.7136359999999999,-0.5713550000000001,-0.5240819999999999,-0.786802,0.496556
901,0.391302,0.7268020000000001,-0.564481,-0.513021,-0.956385,0.356153
902,0.393863,0.750657,-0.530454,-0.146091,-1.015687,0.357435
903,0.409328,0.7844909999999999,-0.465856,-0.063182,-0.8273370000000001,0.530614
904,0.404136,0.821795,-0.401649,-0.435264,-0.621951,-0.401788
905,0.3866219999999999,0.8543370000000001,-0.347315,-0.1121619999999999,0.0078,0.21139
906,0.367683,0.8855059999999999,-0.284047,0.522148,3.153678,-0.8358110000000001
907,0.356005,0.898229,-0.25776,0.358015,0.007502,0.254677
908,0.343368,0.90586,-0.248016,-0.195403,-0.470252,-0.2448429999999999
909,0.319015,0.919445,-0.229879,-0.444183,-0.375225,0.1056569999999999
910,0.277294,0.939284,-0.2021099999999999,-0.364513,-0.134047,0.384941
911,0.234629,0.95693,-0.170962,-0.301249,0.170999,0.392932
912,0.200186,0.970091,-0.137272,0.17135,0.7496659999999999,0.261203
913,0.174402,0.978673,-0.108523,0.35491,0.028072,0.083712
914,0.15398,0.984691,-0.081651,0.062176,0.02155,-0.125533
915,0.130216,0.990026,-0.053722,0.081621,-0.064107,-0.145787
916,0.104545,0.994099,-0.028834,0.132515,-0.278233,-0.051351
917,0.07497,0.997143,-0.008839,0.1429099999999999,-0.336209,-0.060726
918,0.044287,0.998961,0.010405,0.210916,-0.410506,-0.0521679999999999
919,0.01654,0.999377,0.031036,0.214936,-0.380557,-0.0240319999999999
920,-0.006284,0.99867,0.051099,0.165906,-0.313321,-0.036069
921,-0.024338,0.99743,0.067325,0.1201329999999999,-0.218164,-0.085254
922,-0.04011,0.99593,0.080659,0.087122,-0.1829869999999999,-0.232591
923,-0.054853,0.994105,0.0934649999999999,0.137022,-0.123271,-0.260259
924,-0.0706799999999999,0.991841,0.106049,0.403901,0.113231,-0.169053
925,-0.086315,0.989847,0.1128849999999999,0.489392,0.293066,-0.193268
926,-0.098767,0.988309,0.116104,0.516583,0.22864,-0.228729
927,-0.1108069999999999,0.986895,0.117257,0.7482270000000001,0.228513,-0.231423
928,-0.121998,0.9855,0.11788,0.755757,0.332661,-0.211035
929,-0.13259,0.984189,0.1174,0.3655,0.360584,-0.262466
930,-0.139268,0.983212,0.117846,0.087694,0.7791319999999999,-0.323214
931,-0.140145,0.983495,0.114397,0.138345,0.94958,-0.384447
932,-0.134461,0.986154,0.097006,-0.0213919999999999,0.705924,-0.5532130000000001
933,-0.1199369999999999,0.990599,0.065719,-0.035794,0.537828,-0.658127
934,-0.093789,0.995388,0.019928,0.320839,0.19495,-0.6089939999999999
935,-0.0523059999999999,0.997751,-0.041814,0.688231,0.120871,-0.333491
936,0.007787,0.993858,-0.110351,0.792888,0.21299,0.02597
937,0.075686,0.984264,-0.159646,0.507612,0.4061929999999999,0.336923
938,0.13863,0.972832,-0.185398,-0.315708,0.519798,0.319904
939,0.188136,0.959543,-0.209461,-0.5105390000000001,0.3328,0.484303
940,0.233748,0.941196,-0.243936,-0.468657,0.249875,0.469141
941,0.291386,0.911194,-0.291225,-0.354543,0.560531,-0.66576
942,0.333347,0.8797280000000001,-0.339046,-0.486301,-0.005002,0.540447
943,0.374469,0.850196,-0.3700449999999999,-0.225406,-0.230705,0.2756389999999999
944,0.411224,0.816914,-0.404401,-0.313476,-0.089482,0.125593
945,0.434482,0.784791,-0.441954,-0.175998,-0.175416,0.245055
946,0.453164,0.752904,-0.477256,-0.048425,-0.179051,0.315757
947,0.461304,0.7267140000000001,-0.509,-0.320831,-0.188903,0.464017
948,0.455039,0.713121,-0.533285,-0.480842,-0.362307,0.471258
949,0.44063,0.714258,-0.5437609999999999,-0.579943,-0.822016,0.4100939999999999
950,0.430854,0.729727,-0.530903,-0.312659,-0.946616,0.295979
951,0.43346,0.755346,-0.491488,0.058971,-0.9006850000000001,0.499453
952,0.439745,0.7894100000000001,-0.42831,-0.358904,-0.817685,0.524853
953,0.426533,0.824478,-0.3718869999999999,0.053554,-0.6475069999999999,-0.100388
954,0.415276,0.8526360000000001,-0.3170989999999999,0.271949,0.041484,0.24378
955,0.404884,0.873886,-0.269046,1.6405419999999995,3.325684,-0.705762
956,0.391389,0.883732,-0.256565,0.8446950000000001,0.8878590000000001,0.340092
957,0.376638,0.893819,-0.243359,-0.418783,-0.83521,0.113186
958,0.355521,0.908529,-0.219482,-0.627738,-0.51557,0.277542
959,0.319481,0.929085,-0.186347,-0.4688029999999999,-0.192482,0.386893
960,0.282497,0.947726,-0.148335,-0.161983,0.541883,0.2131239999999999
961,0.252292,0.960944,-0.113695,0.8417629999999999,0.664712,0.194994
962,0.229177,0.96897,-0.092558,0.2207739999999999,0.011133,0.033812
963,0.205792,0.976193,-0.068463,-0.022458,-0.075665,0.0211449999999999
964,0.179638,0.982928,-0.039679,-0.200695,-0.261767,-0.018701
965,0.151328,0.988387,-0.013522,-0.1728579999999999,-0.234542,-0.00787
966,0.119504,0.992799,0.007726,-0.011792,-0.164232,-0.028692
967,0.088118,0.995681,0.0290829999999999,0.0997779999999999,-0.16339,-0.05397
968,0.059232,0.996924,0.051243,0.158618,-0.2013609999999999,-0.099674
969,0.033954,0.996788,0.072463,0.160169,-0.202767,-0.054992
970,0.01078,0.995767,0.0912309999999999,0.183083,-0.235803,-0.093871
971,-0.011339,0.9943,0.1059619999999999,0.196383,-0.202339,-0.083669
972,-0.03476,0.992595,0.116351,0.228653,-0.165858,-0.13399
973,-0.0582539999999999,0.990811,0.122019,0.507671,0.096606,-0.257349
974,-0.076919,0.989092,0.125577,0.661529,0.254133,-0.320569
975,-0.0909529999999999,0.987368,0.129694,0.727962,0.360807,-0.313776
976,-0.100731,0.986185,0.131458,0.595314,0.280569,-0.283146
977,-0.109872,0.985826,0.126745,0.231118,0.3542929999999999,-0.377218
978,-0.116301,0.986426,0.115868,0.082838,0.58796,-0.510125
979,-0.1147339999999999,0.988844,0.094934,0.406055,0.929628,-0.5661109999999999
980,-0.101319,0.993264,0.056128,0.289964,0.629813,-0.660117
981,-0.071377,0.997435,0.004385,0.3377199999999999,0.3543409999999999,-0.7589020000000001
982,-0.026225,0.998327,-0.051448,0.28689,0.277323,-0.568638
983,0.030323,0.993811,-0.106825,0.425426,0.193201,-0.256548
984,0.09558,0.982687,-0.158692,0.424699,0.289973,-0.035446
985,0.160488,0.96553,-0.2049079999999999,0.236118,0.534089,0.357252
986,0.205548,0.950017,-0.2349679999999999,-0.251034,0.068522,0.84091
987,0.234359,0.935361,-0.264893,-0.126525,0.103595,0.925019
988,0.281812,0.912589,-0.296236,0.2081329999999999,0.20176,0.404253
989,0.329194,0.876366,-0.351578,-1.256852,0.540367,-0.431976
990,0.353087,0.845397,-0.400783,-0.453093,-0.14865,0.716564
991,0.388264,0.812675,-0.434517,-0.361286,-0.181617,0.409188
992,0.420095,0.7794979999999999,-0.464647,-0.16358,-0.075656,0.080248
993,0.4432069999999999,0.745881,-0.497216,-0.046937,-0.199128,0.2390679999999999
994,0.4518029999999999,0.7170479999999999,-0.5307649999999999,-0.339346,-0.293189,0.596332
995,0.4439899999999999,0.7000430000000001,-0.559293,-0.376683,-0.5093989999999999,0.518109
996,0.4270279999999999,0.696505,-0.576649,-0.5186109999999999,-0.69208,0.39423
997,0.410232,0.7073020000000001,-0.575699,-0.533676,-0.836254,0.354431
998,0.403987,0.729847,-0.551465,-0.423884,-0.930698,0.330655
999,0.41731,0.7612300000000001,-0.4963619999999999,-0.155164,-0.90242,0.6504
1000,0.427566,0.800085,-0.420766,-0.726059,-0.826651,-0.1148319999999999
1001,0.416045,0.833206,-0.364235,0.1948099999999999,-0.066788,0.634728
1002,0.408738,0.8628809999999999,-0.2972579999999999,0.76625,3.380894,-1.19235
1003,0.4000599999999999,0.8791889999999999,-0.258789,1.5064959999999998,1.5601120000000002,0.2399599999999999
1004,0.387352,0.8867290000000001,-0.252315,-0.228173,-0.698466,-0.280934
1005,0.372181,0.8967940000000001,-0.239235,-0.594547,-0.688497,0.0886
1006,0.339973,0.916743,-0.209745,-0.486427,-0.473063,0.299161
1007,0.29983,0.937494,-0.1766309999999999,-0.387843,0.173117,0.418575
1008,0.265077,0.953966,-0.140261,0.196166,0.96948,0.259372
1009,0.2382179999999999,0.96492,-0.110326,0.563311,0.357163,0.105443
1010,0.2166,0.972415,-0.086506,0.139265,-0.048739,-0.0541799999999999
1011,0.190933,0.979641,-0.061938,0.003479,-0.131665,-0.075696
1012,0.162509,0.985951,-0.038482,0.016492,-0.201069,-0.01091
1013,0.132509,0.990995,-0.0189569999999999,0.114546,-0.228559,-0.01182
1014,0.100771,0.994901,-0.002423,0.201566,-0.271161,-0.026767
1015,0.069779,0.997453,0.014386,0.2151179999999999,-0.2912909999999999,-0.0567909999999999
1016,0.0427699999999999,0.998585,0.03142,0.217423,-0.2407719999999999,-0.054263
1017,0.021762,0.998614,0.047794,0.144803,-0.226122,0.0008349999999999
1018,0.003462,0.997995,0.063091,0.114214,-0.236612,-0.079357
1019,-0.014508,0.996977,0.0762419999999999,0.126904,-0.212828,-0.144358
1020,-0.033325,0.995522,0.088387,0.2444909999999999,-0.103097,-0.175576
1021,-0.052652,0.993794,0.097916,0.332041,-0.000752,-0.193985
1022,-0.071879,0.991969,0.104005,0.552287,0.268605,-0.167634
1023,-0.0889549999999999,0.990196,0.107639,0.611721,0.299218,-0.2194559999999999
1024,-0.103046,0.988685,0.10895,0.637698,0.332406,-0.25632
1025,-0.116115,0.987534,0.106206,0.306148,0.386611,-0.3093309999999999
1026,-0.127541,0.986649,0.101212,0.203774,0.535812,-0.321808
1027,-0.133236,0.986716,0.092876,0.194485,0.656381,-0.290218
1028,-0.1302579999999999,0.988652,0.074746,0.111535,0.781047,-0.507332
1029,-0.117017,0.992016,0.046896,0.077482,0.334965,-0.8555510000000001
1030,-0.089287,0.99594,0.010889,0.122444,0.208329,-0.852686
1031,-0.044249,0.998172,-0.0410209999999999,0.513396,0.169476,-0.431192
1032,0.019116,0.994704,-0.100937,0.702167,0.302965,-0.009811
1033,0.088516,0.984584,-0.150829,0.562759,0.381322,0.232219
1034,0.152246,0.970882,-0.1849319999999999,0.101401,0.5333289999999999,0.2747449999999999
1035,0.197384,0.956609,-0.214311,-0.683025,0.365595,0.391191
1036,0.2333179999999999,0.939161,-0.252053,-0.6779890000000001,0.271105,0.445031
1037,0.285361,0.910245,-0.300026,-0.129324,0.671496,-0.705651
1038,0.326885,0.878184,-0.349186,-0.451106,0.169164,0.362354
1039,0.368419,0.845721,-0.386026,-0.316707,-0.0759919999999999,0.137048
1040,0.405383,0.81129,-0.4212689999999999,-0.316241,-0.0924779999999999,0.135091
1041,0.430612,0.7781680000000001,-0.457189,-0.053674,-0.174011,0.163458
1042,0.445385,0.746691,-0.494043,-0.018994,-0.333071,0.404078
1043,0.4483649999999999,0.7217819999999999,-0.527251,-0.209123,-0.359508,0.462051
1044,0.433988,0.711008,-0.553279,-0.468305,-0.575037,0.547404
1045,0.4123779999999999,0.715058,-0.564475,-0.578729,-0.93245,0.517401
1046,0.400161,0.731088,-0.552609,-0.458449,-0.983331,0.463925
1047,0.403507,0.756026,-0.515365,-0.2265199999999999,-1.026793,0.388031
1048,0.408368,0.78868,-0.45958,-0.323438,-0.7793869999999999,0.4874729999999999
1049,0.401384,0.822925,-0.402093,-0.44185,-0.766513,0.165689
1050,0.404421,0.851369,-0.334077,0.586363,-0.2313889999999999,-0.039549
1051,0.420956,0.864712,-0.273972,2.099216,4.099353,-1.6273799999999998
1052,0.407211,0.872865,-0.268845,1.283509,1.955672,-0.442154
1053,0.391347,0.885207,-0.2514909999999999,-0.4902689999999999,-0.989852,0.570751
1054,0.377592,0.8987219999999999,-0.222967,-0.991774,-1.027719,-0.037729
1055,0.351121,0.917955,-0.1845619999999999,-0.7476970000000001,0.011458,0.3386
1056,0.317889,0.937355,-0.142489,-0.504855,1.009529,0.097552
1057,0.285007,0.952911,-0.103545,0.476117,1.132676,0.110564
1058,0.259675,0.962657,-0.076486,0.359634,0.20783,0.1322569999999999
1059,0.2354,0.970638,-0.049378,-0.067294,-0.0926159999999999,0.087509
1060,0.206368,0.97826,-0.0202229999999999,-0.070626,-0.131168,0.094824
1061,0.171931,0.985102,0.001511,0.222646,-0.118174,0.1295
1062,0.137499,0.990316,0.018883,0.511976,-0.117773,0.166481
1063,0.1097619999999999,0.99327,0.036819,0.357401,-0.21968,-0.00972
1064,0.08526,0.994869,0.0543549999999999,0.186117,-0.28001,-0.090748
1065,0.065611,0.995069,0.074306,0.149081,-0.186215,-0.080898
1066,0.0504019999999999,0.994562,0.091074,0.147596,-0.082788,-0.1066839999999999
1067,0.036733,0.994213,0.100894,0.198665,-0.1249349999999999,-0.132877
1068,0.02489,0.994222,0.104359,0.16177,-0.178807,-0.244251
1069,0.0150979999999999,0.994734,0.101314,-0.052223,-0.167677,-0.132946
1070,0.003423,0.995271,0.097012,-0.018712,-0.120195,0.000492
1071,-0.010641,0.995596,0.093076,0.233862,-0.065985,0.052508
1072,-0.025077,0.995578,0.090464,0.55857,0.037015,-0.025706
1073,-0.03709,0.995186,0.090641,0.533611,0.230339,-0.172657
1074,-0.048992,0.994307,0.094558,0.436275,0.248094,-0.22734
1075,-0.063384,0.992965,0.099954,0.382796,0.267457,-0.2465909999999999
1076,-0.080202,0.991411,0.10324,0.317171,0.349333,-0.332519
1077,-0.096199,0.9901,0.102156,0.180717,0.461362,-0.175596
1078,-0.105611,0.989868,0.094842,0.2070659999999999,0.5071260000000001,-0.099069
1079,-0.110377,0.990747,0.078897,0.0344029999999999,0.502432,-0.357568
1080,-0.1103619999999999,0.992455,0.053307,0.097072,0.357826,-0.476875
1081,-0.1028319999999999,0.994536,0.017681,0.119907,0.193681,-0.4139819999999999
1082,-0.0761179999999999,0.996767,-0.025521,0.635139,-0.060152,-0.23365
1083,-0.028752,0.997859,-0.058659,0.429708,0.109823,-0.202693
1084,0.02882,0.996472,-0.0787539999999999,0.140567,0.380878,-0.133923
1085,0.085985,0.991712,-0.095415,-0.011842,0.485232,-0.063841
1086,0.137961,0.98353,-0.116726,-0.8367829999999999,0.498754,-0.493534
1087,0.174094,0.973481,-0.148378,-1.323844,0.204497,0.332796
1088,0.1889839999999999,0.963768,-0.188222,-0.903599,-0.021232,0.5965020000000001
1089,0.21404,0.95053,-0.225101,-0.2258659999999999,0.4154819999999999,-0.608578
1090,0.244024,0.932903,-0.264832,-0.390584,0.18819,0.087097
1091,0.271502,0.914026,-0.3013889999999999,-0.3814869999999999,0.014319,0.282117
1092,0.298819,0.893023,-0.336466,-0.329077,-0.1257349999999999,0.1922859999999999
1093,0.320676,0.8715629999999999,-0.370861,-0.091352,-0.165188,0.089611
1094,0.336729,0.849699,-0.405731,0.0040149999999999,-0.169371,0.146942
1095,0.346082,0.8287959999999999,-0.439679,-0.048215,-0.152557,0.339063
1096,0.347575,0.8102590000000001,-0.471875,-0.132075,-0.225435,0.4294409999999999
1097,0.3408199999999999,0.794909,-0.5019520000000001,-0.162826,-0.34447,0.497084
1098,0.326381,0.784989,-0.5265569999999999,-0.105708,-0.396805,0.5173409999999999
1099,0.308583,0.781122,-0.5427890000000001,-0.190129,-0.505533,0.560336
1100,0.291405,0.781831,-0.551198,-0.2301409999999999,-0.4932109999999999,0.564717
1101,0.274184,0.7866310000000001,-0.553199,-0.330031,-0.476328,0.4231789999999999
1102,0.259059,0.796355,-0.5465369999999999,-0.272151,-0.588957,0.2416199999999999
1103,0.246114,0.810717,-0.531189,-0.1234329999999999,-0.532946,-0.103851
1104,0.232894,0.827518,-0.5108520000000001,0.177095,-0.269473,-0.353589
1105,0.234177,0.84503,-0.4807079999999999,0.423904,0.191347,-0.460988
1106,0.244005,0.863814,-0.4407729999999999,0.603422,0.491914,-0.540672
1107,0.244754,0.8769540000000001,-0.41357,0.770794,-0.0417639999999999,-0.5024609999999999
1108,0.2514349999999999,0.8818940000000001,-0.398794,0.526122,-0.490689,-0.288172
1109,0.271044,0.8878530000000001,-0.371813,0.269636,-0.354604,0.254808
1110,0.286778,0.90584,-0.311776,0.500255,0.178404,0.938104
1111,0.286439,0.923367,-0.255613,0.137939,1.219287,-0.455904
1112,0.303765,0.914834,-0.266077,0.459327,1.9423740000000005,-1.000357
1113,0.33057,0.901598,-0.278992,-0.930043,-0.117739,0.076676
1114,0.341788,0.899724,-0.271423,-1.542959,-0.630894,0.124588
1115,0.347909,0.908437,-0.2317159999999999,-0.961312,-0.700918,0.923046
1116,0.346703,0.917854,-0.193214,-0.829217,-0.644142,0.749595
1117,0.333947,0.925938,-0.176379,-0.269815,0.858349,0.435
1118,0.3235679999999999,0.933055,-0.157171,0.443843,0.547383,0.278143
1119,0.327151,0.936017,-0.129751,0.0636419999999999,0.088137,0.2948969999999999
1120,0.336078,0.936571,-0.09938,-0.43648,0.003584,0.342392
1121,0.339012,0.938138,-0.070422,-0.5425800000000001,-0.018597,0.375598
1122,0.332951,0.941893,-0.044414,-0.4231149999999999,0.022615,0.403514
1123,0.324253,0.945727,-0.021222,-0.195515,-0.030795,0.461896
1124,0.313772,0.949491,0.001637,-0.135596,-0.04434,0.441738
1125,0.301816,0.95308,0.023156,-0.080198,0.125168,0.536643
1126,0.295979,0.95416,0.044319,0.061459,0.220293,0.582252
1127,0.292664,0.954073,0.0638919999999999,0.041428,-0.008364,0.375836
1128,0.283709,0.955097,0.085373,0.2034119999999999,-0.08266,0.204117
1129,0.273704,0.956127,0.104387,0.397393,-0.090633,0.261946
1130,0.264549,0.957616,0.113909,0.442238,-0.259664,0.20175
1131,0.251903,0.960331,0.119572,0.345234,-0.28069,0.161754
1132,0.23709,0.962968,0.12834,0.258271,-0.259904,0.188798
1133,0.2226909999999999,0.964559,0.14151,0.1712,-0.133626,0.251801
1134,0.205671,0.965947,0.1569549999999999,0.319705,-0.2225849999999999,-0.215167
1135,0.191582,0.967882,0.1627569999999999,0.455528,-0.252123,-0.357139
1136,0.183117,0.969393,0.16351,0.482411,-0.097063,-0.160611
1137,0.179018,0.970416,0.161974,0.257109,-0.010256,-0.243425
1138,0.177924,0.971804,0.154692,0.0947809999999999,0.088148,-0.23387
1139,0.1774859999999999,0.973547,0.143861,0.045537,0.08642,-0.1565109999999999
1140,0.1769609999999999,0.975676,0.129352,0.007136,0.073915,-0.1468529999999999
1141,0.174822,0.977778,0.115663,-0.13666,0.129659,0.146666
1142,0.168573,0.979814,0.10742,-0.190683,0.148772,0.125338
1143,0.154475,0.982476,0.1042609999999999,0.076665,0.475883,0.033312
1144,0.134811,0.985338,0.1045359999999999,0.358201,0.572325,-0.037015
1145,0.111275,0.987964,0.107412,0.399559,0.6178710000000001,-0.128957
1146,0.08427,0.990251,0.110872,0.3522389999999999,0.629271,-0.193376
1147,0.055459,0.99208,0.112666,0.380179,0.620362,-0.122431
1148,0.028868,0.993421,0.1107799999999999,0.268236,0.418688,-0.149827
1149,0.009538,0.994451,0.1047319999999999,0.158065,0.330683,-0.19015
1150,-0.000717,0.995232,0.097492,0.123856,0.13343,-0.152149
1151,-0.000977,0.995791,0.0916049999999999,0.3040469999999999,0.0688759999999999,-0.088752
1152,0.012717,0.996482,0.082786,0.5082180000000001,-0.056526,-0.11988
1153,0.044241,0.996688,0.068176,0.534647,0.012727,-0.170822
1154,0.093536,0.994374,0.049643,0.362824,0.136013,-0.178427
1155,0.149914,0.988353,0.026003,-0.104717,0.418034,-0.201464
1156,0.203461,0.979065,-0.005386,-0.5421600000000001,0.6698609999999999,-0.043976
1157,0.2530139999999999,0.966658,-0.03937,-0.553353,0.477571,-0.025526
1158,0.303703,0.949404,-0.079943,-0.480629,0.319258,-0.069471
1159,0.354891,0.926862,-0.122363,-0.359484,0.358798,-0.009228
1160,0.406922,0.899798,-0.157388,-0.159806,0.301511,0.09826
1161,0.463394,0.866567,-0.1852609999999999,-0.197082,0.246302,0.165928
1162,0.5191680000000001,0.827521,-0.2137,-0.18822,0.113672,0.302796
1163,0.565642,0.78522,-0.251938,0.020708,0.0618559999999999,0.350342
1164,0.604484,0.7379439999999999,-0.300055,0.047967,0.0528429999999999,0.382178
1165,0.638959,0.684794,-0.350404,-0.43086,0.170751,0.135988
1166,0.664374,0.632834,-0.397649,-0.448187,-0.018393,0.253164
1167,0.671971,0.592267,-0.444602,-0.458821,0.0037409999999999,0.2997039999999999
1168,0.674966,0.557421,-0.483425,-0.50483,-0.026186,0.36639
1169,0.665864,0.535225,-0.519764,-0.8769239999999999,-0.657067,0.612416
1170,0.648461,0.528683,-0.547714,-0.818901,-0.745846,0.566497
1171,0.6299560000000001,0.537103,-0.560958,-0.687466,-0.737099,0.468047
1172,0.617134,0.557131,-0.555651,-0.137947,-0.409319,0.201189
1173,0.611273,0.5854010000000001,-0.532586,-0.109213,-0.378996,0.200814
1174,0.610059,0.618846,-0.494828,-0.1255619999999999,-0.336009,0.233292
1175,0.613997,0.6482760000000001,-0.45027,0.122225,0.324441,-0.107454
1176,0.6278819999999999,0.6701590000000001,-0.395787,0.5226310000000001,1.593391,0.8733569999999999
1177,0.631822,0.692293,-0.348607,0.358138,1.804075,-1.047679
1178,0.618634,0.709472,-0.337546,-0.1326109999999999,0.208191,0.442359
1179,0.599255,0.731263,-0.325799,-0.589093,-0.618103,0.168526
1180,0.577711,0.755455,-0.309087,-0.714124,-0.277733,-0.105144
1181,0.552292,0.784402,-0.282281,-0.763428,0.494467,0.199914
1182,0.522401,0.815338,-0.249632,-0.262513,0.702865,0.391691
1183,0.4951399999999999,0.8405100000000001,-0.219942,-0.051933,0.4227039999999999,0.274858
1184,0.4695479999999999,0.8614790000000001,-0.193325,-0.080967,0.249346,0.2283889999999999
1185,0.444734,0.880481,-0.164196,-0.1047369999999999,0.074978,0.250362
1186,0.4161319999999999,0.898767,-0.138013,0.074988,0.0747289999999999,0.248853
1187,0.385266,0.915314,-0.117327,0.136829,0.069519,0.166918
1188,0.356494,0.929158,-0.097843,0.1456579999999999,-0.031788,0.127323
1189,0.329324,0.940896,-0.079086,-0.175149,-0.179498,0.108139
1190,0.303278,0.950885,-0.0619309999999999,-0.271464,-0.2495909999999999,0.069957
1191,0.277738,0.959667,-0.0435339999999999,-0.249433,-0.258388,0.05391
1192,0.253168,0.967061,-0.0263339999999999,-0.124323,-0.089558,0.057951
1193,0.228437,0.973458,-0.0137419999999999,-0.015729,-0.0975429999999999,-0.020072
1194,0.205194,0.978714,-0.002859,0.072226,-0.127624,-0.057047
1195,0.184725,0.982761,0.007151,0.167264,-0.024188,-0.046168
1196,0.164249,0.986296,0.015343,0.364819,0.150408,-0.03936
1197,0.1448549999999999,0.989203,0.02209,0.4511989999999999,0.202417,-0.063076
1198,0.126383,0.991588,0.027817,0.3915,0.1985819999999999,-0.25174
1199,0.108197,0.993692,0.029396,0.171756,0.341437,-0.37751
1200,0.093498,0.995299,0.025121,0.009316,0.815248,-0.351018
1201,0.08613,0.996161,0.015432,0.030875,0.938714,-0.381475
1202,0.092701,0.995685,-0.003434,-0.260242,0.633618,-0.68045
1203,0.111988,0.993075,-0.035413,-0.160358,0.365705,-0.7152430000000001
1204,0.146353,0.985985,-0.0800429999999999,0.218363,0.227836,-0.4448439999999999
1205,0.19735,0.971262,-0.1330319999999999,0.395821,0.185965,-0.0599309999999999
1206,0.2622239999999999,0.94693,-0.185895,0.328322,0.436951,0.259244
1207,0.3310079999999999,0.9161,-0.22625,0.1209119999999999,0.394081,0.327965
1208,0.388825,0.885072,-0.255845,-0.398072,0.395155,0.188157
1209,0.425805,0.856002,-0.293166,-0.5113310000000001,0.27971,0.6855
1210,0.450416,0.8251729999999999,-0.340897,-0.368187,0.290107,0.649964
1211,0.494558,0.777146,-0.3891679999999999,-0.948477,0.713576,-0.455955
1212,0.526342,0.727304,-0.440443,-0.567601,0.0158449999999999,0.702574
1213,0.554652,0.686178,-0.470657,-0.503443,-0.059514,0.5289149999999999
1214,0.584922,0.644199,-0.4928189999999999,-0.334449,-0.068531,0.215521
1215,0.606679,0.601969,-0.519202,-0.24999,-0.0991,0.187385
1216,0.615111,0.564236,-0.5507029999999999,-0.292769,-0.103818,0.29846
1217,0.612007,0.537474,-0.5801430000000001,-0.448952,-0.20349,0.551304
1218,0.594687,0.529664,-0.604815,-0.606482,-0.4429939999999999,0.542513
1219,0.572732,0.540413,-0.616384,-0.6867300000000001,-0.5691609999999999,0.482229
1220,0.56604,0.5666399999999999,-0.598761,-0.3302,-0.7385,0.41181
1221,0.577495,0.604444,-0.548766,-0.0742299999999999,-0.64758,0.644073
1222,0.590742,0.650072,-0.477941,-0.556028,-0.610613,0.567526
1223,0.589859,0.692342,-0.415603,0.105957,-0.294103,-0.038957
1224,0.5931350000000001,0.723356,-0.3534719999999999,0.619053,2.8736740000000003,-0.563459
1225,0.597893,0.7376020000000001,-0.313789,1.230232,2.258873,-0.026894
1226,0.572633,0.75571,-0.317789,-0.615769,-0.721042,0.297663
1227,0.556916,0.7750020000000001,-0.298684,-1.106843,-1.081292,-0.199195
1228,0.533726,0.8010729999999999,-0.270951,-0.865116,0.159056,0.4326939999999999
1229,0.499747,0.8348030000000001,-0.230981,-0.569663,1.030492,0.324883
1230,0.46656,0.8641840000000001,-0.188422,0.023171,1.070096,0.247703
1231,0.439005,0.8843040000000001,-0.1589819999999999,0.180837,0.110416,0.213471
1232,0.414679,0.899876,-0.135124,-0.148856,-0.139699,0.1024089999999999
1233,0.3900079999999999,0.914875,-0.104368,-0.185464,-0.179798,0.064466
1234,0.363104,0.928486,-0.077874,-0.039267,-0.2349889999999999,0.105996
1235,0.334552,0.940539,-0.058787,0.031735,-0.231615,0.1274819999999999
1236,0.305899,0.951146,-0.04172,0.0814,-0.197683,0.025348
1237,0.278373,0.9601,-0.026666,-0.086295,-0.246858,0.103113
1238,0.253006,0.967393,-0.011501,-0.098511,-0.253343,0.088207
1239,0.23073,0.973006,0.004253,-0.167192,-0.131331,0.03252
1240,0.2087449999999999,0.977827,0.016589,0.020488,-0.059965,-0.065494
1241,0.187403,0.981882,0.027979,0.198644,0.0733549999999999,-0.094797
1242,0.1688609999999999,0.984927,0.03741,0.215096,0.171552,-0.14648
1243,0.1534559999999999,0.987216,0.043022,0.184588,0.2348,-0.16407
1244,0.139553,0.989267,0.043256,0.235111,0.264884,-0.250027
1245,0.126318,0.991173,0.0401689999999999,0.294031,0.344734,-0.27404
1246,0.113969,0.992894,0.03417,0.109389,0.396663,-0.394307
1247,0.10432,0.994223,0.025148,0.0726049999999999,0.70994,-0.407777
1248,0.101149,0.994795,0.012068,0.2227489999999999,0.802782,-0.412337
1249,0.108901,0.993972,-0.012438,0.004762,0.556107,-0.5388310000000001
1250,0.130651,0.990201,-0.049252,-0.088385,0.24895,-0.618397
1251,0.16872,0.981175,-0.093936,0.162289,0.193477,-0.395047
1252,0.22464,0.964026,-0.142076,0.382477,0.239205,-0.004546
1253,0.292304,0.937882,-0.1869,0.278955,0.409866,0.329463
1254,0.359516,0.906185,-0.222651,0.206585,0.580922,0.378214
1255,0.414035,0.87382,-0.254971,-0.569293,0.423467,0.4117699999999999
1256,0.445607,0.842317,-0.303205,0.126842,0.4001,-0.159411
1257,0.47911,0.80348,-0.3533679999999999,-0.295608,0.8824629999999999,-0.881526
1258,0.522944,0.748775,-0.407262,-1.182841,0.749501,-0.433176
1259,0.546962,0.702964,-0.45461,-0.340267,0.077309,0.381628
1260,0.579362,0.655229,-0.484779,-0.486497,0.130614,0.272942
1261,0.603875,0.611589,-0.511167,-0.293496,0.016692,0.173245
1262,0.615007,0.5707810000000001,-0.544033,-0.243028,-0.118663,0.385113
1263,0.6128819999999999,0.538187,-0.578557,-0.403776,-0.254709,0.563008
1264,0.5981489999999999,0.521423,-0.6085510000000001,-0.49799,-0.340942,0.633957
1265,0.576654,0.524204,-0.626641,-0.6567470000000001,-0.71709,0.534279
1266,0.560032,0.54428,-0.624598,-0.590015,-0.8417040000000001,0.58906
1267,0.557212,0.5785,-0.595693,-0.524192,-0.918542,0.592123
1268,0.567467,0.624162,-0.537028,-0.639626,-0.623628,0.183039
1269,0.571113,0.67311,-0.469839,-0.359458,-0.516235,-0.6188600000000001
1270,0.574192,0.710017,-0.407647,0.83749,3.341359,-0.4286569999999999
1271,0.579547,0.740012,-0.341327,2.049375,3.750543,-1.020032
1272,0.568343,0.753373,-0.3307739999999999,-0.0988909999999999,0.059508,0.523737
1273,0.548983,0.7704,-0.324187,-0.972567,-0.757903,-0.103669
1274,0.529762,0.793329,-0.299959,-0.797417,-0.091059,0.497072
1275,0.499138,0.8244239999999999,-0.266798,-0.745232,0.210396,0.503996
1276,0.464754,0.8560120000000001,-0.22637,0.108565,0.925177,0.38001
1277,0.434199,0.8800690000000001,-0.192208,0.366354,0.649288,0.2988369999999999
1278,0.409219,0.8967790000000001,-0.168291,0.056036,-0.006459,0.190157
1279,0.386401,0.911625,-0.1401,-0.12929,-0.141209,0.059595
1280,0.36195,0.925494,-0.111563,-0.074353,-0.177097,0.024756
1281,0.337221,0.93723,-0.088744,0.003691,-0.205526,0.007293
1282,0.3109429999999999,0.947758,-0.07116,0.050873,-0.23711,0.002251
1283,0.2827989999999999,0.957494,-0.056785,-0.036217,-0.316243,0.09687
1284,0.256337,0.96564,-0.042712,-0.091878,-0.337527,0.10509
1285,0.234692,0.971742,-0.025134,-0.187466,-0.1905069999999999,0.032977
1286,0.213682,0.97686,-0.008873,-0.122129,-0.161964,0.031441
1287,0.191905,0.981393,0.005852,0.118215,-0.045083,-0.078484
1288,0.171809,0.984916,0.020382,0.361379,0.175896,-0.106137
1289,0.1544579999999999,0.987502,0.031232,0.464485,0.338837,-0.1197329999999999
1290,0.141142,0.989344,0.0356649999999999,0.3952199999999999,0.2822929999999999,-0.1144309999999999
1291,0.13159,0.990679,0.035122,0.215334,0.2727949999999999,-0.17184
1292,0.1215859999999999,0.992061,0.0320149999999999,0.031597,0.334644,-0.222598
1293,0.109677,0.993641,0.025347,-0.052121,0.357754,-0.262744
1294,0.099302,0.994923,0.016174,-0.092191,0.75143,-0.387253
1295,0.095139,0.99546,0.001907,0.252075,0.8337180000000001,-0.318328
1296,0.100386,0.994626,-0.025218,-0.018553,0.588671,-0.46137
1297,0.119019,0.990941,-0.062175,-0.17424,0.286708,-0.650167
1298,0.152907,0.98267,-0.1047579999999999,0.041322,0.215968,-0.5018100000000001
1299,0.202679,0.96722,-0.15298,0.199604,0.17342,-0.3003889999999999
1300,0.2665369999999999,0.942532,-0.201466,0.257298,0.34383,0.264882
1301,0.334689,0.910699,-0.242089,0.2134219999999999,0.494071,0.411584
1302,0.392606,0.8799549999999999,-0.267464,-0.5005310000000001,0.384709,0.2554099999999999
1303,0.428929,0.851611,-0.30129,-0.441609,0.2524389999999999,0.526143
1304,0.4543729999999999,0.8196200000000001,-0.348948,0.072315,0.318792,-0.097799
1305,0.4984159999999999,0.771324,-0.395775,-0.8566469999999999,0.501976,-0.282661
1306,0.5285380000000001,0.724536,-0.442371,-0.389912,-0.001346,0.618045
1307,0.558926,0.679938,-0.4746399999999999,-0.4335449999999999,0.081994,0.273957
1308,0.59029,0.636858,-0.49595,-0.411045,-0.052538,0.148401
1309,0.609047,0.595536,-0.523829,-0.333367,-0.075928,0.264536
1310,0.615201,0.5564859999999999,-0.558435,-0.400509,-0.164045,0.48446
1311,0.609685,0.524778,-0.594046,-0.550237,-0.167768,0.5612699999999999
1312,0.5923649999999999,0.509482,-0.624124,-0.572284,-0.296591,0.59353
1313,0.570439,0.51248,-0.641843,-0.7323189999999999,-0.571242,0.466534
1314,0.558505,0.532183,-0.6362800000000001,-0.621585,-0.642885,0.466251
1315,0.56284,0.564882,-0.603422,-0.21259,-0.5576949999999999,0.529539
1316,0.578809,0.607636,-0.5438350000000001,-0.5423859999999999,-0.4619609999999999,0.6127130000000001
1317,0.587388,0.654582,-0.475916,-0.668,-0.535945,-0.250433
1318,0.583901,0.693546,-0.42196,0.727271,2.301785,0.885064
1319,0.591134,0.7243390000000001,-0.354811,1.68241,3.613384,-1.04291
1320,0.595463,0.732952,-0.328941,0.535092,0.862309,0.334816
1321,0.575876,0.7477689999999999,-0.330463,-0.896066,-0.844693,-0.0615649999999999
1322,0.558996,0.767853,-0.312924,-0.868917,-0.683701,0.089444
1323,0.530076,0.79813,-0.286365,-0.684617,0.207928,0.393146
1324,0.495934,0.8306889999999999,-0.252986,-0.273888,1.151214,0.351024
1325,0.466238,0.857168,-0.218815,0.4675689999999999,0.784876,0.218205
1326,0.443404,0.8746729999999999,-0.195794,0.200974,0.31629,0.1245349999999999
1327,0.422104,0.8892700000000001,-0.1761319999999999,-0.2481989999999999,-0.087375,0.118195
1328,0.399187,0.904155,-0.152147,-0.299898,-0.171947,0.119966
1329,0.376736,0.917701,-0.126059,-0.123669,-0.190772,0.037696
1330,0.353245,0.929715,-0.1041359999999999,-0.0219919999999999,-0.106885,-0.017751
1331,0.326853,0.941066,-0.086936,0.020589,-0.177608,-0.017587
1332,0.29925,0.95147,-0.071765,0.021429,-0.225213,-0.009625
1333,0.273151,0.960299,-0.056665,-0.101886,-0.240893,0.021768
1334,0.248661,0.967666,-0.042261,-0.137546,-0.226211,0.022363
1335,0.2248389999999999,0.973984,-0.028274,-0.06926,-0.138153,-0.003495
1336,0.202648,0.979148,-0.014093,0.084965,-0.0257029999999999,-0.049872
1337,0.18294,0.98312,-0.001917,0.193326,0.0371279999999999,-0.044057
1338,0.165324,0.986207,0.007802,0.251455,0.107513,-0.021657
1339,0.148492,0.988802,0.0147199999999999,0.361594,0.218748,-0.0227
1340,0.132942,0.990942,0.018883,0.399101,0.278207,-0.090523
1341,0.118893,0.992723,0.019062,0.278781,0.278167,-0.187184
1342,0.106353,0.994216,0.014872,0.035981,0.273546,-0.253321
1343,0.095849,0.995353,0.009114,-0.12774,0.618371,-0.243123
1344,0.090173,0.995923,0.001638,-0.094644,0.75925,-0.248998
1345,0.093328,0.99553,-0.01436,-0.221181,0.710326,-0.543776
1346,0.106887,0.993415,-0.04121,-0.168639,0.428872,-0.791371
1347,0.134784,0.987955,-0.075997,0.0029879999999999,0.355673,-0.6780609999999999
1348,0.176958,0.976701,-0.121403,0.362898,0.270553,-0.382519
1349,0.232853,0.956629,-0.175037,0.263423,0.144263,0.231373
1350,0.299062,0.926327,-0.229082,0.226771,0.404728,0.597383
1351,0.359392,0.8964030000000001,-0.259416,-0.2958699999999999,0.371526,0.440568
1352,0.40326,0.8694930000000001,-0.2852369999999999,-0.580384,0.2165969999999999,0.3175699999999999
1353,0.433156,0.8404309999999999,-0.325653,-0.17754,0.232781,0.215881
1354,0.475463,0.7988,-0.368581,-0.477736,0.762632,-0.7627520000000001
1355,0.518051,0.748,-0.4148699999999999,-0.587158,0.173845,0.571029
1356,0.542514,0.7081310000000001,-0.451916,-0.316211,0.021727,0.469067
1357,0.569271,0.666766,-0.48099,-0.474422,0.002667,0.139346
1358,0.587403,0.624725,-0.514466,-0.285889,-0.009231,0.243531
1359,0.596282,0.5813119999999999,-0.5536449999999999,-0.358046,-0.0942669999999999,0.412287
1360,0.594774,0.543938,-0.591924,-0.432084,-0.089638,0.551687
1361,0.5840920000000001,0.521872,-0.621679,-0.6437689999999999,-0.497702,0.607245
1362,0.570052,0.515229,-0.639983,-0.709106,-0.5467390000000001,0.569457
1363,0.561062,0.521483,-0.642857,-0.712932,-0.5386489999999999,0.494007
1364,0.561971,0.5397460000000001,-0.626787,-0.381826,-0.7125060000000001,0.5092180000000001
1365,0.5714279999999999,0.568538,-0.591805,-0.2993949999999999,-0.6685439999999999,0.402626
1366,0.581803,0.605342,-0.543199,-0.278763,-0.584834,0.351732
1367,0.5910880000000001,0.643104,-0.486857,0.981681,0.466988,-0.6430560000000001
1368,0.620639,0.659446,-0.424188,1.334271,2.25425,0.61883
1369,0.634848,0.676109,-0.373955,0.144266,0.7498100000000001,0.084221
1370,0.612056,0.692979,-0.381005,-0.426433,-0.371095,1.092873
1371,0.595076,0.713817,-0.369253,-1.017958,-1.007885,-0.467051
1372,0.5781,0.738643,-0.346706,-0.8664139999999999,-0.082118,0.308086
1373,0.557031,0.7698699999999999,-0.3114699999999999,-0.794199,0.736416,0.381096
1374,0.538289,0.798887,-0.268367,0.125712,1.174684,0.321956
1375,0.520908,0.823032,-0.226432,0.286145,0.479489,0.2045809999999999
1376,0.504135,0.8426540000000001,-0.189156,-0.027023,-0.05968,0.186226
1377,0.484334,0.861347,-0.153292,-0.082936,-0.097691,0.160693
1378,0.46188,0.878575,-0.1215329999999999,-0.055096,0.032451,0.179196
1379,0.436026,0.8950309999999999,-0.093793,-0.022055,0.0585059999999999,0.110242
1380,0.407871,0.910397,-0.069392,0.110104,0.0004759999999999,0.009761
1381,0.3801719999999999,0.923667,-0.04802,-0.051681,-0.054755,-0.050705
1382,0.351155,0.935885,-0.028391,-0.203191,-0.194399,-0.007666
1383,0.3242489999999999,0.945928,-0.008897,-0.290069,-0.269155,0.026094
1384,0.301077,0.953488,0.0145009999999999,-0.245413,-0.168026,0.077998
1385,0.2802389999999999,0.959164,0.038297,-0.069744,-0.089275,-0.003751
1386,0.25924,0.964109,0.057298,0.1129829999999999,-0.144056,-0.060258
1387,0.242393,0.967345,0.074061,0.00486,-0.15489,-0.119593
1388,0.2304199999999999,0.969197,0.08694,-0.142515,-0.071309,-0.095759
1389,0.2202469999999999,0.970881,0.094215,-0.147478,0.0665029999999999,-0.010536
1390,0.207781,0.973199,0.098518,0.071791,0.091895,-0.01168
1391,0.195345,0.975293,0.103145,0.258421,0.122592,-0.011501
1392,0.1828509999999999,0.977089,0.108893,0.178248,0.184578,-0.1025609999999999
1393,0.1683339999999999,0.978867,0.116094,0.128068,0.36293,-0.219854
1394,0.152,0.980585,0.123875,0.090859,0.407645,-0.302967
1395,0.136091,0.982137,0.129925,0.03702,0.4249819999999999,-0.262935
1396,0.1234599999999999,0.983717,0.13059,0.033507,0.428927,-0.1116849999999999
1397,0.117569,0.9855,0.122324,-0.107651,0.4135479999999999,-0.105051
1398,0.118958,0.987213,0.1060849999999999,-0.287644,0.516205,-0.286383
1399,0.124917,0.988746,0.082303,-0.288613,0.288934,-0.333325
1400,0.137848,0.989209,0.049591,-0.033799,-0.017957,-0.282929
1401,0.164214,0.986368,0.010404,0.1704109999999999,0.023611,-0.219876
1402,0.207833,0.977929,-0.0213949999999999,0.421501,0.051628,-0.2145969999999999
1403,0.260694,0.964489,-0.042384,0.094958,0.2566719999999999,-0.198735
1404,0.312474,0.948069,-0.0593519999999999,-0.242757,0.473013,-0.058461
1405,0.357251,0.930924,-0.075822,-0.7416189999999999,0.4665829999999999,-0.281661
1406,0.391322,0.914531,-0.102453,-1.32516,0.227696,-0.147044
1407,0.409287,0.899897,-0.150555,-0.936982,-0.076502,0.394894
1408,0.4232869999999999,0.8856350000000001,-0.190986,-0.306771,0.128632,-0.2149739999999999
1409,0.447824,0.86667,-0.219852,-0.415171,0.194899,-0.0434079999999999
1410,0.4706079999999999,0.846505,-0.248909,-0.501293,0.073188,0.137718
1411,0.490196,0.826401,-0.27707,-0.526832,-0.005814,0.2187199999999999
1412,0.506268,0.80703,-0.303964,-0.415936,-0.106423,0.080117
1413,0.5184850000000001,0.788474,-0.330879,-0.398917,-0.106589,0.116584
1414,0.528234,0.770296,-0.357228,-0.2864739999999999,-0.087007,0.266377
1415,0.534837,0.75413,-0.381098,-0.28386,-0.097209,0.345285
1416,0.5356479999999999,0.7425470000000001,-0.402124,-0.303592,-0.182321,0.33523
1417,0.530313,0.736405,-0.420088,-0.442499,-0.358903,0.379683
1418,0.519892,0.736367,-0.432983,-0.484171,-0.401726,0.398071
1419,0.5057649999999999,0.742418,-0.4393359999999999,-0.531857,-0.39409,0.384496
1420,0.489471,0.7538,-0.43841,-0.558441,-0.350647,0.249964
1421,0.4720789999999999,0.7704439999999999,-0.428435,-0.470354,-0.381681,0.1550119999999999
1422,0.453903,0.790557,-0.411083,-0.258331,-0.395034,-0.087696
1423,0.4348329999999999,0.8112520000000001,-0.390881,0.1300319999999999,-0.120319,-0.5907319999999999
1424,0.4198159999999999,0.830619,-0.365822,0.418426,0.209756,-0.6728430000000001
1425,0.417534,0.8463290000000001,-0.330742,0.4382399999999999,0.322799,-0.659172
1426,0.41533,0.858906,-0.299633,0.508818,-0.2042119999999999,-0.3882489999999999
1427,0.423164,0.86335,-0.274876,0.18705,0.111397,-0.3166
1428,0.44014,0.863952,-0.244667,0.149338,0.793122,-0.131065
1429,0.438852,0.869382,-0.227117,-0.053247,0.7701600000000001,-0.853526
1430,0.438845,0.8635280000000001,-0.24846,-0.254305,-0.4199859999999999,0.246736
1431,0.4585,0.855634,-0.240137,-0.64777,-0.588438,0.41012
1432,0.4732699999999999,0.8587600000000001,-0.196329,-0.896381,-0.499644,0.774972
1433,0.47188,0.8701040000000001,-0.142289,-0.796847,-0.2478199999999999,0.51735
1434,0.460689,0.8811389999999999,-0.106574,-0.524501,0.70489,0.087806
1435,0.452768,0.888179,-0.078336,0.0268769999999999,0.586842,0.023419
1436,0.4455729999999999,0.893489,-0.0560279999999999,-0.272202,0.099263,0.046934
1437,0.439936,0.8973909999999999,-0.033811,-0.6775,0.078225,0.229215
1438,0.434214,0.900808,0.000169,-0.750483,0.094095,0.252852
1439,0.426467,0.903717,0.037679,-0.550109,0.233841,0.224696
1440,0.412981,0.907661,0.074798,-0.322237,0.2368849999999999,0.2478949999999999
1441,0.393734,0.912444,0.1114329999999999,-0.125347,0.1847089999999999,0.22516
1442,0.372057,0.916723,0.145563,0.081755,0.006693,0.144933
1443,0.349042,0.921054,0.1727,0.142078,-0.076358,0.123901
1444,0.330126,0.923108,0.19719,0.03018,0.031955,0.177398
1445,0.313403,0.923117,0.222776,-0.097689,0.123773,0.1132529999999999
1446,0.296933,0.921962,0.2486239999999999,-0.130109,0.079488,0.15494
1447,0.275157,0.920747,0.276603,-0.078761,0.0785049999999999,-0.052177
1448,0.244086,0.920809,0.304187,0.097192,0.104521,-0.2169219999999999
1449,0.211556,0.923546,0.319848,0.229759,0.021522,-0.198434
1450,0.1799059999999999,0.92875,0.3241179999999999,0.62762,-0.1552369999999999,-0.163703
1451,0.150726,0.93276,0.327469,0.679932,-0.259771,-0.20726
1452,0.127555,0.935394,0.329793,0.7031029999999999,-0.262405,-0.209584
1453,0.106984,0.937566,0.330937,0.268046,-0.260121,-0.211476
1454,0.085247,0.938302,0.3351369999999999,0.140797,-0.0520559999999999,-0.032525
1455,0.05817,0.936159,0.346723,0.159817,0.132475,-0.074994
1456,0.028812,0.931782,0.3618659999999999,0.184124,0.27705,-0.159184
1457,5.2e-05,0.9284,0.371573,0.23353,0.125753,-0.524863
1458,-0.027411,0.929305,0.368287,0.605612,0.158388,-0.445543
1459,-0.047234,0.931609,0.360371,0.772362,0.231278,-0.418141
1460,-0.059848,0.936381,0.345836,0.84154,0.2412619999999999,-0.5559649999999999
1461,-0.0614899999999999,0.943988,0.324193,0.695874,0.164991,-0.572438
1462,-0.047949,0.955118,0.29231,0.616583,0.1063289999999999,-0.584104
1463,-0.013614,0.969397,0.245112,0.177494,0.490839,-0.920772
1464,0.040366,0.983127,0.178401,-0.042091,0.5638850000000001,-0.79568
1465,0.100798,0.990332,0.095278,-0.262449,0.6833739999999999,-0.481722
1466,0.161355,0.986782,0.0149139999999999,-0.590631,1.101277,-0.127417
1467,0.223696,0.97381,-0.040628,-0.732592,1.142401,-0.100714
1468,0.278963,0.957544,-0.0727059999999999,-0.339098,0.5824189999999999,-0.155123
1469,0.335644,0.936454,-0.101948,0.2381329999999999,0.392159,-0.149837
1470,0.400735,0.90637,-0.133794,0.5560970000000001,0.264758,0.096578
1471,0.4723489999999999,0.865426,-0.167095,0.322832,0.266731,-0.097065
1472,0.5272399999999999,0.8190729999999999,-0.226127,0.033597,0.182269,-0.01339
1473,0.556341,0.778492,-0.290571,-0.151693,0.065685,0.041578
1474,0.569179,0.743809,-0.3504,-0.29591,-0.016895,0.070707
1475,0.577346,0.712342,-0.399046,-0.601394,-0.358064,0.177335
1476,0.577284,0.685567,-0.443553,-0.539564,-0.350972,0.349208
1477,0.569875,0.663903,-0.4842229999999999,-0.4576159999999999,-0.776849,0.6328590000000001
1478,0.553764,0.6534810000000001,-0.516048,-0.5115430000000001,-0.958855,0.672924
1479,0.537874,0.655153,-0.5305310000000001,-0.35425,-0.803285,0.379484
1480,0.541723,0.662937,-0.516768,-0.188131,-0.486713,-0.168153
1481,0.553297,0.6785100000000001,-0.483203,-0.264936,-0.511853,-0.27107
1482,0.561433,0.702012,-0.438144,-0.348359,-0.533402,0.057239
1483,0.56083,0.7352529999999999,-0.3806179999999999,-0.1401609999999999,-0.282311,-1.2777379999999998
1484,0.5576,0.7614529999999999,-0.330558,0.986208,0.2362739999999999,-0.411813
1485,0.561778,0.783862,-0.264503,0.491201,2.887479,-0.337746
1486,0.53764,0.801563,-0.261603,0.1132079999999999,-0.16045,0.665656
1487,0.5211779999999999,0.8167369999999999,-0.247609,-0.509993,-0.740382,0.407628
1488,0.4981399999999999,0.8362040000000001,-0.22938,-0.983232,-0.983543,-0.183996
1489,0.4675439999999999,0.862028,-0.195719,-0.7003010000000001,0.375002,0.225473
1490,0.433138,0.888185,-0.153342,-0.0977799999999999,1.15959,0.228888
1491,0.402783,0.908325,-0.112721,0.609928,0.90448,0.204152
1492,0.37632,0.922767,-0.08294,0.066887,0.153008,-0.001945
1493,0.349416,0.935413,-0.0539059999999999,-0.161016,-0.056095,-0.003482
1494,0.3194909999999999,0.947226,-0.026141,-0.15137,-0.147024,0.053439
1495,0.284441,0.958684,-0.0035039999999999,0.00041,-0.203313,0.002085
1496,0.2483949999999999,0.968573,0.012692,0.203113,-0.162619,0.012333
1497,0.2178929999999999,0.975548,0.028694,0.255831,-0.0842059999999999,0.010277
1498,0.191196,0.980375,0.047997,0.155224,-0.174955,-0.141381
1499,0.1673059999999999,0.983723,0.065511,0.0778259999999999,-0.245503,-0.069982
1500,0.144949,0.985908,0.083481,0.166895,-0.323936,-0.087906
1501,0.120792,0.987769,0.098565,0.2156179999999999,-0.264671,-0.146294
1502,0.0951159999999999,0.989315,0.110468,0.314796,-0.187435,-0.082041
1503,0.070406,0.990223,0.120397,0.345381,-0.085086,-0.121053
1504,0.046678,0.990683,0.127909,0.425642,0.150369,-0.223185
1505,0.02396,0.990667,0.134158,0.565578,0.178874,-0.380587
1506,0.00223,0.990377,0.138351,0.587309,0.179163,-0.384781
1507,-0.019166,0.990016,0.139618,0.5100560000000001,0.318288,-0.439377
1508,-0.03611,0.989977,0.136505,0.322502,0.4860359999999999,-0.5626979999999999
1509,-0.044892,0.990894,0.126914,0.454163,0.715497,-0.4178229999999999
1510,-0.044,0.993557,0.104413,0.420922,0.620487,-0.3858
1511,-0.029684,0.997165,0.069091,-0.153361,0.4591939999999999,-0.844482
1512,-0.004093,0.999741,0.022227,-0.020352,0.2822409999999999,-0.754451
1513,0.038978,0.998598,-0.035723,0.178551,0.2064489999999999,-0.557554
1514,0.101391,0.989867,-0.09938,0.670658,0.259187,0.172317
1515,0.170968,0.973868,-0.1494869999999999,0.568702,0.324655,0.3209349999999999
1516,0.234463,0.955003,-0.181634,0.4546689999999999,0.382186,0.372353
1517,0.278177,0.936527,-0.213378,-0.409891,0.233731,0.37831
1518,0.311508,0.915418,-0.254889,0.028702,0.206286,0.504171
1519,0.368491,0.8811180000000001,-0.296378,0.430993,0.418259,-0.363259
1520,0.406263,0.8440989999999999,-0.34992,-0.337568,-0.029493,0.4814199999999999
1521,0.4391609999999999,0.8111189999999999,-0.386289,-0.216687,-0.045693,0.260862
1522,0.471249,0.776875,-0.417595,-0.180295,-0.094716,0.134422
1523,0.497241,0.7409560000000001,-0.451366,-0.0947139999999999,-0.149526,0.213741
1524,0.513047,0.707573,-0.485922,-0.305085,-0.1725539999999999,0.456564
1525,0.514538,0.684493,-0.516447,-0.409497,-0.437163,0.527265
1526,0.50245,0.675465,-0.5397109999999999,-0.431817,-0.684559,0.48011
1527,0.481998,0.6817840000000001,-0.550315,-0.535709,-0.7454890000000001,0.426825
1528,0.466772,0.7024090000000001,-0.537349,-0.311605,-0.913148,0.401271
1529,0.468481,0.7334579999999999,-0.492506,-0.212774,-1.029387,0.4613779999999999
1530,0.478292,0.772828,-0.417097,-0.150243,-0.93097,0.762465
1531,0.464421,0.814067,-0.348718,0.009136,-0.691463,-0.84983
1532,0.455154,0.838455,-0.299707,0.82425,2.788575,-0.285361
1533,0.455642,0.85408,-0.250867,2.3417060000000003,5.114609,-1.4720030000000002
1534,0.425957,0.8650760000000001,-0.264953,-0.654809,-0.8905120000000001,0.627105
1535,0.404525,0.8787729999999999,-0.253208,-1.035491,-1.588215,-0.051586
1536,0.373434,0.8989969999999999,-0.228796,-0.895681,-0.419352,0.4757439999999999
1537,0.330361,0.923794,-0.193551,-0.53846,0.442096,0.381951
1538,0.287655,0.944552,-0.158338,0.292453,1.176892,0.330808
1539,0.257079,0.957701,-0.129288,0.915452,0.660204,0.124191
1540,0.2356889999999999,0.96592,-0.106978,0.169493,-0.246529,0.1312549999999999
1541,0.2148449999999999,0.973666,-0.076228,-0.015672,-0.339984,0.000331
1542,0.189404,0.980654,-0.049394,0.033878,-0.269854,0.021562
1543,0.161345,0.986497,-0.028019,0.153184,-0.170167,0.024068
1544,0.131966,0.991223,-0.007571,0.209953,-0.142346,-0.024319
1545,0.103748,0.994524,0.012348,0.1192589999999999,-0.232287,-0.06702
1546,0.078377,0.996402,0.032161,0.044075,-0.289524,-0.0556899999999999
1547,0.056343,0.996998,0.053068,0.014611,-0.2293739999999999,0.003252
1548,0.034043,0.996738,0.073144,0.035583,-0.190951,-0.079278
1549,0.011962,0.995976,0.088795,0.148316,-0.116795,-0.144444
1550,-0.010126,0.995026,0.099071,0.314157,-0.011536,-0.17503
1551,-0.030164,0.994051,0.1046329999999999,0.44058,0.096067,-0.203586
1552,-0.046749,0.993372,0.104984,0.549374,0.161626,-0.1905859999999999
1553,-0.059309,0.992878,0.103306,0.608915,0.147869,-0.316242
1554,-0.0709549999999999,0.992058,0.103835,0.62224,0.192329,-0.275801
1555,-0.082712,0.991191,0.103421,0.336313,0.2021079999999999,-0.257627
1556,-0.093532,0.990192,0.103766,0.108043,0.702236,-0.278891
1557,-0.100844,0.989934,0.099281,0.34706,0.965648,-0.293236
1558,-0.1007639999999999,0.991567,0.081473,0.059351,0.6963,-0.565253
1559,-0.090283,0.994634,0.050472,0.030987,0.466959,-0.8404809999999999
1560,-0.066459,0.997759,0.007561,0.280586,0.205046,-0.667
1561,-0.026819,0.998487,-0.047967,0.563105,0.142138,-0.332679
1562,0.029686,0.993485,-0.110015,0.729958,0.153412,0.223189
1563,0.095779,0.982222,-0.16144,0.530457,0.194581,0.374925
1564,0.160244,0.968979,-0.188146,0.374653,0.2461699999999999,0.470861
1565,0.21443,0.955276,-0.20363,-0.412764,0.494477,-0.039733
1566,0.256529,0.939075,-0.228756,-0.614943,0.249921,0.180172
1567,0.2973369999999999,0.915276,-0.2717699999999999,-0.091495,0.237236,-0.06722
1568,0.350935,0.882282,-0.31372,-0.332212,0.102673,0.095001
1569,0.392319,0.850555,-0.350201,-0.090469,-0.0611409999999999,0.230465
1570,0.430253,0.81806,-0.381651,-0.288286,-0.138235,0.128904
1571,0.458876,0.784377,-0.417352,-0.164961,-0.145706,0.2616969999999999
1572,0.480332,0.751787,-0.451768,-0.044846,-0.169558,0.2792219999999999
1573,0.498692,0.720091,-0.482467,-0.291691,-0.0731179999999999,0.29608
1574,0.502237,0.696276,-0.512791,-0.4369909999999999,-0.244342,0.408543
1575,0.491767,0.685972,-0.5362899999999999,-0.517066,-0.6116,0.475499
1576,0.477703,0.689779,-0.5440619999999999,-0.687404,-0.768881,0.378702
1577,0.469105,0.707717,-0.528276,-0.368213,-0.857299,0.33568
1578,0.472625,0.737123,-0.482984,-0.238982,-0.8564930000000001,0.372724
1579,0.474954,0.7760279999999999,-0.414965,-0.544351,-0.676251,0.418017
1580,0.457947,0.815131,-0.354745,0.055222,-0.400595,-0.0148389999999999
1581,0.444264,0.8480549999999999,-0.28884,0.576396,2.041517,0.285758
1582,0.435843,0.869992,-0.2305449999999999,2.608743,3.578021,-1.077469
1583,0.4281359999999999,0.8758030000000001,-0.222858,-0.24056,-0.23913,0.311801
1584,0.409634,0.885716,-0.218412,-0.738873,-1.106221,-0.107226
1585,0.379217,0.903992,-0.197456,-0.622763,-0.835923,0.164329
1586,0.339412,0.925897,-0.165865,-0.4600939999999999,-0.359139,0.302217
1587,0.298983,0.945403,-0.129688,-0.216753,0.588121,0.274707
1588,0.263975,0.95994,-0.093958,0.577227,1.005148,0.217844
1589,0.237914,0.968773,-0.069803,0.566438,0.072502,0.075968
1590,0.216803,0.975124,-0.046111,0.128381,-0.143276,0.011703
1591,0.193173,0.981016,-0.016962,0.068516,-0.19528,-0.045691
1592,0.16638,0.986034,0.0070739999999999,0.090456,-0.266079,-0.056726
1593,0.139221,0.989897,0.0267579999999999,0.146256,-0.2282239999999999,-0.047174
1594,0.112248,0.992632,0.045569,0.14619,-0.228884,-0.089163
1595,0.085607,0.99429,0.06367,0.026789,-0.251965,-0.0534309999999999
1596,0.060224,0.994813,0.081941,0.043597,-0.247102,-0.05037
1597,0.038522,0.994334,0.099049,0.016944,-0.162791,0.0030629999999999
1598,0.018641,0.993502,0.1122539999999999,0.0855,-0.150164,-0.08459
1599,-0.001254,0.992687,0.120691,0.133747,-0.068309,-0.2291659999999999
1600,-0.022128,0.991839,0.125545,0.280276,0.071088,-0.193248
1601,-0.041399,0.990979,0.127447,0.510362,0.193698,-0.080907
1602,-0.057111,0.990541,0.1247549999999999,0.6453220000000001,0.23323,-0.136505
1603,-0.069229,0.990392,0.119697,0.7316590000000001,0.236979,-0.279609
1604,-0.079449,0.990244,0.1144559999999999,0.602811,0.241903,-0.340409
1605,-0.089272,0.990164,0.107704,0.352257,0.490426,-0.519768
1606,-0.094659,0.990627,0.098459,0.38627,0.721486,-0.6154109999999999
1607,-0.0903679999999999,0.992605,0.081014,0.452459,0.8648319999999999,-0.565954
1608,-0.073401,0.996144,0.048006,0.123343,0.486827,-0.6727310000000001
1609,-0.043413,0.999054,0.00101,0.004595,0.29393,-0.669375
1610,0.000688,0.998287,-0.0584679999999999,0.241576,0.1668589999999999,-0.4594609999999999
1611,0.059311,0.990671,-0.122675,0.490829,0.131369,-0.075567
1612,0.131552,0.975406,-0.176846,0.494913,0.382337,0.4904449999999999
1613,0.200719,0.957598,-0.206676,0.243236,0.3932469999999999,0.46693
1614,0.250806,0.940142,-0.230709,-0.355359,0.222135,0.538982
1615,0.286446,0.921597,-0.261925,0.377723,0.285815,-0.157005
1616,0.338287,0.8904040000000001,-0.304532,0.287796,0.591697,-0.619113
1617,0.383403,0.8527469999999999,-0.354715,-0.730067,0.3189599999999999,0.156641
1618,0.416052,0.8211360000000001,-0.390685,-0.3376679999999999,-0.092727,0.240142
1619,0.450823,0.787505,-0.42023,-0.347307,-0.035949,0.076373
1620,0.479613,0.753113,-0.450322,-0.192687,-0.118363,0.124166
1621,0.499314,0.71946,-0.482764,-0.246705,-0.171974,0.386084
1622,0.506831,0.693553,-0.511962,-0.37704,-0.334544,0.450713
1623,0.501551,0.6805859999999999,-0.534085,-0.350336,-0.402342,0.453946
1624,0.486742,0.681761,-0.546153,-0.628649,-0.746687,0.356135
1625,0.4735029999999999,0.6972,-0.538243,-0.497322,-0.830577,0.324818
1626,0.471401,0.725437,-0.501518,-0.245144,-0.884388,0.406136
1627,0.474729,0.763009,-0.438689,-0.370481,-0.7697229999999999,0.688872
1628,0.462916,0.806276,-0.368274,-0.562693,-0.8101970000000001,-0.1945619999999999
1629,0.441285,0.8434149999999999,-0.306458,0.424377,0.496337,0.846039
1630,0.430725,0.870293,-0.23888,1.944336,4.229317,-1.281963
1631,0.428926,0.877511,-0.214461,0.5088020000000001,0.679084,0.423781
1632,0.414181,0.8868209999999999,-0.2049409999999999,-0.650036,-1.118052,-0.20517
1633,0.390973,0.9006360000000001,-0.189717,-0.786587,-0.976945,0.050343
1634,0.354805,0.920463,-0.163888,-0.60923,-0.516105,0.325982
1635,0.315225,0.939743,-0.132338,-0.5037159999999999,0.2504119999999999,0.284987
1636,0.280011,0.95468,-0.100873,0.257785,0.991899,0.150586
1637,0.252874,0.964303,-0.078556,0.7864329999999999,0.313178,0.144123
1638,0.22964,0.971432,-0.059851,0.3569989999999999,-0.086208,-0.007486
1639,0.205782,0.977963,-0.035198,0.079374,-0.111721,-0.066135
1640,0.179619,0.98364,-0.013613,0.0154639999999999,-0.127942,0.011705
1641,0.152866,0.988234,0.004654,0.109173,-0.250319,0.041199
1642,0.126414,0.991749,0.021188,0.07076,-0.2811929999999999,-0.026926
1643,0.100486,0.994208,0.0380519999999999,0.0866779999999999,-0.2393559999999999,-0.043149
1644,0.076122,0.995548,0.055553,0.118336,-0.131763,0.0070379999999999
1645,0.0555429999999999,0.995742,0.073546,0.109481,-0.101287,-0.011245
1646,0.036291,0.99542,0.0884139999999999,0.134683,-0.159788,-0.0716909999999999
1647,0.016804,0.994762,0.100799,0.142452,-0.154308,-0.163695
1648,-0.003828,0.993857,0.110581,0.198622,-0.057822,-0.185715
1649,-0.024236,0.99289,0.116519,0.271032,0.103225,-0.158725
1650,-0.043713,0.991995,0.118442,0.44566,0.222467,-0.105121
1651,-0.0608379999999999,0.991258,0.117052,0.632875,0.251998,-0.160524
1652,-0.073883,0.990717,0.1140849999999999,0.6589659999999999,0.264807,-0.332407
1653,-0.084603,0.990345,0.109786,0.533349,0.226131,-0.3639969999999999
1654,-0.09301,0.990098,0.105116,0.375405,0.296844,-0.417753
1655,-0.097234,0.990578,0.096411,0.2161449999999999,0.915962,-0.3694969999999999
1656,-0.093263,0.992518,0.0787679999999999,0.033754,0.6217090000000001,-0.6840689999999999
1657,-0.081618,0.995426,0.049605,0.2189469999999999,0.289044,-0.795668
1658,-0.0563039999999999,0.998365,0.009578,0.51631,0.2187059999999999,-0.567134
1659,-0.0161289999999999,0.998869,-0.044677,0.663834,0.146898,-0.26671
1660,0.040447,0.993831,-0.103246,0.631275,0.28423,0.161153
1661,0.106666,0.982878,-0.150231,0.350869,0.376924,0.416039
1662,0.169722,0.969448,-0.177089,0.085588,0.4077179999999999,0.475963
1663,0.220978,0.953588,-0.204537,-0.570496,0.321269,0.156395
1664,0.25858,0.934911,-0.243051,-0.193272,0.177897,0.021555
1665,0.301744,0.907878,-0.291042,0.035597,0.2493639999999999,-0.125844
1666,0.352041,0.874057,-0.334796,-0.3860679999999999,0.043622,0.4423399999999999
1667,0.391899,0.842615,-0.36934,-0.2246469999999999,-0.019434,0.503175
1668,0.430899,0.808132,-0.401553,-0.26203,-0.113949,0.1393
1669,0.4634939999999999,0.7730670000000001,-0.433056,-0.090325,-0.178111,0.163418
1670,0.4871319999999999,0.7371310000000001,-0.468334,-0.1348369999999999,-0.156336,0.294673
1671,0.497586,0.704878,-0.505522,-0.3809329999999999,-0.208265,0.4752949999999999
1672,0.492382,0.684157,-0.53804,-0.500881,-0.4360949999999999,0.506378
1673,0.478178,0.676856,-0.559651,-0.551542,-0.619529,0.4766439999999999
1674,0.463789,0.682892,-0.564408,-0.646193,-0.774826,0.3966989999999999
1675,0.456761,0.700673,-0.54811,-0.413869,-0.847859,0.369506
1676,0.459335,0.729101,-0.507366,-0.240417,-0.7889,0.37141
1677,0.4616119999999999,0.765965,-0.4474479999999999,-0.351825,-0.678059,0.412276
1678,0.454592,0.801974,-0.387532,0.143782,-0.471103,-0.587093
1679,0.456268,0.8278280000000001,-0.326371,0.8688969999999999,1.997902,0.808228
1680,0.459375,0.8435280000000001,-0.278267,2.381842,3.063333,-1.283867
1681,0.442617,0.852827,-0.277079,-0.1773279999999999,-0.505232,0.597727
1682,0.422618,0.865582,-0.268627,-0.736079,-1.1736719999999998,-0.158314
1683,0.393995,0.8854069999999999,-0.2466179999999999,-0.69415,-0.985993,-0.027232
1684,0.356718,0.90895,-0.215778,-0.4434939999999999,0.060197,0.358676
1685,0.320425,0.930261,-0.178718,-0.072256,1.081046,0.34426
1686,0.294268,0.944392,-0.146719,0.811353,0.824773,0.182318
1687,0.274273,0.953879,-0.1220079999999999,0.19408,-0.004264,0.004912
1688,0.25201,0.962927,-0.096225,-0.028636,-0.239218,0.046283
1689,0.226786,0.971336,-0.071209,-0.021571,-0.230278,0.040035
1690,0.1990299999999999,0.978741,-0.049488,0.039434,-0.205105,0.000889
1691,0.169902,0.984984,-0.030601,0.169988,-0.160262,-0.051537
1692,0.140184,0.990031,-0.01358,0.187163,-0.205256,-0.06546
1693,0.112304,0.993663,0.004277,0.175706,-0.247295,-0.066395
1694,0.0875669999999999,0.995846,0.024899,0.018252,-0.2757679999999999,-0.062924
1695,0.063349,0.996973,0.045035,0.012671,-0.26681,-0.060309
1696,0.038425,0.997262,0.063157,0.067974,-0.2259,-0.065202
1697,0.0136009999999999,0.996862,0.077967,0.311426,0.018183,-0.168543
1698,-0.00933,0.996082,0.087925,0.401801,0.05772,-0.173969
1699,-0.028616,0.995083,0.09481,0.601935,0.162235,-0.166938
1700,-0.045169,0.99411,0.098505,0.600436,0.182587,-0.225733
1701,-0.060986,0.992972,0.101418,0.553739,0.239465,-0.259026
1702,-0.07697,0.991606,0.1038819999999999,0.394491,0.262209,-0.295853
1703,-0.092502,0.990261,0.1040349999999999,0.161777,0.434772,-0.469864
1704,-0.1031059999999999,0.989373,0.102503,0.308901,0.663566,-0.367579
1705,-0.104229,0.990281,0.09207,0.3596,0.762465,-0.355284
1706,-0.0947409999999999,0.99325,0.0669,0.097076,0.62087,-0.504537
1707,-0.075968,0.99661,0.031545,0.024027,0.374575,-0.800557
1708,-0.042992,0.998979,-0.013783,0.430077,0.233717,-0.441554
1709,0.005489,0.99737,-0.072254,0.536473,0.12792,-0.027599
1710,0.066125,0.988749,-0.134166,0.407462,0.266042,0.319347
1711,0.127289,0.974898,-0.182674,0.277313,0.270738,0.248546
1712,0.181817,0.959678,-0.214381,-0.129845,0.405251,-0.072591
1713,0.222863,0.943625,-0.2447489999999999,-0.270119,0.2690059999999999,0.120665
1714,0.260482,0.921682,-0.287489,-0.018783,0.322077,0.004454
1715,0.309372,0.887426,-0.341704,-0.252945,0.5093479999999999,-0.205248
1716,0.353153,0.8513120000000001,-0.388008,-0.2130159999999999,0.0690679999999999,0.371849
1717,0.389815,0.815207,-0.428347,-0.3644699999999999,0.133982,0.151506
1718,0.421218,0.7756850000000001,-0.469985,-0.281921,0.0337779999999999,0.172073
1719,0.443237,0.732885,-0.516158,-0.095901,0.00294,0.26689
1720,0.456128,0.691199,-0.560526,-0.29054,-0.157843,0.455576
1721,0.459514,0.655305,-0.599518,-0.650111,-0.344834,0.53096
1722,0.4551409999999999,0.62915,-0.630092,-0.5871149999999999,-0.467132,0.615337
1723,0.448007,0.614851,-0.649035,-0.339288,-0.5921770000000001,0.659304
1724,0.43906,0.611847,-0.657928,-0.335957,-0.7982630000000001,0.599364
1725,0.432329,0.620073,-0.654676,-0.307237,-0.821092,0.494367
1726,0.427884,0.639195,-0.639018,-0.207608,-0.8350110000000001,0.383479
1727,0.423691,0.6632,-0.61697,0.112991,-0.504264,0.048504
1728,0.422079,0.686797,-0.591742,0.167978,-0.406889,-0.173944
1729,0.426517,0.710255,-0.560018,0.295956,-0.3373,-0.279673
1730,0.438558,0.743291,-0.505157,0.346125,0.50648,-1.704132
1731,0.4560729999999999,0.757286,-0.467455,1.57771,2.901192,-0.607587
1732,0.4791319999999999,0.765891,-0.4287689999999999,0.5382020000000001,1.556558,-0.2213619999999999
1733,0.465204,0.7754489999999999,-0.4269229999999999,-0.71322,-0.815457,0.1773809999999999
1734,0.470251,0.7896489999999999,-0.394103,-0.6332909999999999,-1.399131,0.480605
1735,0.4674109999999999,0.805856,-0.363486,-0.750858,-0.8650450000000001,-0.045877
1736,0.464934,0.822752,-0.326978,-0.7896569999999999,0.386995,0.2624329999999999
1737,0.4630319999999999,0.840198,-0.282255,-0.8812909999999999,1.115491,0.204267
1738,0.460988,0.853301,-0.243652,0.36082,0.637361,0.1844029999999999
1739,0.456762,0.866052,-0.203278,0.006693,-0.008203,0.134889
1740,0.449705,0.8779629999999999,-0.164153,-0.112089,-0.043032,0.075316
1741,0.4396359999999999,0.8886719999999999,-0.1303079999999999,-0.208862,-0.018098,0.058515
1742,0.426826,0.89875,-0.100334,-0.198051,0.026757,0.176201
1743,0.413948,0.907451,-0.071966,-0.202095,0.10883,0.143056
1744,0.3985579999999999,0.916094,-0.043841,-0.092635,0.061399,0.182498
1745,0.379006,0.925298,-0.013299,0.0469889999999999,-0.0130509999999999,0.229653
1746,0.359668,0.932888,0.018938,0.073239,-0.001629,0.249296
1747,0.34074,0.938963,0.047376,0.0620309999999999,-0.11688,0.264865
1748,0.325718,0.942791,0.071084,-0.013965,-0.05151,0.255332
1749,0.30993,0.946449,0.090425,-0.044519,0.013878,0.216216
1750,0.288978,0.951506,0.105485,-0.000938,0.021745,0.190734
1751,0.265344,0.956512,0.121144,0.157019,0.031982,0.1188299999999999
1752,0.2430369999999999,0.960257,0.137259,0.190297,0.031031,0.082177
1753,0.221352,0.963586,0.150017,0.146507,-0.068048,0.026771
