,gravity.x,gravity.y,gravity.z,userAcceleration.x,userAcceleration.y,userAcceleration.z
0,0.269298,0.587901,-0.762791,-0.193446,-0.355967,0.0461009999999999
1,0.293004,0.6162770000000001,-0.730992,-0.102315,-0.221273,0.053853
2,0.321484,0.649898,-0.688679,0.044971,-0.126292,0.260242
3,0.35063,0.688479,-0.634864,-0.0558,-0.182833,0.061026
4,0.361979,0.727049,-0.58341,-0.107401,1.489015,0.058172
5,0.359093,0.765525,-0.5338729999999999,0.43975,0.8634270000000001,0.355833
6,0.376137,0.789409,-0.485129,0.424354,0.537145,-0.079919
7,0.389823,0.8066840000000001,-0.444179,-0.176002,-0.133496,-0.010701
8,0.386055,0.8261959999999999,-0.410314,-0.306587,-0.177956,0.298956
9,0.3679929999999999,0.8503040000000001,-0.376244,-0.317899,-0.0844039999999999,0.330407
10,0.345433,0.8749680000000001,-0.339265,-0.190831,0.317888,0.3191239999999999
11,0.3246969999999999,0.896978,-0.299992,-0.098227,0.504999,0.300023
12,0.310842,0.913884,-0.261126,-0.072744,0.452525,0.246478
13,0.30385,0.926398,-0.222386,-0.099321,0.1025789999999999,0.189945
14,0.30054,0.935755,-0.184474,-0.0888549999999999,-0.056025,0.0370589999999999
15,0.296765,0.94284,-0.151578,-0.061429,-0.151916,0.082501
16,0.292228,0.948448,-0.122642,-0.007514,-0.173378,0.094841
17,0.288128,0.952704,-0.096588,-0.001308,-0.2184969999999999,0.058792
18,0.2831619999999999,0.956105,-0.075332,-0.102025,-0.224491,-0.017319
19,0.276212,0.959179,-0.0606159999999999,-0.187711,-0.201366,-0.106834
20,0.269138,0.961827,-0.049442,-0.188754,-0.176198,-0.093533
21,0.26423,0.96369,-0.038402,-0.164209,-0.191763,5.7e-05
22,0.261189,0.964854,-0.028791,-0.113804,-0.1700839999999999,0.159056
23,0.257976,0.965934,-0.0202889999999999,0.020604,-0.118476,0.088115
24,0.255296,0.966848,-0.004554,0.123214,0.018244,0.006186
25,0.249905,0.968154,0.014691,0.130054,0.246857,0.041721
26,0.238208,0.970553,0.035703,0.1718869999999999,0.427854,-0.01869
27,0.222467,0.973285,0.056712,0.305503,0.461682,-0.124232
28,0.206059,0.97558,0.0759919999999999,0.285259,0.480307,-0.2242469999999999
29,0.18921,0.977695,0.0911179999999999,0.20758,0.414654,-0.255181
30,0.174803,0.979479,0.10027,0.146608,0.3030219999999999,-0.238896
31,0.1629789999999999,0.981207,0.103248,-0.008057,0.087473,-0.202369
32,0.155913,0.982851,0.098414,-0.1122119999999999,0.030699,0.009603
33,0.15504,0.984597,0.0807539999999999,-0.138942,-0.022805,-0.031529
34,0.162472,0.985479,0.049227,-0.008664,0.140543,-0.115908
35,0.177341,0.984127,0.005943,-0.070392,0.099507,-0.264885
36,0.200238,0.978569,-0.0479399999999999,-0.147122,0.131569,-0.281391
37,0.2337969999999999,0.966604,-0.104918,-0.150713,0.126521,-0.203798
38,0.275422,0.948861,-0.1542619999999999,-0.176377,0.1035369999999999,-0.133717
39,0.318153,0.927049,-0.19837,-0.2813489999999999,0.498961,-0.176325
40,0.346115,0.903507,-0.252727,-0.819687,0.573253,0.4650829999999999
41,0.348181,0.889237,-0.296682,-0.802802,0.244384,0.756796
42,0.3451869999999999,0.8818030000000001,-0.321345,-0.2077659999999999,-0.097135,0.202891
43,0.350173,0.873685,-0.337708,-0.341887,0.040805,-0.210189
44,0.358401,0.861484,-0.359705,-0.540087,-0.01694,-0.040045
45,0.359194,0.848301,-0.389048,-0.335512,-0.1238599999999999,0.17837
46,0.360782,0.8363010000000001,-0.412832,-0.191501,-0.1948369999999999,0.347219
47,0.367053,0.8269770000000001,-0.425881,-0.236042,-0.2497219999999999,0.312615
48,0.371513,0.819451,-0.436431,-0.309898,-0.2550739999999999,0.238357
49,0.373657,0.813531,-0.445579,-0.381378,-0.2325829999999999,0.280754
50,0.375301,0.809207,-0.452025,-0.400188,-0.231845,0.308959
51,0.376525,0.806326,-0.456136,-0.396407,-0.229926,0.3598989999999999
52,0.378406,0.8046770000000001,-0.4574899999999999,-0.393284,-0.295369,0.381105
53,0.3835159999999999,0.804729,-0.453122,-0.383394,-0.330913,0.346784
54,0.392294,0.808053,-0.439487,-0.371237,-0.3649679999999999,0.2767219999999999
55,0.402375,0.816351,-0.414317,-0.340638,-0.399969,0.203074
56,0.410174,0.830297,-0.377304,-0.26729,-0.338201,0.127395
57,0.410481,0.849457,-0.331542,-0.1996349999999999,-0.305909,0.042662
58,0.40005,0.870972,-0.285236,0.24999,0.006149,-0.327328
59,0.380931,0.8905719999999999,-0.248525,0.584935,0.185402,-0.359873
60,0.363498,0.904863,-0.221545,0.7453890000000001,0.2585739999999999,-0.342023
61,0.364261,0.910104,-0.19752,0.4208189999999999,0.116324,-0.411733
62,0.383236,0.908639,-0.16582,0.100911,0.415275,-0.318463
63,0.403221,0.906358,-0.126166,-0.048469,0.534453,-0.163064
64,0.417466,0.903651,-0.095532,-0.696,0.7429560000000001,-0.319034
65,0.429799,0.898476,-0.089462,-0.605825,0.617058,-0.507324
66,0.447629,0.8885799999999999,-0.10022,-0.545636,0.207612,-0.139068
67,0.462901,0.882461,-0.08351,-0.8776959999999999,-0.018799,0.074446
68,0.460733,0.885724,-0.056635,-0.830347,-0.059872,0.371805
69,0.442693,0.8959280000000001,-0.03641,-0.608556,-0.043022,0.42058
70,0.425067,0.905111,-0.00904,-0.0554539999999999,0.500041,0.221991
71,0.4194,0.907484,0.023786,0.021808,0.2966789999999999,0.10216
72,0.424353,0.903218,0.064107,-0.093772,0.143352,0.053157
73,0.426782,0.898092,0.1061839999999999,-0.406809,0.067194,0.00226
74,0.4210069999999999,0.896252,0.139545,-0.435091,0.05582,0.014203
75,0.412754,0.895642,0.165673,-0.356373,0.003879,-0.01513
76,0.399953,0.896325,0.19138,-0.26006,-0.069039,-0.099934
77,0.381023,0.8981,0.2196,-0.101025,-0.080122,-0.069529
78,0.360452,0.899508,0.2468699999999999,-0.015939,-0.040469,-0.074919
79,0.342779,0.9000610000000001,0.2690329999999999,0.2176,0.106424,-0.007802
80,0.329869,0.900001,0.284903,0.278575,0.017464,-0.019949
81,0.319471,0.899518,0.297975,0.183535,-0.019025,-0.161333
82,0.3097519999999999,0.8988940000000001,0.309882,0.166062,-0.046248,-0.18534
83,0.299248,0.8987729999999999,0.320377,0.152656,-0.004013,-0.216617
84,0.288244,0.8989229999999999,0.329904,0.088999,0.034686,-0.253641
85,0.276685,0.8994620000000001,0.338229,0.030887,0.084715,-0.248263
86,0.264403,0.90004,0.346417,-0.032438,0.053741,-0.209927
87,0.248863,0.900908,0.355552,-0.05442,0.060091,-0.2357409999999999
88,0.228473,0.902198,0.365818,0.020749,0.161461,-0.298099
89,0.202363,0.905045,0.374069,0.128295,0.105956,-0.296905
90,0.175215,0.909282,0.37748,0.1940319999999999,0.113667,-0.294884
91,0.15262,0.912973,0.378382,0.166868,0.113669,-0.228067
92,0.13477,0.91608,0.377651,0.042629,0.112195,-0.316662
93,0.120777,0.919263,0.374639,0.020626,0.131839,-0.398123
94,0.109455,0.924045,0.36626,0.0140039999999999,0.19447,-0.46355
95,0.101762,0.931688,0.348695,0.110884,0.328764,-0.428041
96,0.098652,0.941617,0.321889,0.120571,0.2947869999999999,-0.3956949999999999
97,0.102748,0.953202,0.284317,-0.008998,0.11035,-0.283783
98,0.116033,0.965784,0.2319179999999999,-0.288198,0.338003,-0.191544
99,0.1375849999999999,0.976522,0.165723,-0.3643,0.930826,-0.304563
100,0.157617,0.983221,0.091782,-0.423364,0.689279,-0.0675809999999999
101,0.1667799999999999,0.985853,0.016393,-0.365053,0.524584,-0.005911
102,0.169854,0.984187,-0.050178,-0.260919,0.419393,-0.015313
103,0.172765,0.979689,-0.10175,0.003657,0.114488,-0.197261
104,0.180043,0.973108,-0.1436579999999999,0.047984,0.10517,-0.192218
105,0.192792,0.964126,-0.182439,0.001773,0.143768,-0.133571
106,0.210819,0.951835,-0.222617,-0.045078,0.002999,0.058859
107,0.232044,0.936554,-0.262707,-0.098026,-0.071671,0.069469
108,0.252656,0.919583,-0.300874,-0.165193,-0.093045,0.06717
109,0.266751,0.902533,-0.338042,-0.213956,-0.194448,0.05667
110,0.273017,0.886292,-0.374088,-0.22924,-0.227067,0.067173
111,0.272595,0.86993,-0.410985,-0.293072,-0.255626,0.036412
112,0.267082,0.85249,-0.44936,-0.29998,-0.213665,0.050968
113,0.259343,0.8352959999999999,-0.484786,-0.180043,-0.258651,0.036529
114,0.254888,0.8203020000000001,-0.511988,0.023783,-0.283178,0.01568
115,0.257429,0.8067949999999999,-0.5317970000000001,0.1083089999999999,-0.333025,-0.016207
116,0.263059,0.793399,-0.548921,0.095279,-0.364902,-0.054763
117,0.267187,0.780728,-0.564864,0.046473,-0.412732,-0.100237
118,0.268267,0.770029,-0.578865,0.039549,-0.435266,-0.112312
119,0.269042,0.761483,-0.589708,0.016969,-0.372384,-0.152617
120,0.269267,0.754322,-0.598741,0.021184,-0.390918,-0.194442
121,0.268779,0.7497590000000001,-0.604662,0.08698,-0.453556,-0.230192
122,0.267752,0.747797,-0.60754,0.1183869999999999,-0.438853,-0.272877
123,0.267542,0.74668,-0.609005,0.065695,-0.363456,-0.34914
124,0.269687,0.745242,-0.60982,-0.011768,-0.3225429999999999,-0.352323
125,0.272295,0.744035,-0.6101340000000001,-0.064836,-0.349565,-0.341312
126,0.27744,0.7348979999999999,-0.6188279999999999,-0.07607,-0.324223,-0.339546
127,0.285115,0.715804,-0.637441,-0.3305099999999999,0.0067459999999999,-0.458735
128,0.283292,0.7144739999999999,-0.639741,-0.0742309999999999,0.5859409999999999,-0.58702
129,0.27553,0.712866,-0.6449050000000001,0.0421879999999999,0.478831,-0.4562449999999999
130,0.266313,0.7162310000000001,-0.645048,-0.158525,0.064195,0.083861
131,0.261945,0.725237,-0.636721,-0.513776,-0.122438,0.466601
132,0.260251,0.742138,-0.617654,-0.384793,-0.2106289999999999,0.591379
133,0.271365,0.765642,-0.583224,-0.309756,0.200667,0.276187
134,0.2865,0.786539,-0.547056,-0.286942,0.548636,0.2665079999999999
135,0.298933,0.8065100000000001,-0.510075,-0.2523019999999999,0.568627,0.20853
136,0.305388,0.8261299999999999,-0.473543,-0.15602,0.4699819999999999,0.231554
137,0.309268,0.843593,-0.438976,-0.214709,0.269521,0.2296099999999999
138,0.312181,0.8599540000000001,-0.403755,-0.265855,0.247239,0.169151
139,0.313051,0.876158,-0.3665239999999999,-0.234392,0.218797,0.171105
140,0.309085,0.89266,-0.328053,0.017209,0.191584,0.178166
141,0.302392,0.908551,-0.288248,0.089499,0.1428859999999999,0.101404
142,0.294226,0.922712,-0.249052,0.2121219999999999,0.043017,0.088286
143,0.285646,0.934697,-0.2115199999999999,0.207808,-0.128377,-0.00456
144,0.27736,0.944524,-0.175894,0.1628869999999999,-0.17397,-0.023294
145,0.269476,0.952527,-0.1416589999999999,0.178675,-0.181729,-0.017765
146,0.261418,0.959008,-0.109342,0.196468,-0.169183,-0.053179
147,0.252308,0.964394,-0.07923,0.2160139999999999,-0.173393,-0.115549
148,0.242042,0.968919,-0.051023,0.147286,-0.079958,-0.1505
149,0.229767,0.972938,-0.024297,0.20668,-0.04908,-0.130183
150,0.216409,0.976295,0.002852,0.2681489999999999,-0.0888429999999999,-0.0875389999999999
151,0.201243,0.979098,0.029338,0.22466,-0.047579,-0.113246
152,0.184609,0.981343,0.053635,0.194419,0.051448,-0.116059
153,0.167878,0.982852,0.076231,0.20407,0.122998,-0.1384099999999999
154,0.148635,0.984082,0.097383,0.164903,0.379245,-0.262361
155,0.127938,0.985121,0.114717,0.237388,0.360933,-0.354387
156,0.108544,0.985979,0.12671,0.315818,0.281355,-0.368104
157,0.09179,0.986796,0.133416,0.328467,0.0808,-0.3185969999999999
158,0.0784639999999999,0.987523,0.136504,0.217968,0.217494,-0.227371
159,0.070182,0.988725,0.132251,0.181969,0.303985,-0.126987
160,0.070696,0.99124,0.1115299999999999,-0.0432,0.4440479999999999,-0.127735
161,0.080847,0.993667,0.077996,-0.214209,0.333863,-0.338601
162,0.096157,0.994616,0.0385519999999999,-0.299587,0.481855,-0.52752
163,0.113259,0.993555,-0.003701,-0.214883,0.475958,-0.5342939999999999
164,0.131675,0.989773,-0.054826,0.054437,0.254612,-0.316573
165,0.153463,0.981359,-0.1156599999999999,0.0725659999999999,0.2325989999999999,-0.070894
166,0.181276,0.967629,-0.1755779999999999,-0.000612,0.2546,-0.089818
167,0.211256,0.949987,-0.229981,-0.235761,0.095988,0.01294
168,0.233397,0.932242,-0.27649,-0.366042,-0.1811279999999999,0.422654
169,0.2354,0.916832,-0.322493,-0.113132,-0.305641,0.5838
170,0.2335809999999999,0.903862,-0.358425,0.220475,-0.232765,-0.000354
171,0.2505159999999999,0.886986,-0.387935,-0.063199,-0.0015949999999999,-0.34293
172,0.269485,0.8609450000000001,-0.4314489999999999,-0.4463649999999999,-0.247709,0.203513
173,0.270882,0.8340870000000001,-0.480539,-0.180383,-0.355068,0.353616
174,0.269934,0.811079,-0.5189239999999999,-0.024283,-0.313566,0.288273
175,0.271605,0.790899,-0.548367,-0.0927559999999999,-0.286001,0.139935
176,0.26545,0.774145,-0.574659,-0.110634,-0.368216,0.1455509999999999
177,0.252706,0.764867,-0.592551,-0.107244,-0.545994,0.219656
178,0.241823,0.764949,-0.596969,-0.104448,-0.558116,-0.02504
179,0.232055,0.773249,-0.590113,0.0181729999999999,-0.492991,-0.0619409999999999
180,0.222902,0.787672,-0.5743560000000001,0.116163,-0.589033,0.144272
181,0.224365,0.8107850000000001,-0.5406340000000001,0.192688,-0.703272,0.447509
182,0.237392,0.840827,-0.486468,-0.201824,-0.15615,-0.7964600000000001
183,0.2442239999999999,0.863662,-0.440953,-0.190254,0.700227,-0.404933
184,0.231505,0.8873030000000001,-0.398868,0.439027,1.839519,0.2321659999999999
185,0.2316949999999999,0.905769,-0.3548179999999999,0.145426,0.199166,0.164267
186,0.233408,0.914518,-0.330414,-0.078897,-0.269163,0.186569
187,0.2254409999999999,0.925393,-0.304665,-0.284309,-0.4316029999999999,0.072075
188,0.2060719999999999,0.938681,-0.27642,-0.217104,-0.01589,0.188468
189,0.17737,0.953424,-0.2439619999999999,0.042509,0.268957,0.150029
190,0.151883,0.966318,-0.2077409999999999,0.268939,0.300604,0.136909
191,0.138652,0.975823,-0.168939,0.282491,0.216942,0.080819
192,0.133699,0.982464,-0.129936,0.192839,-0.005199,0.001686
193,0.131109,0.986893,-0.094056,0.093348,-0.22432,-0.059417
194,0.1248619999999999,0.990227,-0.062082,0.080247,-0.27375,-0.059042
195,0.1152609999999999,0.992736,-0.034415,0.096745,-0.2861619999999999,-0.0392389999999999
196,0.1053809999999999,0.994393,-0.008483,0.056195,-0.185356,-0.090669
197,0.093682,0.995459,0.01672,0.049384,-0.052862,-0.144207
198,0.078378,0.996121,0.039916,0.017356,0.011752,-0.209914
199,0.060541,0.996283,0.0612179999999999,0.0689,0.23269,-0.1245569999999999
200,0.039576,0.996131,0.078423,0.349279,0.323968,-0.091134
201,0.020373,0.995205,0.095636,0.4677409999999999,0.301594,-0.087335
202,0.005732,0.993597,0.1128049999999999,0.5379229999999999,0.313425,-0.159573
203,-0.003179,0.992058,0.125719,0.482702,0.283928,-0.29085
204,-0.006415,0.990517,0.13722,0.429663,0.227471,-0.293821
205,-0.0077659999999999,0.989166,0.146571,0.095794,0.107345,-0.339198
206,-0.007568,0.988322,0.152173,-0.035248,0.089117,-0.2544369999999999
207,-0.003145,0.989793,0.142453,-0.093214,0.0144789999999999,-0.173275
208,0.009998,0.993485,0.113493,-0.178836,0.263885,-0.260848
209,0.0315089999999999,0.996663,0.075257,-0.248856,0.45573,-0.52446
210,0.056672,0.997736,0.036119,-0.237717,0.565893,-0.577699
211,0.082899,0.996521,-0.008245,0.058108,0.306442,-0.341151
212,0.114676,0.990919,-0.070172,0.20289,-0.01959,0.086286
213,0.1527069999999999,0.978746,-0.136863,0.164859,-0.007417,0.152976
214,0.1928089999999999,0.962962,-0.188477,0.071168,0.2045789999999999,0.174744
215,0.224677,0.945907,-0.2340429999999999,-0.256904,0.085588,0.157871
216,0.2415949999999999,0.929751,-0.277832,-0.453127,-0.101901,0.064804
217,0.244055,0.914199,-0.323533,-0.422446,-0.124068,0.051667
218,0.238771,0.8956350000000001,-0.375263,-0.269746,-0.009404,-0.0165979999999999
219,0.238114,0.871445,-0.4288149999999999,-0.160904,0.094971,0.057142
220,0.240726,0.841907,-0.48295,-0.083271,-0.103549,0.390955
221,0.2388179999999999,0.8122550000000001,-0.53217,-0.01845,-0.243941,0.347615
222,0.237112,0.7861520000000001,-0.5707369999999999,0.058237,-0.265232,0.168302
223,0.23526,0.761862,-0.603503,0.074433,-0.250601,0.097217
224,0.224816,0.741103,-0.63263,0.0768809999999999,-0.307678,0.131211
225,0.2076869999999999,0.726896,-0.6545890000000001,0.054978,-0.378492,0.144075
226,0.191401,0.722568,-0.664274,-0.106379,-0.565051,0.005064
227,0.1799589999999999,0.730758,-0.658487,-0.064328,-0.526718,-0.154074
228,0.1761319999999999,0.748043,-0.639849,0.031449,-0.53886,-0.125532
229,0.18628,0.770303,-0.609861,0.194762,-0.656626,0.2095
230,0.214427,0.801374,-0.558407,-0.0523179999999999,-0.707777,0.280544
231,0.2394369999999999,0.836614,-0.4926899999999999,-0.1658589999999999,0.751566,-0.52086
232,0.2395489999999999,0.864032,-0.442788,0.140181,1.683148,-0.030143
233,0.230142,0.8883489999999999,-0.397325,0.521796,0.691485,-0.106871
234,0.2348309999999999,0.903998,-0.357263,0.090349,-0.2217469999999999,0.140924
235,0.2392719999999999,0.91591,-0.322263,-0.2368,-0.287828,0.2150389999999999
236,0.2271679999999999,0.930475,-0.287413,-0.236933,-0.201624,0.227111
237,0.197541,0.947649,-0.250867,-0.177781,0.148619,0.257108
238,0.162658,0.96428,-0.209051,0.069749,0.489547,0.231192
239,0.139484,0.976258,-0.16571,0.124279,0.400878,0.165145
240,0.128064,0.983869,-0.124884,-0.032087,-0.142164,-0.03016
241,0.122651,0.988728,-0.085837,-0.142701,-0.258183,-0.076441
242,0.1172859999999999,0.991771,-0.051273,-0.043204,-0.316845,-0.018704
243,0.110326,0.993697,-0.0197409999999999,0.095622,-0.300017,-0.022633
244,0.100626,0.994875,0.009628,0.127538,-0.31505,-0.037247
245,0.089084,0.995436,0.034136,0.123899,-0.2735579999999999,-0.130709
246,0.075332,0.99575,0.05293,0.156067,-0.230796,-0.165082
247,0.060064,0.995855,0.068263,0.155649,-0.182134,-0.140758
248,0.045409,0.995704,0.08066,0.120866,-0.090186,-0.107439
249,0.033954,0.995332,0.090312,0.166562,-0.008043,-0.051585
250,0.02501,0.9947,0.099705,0.259154,0.0885519999999999,-0.0744669999999999
251,0.017581,0.993742,0.110284,0.307843,0.1520099999999999,-0.095697
252,0.011706,0.992545,0.121288,0.314863,0.21093,-0.135829
253,0.005578,0.99142,0.13057,0.340354,0.320088,-0.168442
254,-0.001621,0.990438,0.137923,0.338886,0.385309,-0.151289
255,-0.010226,0.989486,0.144243,0.358752,0.377243,-0.155748
256,-0.0166289999999999,0.988474,0.150454,0.304593,0.42153,-0.197741
257,-0.019491,0.988085,0.152648,0.243261,0.337095,-0.062591
258,-0.0175169999999999,0.98948,0.143584,0.13771,0.332801,-0.016112
259,-0.008814,0.992359,0.123041,-0.174673,0.315319,-0.144601
260,0.0068909999999999,0.995267,0.096901,-0.215585,0.385424,-0.271538
261,0.024353,0.997583,0.0650309999999999,-0.233048,0.383108,-0.239668
262,0.038729,0.998902,0.0262519999999999,-0.110247,0.352157,-0.384635
263,0.053025,0.998419,-0.018503,0.311507,0.240579,-0.408911
264,0.071103,0.995014,-0.069904,0.293429,0.2439849999999999,-0.35751
265,0.096092,0.987667,-0.123596,0.419853,0.12885,-0.086944
266,0.127947,0.975946,-0.176505,0.107694,3.7e-05,0.198707
267,0.160408,0.959961,-0.229652,-0.0361709999999999,-0.006881,0.31272
268,0.1798799999999999,0.943917,-0.2768739999999999,-0.195765,-0.119729,0.369769
269,0.183605,0.930344,-0.317403,-0.203259,-0.143296,-0.0469459999999999
270,0.1851799999999999,0.91589,-0.35616,-0.231949,-0.052426,-0.072826
271,0.191679,0.894904,-0.402992,-0.413587,-0.074851,0.091697
272,0.191441,0.8701139999999999,-0.454147,-0.233663,-0.2310449999999999,0.411529
273,0.187166,0.844922,-0.501071,-0.076784,-0.311277,0.384204
274,0.189788,0.8204020000000001,-0.539369,0.0335699999999999,-0.2755559999999999,0.175615
275,0.198668,0.7963,-0.571345,0.002962,-0.2329,0.140299
276,0.201469,0.774675,-0.599406,-0.009895,-0.2332929999999999,0.17776
277,0.197251,0.758764,-0.62078,0.017974,-0.32427,0.188239
278,0.188803,0.7510720000000001,-0.632648,-0.052328,-0.4306069999999999,0.026675
279,0.183759,0.754263,-0.630332,-0.048749,-0.434943,-0.0566799999999999
280,0.184863,0.767964,-0.6132340000000001,0.060453,-0.521626,-0.131624
281,0.192819,0.787367,-0.585553,0.0991129999999999,-0.577559,0.033001
282,0.214509,0.812789,-0.541625,-0.101121,-0.7954399999999999,0.30989
283,0.240508,0.843126,-0.480929,-0.320601,0.251662,-0.545271
284,0.243334,0.8685309999999999,-0.4317859999999999,-0.021059,1.209136,0.145257
285,0.2387679999999999,0.893874,-0.379443,0.401552,1.210146,-0.43237
286,0.242348,0.910148,-0.335998,0.024376,0.036599,0.11467
287,0.242554,0.920745,-0.305604,-0.262986,-0.423689,0.0140229999999999
288,0.228413,0.933629,-0.275974,-0.286839,-0.1295059999999999,0.206806
289,0.201008,0.948939,-0.243119,-0.146366,0.258001,0.1864019999999999
290,0.167697,0.964165,-0.2055719999999999,0.074429,0.460182,0.177694
291,0.144362,0.97535,-0.166871,0.153947,0.205176,0.140321
292,0.134891,0.982519,-0.128277,0.102306,-0.102652,0.00639
293,0.1305049999999999,0.98728,-0.090778,0.082462,-0.240561,-0.070507
294,0.123825,0.990657,-0.0571029999999999,0.090622,-0.3053389999999999,-0.047893
295,0.114935,0.992983,-0.027721,0.136102,-0.341677,-0.037755
296,0.106494,0.99431,-0.000909,0.184278,-0.307649,-0.068656
297,0.098344,0.994884,0.023005,0.144637,-0.247783,-0.10882
298,0.090115,0.99499,0.04321,0.034336,-0.230922,-0.169568
299,0.0826809999999999,0.994765,0.0600029999999999,-0.070535,-0.12422,-0.252401
300,0.074537,0.994413,0.074699,-0.058683,-0.034651,-0.058753
301,0.0655169999999999,0.994009,0.087451,0.082951,-0.0445459999999999,0.064176
302,0.055637,0.993507,0.099208,0.2375,0.227211,-0.126064
303,0.045535,0.992496,0.1134579999999999,0.286008,0.338086,-0.136682
304,0.037147,0.991164,0.127308,0.366707,0.399903,-0.144505
305,0.027901,0.989588,0.141183,0.403023,0.404501,-0.176477
306,0.017377,0.9878,0.154741,0.358981,0.401452,-0.250841
307,0.005643,0.986015,0.166546,0.219988,0.427788,-0.28062
308,-0.003592,0.985234,0.1711609999999999,0.089667,0.251308,0.1308099999999999
309,-0.006211,0.98726,0.158979,-0.009567,0.249603,0.099261
310,0.003068,0.990535,0.137208,-0.3195199999999999,0.401097,-0.230027
311,0.019921,0.993329,0.11356,-0.3035199999999999,0.499026,-0.3809389999999999
312,0.034753,0.995801,0.084659,-0.225671,0.441485,-0.373996
313,0.045141,0.997728,0.049962,-0.024115,0.265379,-0.389608
314,0.059265,0.99823,0.004572,0.310593,0.2123719999999999,-0.441553
315,0.0826139999999999,0.995149,-0.053387,0.287244,0.215453,-0.383594
316,0.114789,0.986569,-0.116198,0.188342,-0.0086629999999999,0.025027
317,0.153523,0.972507,-0.175091,-0.01096,-0.037037,0.2272
318,0.190295,0.95565,-0.224762,-0.200824,-0.0640029999999999,0.353119
319,0.210497,0.940167,-0.267908,-0.443788,-0.192822,0.2817469999999999
320,0.2118809999999999,0.926561,-0.310788,-0.380552,-0.2525949999999999,-0.034961
321,0.205121,0.911908,-0.355454,-0.246396,-0.17735,-0.048523
322,0.202643,0.890603,-0.407136,-0.045951,-0.182428,0.2695929999999999
323,0.203259,0.863474,-0.461624,-0.0938389999999999,-0.254511,0.330703
324,0.199773,0.835779,-0.511432,-0.067785,-0.270212,0.309589
325,0.195668,0.810055,-0.552741,-0.066106,-0.281354,0.183478
326,0.189779,0.785339,-0.589258,-0.050054,-0.253509,0.219965
327,0.178717,0.7622899999999999,-0.6220720000000001,-0.033499,-0.26853,0.24698
328,0.165464,0.744683,-0.646582,-0.051878,-0.365654,0.200796
329,0.155444,0.736649,-0.6581670000000001,-0.0615559999999999,-0.395554,0.1232549999999999
330,0.152444,0.740246,-0.654825,-0.0435269999999999,-0.429592,-0.036108
331,0.1564289999999999,0.753325,-0.6387729999999999,-0.01408,-0.438902,-0.102255
332,0.166011,0.773204,-0.612041,0.067509,-0.5355489999999999,0.135448
333,0.18297,0.7983779999999999,-0.5736829999999999,0.0713179999999999,-0.5652699999999999,0.312971
334,0.202961,0.8288909999999999,-0.521291,-0.360081,-0.153522,-0.8931370000000001
335,0.204316,0.8522200000000001,-0.481637,0.286193,1.7262099999999998,-0.091773
336,0.197041,0.8763690000000001,-0.439489,0.79771,1.187397,0.500081
337,0.213031,0.8945059999999999,-0.393032,0.300763,0.345561,-0.374714
338,0.227104,0.905688,-0.357982,-0.119956,-0.4864979999999999,0.111507
339,0.2294929999999999,0.919371,-0.319511,-0.302964,-0.499586,0.2123789999999999
340,0.215055,0.935293,-0.281026,-0.212385,-0.213552,0.309087
341,0.190834,0.951967,-0.239452,-0.077996,0.155439,0.236645
342,0.16462,0.966702,-0.195921,0.084907,0.431537,0.126386
343,0.146103,0.977188,-0.1541259999999999,0.077316,0.374711,0.1048089999999999
344,0.137757,0.983901,-0.1138349999999999,-0.046388,-0.007476,0.035389
345,0.133382,0.988305,-0.073884,-0.1545619999999999,-0.2462239999999999,-0.065199
346,0.125419,0.991393,-0.0374959999999999,-0.104484,-0.330642,-0.032557
347,0.112594,0.993618,-0.006365,0.021103,-0.338238,0.002673
348,0.09981,0.994722,0.023683,0.137799,-0.313341,-0.019472
349,0.087382,0.994828,0.051746,0.235082,-0.2395179999999999,-0.117237
350,0.074219,0.994501,0.073849,0.295593,-0.125116,-0.222088
351,0.062102,0.993731,0.092936,0.197908,-0.031237,-0.184107
352,0.052341,0.992673,0.1088809999999999,0.087719,0.043948,-0.119776
353,0.043719,0.991624,0.121514,0.056866,0.164565,-0.07032
354,0.033787,0.990589,0.132617,0.123165,0.189221,-0.093722
355,0.024875,0.989523,0.1422,0.216718,0.182246,-0.113224
356,0.019523,0.988301,0.151245,0.2480389999999999,0.260951,-0.1114349999999999
357,0.015612,0.987271,0.1582619999999999,0.243803,0.264621,-0.096967
358,0.011623,0.986809,0.1614519999999999,0.256413,0.291572,-0.0748279999999999
359,0.007401,0.98693,0.160957,0.267989,0.330239,-0.177925
360,0.0048119999999999,0.987312,0.158701,0.283503,0.3053369999999999,-0.22587
361,0.003395,0.98758,0.157059,0.3185659999999999,0.266036,-0.314453
362,0.0017289999999999,0.987573,0.157127,0.168392,0.281973,-0.15374
363,0.0019579999999999,0.98821,0.153071,0.0787,0.298838,-0.0724279999999999
364,0.008051,0.990705,0.135763,-0.084833,0.348711,0.018046
365,0.021118,0.994024,0.10707,-0.366913,0.38151,-0.244429
366,0.038236,0.996625,0.0726,-0.381223,0.489886,-0.32022
367,0.052111,0.99787,0.039185,-0.120943,0.390802,-0.380784
368,0.063498,0.997977,0.002125,0.014246,0.3185969999999999,-0.373555
369,0.078049,0.995802,-0.047767,0.2225489999999999,0.249528,-0.297051
370,0.09815,0.989089,-0.109843,0.17338,0.1212319999999999,-0.092428
371,0.121491,0.977396,-0.173012,0.0361019999999999,0.0221,0.064369
372,0.145348,0.961843,-0.231794,-0.079506,-0.009008,0.173231
373,0.161987,0.945986,-0.280833,-0.23648,-0.175067,0.224986
374,0.172557,0.931375,-0.320565,-0.249324,-0.245569,0.122796
375,0.176463,0.915425,-0.361741,-0.224101,-0.247669,0.130921
376,0.174698,0.8966729999999999,-0.406762,-0.047379,-0.258551,0.001717
377,0.172816,0.8746290000000001,-0.452941,0.024922,-0.1751059999999999,0.125778
378,0.171966,0.850302,-0.497405,0.021927,-0.148398,0.2251429999999999
379,0.1655839999999999,0.8270870000000001,-0.5371279999999999,-0.109508,-0.230759,0.344852
380,0.157863,0.803525,-0.573956,-0.066295,-0.243573,0.273129
381,0.156518,0.780772,-0.604893,-0.03013,-0.264338,0.228779
382,0.160672,0.761854,-0.627504,-0.015972,-0.291563,0.134492
383,0.163621,0.7467090000000001,-0.6447109999999999,-0.096177,-0.353383,0.179562
384,0.161227,0.7370800000000001,-0.656291,-0.0367,-0.40424,0.175319
385,0.159241,0.733738,-0.660507,0.10289,-0.356739,0.062301
386,0.161194,0.73777,-0.655523,0.093094,-0.365257,0.050756
387,0.16643,0.748596,-0.6417970000000001,0.010679,-0.349808,-0.015811
388,0.1748289999999999,0.76515,-0.61966,0.0824179999999999,-0.260771,-0.105224
389,0.184378,0.786391,-0.589569,0.086069,-0.334045,0.095947
390,0.191934,0.8139689999999999,-0.5482819999999999,-0.156808,-0.438283,0.064975
391,0.19236,0.840852,-0.505929,-0.630089,0.6538689999999999,-1.011528
392,0.181045,0.856614,-0.48315,1.054001,1.5428309999999998,0.594554
393,0.206879,0.8681399999999999,-0.451146,0.110641,0.323434,0.086445
394,0.224081,0.880697,-0.4173229999999999,-0.3942469999999999,-0.345769,-0.164662
395,0.22536,0.8911709999999999,-0.393733,-0.397327,-0.633343,0.2140909999999999
396,0.221818,0.905827,-0.360932,-0.2847139999999999,-0.1544839999999999,0.222825
397,0.211173,0.92034,-0.329208,-0.243689,0.402414,0.158752
398,0.197355,0.933595,-0.299081,-0.075575,0.620895,0.157129
399,0.189423,0.944634,-0.267925,0.064438,0.337379,0.09956
400,0.189294,0.953454,-0.2347139999999999,0.001395,0.0417089999999999,0.063525
401,0.189201,0.961322,-0.20015,-0.016899,-0.084414,0.113297
402,0.1882839999999999,0.968324,-0.163993,0.048304,-0.098131,0.12783
403,0.188842,0.973937,-0.125626,0.127488,-0.155852,0.096299
404,0.190241,0.977917,-0.086502,0.117819,-0.1774099999999999,0.065765
405,0.19002,0.980539,-0.049306,0.078245,-0.170435,0.003789
406,0.1862069999999999,0.982378,-0.016011,-0.034748,-0.161913,-0.10464
407,0.178485,0.983821,0.015366,-0.00896,-0.039103,-0.053345
408,0.167744,0.984742,0.04627,0.015484,-0.019395,-0.080144
409,0.154098,0.985404,0.072307,0.014862,-0.0922159999999999,-0.099026
410,0.137574,0.986128,0.092856,0.0713029999999999,-0.066419,-0.065039
411,0.120794,0.98672,0.108582,0.1024119999999999,-0.036295,-0.051193
412,0.1059359999999999,0.986948,0.121273,0.084219,-0.024653,0.004291
413,0.093278,0.986894,0.131665,0.1090839999999999,-0.0322589999999999,-0.013226
414,0.082512,0.986715,0.1399359999999999,0.137856,-0.03391,-0.045438
415,0.074369,0.986306,0.147198,0.214526,-0.024773,-0.107022
416,0.068298,0.985642,0.154411,0.222076,-0.03833,-0.069481
417,0.063663,0.984913,0.160905,0.199703,-0.0255479999999999,-0.010651
418,0.058824,0.984335,0.166197,0.172225,0.004755,-0.106306
419,0.052989,0.983817,0.171156,0.191166,0.073526,-0.181898
420,0.045219,0.983094,0.177425,0.192345,0.091705,-0.225398
421,0.035176,0.982116,0.184955,0.362102,0.093705,-0.211002
422,0.0242919999999999,0.981202,0.191443,0.421051,0.073745,-0.147971
423,0.011769,0.98052,0.1960609999999999,0.381129,0.031504,-0.103989
424,0.001882,0.980461,0.196698,0.300501,-0.055702,-0.077877
425,-0.002143,0.981295,0.192488,0.29496,-0.023013,-0.110305
426,-0.001328,0.98266,0.1854029999999999,0.300828,0.080358,-0.2273489999999999
427,0.0039159999999999,0.984649,0.174496,0.2457329999999999,0.144746,-0.302045
428,0.01404,0.987161,0.159104,0.233351,0.058219,-0.2504429999999999
429,0.0289959999999999,0.990242,0.136299,0.2852429999999999,0.0053939999999999,-0.075111
430,0.0499709999999999,0.993877,0.098537,0.071123,-0.028194,-0.085979
431,0.081046,0.995608,0.046837,-0.152885,0.43736,-0.134377
432,0.1213819999999999,0.992563,-0.009151,-0.453032,1.018515,-0.108449
433,0.157014,0.984671,-0.075948,-0.665253,0.8086479999999999,-0.061839
434,0.180391,0.972872,-0.144837,-0.53827,0.535474,0.051789
435,0.195457,0.960037,-0.200311,-0.2655869999999999,0.2038569999999999,0.154855
436,0.202572,0.947964,-0.2456179999999999,0.094135,-0.067547,0.118269
437,0.208969,0.935898,-0.283596,0.304138,-0.0771029999999999,0.131237
438,0.219175,0.923494,-0.314835,0.2468429999999999,0.037139,0.105316
439,0.2325699999999999,0.909675,-0.344097,0.0946549999999999,0.032052,0.117076
440,0.248117,0.8938459999999999,-0.3734659999999999,-0.116769,-0.106813,0.1751319999999999
441,0.2601489999999999,0.878446,-0.400817,-0.299761,-0.287199,0.281692
442,0.267001,0.8664620000000001,-0.4218449999999999,-0.294406,-0.343177,0.222398
443,0.2715909999999999,0.858251,-0.435481,-0.167343,-0.316396,0.237254
444,0.27429,0.852965,-0.444088,-0.164213,-0.299956,0.241925
445,0.272071,0.8500209999999999,-0.4510439999999999,-0.190467,-0.23381,0.263346
446,0.26775,0.8496969999999999,-0.454229,-0.25246,-0.267391,0.247488
447,0.263739,0.852514,-0.451289,-0.235892,-0.305105,0.211451
448,0.260934,0.8588879999999999,-0.440708,-0.176583,-0.345644,0.1228369999999999
449,0.259356,0.8692270000000001,-0.420925,-0.117495,-0.334315,0.077266
450,0.256388,0.8823790000000001,-0.394552,-0.089045,-0.314096,0.01267
451,0.2490349999999999,0.897976,-0.362795,0.045505,-0.174893,-0.163679
452,0.2356059999999999,0.915417,-0.326346,0.371648,0.1150549999999999,-0.563897
453,0.219015,0.931764,-0.289564,0.4928079999999999,0.300093,-0.6658350000000001
454,0.2055699999999999,0.94061,-0.270171,0.923382,0.7991659999999999,-0.607255
455,0.2113929999999999,0.936486,-0.279834,0.611956,0.078148,-0.43681
456,0.231089,0.928639,-0.290218,0.4205979999999999,-0.05512,-0.414571
457,0.2429469999999999,0.925055,-0.291976,-0.289288,-0.021368,0.223419
458,0.250374,0.924666,-0.28689,-0.507927,0.0122849999999999,0.2286929999999999
459,0.261747,0.924614,-0.276726,-0.699689,0.175499,0.157876
460,0.272132,0.926477,-0.259969,-0.6760010000000001,0.456488,-0.1708319999999999
461,0.278151,0.926619,-0.253001,-0.359923,0.3114639999999999,0.120371
462,0.287775,0.925283,-0.247056,-0.156138,-0.0701799999999999,0.465364
463,0.298881,0.927431,-0.224815,-0.27111,-0.1252609999999999,0.47393
464,0.3028909999999999,0.933231,-0.193226,-0.281102,-0.0282779999999999,0.430089
465,0.301048,0.939942,-0.160869,-0.019981,0.232909,0.187862
466,0.299512,0.944794,-0.132874,0.005343,0.149444,0.14943
467,0.301382,0.947632,-0.105649,-0.110143,0.040191,0.119184
468,0.30341,0.949858,-0.0755769999999999,-0.189503,-0.042906,0.14151
469,0.299932,0.952786,-0.0473149999999999,-0.138983,-0.072507,0.163022
470,0.29154,0.956304,-0.022055,-0.13059,-0.076025,0.137762
471,0.282051,0.959399,0.000959,0.042656,-0.140917,0.188586
472,0.271076,0.962339,0.020537,0.098401,0.001803,0.1759359999999999
473,0.261411,0.96455,0.036163,0.123141,0.075047,0.1373599999999999
474,0.254359,0.965945,0.047438,0.146566,0.020718,0.107179
475,0.249701,0.966715,0.055764,0.182474,-0.004984,0.090323
476,0.245517,0.967216,0.064915,0.192456,0.014672,0.146251
477,0.2411599999999999,0.967582,0.075011,0.122839,0.1016779999999999,0.111543
478,0.235863,0.968108,0.084464,0.013786,0.084718,0.105081
479,0.228729,0.969096,0.092378,0.0140229999999999,0.088002,0.042006
480,0.2182599999999999,0.970864,0.098911,0.019259,0.108649,0.0106629999999999
481,0.204815,0.973144,0.105077,0.108952,0.139909,-0.050328
482,0.189767,0.97547,0.111555,0.2761909999999999,0.277704,-0.110898
483,0.174247,0.977339,0.120182,0.2967,0.287599,-0.179219
484,0.158458,0.979001,0.128241,0.396733,0.270007,-0.284049
485,0.144109,0.980681,0.132273,0.371775,0.219301,-0.27035
486,0.1338859999999999,0.982441,0.129935,0.268412,0.212215,-0.234717
487,0.130174,0.983956,0.122003,-0.015687,0.276817,-0.048471
488,0.134639,0.985373,0.1044539999999999,-0.174755,0.328515,-0.0041119999999999
489,0.1479,0.986134,0.075267,-0.229627,0.2692219999999999,0.028401
490,0.168524,0.985083,0.034782,-0.274557,0.38772,-0.041496
491,0.193434,0.981046,-0.01147,-0.267821,0.592349,-0.046712
492,0.217587,0.974206,-0.0598159999999999,-0.240643,0.569801,-0.047499
493,0.237854,0.96501,-0.110363,0.0258029999999999,0.290132,-0.129047
494,0.262201,0.950747,-0.165316,0.137091,0.2792489999999999,0.008212
495,0.29653,0.929169,-0.220713,-0.014624,0.239044,0.080714
496,0.327461,0.904981,-0.271619,-0.281426,0.180559,0.203855
497,0.347814,0.881315,-0.319855,-0.5286310000000001,0.08893,0.093247
498,0.360291,0.858182,-0.365668,-0.525177,0.084933,0.034766
499,0.362769,0.836341,-0.411013,-0.371832,0.104806,0.020297
500,0.356966,0.8121470000000001,-0.4615109999999999,0.003721,-0.082609,0.176217
501,0.3523929999999999,0.7833399999999999,-0.5120520000000001,0.1084069999999999,-0.078475,0.193815
502,0.350763,0.750382,-0.5602600000000001,-0.079996,-0.148835,0.28403
503,0.344918,0.719996,-0.602193,-0.116159,-0.171794,0.323872
504,0.3366119999999999,0.6927939999999999,-0.6377520000000001,-0.131885,-0.117126,0.24705
505,0.32541,0.665521,-0.671706,-0.248185,-0.148477,0.273543
506,0.308688,0.640918,-0.702805,-0.222246,-0.145786,0.3002329999999999
507,0.291626,0.623302,-0.725567,-0.205231,-0.2416039999999999,0.331357
508,0.275449,0.613293,-0.74027,-0.210477,-0.282773,0.369573
509,0.263946,0.611685,-0.7457699999999999,-0.187606,-0.266791,0.373288
510,0.26243,0.6188939999999999,-0.740338,-0.120005,-0.333997,0.349545
511,0.271344,0.634182,-0.724006,-0.084882,-0.323376,0.289985
512,0.291882,0.656303,-0.695752,-0.030255,-0.253577,0.198468
513,0.320828,0.6838989999999999,-0.6552479999999999,0.128711,-0.202973,0.251165
514,0.344258,0.715439,-0.607975,0.1392779999999999,-0.311767,0.483921
515,0.35497,0.7501,-0.557983,-0.223317,-0.186914,-0.115174
516,0.352463,0.7834399999999999,-0.51185,-0.073776,0.999763,-0.008627
517,0.34699,0.814234,-0.465424,0.580043,1.401647,-0.494949
518,0.369035,0.833267,-0.411677,0.46736,1.126679,-0.261373
519,0.3871719999999999,0.8385,-0.383424,0.056447,0.2295849999999999,0.285036
520,0.393414,0.844058,-0.364403,-0.352383,-0.264468,0.1076589999999999
521,0.389345,0.854253,-0.344473,-0.374849,-0.030583,0.130895
522,0.374329,0.867864,-0.326632,-0.373413,0.060008,0.193743
523,0.353837,0.884541,-0.303948,-0.213731,0.434337,0.1537859999999999
524,0.339596,0.8993,-0.275559,-0.029782,0.378548,0.152832
525,0.334347,0.91068,-0.242637,-0.031353,0.318157,0.10453
526,0.331785,0.920119,-0.20808,-0.071989,0.00905,0.090283
527,0.322299,0.929912,-0.1771579999999999,-0.049106,-0.109127,0.142993
528,0.3068369999999999,0.93988,-0.149916,-0.010145,-0.129592,0.105681
529,0.291191,0.948521,-0.124554,0.044106,-0.09441,0.033276
530,0.2736429999999999,0.956202,-0.103901,0.0085989999999999,-0.093378,0.095936
531,0.253963,0.963561,-0.083969,0.0073739999999999,-0.127181,0.059295
532,0.235564,0.969668,-0.065198,0.017792,-0.040103,0.0508399999999999
533,0.220859,0.974103,-0.048387,0.122693,0.047701,0.04442
534,0.2089739999999999,0.977511,-0.028275,0.134577,0.044294,0.024308
535,0.200248,0.979721,-0.006669,0.10775,0.178497,-0.107207
536,0.192242,0.981307,0.008837,0.081836,0.280275,-0.045947
537,0.181652,0.983152,0.0203,0.120166,0.27817,-0.096761
538,0.170213,0.984949,0.030003,0.151153,0.179037,-0.165455
539,0.160578,0.986351,0.0364,0.155889,0.043022,-0.247887
540,0.152533,0.987506,0.039534,0.072412,0.0472529999999999,-0.264235
541,0.146931,0.98848,0.036302,0.020824,0.100876,-0.086045
542,0.143022,0.989505,0.020584,-0.0337839999999999,0.168256,0.034668
543,0.144823,0.989439,-0.005979,-0.1036089999999999,0.270815,0.003476
544,0.153284,0.987431,-0.03851,-0.251841,0.440258,-0.144214
545,0.165432,0.983351,-0.075174,-0.332546,0.641939,-0.294836
546,0.179278,0.977015,-0.11532,-0.245807,0.530706,-0.260214
547,0.197256,0.966816,-0.162342,0.010065,0.235119,-0.08308
548,0.223608,0.951247,-0.2124329999999999,-0.0326129999999999,0.2908489999999999,-0.108398
549,0.254357,0.931462,-0.260153,-0.025612,0.336208,-0.094751
550,0.282527,0.909272,-0.305618,-0.358622,0.0131069999999999,0.272125
551,0.294108,0.888624,-0.3519199999999999,-0.4344119999999999,-0.059476,0.406073
552,0.287645,0.870224,-0.399961,-0.333071,-0.103943,0.267805
553,0.28097,0.851334,-0.4430409999999999,-0.033961,0.091537,-0.020017
554,0.287525,0.8253809999999999,-0.485874,-0.042194,0.1290099999999999,-0.007107
555,0.296834,0.7925260000000001,-0.532721,-0.191747,-0.114501,0.384192
556,0.296029,0.760379,-0.578092,-0.072397,-0.180392,0.332227
557,0.294042,0.7303430000000001,-0.616552,-0.0923809999999999,-0.152478,0.2926539999999999
558,0.286294,0.7009380000000001,-0.653239,-0.069237,-0.132442,0.296793
559,0.27142,0.675296,-0.685789,-0.073148,-0.266604,0.279096
560,0.253536,0.657412,-0.709597,-0.099163,-0.451495,0.296511
561,0.237451,0.651316,-0.720697,-0.161646,-0.4839729999999999,0.169
562,0.227397,0.658668,-0.71725,-0.070933,-0.373618,0.031687
563,0.227726,0.6758270000000001,-0.700997,0.058101,-0.46492,0.102059
564,0.243965,0.70106,-0.670071,0.0932549999999999,-0.658473,0.611401
565,0.273232,0.740503,-0.614002,-0.226342,-0.6617529999999999,0.143283
566,0.294263,0.777816,-0.555347,-0.294156,0.689331,-0.30119
567,0.294278,0.809222,-0.508487,0.4160029999999999,2.252362,0.395419
568,0.302189,0.835636,-0.458687,0.128521,0.159878,0.325523
569,0.3090719999999999,0.847507,-0.431515,-0.164845,-0.383747,0.335659
570,0.308365,0.860808,-0.40487,-0.298187,-0.639388,0.15403
571,0.2969739999999999,0.878632,-0.3739119999999999,-0.418861,-0.1204079999999999,0.4532279999999999
572,0.2771699999999999,0.899128,-0.338738,-0.248713,0.286479,0.35659
573,0.255419,0.918744,-0.301113,0.1198559999999999,0.364215,0.271465
574,0.2441239999999999,0.933164,-0.263831,0.227907,0.103167,0.229376
575,0.24335,0.94396,-0.222978,-0.065036,-0.1897329999999999,0.0589909999999999
576,0.24531,0.952242,-0.181816,-0.127237,-0.24399,-0.010064
577,0.240629,0.959696,-0.1451839999999999,-0.092451,-0.143229,0.021023
578,0.230688,0.966338,-0.113893,0.123392,-0.04753,0.04831
579,0.219612,0.971794,-0.085934,0.20089,-0.027504,0.024381
580,0.205115,0.976632,-0.064147,0.098398,-0.080453,-0.0569929999999999
581,0.188593,0.980941,-0.046745,-0.082742,0.022996,-0.011146
582,0.1708339999999999,0.984804,-0.031195,-0.064984,0.019132,-0.026697
583,0.152944,0.988105,-0.015915,-0.003072,0.243661,0.0582279999999999
584,0.13818,0.990405,-0.000508,0.224873,0.380902,0.019948
585,0.129072,0.991554,0.012567,0.306505,0.396309,0.01641
586,0.125025,0.991903,0.02223,0.30065,0.324641,-0.017469
587,0.1238339999999999,0.991907,0.0279649999999999,0.116248,0.307409,-0.092296
588,0.123903,0.991883,0.028506,0.058501,0.3207239999999999,-0.098864
589,0.1259539999999999,0.991769,0.022924,-0.076134,0.2590699999999999,0.019618
590,0.133527,0.991026,0.005918,-0.417889,0.357577,-0.0480019999999999
591,0.147328,0.988869,-0.0206949999999999,-0.537449,0.434913,-0.115215
592,0.161988,0.985343,-0.053437,-0.310838,0.429818,-0.440917
593,0.172777,0.980583,-0.092744,-0.18802,0.405876,-0.384139
594,0.185471,0.97315,-0.136293,-0.0527049999999999,0.326777,-0.304869
595,0.20243,0.960928,-0.188776,0.118585,0.192454,-0.0831809999999999
596,0.221592,0.943036,-0.248148,0.131237,0.142002,0.066095
597,0.244901,0.921426,-0.301654,0.146471,0.080436,0.310855
598,0.269528,0.896644,-0.351255,-0.335202,-0.148155,0.232771
599,0.278903,0.872583,-0.401009,-0.488651,-0.222254,0.3210679999999999
600,0.266756,0.8533629999999999,-0.447896,-0.502901,-0.268142,0.532674
601,0.2493949999999999,0.836609,-0.487735,-0.042791,-0.086212,0.064456
602,0.246666,0.8137909999999999,-0.526211,-0.132973,-0.095849,0.144452
603,0.2482619999999999,0.785319,-0.567131,-0.113771,-0.129115,0.352668
604,0.243196,0.756347,-0.607284,-0.027223,-0.168853,0.382201
605,0.239858,0.7289720000000001,-0.6411439999999999,-0.1210079999999999,-0.187193,0.333176
606,0.237132,0.704014,-0.6694260000000001,-0.191874,-0.152469,0.2429889999999999
607,0.233715,0.682003,-0.692999,-0.162029,-0.146374,0.248801
608,0.230996,0.664037,-0.711122,-0.099832,-0.226125,0.267518
609,0.229026,0.65288,-0.722006,-0.0972669999999999,-0.306231,0.184134
610,0.226847,0.649687,-0.7255659999999999,-0.059626,-0.271391,0.0927679999999999
611,0.229065,0.653984,-0.7209939999999999,0.058578,-0.347313,0.0186479999999999
612,0.239761,0.665072,-0.7072430000000001,0.078079,-0.305895,0.0113049999999999
613,0.260947,0.6819350000000001,-0.683279,0.041482,-0.292485,0.093572
614,0.285761,0.707058,-0.646844,-0.116419,-0.271359,0.00715
615,0.3019949999999999,0.7320399999999999,-0.610668,-0.200982,0.69098,-1.0732469999999998
616,0.307014,0.749728,-0.5862149999999999,0.692971,1.4253049999999998,0.47594
617,0.328511,0.7685890000000001,-0.548953,0.100566,0.387463,0.0313899999999999
618,0.346932,0.787283,-0.509727,-0.231896,-0.019827,0.026054
619,0.3477679999999999,0.80535,-0.480068,-0.2892659999999999,-0.344794,0.354504
620,0.340278,0.827981,-0.4457069999999999,-0.297248,0.186942,0.305265
621,0.327748,0.8520469999999999,-0.408159,-0.223775,0.298267,0.3450789999999999
622,0.311484,0.874634,-0.371471,-0.025595,0.3865659999999999,0.232692
623,0.295693,0.893975,-0.336705,0.124839,0.2710329999999999,0.275151
624,0.286592,0.909813,-0.300168,0.121169,0.127296,0.2440159999999999
625,0.280084,0.923284,-0.262861,-0.016488,-0.105215,0.16319
626,0.272473,0.935089,-0.226634,-0.188885,-0.29631,0.138087
627,0.263146,0.94531,-0.192716,-0.177361,-0.313184,0.1146369999999999
628,0.251646,0.954467,-0.160194,-0.128843,-0.235076,0.1119309999999999
629,0.239156,0.962551,-0.127653,-0.016821,-0.037044,0.0601019999999999
630,0.227523,0.968847,-0.097794,0.009599,0.0004219999999999,-0.024536
631,0.215162,0.973732,-0.074471,-0.062605,0.0091019999999999,-0.060798
632,0.201624,0.977837,-0.056364,-0.075373,-0.017205,-0.022508
633,0.187749,0.981322,-0.04186,-0.0311019999999999,-0.027617,-0.011622
634,0.174394,0.98429,-0.027468,0.051498,0.053353,0.048678
635,0.161114,0.986801,-0.016136,0.137821,0.191635,0.039528
636,0.149384,0.988757,-0.006252,0.161529,0.229185,0.031017
637,0.139753,0.990177,0.0034289999999999,0.253863,0.359417,0.000889
638,0.129227,0.991536,0.012337,0.2425989999999999,0.371349,-0.031456
639,0.118729,0.992749,0.018621,0.244201,0.358081,-0.065161
640,0.1115869999999999,0.993502,0.022297,0.199784,0.2839489999999999,-0.074436
641,0.1073809999999999,0.993976,0.021794,0.047465,0.240551,0.085505
642,0.107319,0.994166,0.010574,-0.077153,0.241644,0.1122599999999999
643,0.114216,0.993394,-0.010881,-0.372273,0.290984,-0.030226
644,0.12714,0.991172,-0.0375389999999999,-0.445774,0.321664,-0.20558
645,0.140454,0.987915,-0.06551,-0.4491699999999999,0.393142,-0.241421
646,0.15003,0.984133,-0.094706,-0.201772,0.231688,-0.255697
647,0.160948,0.978534,-0.128694,-0.017287,0.174023,-0.278227
648,0.178427,0.968994,-0.170907,0.075541,0.156952,-0.246817
649,0.204268,0.953679,-0.220832,0.253191,0.191401,-0.02369
650,0.235903,0.932756,-0.272601,0.131956,0.140715,0.196491
651,0.270907,0.906876,-0.322772,0.016294,0.080154,0.330768
652,0.2999719999999999,0.8832760000000001,-0.360329,-0.302428,-0.093817,0.395821
653,0.31818,0.8644950000000001,-0.389109,-0.339207,-0.125909,0.155879
654,0.328424,0.844929,-0.422172,-0.458978,-0.122914,-0.056862
655,0.33048,0.821106,-0.465365,-0.441839,-0.071183,-0.012357
656,0.321179,0.795037,-0.5145460000000001,-0.254178,-0.094995,0.2887
657,0.307235,0.768184,-0.561692,-0.0908799999999999,-0.058574,0.408723
658,0.299514,0.73953,-0.602815,-0.135848,-0.073102,0.268906
659,0.2923489999999999,0.710066,-0.640575,-0.128653,-0.172118,0.236644
660,0.284744,0.683979,-0.6716340000000001,-0.1002649999999999,-0.170871,0.229038
661,0.278993,0.661841,-0.695793,-0.074647,-0.230673,0.19944
662,0.268788,0.644107,-0.716155,-0.094044,-0.349169,0.195769
663,0.252365,0.633149,-0.731733,-0.1059109999999999,-0.359848,0.203077
664,0.241415,0.633471,-0.7351409999999999,-0.109213,-0.3065969999999999,0.0540039999999999
665,0.239507,0.645015,-0.725665,-0.072362,-0.297786,0.040592
666,0.249009,0.665045,-0.7040649999999999,-0.0077519999999999,-0.266013,0.073862
667,0.272311,0.692102,-0.668461,-0.072421,-0.364939,0.392322
668,0.299023,0.7272069999999999,-0.617862,-0.330501,-0.037769,-0.479779
669,0.313501,0.75921,-0.570364,-0.177866,0.715263,-0.162714
670,0.308607,0.7941239999999999,-0.523571,0.3502369999999999,1.344014,0.605862
671,0.31879,0.823131,-0.46992,0.161633,0.682743,0.1064259999999999
672,0.32814,0.837562,-0.43682,-0.10939,0.130944,0.205253
673,0.323847,0.851825,-0.411721,-0.316538,-0.259967,0.116692
674,0.306529,0.870411,-0.385256,-0.338389,0.03056,0.3336199999999999
675,0.2837429999999999,0.891316,-0.353613,-0.327414,0.183696,0.303045
676,0.259837,0.911781,-0.318021,-0.224619,0.428292,0.267606
677,0.244136,0.928522,-0.2797159999999999,0.081136,0.211706,0.186439
678,0.23872,0.940928,-0.2401309999999999,0.0897559999999999,0.064687,0.131122
679,0.2391239999999999,0.949897,-0.201273,0.022259,-0.142814,0.096735
680,0.2379889999999999,0.957044,-0.165603,-0.0125709999999999,-0.273755,0.100097
681,0.232756,0.963282,-0.13382,0.025377,-0.269526,0.074113
682,0.2250909999999999,0.96865,-0.105102,0.024878,-0.20925,0.011581
683,0.216601,0.972936,-0.080459,-0.0159169999999999,-0.2066849999999999,-0.03299
684,0.2072119999999999,0.976363,-0.061417,-0.022306,-0.183867,-0.0315089999999999
685,0.197201,0.979297,-0.045635,-0.06181,-0.095035,-0.072132
686,0.187541,0.981721,-0.032343,-0.055034,-0.062638,-0.042532
687,0.1791579999999999,0.983604,-0.020463,0.003093,0.026345,0.023912
688,0.1721619999999999,0.985024,-0.00899,0.125522,0.203926,0.058459
689,0.1668,0.985984,0.00227,0.113596,0.238121,0.04079
690,0.161321,0.986795,0.014235,0.102259,0.26235,0.029039
691,0.1539829999999999,0.98778,0.0239,0.140985,0.408261,-0.063466
692,0.145791,0.988866,0.029687,0.213523,0.35612,-0.105523
693,0.139155,0.989764,0.031553,0.14533,0.260526,-0.156264
694,0.136896,0.990113,0.030441,0.05126,0.335342,-0.0246879999999999
695,0.139032,0.990048,0.021587,-0.168542,0.130466,0.21204
696,0.14977,0.988713,-0.002739,-0.34818,0.374233,0.020561
697,0.171551,0.984633,-0.032559,-0.515454,0.586595,-0.179431
698,0.194405,0.978877,-0.0632419999999999,-0.482842,0.5541739999999999,-0.4213
699,0.209481,0.973194,-0.094895,-0.190896,0.33595,-0.317611
700,0.224071,0.965195,-0.134851,0.2307789999999999,0.205231,-0.147895
701,0.2455139999999999,0.952225,-0.181613,0.252105,0.1332539999999999,-0.123654
702,0.271961,0.933403,-0.234073,0.224682,0.091698,-0.115094
703,0.302068,0.908372,-0.289153,-0.290975,-0.0446639999999999,0.237319
704,0.32422,0.881968,-0.342067,-0.50879,-0.058252,0.590847
705,0.320364,0.8606370000000001,-0.39581,-0.45043,-0.087337,0.5795710000000001
706,0.305644,0.843008,-0.4426239999999999,-0.246714,-0.014547,0.079801
707,0.301584,0.8214799999999999,-0.483956,-0.453103,0.029762,-0.036262
708,0.2971789999999999,0.792926,-0.531931,-0.517775,0.00105,0.161249
709,0.28419,0.762767,-0.580878,-0.109096,-0.134929,0.458838
710,0.277675,0.733743,-0.620093,-0.07455,-0.091684,0.339819
711,0.276865,0.7040420000000001,-0.653963,-0.150705,-0.071947,0.300417
712,0.27194,0.6742859999999999,-0.686575,-0.2245,-0.097152,0.344336
713,0.263971,0.647076,-0.7152689999999999,-0.12504,-0.1922569999999999,0.334654
714,0.255942,0.6247050000000001,-0.7377229999999999,-0.1170109999999999,-0.1698869999999999,0.357107
715,0.251477,0.610771,-0.7508100000000001,-0.1723299999999999,-0.328331,0.300981
716,0.254582,0.608541,-0.751575,-0.1228369999999999,-0.362508,0.068606
717,0.271512,0.618779,-0.737151,-0.10693,-0.334737,0.000624
718,0.301056,0.6398119999999999,-0.70711,0.016769,-0.286388,-0.050062
719,0.336169,0.668999,-0.662894,0.122679,-0.311577,0.319342
720,0.367803,0.705112,-0.606246,0.086359,-0.341236,0.453399
721,0.3900349999999999,0.741462,-0.545988,-0.275991,0.044167,-0.5912189999999999
722,0.390918,0.775061,-0.496447,0.778439,1.764765,0.722888
723,0.401681,0.7981739999999999,-0.448963,0.5384439999999999,1.163405,0.541355
724,0.4239779999999999,0.811183,-0.402765,-0.525343,0.135564,-0.368292
725,0.4254489999999999,0.8203889999999999,-0.382035,-0.800006,-0.628739,0.256455
726,0.417709,0.8384309999999999,-0.350069,-0.708328,-0.366705,0.318575
727,0.402363,0.8620030000000001,-0.308302,-0.213719,0.602917,0.407088
728,0.378857,0.8871549999999999,-0.263472,-0.042523,0.738867,0.3533159999999999
729,0.35441,0.907832,-0.2241159999999999,0.151785,0.768925,0.294581
730,0.345544,0.920742,-0.1811829999999999,0.2268889999999999,0.106022,0.207642
731,0.345892,0.928416,-0.135631,0.082713,-0.076823,0.117518
732,0.345536,0.933918,-0.091615,-0.1469589999999999,-0.295521,0.159654
733,0.339065,0.939439,-0.0498129999999999,-0.098282,-0.275742,0.179329
734,0.330086,0.943902,-0.009204,-0.05442,-0.15609,0.115543
735,0.321753,0.946428,0.027222,-0.173804,-0.071244,-0.111115
736,0.311236,0.948689,0.055784,-0.243975,-0.004323,-0.106398
737,0.297641,0.951377,0.079262,-0.180194,-0.084571,-0.027535
738,0.281232,0.954345,0.100623,-0.16522,-0.150024,-0.017188
739,0.261769,0.957953,0.117441,-0.089086,-0.1232819999999999,-0.008249
740,0.241333,0.961773,0.129388,-0.01889,-0.072399,-0.011529
741,0.223167,0.964683,0.139905,0.084634,-0.001594,-0.0616419999999999
742,0.207627,0.966597,0.1502369999999999,0.161391,0.002412,-0.071425
743,0.194933,0.967842,0.158974,0.1605059999999999,-0.004967,-0.1050339999999999
744,0.185593,0.96836,0.166805,0.145218,0.01838,-0.106746
745,0.178193,0.968299,0.175026,0.1247089999999999,0.068276,-0.138603
746,0.170879,0.968295,0.182195,0.123143,0.09715,-0.141988
747,0.165534,0.968226,0.187422,0.090432,0.057409,-0.159498
748,0.165798,0.968065,0.18802,0.053975,0.04251,-0.264955
749,0.160527,0.968133,0.192198,0.099696,0.074775,-0.265379
750,0.15199,0.968589,0.196786,0.128467,0.041375,-0.227898
751,0.143874,0.970226,0.1948079999999999,0.341706,0.0090829999999999,-0.061172
752,0.140299,0.973586,0.180099,0.2417659999999999,-0.102233,-0.049132
753,0.141611,0.976046,0.165135,0.160711,-0.0015279999999999,-0.127064
754,0.152218,0.976264,0.154038,0.059315,0.250207,-0.308915
755,0.164985,0.975763,0.143722,0.049157,0.322546,-0.242492
756,0.181876,0.976165,0.118381,-0.014472,0.225923,-0.1598089999999999
757,0.205211,0.975642,0.0774779999999999,-0.232555,0.232977,-0.0615179999999999
758,0.234679,0.971773,0.023981,-0.547866,0.315352,-0.138757
759,0.265179,0.963509,-0.0363529999999999,-0.6334350000000001,0.497489,-0.085031
760,0.292092,0.951262,-0.098869,-0.78074,0.690706,-0.024377
761,0.31385,0.936371,-0.157162,-0.587821,0.293151,0.133252
762,0.336856,0.920416,-0.198382,-0.5080899999999999,0.2310579999999999,0.196063
763,0.357757,0.90599,-0.22624,-0.234954,0.086548,0.109083
764,0.373717,0.8919030000000001,-0.254632,0.093782,0.020633,-0.0061259999999999
765,0.385638,0.877051,-0.28646,0.079145,0.04635,0.0327519999999999
766,0.395766,0.8610450000000001,-0.319319,-0.080046,0.072259,0.118681
767,0.404607,0.844324,-0.35129,-0.398229,-0.0883419999999999,0.194338
768,0.4113189999999999,0.8301790000000001,-0.376315,-0.493076,-0.1711369999999999,0.212329
769,0.416603,0.820068,-0.392333,-0.503166,-0.2495409999999999,0.181106
770,0.41921,0.814172,-0.401723,-0.440801,-0.2260219999999999,0.204839
771,0.417829,0.812258,-0.407001,-0.388517,-0.168688,0.217975
772,0.413492,0.81363,-0.408686,-0.359583,-0.111161,0.187876
773,0.407732,0.817873,-0.405995,-0.348344,-0.102618,0.169545
774,0.40155,0.8251200000000001,-0.397402,-0.3321989999999999,-0.186631,0.079165
775,0.395534,0.8358399999999999,-0.380682,-0.257777,-0.2403809999999999,-0.041239
776,0.3885369999999999,0.850044,-0.355609,-0.229861,-0.2332219999999999,-0.087201
777,0.378717,0.866699,-0.324654,-0.191003,-0.1580349999999999,-0.170356
778,0.367236,0.883236,-0.291589,0.0135319999999999,0.020359,-0.233298
779,0.359373,0.8959159999999999,-0.261108,0.106066,0.142704,-0.364716
780,0.357937,0.902883,-0.238067,0.222355,0.170878,-0.452637
781,0.365279,0.904472,-0.220213,0.427934,-0.017341,-0.3690199999999999
782,0.380527,0.902329,-0.202467,0.268368,-0.055924,-0.325639
783,0.39786,0.899542,-0.180344,-0.0123769999999999,0.23858,0.013885
784,0.410606,0.899222,-0.150976,-0.5143810000000001,0.4490439999999999,0.16567
785,0.415608,0.900955,-0.124665,-0.7039989999999999,0.6372220000000001,-0.107848
786,0.419124,0.9,-0.119696,-0.4525869999999999,0.206827,-0.015894
787,0.425134,0.897893,-0.114201,-0.510171,-0.066334,0.191975
788,0.425159,0.900989,-0.086311,-0.657031,-0.090473,0.268424
789,0.411877,0.909256,-0.060024,-0.475689,-0.091995,0.379864
790,0.390315,0.92009,-0.032866,0.008184,0.381287,0.135741
791,0.3763289999999999,0.926445,-0.0081879999999999,0.098433,0.293785,0.044611
792,0.374013,0.92717,0.02145,0.1174109999999999,0.138733,-0.012341
793,0.376157,0.9247,0.058516,-0.231931,-0.051989,0.027987
794,0.373158,0.922978,0.094094,-0.360523,0.067378,0.0241919999999999
795,0.3633389999999999,0.923442,0.123398,-0.355939,0.050679,-0.003388
796,0.349251,0.925337,0.147523,-0.24894,0.067476,-0.0513309999999999
797,0.3321929999999999,0.927445,0.171701,-0.149591,0.051757,-0.084039
798,0.312052,0.929771,0.195288,-0.1027319999999999,-0.02288,-0.099478
799,0.291971,0.931597,0.216489,0.076818,-0.015872,-0.060194
800,0.273926,0.932634,0.234836,0.232956,0.007811,-0.0483269999999999
801,0.258783,0.932701,0.251175,0.332877,0.025582,-0.067626
802,0.245925,0.931817,0.266883,0.316712,-0.038887,-0.168021
803,0.2342429999999999,0.930866,0.280366,0.17657,-0.106449,-0.194398
804,0.221538,0.930176,0.2927119999999999,0.1509599999999999,-0.054978,-0.216052
805,0.208722,0.929069,0.305373,0.085376,0.023995,-0.314467
806,0.194716,0.927736,0.318402,0.047014,0.1192,-0.449643
807,0.180812,0.926666,0.329522,0.097188,0.129761,-0.344964
808,0.168473,0.926382,0.336782,0.097198,0.244975,-0.282552
809,0.156571,0.927299,0.339984,0.092376,0.2385179999999999,-0.2484309999999999
810,0.145176,0.929999,0.337659,0.072369,0.272287,-0.328718
811,0.136783,0.934172,0.329545,0.08624,0.321336,-0.429414
812,0.133184,0.939467,0.315677,0.1198829999999999,0.377382,-0.39339
813,0.135958,0.946248,0.29346,0.114561,0.363063,-0.333011
814,0.145469,0.954915,0.258775,0.014351,0.3881489999999999,-0.262819
815,0.165987,0.964069,0.2073849999999999,-0.417239,0.201062,-0.339313
816,0.195785,0.970305,0.142006,-0.513305,0.286699,-0.225609
817,0.225844,0.97192,0.06601,-0.651412,0.735157,-0.196534
818,0.245123,0.969392,-0.0136169999999999,-0.291097,0.6208640000000001,-0.121102
819,0.258554,0.962532,-0.0817,-0.085107,0.420067,-0.076701
820,0.2726679999999999,0.95221,-0.137622,0.14817,0.126769,-0.058789
821,0.288202,0.93859,-0.189687,0.166845,0.037225,-0.1198839999999999
822,0.301161,0.92084,-0.247688,0.072084,0.0551279999999999,-0.047997
823,0.310224,0.899291,-0.308269,-0.076093,0.10933,0.058208
824,0.316078,0.8756959999999999,-0.365026,-0.3895949999999999,-0.031855,0.09049
825,0.315729,0.8501200000000001,-0.421433,-0.4635869999999999,-0.220634,0.165009
826,0.30882,0.822976,-0.476797,-0.305616,-0.246682,0.190237
827,0.297578,0.7961739999999999,-0.526829,-0.214601,-0.2170119999999999,0.224675
828,0.2857389999999999,0.771169,-0.5688989999999999,-0.104006,-0.182195,0.250738
829,0.276955,0.749798,-0.600911,-0.1652,-0.206387,0.224965
830,0.269458,0.7325119999999999,-0.625152,-0.20119,-0.317427,0.156661
831,0.261237,0.719417,-0.643576,-0.15995,-0.312267,0.108572
832,0.257132,0.7119800000000001,-0.653424,-0.033117,-0.48438,0.0019199999999999
833,0.258129,0.7124,-0.652573,0.05402,-0.4864479999999999,-0.075271
834,0.263737,0.720703,-0.641113,0.060589,-0.473205,-0.168899
835,0.275435,0.734314,-0.620414,0.151963,-0.462738,-0.367303
836,0.292193,0.7516470000000001,-0.591308,0.196195,-0.391097,-0.185837
837,0.310334,0.772151,-0.5545,0.119994,-0.402781,-0.163563
838,0.317242,0.795473,-0.516308,-0.990231,0.150358,-1.257832
839,0.297286,0.809809,-0.505791,0.061708,1.229116,-0.30526
840,0.293098,0.82837,-0.477379,0.56881,0.895568,0.799218
841,0.313585,0.8475450000000001,-0.4281649999999999,-0.363008,0.0423329999999999,-0.336453
842,0.317801,0.862539,-0.393727,-0.265845,-0.33637,0.256551
843,0.319567,0.879519,-0.352585,-0.281206,-0.251101,0.111268
844,0.3145139999999999,0.8965989999999999,-0.311742,-0.233612,0.437889,0.138769
845,0.3025219999999999,0.912734,-0.27457,-0.041277,0.459504,0.1109339999999999
846,0.289021,0.92621,-0.242057,-0.050023,0.319319,0.062965
847,0.280472,0.936614,-0.209952,-0.194504,0.114946,0.0494449999999999
848,0.273069,0.945606,-0.176784,-0.274763,-0.040897,0.059307
849,0.26269,0.954383,-0.141903,-0.198268,-0.088462,0.03001
850,0.251581,0.96223,-0.103974,-0.096933,-0.113185,-0.014983
851,0.238936,0.968774,-0.066149,0.059052,-0.077889,-0.044065
852,0.22379,0.97423,-0.027979,0.135249,0.014784,-0.141103
853,0.207115,0.978261,0.0098129999999999,0.172615,0.137568,-0.155092
854,0.190516,0.980602,0.045946,0.274176,0.144841,-0.073198
855,0.173348,0.981355,0.082947,0.295768,0.10382,-0.164734
856,0.155399,0.980568,0.1196849999999999,0.232754,0.235283,-0.292186
857,0.138211,0.978828,0.15093,0.328785,0.333306,-0.369406
858,0.1232119999999999,0.976899,0.174566,0.28757,0.344893,-0.4475
859,0.113022,0.975384,0.189308,0.2639309999999999,0.282962,-0.422462
860,0.104629,0.974778,0.197093,0.168381,-0.03473,-0.428554
861,0.095666,0.975332,0.198901,0.0828769999999999,-0.13088,-0.423327
862,0.088126,0.976838,0.194954,-0.030356,-0.044831,-0.426689
863,0.081865,0.980171,0.180415,0.075194,0.082787,-0.0886639999999999
864,0.082882,0.985501,0.148001,-0.076061,-0.017682,-0.105567
865,0.0957929999999999,0.989537,0.107833,-0.252226,0.303707,-0.294326
866,0.114684,0.991295,0.064576,-0.359801,0.633934,-0.537125
867,0.133195,0.990998,0.01303,-0.2918719999999999,0.52365,-0.444747
868,0.153679,0.987024,-0.046422,-0.057548,0.239355,-0.127925
869,0.181276,0.977455,-0.108213,-0.11696,0.260215,-0.21654
870,0.211926,0.96194,-0.17248,-0.119839,0.2807969999999999,-0.190892
871,0.235779,0.944316,-0.229492,-0.390931,-0.170375,0.47229
872,0.242753,0.930027,-0.275886,-0.413225,-0.212223,0.4422069999999999
873,0.23494,0.917097,-0.3220679999999999,-0.370103,-0.2326639999999999,0.316712
874,0.2329719999999999,0.902101,-0.363223,-0.142441,-0.003663,-0.3171199999999999
875,0.244131,0.880225,-0.406937,-0.273611,0.064203,-0.1784359999999999
876,0.246302,0.855649,-0.455185,-0.281534,-0.096799,0.314743
877,0.2490079999999999,0.83462,-0.491324,0.000732,-0.32371,0.11524
878,0.257842,0.814864,-0.519142,-0.0293259999999999,-0.284514,0.093651
879,0.258239,0.796273,-0.547044,-0.0326529999999999,-0.288003,0.1020669999999999
880,0.24804,0.783025,-0.570389,-0.018059,-0.383214,0.131134
881,0.235836,0.777799,-0.582585,-0.148494,-0.539701,0.003285
882,0.22746,0.782863,-0.5791229999999999,-0.119794,-0.496608,-0.101724
883,0.2227219999999999,0.796323,-0.56237,-0.049306,-0.4334689999999999,-0.010308
884,0.2255199999999999,0.814557,-0.534446,-0.033839,-0.567243,0.373511
885,0.241254,0.839443,-0.486956,-0.4822359999999999,-0.608455,-0.4358649999999999
886,0.248955,0.8607459999999999,-0.443995,-0.432411,0.87897,-0.129186
887,0.238405,0.882608,-0.405165,1.187285,1.2088219999999998,0.965254
888,0.255161,0.9005620000000001,-0.351956,0.42152,0.687695,-0.469806
889,0.2591179999999999,0.910485,-0.322283,-0.154565,-0.392999,0.110751
890,0.249338,0.922013,-0.296167,-0.199701,-0.335312,0.062235
891,0.2319989999999999,0.935366,-0.266942,-0.087514,-0.077395,0.236089
892,0.211912,0.949124,-0.2329119999999999,-0.009703,0.195499,0.16118
893,0.193374,0.961239,-0.196512,0.1197059999999999,0.315159,0.029718
894,0.18293,0.970097,-0.159498,0.2140889999999999,0.115825,-0.045962
895,0.179897,0.97585,-0.12387,0.093739,-0.092107,-0.072037
896,0.177647,0.980053,-0.089032,-0.057576,-0.231686,-0.061023
897,0.170964,0.983716,-0.055347,-0.070653,-0.312924,-0.024365
898,0.16009,0.986844,-0.022328,-0.0858559999999999,-0.295301,-0.068798
899,0.147194,0.989045,0.010619,0.126961,-0.183503,-0.13185
900,0.132707,0.990306,0.040894,0.20323,-0.129161,-0.212342
901,0.116866,0.990911,0.066528,0.253815,-0.030981,-0.231185
902,0.102768,0.990811,0.087871,0.1545109999999999,0.013737,-0.207134
903,0.0898809999999999,0.990304,0.105865,0.1443559999999999,0.075446,-0.2151179999999999
904,0.075936,0.989547,0.12255,0.207359,0.168504,-0.152472
905,0.0617179999999999,0.988448,0.13838,0.234196,0.220857,-0.132292
906,0.048548,0.987099,0.152531,0.235388,0.1986,-0.145558
907,0.03648,0.985539,0.165435,0.268879,0.347865,-0.166777
908,0.024733,0.984069,0.176023,0.384416,0.391267,-0.23892
909,0.016237,0.983203,0.181754,0.393858,0.300381,-0.307471
910,0.013084,0.983154,0.182271,0.333351,0.267319,-0.380803
911,0.013672,0.984219,0.1763829999999999,0.151275,0.1161529999999999,-0.091941
912,0.019285,0.987368,0.157223,0.063356,0.145826,-0.0595059999999999
913,0.0337149999999999,0.991283,0.1273109999999999,-0.147637,0.311513,-0.189979
914,0.0547289999999999,0.994008,0.094553,-0.388698,0.5919300000000001,-0.50979
915,0.075365,0.995186,0.062539,-0.399721,0.577171,-0.5391020000000001
916,0.091409,0.995452,0.0266089999999999,0.219992,0.1242539999999999,-0.2591989999999999
917,0.1111099999999999,0.993539,-0.022876,0.19109,0.038459,-0.172177
918,0.137989,0.987144,-0.080597,0.179196,0.045297,-0.102447
919,0.169488,0.976008,-0.136648,0.239096,0.167669,0.089712
920,0.200824,0.962617,-0.1817349999999999,0.150876,0.0912309999999999,0.26105
921,0.226097,0.950118,-0.214819,-0.418587,-0.1655869999999999,0.080084
922,0.23935,0.936617,-0.255834,-0.524964,-0.170382,-0.242213
923,0.2395719999999999,0.921514,-0.305628,-0.313241,-0.096502,-0.1446589999999999
924,0.239406,0.903434,-0.355646,-0.103328,-0.043022,0.095575
925,0.244299,0.880236,-0.406812,-0.0582179999999999,-0.171114,0.331449
926,0.244483,0.855978,-0.455547,0.050759,-0.186056,0.174801
927,0.245044,0.8330639999999999,-0.495935,0.055783,-0.221568,0.020349
928,0.243692,0.810413,-0.532767,-0.004922,-0.319766,0.119772
929,0.232983,0.790994,-0.565723,-0.0595059999999999,-0.454385,0.187412
930,0.217831,0.7794800000000001,-0.58733,-0.084683,-0.499908,0.109867
931,0.206308,0.778583,-0.5926560000000001,-0.083582,-0.466037,-0.019527
932,0.202577,0.78696,-0.582797,0.012587,-0.490131,-0.098875
933,0.210727,0.801854,-0.559124,0.0585759999999999,-0.6178020000000001,0.197002
934,0.232506,0.8231200000000001,-0.5180819999999999,-0.155282,-0.8555440000000001,0.4393319999999999
935,0.256704,0.8487110000000001,-0.462371,-0.4741109999999999,-0.3074659999999999,-0.464189
936,0.255359,0.8730690000000001,-0.415375,0.01698,0.981744,0.639206
937,0.248071,0.8979520000000001,-0.363504,0.551795,1.12724,-0.264106
938,0.2519139999999999,0.913977,-0.318085,0.281228,0.474863,-0.117141
939,0.252841,0.923004,-0.290046,-0.01633,-0.080185,0.081886
940,0.24153,0.933185,-0.2661219999999999,-0.191969,-0.303348,0.090951
941,0.223264,0.945153,-0.238389,-0.104779,0.1658079999999999,0.147782
942,0.200152,0.95837,-0.2036099999999999,-0.051486,0.270512,0.085736
943,0.178803,0.969718,-0.1663329999999999,0.1899559999999999,0.147378,0.0665559999999999
944,0.166646,0.977532,-0.1290369999999999,0.157039,-0.054787,0.004571
945,0.160577,0.98269,-0.092328,0.091376,-0.122705,-0.049395
946,0.1545609999999999,0.986272,-0.0580309999999999,-0.038091,-0.211125,-0.092909
947,0.144308,0.989138,-0.027744,0.016809,-0.250582,-0.004605
948,0.131269,0.99134,0.0009109999999999,0.071276,-0.248405,-0.073176
949,0.118489,0.992563,0.027712,0.169872,-0.160669,-0.128161
950,0.106779,0.993,0.050376,0.161516,-0.08115,-0.153327
951,0.096038,0.992955,0.069326,0.121492,-0.088078,-0.125539
952,0.085406,0.992565,0.08665,0.025404,-0.05357,-0.0731769999999999
953,0.07257,0.991871,0.10447,0.169923,0.191082,-0.1411059999999999
954,0.0578,0.990603,0.1239059999999999,0.2077639999999999,0.267163,-0.159779
955,0.045816,0.988967,0.140834,0.278631,0.318452,-0.1453809999999999
956,0.036888,0.987255,0.154776,0.336036,0.322163,-0.142004
957,0.028091,0.985575,0.166854,0.325318,0.334615,-0.170089
958,0.019196,0.984186,0.176063,0.268554,0.270758,-0.350044
959,0.011545,0.983322,0.181473,0.219824,0.26593,-0.384965
960,0.006626,0.983356,0.181533,0.201046,0.316372,-0.295546
961,0.005888,0.985597,0.168974,-0.084776,0.180526,-0.104765
962,0.0134669999999999,0.989868,0.141313,-0.180337,0.288605,-0.205217
963,0.0285589999999999,0.993465,0.110452,-0.264521,0.38715,-0.370019
964,0.045045,0.995657,0.081409,-0.187425,0.509043,-0.586536
965,0.058024,0.997025,0.050647,-0.048319,0.372894,-0.5255
966,0.076429,0.997059,0.004751,0.202974,0.131497,-0.4236359999999999
967,0.104095,0.992982,-0.0560549999999999,0.248063,0.008025,-0.077398
968,0.137726,0.98378,-0.114891,0.205994,0.054962,0.001869
969,0.173302,0.970312,-0.168677,0.192406,0.083048,0.149207
970,0.206107,0.956099,-0.2082949999999999,-0.259681,-0.147627,0.348065
971,0.225954,0.944158,-0.239796,-0.452471,-0.202322,0.232533
972,0.232805,0.931272,-0.280226,-0.4810649999999999,-0.17259,-0.0699019999999999
973,0.233242,0.916297,-0.3255639999999999,-0.1895099999999999,-0.022513,-0.2491739999999999
974,0.2407119999999999,0.894824,-0.375955,-0.130406,0.0138979999999999,0.2082
975,0.24759,0.868613,-0.429191,-0.036393,-0.152243,0.355369
976,0.249308,0.842525,-0.4774859999999999,0.065618,-0.18217,0.129997
977,0.253713,0.817156,-0.517572,0.048183,-0.159518,-0.00936
978,0.254473,0.790633,-0.556901,0.038144,-0.211562,0.085267
979,0.247688,0.766158,-0.5929989999999999,-0.075416,-0.350906,0.106488
980,0.240779,0.748825,-0.6174810000000001,-0.16122,-0.4803159999999999,0.090061
981,0.235973,0.741005,-0.628668,-0.235866,-0.579491,0.08515
982,0.237083,0.743111,-0.625758,-0.116401,-0.590447,0.005473
983,0.2439869999999999,0.7561260000000001,-0.6072390000000001,-0.063246,-0.53463,-0.080749
984,0.256604,0.777109,-0.574674,0.078555,-0.499903,-0.09537
985,0.2736389999999999,0.802411,-0.5303329999999999,0.157742,-0.483533,0.314314
986,0.2918179999999999,0.8322620000000001,-0.471356,-0.162393,-0.341738,-0.480228
987,0.2892099999999999,0.857402,-0.425692,-0.078288,1.450917,-0.27281
988,0.272474,0.880408,-0.388115,0.564104,1.71525,0.2933119999999999
989,0.269291,0.897001,-0.35052,-0.189442,-0.266356,0.2101699999999999
990,0.264654,0.906911,-0.327818,-0.351125,-0.584294,0.101271
991,0.25176,0.920649,-0.298354,-0.387457,-0.5723060000000001,0.070266
992,0.228407,0.936163,-0.2672469999999999,-0.1711869999999999,0.187692,0.237279
993,0.200194,0.952246,-0.230523,0.008211,0.394067,0.111245
994,0.1771039999999999,0.965288,-0.191951,0.311452,0.529814,0.147976
995,0.167923,0.973728,-0.153772,0.208603,-0.093052,0.007486
996,0.16757,0.979184,-0.114499,0.106493,-0.2154199999999999,-0.054797
997,0.166342,0.983125,-0.07607,-0.0237639999999999,-0.324052,-0.08932
998,0.157335,0.98665,-0.04193,-0.038973,-0.270921,-0.041963
999,0.142781,0.989686,-0.011165,0.02505,-0.2306679999999999,-0.057744
1000,0.128066,0.991602,0.017719,0.198671,-0.138468,-0.048206
1001,0.11302,0.992687,0.042295,0.140276,-0.078975,-0.223615
1002,0.098228,0.993237,0.061805,0.088219,-0.0310329999999999,-0.2474739999999999
1003,0.0849419999999999,0.99317,0.079916,0.061786,0.108042,-0.125112
1004,0.071628,0.992577,0.098227,0.141614,0.20742,-0.1026069999999999
1005,0.057016,0.99185,0.113892,0.216086,0.322802,-0.158371
1006,0.045295,0.990974,0.126125,0.465463,0.318642,-0.11549
1007,0.0381899999999999,0.990181,0.134427,0.476351,0.292122,-0.108457
1008,0.033183,0.989643,0.139623,0.424672,0.262234,-0.140172
1009,0.029586,0.98949,0.141501,0.158082,0.208798,-0.251044
1010,0.0275589999999999,0.990024,0.1381369999999999,0.042265,0.216138,-0.202362
1011,0.0282839999999999,0.991472,0.127166,0.017919,0.194654,-0.104918
1012,0.033749,0.994252,0.1015549999999999,-0.202801,0.292491,-0.189857
1013,0.047036,0.996786,0.064773,-0.2425469999999999,0.470088,-0.47316
1014,0.0625759999999999,0.997737,0.024375,-0.234863,0.487584,-0.5734319999999999
1015,0.076858,0.996904,-0.016329,0.057908,0.238936,-0.448088
1016,0.092385,0.993528,-0.066011,0.222556,0.097429,-0.315566
1017,0.111393,0.985656,-0.126748,0.218166,0.1144569999999999,-0.221732
1018,0.134379,0.97301,-0.18758,0.14681,0.137692,-0.101788
1019,0.1575349999999999,0.957439,-0.2418409999999999,-0.017978,-0.023494,0.155003
1020,0.176967,0.941733,-0.286032,-0.160854,-0.092383,0.220419
1021,0.187586,0.927535,-0.323239,-0.412577,-0.2447659999999999,0.255994
1022,0.1874839999999999,0.914706,-0.35799,-0.293624,-0.238253,0.068165
1023,0.186961,0.901527,-0.390243,-0.203456,-0.217704,-0.0873419999999999
1024,0.188742,0.8847,-0.426235,-0.097922,-0.147243,0.010235
1025,0.189582,0.863452,-0.4674439999999999,-0.056846,-0.2070489999999999,0.2154
1026,0.185961,0.841044,-0.507994,-0.05002,-0.210887,0.322509
1027,0.183414,0.821002,-0.540658,-0.13573,-0.182666,0.209542
1028,0.1842059999999999,0.8023359999999999,-0.567733,-0.177858,-0.14453,0.138336
1029,0.186635,0.7853289999999999,-0.590272,-0.156225,-0.135701,0.0590679999999999
1030,0.187892,0.7724840000000001,-0.606598,-0.042995,-0.37072,0.157379
1031,0.187542,0.7655569999999999,-0.615424,-0.056836,-0.396188,0.150595
1032,0.186004,0.766532,-0.614677,-0.049041,-0.4712439999999999,0.10395
1033,0.185472,0.775346,-0.603684,-0.006868,-0.505571,0.005158
1034,0.1884559999999999,0.791151,-0.581859,-0.01359,-0.420545,-0.122319
1035,0.195986,0.811251,-0.5508689999999999,0.043653,-0.342089,-0.060016
1036,0.208398,0.8339260000000001,-0.511011,0.015296,-0.455875,0.110528
1037,0.220846,0.856634,-0.46626,-0.3412989999999999,0.449716,-0.6320060000000001
1038,0.217254,0.879591,-0.423218,0.556184,1.293336,0.327363
1039,0.2285829999999999,0.8985360000000001,-0.374667,0.642602,0.907921,-0.332471
1040,0.248383,0.909422,-0.333544,0.133179,0.055483,-0.0452399999999999
1041,0.255064,0.919278,-0.299771,-0.255934,-0.471234,0.0624659999999999
1042,0.248389,0.931529,-0.26561,-0.2198099999999999,-0.369456,0.102494
1043,0.232852,0.945527,-0.227487,-0.163623,-0.087983,0.1392
1044,0.211862,0.959318,-0.186585,-0.022134,0.255037,0.032517
1045,0.192385,0.970355,-0.146251,0.21565,0.352414,0.038646
1046,0.17798,0.978018,-0.108602,0.205229,0.171732,-0.0181379999999999
1047,0.167217,0.983169,-0.073529,0.022984,-0.013702,-0.093112
1048,0.155116,0.986998,-0.041981,-0.134761,-0.200209,-0.08221
1049,0.139736,0.990105,-0.012392,0.026341,-0.264642,-0.057691
1050,0.12509,0.992004,0.016381,0.1216599999999999,-0.248901,-0.093087
1051,0.114375,0.992389,0.045494,0.217214,-0.192432,-0.130226
1052,0.105664,0.991888,0.07057,0.116443,-0.204443,-0.132414
1053,0.096323,0.991127,0.091514,0.085745,-0.1901779999999999,-0.132621
1054,0.086475,0.990096,0.1105369999999999,0.034421,-0.073699,-0.147891
1055,0.076472,0.989005,0.12652,0.094182,0.164102,-0.108438
1056,0.064777,0.987762,0.141828,0.1871,0.253952,-0.09799
1057,0.053671,0.986416,0.155203,0.28039,0.334445,-0.160788
1058,0.045807,0.985139,0.165496,0.335709,0.313689,-0.142288
1059,0.038964,0.98403,0.173644,0.354545,0.312646,-0.14955
1060,0.032284,0.983435,0.178325,0.306567,0.3482,-0.236614
1061,0.026899,0.983394,0.1794359999999999,0.184557,0.182194,-0.319207
1062,0.025383,0.983889,0.176926,0.0759809999999999,0.19119,-0.330276
1063,0.027249,0.985605,0.166811,0.072391,0.2434599999999999,-0.152544
1064,0.033708,0.989362,0.141466,-0.115098,0.3465,-0.167055
1065,0.046367,0.993164,0.1070589999999999,-0.20985,0.453995,-0.283558
1066,0.059342,0.995386,0.075302,-0.187409,0.340384,-0.711151
1067,0.068239,0.99671,0.043576,-0.033113,0.268366,-0.629254
1068,0.080297,0.996751,-0.0051649999999999,0.133402,0.185607,-0.477058
1069,0.100419,0.992464,-0.070134,0.122466,0.253523,-0.0298569999999999
1070,0.125973,0.982167,-0.139521,-0.001034,0.294124,0.025065
1071,0.149758,0.967442,-0.204005,-0.15136,0.291485,0.096095
1072,0.16057,0.952257,-0.259641,-0.508776,-0.082643,0.270596
1073,0.1542,0.937393,-0.31226,-0.484857,-0.130097,0.376316
1074,0.145571,0.921189,-0.360847,-0.288287,-0.086426,0.177451
1075,0.145973,0.901324,-0.4077969999999999,0.01545,-0.074877,0.023108
1076,0.148743,0.876734,-0.4573899999999999,0.045837,-0.1421599999999999,0.167565
1077,0.148405,0.850499,-0.504599,0.092363,-0.203084,0.283529
1078,0.148839,0.824585,-0.545802,0.024699,-0.30014,0.246242
1079,0.144425,0.798133,-0.58491,-0.082321,-0.342383,0.281062
1080,0.133624,0.772778,-0.620446,-0.106921,-0.326322,0.332314
1081,0.122346,0.75273,-0.646857,-0.159379,-0.510695,0.272345
1082,0.1113339999999999,0.7403109999999999,-0.662978,-0.144827,-0.538239,0.268477
1083,0.103118,0.73539,-0.6697489999999999,-0.109969,-0.559914,0.210123
1084,0.102338,0.738628,-0.666296,-0.02168,-0.486126,0.050177
1085,0.108883,0.750043,-0.652361,0.076725,-0.37985,-0.05023
1086,0.1215089999999999,0.767814,-0.629041,0.176206,-0.306068,-0.12836
1087,0.139629,0.788936,-0.598396,0.171864,-0.313717,-0.094215
1088,0.158739,0.8131510000000001,-0.559984,-0.051149,-0.367762,-0.08975
1089,0.1691619999999999,0.8336290000000001,-0.525776,-0.577212,0.237919,-0.5919909999999999
1090,0.170871,0.851325,-0.496026,0.824735,1.106515,0.12005
1091,0.200101,0.864584,-0.460921,0.331165,0.514109,-0.034441
1092,0.213109,0.8779879999999999,-0.4286189999999999,-0.178472,-0.232251,-0.025635
1093,0.2152469999999999,0.8918379999999999,-0.397852,-0.350958,-0.467308,0.002924
1094,0.216683,0.905591,-0.364617,-0.307289,0.124347,0.218896
1095,0.209562,0.920755,-0.329069,-0.213926,0.336737,0.130994
1096,0.195851,0.935528,-0.293973,-0.022984,0.489414,0.076474
1097,0.182224,0.947766,-0.261772,0.06535,0.3572869999999999,0.074287
1098,0.173425,0.957993,-0.228392,0.064414,0.154891,0.060744
1099,0.165894,0.96698,-0.193443,-0.013413,0.02475,0.0131
1100,0.158444,0.974871,-0.156563,0.033939,-0.0126819999999999,0.020775
1101,0.152091,0.981583,-0.115552,0.208413,-0.028122,0.030667
1102,0.148573,0.986376,-0.0705539999999999,0.314974,-0.088854,-0.028017
1103,0.147705,0.988728,-0.024262,0.285935,-0.16132,-0.030822
1104,0.145121,0.989205,0.020048,0.2401179999999999,-0.2811659999999999,-0.044111
1105,0.137596,0.988724,0.058986,0.036842,-0.289749,-0.085231
1106,0.128487,0.987396,0.092338,-0.1262599999999999,-0.185165,-0.048347
1107,0.116069,0.986152,0.1184,-0.125209,-0.161201,-0.068336
1108,0.099597,0.985337,0.13848,-0.1127809999999999,-0.122193,-0.075766
1109,0.081464,0.98481,0.153294,-0.012448,-0.049751,-0.06255
1110,0.06576,0.984294,0.163789,0.0304769999999999,-0.026729,-0.071656
1111,0.053311,0.983681,0.1718039999999999,0.106326,-0.063652,-0.057409
1112,0.043566,0.982846,0.179173,0.274366,-0.063259,-0.0283089999999999
1113,0.036502,0.981852,0.186069,0.369245,0.00556,-0.072894
1114,0.030574,0.980729,0.19293,0.379078,-0.032212,-0.063032
1115,0.023049,0.979341,0.2008619999999999,0.334159,-0.033205,-0.082179
1116,0.014249,0.977839,0.20884,0.2797719999999999,0.042501,-0.179528
1117,0.004448,0.976212,0.216742,0.236641,0.0459899999999999,-0.224417
1118,-0.006542,0.974385,0.22476,0.196712,0.06309,-0.284499
1119,-0.019229,0.972257,0.2330969999999999,0.18645,0.004428,-0.343357
1120,-0.0335,0.970169,0.240078,0.427589,0.056,-0.260417
1121,-0.044641,0.969533,0.240831,0.428353,0.063197,-0.211687
1122,-0.05307,0.970414,0.235514,0.460114,0.0510399999999999,-0.157358
1123,-0.049505,0.974393,0.219305,0.281194,0.075915,-0.263464
1124,-0.042969,0.97797,0.204247,0.260025,0.0580559999999999,-0.362069
1125,-0.036925,0.981482,0.1879279999999999,0.286269,0.069574,-0.370591
1126,-0.029247,0.985819,0.16521,0.293529,0.08399,-0.170719
1127,-0.012527,0.991584,0.128813,0.145721,0.398522,0.036287
1128,0.018156,0.996542,0.081009,-0.009595,0.417551,0.04129
1129,0.058894,0.99774,0.032195,-0.463176,0.300936,-0.0829
1130,0.0995549999999999,0.994783,-0.02206,-0.62136,0.6669149999999999,-0.065236
1131,0.130234,0.98804,-0.0825029999999999,-0.673172,0.832043,-0.034272
1132,0.153852,0.978362,-0.138309,-0.332074,0.445039,0.067814
1133,0.175603,0.966955,-0.184805,-0.07343,0.130838,0.0943659999999999
1134,0.194246,0.954744,-0.225221,-0.000108,0.066984,0.138978
1135,0.212108,0.940655,-0.2649,0.117085,-0.00993,0.077644
1136,0.231985,0.924757,-0.301664,0.007899,-0.05522,0.129636
1137,0.255981,0.908824,-0.329404,-0.107849,-0.079692,0.178525
1138,0.281702,0.8938139999999999,-0.348903,-0.220072,-0.131974,0.204036
1139,0.301509,0.880849,-0.364955,-0.225826,-0.260365,0.2383989999999999
1140,0.312003,0.869655,-0.382556,-0.17475,-0.287456,0.261768
1141,0.314334,0.8614860000000001,-0.398787,-0.169391,-0.259679,0.272306
1142,0.313724,0.857664,-0.407412,-0.226291,-0.288221,0.260608
1143,0.313023,0.8582069999999999,-0.406807,-0.288701,-0.285682,0.22094
1144,0.312829,0.8625079999999999,-0.39776,-0.277963,-0.3316699999999999,0.159936
1145,0.312643,0.870675,-0.379703,-0.211828,-0.35473,0.116489
1146,0.310273,0.882912,-0.352409,-0.153352,-0.327355,0.009284
1147,0.300984,0.8988889999999999,-0.318436,-0.071416,-0.252801,-0.0979
1148,0.28291,0.91716,-0.2806659999999999,0.151035,-0.194839,-0.1296119999999999
1149,0.262896,0.933461,-0.2439889999999999,0.396909,-0.077168,-0.195907
1150,0.250224,0.943366,-0.21781,0.65151,0.171075,-0.345224
1151,0.256583,0.945683,-0.199606,0.913507,0.327785,-0.277856
1152,0.281883,0.943342,-0.175045,0.6969380000000001,0.617937,-0.330952
1153,0.314735,0.936769,-0.152969,0.177513,0.503142,0.384872
1154,0.341454,0.929876,-0.136869,-0.617546,0.149134,-0.076739
1155,0.346379,0.928485,-0.133904,-1.213475,0.004209,-0.378761
1156,0.334121,0.933085,-0.133075,-0.74385,-0.147883,0.2381309999999999
1157,0.314753,0.942181,-0.114967,-0.281916,0.042316,0.495918
1158,0.288969,0.952644,-0.094649,-0.009672,0.332741,0.519316
1159,0.269942,0.959507,-0.080433,0.216234,0.436397,0.193699
1160,0.2666929999999999,0.962,-0.058503,0.09462,-0.0270639999999999,0.0264899999999999
1161,0.268305,0.962903,-0.028656,-0.054423,-0.081785,0.064301
1162,0.263544,0.964642,0.001281,-0.260309,-0.007748,0.125412
1163,0.253137,0.967022,0.0279649999999999,-0.211603,0.000416,0.1960339999999999
1164,0.240584,0.969314,0.050412,-0.1629779999999999,0.008088,0.1524839999999999
1165,0.225077,0.971897,0.0689,-0.1232849999999999,0.031536,-0.013846
1166,0.208128,0.974481,0.084032,-0.036329,-0.034677,0.002516
1167,0.192538,0.976501,0.096783,0.011732,-0.064803,0.029148
1168,0.179837,0.977658,0.108788,0.244831,-0.151776,0.159324
1169,0.170234,0.977808,0.122077,0.29905,-0.146555,0.102975
1170,0.16134,0.977815,0.1335579999999999,0.3118039999999999,-0.090532,-0.0561039999999999
1171,0.151354,0.978075,0.143014,0.210218,-0.047761,0.019553
1172,0.138852,0.978627,0.15166,0.213015,-0.022862,0.0139889999999999
1173,0.1236309999999999,0.979289,0.1603099999999999,0.1712,0.023534,-0.0339519999999999
1174,0.108428,0.979776,0.168151,0.058961,0.062613,-0.2201989999999999
1175,0.094469,0.980495,0.172327,0.08882,0.042836,-0.205454
1176,0.08369,0.981609,0.171556,0.165119,0.047337,-0.135942
1177,0.07612,0.983404,0.164664,0.272559,0.119975,0.016671
1178,0.073792,0.985478,0.1529,0.188614,0.1472119999999999,-0.069342
1179,0.080012,0.98724,0.137646,0.16097,0.327442,-0.149792
1180,0.0949179999999999,0.988952,0.113821,0.055397,0.6350100000000001,-0.1443839999999999
1181,0.1170089999999999,0.99,0.078744,-0.079777,0.501822,-0.241159
1182,0.142302,0.989436,0.027529,-0.18434,0.154882,-0.103366
1183,0.167012,0.985091,-0.041167,-0.41515,0.156282,-0.080522
1184,0.189781,0.974363,-0.120799,-0.517784,0.657381,-0.227926
1185,0.2059099999999999,0.957365,-0.2026,-0.431618,0.68233,-0.037893
1186,0.221805,0.936102,-0.272964,-0.154621,0.457559,0.114348
1187,0.236406,0.912056,-0.335053,0.015211,0.2261119999999999,0.191361
1188,0.246745,0.8861,-0.392349,-0.004145,0.1456839999999999,0.250916
1189,0.2471469999999999,0.859411,-0.447578,-0.079133,0.125681,0.290428
1190,0.2420909999999999,0.831616,-0.499802,-0.100719,0.173419,0.27774
1191,0.2415389999999999,0.799994,-0.549239,-0.034661,0.11033,0.1968069999999999
1192,0.250221,0.762652,-0.596445,-0.129845,0.053861,0.1355839999999999
1193,0.258035,0.725029,-0.638551,-0.181191,-0.092782,0.272126
1194,0.261925,0.691765,-0.672944,-0.147942,-0.06675,0.30803
1195,0.267477,0.6621,-0.700055,-0.120474,-0.066428,0.308682
1196,0.272711,0.636177,-0.721737,-0.161886,-0.202644,0.364773
1197,0.273493,0.615695,-0.738999,-0.126048,-0.293612,0.379212
1198,0.27197,0.601783,-0.750925,-0.119947,-0.391806,0.3462
1199,0.270352,0.594873,-0.7569899999999999,-0.059399,-0.3830659999999999,0.196656
1200,0.2737949999999999,0.595221,-0.7554770000000001,-0.0096189999999999,-0.352942,0.153472
1201,0.282944,0.6013109999999999,-0.747238,0.040649,-0.294259,0.104447
1202,0.290321,0.613772,-0.734163,0.126152,-0.263216,0.013796
1203,0.292332,0.632015,-0.7177020000000001,0.1200519999999999,-0.248989,-0.05627
1204,0.294666,0.653674,-0.697051,0.0606809999999999,-0.142291,-0.126283
1205,0.307133,0.676405,-0.669435,-0.065586,-0.026839,0.2243969999999999
1206,0.329498,0.6993590000000001,-0.6342909999999999,-0.340805,0.1328089999999999,-0.071383
1207,0.348679,0.720004,-0.600011,-0.391861,1.3682530000000002,-0.580729
1208,0.359719,0.735888,-0.5736439999999999,0.607154,1.134122,0.721426
1209,0.38898,0.752365,-0.531637,-0.176928,0.150589,0.182623
1210,0.4063989999999999,0.769116,-0.49325,-0.280194,-0.010282,0.186792
1211,0.4108189999999999,0.786047,-0.461902,-0.531974,0.299845,0.177341
1212,0.4110399999999999,0.803313,-0.430964,-0.5548850000000001,0.3879559999999999,0.100504
1213,0.404825,0.82262,-0.399259,-0.428461,0.46008,0.145475
1214,0.393258,0.8421299999999999,-0.368998,-0.097481,0.296725,0.267542
1215,0.3815429999999999,0.860612,-0.337293,-0.0274319999999999,0.218688,0.241361
1216,0.371113,0.8782479999999999,-0.30158,0.041287,0.107607,0.228384
1217,0.364178,0.893351,-0.263232,0.190051,-0.052272,0.218875
1218,0.361552,0.904697,-0.22538,0.232655,-0.1418039999999999,0.188148
1219,0.358578,0.91405,-0.189545,0.203479,-0.2261989999999999,0.108369
1220,0.352615,0.922303,-0.158152,-0.02063,-0.264588,0.00619
1221,0.344544,0.929483,-0.131696,-0.080506,-0.234949,-0.046252
1222,0.334235,0.936149,-0.109102,-0.088965,-0.109413,-0.0069099999999999
1223,0.321148,0.943008,-0.087139,-0.060009,-0.008758,-0.010105
1224,0.306868,0.949486,-0.065573,0.022997,0.130241,-0.089532
1225,0.290786,0.955702,-0.045498,0.046555,0.169298,-0.040943
1226,0.273477,0.961522,-0.0260149999999999,0.12641,0.151927,-0.02678
1227,0.257299,0.966317,-0.004595,0.2021119999999999,0.1857069999999999,0.050173
1228,0.242092,0.970154,0.013581,0.133931,0.448608,-0.098084
1229,0.2270219999999999,0.973454,0.0289649999999999,0.149,0.445308,-0.113468
1230,0.2126289999999999,0.976261,0.041162,0.31888,0.4201319999999999,-0.198267
1231,0.201439,0.978494,0.044315,0.189033,0.103934,-0.173252
1232,0.192519,0.980369,0.042472,0.112046,0.0573809999999999,-0.171302
1233,0.185763,0.981956,0.0353029999999999,-0.053103,0.200341,0.017783
1234,0.182543,0.983031,0.017894,-0.150393,0.107271,0.166844
1235,0.186527,0.982365,-0.012519,-0.223453,0.197932,0.026481
1236,0.197148,0.979191,-0.048057,-0.3108869999999999,0.236294,-0.083367
1237,0.209334,0.974461,-0.081216,-0.301131,0.4235489999999999,-0.514564
1238,0.218301,0.96981,-0.108649,0.021842,0.296257,-0.375924
1239,0.230785,0.962418,-0.143117,0.1581,0.200561,-0.2274429999999999
1240,0.2540199999999999,0.948163,-0.190929,0.337442,-0.001187,0.138515
1241,0.2883239999999999,0.927609,-0.237494,0.2954469999999999,0.067508,0.248115
1242,0.328245,0.904147,-0.273436,0.213259,0.149534,0.34683
1243,0.363057,0.88302,-0.2974199999999999,-0.311665,0.013693,0.30479
1244,0.379842,0.8672190000000001,-0.321938,-0.60201,-0.002748,-0.147758
1245,0.383019,0.852435,-0.355873,-0.587258,0.03671,-0.122627
1246,0.377319,0.8362879999999999,-0.397803,-0.279357,0.02005,0.033667
1247,0.368527,0.8153699999999999,-0.446492,-0.20831,0.0127099999999999,0.2156269999999999
1248,0.362491,0.789246,-0.495668,-0.112491,-0.035004,0.3275929999999999
1249,0.361216,0.762235,-0.537138,-0.219156,-0.049985,0.277326
1250,0.359111,0.736055,-0.57381,-0.170986,-0.103762,0.194659
1251,0.35386,0.710075,-0.608747,-0.138665,-0.058418,0.152601
1252,0.345625,0.684348,-0.642034,-0.132291,-0.062842,0.238821
1253,0.331623,0.6623760000000001,-0.671774,-0.119968,-0.117195,0.253592
1254,0.314413,0.646913,-0.6947260000000001,-0.113715,-0.192064,0.231408
1255,0.2959489999999999,0.639299,-0.709724,-0.161564,-0.214907,0.199302
1256,0.283275,0.641846,-0.712591,-0.180721,-0.292389,0.063467
1257,0.279771,0.65449,-0.7024020000000001,-0.044633,-0.268778,0.014338
1258,0.286576,0.6738850000000001,-0.680992,-0.055833,-0.33749,0.105263
1259,0.305396,0.698878,-0.64676,-0.109626,-0.5993,0.388933
1260,0.332761,0.730382,-0.596498,-0.3249329999999999,-0.355824,-0.486129
1261,0.344927,0.760167,-0.550606,-0.047335,1.195979,0.374977
1262,0.347478,0.79305,-0.5003270000000001,0.508739,1.423289,0.039954
1263,0.355351,0.814538,-0.458529,0.165492,0.547049,0.064074
1264,0.356413,0.8281379999999999,-0.4326109999999999,-0.2438489999999999,-0.312116,0.149088
1265,0.341955,0.846251,-0.40856,-0.246587,-0.13153,0.272986
1266,0.319395,0.8671610000000001,-0.382117,-0.2067389999999999,0.235393,0.247748
1267,0.294148,0.8890549999999999,-0.350788,-0.120351,0.452726,0.252811
1268,0.273638,0.907921,-0.317484,-0.026659,0.39434,0.22587
1269,0.2647,0.922139,-0.282115,0.037363,0.108043,0.175609
1270,0.262189,0.933739,-0.243684,0.012454,-0.150811,0.1156329999999999
1271,0.258378,0.943791,-0.206139,-0.002672,-0.185704,0.07618
1272,0.2500199999999999,0.952605,-0.173283,-0.000417,-0.182143,0.103199
1273,0.239023,0.960276,-0.143984,-0.017862,-0.203364,0.070773
1274,0.226311,0.967158,-0.115682,0.056571,-0.1922859999999999,0.04334
1275,0.211228,0.97321,-0.090762,0.064422,-0.179494,-0.027204
1276,0.1961,0.978024,-0.070758,0.004568,-0.065259,-0.050961
1277,0.181151,0.981971,-0.053947,0.00963,-0.017127,-0.03634
1278,0.1676609999999999,0.985065,-0.039108,-0.0099,0.023419,0.020599
1279,0.15667,0.987304,-0.026032,0.029823,0.1307839999999999,0.0284269999999999
1280,0.147504,0.988971,-0.013054,0.103366,0.176098,0.026909
1281,0.140166,0.990124,5.5e-05,0.141069,0.201771,0.011206
1282,0.134377,0.99085,0.012327,0.149925,0.326915,-0.023893
1283,0.127931,0.99154,0.02179,0.219359,0.298576,-0.035019
1284,0.11932,0.992459,0.027922,0.248691,0.288913,-0.050811
1285,0.109694,0.993491,0.030569,0.202623,0.278283,-0.11994
1286,0.103029,0.994256,0.028824,0.187712,0.263892,0.055602
1287,0.101472,0.994696,0.016578,0.1013179999999999,0.164468,0.174752
1288,0.107984,0.994123,-0.007148,-0.268919,0.281466,0.032523
1289,0.12368,0.991756,-0.033391,-0.43499,0.390721,-0.165934
1290,0.142291,0.987972,-0.060469,-0.392947,0.4478649999999999,-0.279497
1291,0.157046,0.983398,-0.090871,-0.219408,0.324936,-0.2903239999999999
1292,0.171744,0.976828,-0.127684,0.012628,0.258752,-0.254106
1293,0.1917849999999999,0.965913,-0.173851,0.171206,0.179732,-0.130547
1294,0.218767,0.949892,-0.22325,0.128996,0.1466049999999999,-0.011598
1295,0.248505,0.92914,-0.273748,0.060699,0.147123,0.036382
1296,0.27757,0.904913,-0.322617,-0.015729,0.153055,0.2263949999999999
1297,0.301907,0.883431,-0.358326,-0.260769,0.021583,0.359302
1298,0.313938,0.864925,-0.3915889999999999,-0.43755,-0.1378589999999999,0.30498
1299,0.312228,0.847137,-0.429963,-0.362612,-0.128524,0.148972
1300,0.309234,0.8271639999999999,-0.4692229999999999,-0.2564079999999999,-0.042709,-0.019348
1301,0.308373,0.8007770000000001,-0.5134770000000001,-0.259927,-0.050914,0.32854
1302,0.303685,0.771893,-0.558528,-0.283498,-0.142269,0.4366859999999999
1303,0.298746,0.744804,-0.596669,-0.253641,-0.094734,0.340382
1304,0.297702,0.7185699999999999,-0.628512,-0.195591,-0.101886,0.2301659999999999
1305,0.295313,0.691543,-0.659208,-0.174326,-0.088378,0.255781
1306,0.2886849999999999,0.666568,-0.6872729999999999,-0.112813,-0.099414,0.29352
1307,0.279328,0.646648,-0.709803,-0.125687,-0.233577,0.270655
1308,0.266972,0.633528,-0.7262,-0.143986,-0.25485,0.266498
1309,0.252454,0.629876,-0.734521,-0.150693,-0.317421,0.237146
1310,0.242067,0.636368,-0.7324189999999999,-0.133394,-0.337921,0.109875
1311,0.242632,0.6525989999999999,-0.717803,-0.138322,-0.260723,0.010818
1312,0.257312,0.676113,-0.690404,-0.075351,-0.174725,0.053136
1313,0.284346,0.701753,-0.653213,-0.08087,-0.156526,0.015731
1314,0.312001,0.719016,-0.6210220000000001,-0.176457,0.915338,-1.238979
1315,0.322633,0.736105,-0.595024,0.60916,0.740351,0.6803359999999999
1316,0.332796,0.75839,-0.5604359999999999,0.0317519999999999,0.103595,-0.128788
1317,0.348489,0.7761939999999999,-0.5254270000000001,-0.317285,-0.34141,0.3935
1318,0.3523239999999999,0.7962600000000001,-0.4917649999999999,-0.251494,-0.452434,0.281103
1319,0.351742,0.818438,-0.454348,-0.251019,0.045805,0.245334
1320,0.352748,0.839008,-0.414281,-0.144572,0.342785,0.240758
1321,0.352806,0.857509,-0.374435,0.069283,0.423802,0.160324
1322,0.352015,0.873604,-0.335999,0.036153,0.35244,0.108796
1323,0.353418,0.8865790000000001,-0.2984429999999999,-0.055185,0.076678,0.168575
1324,0.354102,0.897904,-0.2614829999999999,-0.125617,-0.073685,0.134851
1325,0.350912,0.908919,-0.22521,-0.134176,-0.158568,0.047338
1326,0.343254,0.919606,-0.1910359999999999,-0.098732,-0.151158,0.052837
1327,0.330494,0.930396,-0.158522,-0.002491,-0.0514289999999999,0.016203
1328,0.313838,0.940736,-0.128501,0.011983,0.012312,-0.007348
1329,0.295484,0.949815,-0.102623,-0.0005769999999999,0.040983,-0.020043
1330,0.277445,0.957387,-0.080159,-0.058283,-0.015172,-0.021068
1331,0.258919,0.964059,-0.059514,-0.045921,-0.015787,0.0268139999999999
1332,0.2396599999999999,0.970014,-0.040324,-0.006658,-0.01515,0.014781
1333,0.220107,0.97516,-0.024645,0.05742,0.069289,-0.052427
1334,0.202844,0.979167,-0.0087239999999999,0.0626429999999999,0.107167,-0.0099379999999999
1335,0.187964,0.982148,0.006723,0.061639,0.132079,-0.025766
1336,0.174182,0.984497,0.020409,0.087582,0.281632,-0.077171
1337,0.160263,0.986545,0.032166,0.240387,0.361539,-0.061845
1338,0.148533,0.988017,0.041828,0.267498,0.355382,-0.07085
1339,0.140528,0.988908,0.047973,0.278508,0.220213,-0.179885
1340,0.135096,0.989576,0.04977,0.251348,0.174059,-0.19743
1341,0.132641,0.990124,0.045283,0.105853,0.300861,-0.1163589999999999
1342,0.134895,0.990387,0.030441,0.057046,0.22995,0.078445
1343,0.14604,0.989273,-0.0011099999999999,-0.121931,0.258942,0.072674
1344,0.166417,0.985131,-0.042573,-0.398565,0.4016639999999999,-0.253967
1345,0.189218,0.978608,-0.080697,-0.387964,0.525069,-0.530906
1346,0.208587,0.971219,-0.114961,-0.011718,0.274234,-0.198027
1347,0.2318199999999999,0.959598,-0.159445,0.207267,0.102506,0.10076
1348,0.266108,0.941613,-0.206259,0.152196,0.351478,0.100959
1349,0.306847,0.918321,-0.250046,-0.0748679999999999,0.109999,0.14714
1350,0.340554,0.893956,-0.291304,-0.228555,-0.044987,0.250639
1351,0.357432,0.872325,-0.3335909999999999,-0.352717,-0.104289,0.203616
1352,0.3608429999999999,0.8519690000000001,-0.379387,-0.334491,-0.047831,0.038963
1353,0.360279,0.8325739999999999,-0.420729,-0.2181739999999999,0.017691,-0.032869
1354,0.3638139999999999,0.806783,-0.4655479999999999,-0.30046,0.015895,0.1157859999999999
1355,0.362854,0.774416,-0.5182770000000001,-0.240982,-0.143084,0.429425
1356,0.355991,0.743171,-0.5665359999999999,-0.196415,-0.145591,0.431907
1357,0.349169,0.715275,-0.605358,-0.1934529999999999,-0.213138,0.2450369999999999
1358,0.33659,0.6884600000000001,-0.642437,-0.151501,-0.180282,0.299664
1359,0.314085,0.6633760000000001,-0.679175,-0.046278,-0.189042,0.335578
1360,0.291015,0.645201,-0.7064159999999999,-0.171966,-0.278532,0.2280219999999999
1361,0.272887,0.638795,-0.719354,-0.199156,-0.294252,0.186944
1362,0.258914,0.6435029999999999,-0.7203229999999999,-0.164798,-0.284341,0.104524
1363,0.254161,0.657177,-0.7095899999999999,0.064854,-0.305477,0.022609
1364,0.265018,0.677642,-0.685976,0.090847,-0.45378,0.384371
1365,0.298059,0.704286,-0.644313,-0.087015,-0.532166,0.18278
1366,0.330183,0.729532,-0.598963,-0.1289809999999999,1.044775,0.557841
1367,0.33719,0.759616,-0.55613,0.220793,1.1280940000000002,0.187478
1368,0.33988,0.787484,-0.514145,0.228144,0.742118,-0.1259
1369,0.339895,0.806429,-0.483878,-0.231344,-0.10718,0.135947
1370,0.331625,0.826815,-0.454308,-0.2352199999999999,-0.1133599999999999,0.284554
1371,0.315005,0.848675,-0.424871,-0.2110929999999999,0.0092959999999999,0.28681
1372,0.292429,0.871685,-0.3932489999999999,-0.144617,0.480915,0.278823
1373,0.267413,0.8935649999999999,-0.36059,-0.015231,0.34113,0.27424
1374,0.250105,0.91226,-0.324379,0.03615,0.192354,0.23954
1375,0.244642,0.92703,-0.284181,-0.003034,-0.1456579999999999,0.171845
1376,0.243558,0.939288,-0.241679,-0.0096099999999999,-0.278628,0.15002
1377,0.2400969999999999,0.949709,-0.200991,-0.006149,-0.28905,0.109331
1378,0.232921,0.958406,-0.164914,0.00063,-0.185854,0.064755
1379,0.222802,0.965704,-0.133289,0.024436,-0.140097,0.032077
1380,0.2111469999999999,0.971701,-0.1058549999999999,-0.000256,-0.163824,0.026494
1381,0.197931,0.976662,-0.083333,-0.109339,-0.096322,0.002584
1382,0.182648,0.981022,-0.065005,-0.194885,-0.025807,-0.0076269999999999
1383,0.165993,0.984889,-0.049302,-0.160958,0.042867,-0.031401
1384,0.150224,0.988108,-0.03263,-0.022462,0.130346,0.0076359999999999
1385,0.136368,0.990499,-0.017483,0.1144559999999999,0.162928,0.01109
1386,0.12602,0.992011,-0.004709,0.17148,0.192376,0.000452
1387,0.118839,0.992879,0.007578,0.192013,0.2487739999999999,-0.008936
1388,0.1126619999999999,0.993443,0.019181,0.247476,0.299358,-0.015763
1389,0.106638,0.993868,0.029035,0.2798219999999999,0.251737,-0.081586
1390,0.1009429999999999,0.994226,0.036257,0.231958,0.202643,-0.141451
1391,0.09713,0.994481,0.039527,0.116844,0.274196,-0.0514289999999999
1392,0.097064,0.994725,0.033017,-0.026614,0.322338,0.080478
1393,0.1029569999999999,0.994595,0.013033,-0.181021,0.309849,0.087247
1394,0.116538,0.993015,-0.018152,-0.409064,0.320614,-0.105963
1395,0.134792,0.989259,-0.056448,-0.413876,0.4515979999999999,-0.1776059999999999
1396,0.1525359999999999,0.98354,-0.096808,-0.2499179999999999,0.497692,-0.34533
1397,0.1698,0.975466,-0.140084,0.2549889999999999,0.273908,-0.23867
1398,0.196117,0.961108,-0.194424,0.295094,0.257657,-0.052295
1399,0.23448,0.938846,-0.2521469999999999,0.154864,0.1881519999999999,0.220547
1400,0.275945,0.910689,-0.307397,0.010112,0.2165239999999999,0.376138
1401,0.313977,0.8825620000000001,-0.349994,-0.264753,0.035804,0.349231
1402,0.338575,0.859677,-0.382513,-0.379591,-0.075238,0.177649
1403,0.347037,0.8402120000000001,-0.4166569999999999,-0.334403,-0.057375,0.124421
1404,0.350708,0.820616,-0.451206,-0.056961,0.112474,-0.134274
1405,0.360587,0.791381,-0.493647,-0.3693,-0.090728,0.29513
1406,0.359697,0.755901,-0.547016,-0.359011,-0.139919,0.578647
1407,0.349337,0.724024,-0.594767,-0.191211,-0.202616,0.507777
1408,0.343879,0.69635,-0.629953,-0.1768559999999999,-0.189407,0.195855
1409,0.335176,0.668347,-0.664053,-0.116441,-0.148602,0.2730619999999999
1410,0.3135239999999999,0.640842,-0.700729,-0.0415209999999999,-0.129245,0.359512
1411,0.283394,0.61902,-0.7324609999999999,-0.061333,-0.217836,0.377373
1412,0.251352,0.605762,-0.754898,-0.126352,-0.296329,0.332505
1413,0.221356,0.602215,-0.76703,-0.117673,-0.349469,0.318193
1414,0.203214,0.609183,-0.7665489999999999,-0.147047,-0.311805,0.1419
1415,0.203077,0.624854,-0.753866,-0.1152319999999999,-0.289543,0.186315
1416,0.220009,0.647331,-0.7297640000000001,-0.103645,-0.278877,0.243207
1417,0.251195,0.675222,-0.693522,-0.3398489999999999,0.086375,-0.820607
1418,0.276979,0.695921,-0.66255,0.146818,1.3748790000000002,0.120023
1419,0.283742,0.720206,-0.633079,0.778147,1.004907,0.41793
1420,0.3044389999999999,0.743037,-0.5959939999999999,-0.011378,0.4721729999999999,-0.209884
1421,0.319302,0.760789,-0.565014,-0.381375,-0.244981,0.2246969999999999
1422,0.321678,0.783655,-0.531416,-0.272926,-0.317819,0.234098
1423,0.323621,0.80788,-0.492539,-0.260602,-0.010425,0.220993
1424,0.321742,0.831131,-0.453539,-0.140239,0.276474,0.266344
1425,0.313606,0.8524649999999999,-0.418268,-0.02703,0.280881,0.23443
1426,0.30362,0.871921,-0.384139,-0.034089,0.227735,0.196501
1427,0.2969159999999999,0.889307,-0.347803,-0.0520889999999999,0.091208,0.163629
1428,0.293152,0.904082,-0.31095,-0.104813,-0.050307,0.155997
1429,0.289346,0.917095,-0.274241,-0.079659,-0.165447,0.133158
1430,0.285172,0.928432,-0.23808,-0.008515,-0.233577,0.073636
1431,0.278592,0.938676,-0.2031359999999999,-0.014355,-0.191591,-0.0193069999999999
1432,0.26741,0.947986,-0.172643,-0.013748,-0.0070069999999999,-0.0762429999999999
1433,0.251679,0.956247,-0.1491289999999999,0.025497,0.034689,-0.040736
1434,0.233257,0.96386,-0.128667,0.037648,-0.0163199999999999,-0.010188
1435,0.213796,0.970936,-0.1075339999999999,0.065821,0.014858,-0.033198
1436,0.194944,0.976874,-0.087766,0.077014,0.042047,-0.068926
1437,0.179305,0.981451,-0.067763,0.081437,0.086313,0.0567159999999999
1438,0.165129,0.984946,-0.051017,0.119433,0.170373,0.010475
1439,0.152054,0.987723,-0.0356589999999999,0.053269,0.111658,0.087158
1440,0.140852,0.989802,-0.0210139999999999,0.068819,0.1676079999999999,0.0954769999999999
1441,0.127898,0.991743,-0.008676,0.141892,0.300905,0.026773
1442,0.114322,0.993436,0.001753,0.243466,0.207507,-0.111205
1443,0.103522,0.994593,0.007405,0.249718,0.211812,-0.171116
1444,0.094544,0.995485,0.007714,0.234725,0.2874739999999999,-0.012444
1445,0.089039,0.996013,-0.0041259999999999,-0.027775,0.228703,0.254126
1446,0.091615,0.995394,-0.0280139999999999,-0.354386,0.213605,0.052367
1447,0.103071,0.992936,-0.058682,-0.431593,0.4221189999999999,-0.257358
1448,0.116828,0.988738,-0.093481,-0.391257,0.575624,-0.333125
1449,0.126446,0.983277,-0.131024,-0.143795,0.4037159999999999,-0.369632
1450,0.136643,0.974619,-0.177302,0.274352,0.07607,-0.16541
1451,0.154806,0.959367,-0.2358829999999999,0.30929,0.032454,-0.02254
1452,0.179018,0.938061,-0.296625,0.244063,0.127598,0.09411
1453,0.206151,0.911768,-0.3552079999999999,0.115672,0.241979,0.25714
1454,0.2343179999999999,0.885547,-0.401116,-0.1338089999999999,0.094357,0.47062
1455,0.25968,0.865575,-0.428181,-0.2938909999999999,0.006983,0.47057
1456,0.272422,0.8486309999999999,-0.453437,-0.433555,-0.154433,0.2083809999999999
1457,0.271662,0.831516,-0.484537,-0.3572329999999999,-0.1258119999999999,0.131097
1458,0.270103,0.812207,-0.517067,-0.134498,-0.000623,-0.017861
1459,0.269437,0.7854770000000001,-0.557157,-0.111264,-0.026047,0.371564
1460,0.262323,0.756009,-0.599693,-0.106225,-0.089933,0.404854
1461,0.252345,0.728748,-0.636587,-0.153804,-0.135716,0.383825
1462,0.2432409999999999,0.70428,-0.666948,-0.190751,-0.113749,0.249376
1463,0.230636,0.679283,-0.696691,-0.157225,-0.031197,0.321859
1464,0.211431,0.654144,-0.7262149999999999,-0.123128,-0.011017,0.365208
1465,0.188489,0.632638,-0.751158,-0.10156,-0.174325,0.287001
1466,0.166379,0.618085,-0.768301,-0.115186,-0.191724,0.276037
1467,0.147503,0.6109140000000001,-0.777833,-0.12492,-0.1738559999999999,0.282518
1468,0.133941,0.61007,-0.780943,-0.10086,-0.137032,0.208051
1469,0.127297,0.616078,-0.777329,-0.03991,-0.213231,0.176819
1470,0.129278,0.629955,-0.765795,-0.005575,-0.228313,0.073244
1471,0.141335,0.650381,-0.746341,0.043662,-0.170203,-0.019833
1472,0.1580359999999999,0.673046,-0.722517,-0.069749,-0.068645,-0.055101
1473,0.174645,0.692108,-0.700344,-0.413583,0.199081,-0.450077
1474,0.188027,0.7014239999999999,-0.687493,0.043784,0.767936,-0.176338
1475,0.203947,0.714446,-0.669305,0.363512,0.2902389999999999,0.330102
1476,0.244327,0.731762,-0.636258,-0.426242,0.188373,-0.100162
1477,0.260491,0.752544,-0.604829,-0.289163,-0.258876,0.229783
1478,0.263819,0.7760319999999999,-0.57286,-0.07316,-0.00847,0.143493
1479,0.265736,0.797419,-0.541759,-0.345249,0.336416,0.219264
1480,0.262691,0.817074,-0.513203,-0.3245949999999999,0.340549,0.284566
1481,0.263109,0.8360709999999999,-0.481408,-0.399263,0.352009,0.218621
1482,0.269569,0.853074,-0.446755,-0.368263,0.298492,0.2707449999999999
1483,0.276654,0.8703059999999999,-0.407459,-0.319363,0.150065,0.302769
1484,0.2825539999999999,0.8873850000000001,-0.364284,-0.052223,0.074483,0.3141739999999999
1485,0.289533,0.902205,-0.319668,0.070392,0.022553,0.255749
1486,0.2992849999999999,0.913753,-0.274728,0.108643,-0.037044,0.212716
1487,0.3108579999999999,0.92193,-0.231091,0.037058,-0.104929,0.147839
1488,0.3220409999999999,0.927474,-0.1899279999999999,-0.207691,-0.17018,0.071962
1489,0.329371,0.93206,-0.15089,-0.258692,-0.172997,0.0436519999999999
1490,0.330269,0.936849,-0.115007,-0.267677,-0.089727,0.108263
1491,0.32593,0.941832,-0.081924,-0.22095,-0.020018,0.150803
1492,0.319552,0.946267,-0.049539,-0.164157,0.01612,0.173333
1493,0.311433,0.950076,-0.018826,-0.134766,0.013852,0.130474
1494,0.302701,0.953043,0.008313,-0.119702,0.015279,0.08678
1495,0.29408,0.955266,0.031187,-0.1263099999999999,0.070766,0.115938
1496,0.285891,0.95683,0.052257,-0.132143,0.067889,0.109669
1497,0.277098,0.958119,0.072199,-0.124617,0.080059,0.09426
1498,0.266837,0.959505,0.0902039999999999,-0.085806,0.051237,0.117269
1499,0.255316,0.961122,0.105101,-0.075018,-0.0091569999999999,0.123552
1500,0.242973,0.962952,0.116944,-0.046577,-0.015488,0.10794
1501,0.2301949999999999,0.964922,0.126188,0.0072159999999999,0.027662,0.0394
1502,0.219469,0.966613,0.132214,0.038008,0.018754,-0.005489
1503,0.211632,0.967821,0.136093,0.191871,-0.050798,-0.123321
1504,0.205954,0.968353,0.1409359999999999,0.199457,-0.073013,-0.187506
1505,0.2014359999999999,0.968208,0.148268,0.249263,-0.084129,-0.266844
1506,0.197953,0.967695,0.156102,0.277053,-0.065352,-0.29044
1507,0.196794,0.967157,0.160829,0.33734,0.102789,-0.305665
1508,0.19742,0.967134,0.1602029999999999,0.247786,0.134276,-0.34015
1509,0.200632,0.96766,0.152871,0.229284,0.14553,-0.315347
1510,0.208261,0.968684,0.135152,0.158545,0.324788,-0.149099
1511,0.225231,0.968787,0.103496,-0.187831,0.488702,-0.191646
1512,0.253374,0.965454,0.060742,-0.392198,0.528183,-0.256833
1513,0.281976,0.959385,0.00775,-0.4847649999999999,0.358532,-0.200773
1514,0.3044449999999999,0.950901,-0.055583,-0.563936,0.39909,-0.218511
1515,0.322385,0.938244,-0.125528,-0.7141390000000001,0.68314,-0.338019
1516,0.332553,0.922757,-0.1947289999999999,-0.8249540000000001,0.450962,0.041043
1517,0.329876,0.912376,-0.2423699999999999,-0.486935,0.096657,0.6145619999999999
1518,0.323486,0.905513,-0.274584,0.094574,-0.087962,0.516374
1519,0.32056,0.8981,-0.301082,0.270947,-0.002729,0.06541
1520,0.325342,0.890012,-0.319412,-0.005182,0.113101,-0.079484
1521,0.333476,0.8786700000000001,-0.341652,-0.2326,-0.0365529999999999,0.064858
1522,0.339746,0.8662690000000001,-0.366257,-0.3265619999999999,-0.170652,0.213013
1523,0.345207,0.857009,-0.382573,-0.391869,-0.286254,0.294454
1524,0.35251,0.851758,-0.387607,-0.4157729999999999,-0.345411,0.298633
1525,0.3607309999999999,0.850557,-0.3826489999999999,-0.4033489999999999,-0.361268,0.266469
1526,0.367306,0.853411,-0.369824,-0.381283,-0.3169889999999999,0.20628
1527,0.3716489999999999,0.8593430000000001,-0.351285,-0.277213,-0.270323,0.118528
1528,0.373483,0.868008,-0.32721,-0.128351,-0.319866,0.0284889999999999
1529,0.372104,0.879793,-0.295799,0.044155,-0.339021,-0.066231
1530,0.366338,0.8939020000000001,-0.258319,0.079311,-0.334119,-0.1063359999999999
1531,0.355948,0.908808,-0.21763,0.1075069999999999,-0.320154,-0.220358
1532,0.3411389999999999,0.923292,-0.17649,0.245943,-0.209196,-0.323327
1533,0.324864,0.935502,-0.138893,0.551646,0.168563,-0.355461
1534,0.3140409999999999,0.943275,-0.1077119999999999,0.759796,0.331292,-0.318863
1535,0.3125739999999999,0.946321,-0.082246,0.3053909999999999,0.322142,-0.216796
1536,0.3251719999999999,0.944147,-0.053298,0.165123,0.342444,-0.179078
1537,0.344813,0.938613,-0.009967,-0.4960739999999999,1.009598,0.284747
1538,0.358525,0.932352,0.046582,-0.628987,0.84751,0.111698
1539,0.361281,0.928041,0.090586,-1.0714709999999998,0.073638,-0.567393
1540,0.356371,0.928264,0.10637,-0.42615,-0.198436,-0.324418
1541,0.344806,0.932493,0.107494,-0.239338,-0.177717,-0.157253
1542,0.328196,0.939245,0.100479,-0.253138,-0.0979059999999999,0.181518
1543,0.307354,0.9472,0.091299,-0.27264,0.036549,0.2509409999999999
1544,0.288038,0.953093,0.092935,-0.271329,0.217942,0.328543
1545,0.272798,0.955898,0.108766,-0.220903,0.179265,0.143416
1546,0.262787,0.955341,0.135116,0.088532,-0.035968,0.027222
1547,0.259979,0.951429,0.164874,0.155274,-0.0216349999999999,0.024838
1548,0.2594869999999999,0.946478,0.1919259999999999,-0.011181,0.041239,-0.033433
1549,0.258182,0.942379,0.212725,-0.246036,0.095646,-0.153384
1550,0.251065,0.941607,0.224344,-0.391293,0.081495,-0.147836
1551,0.2396309999999999,0.942757,0.231892,-0.2264929999999999,0.055839,-0.025792
1552,0.226398,0.944131,0.239472,-0.017582,0.091834,0.0593559999999999
1553,0.2116699999999999,0.94547,0.247527,0.096634,0.080898,0.064805
1554,0.197217,0.946235,0.256382,0.114489,0.021081,-0.024357
1555,0.1842,0.946188,0.266054,0.09708,-0.014532,-0.13965
1556,0.171604,0.945577,0.276444,0.085735,-0.05686,-0.247819
1557,0.158748,0.944768,0.2867,0.1231119999999999,-0.022268,-0.341525
1558,0.146014,0.943741,0.296677,0.135679,0.019241,-0.371521
1559,0.132692,0.942658,0.306225,0.338484,0.0316,-0.409573
1560,0.1172059999999999,0.941599,0.315655,0.434933,0.0565539999999999,-0.376828
1561,0.10079,0.94143,0.321769,0.417811,-0.003701,-0.3291699999999999
1562,0.088324,0.942107,0.323447,0.38714,0.174531,-0.362402
1563,0.0788799999999999,0.943015,0.32324,0.210839,0.193261,-0.500562
1564,0.072906,0.945481,0.317388,0.162415,0.16307,-0.617529
1565,0.070687,0.950483,0.302609,0.153586,0.330554,-0.309307
1566,0.075135,0.958477,0.275071,0.094894,0.52599,-0.156083
1567,0.0905789999999999,0.968261,0.232922,-0.200992,0.4666909999999999,-0.124844
1568,0.119822,0.976006,0.181777,-0.4487859999999999,0.252296,-0.0581659999999999
1569,0.157551,0.98012,0.120542,-0.572529,0.416166,-0.208204
1570,0.19017,0.980496,0.049522,-0.485306,0.8688540000000001,-0.099312
1571,0.209997,0.977295,-0.028037,0.240611,0.424393,-0.103799
1572,0.222038,0.969846,-0.100449,0.45588,0.283069,0.106629
1573,0.238705,0.957457,-0.162135,0.292362,0.000597,0.069163
1574,0.253724,0.941306,-0.222621,0.036101,0.086847,0.024378
1575,0.269985,0.92254,-0.2757179999999999,-0.059871,0.167746,0.107124
1576,0.288928,0.902906,-0.318239,-0.176562,0.133868,0.1233529999999999
1577,0.3068889999999999,0.8813049999999999,-0.359324,-0.161595,-0.052662,0.014033
1578,0.320424,0.856403,-0.404842,-0.162542,-0.091587,0.013668
1579,0.331721,0.829142,-0.449978,-0.07931,-0.154291,0.117917
1580,0.336552,0.803612,-0.490851,-0.13834,-0.2041099999999999,0.282096
1581,0.332339,0.780382,-0.52967,-0.211886,-0.250994,0.330817
1582,0.32361,0.76257,-0.5601430000000001,-0.240084,-0.23695,0.114815
1583,0.315248,0.75173,-0.579238,-0.210863,-0.236715,0.107055
1584,0.305654,0.7463609999999999,-0.5912,-0.095052,-0.316628,0.11389
1585,0.296133,0.747479,-0.5946229999999999,-0.001471,-0.457226,0.0094939999999999
1586,0.288996,0.75647,-0.586712,-0.0195259999999999,-0.446884,-0.075489
1587,0.28558,0.771528,-0.5684939999999999,-0.048107,-0.42761,-0.113894
1588,0.285464,0.791186,-0.540862,0.092085,-0.523623,0.433105
1589,0.294929,0.815539,-0.497904,0.0966419999999999,-0.625644,0.412897
1590,0.306683,0.8403959999999999,-0.44685,-0.110257,0.253186,-0.453281
1591,0.300706,0.865977,-0.399569,0.51126,1.362325,-0.143492
1592,0.298427,0.8854200000000001,-0.356325,0.4062699999999999,1.144823,-0.445204
1593,0.2969739999999999,0.896073,-0.329931,0.040184,0.020492,0.100835
1594,0.2891,0.907483,-0.304777,-0.2241429999999999,-0.197553,-0.01732
1595,0.275783,0.920398,-0.277136,-0.249752,0.030392,0.087683
1596,0.252791,0.935163,-0.2481139999999999,-0.23413,0.236102,0.087545
1597,0.22637,0.949883,-0.2155719999999999,-0.133047,0.3322969999999999,0.127254
1598,0.206965,0.961738,-0.179497,-0.008586,0.241769,0.140175
1599,0.195003,0.970413,-0.1423569999999999,0.059743,-0.023132,0.08831
1600,0.18688,0.976864,-0.103949,0.123697,-0.199337,0.058508
1601,0.177807,0.981796,-0.066728,0.137119,-0.2671199999999999,0.006043
1602,0.16859,0.985119,-0.033305,0.078068,-0.244015,-0.071386
1603,0.160724,0.986982,-0.004943,0.07948,-0.182631,-0.109742
1604,0.152258,0.988148,0.019299,0.146448,-0.104923,-0.140591
1605,0.141307,0.989164,0.039725,0.0965159999999999,-0.066724,-0.197348
1606,0.129081,0.990055,0.055852,-0.0201639999999999,0.019375,-0.22643
1607,0.114559,0.991087,0.067924,0.002567,0.1159839999999999,-0.191154
1608,0.09975,0.991885,0.078773,0.124264,0.088682,-0.1724619999999999
1609,0.086746,0.99216,0.089907,0.26529,0.055798,-0.1933619999999999
1610,0.07643,0.991905,0.101354,0.364763,0.138802,-0.197256
1611,0.06797,0.991348,0.112247,0.296349,0.099244,-0.1781039999999999
1612,0.060475,0.99071,0.12176,0.237956,0.0717899999999999,-0.202128
1613,0.0533149999999999,0.990141,0.129491,0.2321619999999999,-0.004698,-0.252126
1614,0.047461,0.989716,0.134901,0.162012,-0.046372,-0.345487
1615,0.043627,0.989623,0.136864,0.1280339999999999,0.091996,-0.236932
1616,0.0425399999999999,0.990726,0.128999,0.042238,0.218639,-0.101076
1617,0.048449,0.992995,0.107721,-0.024768,0.5108659999999999,-0.082925
1618,0.061023,0.995202,0.076417,-0.222538,0.5209729999999999,-0.245332
1619,0.077133,0.996199,0.040341,-0.253769,0.557481,-0.487576
1620,0.091964,0.995754,0.0026089999999999,-0.152251,0.486271,-0.410995
1621,0.10774,0.993276,-0.042259,0.159136,0.281611,-0.147148
1622,0.128825,0.986886,-0.097223,0.18073,0.229041,-0.082541
1623,0.154684,0.97563,-0.155598,0.144236,0.298082,-0.107524
1624,0.180048,0.961116,-0.209358,0.065741,0.189869,0.20147
1625,0.201013,0.947637,-0.248134,-0.211923,-0.0085659999999999,0.230571
1626,0.216827,0.935506,-0.278939,-0.321472,-0.039937,0.1063009999999999
1627,0.226906,0.923611,-0.308949,-0.185769,-0.0589409999999999,-0.077877
1628,0.236197,0.91013,-0.340393,-0.121252,-0.041157,-0.138809
1629,0.248468,0.890128,-0.382007,-0.118219,-0.094672,0.0657529999999999
1630,0.255504,0.86775,-0.426289,-0.101954,-0.2758469999999999,0.341923
1631,0.2604059999999999,0.847619,-0.462304,-0.065673,-0.264886,0.279092
1632,0.270396,0.828183,-0.490912,-0.060282,-0.223874,0.092047
1633,0.278088,0.807916,-0.5195529999999999,-0.032269,-0.237588,0.166419
1634,0.278117,0.789615,-0.54695,-0.031428,-0.322452,0.209914
1635,0.273442,0.777358,-0.566515,-0.057576,-0.406326,0.194277
1636,0.267427,0.772504,-0.5759489999999999,-0.1628119999999999,-0.4574399999999999,0.183172
1637,0.258823,0.774486,-0.5772149999999999,-0.040973,-0.381313,0.148016
1638,0.254352,0.7841,-0.566117,0.053876,-0.392788,0.055589
1639,0.259221,0.800842,-0.539863,0.015483,-0.450256,0.183342
1640,0.270759,0.823744,-0.498127,-0.1025619999999999,-0.6741159999999999,0.386997
1641,0.279568,0.850984,-0.444593,-0.4709279999999999,-0.1658339999999999,-0.568591
1642,0.263096,0.877425,-0.401124,0.28204,1.097688,0.513429
1643,0.248965,0.903191,-0.349652,0.672574,1.480675,-0.227542
1644,0.2523829999999999,0.919304,-0.301955,0.500364,0.553581,-0.306428
1645,0.26142,0.92533,-0.274623,-0.097755,-0.562994,-0.027181
1646,0.257326,0.933409,-0.2500489999999999,-0.298357,-0.491911,0.134434
1647,0.240819,0.944356,-0.224031,-0.20989,-0.188466,0.183702
1648,0.2169739999999999,0.956601,-0.194498,-0.062219,0.064059,0.144785
1649,0.19243,0.968068,-0.160649,0.158995,0.159725,0.087392
1650,0.176483,0.976047,-0.127197,0.165452,0.0559049999999999,0.068801
1651,0.168052,0.981235,-0.0944909999999999,0.035073,-0.105945,0.0295339999999999
1652,0.161918,0.984894,-0.061309,-0.115425,-0.241684,-0.034669
1653,0.152525,0.987835,-0.03016,-0.098967,-0.267529,-0.07691
1654,0.140246,0.99011,-0.00218,-0.010394,-0.2746409999999999,-0.083148
1655,0.1280059999999999,0.991486,0.0236949999999999,0.106445,-0.21959,-0.085066
1656,0.114975,0.992215,0.047766,0.152099,-0.142423,-0.1122809999999999
1657,0.09957,0.992715,0.0677799999999999,0.149331,0.007773,-0.1754609999999999
1658,0.083858,0.992919,0.08409,0.166737,0.115877,-0.147063
1659,0.069709,0.992851,0.096846,0.214119,0.1475,-0.153379
1660,0.058437,0.992408,0.108176,0.196934,0.2220079999999999,-0.120215
1661,0.048468,0.991873,0.117598,0.200235,0.254282,-0.122359
1662,0.038975,0.99136,0.12521,0.330242,0.224598,-0.084911
1663,0.029199,0.990947,0.131003,0.411902,0.2099659999999999,-0.063895
1664,0.019886,0.990618,0.13517,0.3376119999999999,0.291151,-0.1834339999999999
1665,0.011865,0.990456,0.137278,0.331275,0.347724,-0.229288
1666,0.005992,0.990493,0.137395,0.267293,0.324128,-0.285848
1667,0.003034,0.991093,0.1331,0.15639,0.282421,-0.137754
1668,0.004897,0.992931,0.118549,0.079332,0.325169,-0.104282
1669,0.0139969999999999,0.995568,0.092942,-0.1356089999999999,0.31533,-0.134476
1670,0.029362,0.99773,0.060527,-0.337177,0.266308,-0.384959
1671,0.046205,0.998592,0.0258779999999999,-0.230318,0.318944,-0.450683
1672,0.061258,0.998071,-0.009566,0.042945,0.180746,-0.388323
1673,0.0775759999999999,0.995679,-0.050946,0.132675,0.127963,-0.343891
1674,0.099109,0.989975,-0.100591,0.1186339999999999,0.147766,-0.270228
1675,0.123675,0.980673,-0.151578,-0.021075,0.311426,-0.089923
1676,0.149055,0.96791,-0.202299,-0.073051,0.303696,0.0218639999999999
1677,0.174824,0.953327,-0.246164,-0.207783,0.014477,0.237894
1678,0.196381,0.939522,-0.280582,-0.155472,-0.164482,0.220844
1679,0.2144989999999999,0.926784,-0.308311,-0.100576,-0.1723589999999999,-0.0156639999999999
1680,0.232928,0.913784,-0.3327719999999999,-0.260607,-0.109371,-0.2681949999999999
1681,0.2472909999999999,0.897734,-0.364576,-0.324241,-0.157805,0.011045
1682,0.249824,0.878775,-0.406617,-0.041954,-0.204093,0.35466
1683,0.253607,0.859633,-0.4435189999999999,0.119851,-0.131057,0.13639
1684,0.26776,0.838842,-0.473966,-0.140624,-0.2160699999999999,0.105802
1685,0.27897,0.8191689999999999,-0.501132,-0.116525,-0.243867,0.114398
1686,0.2837929999999999,0.801175,-0.526854,-0.0566659999999999,-0.202771,0.12152
1687,0.283864,0.784858,-0.5508310000000001,-0.007451,-0.228096,0.13393
1688,0.277873,0.772779,-0.570609,-0.075527,-0.332548,0.164222
1689,0.267474,0.766874,-0.5834020000000001,-0.130908,-0.3739449999999999,0.201368
1690,0.258688,0.768049,-0.5858140000000001,-0.261923,-0.474592,0.040663
1691,0.2515159999999999,0.7775569999999999,-0.576317,-0.212774,-0.47763,-0.022316
1692,0.245853,0.7942640000000001,-0.555605,-0.00687,-0.4332569999999999,0.021074
1693,0.2471159999999999,0.814884,-0.524303,0.01567,-0.52367,0.212703
1694,0.257679,0.8347110000000001,-0.486677,-0.206944,0.305212,-1.096788
1695,0.260703,0.85008,-0.457596,0.5072720000000001,1.00455,0.583023
1696,0.269752,0.868906,-0.4150069999999999,0.496956,0.544149,0.147444
1697,0.284144,0.883434,-0.372559,-0.094783,0.086109,-0.312011
1698,0.2849489999999999,0.89371,-0.346527,-0.278784,-0.377826,0.183609
1699,0.274003,0.907438,-0.318546,-0.216218,-0.203016,0.162921
1700,0.257837,0.922112,-0.288483,-0.016123,0.194526,0.186051
1701,0.242498,0.936181,-0.254465,0.063197,0.232825,0.108316
1702,0.226527,0.94805,-0.223338,0.104406,0.2284489999999999,0.063792
1703,0.2163469999999999,0.957002,-0.193219,0.105964,0.145415,0.055859
1704,0.211559,0.964052,-0.160745,0.039494,-0.031526,0.054574
1705,0.20604,0.970179,-0.127644,-0.033753,-0.185572,0.0267069999999999
1706,0.197689,0.975556,-0.095922,-0.037212,-0.235932,-0.030543
1707,0.186001,0.980327,-0.0659889999999999,0.019565,-0.131267,-0.060277
1708,0.17215,0.984327,-0.038168,0.104797,-0.045331,-0.122644
1709,0.158108,0.987344,-0.012041,0.145374,-0.004388,-0.173399
1710,0.143227,0.989626,0.010883,0.120277,-0.038149,-0.133
1711,0.127973,0.99131,0.0303,0.051807,-0.09066,-0.11729
1712,0.112148,0.992491,0.048732,0.041279,-0.004454,-0.148601
1713,0.094595,0.99331,0.066175,0.1096289999999999,0.053245,-0.166883
1714,0.078925,0.993341,0.083874,0.258432,0.043387,-0.065914
1715,0.066683,0.992729,0.100158,0.2507,0.074104,-0.1119839999999999
1716,0.05487,0.991783,0.115521,0.162324,0.191139,-0.1741
1717,0.0427899999999999,0.990742,0.128799,0.2274429999999999,0.2459059999999999,-0.065109
1718,0.030454,0.989861,0.138699,0.243456,0.258613,-0.07385
1719,0.019221,0.989087,0.146043,0.218786,0.29491,-0.165299
1720,0.012593,0.988679,0.149482,0.173365,0.219817,-0.240668
1721,0.010167,0.98897,0.1477359999999999,0.169948,0.2179849999999999,-0.151215
1722,0.011887,0.990668,0.135742,0.092133,0.160455,0.080322
1723,0.020838,0.993458,0.1122359999999999,-0.146662,0.304333,-0.064263
1724,0.0350759999999999,0.99586,0.083799,-0.256756,0.333303,-0.212248
1725,0.048979,0.997221,0.056045,-0.233091,0.50374,-0.4873189999999999
1726,0.056588,0.998003,0.027911,0.0859289999999999,0.270201,-0.4144319999999999
1727,0.066591,0.997699,-0.012342,0.17552,0.194348,-0.346377
1728,0.086011,0.99395,-0.06824,0.3098329999999999,0.0579909999999999,-0.142285
1729,0.11552,0.984856,-0.129252,0.193272,0.083672,-0.033331
1730,0.152417,0.970863,-0.184893,0.056445,0.132881,0.068133
1731,0.191137,0.955284,-0.225592,-0.0689289999999999,0.111092,0.169211
1732,0.220827,0.942229,-0.2518579999999999,-0.402238,-0.159041,0.064725
1733,0.2383,0.929684,-0.280881,-0.390048,-0.172787,0.015729
1734,0.246257,0.916357,-0.315658,-0.3168289999999999,-0.144781,-0.01236
1735,0.253229,0.900819,-0.352694,0.019553,-0.028154,0.061023
1736,0.2651739999999999,0.880767,-0.392335,0.058144,0.080858,0.201066
1737,0.27756,0.856513,-0.4351319999999999,-0.033907,0.145318,0.219968
1738,0.283276,0.830003,-0.480462,-0.167981,0.0645429999999999,0.17344
1739,0.283542,0.804446,-0.521983,-0.035831,-0.0735799999999999,0.124568
1740,0.280457,0.778411,-0.561619,0.065567,-0.238342,0.066898
1741,0.269959,0.7528100000000001,-0.60033,0.025787,-0.336779,0.168872
1742,0.252218,0.729804,-0.635428,-0.1080069999999999,-0.385169,0.215079
1743,0.228305,0.710296,-0.6658470000000001,-0.112704,-0.452743,0.27568
1744,0.2060219999999999,0.695134,-0.688724,-0.10626,-0.541691,0.337345
1745,0.192987,0.68696,-0.700599,-0.1027,-0.588846,0.357902
1746,0.190245,0.688107,-0.7002229999999999,-0.068022,-0.479626,0.167783
1747,0.189926,0.695965,-0.692501,0.0370029999999999,-0.436184,0.082623
1748,0.190032,0.7074520000000001,-0.680732,0.076844,-0.4777,0.0758279999999999
1749,0.193011,0.722861,-0.663488,-0.018786,-0.4453189999999999,0.038762
1750,0.200465,0.742358,-0.639308,-0.012797,-0.338992,-0.003118
1751,0.2117929999999999,0.764994,-0.608214,0.088256,-0.195536,-0.045381
1752,0.227885,0.7887390000000001,-0.570926,0.177404,-0.130154,-0.024152
1753,0.248133,0.80614,-0.537181,0.090475,1.253827,-1.2849620000000002
1754,0.250808,0.813445,-0.524784,0.73935,1.950639,-0.4459649999999999
1755,0.25193,0.819635,-0.514515,0.230446,-0.1774079999999999,0.147922
1756,0.254012,0.832242,-0.492795,-0.2581469999999999,-0.55235,0.007946
1757,0.254353,0.851493,-0.458541,-0.069752,-0.45307,0.104842
1758,0.254528,0.8713209999999999,-0.419535,-0.180386,-0.063216,-0.060872
1759,0.244604,0.8905040000000001,-0.383623,-0.0406399999999999,0.440566,0.025651
1760,0.22479,0.907456,-0.354948,0.094851,0.372436,0.034696
1761,0.205242,0.921476,-0.3297739999999999,0.027363,0.1761339999999999,0.071092
1762,0.188589,0.933943,-0.303608,-0.159979,-0.041594,0.104999
1763,0.174993,0.945913,-0.273167,-0.127828,-0.092199,0.11234
1764,0.163175,0.957177,-0.239123,0.10126,-0.110299,0.123248
1765,0.153566,0.966367,-0.2062659999999999,0.3452139999999999,-0.131192,0.020643
1766,0.1458819999999999,0.973685,-0.17507,0.335365,-0.160834,-0.034982
1767,0.139188,0.979525,-0.1454339999999999,0.223894,-0.211657,-0.08412
1768,0.131524,0.984307,-0.117622,0.194541,-0.14225,-0.05111
