,gravity.x,gravity.y,gravity.z,userAcceleration.x,userAcceleration.y,userAcceleration.z
0,-0.110492,0.988703,0.101223,0.081866,0.0602169999999999,-0.129635
1,-0.1163609999999999,0.987912,0.102354,0.059079,0.025638,-0.065764
2,-0.123463,0.986942,0.1033869999999999,-0.021587,0.01286,-0.151864
3,-0.127147,0.986019,0.107636,0.036174,-0.036755,-0.153549
4,-0.130128,0.98506,0.112738,0.134476,-0.020246,-0.067679
5,-0.1368349999999999,0.983835,0.1154579999999999,0.152429,-0.023721,-0.0730389999999999
6,-0.147591,0.982839,0.110582,0.167213,0.009165,-0.143923
7,-0.157947,0.982121,0.102349,0.090168,0.158092,-0.330788
8,-0.162822,0.981606,0.099614,0.1338,0.141731,-0.365743
9,-0.16438,0.981392,0.099164,0.142621,0.147331,-0.38548
10,-0.165374,0.981395,0.097469,0.146621,0.265401,-0.369137
11,-0.165189,0.982022,0.091271,0.204313,0.301517,-0.452676
12,-0.164695,0.983212,0.078448,0.165198,0.152942,-0.355471
13,-0.1635319999999999,0.985079,0.053501,0.084034,-0.156466,-0.198215
14,-0.1645839999999999,0.986305,0.010073,0.026904,-0.17826,-0.0950039999999999
15,-0.1703859999999999,0.983871,-0.054349,-0.059259,0.157776,0.166562
16,-0.17773,0.97506,-0.132883,-0.146779,0.6247020000000001,-0.119558
17,-0.192654,0.958506,-0.2100929999999999,-0.197758,0.773778,-0.244528
18,-0.2064969999999999,0.937307,-0.280721,-0.445618,0.58967,0.043569
19,-0.203717,0.917634,-0.341231,-0.37012,0.319106,0.031157
20,-0.192541,0.901735,-0.387031,0.103872,0.353117,0.295951
21,-0.184202,0.879333,-0.43913,0.0777409999999999,0.258042,0.362714
22,-0.181565,0.846409,-0.5006189999999999,-0.145996,-0.063313,0.253472
23,-0.184621,0.804088,-0.565112,-0.333827,-0.295238,0.213519
24,-0.190803,0.758012,-0.623704,-0.180856,-0.0981,0.22075
25,-0.196709,0.714557,-0.671349,-0.025886,0.053936,0.2741929999999999
26,-0.204036,0.67043,-0.7133649999999999,-0.006459,0.036617,0.26169
27,-0.216943,0.625708,-0.7492810000000001,0.122125,0.019083,0.167784
28,-0.230027,0.587494,-0.775845,0.059495,-0.094604,0.263714
29,-0.240997,0.557976,-0.794091,0.050598,-0.156639,0.250665
30,-0.249948,0.537834,-0.805145,0.03425,-0.153938,0.2268369999999999
31,-0.257517,0.528355,-0.809026,-0.025687,-0.1655319999999999,0.099233
32,-0.259869,0.53141,-0.806269,0.043332,-0.209495,-0.078726
33,-0.258612,0.543321,-0.7986989999999999,0.053304,-0.15529,-0.1255109999999999
34,-0.254348,0.5606720000000001,-0.7880050000000001,0.038054,-0.014346,-0.18253
35,-0.247058,0.578863,-0.777096,0.095264,0.029017,-0.165028
36,-0.232517,0.600718,-0.764899,0.0804629999999999,-0.007853,-0.081811
37,-0.2115969999999999,0.6270220000000001,-0.749711,-0.4081849999999999,0.736915,-0.493361
38,-0.202755,0.6450229999999999,-0.736772,-0.30222,0.644162,-0.462264
39,-0.195713,0.670674,-0.715464,0.26447,-0.328602,0.755641
40,-0.183311,0.7055899999999999,-0.684497,-0.465538,-0.219201,0.126895
41,-0.1833,0.733371,-0.654648,-0.386875,0.224561,0.156006
42,-0.187941,0.761404,-0.620433,-0.264161,0.583551,0.156963
43,-0.19039,0.7852,-0.5892430000000001,-0.085931,0.109942,0.177622
44,-0.187924,0.81091,-0.5541689999999999,-0.036334,-0.050229,0.25438
45,-0.188279,0.8371290000000001,-0.513575,-0.038909,0.028044,0.273097
46,-0.191303,0.861316,-0.47067,-0.049602,0.18652,0.209715
47,-0.191737,0.8834860000000001,-0.427412,0.0002089999999999,0.180494,0.175032
48,-0.191159,0.902582,-0.385741,0.034543,0.065573,0.13864
49,-0.191629,0.918142,-0.346821,0.1257869999999999,-0.278524,0.1024819999999999
50,-0.199949,0.929364,-0.310313,0.091718,-0.2276429999999999,0.1031589999999999
51,-0.2144039999999999,0.936096,-0.278829,0.086154,-0.159332,0.059621
52,-0.229328,0.940873,-0.2493119999999999,0.017353,-0.074373,-0.037202
53,-0.2423969999999999,0.944762,-0.2205869999999999,0.042629,-0.061568,-0.03216
54,-0.253668,0.946486,-0.199516,0.081549,-0.042967,-0.013512
55,-0.264748,0.946785,-0.183018,0.235161,0.108787,-0.017757
56,-0.2741,0.94724,-0.166115,0.25556,0.118266,-0.023475
57,-0.281738,0.948224,-0.146575,0.269012,0.120273,-0.050492
58,-0.287684,0.949041,-0.128638,0.103907,0.105097,-0.242181
59,-0.292817,0.949715,-0.110848,-0.050765,0.300438,-0.32737
60,-0.2985739999999999,0.94952,-0.096188,-0.078898,0.367878,-0.336704
61,-0.30251,0.948788,-0.090973,-0.006175,0.2108489999999999,-0.284805
62,-0.305131,0.947395,-0.096573,-0.022033,0.127129,-0.2086489999999999
63,-0.307016,0.945053,-0.1122619999999999,-0.062857,0.217361,-0.065732
64,-0.306959,0.941289,-0.140496,-0.145312,0.32104,0.137216
65,-0.306152,0.934713,-0.180474,-0.418671,0.303858,-0.068824
66,-0.3098059999999999,0.923469,-0.226304,-0.5101859999999999,0.08094,-0.173888
67,-0.308284,0.908787,-0.281172,-0.166905,0.2014119999999999,0.068633
68,-0.300117,0.8886639999999999,-0.346696,0.0517799999999999,0.386773,0.037492
69,-0.293217,0.866166,-0.4046869999999999,0.032673,0.49655,0.1192859999999999
70,-0.285188,0.843968,-0.454288,0.0166639999999999,0.4093429999999999,0.11771
71,-0.271943,0.82073,-0.502437,0.005143,0.2387639999999999,0.083064
72,-0.257821,0.796716,-0.5465949999999999,-0.105414,-0.028741,0.045908
73,-0.250587,0.771907,-0.58426,-0.254402,-0.266292,0.252488
74,-0.247419,0.746412,-0.617777,-0.244738,-0.157895,0.392862
75,-0.244934,0.718731,-0.650714,-0.077454,-0.196575,0.43088
76,-0.243608,0.6864859999999999,-0.6851189999999999,0.047777,-0.192787,0.269409
77,-0.24481,0.654296,-0.715515,0.061567,-0.13835,0.335021
78,-0.248651,0.6203770000000001,-0.743842,0.036478,-0.137406,0.3944
79,-0.254316,0.584527,-0.770486,0.02316,-0.192025,0.397821
80,-0.263276,0.5506949999999999,-0.792097,0.0328829999999999,-0.2099059999999999,0.411268
81,-0.274972,0.519559,-0.808978,0.03866,-0.130185,0.318332
82,-0.28693,0.4913619999999999,-0.822333,-0.023739,-0.126692,0.171073
83,-0.297261,0.4702119999999999,-0.8309840000000001,-0.02653,-0.122403,0.162344
84,-0.304672,0.457933,-0.835147,-0.03006,-0.070848,0.085269
85,-0.305792,0.456283,-0.8356399999999999,-0.030405,-0.108108,-0.011009
86,-0.299482,0.466362,-0.832355,-0.033892,-0.189354,-0.0816009999999999
87,-0.290604,0.486946,-0.8236690000000001,-0.045043,-0.097206,-0.172898
88,-0.281755,0.515839,-0.809025,-0.0575549999999999,0.068115,-0.408031
89,-0.2722989999999999,0.544137,-0.793578,-0.018716,0.106467,-0.6211260000000001
90,-0.259736,0.568984,-0.780251,-0.282836,0.458787,-0.084724
91,-0.258922,0.603383,-0.7542449999999999,0.01121,0.8567299999999999,-0.165067
92,-0.2479969999999999,0.6370939999999999,-0.729798,0.423,0.632559,0.147492
93,-0.2387389999999999,0.679078,-0.694156,-0.515152,-0.5722520000000001,0.28075
94,-0.237654,0.715817,-0.6565989999999999,-0.079347,0.064381,0.261198
95,-0.238736,0.753587,-0.61246,-0.0134919999999999,0.777037,0.069689
96,-0.240866,0.7827529999999999,-0.5738260000000001,-0.10415,0.60569,0.072163
97,-0.241856,0.80814,-0.537038,0.147069,-0.1176339999999999,0.159826
98,-0.240054,0.8328700000000001,-0.498693,0.100177,-0.22612,0.146368
99,-0.24168,0.855909,-0.4571699999999999,0.080975,-0.22949,0.118516
100,-0.248726,0.87592,-0.413391,0.104012,-0.045461,0.138336
101,-0.254613,0.8926870000000001,-0.371853,0.241155,-0.133547,0.102978
102,-0.2605909999999999,0.906489,-0.332208,0.296053,-0.344462,0.036325
103,-0.269702,0.917136,-0.293453,0.246707,-0.454596,0.011501
104,-0.281375,0.925782,-0.252481,0.179614,-0.319932,-0.005896
105,-0.29241,0.932067,-0.213864,-0.033289,-0.235213,-0.0588559999999999
106,-0.300931,0.937198,-0.176321,-0.078875,-0.333072,-0.196314
107,-0.309864,0.940279,-0.1408849999999999,0.148533,-0.208758,-0.22618
108,-0.321013,0.940772,-0.1090339999999999,0.1710799999999999,0.002664,-0.181173
109,-0.32957,0.940575,-0.081799,0.0687059999999999,0.48632,0.051984
110,-0.3326159999999999,0.940797,-0.065238,0.027089,0.305205,0.060432
111,-0.335331,0.940513,-0.054545,0.006154,0.117943,-0.108541
112,-0.342158,0.938632,-0.043418,0.0810039999999999,0.452374,-0.179299
113,-0.348731,0.936588,-0.034318,0.2705909999999999,0.5167510000000001,-0.085326
114,-0.3522409999999999,0.935442,-0.029379,0.110343,0.457472,-0.07786
115,-0.354386,0.934672,-0.028061,-0.059295,0.356649,-0.065353
116,-0.356572,0.933686,-0.032797,-0.112194,0.322586,-0.07937
117,-0.360615,0.931552,-0.046437,-0.032986,0.423734,-0.010265
118,-0.362686,0.929306,-0.069562,-0.329361,0.348252,-0.050861
119,-0.365767,0.925285,-0.100259,-0.6192949999999999,-0.018013,0.016183
120,-0.370202,0.917843,-0.143192,-0.439139,-0.040737,0.126346
121,-0.377184,0.904856,-0.197376,-0.103193,0.071828,0.11478
122,-0.381023,0.888014,-0.2573789999999999,-0.14153,0.245973,-0.05329
123,-0.379305,0.8689600000000001,-0.317849,-0.197401,0.296994,0.037057
124,-0.373967,0.846555,-0.378796,-0.272929,0.468387,0.09161
125,-0.365825,0.820824,-0.43865,-0.207951,0.381416,-0.010752
126,-0.352229,0.794333,-0.494938,-0.225651,0.345758,0.022129
127,-0.338925,0.767041,-0.544768,-0.274905,0.130832,0.2386309999999999
128,-0.326176,0.738228,-0.590444,-0.22105,0.1325,0.293645
129,-0.315143,0.70878,-0.631119,-0.07806,-0.001734,0.18425
130,-0.303847,0.67691,-0.6704220000000001,0.09471,-0.349823,0.328671
131,-0.293244,0.642293,-0.708142,0.279298,-0.347996,0.506054
132,-0.288602,0.603612,-0.743208,0.337277,-0.275213,0.577711
133,-0.29144,0.5611,-0.7747430000000001,0.2463969999999999,-0.368809,0.6041350000000001
134,-0.297938,0.520856,-0.799962,0.143886,-0.436536,0.521565
135,-0.307526,0.486627,-0.817692,0.094925,-0.4978729999999999,0.469501
136,-0.313687,0.463016,-0.828984,0.130978,-0.263767,0.367848
137,-0.316573,0.449947,-0.835061,0.1240069999999999,-0.25877,0.334573
138,-0.314445,0.447877,-0.836976,0.0673899999999999,-0.262162,0.1423039999999999
139,-0.309136,0.4561979999999999,-0.834455,-0.037116,-0.198416,-0.025072
140,-0.3044219999999999,0.473301,-0.826626,-0.1699119999999999,-0.1032599999999999,-0.202365
141,-0.300708,0.497507,-0.81367,-0.190045,-0.0313209999999999,-0.35938
142,-0.29331,0.518121,-0.803441,0.0963649999999999,0.148383,-0.550914
143,-0.270608,0.540471,-0.796655,-0.672186,0.757396,-0.352484
144,-0.2674809999999999,0.567397,-0.7787890000000001,-0.702353,0.905686,-0.481649
145,-0.253079,0.596805,-0.7614270000000001,0.2481199999999999,-0.138477,0.599654
146,-0.245493,0.636772,-0.730925,-0.331259,-0.4849159999999999,0.212828
147,-0.243381,0.67409,-0.697398,-0.2312429999999999,-0.201724,0.263179
148,-0.242757,0.713033,-0.65776,-0.186274,0.676844,0.088851
149,-0.2415929999999999,0.7444970000000001,-0.622376,-0.005981,0.264658,0.112015
150,-0.239112,0.772831,-0.5878369999999999,0.077155,0.039501,0.078529
151,-0.233462,0.801633,-0.5503399999999999,0.150393,-0.0936559999999999,0.18834
152,-0.229282,0.829125,-0.509877,0.080539,-0.055001,0.263494
153,-0.2273,0.8539129999999999,-0.468146,0.064809,-0.072373,0.191107
154,-0.2271929999999999,0.876073,-0.425291,0.083699,-0.142171,0.170836
155,-0.228927,0.894753,-0.3834079999999999,0.152114,-0.2416309999999999,0.166978
156,-0.232786,0.908151,-0.347942,0.166746,-0.342859,0.0239069999999999
157,-0.243299,0.917743,-0.313919,0.121625,-0.2551,-0.0583039999999999
158,-0.256366,0.925498,-0.278785,0.089344,-0.110786,-0.0452199999999999
159,-0.26842,0.931399,-0.245842,-0.019941,-0.1170829999999999,-0.020119
160,-0.279469,0.935567,-0.215875,-0.088848,-0.126226,0.020883
161,-0.289259,0.938102,-0.190486,-0.059999,-0.060859,-0.125203
162,-0.299384,0.939737,-0.165089,0.051062,-0.052759,-0.14114
163,-0.306969,0.940942,-0.142787,0.2128519999999999,0.062262,-0.0795029999999999
164,-0.31259,0.941943,-0.1225579999999999,0.130614,0.049817,-0.078706
165,-0.3169369999999999,0.942778,-0.103489,0.119656,0.0512409999999999,-0.109722
166,-0.320111,0.943231,-0.088501,0.1149109999999999,0.185858,-0.1526799999999999
167,-0.3225409999999999,0.94323,-0.07921,0.168869,0.209465,-0.109526
168,-0.323753,0.943169,-0.0748669999999999,0.142189,0.202766,-0.072655
169,-0.324247,0.943258,-0.07153,0.074323,0.204432,-0.045002
170,-0.324883,0.94318,-0.06965,-0.051979,0.260067,0.019006
171,-0.326748,0.94249,-0.070269,-0.178043,0.275665,0.031404
172,-0.328945,0.94139,-0.074627,-0.086491,0.480058,0.008023
173,-0.3304539999999999,0.94007,-0.084009,-0.142889,0.4761899999999999,0.048029
174,-0.3320369999999999,0.937664,-0.102601,-0.286173,0.498127,-0.01628
175,-0.336694,0.932945,-0.127438,-0.514472,0.238808,-0.285861
176,-0.343648,0.925034,-0.161892,-0.272548,0.163681,-0.091968
177,-0.3461059999999999,0.913979,-0.2117619999999999,-0.1474859999999999,0.189307,0.039247
178,-0.342454,0.898124,-0.275844,-0.151152,0.408837,0.048595
179,-0.338485,0.877331,-0.3401619999999999,-0.157044,0.402576,0.006009
180,-0.33516,0.8562420000000001,-0.393077,-0.194686,0.375783,-0.02361
181,-0.327052,0.8343280000000001,-0.4437649999999999,-0.093205,0.299019,0.069985
182,-0.311185,0.810916,-0.495554,-0.146091,0.159894,0.164957
183,-0.296087,0.7841229999999999,-0.545415,-0.2119849999999999,0.0722309999999999,0.195913
184,-0.285244,0.752301,-0.5938640000000001,-0.220463,-0.199917,0.295051
185,-0.277776,0.716191,-0.640239,-0.053096,-0.313847,0.336803
186,-0.274838,0.676636,-0.683099,0.050183,-0.272568,0.352654
187,-0.274158,0.636768,-0.7206670000000001,0.191241,-0.206485,0.30781
188,-0.274357,0.596754,-0.754062,0.113148,-0.153669,0.364719
189,-0.275377,0.556674,-0.783759,0.095842,-0.1302829999999999,0.4092929999999999
190,-0.27841,0.520051,-0.8074859999999999,0.098997,-0.283051,0.407232
191,-0.28304,0.490901,-0.8239559999999999,0.129094,-0.349452,0.343121
192,-0.285642,0.47065,-0.834802,0.132459,-0.338204,0.330377
193,-0.284328,0.460625,-0.8408209999999999,0.01791,-0.209968,0.301103
194,-0.2822119999999999,0.459068,-0.842384,0.03235,-0.242942,0.198891
195,-0.279763,0.464708,-0.8401049999999999,0.071847,-0.261232,0.124178
196,-0.2766929999999999,0.476988,-0.834219,0.108053,-0.2611219999999999,0.044348
197,-0.272803,0.49656,-0.824017,0.06719,-0.031686,-0.326678
198,-0.266813,0.5176270000000001,-0.81294,0.0125709999999999,0.049313,-0.454181
199,-0.256848,0.533219,-0.806042,-0.1467619999999999,0.117874,-0.2381469999999999
200,-0.247913,0.556901,-0.792715,-0.111218,0.943694,-0.323069
201,-0.240731,0.585461,-0.774133,0.225534,0.635563,0.06846
202,-0.219074,0.626808,-0.74774,-0.195065,-0.329521,0.515898
203,-0.207447,0.663554,-0.718789,-0.4100609999999999,-0.028789,0.081033
204,-0.196666,0.6999989999999999,-0.686528,-0.279134,0.417601,0.136479
205,-0.188409,0.73465,-0.651756,-0.263831,0.358352,0.145241
206,-0.1841799999999999,0.7625,-0.620215,-0.109598,-0.054508,0.15032
207,-0.186357,0.788188,-0.586537,-0.087722,-0.055872,0.1130109999999999
208,-0.192991,0.812381,-0.5502600000000001,-0.115939,0.069303,0.123029
209,-0.197434,0.836942,-0.510432,-0.071563,0.127322,0.06895
210,-0.193108,0.864475,-0.464096,0.062035,0.096249,0.089478
211,-0.183836,0.891057,-0.4149859999999999,0.137206,-0.064717,0.051827
212,-0.180916,0.913095,-0.365402,0.169197,-0.247461,0.1066579999999999
213,-0.187103,0.928566,-0.3205429999999999,0.154434,-0.290688,0.061327
214,-0.200202,0.938583,-0.281019,0.064261,-0.301147,0.025236
215,-0.214228,0.945144,-0.2465719999999999,-0.02474,-0.128616,-0.031534
216,-0.226095,0.950956,-0.211078,-0.038737,-0.074521,-0.055402
217,-0.233481,0.956027,-0.177447,0.018362,-0.055698,-0.018522
218,-0.237787,0.959526,-0.150847,0.00271,-0.093956,-0.039201
219,-0.243329,0.96119,-0.129971,0.008359,-0.112725,-0.04964
220,-0.249906,0.961931,-0.1105609999999999,0.1053289999999999,-0.028047,-0.036351
221,-0.2566739999999999,0.961951,-0.093578,0.086936,0.088037,-0.0483139999999999
222,-0.261611,0.961972,-0.078462,0.055312,0.041476,-0.057661
223,-0.266305,0.961845,-0.062633,0.075158,0.016655,-0.060108
224,-0.271144,0.961396,-0.046763,0.07574,0.079864,-0.050481
225,-0.2765579999999999,0.9605,-0.030716,-2.3e-05,0.049236,-0.0035399999999999
226,-0.283123,0.95894,-0.016186,-0.181751,-0.078538,-0.020176
227,-0.289476,0.957175,-0.002435,-0.207396,-0.023292,-0.056052
228,-0.295517,0.95527,0.010737,-0.104797,0.1595069999999999,-0.169352
229,-0.3028099999999999,0.952775,0.022618,-0.137391,0.4042199999999999,-0.26273
230,-0.310903,0.949859,0.033047,0.005666,0.43515,-0.341106
231,-0.318585,0.947052,0.039774,0.222546,0.545212,-0.232447
232,-0.325906,0.944703,0.036137,0.015222,0.519271,-0.019306
233,-0.329011,0.944015,0.023943,-0.321425,0.3256989999999999,0.06906
234,-0.331292,0.94351,0.004645,-0.392265,0.088824,-0.071219
235,-0.334943,0.941831,-0.027486,-0.1222109999999999,0.22478,-0.0616409999999999
236,-0.336041,0.93907,-0.072196,-0.040347,0.307253,-0.0607539999999999
237,-0.33058,0.934627,-0.1310599999999999,-0.105424,0.234395,-0.0054909999999999
238,-0.321186,0.926657,-0.1952809999999999,-0.180111,0.173563,0.091125
239,-0.312154,0.91527,-0.254617,-0.2399239999999999,0.166197,0.143427
240,-0.304484,0.901233,-0.308315,-0.228673,0.150143,0.2530469999999999
241,-0.296136,0.8873200000000001,-0.353493,-0.10015,0.143533,0.213646
242,-0.290428,0.873142,-0.391491,-0.075447,0.014233,0.2310449999999999
243,-0.2889,0.852194,-0.436226,-0.197916,-0.330329,0.227791
244,-0.286783,0.8274229999999999,-0.482824,-0.188925,-0.488465,0.158438
245,-0.286628,0.804817,-0.5197189999999999,-0.123665,-0.427604,0.236332
246,-0.2877929999999999,0.7835840000000001,-0.550605,-0.040118,-0.285049,0.369529
247,-0.2903699999999999,0.76186,-0.5790069999999999,0.042812,-0.273029,0.392773
248,-0.296526,0.740825,-0.602698,0.1090569999999999,-0.33607,0.3432679999999999
249,-0.302674,0.721596,-0.622641,0.115022,-0.344598,0.33988
250,-0.30751,0.707774,-0.635994,0.114838,-0.392406,0.388298
251,-0.310079,0.701084,-0.642127,0.109914,-0.364491,0.3769139999999999
252,-0.311819,0.703591,-0.638533,0.143026,-0.33358,0.2877949999999999
253,-0.315275,0.714041,-0.6250939999999999,0.121977,-0.27265,0.26343
254,-0.317319,0.730379,-0.604855,0.1214259999999999,-0.285402,0.202237
255,-0.316395,0.752164,-0.578047,0.102146,-0.408551,0.077284
256,-0.313033,0.779726,-0.542247,0.038329,-0.483995,-0.076726
257,-0.310292,0.811203,-0.495644,0.03127,-0.36061,-0.172844
258,-0.309857,0.842785,-0.4401069999999999,0.033703,-0.163174,-0.339037
259,-0.310126,0.867706,-0.388459,0.100378,0.754654,-0.607513
260,-0.306921,0.880814,-0.3604969999999999,-0.130518,0.969467,-0.37545
261,-0.29441,0.8813350000000001,-0.369544,-0.300423,0.5470550000000001,-0.530557
262,-0.284102,0.8760899999999999,-0.389544,-0.265916,-0.751167,-0.226194
263,-0.2708239999999999,0.876851,-0.397214,-0.106877,-0.6111800000000001,0.206678
264,-0.257456,0.8862680000000001,-0.3850159999999999,-0.201971,-0.242042,0.7162850000000001
265,-0.2561449999999999,0.903097,-0.34467,-0.890919,0.438975,0.7237600000000001
266,-0.261603,0.911305,-0.317928,-1.001932,0.486385,0.287472
267,-0.261878,0.911909,-0.3159639999999999,-0.220742,-0.322752,0.060639
268,-0.2579369999999999,0.913339,-0.315075,-0.134245,-0.411431,0.276104
269,-0.245587,0.922928,-0.296448,-0.187443,-0.3311159999999999,0.32393
270,-0.233754,0.937497,-0.257776,-0.149471,0.095095,0.254266
271,-0.221063,0.950471,-0.218464,-0.005378,0.261108,0.150059
272,-0.203342,0.96128,-0.185965,0.082675,0.167474,0.133536
273,-0.183727,0.970869,-0.153779,-0.065282,-0.089963,0.131303
274,-0.1688079999999999,0.9791,-0.113381,-0.345047,-0.2984969999999999,0.113991
275,-0.162697,0.983913,-0.0737039999999999,-0.341865,-0.205639,0.131321
276,-0.1632279999999999,0.985754,-0.040412,-0.186641,0.005594,0.149451
277,-0.1656,0.986104,-0.012766,-0.082875,0.1065319999999999,0.1627299999999999
278,-0.166911,0.985845,0.015392,-0.056585,0.115992,0.237629
279,-0.166765,0.984909,0.046158,-0.030531,0.076432,0.2111969999999999
280,-0.164355,0.983645,0.073591,0.034716,-0.088778,0.164431
281,-0.162873,0.982344,0.091964,0.107957,-0.069197,0.049745
282,-0.163043,0.980669,0.108123,0.04961,-0.0976279999999999,-0.056609
283,-0.164846,0.978484,0.124015,-0.031443,-0.115462,-0.10128
284,-0.167267,0.976125,0.138517,-0.016281,-0.145848,-0.125044
285,-0.171069,0.97312,0.154135,0.008959,-0.164465,-0.15589
286,-0.176626,0.969004,0.172678,0.02413,-0.073664,-0.1227819999999999
287,-0.183375,0.964458,0.190206,-0.057958,-0.012905,-0.3372239999999999
288,-0.190104,0.960001,0.20553,-0.041051,-0.034113,-0.381891
289,-0.197166,0.955565,0.219101,-0.01603,0.066027,-0.271713
290,-0.20281,0.95227,0.228109,0.077765,0.199403,-0.249975
291,-0.205317,0.951059,0.230903,0.016428,0.308371,-0.322318
292,-0.2068449999999999,0.950853,0.230386,-0.124622,0.2499219999999999,-0.462258
293,-0.210398,0.950716,0.2277179999999999,-0.204259,0.194395,-0.409419
294,-0.218076,0.950855,0.2197739999999999,-0.265032,0.179836,-0.232576
295,-0.228512,0.952925,0.199248,-0.240283,0.121629,-0.104048
296,-0.2362199999999999,0.958375,0.160321,-0.1848769999999999,0.108321,0.151416
297,-0.241561,0.965274,0.099396,-0.351502,0.010815,0.188736
298,-0.253088,0.967289,0.0168639999999999,-0.749155,0.252529,-0.051578
299,-0.262854,0.962756,-0.063219,-0.844995,0.534833,-0.166853
300,-0.264319,0.955382,-0.131794,-0.331369,0.4981399999999999,-0.038234
301,-0.2579059999999999,0.946711,-0.192905,0.008242,0.391744,0.14104
302,-0.252825,0.933576,-0.25398,-0.155409,0.275592,0.406415
303,-0.258296,0.911099,-0.321205,-0.19875,0.208225,0.4414439999999999
304,-0.266341,0.87935,-0.394712,-0.280061,0.0765059999999999,0.38374
305,-0.275769,0.837543,-0.471663,-0.368961,-0.086673,0.231978
306,-0.285711,0.785898,-0.5483859999999999,-0.38711,-0.105707,0.017823
307,-0.294858,0.734647,-0.611021,-0.0109129999999999,0.129824,0.125029
308,-0.299754,0.687189,-0.661751,0.132304,0.155126,0.209312
309,-0.310034,0.6392329999999999,-0.7037439999999999,0.239981,-0.022656,0.2530449999999999
310,-0.32252,0.593815,-0.7371300000000001,0.182918,-0.451542,0.106851
311,-0.334178,0.554162,-0.762382,0.212169,-0.443673,0.129631
312,-0.347011,0.519845,-0.7806029999999999,0.187633,-0.303384,0.157907
313,-0.357678,0.492424,-0.793463,0.179532,-0.333076,0.189154
314,-0.3665219999999999,0.473258,-0.801053,0.170904,-0.357657,0.2126289999999999
315,-0.371429,0.464013,-0.804195,0.1036369999999999,-0.391992,0.136577
316,-0.371859,0.464202,-0.803887,0.126422,-0.439712,-0.087775
317,-0.368514,0.470308,-0.801876,0.111419,-0.467409,-0.165882
318,-0.367505,0.47903,-0.7971630000000001,0.030041,-0.430797,-0.257586
319,-0.371527,0.491122,-0.787886,-0.040522,-0.314166,-0.337099
320,-0.375721,0.507764,-0.775246,-0.07687,-0.24043,-0.4761729999999999
321,-0.376645,0.525134,-0.763131,-0.11922,-0.22919,-0.300635
322,-0.376721,0.547615,-0.747124,-0.325442,0.204399,-0.0115269999999999
323,-0.3719159999999999,0.57447,-0.7291489999999999,-0.904833,1.425926,-0.393837
324,-0.369078,0.59945,-0.710237,0.088301,0.7800060000000001,0.213838
325,-0.344129,0.6379229999999999,-0.6889310000000001,0.238828,-0.470092,0.860302
326,-0.327479,0.6825,-0.653411,-0.177648,-0.158208,0.294173
327,-0.317436,0.718638,-0.618699,-0.348045,0.199987,0.218385
328,-0.312514,0.752629,-0.57955,-0.16414,0.2383989999999999,0.09281
329,-0.304851,0.7840560000000001,-0.540663,0.107357,-0.080778,0.070967
330,-0.291415,0.814185,-0.5021680000000001,0.09331,-0.199897,0.031694
331,-0.280517,0.841216,-0.462232,0.042572,-0.265654,-0.11307
332,-0.2736969999999999,0.862693,-0.425257,0.076233,-0.160804,-0.177649
333,-0.264057,0.8820709999999999,-0.39015,0.162372,-0.185675,-0.102648
334,-0.252525,0.9001049999999999,-0.355013,0.125694,-0.229237,-0.029432
335,-0.247329,0.915067,-0.318548,-0.003083,-0.152295,-0.0187169999999999
336,-0.250581,0.92507,-0.285388,-0.141433,-0.107901,-0.03642
337,-0.260657,0.930997,-0.255525,-0.2363219999999999,-0.018201,0.001969
338,-0.268786,0.935674,-0.228601,-0.22537,-0.022649,0.041894
339,-0.27405,0.939898,-0.203663,-0.120191,-0.022128,0.1647839999999999
340,-0.278518,0.943944,-0.177168,-0.04123,0.1120559999999999,0.18524
341,-0.283267,0.947419,-0.14882,-0.049039,0.2736659999999999,0.154481
342,-0.286186,0.950128,-0.123869,-0.090462,0.226523,0.13513
343,-0.288203,0.951991,-0.103156,-0.131673,-0.024791,0.077735
344,-0.291052,0.952608,-0.088403,-0.06785,-0.076647,-0.024985
345,-0.294747,0.952653,-0.074602,0.015802,-0.0350959999999999,-0.0434709999999999
346,-0.298282,0.952608,-0.059628,0.1177859999999999,0.0184919999999999,-0.0540039999999999
347,-0.30229,0.952134,-0.045287,0.1181779999999999,-0.091187,-0.018296
348,-0.307759,0.950954,-0.030967,0.104542,-0.100994,-0.015786
349,-0.314058,0.949275,-0.015278,0.103105,-0.1036329999999999,-0.0133479999999999
350,-0.320702,0.947174,-0.00074,0.072243,-0.019622,-0.119774
351,-0.327703,0.94468,0.013373,0.096334,-0.093102,-0.17887
352,-0.334027,0.942169,0.02705,0.13696,0.0676269999999999,-0.2055929999999999
353,-0.339945,0.939613,0.0393899999999999,0.126749,0.146538,-0.1936109999999999
354,-0.346448,0.93676,0.049426,-0.010135,0.2193679999999999,-0.121982
355,-0.354013,0.933544,0.056195,-0.089026,0.131763,-0.205197
356,-0.361458,0.93047,0.059673,-0.038612,0.186961,-0.243434
357,-0.367843,0.927847,0.061479,-0.050111,0.4505409999999999,-0.17151
358,-0.3733889999999999,0.925632,0.061422,-0.058358,0.544643,0.039088
359,-0.3783019999999999,0.924095,0.054071,-0.237069,0.568001,-0.0366149999999999
360,-0.3806179999999999,0.92377,0.042023,-0.2696659999999999,0.408444,-0.2323
361,-0.383662,0.923165,0.023601,-0.312963,0.189933,-0.2353469999999999
362,-0.388629,0.921361,-0.007079,-0.076337,0.014445,-0.007005
363,-0.394431,0.917331,-0.0540029999999999,-0.067575,0.150814,0.125796
364,-0.39925,0.909464,-0.1160369999999999,-0.196026,0.404821,-0.008124
365,-0.401311,0.8975850000000001,-0.182428,-0.091685,0.400388,-0.061621
366,-0.399237,0.8835139999999999,-0.244956,0.119971,0.34842,-0.039117
367,-0.391358,0.869433,-0.301523,0.18918,0.405362,0.103723
368,-0.374818,0.8553229999999999,-0.357669,0.104478,0.333352,0.099597
369,-0.359635,0.8363280000000001,-0.413777,-0.039367,-0.02955,0.178868
370,-0.356594,0.8060579999999999,-0.472339,-0.1681099999999999,-0.384428,0.20824
371,-0.35836,0.767104,-0.532094,-0.156044,-0.567,0.161595
372,-0.3557349999999999,0.727061,-0.587222,0.096412,-0.431468,0.155612
373,-0.351806,0.690688,-0.6318060000000001,0.143035,-0.275207,0.28302
374,-0.350364,0.6535989999999999,-0.6708569999999999,0.050834,-0.1436349999999999,0.358006
375,-0.351032,0.6125659999999999,-0.7081930000000001,0.0549659999999999,-0.157365,0.397554
376,-0.352801,0.5717800000000001,-0.740672,0.1494619999999999,-0.36864,0.4410659999999999
377,-0.358353,0.5330199999999999,-0.766466,0.188203,-0.344955,0.275438
378,-0.368534,0.498488,-0.784659,0.154194,-0.227568,0.227683
379,-0.378178,0.469575,-0.797796,0.017262,-0.085939,0.157858
380,-0.383326,0.4488399999999999,-0.807218,0.02157,-0.1958339999999999,0.1191079999999999
381,-0.384338,0.438075,-0.8126329999999999,0.130294,-0.28506,0.092845
382,-0.381415,0.437959,-0.814071,0.1272039999999999,-0.27678,0.043121
383,-0.377282,0.447992,-0.81053,0.0410079999999999,-0.251627,-0.032289
384,-0.373069,0.466006,-0.802281,0.020652,-0.229648,-0.105769
385,-0.367719,0.491388,-0.789505,0.046903,-0.1768279999999999,-0.219574
386,-0.363172,0.5212760000000001,-0.772253,0.118558,-0.027166,-0.4533779999999999
387,-0.352034,0.550108,-0.757266,0.057295,0.4121729999999999,-0.54852
388,-0.338802,0.574669,-0.7449600000000001,-0.5318039999999999,0.97982,-0.680714
389,-0.337588,0.599025,-0.726086,0.044085,0.356679,-0.347294
390,-0.326981,0.636234,-0.698775,-0.01799,-0.508305,0.4333329999999999
391,-0.319584,0.678979,-0.660946,-0.152019,-0.420388,0.196194
392,-0.311689,0.7203579999999999,-0.619621,-0.149492,0.049692,0.236229
393,-0.310481,0.753625,-0.57935,-0.228444,0.424521,0.033863
394,-0.315317,0.777672,-0.543871,-0.167745,0.152992,0.066591
395,-0.321968,0.800128,-0.506089,0.036995,-0.1566799999999999,0.163499
396,-0.331413,0.8211149999999999,-0.464681,0.049721,-0.140314,0.146001
397,-0.342677,0.8403510000000001,-0.4199699999999999,0.02624,-0.0148199999999999,0.134295
398,-0.352334,0.8587809999999999,-0.371952,0.030236,-0.032762,0.0784639999999999
399,-0.361334,0.875552,-0.320683,0.0355889999999999,-0.106265,0.065923
400,-0.370063,0.8877079999999999,-0.273895,0.137275,-0.169218,0.014542
401,-0.378151,0.89641,-0.231173,0.193276,-0.173342,-0.006681
402,-0.3862489999999999,0.90217,-0.192071,0.1749609999999999,-0.1318599999999999,-0.07215
403,-0.393773,0.906438,-0.152653,0.060002,-0.143758,-0.142956
404,-0.401227,0.908791,-0.114473,0.024549,-0.116616,-0.16667
405,-0.408111,0.909541,-0.078548,0.07318,-0.086176,-0.111943
406,-0.41361,0.909238,-0.046921,0.07311,-0.0578429999999999,-0.192672
407,-0.4191979999999999,0.907672,-0.019808,0.086618,0.231809,-0.196562
408,-0.4259979999999999,0.904717,-0.000348,0.205584,0.395835,-0.211231
409,-0.431556,0.901953,0.015131,0.122886,0.342692,-0.20701
410,-0.434633,0.900121,0.029382,0.041811,0.140681,-0.293161
411,-0.436443,0.8987129999999999,0.042681,0.006847,0.216919,-0.32413
412,-0.439635,0.8967209999999999,0.050997,-0.1193859999999999,0.375892,-0.1773559999999999
413,-0.444793,0.8941620000000001,0.0511939999999999,-0.175797,0.416064,-0.128389
414,-0.4516949999999999,0.8911110000000001,0.043369,-0.230266,0.451327,-0.100941
415,-0.4586189999999999,0.888134,0.029559,-0.188964,0.3839909999999999,0.04501
416,-0.46315,0.886249,0.006504,-0.25209,0.274838,0.010143
417,-0.46913,0.882871,-0.021096,-0.272509,0.126696,-0.044395
418,-0.480675,0.874649,-0.062684,-0.227317,0.014649,-0.028045
419,-0.48883,0.863984,-0.120693,-0.189805,0.189147,0.076336
420,-0.491689,0.8493379999999999,-0.1919819999999999,-0.091288,0.2075159999999999,-0.060506
421,-0.490961,0.82968,-0.2656679999999999,-0.055151,0.271196,0.064237
422,-0.487055,0.8108,-0.324612,0.0217389999999999,0.322318,0.132657
423,-0.475892,0.79379,-0.378704,0.088547,0.3609489999999999,0.140163
424,-0.4585579999999999,0.774257,-0.43617,0.059708,0.106892,0.154554
425,-0.4457819999999999,0.7486550000000001,-0.490703,-0.0098,-0.1774109999999999,0.22169
426,-0.4377399999999999,0.717535,-0.541776,-0.029438,-0.363348,0.239362
427,-0.431519,0.682381,-0.590036,-0.012481,-0.381173,0.207819
428,-0.426159,0.645729,-0.633576,0.010479,-0.172706,0.209565
429,-0.422367,0.608314,-0.671979,0.028569,-0.064506,0.343396
430,-0.417026,0.568275,-0.70933,0.15015,-0.0283279999999999,0.40304
431,-0.413092,0.524652,-0.744374,0.152243,-0.115671,0.349217
432,-0.415181,0.480535,-0.772468,0.162328,-0.2748469999999999,0.333977
433,-0.419998,0.439887,-0.793787,0.152268,-0.2380429999999999,0.226023
434,-0.426592,0.405962,-0.808215,0.1060509999999999,-0.203905,0.163073
435,-0.431826,0.382776,-0.816704,0.049441,-0.256251,0.095147
436,-0.432897,0.374591,-0.819926,0.129415,-0.329822,0.087184
437,-0.431143,0.380504,-0.818126,0.1457119999999999,-0.287379,0.037013
438,-0.4288979999999999,0.396933,-0.811473,0.106663,-0.2938139999999999,-0.043538
439,-0.425979,0.421333,-0.800636,-0.002396,-0.277305,-0.08175
440,-0.422902,0.45203,-0.785379,0.0127,-0.071308,-0.342734
441,-0.42044,0.4854199999999999,-0.766548,0.099868,-0.0291209999999999,-0.388665
442,-0.408599,0.5276609999999999,-0.744726,-0.201234,0.605533,-0.287042
443,-0.395737,0.566875,-0.7225239999999999,-0.6832729999999999,1.064472,-0.6439010000000001
444,-0.392502,0.592175,-0.703752,-0.340988,0.8170810000000001,-0.407088
445,-0.381867,0.628958,-0.677189,0.1511539999999999,-0.656622,0.527134
446,-0.376612,0.667547,-0.642292,0.094355,-0.6103569999999999,0.30521
447,-0.373877,0.703238,-0.604705,-0.170496,0.080118,0.165343
448,-0.377799,0.73119,-0.567999,-0.2737969999999999,0.2631489999999999,0.041663
449,-0.384278,0.7502489999999999,-0.5380060000000001,-0.208877,0.132182,-0.015262
450,-0.3850969999999999,0.7716770000000001,-0.50617,0.191097,-0.170817,-0.008708
451,-0.382823,0.793863,-0.472463,0.210505,-0.064936,0.0424089999999999
452,-0.38137,0.8144680000000001,-0.437254,0.1709359999999999,-0.080551,0.037611
453,-0.384322,0.8324020000000001,-0.399244,0.145492,-0.0604899999999999,0.040419
454,-0.389552,0.8469450000000001,-0.361836,0.107051,0.05137,0.03896
455,-0.3947449999999999,0.8603569999999999,-0.322419,0.082565,0.003092,0.076905
456,-0.398454,0.870965,-0.28748,0.06212,-0.061028,0.042546
457,-0.405327,0.877743,-0.255476,-0.0388709999999999,-0.151134,-0.017351
458,-0.414184,0.8817299999999999,-0.225817,-0.097138,-0.121492,-0.097273
459,-0.421222,0.885337,-0.196824,-0.101422,-0.095969,-0.139678
460,-0.424641,0.889349,-0.169494,0.1280859999999999,0.148417,0.040389
461,-0.4254409999999999,0.8934559999999999,-0.14396,0.151836,0.041099,0.044274
462,-0.426427,0.896583,-0.11953,0.068761,-0.071006,-0.026619
463,-0.429176,0.897767,-0.099051,-0.03785,-0.144852,-0.1474089999999999
464,-0.434077,0.897435,-0.078586,0.004298,-0.0920909999999999,-0.164318
465,-0.438853,0.896711,-0.057485,0.090327,0.030398,-0.0754799999999999
466,-0.443039,0.8956719999999999,-0.038406,0.1065059999999999,0.251163,-0.078537
467,-0.447878,0.893893,-0.01863,0.02817,0.228315,-0.1233529999999999
468,-0.452742,0.8916299999999999,-0.0025859999999999,0.0126629999999999,0.08037,-0.2536239999999999
469,-0.456837,0.889483,0.01029,-0.004238,0.157239,-0.259954
470,-0.461534,0.886825,0.022653,0.046479,0.307923,-0.261423
471,-0.465132,0.884641,0.032378,0.050719,0.256213,-0.235305
472,-0.467797,0.8830809999999999,0.036318,-0.028587,0.2496699999999999,-0.185534
473,-0.471827,0.8810629999999999,0.033063,-0.1454369999999999,0.406123,-0.16673
474,-0.478285,0.8779819999999999,0.019382,-0.186296,0.525231,-0.081164
475,-0.483865,0.875107,-0.0069,-0.3832,0.526687,0.007511
476,-0.489608,0.871115,-0.0377959999999999,-0.362687,0.05961,-0.137726
477,-0.502605,0.8608979999999999,-0.078925,-0.237553,-0.137509,-0.082635
478,-0.51321,0.846982,-0.138652,-0.157795,0.240115,-0.114247
479,-0.517129,0.829967,-0.209096,-0.13227,0.323399,-0.1053569999999999
480,-0.520215,0.810851,-0.268117,-0.027469,0.350206,-0.001582
481,-0.5220100000000001,0.7932170000000001,-0.313532,0.073387,0.274761,0.167993
482,-0.5173989999999999,0.774977,-0.362904,0.0656009999999999,0.409456,0.103871
483,-0.506934,0.7536010000000001,-0.4184449999999999,0.021994,0.232911,0.018115
484,-0.496176,0.726171,-0.475897,-0.0546669999999999,-0.1130569999999999,0.063345
485,-0.4887689999999999,0.694387,-0.5281319999999999,-0.135956,-0.339956,0.182642
486,-0.4785439999999999,0.6621279999999999,-0.5766939999999999,-0.011126,-0.31116,0.247684
487,-0.467489,0.6279279999999999,-0.622217,0.087881,-0.223769,0.27569
488,-0.4575329999999999,0.592441,-0.663078,0.127973,-0.219928,0.3019179999999999
489,-0.448218,0.555723,-0.700191,0.2693239999999999,-0.22862,0.27264
490,-0.444471,0.5167470000000001,-0.73172,0.207548,-0.174141,0.370544
491,-0.44397,0.478746,-0.757422,0.190278,-0.1761339999999999,0.431006
492,-0.445009,0.4446569999999999,-0.777331,0.171541,-0.3035739999999999,0.340503
493,-0.451138,0.41734,-0.788859,0.103406,-0.244427,0.194956
494,-0.458712,0.400357,-0.793281,0.0619529999999999,-0.219692,0.1295089999999999
495,-0.460372,0.398736,-0.793135,0.0428,-0.281213,0.08113
496,-0.458293,0.4112939999999999,-0.78791,0.057872,-0.327554,-0.007318
497,-0.457043,0.431209,-0.777925,0.055859,-0.272609,-0.114607
498,-0.45753,0.456375,-0.763141,0.106121,-0.167831,-0.391369
499,-0.456492,0.4870739999999999,-0.7445609999999999,0.261728,-0.142668,-0.1711339999999999
500,-0.447242,0.5372279999999999,-0.7150920000000001,-0.294259,0.5231359999999999,-0.302028
501,-0.443134,0.574921,-0.687818,-0.92181,1.225327,-0.73128
502,-0.434741,0.607108,-0.665144,0.080676,0.159845,0.508009
503,-0.424425,0.647664,-0.632764,0.126192,-0.7048840000000001,0.307569
504,-0.4151729999999999,0.68438,-0.599374,0.026288,-0.5402,0.200906
505,-0.4178779999999999,0.719217,-0.555067,-0.212997,0.193716,0.079053
506,-0.4284449999999999,0.740496,-0.517778,-0.2197329999999999,0.1788,0.020051
507,-0.4387399999999999,0.7566689999999999,-0.484718,-0.027355,-0.0205699999999999,0.043937
508,-0.443227,0.775514,-0.449578,0.241383,-0.199708,0.028054
509,-0.446112,0.794326,-0.412338,0.2730619999999999,0.030458,0.050094
510,-0.451301,0.811828,-0.370477,0.238441,0.1148839999999999,0.008798
511,-0.455955,0.828729,-0.324506,0.1554029999999999,0.0851659999999999,0.040769
512,-0.455794,0.8443440000000001,-0.281646,0.152388,-0.108138,0.064269
513,-0.4539829999999999,0.857369,-0.242502,0.1744109999999999,-0.235848,0.018458
514,-0.457284,0.8653879999999999,-0.2049,0.098184,-0.2326369999999999,-0.027461
515,-0.4655109999999999,0.868353,-0.171031,-0.054524,-0.032217,-0.073735
516,-0.471077,0.870511,-0.142424,-0.02813,-0.0665559999999999,-0.098833
517,-0.472199,0.8735459999999999,-0.1180349999999999,0.10402,-0.092571,-0.056769
518,-0.472743,0.8760049999999999,-0.095478,0.098674,-0.085142,-0.09306
519,-0.473734,0.877618,-0.073149,0.146265,0.016212,-0.071169
520,-0.474897,0.878445,-0.0528649999999999,0.15225,0.085346,-0.018668
521,-0.477196,0.878092,-0.034991,0.088891,0.113577,-0.006848
522,-0.4792439999999999,0.8774649999999999,-0.019161,0.0266529999999999,-0.021218,-0.125416
523,-0.48113,0.8766209999999999,-0.005951,0.039373,0.067852,-0.2176969999999999
524,-0.482581,0.875828,0.005129,0.115317,0.233959,-0.189516
525,-0.483242,0.875345,0.0152639999999999,0.066967,0.149466,-0.140584
526,-0.484433,0.874458,0.025141,-0.0530879999999999,0.109047,-0.235178
527,-0.4871189999999999,0.872606,0.035474,-0.07413,0.21205,-0.391187
528,-0.490491,0.8702719999999999,0.045057,0.027554,0.35095,-0.232084
529,-0.496101,0.8668110000000001,0.050066,-0.032998,0.386301,-0.074678
530,-0.502891,0.862856,0.0506319999999999,-0.265572,0.485349,-0.058017
531,-0.5088520000000001,0.8596950000000001,0.044471,-0.301161,0.466537,0.001
532,-0.5109130000000001,0.859146,0.028645,-0.396131,0.235001,-0.0526779999999999
533,-0.516004,0.8565510000000001,0.00667,-0.336901,0.066728,-0.104067
534,-0.5274439999999999,0.849201,-0.025394,-0.0396339999999999,-0.0135389999999999,0.008564
535,-0.538949,0.839251,-0.07195,0.0259639999999999,0.199552,0.000875
536,-0.5471590000000001,0.825896,-0.136013,-0.011206,0.239884,-0.0448649999999999
537,-0.550924,0.80872,-0.206015,-0.103129,0.1978869999999999,-0.014886
538,-0.552421,0.7896380000000001,-0.267006,-0.030679,0.211339,0.0162889999999999
539,-0.553291,0.770985,-0.315342,0.0142289999999999,0.331935,0.100849
540,-0.548244,0.752588,-0.364734,0.076015,0.368582,0.1103089999999999
541,-0.5353680000000001,0.732444,-0.420593,0.0558139999999999,0.121193,0.162643
542,-0.5261399999999999,0.705763,-0.474414,-0.025008,-0.157347,0.232363
543,-0.5209590000000001,0.670874,-0.527753,-0.088676,-0.380209,0.224683
544,-0.514663,0.630286,-0.581253,-0.016862,-0.319129,0.18811
545,-0.5081,0.586932,-0.6303489999999999,0.153196,-0.237659,0.240502
546,-0.5018239999999999,0.544725,-0.671895,0.2667469999999999,-0.163896,0.269765
547,-0.4973649999999999,0.503574,-0.706425,0.230184,-0.1045109999999999,0.307255
548,-0.498981,0.460083,-0.7343970000000001,0.1676359999999999,-0.19046,0.321204
549,-0.504008,0.416009,-0.756907,0.090434,-0.220041,0.2973119999999999
550,-0.508433,0.376155,-0.774597,0.199961,-0.186641,0.226516
551,-0.514745,0.342267,-0.786058,0.17037,-0.181928,0.153383
552,-0.519597,0.316209,-0.793743,0.095296,-0.149659,0.148388
553,-0.522738,0.299137,-0.798285,0.1027859999999999,-0.165287,0.160879
554,-0.523756,0.29179,-0.800335,0.13159,-0.1966359999999999,0.125927
555,-0.5235850000000001,0.294138,-0.799586,0.1287029999999999,-0.198237,0.096232
556,-0.522046,0.306048,-0.796115,0.0724,-0.23038,0.0008119999999999
557,-0.519084,0.326171,-0.790039,0.06834,-0.22238,-0.090378
558,-0.5143409999999999,0.353095,-0.781521,0.032789,-0.2162239999999999,-0.135517
559,-0.509827,0.384389,-0.769622,-0.038803,-0.1771589999999999,-0.291733
560,-0.50643,0.412672,-0.757117,-0.157586,0.112551,-0.599648
561,-0.501145,0.4315239999999999,-0.750092,-0.701049,0.873057,-0.764374
562,-0.504293,0.448906,-0.737678,-0.035487,0.7085640000000001,-0.62568
563,-0.493097,0.481883,-0.724321,0.150293,-0.386378,0.543397
564,-0.488228,0.525147,-0.697029,-0.204536,-0.572205,0.132225
565,-0.477234,0.570802,-0.6681520000000001,0.005738,0.046538,0.229081
566,-0.466642,0.617677,-0.6330210000000001,-0.183245,0.429854,0.079401
567,-0.461517,0.651997,-0.601578,-0.245163,0.20811,0.056839
568,-0.4592279999999999,0.683924,-0.566879,-0.0364079999999999,-0.174967,0.084289
569,-0.458571,0.714281,-0.5286850000000001,0.082915,-0.278628,0.0797409999999999
570,-0.462171,0.741925,-0.485735,0.1309789999999999,-0.042706,0.0954
571,-0.467475,0.767389,-0.438831,0.056053,0.132864,0.063145
572,-0.469736,0.792034,-0.389898,-0.020681,-0.036907,0.028081
573,-0.4700189999999999,0.81499,-0.338916,0.012484,-0.081317,0.032412
574,-0.467499,0.834717,-0.291,0.125824,-0.121842,0.067368
575,-0.4657479999999999,0.8497959999999999,-0.246809,0.196094,-0.202854,0.021528
576,-0.46697,0.8607100000000001,-0.202744,0.169012,-0.247658,-0.026764
577,-0.472553,0.866964,-0.158288,-0.002651,-0.11382,-0.0532299999999999
578,-0.479415,0.8697290000000001,-0.1171349999999999,-0.020265,-0.1130299999999999,-0.097617
579,-0.482984,0.8718969999999999,-0.080676,0.035551,-0.080561,-0.038038
580,-0.482911,0.874274,-0.0492779999999999,0.141938,0.011621,-0.069497
581,-0.483327,0.8751760000000001,-0.021175,0.135183,0.044426,-0.061069
582,-0.486396,0.87372,0.00439,0.146476,0.084807,-0.0580399999999999
583,-0.489414,0.87169,0.024809,0.110768,0.209639,-0.136916
584,-0.49078,0.870367,0.039777,0.0487029999999999,0.176508,-0.15463
585,-0.491954,0.869122,0.050924,-0.011678,0.2056,-0.203954
586,-0.492968,0.867981,0.0598029999999999,-0.087797,0.283889,-0.295338
587,-0.493685,0.8670680000000001,0.066737,-0.066679,0.300062,-0.3184
588,-0.49756,0.864562,0.070362,-0.060637,0.351029,-0.216083
589,-0.5050899999999999,0.860197,0.070207,-0.208456,0.314485,-0.180344
590,-0.514338,0.855102,0.06513,-0.234319,0.2988139999999999,-0.1792349999999999
591,-0.522474,0.8511,0.0513309999999999,-0.233477,0.3199059999999999,-0.079179
592,-0.526684,0.849628,0.0268649999999999,-0.319233,0.151013,-0.064173
593,-0.531906,0.846786,-0.003768,-0.266113,-0.076813,-0.110597
594,-0.5431739999999999,0.838306,-0.046805,-0.235223,0.169079,-0.016229
595,-0.552214,0.826435,-0.1097799999999999,-0.145326,0.353451,-0.048774
596,-0.555429,0.810904,-0.184177,-0.024619,0.2763,-0.0552789999999999
597,-0.556078,0.792872,-0.24924,-0.005308,0.324713,0.064029
598,-0.5584979999999999,0.772173,-0.303017,-0.0566299999999999,0.4527569999999999,0.046807
599,-0.560133,0.747564,-0.3569179999999999,-0.172518,0.4945779999999999,0.016357
600,-0.552322,0.720109,-0.419971,-0.183259,0.134399,0.05019
601,-0.5414479999999999,0.6885789999999999,-0.482375,-0.110575,-0.227153,0.207992
602,-0.53274,0.650989,-0.5407350000000001,-0.029562,-0.342289,0.367548
603,-0.521365,0.607136,-0.599633,-0.021344,-0.298023,0.376274
604,-0.508559,0.5589189999999999,-0.65496,0.079772,-0.277089,0.370643
605,-0.499901,0.510576,-0.699576,0.388283,-0.1445789999999999,0.417472
606,-0.496972,0.45993,-0.735853,0.447106,-0.106155,0.470488
607,-0.503296,0.406172,-0.762702,0.4073179999999999,-0.162412,0.469001
608,-0.5142220000000001,0.356498,-0.780053,0.28238,-0.331992,0.376763
609,-0.523048,0.316344,-0.791419,0.238304,-0.319701,0.304282
610,-0.531086,0.2857699999999999,-0.797672,0.226307,-0.21857,0.284107
611,-0.538008,0.2657219999999999,-0.79996,0.235823,-0.159475,0.256519
612,-0.5422640000000001,0.257884,-0.799652,0.167157,-0.179866,0.217926
613,-0.545135,0.260875,-0.796724,0.133987,-0.25497,0.147218
614,-0.547403,0.272992,-0.791089,0.05694,-0.231,0.009351
615,-0.547495,0.293068,-0.783809,0.078821,-0.1305319999999999,-0.182972
616,-0.5452739999999999,0.315942,-0.776436,0.000688,-0.087884,-0.359581
617,-0.545327,0.33474,-0.768482,-0.115623,-0.0839159999999999,-0.507412
618,-0.545896,0.346881,-0.762671,-0.155627,-0.0665159999999999,-0.5199520000000001
619,-0.54406,0.356701,-0.759447,-0.931847,0.756687,-0.763471
620,-0.553335,0.3790199999999999,-0.7417279999999999,0.139944,0.313867,-0.219103
621,-0.545697,0.417343,-0.726661,0.187664,-0.510391,0.03736
622,-0.544886,0.459175,-0.701607,-0.078069,-0.092384,0.068642
623,-0.532582,0.5056689999999999,-0.678713,-0.120266,0.221,0.244875
624,-0.5205380000000001,0.5474220000000001,-0.655259,-0.192215,0.028033,0.127778
625,-0.511645,0.585855,-0.62848,-0.0797549999999999,-0.188852,0.090226
626,-0.507192,0.6240060000000001,-0.594446,0.025655,-0.053327,0.153223
627,-0.512249,0.6539229999999999,-0.556758,0.0003779999999999,-0.016548,0.141612
628,-0.524258,0.677117,-0.51639,-0.061832,0.061698,0.120806
629,-0.536025,0.698315,-0.474368,-0.069947,0.04401,0.006625
630,-0.545771,0.718097,-0.431813,-0.096731,0.042294,-0.013027
631,-0.551732,0.737979,-0.388548,-0.085994,-0.016925,-0.012987
632,-0.551412,0.76008,-0.343821,-0.067774,-0.044992,-0.012792
633,-0.544751,0.78257,-0.3013659999999999,0.1054799999999999,0.038613,0.08315
634,-0.5353979999999999,0.803236,-0.261057,0.1386079999999999,-0.037443,0.06486
635,-0.52532,0.8218270000000001,-0.220518,0.152593,-0.12418,0.035642
636,-0.51695,0.836358,-0.182359,0.12721,-0.2181489999999999,0.042116
637,-0.509296,0.847751,-0.148063,0.086628,-0.166278,0.016776
638,-0.504506,0.856766,-0.106826,-0.007884,-0.150864,0.06755
639,-0.502181,0.8621850000000001,-0.066612,-0.043229,-0.083895,0.044807
640,-0.500395,0.865082,-0.0349839999999999,-0.068147,-0.169754,-0.029942
641,-0.5005609999999999,0.8656290000000001,-0.010572,-0.033161,-0.183118,-0.0849019999999999
642,-0.5026430000000001,0.864368,0.014279,0.099628,-0.013675,-0.0258
643,-0.5042220000000001,0.862708,0.038469,0.198787,0.064065,-0.036119
644,-0.5044310000000001,0.8612209999999999,0.061919,0.183614,0.043366,-0.032836
645,-0.5051329999999999,0.858598,0.087378,0.144064,0.043669,-0.034506
646,-0.506587,0.854417,0.1154299999999999,-0.0383649999999999,-0.169588,-0.055447
647,-0.510017,0.848633,0.140317,-0.068642,-0.21283,-0.165814
648,-0.51522,0.8411719999999999,0.164198,-0.049599,-0.118226,-0.1695539999999999
649,-0.5226890000000001,0.8314290000000001,0.188431,-0.069032,0.094841,-0.228714
650,-0.528281,0.8231299999999999,0.208227,-0.005365,0.123388,-0.302374
651,-0.529159,0.819586,0.219667,0.2892139999999999,0.188685,-0.5245529999999999
652,-0.530754,0.818345,0.2204429999999999,0.152092,0.318786,-0.631301
653,-0.5316850000000001,0.818546,0.21743,-0.032036,0.182506,-0.407891
654,-0.532217,0.819857,0.2110949999999999,-0.181207,0.074003,-0.338399
655,-0.534356,0.821255,0.199967,-0.383979,0.00336,-0.312592
656,-0.537276,0.8251280000000001,0.17459,-0.162919,0.268225,-0.013198
657,-0.540756,0.831061,0.130017,-0.097443,0.42489,0.381839
658,-0.539057,0.839051,0.0734539999999999,-0.494695,0.063552,0.313921
659,-0.535316,0.844584,0.01008,-0.783608,-0.091959,0.139365
660,-0.529464,0.8460200000000001,-0.062496,-0.7412569999999999,0.105183,-0.02039
661,-0.520351,0.8432940000000001,-0.134454,-0.348668,0.432417,0.012811
662,-0.51342,0.8351040000000001,-0.197461,-0.158119,0.322443,0.141904
663,-0.508195,0.8255100000000001,-0.2454829999999999,-0.131774,0.355536,0.193863
664,-0.5084069999999999,0.81103,-0.289385,-0.328736,0.131963,0.711779
665,-0.503019,0.788405,-0.354093,-0.197863,-0.094862,0.394986
666,-0.498022,0.759088,-0.419228,-0.150294,-0.283807,0.2625969999999999
667,-0.496066,0.7273109999999999,-0.474268,-0.118085,-0.334047,0.258722
668,-0.498292,0.6958260000000001,-0.517228,0.023485,-0.238474,0.142502
669,-0.505654,0.666782,-0.547458,0.144692,-0.086185,0.279819
670,-0.514677,0.639624,-0.57095,0.176466,-0.024786,0.3306699999999999
671,-0.525359,0.616096,-0.5868720000000001,0.197219,-0.084281,0.298633
672,-0.5378430000000001,0.5994970000000001,-0.592724,0.240388,-0.192927,0.23071
673,-0.550538,0.591919,-0.588672,0.268556,-0.287155,0.160434
674,-0.56058,0.59548,-0.575455,0.210498,-0.302023,0.070267
675,-0.5679770000000001,0.6087100000000001,-0.553956,0.100509,-0.249213,-0.043517
676,-0.572263,0.6278229999999999,-0.527586,0.134763,-0.272187,-0.202105
677,-0.57382,0.650778,-0.497205,0.060728,-0.27503,-0.2090179999999999
678,-0.57224,0.674461,-0.4665149999999999,-0.176112,-0.31855,-0.236717
679,-0.576437,0.697094,-0.426347,-0.096063,0.197925,-0.347929
680,-0.5826140000000001,0.7179439999999999,-0.380932,0.022007,0.45001,-0.261905
681,-0.575779,0.734572,-0.358991,-0.036358,0.2561969999999999,-0.304079
682,-0.562134,0.74744,-0.35402,0.050018,-0.16962,-0.057448
683,-0.548446,0.76298,-0.3421389999999999,0.036331,-0.18516,-0.069329
684,-0.5356529999999999,0.784929,-0.311373,-0.191626,-0.120973,0.224184
685,-0.535224,0.802974,-0.262217,-0.915445,0.1523779999999999,0.3924809999999999
686,-0.535435,0.8039430000000001,-0.258797,-0.749767,-0.035266,0.271812
687,-0.531489,0.8016270000000001,-0.273685,-0.063085,-0.503608,-0.046551
688,-0.53703,0.810941,-0.232302,0.168148,0.300433,0.426897
689,-0.53383,0.822124,-0.197805,0.189577,0.6742600000000001,0.276785
690,-0.518709,0.836777,-0.175307,0.1549859999999999,0.515975,0.165801
691,-0.50283,0.852174,-0.14474,-0.181191,-0.2539679999999999,0.143291
692,-0.492354,0.8632850000000001,-0.110968,-0.169115,-0.306385,0.128623
693,-0.489718,0.8686889999999999,-0.074457,-0.187178,-0.3320369999999999,0.158457
694,-0.491148,0.8698670000000001,-0.045742,-0.192003,-0.030282,0.300777
695,-0.491429,0.8704770000000001,-0.027467,-0.094402,0.048713,0.221284
696,-0.489774,0.8717309999999999,-0.013894,0.243696,0.16785,0.091775
697,-0.487467,0.873131,-0.001875,0.281031,0.234458,0.0323769999999999
698,-0.486857,0.873402,0.0111349999999999,0.144145,0.1677809999999999,0.064946
699,-0.486591,0.8733219999999999,0.022896,0.066699,0.111374,0.025245
700,-0.486489,0.873124,0.031131,0.031915,0.051162,-0.038516
701,-0.486907,0.8725209999999999,0.040186,-0.007478,-0.019905,-0.048808
702,-0.488567,0.871233,0.047336,-0.00121,-0.043505,-0.036456
703,-0.492056,0.869085,0.050565,0.061362,-0.0133419999999999,-0.062039
704,-0.4958329999999999,0.8667020000000001,0.0544299999999999,0.129011,0.0313839999999999,-0.021334
705,-0.500052,0.8639540000000001,0.059292,0.129187,0.078474,-0.046657
706,-0.503344,0.861441,0.067446,0.1257049999999999,0.048593,-0.1552
707,-0.5051680000000001,0.859308,0.079873,0.137599,0.019629,-0.229973
708,-0.507491,0.856692,0.092283,0.065764,0.040128,-0.285535
709,-0.51049,0.8533639999999999,0.1056119999999999,-0.069008,0.067946,-0.325186
710,-0.51468,0.849302,0.117372,-0.169219,0.090411,-0.312044
711,-0.520458,0.844775,0.124349,-0.217686,0.2099889999999999,-0.278539
712,-0.5262939999999999,0.8408690000000001,0.126246,-0.233594,0.394467,-0.12527
713,-0.529813,0.839405,0.121169,-0.231326,0.449932,-0.001769
714,-0.531474,0.839559,0.112521,-0.307012,0.033076,-0.20006
715,-0.535095,0.839024,0.098472,-0.256089,0.1029009999999999,-0.016212
716,-0.540684,0.8378129999999999,0.0755919999999999,-0.234707,0.198686,0.135788
717,-0.547305,0.835974,0.039862,-0.197125,0.247873,0.194894
718,-0.553963,0.8324540000000001,-0.011472,-0.147957,0.2381489999999999,0.138395
719,-0.557104,0.827365,-0.071335,-0.100977,0.165189,0.182175
720,-0.556122,0.8202360000000001,-0.133901,-0.083008,0.100358,0.228338
721,-0.552532,0.809419,-0.19884,-0.254154,0.1323069999999999,0.119754
722,-0.549179,0.7945979999999999,-0.258855,-0.310241,0.1452369999999999,0.115453
723,-0.548485,0.777419,-0.307856,-0.211052,0.072725,0.182367
724,-0.545612,0.7561640000000001,-0.361269,0.0636019999999999,0.1350869999999999,0.28615
725,-0.5360699999999999,0.727615,-0.428015,0.070417,0.137985,0.22753
726,-0.525977,0.692311,-0.494011,-0.029947,-0.0421029999999999,0.183418
727,-0.519817,0.652591,-0.551279,-0.04433,-0.197436,0.28802
728,-0.514704,0.609054,-0.60343,-0.049444,-0.153899,0.34017
729,-0.511837,0.562493,-0.649323,-0.048237,0.058372,0.349976
730,-0.5042840000000001,0.51178,-0.695539,0.03172,0.0388639999999999,0.192777
731,-0.496196,0.4593569999999999,-0.736734,0.085689,0.021371,0.1927579999999999
732,-0.49326,0.406841,-0.768877,0.177449,-0.1024279999999999,0.23099
733,-0.4930529999999999,0.358451,-0.792722,0.104122,-0.1144329999999999,0.262083
734,-0.496485,0.317442,-0.807917,0.138971,-0.094801,0.270594
735,-0.500709,0.286561,-0.816805,0.096946,-0.177156,0.259157
736,-0.5054,0.263398,-0.8217,0.062971,-0.0974889999999999,0.209059
737,-0.510876,0.248526,-0.822945,0.0888019999999999,-0.122794,0.202965
738,-0.515649,0.243876,-0.821357,0.095621,-0.13029,0.180595
739,-0.5186390000000001,0.251308,-0.817225,0.0843889999999999,-0.130168,0.110224
740,-0.522683,0.265698,-0.8100649999999999,0.072457,-0.124966,0.0546929999999999
741,-0.52893,0.283429,-0.799937,0.075408,-0.1083339999999999,-0.029577
742,-0.535775,0.304181,-0.787665,0.042717,-0.052945,-0.142205
743,-0.5418390000000001,0.325494,-0.774894,0.000808,0.008582,-0.382531
744,-0.5444220000000001,0.337596,-0.767874,-0.1945609999999999,0.307668,-0.436655
745,-0.546756,0.3457409999999999,-0.762573,-0.513714,0.526238,-0.387604
746,-0.552984,0.361419,-0.750721,-0.128352,0.282776,-0.261135
747,-0.551769,0.391531,-0.7363770000000001,0.174984,-0.321981,0.443896
748,-0.551361,0.4331279999999999,-0.71302,-0.114365,-0.220664,0.169639
749,-0.5472060000000001,0.474987,-0.6891649999999999,-0.208806,0.248905,0.093736
750,-0.54542,0.5106470000000001,-0.664644,-0.168523,0.328205,0.073213
751,-0.544705,0.541194,-0.640625,-0.012241,0.007894,0.080475
752,-0.545538,0.57228,-0.612273,0.04772,-0.141738,0.091994
753,-0.548171,0.6016130000000001,-0.5810029999999999,0.029449,-0.072179,0.037973
754,-0.55102,0.630077,-0.54715,0.0347079999999999,-0.0037649999999999,0.0036009999999999
755,-0.5509109999999999,0.660271,-0.510424,0.055794,0.084648,0.028963
756,-0.548883,0.690379,-0.471271,0.078943,0.010808,0.041446
757,-0.547872,0.71836,-0.428704,0.130818,-0.054359,0.042504
758,-0.5475770000000001,0.743831,-0.383231,0.164215,-0.036586,0.0922
759,-0.547453,0.764099,-0.34123,0.182616,-0.142944,0.096921
760,-0.549345,0.780151,-0.2992889999999999,0.176191,-0.161316,0.101214
761,-0.55115,0.7938649999999999,-0.256905,0.067111,-0.151195,0.0378649999999999
762,-0.554088,0.80347,-0.217739,0.031368,-0.061252,0.01147
763,-0.555238,0.811322,-0.182907,0.009996,-0.069852,-0.007736
764,-0.5540510000000001,0.817868,-0.1552609999999999,0.08463,-0.121091,-0.033124
765,-0.553549,0.8227270000000001,-0.129191,0.115713,-0.015064,-0.1058559999999999
766,-0.553802,0.8266979999999999,-0.0992909999999999,0.083511,0.146904,-0.035307
767,-0.5539609999999999,0.829363,-0.072586,0.074316,0.218031,-0.052536
768,-0.5545899999999999,0.8304950000000001,-0.051882,0.032892,0.190409,-0.091291
769,-0.55407,0.8317379999999999,-0.034667,0.0132229999999999,0.0749539999999999,-0.158464
770,-0.552655,0.8332040000000001,-0.018077,0.015515,0.076525,-0.193669
771,-0.5533399999999999,0.832937,-0.003728,-0.008702,0.233576,-0.257167
772,-0.555054,0.8317690000000001,0.00767,-0.044113,0.305011,-0.171992
773,-0.558234,0.8295799999999999,0.012447,-0.1546259999999999,0.288203,-0.098064
774,-0.564248,0.825528,0.010556,-0.220496,0.3027829999999999,-0.063946
775,-0.571806,0.820369,0.003989,-0.366243,0.3935889999999999,0.046868
776,-0.5758479999999999,0.817488,-0.0098269999999999,-0.341709,0.42386,0.160157
777,-0.579153,0.814652,-0.030148,-0.316615,0.192428,0.052044
778,-0.588734,0.8057270000000001,-0.064669,-0.123699,-0.041017,-0.045805
779,-0.5974010000000001,0.7928149999999999,-0.1205869999999999,-0.162044,0.168443,-0.04816
780,-0.601338,0.776122,-0.189772,-0.213634,0.226517,0.003645
781,-0.601646,0.755893,-0.258138,-0.056649,0.266171,0.149526
782,-0.601329,0.733572,-0.316644,-0.008611,0.3191469999999999,0.176858
783,-0.5996739999999999,0.71038,-0.368431,0.005527,0.405724,0.177894
784,-0.5900270000000001,0.685836,-0.426013,-0.119995,0.3463449999999999,0.2105739999999999
785,-0.5766899999999999,0.6574810000000001,-0.484911,-0.178834,0.193593,0.215013
786,-0.570278,0.622316,-0.536188,-0.20554,-0.367479,0.3630469999999999
787,-0.563549,0.578821,-0.589382,-0.131931,-0.212763,0.30827
788,-0.552291,0.5302180000000001,-0.643302,-0.014878,-0.078954,0.209098
789,-0.543516,0.4823949999999999,-0.6869350000000001,0.13954,-0.048892,0.265182
790,-0.537208,0.432595,-0.724061,0.21479,-0.090463,0.378388
791,-0.534485,0.382846,-0.7534930000000001,0.2183679999999999,-0.103244,0.3388199999999999
792,-0.536404,0.334714,-0.774748,0.253857,-0.158108,0.342893
793,-0.540791,0.291162,-0.789155,0.222874,-0.116938,0.314515
794,-0.54696,0.2555719999999999,-0.797191,0.165185,-0.074023,0.278377
795,-0.552163,0.230405,-0.801265,0.132302,-0.148328,0.257442
796,-0.555289,0.2186449999999999,-0.8024,0.107871,-0.240526,0.202882
797,-0.557098,0.222417,-0.8001050000000001,0.144958,-0.2635389999999999,0.13087
798,-0.558372,0.238703,-0.794505,0.121345,-0.250346,-0.001287
799,-0.560092,0.264612,-0.785031,0.088398,-0.184015,-0.091587
800,-0.561253,0.295981,-0.772908,0.036458,-0.127478,-0.265987
801,-0.56383,0.324792,-0.759343,0.059115,-0.1073539999999999,-0.281398
802,-0.56298,0.370063,-0.738987,0.21508,-0.103447,0.323505
803,-0.554977,0.410313,-0.723629,-0.8601690000000001,0.94015,-0.69257
804,-0.551445,0.434092,-0.712368,-0.410943,0.787099,0.002849
805,-0.5425810000000001,0.472879,-0.6942520000000001,0.314965,-0.5024350000000001,0.458596
806,-0.5338470000000001,0.5140319999999999,-0.671397,0.128222,-0.337838,0.211146
807,-0.533623,0.554192,-0.638836,-0.141991,0.224723,0.160794
808,-0.540349,0.584685,-0.605111,-0.4533029999999999,0.509981,0.150796
809,-0.544449,0.611969,-0.5736399999999999,-0.285385,0.219834,0.167298
810,-0.5451020000000001,0.640979,-0.540371,-0.070697,0.014187,0.106915
811,-0.543829,0.671205,-0.5037119999999999,0.087255,0.064131,0.06226
812,-0.542143,0.701412,-0.462702,0.1285079999999999,0.027897,0.059748
813,-0.543223,0.7289479999999999,-0.416575,0.197001,-0.004109,0.089869
814,-0.5460229999999999,0.75322,-0.366752,0.144977,0.0160669999999999,0.116904
815,-0.546722,0.773497,-0.320603,0.1575,-0.0256029999999999,0.070877
816,-0.547502,0.788354,-0.280584,0.1771859999999999,-0.168069,0.014059
817,-0.550575,0.798076,-0.244805,0.039208,-0.169001,-0.052222
818,-0.554442,0.805703,-0.2083809999999999,0.025374,-0.103845,-0.038918
819,-0.5573560000000001,0.811932,-0.173511,0.0078099999999999,-0.055158,-0.0415
820,-0.558225,0.817055,-0.144191,0.1007059999999999,-0.124733,-0.0027199999999999
821,-0.55838,0.821478,-0.115628,0.189774,-0.091635,0.072659
822,-0.558755,0.8242290000000001,-0.091785,0.175348,0.005483,0.021655
823,-0.559107,0.8260629999999999,-0.07074,0.140528,0.190386,-0.00975
824,-0.559197,0.827405,-0.051792,0.103555,0.046069,-0.0037049999999999
825,-0.5583859999999999,0.828842,-0.034779,0.013815,-0.05513,-0.0636559999999999
826,-0.5578529999999999,0.829702,-0.019449,-3.9e-05,-0.08698,-0.1082819999999999
827,-0.557649,0.830039,-0.006754,0.088792,0.100351,-0.085439
828,-0.558897,0.8292209999999999,0.003045,0.067427,0.280261,-0.0612259999999999
829,-0.5619770000000001,0.827082,0.009959,-0.085011,0.257482,-0.094294
830,-0.566156,0.82416,0.0144319999999999,-0.249563,0.2535679999999999,-0.169035
831,-0.569149,0.8220540000000001,0.016655,-0.299625,0.293104,-0.157936
832,-0.569708,0.821751,0.011807,-0.308253,0.312236,0.218646
833,-0.570214,0.821484,-0.001149,-0.462608,0.20879,0.143224
834,-0.574806,0.8180609999999999,-0.0188449999999999,-0.382271,0.1007769999999999,0.153825
835,-0.583206,0.810634,-0.052209,-0.1381079999999999,0.099355,0.140984
836,-0.591023,0.799722,-0.105444,-0.05955,0.1842869999999999,0.045828
837,-0.595797,0.783521,-0.176363,-0.100553,0.1938349999999999,-0.008482
838,-0.596644,0.760469,-0.256297,-0.1062829999999999,0.18585,-0.025731
839,-0.599651,0.732521,-0.32221,-0.078175,0.343194,0.023397
840,-0.60318,0.705965,-0.371181,-0.037018,0.3790719999999999,0.109691
841,-0.595026,0.682213,-0.4248729999999999,0.078516,0.381401,0.1394119999999999
842,-0.583485,0.656706,-0.477779,0.074589,0.1020679999999999,0.1686359999999999
843,-0.575954,0.625869,-0.525886,-0.084065,-0.344359,0.2240059999999999
844,-0.571773,0.587878,-0.5722470000000001,-0.108403,-0.315005,0.230343
845,-0.567054,0.545292,-0.617332,-0.00779,-0.20525,0.184104
846,-0.559079,0.503408,-0.65879,0.198071,-0.068731,0.193305
847,-0.553491,0.462997,-0.692297,0.226053,-0.054183,0.290182
848,-0.5509390000000001,0.4194279999999999,-0.721486,0.1107529999999999,-0.103723,0.332615
849,-0.551878,0.372751,-0.745977,0.088774,-0.153146,0.214193
850,-0.553838,0.3279559999999999,-0.765313,0.1084339999999999,-0.178542,0.200631
851,-0.556124,0.287489,-0.7797890000000001,0.11484,-0.0583169999999999,0.2181739999999999
852,-0.559653,0.249908,-0.790146,0.052679,0.0019079999999999,0.223252
853,-0.561728,0.216414,-0.798512,-0.000939,-0.032607,0.200917
854,-0.562606,0.188865,-0.8048609999999999,0.0823049999999999,-0.077766,0.142218
855,-0.563875,0.167766,-0.808638,0.145601,-0.055614,0.141768
856,-0.564017,0.154439,-0.81119,0.17388,-0.067342,0.139041
857,-0.564732,0.14879,-0.8117489999999999,0.121403,-0.075029,0.099865
858,-0.5647310000000001,0.151792,-0.811193,0.098407,-0.118925,0.06928
859,-0.562654,0.16407,-0.810246,0.122346,-0.183296,0.0125469999999999
860,-0.559897,0.1832089999999999,-0.8080510000000001,0.115729,-0.2011079999999999,-0.0294579999999999
861,-0.558254,0.208706,-0.802988,0.0777549999999999,-0.157818,-0.077474
862,-0.5582050000000001,0.240135,-0.794191,-0.058601,-0.059761,-0.198561
863,-0.5579189999999999,0.270909,-0.7844300000000001,-0.177692,0.104091,-0.411676
864,-0.553349,0.2921539999999999,-0.78003,-0.805523,0.6310180000000001,-0.467819
865,-0.554566,0.3075989999999999,-0.7731979999999999,0.081727,0.277576,-0.373241
866,-0.555664,0.3312969999999999,-0.762545,0.198883,0.011385,0.134173
867,-0.551952,0.36918,-0.7476970000000001,-0.0457959999999999,-0.235086,0.1880349999999999
868,-0.545716,0.414494,-0.728274,-0.108474,0.215205,0.207659
869,-0.5383560000000001,0.462937,-0.704171,-0.239507,0.3996429999999999,0.140878
870,-0.534899,0.5029140000000001,-0.678936,-0.277128,0.355896,0.2088739999999999
871,-0.534925,0.536694,-0.65254,-0.030764,-0.0246699999999999,0.168271
872,-0.533798,0.5715600000000001,-0.6231949999999999,0.025452,-0.117718,0.130549
873,-0.535676,0.6065470000000001,-0.58749,-0.045012,0.070547,0.134838
874,-0.5377109999999999,0.640486,-0.5483020000000001,-0.044518,0.104249,0.121316
875,-0.537466,0.674284,-0.506422,-0.002451,0.059069,0.078641
876,-0.534763,0.706828,-0.463047,0.2234989999999999,-0.119701,0.084065
877,-0.532077,0.7358899999999999,-0.4187479999999999,0.299869,-0.139119,0.1044619999999999
878,-0.5337350000000001,0.759214,-0.3724389999999999,0.308027,-0.164289,0.096698
879,-0.535936,0.777339,-0.329401,0.222261,-0.126354,0.035105
880,-0.537193,0.7924979999999999,-0.288718,0.129066,-0.135592,0.017066
881,-0.539231,0.804936,-0.247579,0.072587,-0.119984,-0.04777
882,-0.5395810000000001,0.8154600000000001,-0.2094369999999999,0.097,-0.0590659999999999,0.019221
883,-0.538723,0.8234520000000001,-0.178016,0.099102,-0.081112,0.0136639999999999
884,-0.537587,0.829218,-0.152913,0.064564,-0.0661419999999999,-0.001719
885,-0.539871,0.8321120000000001,-0.126933,0.045822,0.028773,-0.019704
886,-0.540608,0.834794,-0.104146,0.173451,0.245437,-0.1096289999999999
887,-0.53879,0.838046,-0.085842,0.08362,0.282911,-0.092411
888,-0.534504,0.842081,-0.072029,0.031285,0.257132,-0.165138
889,-0.527958,0.8473149999999999,-0.0574559999999999,0.002751,0.165701,-0.187204
890,-0.5242,0.8505969999999999,-0.0410209999999999,-0.253312,0.116566,-0.137217
891,-0.52563,0.850131,-0.031204,-0.3562369999999999,0.0173159999999999,-0.1547089999999999
892,-0.531573,0.846614,-0.025649,-0.355726,0.096272,-0.092851
893,-0.541417,0.8403219999999999,-0.026654,-0.328319,0.245921,-0.0661799999999999
894,-0.5513859999999999,0.8334299999999999,-0.036757,-0.181738,0.458532,0.159484
895,-0.55735,0.8283530000000001,-0.0563549999999999,-0.173577,0.474488,0.264516
896,-0.563263,0.8223229999999999,-0.080649,-0.066513,0.016209,-0.048395
897,-0.575802,0.809754,-0.112847,-0.018375,0.093993,-0.127266
898,-0.5855899999999999,0.793673,-0.1647799999999999,0.016437,0.224622,-0.124923
899,-0.588683,0.7744840000000001,-0.231544,-0.053269,0.296683,-0.100716
900,-0.5874050000000001,0.752552,-0.297672,-0.154325,0.356304,0.048741
901,-0.58941,0.729669,-0.346652,-0.227179,0.4048219999999999,0.174395
902,-0.590208,0.704105,-0.394817,-0.418993,0.522137,0.14526
903,-0.580056,0.677687,-0.4519579999999999,-0.333228,0.304689,0.109093
904,-0.563876,0.651289,-0.507797,-0.093762,-0.058912,0.14653
905,-0.551182,0.617166,-0.561513,0.0244479999999999,-0.172449,0.187093
906,-0.540378,0.5749569999999999,-0.614337,0.017596,-0.106253,0.198001
907,-0.530412,0.529065,-0.66238,0.02205,-0.111265,0.295757
908,-0.52115,0.484264,-0.702771,0.2456829999999999,-0.137401,0.465207
909,-0.516885,0.437925,-0.735559,0.277597,-0.245053,0.426721
910,-0.518188,0.389104,-0.761626,0.2155909999999999,-0.2711989999999999,0.438918
911,-0.523177,0.345775,-0.778924,0.2160929999999999,-0.267055,0.455819
912,-0.5267270000000001,0.310142,-0.7914329999999999,0.198801,-0.280204,0.4266109999999999
913,-0.530184,0.282624,-0.7993899999999999,0.210817,-0.189958,0.283887
914,-0.532049,0.268198,-0.803113,0.237005,-0.2114349999999999,0.211423
915,-0.5331319999999999,0.269846,-0.801841,0.13854,-0.212335,0.0578529999999999
916,-0.535326,0.283781,-0.7955439999999999,-0.0600559999999999,-0.183852,0.040524
917,-0.538572,0.30615,-0.78499,-0.044329,-0.119443,-0.114669
918,-0.542396,0.331278,-0.772047,0.16085,0.064016,-0.350572
919,-0.544614,0.358687,-0.758113,0.375577,-0.12422,0.412547
920,-0.542764,0.416153,-0.729534,-0.167944,0.34433,-0.187123
921,-0.538277,0.455451,-0.709096,-0.756127,1.136102,0.005529
922,-0.53468,0.4895319999999999,-0.688818,0.096036,-0.3920889999999999,0.460317
923,-0.528018,0.536057,-0.65866,0.089374,-0.438614,0.43016
924,-0.522734,0.57848,-0.626181,-0.167666,-0.224538,0.2866579999999999
925,-0.527856,0.617229,-0.583429,-0.459571,0.429051,0.1036619999999999
926,-0.53305,0.646718,-0.545532,-0.33664,0.42837,0.10939
927,-0.535467,0.674715,-0.507961,0.084646,-0.115771,0.04649
928,-0.5329050000000001,0.7019569999999999,-0.472502,0.225548,-0.287284,0.003431
929,-0.5307189999999999,0.727353,-0.4350699999999999,0.265948,-0.25021,0.0080069999999999
930,-0.531433,0.750337,-0.393144,0.311646,0.036391,0.055986
931,-0.5316569999999999,0.771463,-0.349534,0.2998909999999999,0.038932,0.060029
932,-0.528993,0.792647,-0.303091,0.3192,-0.063048,0.141318
933,-0.5273399999999999,0.8091649999999999,-0.259136,0.148067,-0.210334,0.123119
934,-0.5302020000000001,0.8180689999999999,-0.22279,-0.030757,-0.248031,0.0685549999999999
935,-0.533015,0.823923,-0.192438,-0.035574,-0.165536,0.004511
936,-0.534996,0.8285110000000001,-0.165328,-0.023216,-0.122029,-0.05388
937,-0.5356920000000001,0.8327180000000001,-0.139996,0.002275,-0.039185,-0.06554
938,-0.5370090000000001,0.8352709999999999,-0.118013,0.073462,0.158198,0.090212
939,-0.538325,0.836915,-0.098802,0.0825149999999999,0.199538,0.125307
940,-0.539285,0.838016,-0.08297,-0.011634,0.18536,-0.034737
941,-0.5393359999999999,0.8393700000000001,-0.067519,0.0143419999999999,0.101106,-0.16971
942,-0.538138,0.841181,-0.05296,0.037696,0.105245,-0.187824
943,-0.537044,0.842664,-0.038526,-0.0349019999999999,0.239718,-0.105029
944,-0.5359659999999999,0.843866,-0.024769,0.006028,0.316657,-0.138683
945,-0.5353760000000001,0.8444959999999999,-0.0134759999999999,-0.038217,0.198839,-0.2222719999999999
946,-0.537485,0.8432559999999999,-0.003432,-0.207053,0.181646,-0.297074
947,-0.541719,0.8405360000000001,0.004815,-0.140563,0.226863,-0.299218
948,-0.548241,0.8362629999999999,0.0088659999999999,-0.131416,0.245357,-0.2329409999999999
949,-0.556037,0.8311360000000001,0.004075,-0.2463769999999999,0.39564,0.036605
950,-0.5616909999999999,0.8272430000000001,-0.0124319999999999,-0.412705,0.291684,0.189175
951,-0.564972,0.82419,-0.038708,-0.40126,-0.082384,0.0581169999999999
952,-0.571224,0.8170189999999999,-0.078524,-0.358632,-0.004992,0.03705
953,-0.5768449999999999,0.804726,-0.140175,-0.259168,0.180595,0.050957
954,-0.577422,0.785373,-0.223067,-0.224122,0.243802,-0.0397649999999999
955,-0.574741,0.760467,-0.302241,-0.24194,0.365037,0.14294
956,-0.5782689999999999,0.733974,-0.356195,-0.272684,0.377262,0.2939239999999999
957,-0.57558,0.706704,-0.411419,-0.160931,0.186317,0.188656
958,-0.563149,0.673784,-0.478402,-0.029274,-0.184847,0.085686
959,-0.55115,0.631317,-0.545586,0.0141319999999999,-0.309112,0.206505
960,-0.5459149999999999,0.580113,-0.6045149999999999,0.110581,-0.378285,0.299278
961,-0.537026,0.5250279999999999,-0.660259,0.119989,-0.187335,0.262188
962,-0.530047,0.4712449999999999,-0.704963,0.157976,-0.020836,0.364998
963,-0.531866,0.41562,-0.7378170000000001,0.296026,0.003829,0.4448939999999999
964,-0.536103,0.356009,-0.765406,0.296677,-0.188071,0.475581
965,-0.538597,0.299955,-0.787361,0.25872,-0.1754119999999999,0.393852
966,-0.546341,0.246519,-0.8004600000000001,0.239944,-0.243162,0.233428
967,-0.553904,0.20278,-0.807507,0.208811,-0.186941,0.221417
968,-0.560136,0.171312,-0.810491,0.159349,-0.155778,0.217657
969,-0.564237,0.154372,-0.81105,0.024732,-0.190719,0.158676
970,-0.565645,0.153503,-0.810234,0.109133,-0.2686,0.086738
971,-0.565924,0.167784,-0.8072020000000001,0.17565,-0.294555,-0.003925
972,-0.568978,0.192238,-0.799566,0.06649,-0.189019,-0.264735
973,-0.573822,0.219619,-0.788982,-0.079407,-0.137497,-0.485112
974,-0.584023,0.2421869999999999,-0.774763,0.046822,-0.091843,-0.106829
975,-0.581633,0.272485,-0.766454,-0.455446,0.32215,-0.657634
976,-0.590122,0.283886,-0.7557510000000001,0.1854589999999999,0.050266,0.396376
977,-0.58515,0.325623,-0.742674,0.239523,-0.904618,0.324491
978,-0.575713,0.376763,-0.725672,-0.162965,0.269339,0.149073
979,-0.559663,0.425221,-0.7113079999999999,-0.614897,0.423091,0.019261
980,-0.551296,0.473545,-0.686893,-0.231068,-0.059528,0.191822
981,-0.542039,0.5244810000000001,-0.6565880000000001,0.002809,-0.062307,0.215471
982,-0.537211,0.576184,-0.615962,-0.0527549999999999,-0.01225,0.19041
983,-0.533231,0.62303,-0.572268,-0.1358359999999999,0.131548,0.145815
984,-0.5276489999999999,0.670129,-0.5220199999999999,-0.097534,0.061682,0.082185
985,-0.515687,0.716722,-0.469433,-0.076949,0.019728,0.041058
986,-0.500811,0.759555,-0.4150359999999999,0.071551,-0.108081,0.0978059999999999
987,-0.486289,0.796615,-0.359048,0.06562,-0.169464,0.102212
988,-0.475679,0.8276020000000001,-0.297982,0.051729,-0.3192239999999999,0.144692
989,-0.470102,0.85046,-0.236026,0.0935309999999999,-0.347271,0.185794
990,-0.467731,0.8650200000000001,-0.181532,0.066913,-0.323318,0.178022
991,-0.4674149999999999,0.8741690000000001,-0.131669,-3.8e-05,-0.339165,0.138078
992,-0.4648569999999999,0.8812840000000001,-0.085026,-0.115389,-0.375715,0.032093
993,-0.459943,0.886958,-0.041735,-0.036791,-0.234828,-0.021467
994,-0.456326,0.8898,-0.002302,0.08154,-0.018355,0.016035
995,-0.452717,0.890999,0.033908,0.127309,0.023369,0.062482
996,-0.450112,0.8907139999999999,0.063326,0.057121,-0.032895,-0.060427
997,-0.44885,0.8895649999999999,0.0847909999999999,0.043104,0.002784,-0.204221
998,-0.44795,0.8881370000000001,0.102638,0.078947,0.009049,-0.180809
999,-0.44775,0.885437,0.124508,0.070903,-0.036331,-0.0211449999999999
1000,-0.447763,0.8814799999999999,0.1499349999999999,0.031885,-0.067362,0.00517
1001,-0.448536,0.8773129999999999,0.170639,-0.115337,0.00344,-0.1155549999999999
1002,-0.450679,0.8728090000000001,0.187273,-0.217183,0.000741,-0.250353
1003,-0.452804,0.868034,0.20363,-0.042268,-0.13079,-0.277498
1004,-0.4553,0.8640129999999999,0.214855,0.117638,0.07599,-0.158183
1005,-0.456963,0.861347,0.221911,0.168923,0.181881,-0.136614
1006,-0.456599,0.860489,0.225953,-0.0972799999999999,0.2092889999999999,-0.147309
1007,-0.453974,0.862483,0.223628,-0.289327,0.0486959999999999,-0.358332
1008,-0.452771,0.864876,0.216716,-0.352679,-0.144127,-0.416973
1009,-0.455571,0.866084,0.2057469999999999,-0.136516,0.3402449999999999,0.085238
1010,-0.4620579999999999,0.8684950000000001,0.17944,-0.113061,0.48586,0.289569
1011,-0.467782,0.8732479999999999,0.136378,-0.601981,0.208753,0.25826
1012,-0.468621,0.879343,0.084453,-0.8865430000000001,-0.258157,0.285359
1013,-0.4676869999999999,0.8835219999999999,0.025296,-0.8897809999999999,-0.333427,0.241382
1014,-0.469468,0.881827,-0.044316,-0.722808,-0.048941,0.141866
1015,-0.4727699999999999,0.873331,-0.117329,-0.322671,0.2180079999999999,0.137471
1016,-0.4749319999999999,0.8601030000000001,-0.18614,-0.330137,0.301991,0.391752
1017,-0.479275,0.842793,-0.244914,-0.39342,0.134639,0.6311439999999999
1018,-0.483176,0.821649,-0.302361,-0.18252,0.054373,0.514108
1019,-0.483493,0.793921,-0.368665,-0.104489,0.019312,0.496976
1020,-0.482267,0.762005,-0.432154,-0.006517,-0.084072,0.290781
1021,-0.482385,0.730186,-0.483864,0.169229,-0.24369,0.109718
1022,-0.485241,0.700955,-0.5226810000000001,0.247921,-0.196041,0.162269
1023,-0.4943109999999999,0.676483,-0.545912,0.257693,-0.168198,0.24719
1024,-0.506448,0.657736,-0.5575720000000001,0.219659,-0.2220059999999999,0.316086
1025,-0.516245,0.647061,-0.561067,0.128824,-0.3729369999999999,0.2064369999999999
1026,-0.52317,0.647925,-0.553605,0.201927,-0.492239,0.114915
1027,-0.5281100000000001,0.659292,-0.535188,0.279559,-0.381384,0.104708
1028,-0.531446,0.676519,-0.509784,0.275632,-0.32755,0.07822
1029,-0.531361,0.697338,-0.481006,0.272434,-0.394771,0.02045
1030,-0.527794,0.721545,-0.448104,0.204399,-0.4188409999999999,-0.083574
1031,-0.5242680000000001,0.74871,-0.405668,-0.019556,-0.315666,-0.298861
1032,-0.523292,0.775465,-0.353282,-0.290352,0.194826,-0.629155
1033,-0.526701,0.7929609999999999,-0.306246,-0.5622119999999999,1.197578,-0.783644
1034,-0.526622,0.791617,-0.309837,-0.733769,0.711785,-0.387291
1035,-0.510203,0.776803,-0.369132,-0.152547,-0.722711,-0.6909109999999999
1036,-0.497868,0.761914,-0.414251,0.322087,-0.7435430000000001,-0.431437
1037,-0.501162,0.758249,-0.416996,-0.410459,0.308218,0.060138
1038,-0.513898,0.76808,-0.382035,-1.0367309999999998,0.788362,0.883409
1039,-0.510281,0.772755,-0.377427,-0.257251,-0.261219,0.915452
1040,-0.4878659999999999,0.765466,-0.41957,0.0316279999999999,-1.184808,0.0307449999999999
1041,-0.486551,0.779954,-0.39361,-0.175513,-0.4862229999999999,0.2074219999999999
1042,-0.4959399999999999,0.809174,-0.3150699999999999,-0.149522,1.038604,0.325476
1043,-0.479411,0.8293870000000001,-0.286829,0.039271,0.900746,0.328135
1044,-0.45485,0.852993,-0.255934,-0.048934,-0.082393,0.4438
1045,-0.428982,0.8773489999999999,-0.2149889999999999,-0.451435,-0.62239,-0.017921
1046,-0.410778,0.896508,-0.165895,-0.171116,-0.289391,-0.201186
1047,-0.398202,0.910993,-0.107291,-0.145698,-0.016416,0.172308
1048,-0.390401,0.919411,-0.047477,-0.356578,-0.09742,0.41471
1049,-0.384984,0.922909,0.002932,-0.2329659999999999,0.013981,0.4682439999999999
1050,-0.378425,0.925045,0.032682,0.079307,0.178028,0.300372
1051,-0.371927,0.926807,0.051784,0.172373,0.232754,0.252445
1052,-0.367752,0.92752,0.066683,0.009186,0.092698,0.222196
1053,-0.363602,0.928265,0.078097,-0.017868,0.026706,0.110548
1054,-0.360955,0.928894,0.082756,0.017846,0.1136619999999999,-0.033882
1055,-0.360333,0.929232,0.081676,0.10957,0.05319,-0.082774
1056,-0.362352,0.929194,0.072671,0.130281,-0.016978,-0.1191339999999999
1057,-0.365616,0.929327,0.051561,0.287751,-0.18183,-0.341478
1058,-0.367076,0.929891,0.023261,0.347392,-0.242498,-0.357917
1059,-0.369004,0.929406,-0.004965,0.385605,-0.3083579999999999,-0.290445
1060,-0.37338,0.92705,-0.033916,0.201688,-0.473772,-0.288579
1061,-0.382526,0.921448,-0.0677649999999999,0.115649,-0.485489,-0.295669
1062,-0.393207,0.915691,-0.082962,0.1664,-0.23933,-0.145019
1063,-0.400006,0.91357,-0.073271,0.4202689999999999,0.285969,-0.11049
1064,-0.405398,0.912499,-0.054607,0.251375,0.268516,-0.322941
1065,-0.413252,0.91024,-0.02588,-0.1468829999999999,0.28318,-0.3493489999999999
1066,-0.428092,0.903708,0.005612,-0.4212729999999999,0.344186,-0.355176
1067,-0.447704,0.893252,0.040557,-0.401661,0.354642,-0.3901199999999999
1068,-0.463193,0.882598,0.080342,-0.095981,0.8420719999999999,-0.407048
1069,-0.474013,0.8725569999999999,0.118055,-0.248094,0.329805,-0.501997
1070,-0.486129,0.8605520000000001,0.152017,-0.285935,0.117658,-0.374216
1071,-0.502903,0.8455440000000001,0.17923,-0.194469,0.163977,0.123764
1072,-0.523946,0.8296030000000001,0.192927,-0.2785289999999999,0.220019,0.0107319999999999
1073,-0.539141,0.818504,0.19839,0.0521419999999999,-0.103065,-0.386165
1074,-0.552603,0.809716,0.197411,0.063239,0.298988,-0.106026
1075,-0.56598,0.803276,0.185461,-0.055923,0.355202,0.2434329999999999
1076,-0.5735979999999999,0.801984,0.166697,-0.2305699999999999,0.148349,0.2216699999999999
1077,-0.577916,0.8047810000000001,0.1353599999999999,-0.244029,0.056914,0.15123
1078,-0.579814,0.80928,0.09415,-0.2661949999999999,-0.009475,0.091778
1079,-0.580144,0.813438,0.041652,-0.353572,0.0705799999999999,0.054844
1080,-0.578803,0.815091,-0.024454,-0.360681,0.052402,0.008829
1081,-0.574747,0.812164,-0.1002049999999999,-0.212271,0.122116,-0.0113829999999999
1082,-0.568016,0.804199,-0.174954,0.024727,0.145707,0.012097
1083,-0.559825,0.7918069999999999,-0.244182,0.1310069999999999,0.252046,0.108272
1084,-0.549153,0.774161,-0.314792,0.05454,0.134729,0.079776
1085,-0.53541,0.7491329999999999,-0.390033,-0.061438,-0.312899,0.115253
1086,-0.522971,0.714346,-0.464976,-0.070642,-0.320028,0.189738
1087,-0.512223,0.6709609999999999,-0.536125,-0.081511,-0.21686,0.239876
1088,-0.501147,0.622568,-0.6010439999999999,0.07178,-0.038935,0.345642
1089,-0.493345,0.565858,-0.660613,0.120389,0.014327,0.248779
1090,-0.486468,0.5045229999999999,-0.713303,0.200991,0.024408,0.166077
1091,-0.486378,0.442406,-0.7534649999999999,0.148304,-0.343453,0.2377639999999999
1092,-0.485017,0.386997,-0.784211,0.116029,-0.296482,0.2353829999999999
1093,-0.4874,0.343596,-0.802733,0.107044,-0.241942,0.2630139999999999
1094,-0.4911109999999999,0.311877,-0.813351,0.010841,-0.192599,0.311931
1095,-0.495056,0.293625,-0.8177409999999999,0.121108,-0.28804,0.313591
1096,-0.4984439999999999,0.29023,-0.8168949999999999,0.152222,-0.375481,0.17067
1097,-0.503274,0.300861,-0.810059,0.1308369999999999,-0.2858,0.068787
1098,-0.513084,0.321947,-0.79567,0.165702,-0.099535,-0.105316
1099,-0.525098,0.350511,-0.775506,0.087888,-0.036973,-0.261374
1100,-0.536122,0.378411,-0.7545689999999999,0.116078,0.011406,-0.320108
1101,-0.5411699999999999,0.411579,-0.7333029999999999,0.002764,-0.01807,0.2170369999999999
1102,-0.532697,0.454267,-0.714052,-1.849535,1.239077,-1.333037
1103,-0.542834,0.456823,-0.7047260000000001,-0.8530399999999999,0.8963409999999999,-0.39763
1104,-0.545533,0.481197,-0.686176,0.714966,-0.716488,0.7581359999999999
1105,-0.540223,0.5272220000000001,-0.655888,-0.055175,0.1096029999999999,0.1418039999999999
1106,-0.533475,0.563801,-0.6304960000000001,-0.751635,0.6663319999999999,0.196963
1107,-0.535787,0.59345,-0.600618,-0.8247629999999999,0.405619,0.059587
1108,-0.534938,0.620482,-0.573442,0.043468,-0.151091,0.132997
1109,-0.533795,0.651886,-0.538609,0.002484,-0.064422,0.171315
1110,-0.5343979999999999,0.681289,-0.500254,-0.010188,0.026749,0.131052
1111,-0.535385,0.707769,-0.4608859999999999,-0.0044259999999999,0.030375,0.098536
1112,-0.532982,0.733737,-0.421367,0.031029,0.0307899999999999,0.032833
1113,-0.5286649999999999,0.759128,-0.379771,0.095132,0.0600399999999999,0.078898
1114,-0.5236430000000001,0.782886,-0.335968,0.147895,-0.072056,0.176498
1115,-0.517378,0.80315,-0.295392,0.150892,-0.137104,0.1118599999999999
1116,-0.512454,0.820101,-0.254578,0.112659,-0.232928,0.0806429999999999
1117,-0.5135270000000001,0.8312959999999999,-0.212653,0.025917,-0.130582,0.0705929999999999
1118,-0.515403,0.8388760000000001,-0.175019,0.010642,-0.128747,-0.0068049999999999
1119,-0.516733,0.8440340000000001,-0.143448,0.021143,-0.055459,-0.04689
1120,-0.516598,0.848563,-0.1142359999999999,0.004452,-0.002662,-0.040808
1121,-0.515814,0.8520620000000001,-0.088928,0.022009,-0.019893,-0.003692
1122,-0.5155430000000001,0.854086,-0.0688049999999999,-0.004889,-0.022803,-0.01312
1123,-0.5162770000000001,0.8548120000000001,-0.0523059999999999,-0.025471,-0.082549,-0.100678
1124,-0.517335,0.8550969999999999,-0.033985,0.03058,0.042074,-0.039181
1125,-0.51904,0.8546040000000001,-0.015228,0.027768,0.123088,-0.0140069999999999
1126,-0.522212,0.8528040000000001,0.00069,0.015605,0.225321,-0.022022
1127,-0.52561,0.85057,0.015655,0.054999,0.0936289999999999,-0.101104
1128,-0.527127,0.849242,0.030086,0.0566529999999999,0.05771,-0.152309
1129,-0.528101,0.8480129999999999,0.0443029999999999,0.050623,0.049982,-0.1986609999999999
1130,-0.5291600000000001,0.8463799999999999,0.0600789999999999,0.041581,0.088938,-0.12711
1131,-0.532092,0.843551,0.072644,-0.021024,0.073853,-0.122739
1132,-0.537597,0.8392139999999999,0.081774,-0.058824,0.054936,-0.145068
1133,-0.544125,0.8343520000000001,0.088099,-0.1207309999999999,0.2469469999999999,-0.133052
1134,-0.549429,0.830435,0.0921039999999999,-0.184199,0.398814,0.0072459999999999
1135,-0.552469,0.828644,0.090021,-0.241065,0.357452,0.022971
1136,-0.554554,0.8278620000000001,0.08421,-0.311108,0.157703,-0.142438
1137,-0.559873,0.8251870000000001,0.0747299999999999,-0.152087,0.152092,-0.089104
1138,-0.5676829999999999,0.821484,0.053635,-0.072423,0.198184,-0.039841
1139,-0.575907,0.8172659999999999,0.019618,-0.0736899999999999,0.230082,-0.07487
1140,-0.5834590000000001,0.811766,-0.024277,-0.166007,0.197252,-0.141952
1141,-0.5898260000000001,0.803913,-0.076211,-0.13727,0.143124,-0.147421
1142,-0.5928140000000001,0.793689,-0.136421,0.00799,0.120511,-0.1090319999999999
1143,-0.591125,0.781612,-0.199092,0.018416,0.204198,-0.003148
1144,-0.5895859999999999,0.766803,-0.253741,-0.0348949999999999,0.25874,0.1267569999999999
1145,-0.5855739999999999,0.75147,-0.3039409999999999,-0.0907559999999999,0.283549,0.160387
1146,-0.575345,0.734014,-0.360815,-0.138842,0.074763,0.167181
1147,-0.56606,0.709146,-0.420327,-0.026592,-0.395365,0.1233609999999999
1148,-0.561742,0.676056,-0.476847,-1e-05,-0.3240969999999999,0.163492
1149,-0.558312,0.638825,-0.529321,0.0673909999999999,-0.164353,0.166711
1150,-0.55298,0.600601,-0.5774779999999999,0.018984,0.014938,0.083109
1151,-0.549595,0.561519,-0.618574,0.046543,0.01389,0.144239
1152,-0.544141,0.520961,-0.6576489999999999,0.104505,-0.017833,0.170573
1153,-0.5381520000000001,0.47822,-0.69404,0.1053819999999999,-0.156809,0.215646
1154,-0.5340689999999999,0.434426,-0.7252850000000001,0.088238,-0.125253,0.274967
1155,-0.5345880000000001,0.3889579999999999,-0.7502810000000001,0.0797539999999999,-0.106044,0.247061
1156,-0.537508,0.3443969999999999,-0.769721,0.111009,-0.130042,0.133842
1157,-0.540166,0.304645,-0.784479,0.167592,-0.162173,0.151194
1158,-0.5423100000000001,0.2736139999999999,-0.794374,0.1667,-0.1766599999999999,0.1632559999999999
1159,-0.545283,0.250873,-0.799828,0.173732,-0.247608,0.141808
1160,-0.548092,0.237116,-0.8021020000000001,0.193828,-0.244364,0.121697
1161,-0.55051,0.231719,-0.8020229999999999,0.240817,-0.221297,0.127386
1162,-0.552844,0.233123,-0.8000079999999999,0.166736,-0.234343,0.104253
1163,-0.555445,0.241905,-0.795587,0.1121009999999999,-0.2304,-0.003638
1164,-0.558949,0.257833,-0.788095,0.1593369999999999,-0.173574,-0.126929
1165,-0.563932,0.278334,-0.7775,0.1854839999999999,-0.137205,-0.384121
1166,-0.571131,0.29895,-0.764482,-0.025702,-0.170319,-0.3261699999999999
1167,-0.580799,0.3132769999999999,-0.7513489999999999,-0.180829,-0.1277,-0.175287
1168,-0.582908,0.3284019999999999,-0.743213,-0.946053,0.7735569999999999,-0.816358
1169,-0.594634,0.338481,-0.72927,-0.006409,0.5645180000000001,-0.175897
1170,-0.5913579999999999,0.3668869999999999,-0.7181109999999999,0.251712,-0.0538679999999999,0.3789389999999999
1171,-0.590919,0.4063739999999999,-0.6968989999999999,-0.205117,-0.19797,0.026794
1172,-0.5858979999999999,0.450134,-0.673866,-0.173471,0.541687,0.131523
1173,-0.5787979999999999,0.495266,-0.64784,-0.227919,0.420933,0.129942
1174,-0.574754,0.5318579999999999,-0.6219140000000001,-0.24977,0.2312179999999999,0.11552
1175,-0.571497,0.564554,-0.595534,0.067545,-0.254648,0.0316759999999999
1176,-0.5687439999999999,0.598193,-0.5645220000000001,0.094028,-0.188357,-0.013618
1177,-0.566995,0.631426,-0.528967,0.087076,-0.068011,-0.022272
1178,-0.5661930000000001,0.662745,-0.490084,0.029374,0.219717,0.088031
1179,-0.563149,0.69318,-0.449835,0.051537,0.083812,0.049704
1180,-0.5574939999999999,0.7218600000000001,-0.4100069999999999,0.063856,-0.043943,0.008777
1181,-0.5507989999999999,0.748046,-0.370179,0.121341,-0.1905359999999999,-0.009551
1182,-0.546461,0.770066,-0.329185,0.164183,-0.227113,0.049522
1183,-0.545608,0.786936,-0.288143,0.156219,-0.209894,0.059765
1184,-0.546845,0.799201,-0.249441,0.115265,-0.101539,0.001074
1185,-0.5504640000000001,0.80723,-0.2129579999999999,0.025806,-0.009668,-0.100625
1186,-0.5550390000000001,0.8125899999999999,-0.177795,0.0161289999999999,-0.121214,-0.040589
1187,-0.559008,0.815461,-0.150047,-0.005399,-0.0826269999999999,-0.096245
1188,-0.5596979999999999,0.819357,-0.1239869999999999,0.133398,-0.009238,-0.0613919999999999
1189,-0.559963,0.822578,-0.098932,0.147579,0.082268,0.008417
1190,-0.55984,0.82488,-0.078305,0.0875809999999999,0.12585,-0.01395
1191,-0.560824,0.825882,-0.058087,0.063403,0.142319,-0.0661799999999999
1192,-0.56121,0.826636,-0.0411589999999999,0.115791,-0.032996,-0.197702
1193,-0.561484,0.827091,-0.025208,0.102163,0.008816,-0.175994
1194,-0.563322,0.8261280000000001,-0.012606,0.00897,0.157576,-0.088346
1195,-0.5645680000000001,0.825367,-0.003005,0.000878,0.266232,-0.181566
1196,-0.564444,0.825418,0.008072,0.007559,0.245062,-0.275131
1197,-0.566055,0.82414,0.0187479999999999,-0.048905,0.321596,-0.364405
1198,-0.569207,0.8218059999999999,0.0248,0.024041,0.361803,-0.332936
1199,-0.573869,0.818574,0.024242,-0.237731,0.403685,-0.280498
1200,-0.580208,0.814316,0.015006,-0.326561,0.430114,-0.255561
1201,-0.587128,0.809471,-0.003998,-0.304504,0.335915,-0.145645
1202,-0.592313,0.804767,-0.038652,-0.250643,0.157834,-0.036894
1203,-0.597579,0.797239,-0.085378,-0.202622,-0.063123,-0.010158
1204,-0.606019,0.781281,-0.1494049999999999,-0.2549889999999999,0.105026,-0.108621
1205,-0.611211,0.756828,-0.23155,-0.233699,0.14753,-0.1779339999999999
1206,-0.610404,0.730975,-0.305069,0.066794,0.376645,0.025604
1207,-0.607747,0.71096,-0.353786,0.211141,0.4697189999999999,0.327769
1208,-0.609298,0.6931729999999999,-0.385036,0.115875,0.528705,0.45747
1209,-0.6068640000000001,0.672925,-0.422935,0.058952,0.5329619999999999,0.36309
1210,-0.593349,0.643478,-0.483592,-0.163182,-0.295166,-0.075399
1211,-0.588717,0.604437,-0.53671,-0.230848,-0.476691,0.154691
1212,-0.5861069999999999,0.563808,-0.5818840000000001,0.029955,-0.223095,0.253118
1213,-0.579102,0.526461,-0.622472,0.186722,-0.0612669999999999,0.181477
1214,-0.567675,0.490934,-0.660849,0.246813,0.04883,0.180029
1215,-0.5597310000000001,0.45278,-0.6940350000000001,0.2565699999999999,0.034373,0.2504619999999999
1216,-0.555833,0.410322,-0.722966,0.237611,-0.167432,0.272084
1217,-0.5576399999999999,0.365567,-0.745247,0.171455,-0.145825,0.270805
1218,-0.5598609999999999,0.322511,-0.763241,0.1537329999999999,-0.155946,0.323163
1219,-0.5610539999999999,0.284067,-0.777508,0.1361119999999999,-0.19314,0.259182
1220,-0.562525,0.2531199999999999,-0.787077,0.122538,-0.169303,0.189543
1221,-0.564705,0.230854,-0.7923439999999999,0.198113,-0.147602,0.157152
1222,-0.5652550000000001,0.218557,-0.795434,0.202172,-0.198049,0.096413
1223,-0.563814,0.2177199999999999,-0.7966850000000001,0.197191,-0.198616,0.051644
1224,-0.5620189999999999,0.227732,-0.795153,0.177314,-0.2119239999999999,0.046847
1225,-0.564277,0.245219,-0.788324,0.156165,-0.2192329999999999,-0.085577
1226,-0.567004,0.270969,-0.777866,0.066211,-0.2076,-0.1533769999999999
1227,-0.5677270000000001,0.301772,-0.765908,-0.041755,-0.2209159999999999,-0.306526
1228,-0.571037,0.334744,-0.749572,0.047813,-0.139339,-0.147752
1229,-0.570238,0.378707,-0.728974,-0.528196,0.878403,-0.955124
1230,-0.571975,0.40934,-0.710829,-0.567398,1.412117,-0.4270489999999999
1231,-0.562263,0.447802,-0.695217,0.030784,-0.0933399999999999,0.406917
1232,-0.5546760000000001,0.4915859999999999,-0.671319,-0.0088609999999999,-0.526025,0.32171
1233,-0.549005,0.535359,-0.641853,-0.082358,-0.221989,0.2635119999999999
1234,-0.5478689999999999,0.576005,-0.6066699999999999,-0.281049,0.069732,0.09727
1235,-0.549524,0.609028,-0.571924,-0.250662,0.142849,0.082025
1236,-0.553003,0.639328,-0.534262,-0.058707,0.0685419999999999,0.157858
1237,-0.555337,0.666325,-0.497593,0.084221,-0.11147,0.00565
1238,-0.55769,0.691175,-0.4596149999999999,0.112423,-0.124677,-0.0281769999999999
1239,-0.5595399999999999,0.716124,-0.417213,0.149414,-0.135802,-0.055687
1240,-0.558804,0.742172,-0.370005,0.264233,0.020783,0.004053
1241,-0.556538,0.766229,-0.321157,0.328862,0.041373,0.0712179999999999
1242,-0.554914,0.784407,-0.277053,0.25398,-0.044874,0.028258
1243,-0.554474,0.797736,-0.236973,0.195511,-0.124488,-0.0338399999999999
1244,-0.5579649999999999,0.8062520000000001,-0.196503,0.040615,-0.198037,-0.073822
1245,-0.558818,0.813545,-0.160768,-0.045125,-0.043998,-0.145796
1246,-0.55783,0.8195959999999999,-0.1306369999999999,-0.004151,-0.0532539999999999,-0.134499
1247,-0.557683,0.8236190000000001,-0.103052,0.0864299999999999,-0.151179,-0.0623679999999999
1248,-0.560232,0.8249340000000001,-0.074837,0.097677,-0.072814,-0.101036
1249,-0.561757,0.8258530000000001,-0.048716,0.131932,0.288665,-0.117574
1250,-0.5597300000000001,0.828197,-0.027716,0.143943,0.327931,-0.153711
1251,-0.556812,0.830601,-0.006145,0.105839,0.177868,-0.23911
1252,-0.553145,0.8329129999999999,0.016155,0.1108069999999999,0.2989679999999999,-0.250027
1253,-0.553925,0.83186,0.03392,-0.042419,0.390232,-0.084182
1254,-0.5570430000000001,0.829257,0.04483,-0.169717,0.340543,-0.092315
1255,-0.560016,0.8270719999999999,0.048047,-0.339886,0.082749,-0.202801
1256,-0.5666859999999999,0.822903,0.040899,-0.387813,0.106724,-0.179983
1257,-0.5723699999999999,0.8196319999999999,0.023922,-0.3259,0.359964,0.2126809999999999
1258,-0.5740770000000001,0.818739,-0.008862,-0.2070659999999999,0.1834589999999999,0.37875
1259,-0.5787479999999999,0.813419,-0.05811,-0.102221,-0.09084,-0.0877179999999999
1260,-0.59015,0.799579,-0.111242,-0.061858,-0.017002,-0.221461
1261,-0.598042,0.781834,-0.176243,0.09084,0.099025,-0.195202
1262,-0.600063,0.761731,-0.244279,0.150539,0.325748,-0.041335
1263,-0.6034510000000001,0.740862,-0.294878,0.100811,0.374982,0.166353
1264,-0.605486,0.72182,-0.335181,-0.034559,0.25929,0.172523
1265,-0.6002810000000001,0.703558,-0.380332,-0.097228,0.095834,0.155052
1266,-0.5880029999999999,0.685124,-0.429935,-0.0806679999999999,-0.198247,0.117969
1267,-0.57881,0.66101,-0.477527,-0.100694,-0.370894,0.174351
1268,-0.573781,0.631771,-0.52118,-0.046046,-0.320446,0.215745
1269,-0.5680970000000001,0.59909,-0.564221,-0.025012,-0.209473,0.1957829999999999
1270,-0.5603899999999999,0.564437,-0.606105,0.025219,-0.101897,0.1001389999999999
1271,-0.552683,0.531208,-0.642146,0.081949,-0.082997,0.172526
1272,-0.545409,0.496622,-0.675194,0.106017,-0.1095829999999999,0.179863
1273,-0.539837,0.458851,-0.705708,0.045041,-0.062428,0.148396
1274,-0.540409,0.418411,-0.729989,0.02306,-0.076737,0.168343
1275,-0.541167,0.37931,-0.750504,0.051772,-0.134605,0.13733
1276,-0.5420159999999999,0.342705,-0.767311,-0.002326,-0.101601,0.091026
1277,-0.542593,0.309287,-0.78098,0.05126,-0.10842,0.1078079999999999
1278,-0.543615,0.280755,-0.790983,0.044362,-0.083551,0.1248
1279,-0.545924,0.257195,-0.797379,0.061472,-0.071495,0.148621
1280,-0.547844,0.23951,-0.801559,0.178429,-0.182701,0.090546
1281,-0.549825,0.229007,-0.8032699999999999,0.179555,-0.196506,0.062044
1282,-0.551354,0.226071,-0.803054,0.158959,-0.184201,0.073074
1283,-0.552098,0.2307969999999999,-0.801196,0.073445,-0.120964,0.020694
1284,-0.55405,0.243011,-0.796222,0.097827,-0.134918,-0.026425
1285,-0.556237,0.263051,-0.788289,0.105416,-0.139485,-0.0591379999999999
1286,-0.5554140000000001,0.289807,-0.7794369999999999,-0.037466,-0.153668,-0.287259
1287,-0.554656,0.314581,-0.7703180000000001,-0.075838,-0.159689,-0.367423
1288,-0.556565,0.340755,-0.757704,-0.4863729999999999,0.205753,-0.057634
1289,-0.563717,0.369644,-0.738634,-0.271061,0.67369,-0.678175
1290,-0.55796,0.406119,-0.7237,0.213355,0.399362,0.478842
1291,-0.551312,0.450877,-0.701967,-0.331424,-0.171824,0.199999
1292,-0.548061,0.486406,-0.6804640000000001,-0.290654,-0.012026,0.128187
1293,-0.547736,0.520738,-0.6548350000000001,-0.093606,0.174391,0.080495
1294,-0.5462199999999999,0.551761,-0.630234,0.043336,0.078641,0.077317
1295,-0.543437,0.583643,-0.6033470000000001,0.10525,0.019705,0.084121
1296,-0.542383,0.614261,-0.573144,0.0514769999999999,-0.027194,0.055123
1297,-0.542379,0.641788,-0.542146,0.05628,0.041851,-0.008955
1298,-0.539221,0.6698810000000001,-0.510382,0.0699679999999999,0.031383,-0.0427339999999999
1299,-0.533683,0.69918,-0.475729,0.173408,-0.025428,-0.013758
1300,-0.527048,0.727108,-0.4399109999999999,0.199457,-0.143215,-0.007309
1301,-0.521505,0.751797,-0.40351,0.223181,-0.163418,-0.040017
1302,-0.519386,0.7715390000000001,-0.367357,0.20388,-0.079751,-0.0622389999999999
1303,-0.5189779999999999,0.787722,-0.331874,0.088115,-0.001009,0.008876
1304,-0.516863,0.801798,-0.299926,0.0798659999999999,-0.0742289999999999,-0.037278
1305,-0.515046,0.81338,-0.270413,0.0531779999999999,-0.252848,-0.080478
1306,-0.515939,0.8219719999999999,-0.241144,-0.004782,-0.056072,-0.024374
1307,-0.519464,0.8271290000000001,-0.214466,-0.0141509999999999,0.049168,-0.020367
1308,-0.523196,0.829833,-0.19397,0.01636,0.11963,0.0299839999999999
1309,-0.5261640000000001,0.831145,-0.179802,-0.016805,0.062608,-0.082893
1310,-0.5264479999999999,0.8331850000000001,-0.169215,0.054937,-0.033121,-0.145665
1311,-0.526123,0.836026,-0.155675,0.100083,0.004566,-0.107905
1312,-0.526301,0.839426,-0.135461,0.0990549999999999,0.103094,0.021783
1313,-0.5265479999999999,0.842512,-0.113574,0.033537,0.071261,0.024585
1314,-0.526265,0.8451290000000001,-0.093697,0.016469,0.000345,-0.045631
1315,-0.526021,0.8470209999999999,-0.076376,0.012044,-0.1217859999999999,-0.144861
1316,-0.5263939999999999,0.848284,-0.057445,0.037853,0.033979,-0.108509
1317,-0.526628,0.849231,-0.038006,0.0950179999999999,0.136654,-0.033665
1318,-0.5259550000000001,0.85025,-0.020502,0.129624,0.143906,-0.053091
1319,-0.525667,0.8506540000000001,-0.005988,0.016878,0.178002,-0.095361
1320,-0.527054,0.849808,0.003781,-0.0194699999999999,0.171478,-0.18797
1321,-0.529262,0.8483809999999999,0.010202,-0.007237,0.209892,-0.223214
1322,-0.5316310000000001,0.846825,0.015105,0.018859,0.26081,-0.171492
1323,-0.535745,0.8441700000000001,0.018085,-0.082709,0.333137,-0.025455
1324,-0.5412,0.840733,0.015622,-0.234908,0.402309,0.034579
1325,-0.54502,0.8383940000000001,0.004612,-0.4460689999999999,0.312058,0.012417
1326,-0.546531,0.837299,-0.0144319999999999,-0.423288,0.156246,-0.032458
1327,-0.552396,0.832468,-0.042782,-0.320971,0.0044,-0.066578
1328,-0.561476,0.822717,-0.088636,-0.026872,0.0346589999999999,0.001539
1329,-0.568708,0.807471,-0.156654,-0.093417,0.109979,-0.053902
1330,-0.5719,0.786576,-0.232828,-0.148162,0.086242,-0.116415
1331,-0.574728,0.764591,-0.291669,-0.04214,0.111829,-0.0036799999999999
1332,-0.579026,0.7451399999999999,-0.330873,0.114869,0.109367,0.2249159999999999
1333,-0.582398,0.725793,-0.366087,0.14769,0.229651,0.268949
1334,-0.578961,0.703254,-0.412579,0.001416,0.261681,0.106167
1335,-0.568719,0.675164,-0.469785,-0.112403,-0.083932,-0.093814
1336,-0.56179,0.642404,-0.521245,-0.157708,-0.301935,-0.03976
1337,-0.5592550000000001,0.60519,-0.5665399999999999,-0.119853,-0.312023,0.26698
1338,-0.553249,0.567026,-0.6102350000000001,0.005077,-0.070215,0.169836
1339,-0.54496,0.531087,-0.6488109999999999,0.11779,0.031809,0.099601
1340,-0.537434,0.494126,-0.68337,0.116948,-0.0097819999999999,0.107626
1341,-0.535533,0.452967,-0.712754,0.101939,-0.12588,0.1065369999999999
1342,-0.537381,0.4100069999999999,-0.736959,0.064923,-0.22713,0.216635
1343,-0.5346850000000001,0.371112,-0.759197,0.0321529999999999,-0.1049529999999999,0.159664
1344,-0.536575,0.333229,-0.775267,0.049194,-0.091683,0.23413
1345,-0.540909,0.296802,-0.7869689999999999,0.095886,-0.1232019999999999,0.139462
1346,-0.5473140000000001,0.2624039999999999,-0.794724,0.1060599999999999,-0.128004,0.1047369999999999
1347,-0.5525399999999999,0.232401,-0.800427,0.121266,-0.129664,0.108655
1348,-0.555841,0.208892,-0.804612,0.145532,-0.161743,0.166657
1349,-0.55896,0.192436,-0.806552,0.136047,-0.19445,0.15166
1350,-0.5625359999999999,0.182667,-0.806338,0.152822,-0.2010539999999999,0.098849
1351,-0.565808,0.180036,-0.804638,0.103253,-0.187406,0.086575
1352,-0.568889,0.184476,-0.801454,0.055049,-0.175321,0.059434
1353,-0.572141,0.194411,-0.7967770000000001,0.058362,-0.190977,-0.013647
1354,-0.572667,0.210178,-0.792384,0.166249,-0.241718,-0.099798
1355,-0.5719529999999999,0.232616,-0.786609,0.13607,-0.213757,-0.297772
1356,-0.574746,0.255164,-0.777529,-0.0084599999999999,-0.201575,-0.228406
1357,-0.580201,0.274776,-0.7667189999999999,-0.306716,-0.0272329999999999,0.023128
1358,-0.583689,0.29724,-0.7556109999999999,-0.722738,0.666231,-0.72797
1359,-0.5866,0.3166739999999999,-0.7453930000000001,0.067282,0.375418,-0.019698
1360,-0.578521,0.352748,-0.735442,-0.034043,-0.3968,0.266433
1361,-0.574029,0.391493,-0.719178,-0.1089089999999999,-0.038908,0.05832
1362,-0.5695399999999999,0.432846,-0.698756,-0.096247,0.4180149999999999,0.12147
1363,-0.5625399999999999,0.4744069999999999,-0.67711,-0.139487,0.360996,0.178651
1364,-0.5562199999999999,0.511351,-0.65508,-0.233697,0.211504,0.114751
1365,-0.551621,0.543696,-0.632534,-0.242461,0.126058,0.103466
1366,-0.5478109999999999,0.574574,-0.6080770000000001,0.026418,-0.0808909999999999,0.019881
1367,-0.542871,0.606997,-0.580374,0.09591,0.013715,0.014273
1368,-0.539165,0.6402869999999999,-0.5471020000000001,0.073146,0.07744,0.016722
1369,-0.537473,0.671655,-0.50989,-0.034975,0.098746,0.037585
1370,-0.534275,0.70089,-0.472534,0.036427,-0.067788,0.01535
1371,-0.530537,0.7265659999999999,-0.436596,0.071888,-0.107502,-0.0060149999999999
1372,-0.527826,0.7495430000000001,-0.39946,0.133127,-0.1244359999999999,-0.024613
1373,-0.526493,0.7693720000000001,-0.361737,0.187015,0.0018679999999999,-0.0062439999999999
1374,-0.5270560000000001,0.786245,-0.322509,0.140765,0.00265,-0.023957
1375,-0.527205,0.8004640000000001,-0.285118,0.092589,-0.037997,-0.04081
1376,-0.52565,0.813106,-0.250059,0.072296,-0.126003,-0.041842
1377,-0.522328,0.8244389999999999,-0.217836,0.125416,-0.16854,-0.0560279999999999
1378,-0.522646,0.831616,-0.187704,0.147738,-0.146069,-0.0383709999999999
1379,-0.522334,0.8373940000000001,-0.1609809999999999,0.031581,0.101403,-0.040694
1380,-0.518215,0.844572,-0.134639,0.050197,0.008822,0.019114
1381,-0.515143,0.8497469999999999,-0.111952,0.04563,-0.100464,0.032164
1382,-0.5148739999999999,0.852201,-0.092921,0.001828,-0.134473,-0.074819
1383,-0.516386,0.852834,-0.077427,0.032392,-0.024724,-0.11607
1384,-0.516622,0.853899,-0.062705,0.07256,0.044523,-0.13041
1385,-0.515083,0.855842,-0.046888,0.164619,0.046029,0.012846
1386,-0.5136470000000001,0.8573700000000001,-0.032507,0.07839,0.019873,-0.0012
1387,-0.512965,0.8582280000000001,-0.016899,0.042368,-0.023023,-0.11126
1388,-0.512578,0.8586239999999999,-0.000888,0.038304,-0.016675,-0.154385
1389,-0.511892,0.858884,0.016017,0.066686,-0.0311709999999999,-0.182567
1390,-0.510383,0.859223,0.034878,0.132042,0.141448,-0.12286
1391,-0.510337,0.858218,0.054676,0.149421,0.218732,-0.132175
1392,-0.512166,0.8557049999999999,0.073654,0.091924,0.212807,-0.135452
1393,-0.515246,0.852628,0.0867,-0.149701,0.137195,-0.272079
1394,-0.519137,0.849245,0.096173,-0.184766,0.338545,-0.178921
1395,-0.5221359999999999,0.8471219999999999,0.098635,-0.1114859999999999,0.4607699999999999,-0.03026
1396,-0.522333,0.84746,0.094601,-0.370001,0.448453,0.050067
1397,-0.523578,0.8471799999999999,0.090127,-0.426984,0.087589,-0.082162
1398,-0.5289699999999999,0.845026,0.078056,-0.30477,0.134131,-0.05085
1399,-0.535191,0.843081,0.052496,-0.0845139999999999,0.2330449999999999,0.036112
1400,-0.5418229999999999,0.8403639999999999,0.013762,-0.005144,0.237075,0.11606
1401,-0.546926,0.836414,-0.035457,-0.02592,0.1852079999999999,0.050502
1402,-0.549025,0.8309709999999999,-0.08963,-0.089403,0.033424,-0.042176
1403,-0.546941,0.823724,-0.149369,-0.055949,0.032096,-0.0272509999999999
1404,-0.544335,0.812642,-0.208065,-0.086646,-0.01157,0.034115
1405,-0.544176,0.799118,-0.2554639999999999,-0.089292,0.02948,0.135011
1406,-0.543755,0.785698,-0.294939,-0.01171,0.112739,0.2358719999999999
1407,-0.5382680000000001,0.7722640000000001,-0.33743,0.0259839999999999,0.097304,0.15408
1408,-0.529429,0.7582899999999999,-0.380375,-0.042623,-0.211842,0.0643649999999999
1409,-0.5236770000000001,0.741919,-0.418692,-0.03803,-0.367743,0.149481
1410,-0.521001,0.723893,-0.45224,0.0220229999999999,-0.308259,0.189591
1411,-0.518239,0.7061430000000001,-0.482468,0.041737,-0.174695,0.136033
1412,-0.516437,0.688905,-0.508614,0.038196,-0.123445,0.139352
1413,-0.5155310000000001,0.672694,-0.530751,0.031553,-0.108745,0.180577
1414,-0.514993,0.65581,-0.551981,0.002725,-0.183688,0.187097
1415,-0.51702,0.638502,-0.570083,-0.0009699999999999,-0.169843,0.187225
1416,-0.520616,0.6217229999999999,-0.5851569999999999,0.0263839999999999,-0.156681,0.144956
1417,-0.524722,0.606292,-0.59755,0.055225,-0.142593,0.1190799999999999
1418,-0.529957,0.5928140000000001,-0.606388,0.054814,-0.13682,0.1044349999999999
1419,-0.535928,0.582394,-0.611219,0.073769,-0.144955,0.084608
1420,-0.542276,0.575946,-0.6117279999999999,0.109674,-0.152591,0.077198
1421,-0.549825,0.573462,-0.607309,0.071523,-0.127371,0.04017
1422,-0.5584859999999999,0.5746060000000001,-0.598256,0.091277,-0.099036,0.019322
1423,-0.568279,0.577849,-0.58578,0.13055,-0.080199,0.011576
1424,-0.577383,0.58339,-0.571203,0.22785,-0.161301,0.092199
1425,-0.58402,0.5926100000000001,-0.5547270000000001,0.187017,-0.2292679999999999,0.062036
1426,-0.5892970000000001,0.60602,-0.534281,0.173541,-0.256181,0.023814
1427,-0.5942270000000001,0.622555,-0.5092220000000001,0.077305,-0.144207,-0.1030369999999999
1428,-0.5980810000000001,0.641029,-0.4810069999999999,0.070478,-0.112174,-0.141796
1429,-0.598146,0.661258,-0.4527069999999999,0.06592,-0.1045869999999999,-0.175177
1430,-0.594553,0.68203,-0.425825,0.126474,-0.069969,-0.325777
1431,-0.5906170000000001,0.698808,-0.403513,0.060222,0.082015,-0.357382
1432,-0.5888760000000001,0.70576,-0.393841,-0.474479,0.109196,-0.408344
1433,-0.5926779999999999,0.70349,-0.392196,-0.374287,-0.147307,-0.205109
1434,-0.5989220000000001,0.698234,-0.392103,-0.031281,-0.2221139999999999,-0.1658349999999999
1435,-0.604617,0.695182,-0.388772,0.022143,-0.230674,-0.145652
1436,-0.60685,0.700839,-0.3748869999999999,-0.130043,0.1247829999999999,-0.024481
1437,-0.607498,0.713937,-0.34817,-0.459381,0.384604,0.094691
1438,-0.605897,0.728163,-0.320387,-0.686934,0.355638,0.109114
1439,-0.601297,0.737938,-0.30638,-0.407431,-0.042885,0.0413959999999999
1440,-0.59332,0.74251,-0.310855,0.0530519999999999,-0.359164,-0.024869
1441,-0.582159,0.750311,-0.313216,0.214102,-0.290274,0.238067
1442,-0.573501,0.762894,-0.2984469999999999,0.059447,-0.023499,0.406387
1443,-0.571837,0.7753399999999999,-0.268011,-0.019593,0.095678,0.358572
1444,-0.569802,0.785539,-0.2413159999999999,0.0286029999999999,0.144836,0.15222
1445,-0.564017,0.7945909999999999,-0.224696,0.025824,0.110134,0.050624
1446,-0.5532590000000001,0.8052630000000001,-0.213152,-0.02595,0.005421,-0.073011
1447,-0.540172,0.818549,-0.195368,-0.001728,-0.083762,0.055536
1448,-0.527518,0.8324950000000001,-0.16927,0.020255,-0.1170869999999999,0.109456
1449,-0.516987,0.8440110000000001,-0.1426339999999999,-0.006679,-0.050813,0.122554
1450,-0.50867,0.8524379999999999,-0.120742,-0.058789,-0.0428529999999999,0.073882
1451,-0.5022810000000001,0.8588,-0.100745,-0.069694,-0.053045,0.087134
1452,-0.49698,0.8637870000000001,-0.082797,-0.0653059999999999,-0.062457,0.087283
1453,-0.491931,0.8679629999999999,-0.067944,-0.0096099999999999,-0.018064,0.044552
1454,-0.487358,0.8717440000000001,-0.050161,0.030342,0.090444,0.143041
1455,-0.483593,0.874798,-0.028928,0.016628,0.085712,0.1517
1456,-0.478839,0.8778540000000001,-0.007475,0.016849,0.058105,0.1539589999999999
1457,-0.473472,0.8807200000000001,0.011237,0.048103,-0.01895,0.1346369999999999
1458,-0.4696649999999999,0.8824350000000001,0.026323,0.031142,-0.0335279999999999,0.083113
1459,-0.467362,0.883173,0.039342,-0.039596,0.008489,-0.0026899999999999
1460,-0.4663899999999999,0.883158,0.049817,-0.007869,-0.030222,-0.091184
1461,-0.466287,0.882539,0.060587,0.03393,-0.006409,-0.066385
1462,-0.466178,0.881675,0.072771,0.0146699999999999,-0.039161,0.016493
1463,-0.466802,0.880317,0.084301,0.008626,-0.045554,0.038929
1464,-0.468327,0.8786430000000001,0.092871,0.020161,-0.0336259999999999,-0.064459
1465,-0.47062,0.876459,0.101511,0.036584,-0.016626,-0.093409
1466,-0.4732449999999999,0.873659,0.112814,0.017556,0.0152419999999999,-0.01032
1467,-0.475571,0.870936,0.12357,-0.024993,0.02744,-0.008656
1468,-0.477605,0.8686219999999999,0.131746,-0.042201,0.000656,-0.105806
1469,-0.480093,0.8661989999999999,0.138486,-0.035151,-0.03609,-0.137204
1470,-0.483562,0.8632770000000001,0.144525,-0.014133,-0.003994,-0.105478
1471,-0.4875649999999999,0.860326,0.148619,0.028062,0.061839,-0.118925
1472,-0.4914949999999999,0.857751,0.150546,0.073511,0.06945,-0.2013579999999999
1473,-0.4959149999999999,0.8550030000000001,0.151677,0.094365,0.074914,-0.212026
1474,-0.501065,0.8522190000000001,0.150414,0.104444,0.124344,-0.204705
1475,-0.507392,0.849461,0.144696,0.033012,0.146999,-0.148312
1476,-0.514441,0.847138,0.132948,-0.065408,0.273528,-0.012464
1477,-0.521744,0.845773,0.111443,-0.1507869999999999,0.257025,0.062889
1478,-0.528388,0.845327,0.078721,-0.253533,0.196573,0.143798
1479,-0.536871,0.8430059999999999,0.03288,-0.4288729999999999,-0.113819,0.142443
1480,-0.547852,0.8360489999999999,-0.029213,-0.497421,-0.155187,0.023338
1481,-0.558196,0.8234549999999999,-0.10156,-0.350328,0.172776,-0.078204
1482,-0.56214,0.808466,-0.174236,-0.188089,0.372228,-0.028248
1483,-0.561674,0.795088,-0.2287699999999999,-0.074999,0.202715,0.333659
1484,-0.562228,0.782017,-0.268939,0.074206,-0.039387,0.5412319999999999
1485,-0.563375,0.764038,-0.314381,0.134542,0.027389,0.29665
1486,-0.5666260000000001,0.742059,-0.358143,0.093314,-0.0066,0.155048
1487,-0.5715140000000001,0.717094,-0.398912,-0.055485,-0.053123,0.013719
1488,-0.575191,0.688789,-0.441259,-0.228978,-0.182442,-0.019435
1489,-0.57468,0.661136,-0.482314,-0.187237,-0.183552,0.075332
1490,-0.575758,0.640529,-0.508145,-0.036058,0.080144,0.155789
1491,-0.572868,0.620993,-0.5349550000000001,-0.052269,0.208643,0.1138119999999999
1492,-0.565906,0.596275,-0.5693819999999999,-0.0769929999999999,0.041466,0.224136
1493,-0.566824,0.5657220000000001,-0.59888,-0.043695,-0.053057,0.086689
1494,-0.569551,0.527497,-0.630355,-0.093535,-0.079087,-0.146607
1495,-0.571553,0.487487,-0.6600560000000001,-0.026485,-0.1186059999999999,-0.088098
1496,-0.573591,0.449366,-0.684876,0.011899,-0.101176,0.000855
1497,-0.578446,0.412099,-0.703965,-0.023925,-0.019643,-0.009124
1498,-0.582485,0.377578,-0.7198180000000001,0.009975,4.7e-05,-0.066498
1499,-0.5856399999999999,0.345385,-0.7333,0.034675,-0.008089,-0.000709
1500,-0.593831,0.3130429999999999,-0.741189,0.080388,0.001333,0.046395
1501,-0.603267,0.2813719999999999,-0.746252,0.0111349999999999,-0.024765,0.065237
1502,-0.61277,0.251467,-0.7491800000000001,-0.008782,-0.1063559999999999,0.1170079999999999
1503,-0.622592,0.224253,-0.749722,-0.009656,-0.074549,0.063549
1504,-0.6294489999999999,0.200513,-0.7507199999999999,0.0034579999999999,-0.068708,0.035922
1505,-0.632687,0.178343,-0.753587,0.016568,-0.113798,0.14583
1506,-0.638559,0.158717,-0.753024,0.066736,-0.16209,0.123095
1507,-0.644551,0.142584,-0.7511439999999999,0.095097,-0.086996,0.078476
1508,-0.649501,0.129623,-0.7492260000000001,0.10197,-0.089889,0.086186
1509,-0.653641,0.120144,-0.747202,0.060975,-0.146374,0.045023
1510,-0.657605,0.112233,-0.744951,0.068997,-0.120442,0.0034659999999999
1511,-0.661963,0.104878,-0.742159,0.106375,-0.082844,0.006578
1512,-0.666352,0.099284,-0.738993,0.135819,-0.097834,0.017405
1513,-0.671254,0.095314,-0.735069,0.089024,-0.0666419999999999,-0.0271079999999999
1514,-0.673491,0.093928,-0.7331989999999999,0.113478,-0.099101,-0.0548409999999999
1515,-0.672478,0.095098,-0.733977,0.093773,-0.101629,-0.008684
1516,-0.6717609999999999,0.097129,-0.734367,0.06495,-0.104713,0.017387
1517,-0.673385,0.098424,-0.7327060000000001,0.136825,-0.0447899999999999,-0.1231599999999999
1518,-0.675507,0.1025089999999999,-0.7301880000000001,0.189988,-0.072022,-0.127356
1519,-0.676108,0.1118339999999999,-0.7282609999999999,0.206656,-0.096239,-0.111858
1520,-0.676193,0.125533,-0.725945,0.091019,-0.141783,0.065621
1521,-0.676309,0.145219,-0.722156,0.092691,-0.1542369999999999,0.075168
1522,-0.670207,0.16439,-0.723734,-0.003499,-0.1159119999999999,0.047922
1523,-0.657578,0.173129,-0.733219,-0.872711,0.340252,-0.544613
1524,-0.657606,0.167793,-0.734434,-0.786303,-0.195412,-0.45357
1525,-0.664246,0.148699,-0.7325699999999999,-0.323105,-0.3704699999999999,-0.4194529999999999
1526,-0.668998,0.135973,-0.730716,0.493583,-0.150621,-0.1152319999999999
1527,-0.6807270000000001,0.146413,-0.717751,0.16176,-0.020086,0.169808
1528,-0.68492,0.163851,-0.70995,-0.066087,0.070127,0.129445
1529,-0.68233,0.183551,-0.70762,-0.341794,0.174191,-0.16268
1530,-0.677979,0.211385,-0.704026,-0.025466,0.275447,0.111573
1531,-0.672149,0.244776,-0.698779,0.056595,0.224615,0.231494
1532,-0.665921,0.279102,-0.69184,-0.019199,0.231717,0.184135
1533,-0.657601,0.316785,-0.68352,-0.0886909999999999,0.206134,0.159122
1534,-0.648192,0.356301,-0.67297,-0.1179369999999999,0.159934,0.151531
1535,-0.638429,0.3965059999999999,-0.659683,-0.060348,0.121072,0.1141359999999999
1536,-0.628613,0.436407,-0.643727,0.018903,0.164972,0.099156
1537,-0.618981,0.476406,-0.6244109999999999,0.047402,0.080723,0.140403
1538,-0.6084229999999999,0.518373,-0.600916,0.030039,-0.01349,0.172572
1539,-0.59623,0.5599149999999999,-0.5753199999999999,0.0028309999999999,-0.059626,0.156329
1540,-0.5841270000000001,0.599647,-0.546999,-0.0012,-0.068641,0.141924
1541,-0.571263,0.638332,-0.5159229999999999,0.0003399999999999,-0.091076,0.106103
1542,-0.558425,0.673369,-0.484481,0.022598,-0.1244339999999999,0.094451
1543,-0.5465439999999999,0.7044279999999999,-0.452831,0.114461,-0.023031,0.105724
1544,-0.534858,0.732209,-0.421641,0.072136,-0.034516,0.074823
1545,-0.520899,0.760282,-0.388096,0.055414,-0.037718,0.000752
1546,-0.50808,0.786709,-0.350608,0.074227,-0.111066,0.023444
1547,-0.498903,0.8056810000000001,-0.319304,0.095125,-0.117617,0.014952
1548,-0.495655,0.819181,-0.288532,0.023594,0.040851,0.097903
1549,-0.4905359999999999,0.831625,-0.260299,0.018719,0.121714,0.123992
1550,-0.484038,0.841714,-0.239175,0.0605919999999999,0.001182,0.135354
1551,-0.479309,0.849107,-0.2219429999999999,0.050003,-0.025346,0.098485
1552,-0.4772979999999999,0.8547299999999999,-0.203968,0.053821,0.091529,0.061497
1553,-0.475225,0.8598319999999999,-0.186624,0.027075,0.098619,-0.018683
1554,-0.4722439999999999,0.864926,-0.1699,0.067276,0.0189389999999999,-0.058722
1555,-0.46937,0.8699629999999999,-0.151108,0.084498,-0.016951,-0.023773
1556,-0.468067,0.8736309999999999,-0.13289,0.1075319999999999,0.021602,0.004273
1557,-0.46876,0.875567,-0.116721,0.121164,0.060728,0.010535
1558,-0.4704819999999999,0.876633,-0.100689,0.0781179999999999,-0.01503,-0.062794
1559,-0.472704,0.8771969999999999,-0.083979,0.062685,-0.104202,-0.1285609999999999
1560,-0.4758199999999999,0.877022,-0.06636,0.018926,-0.0298079999999999,-0.113099
1561,-0.480388,0.875667,-0.049099,-0.000493,0.003499,-0.087696
1562,-0.485718,0.873492,-0.032619,0.035477,-0.023806,-0.068593
1563,-0.493138,0.8697280000000001,-0.019032,0.043949,0.098335,-0.106196
1564,-0.502446,0.864568,-0.006608,0.059026,0.212001,-0.114867
1565,-0.51236,0.8587370000000001,0.0055439999999999,-0.082885,0.253278,-0.005239
1566,-0.519983,0.854039,0.014409,-0.067175,0.2556719999999999,0.047145
1567,-0.52615,0.8502290000000001,0.015796,-0.0534399999999999,0.303274,0.123746
1568,-0.533283,0.845873,0.00898,-0.439389,0.686704,0.055336
1569,-0.539441,0.8419979999999999,-0.004046,-0.555758,0.536726,-0.072919
1570,-0.542421,0.839841,-0.020463,-0.3980849999999999,0.137652,-0.135573
1571,-0.547041,0.8356399999999999,-0.049248,-0.1103069999999999,0.158363,0.1061329999999999
1572,-0.5535720000000001,0.826742,-0.100157,-0.02408,0.25149,0.147139
1573,-0.5574319999999999,0.813092,-0.167717,-0.111941,0.1313359999999999,0.048073
1574,-0.558348,0.7936880000000001,-0.241423,-0.228959,0.000196,0.0260149999999999
1575,-0.560052,0.770514,-0.304353,-0.249045,-0.035758,0.02292
1576,-0.5609,0.748059,-0.3546559999999999,-0.159238,0.090411,0.101573
1577,-0.556569,0.724111,-0.407282,-0.138759,0.184611,0.122995
1578,-0.5466439999999999,0.6962010000000001,-0.465263,-0.1822069999999999,0.197262,0.035698
1579,-0.5349109999999999,0.6651239999999999,-0.521025,-0.238008,-0.137124,0.031294
1580,-0.522421,0.63375,-0.570461,-0.119288,-0.253654,0.108165
1581,-0.511682,0.599066,-0.615866,0.071771,-0.21134,0.294852
1582,-0.50265,0.559222,-0.659245,0.041835,-0.086001,0.157643
1583,-0.4957319999999999,0.517388,-0.6975319999999999,0.0170939999999999,-0.06318,0.1647559999999999
1584,-0.4945029999999999,0.472886,-0.729272,0.002346,-0.100663,0.213586
1585,-0.492936,0.426332,-0.758452,0.099259,-0.099549,0.164168
1586,-0.494467,0.380103,-0.781676,0.08341,-0.0587679999999999,0.1888109999999999
1587,-0.500606,0.334867,-0.798281,0.157589,0.10184,0.430849
1588,-0.5025930000000001,0.294766,-0.812716,0.063994,-0.123349,0.342074
1589,-0.508262,0.263581,-0.8198719999999999,0.1208109999999999,-0.325211,0.3552869999999999
1590,-0.514997,0.238454,-0.8233540000000001,0.130049,-0.220571,0.259573
1591,-0.518345,0.222413,-0.8257399999999999,0.141346,-0.165803,0.279262
1592,-0.5188149999999999,0.22104,-0.8258139999999999,0.118851,-0.147233,0.065987
1593,-0.519567,0.225876,-0.8240299999999999,0.157522,-0.12796,-0.003989
1594,-0.520672,0.23521,-0.8207139999999999,0.265011,-0.270626,0.107793
1595,-0.522878,0.25448,-0.813531,0.162237,-0.283457,0.034967
1596,-0.524069,0.283681,-0.8030390000000001,-0.040994,-0.245992,-0.0610659999999999
1597,-0.5227539999999999,0.314868,-0.7922,-0.145764,-0.120333,-0.239309
1598,-0.517053,0.342285,-0.784533,-0.633979,0.243302,-0.438184
1599,-0.523786,0.36254,-0.770848,-0.591479,0.955209,-1.093624
1600,-0.52322,0.38515,-0.7601939999999999,0.383785,0.526014,0.415971
1601,-0.519486,0.429996,-0.738398,-0.1325069999999999,-0.458362,0.361673
1602,-0.518872,0.470043,-0.714019,-0.214892,-0.431149,0.166839
1603,-0.51945,0.5126729999999999,-0.683615,-0.177938,0.356346,0.1170869999999999
1604,-0.51958,0.5472640000000001,-0.656147,-0.319333,0.372917,0.136143
1605,-0.5195390000000001,0.579037,-0.628319,-0.137444,-0.013333,0.122353
1606,-0.518837,0.611278,-0.5976090000000001,-0.012627,-0.186977,0.098098
1607,-0.520918,0.642608,-0.5618609999999999,0.076765,-0.059707,0.067644
1608,-0.523043,0.672946,-0.5230279999999999,0.009615,0.126264,0.041506
1609,-0.5217189999999999,0.704229,-0.4815149999999999,-0.03158,0.101466,0.017098
1610,-0.5188689999999999,0.734504,-0.4373359999999999,0.0064629999999999,0.019356,0.103718
1611,-0.516944,0.760555,-0.392821,0.0454629999999999,-0.081157,0.1239609999999999
1612,-0.518299,0.780597,-0.34931,0.058475,-0.150592,0.127813
1613,-0.523846,0.794311,-0.307631,-0.0098599999999999,-0.224792,0.166319
1614,-0.527876,0.804996,-0.270756,-0.033877,-0.125995,0.092106
1615,-0.529179,0.815371,-0.2347739999999999,-0.01913,-0.084536,0.019991
1616,-0.528813,0.8246030000000001,-0.2009099999999999,0.0985149999999999,-0.130603,0.048093
1617,-0.526678,0.8322350000000001,-0.173125,0.157904,-0.068365,-0.009126
1618,-0.525489,0.837335,-0.150692,0.153083,-0.033594,-0.024464
1619,-0.525258,0.841158,-0.128579,0.192876,-0.083025,-0.022468
1620,-0.525277,0.844349,-0.10552,0.200341,-0.0943799999999999,-0.0449009999999999
1621,-0.5262939999999999,0.8461709999999999,-0.0835679999999999,0.077976,0.056264,-0.08373
1622,-0.5278689999999999,0.846942,-0.0633929999999999,0.048087,0.107251,-0.109794
1623,-0.528354,0.8477540000000001,-0.046151,0.053608,0.0947669999999999,-0.1310339999999999
1624,-0.5277970000000001,0.848794,-0.030867,0.096568,0.089575,-0.211778
1625,-0.527674,0.849301,-0.014918,0.120676,0.150654,-0.217779
1626,-0.52887,0.848685,-0.0018969999999999,0.078446,0.357415,-0.154551
1627,-0.5298619999999999,0.8480489999999999,0.005759,-0.221817,0.187489,-0.1826539999999999
1628,-0.5321520000000001,0.846557,0.011354,-0.2896559999999999,0.186081,-0.218599
1629,-0.537669,0.843044,0.012709,-0.345876,0.285496,-0.196745
1630,-0.544333,0.838837,0.005277,-0.267511,0.435318,0.0927299999999999
1631,-0.549397,0.835461,-0.011848,-0.289531,0.387943,0.111259
1632,-0.552779,0.832724,-0.031318,-0.378984,0.16543,-0.023583
1633,-0.562009,0.8251850000000001,-0.056482,-0.107943,0.0158479999999999,-0.0133419999999999
1634,-0.573964,0.8120569999999999,-0.105378,-0.0418199999999999,0.289001,-0.004531
1635,-0.581886,0.79325,-0.179281,-0.153115,0.304955,-0.1193029999999999
1636,-0.583734,0.770124,-0.257186,-0.140891,0.2280449999999999,-0.09552
1637,-0.5847439999999999,0.748081,-0.313738,-0.008868,0.232815,0.192568
1638,-0.590432,0.726916,-0.350665,0.06521,0.384686,0.291034
1639,-0.5957560000000001,0.705249,-0.384295,0.107765,0.5272789999999999,0.2365139999999999
1640,-0.58917,0.6801699999999999,-0.436158,-0.006548,0.30712,0.0637669999999999
1641,-0.577921,0.650522,-0.492763,-0.1985829999999999,-0.235315,0.030681
1642,-0.575599,0.615034,-0.538895,-0.1915059999999999,-0.480009,0.318146
1643,-0.569052,0.577325,-0.585548,-0.01803,-0.2430199999999999,0.295463
1644,-0.5562060000000001,0.54087,-0.630941,0.125435,-0.020621,0.259923
1645,-0.541399,0.504594,-0.672506,0.180803,-0.0102849999999999,0.292379
1646,-0.531048,0.463954,-0.709033,0.170178,-0.089183,0.383151
1647,-0.52751,0.418608,-0.7392529999999999,0.145948,-0.122832,0.383509
1648,-0.527465,0.371496,-0.764046,0.190307,-0.147268,0.343956
1649,-0.5292020000000001,0.326555,-0.7831359999999999,0.2203949999999999,-0.119569,0.354806
1650,-0.5340239999999999,0.287426,-0.79511,0.162503,-0.0472529999999999,0.293126
1651,-0.5373220000000001,0.259219,-0.80255,0.1439349999999999,-0.158725,0.247313
1652,-0.538792,0.244225,-0.8062590000000001,0.141117,-0.156487,0.148208
1653,-0.53925,0.242201,-0.806562,0.126958,-0.178572,0.108
1654,-0.540297,0.2495619999999999,-0.803613,0.087141,-0.198094,0.073724
1655,-0.543279,0.262828,-0.797348,0.115713,-0.187038,0.039826
1656,-0.5456310000000001,0.283163,-0.788733,0.184425,-0.135764,-0.103601
1657,-0.547439,0.310006,-0.777304,0.206985,-0.032968,-0.267923
1658,-0.546013,0.336825,-0.767081,-0.137016,0.150449,0.001059
1659,-0.539143,0.368257,-0.757434,-0.6095229999999999,0.416731,-0.201917
1660,-0.5422279999999999,0.388503,-0.745015,-0.8502280000000001,0.755754,-0.7660779999999999
1661,-0.541659,0.413612,-0.731795,0.127566,-0.096733,0.606871
1662,-0.537597,0.455266,-0.7097289999999999,-0.150117,-0.321309,0.375806
1663,-0.531766,0.495392,-0.68688,-0.255359,-0.346207,0.197378
1664,-0.5282899999999999,0.537837,-0.656987,-0.23381,0.41425,0.062581
1665,-0.526537,0.5748939999999999,-0.6262949999999999,-0.2307409999999999,0.328426,0.131941
1666,-0.5243899999999999,0.609807,-0.594255,-0.102853,-0.086248,0.087587
1667,-0.522249,0.643004,-0.5601689999999999,0.023867,-0.236724,0.071659
1668,-0.522656,0.6735270000000001,-0.522666,0.102612,-0.050724,0.038093
1669,-0.523233,0.7031029999999999,-0.481518,0.1062099999999999,0.126441,0.077679
1670,-0.5218649999999999,0.732483,-0.437163,0.1249079999999999,0.033982,0.09706
1671,-0.52064,0.7585149999999999,-0.391885,0.105753,-0.062821,0.044656
1672,-0.520031,0.779395,-0.3494219999999999,0.080044,-0.132773,0.064494
1673,-0.5213369999999999,0.794726,-0.310807,0.125142,-0.185016,0.091935
1674,-0.523117,0.805547,-0.278254,0.101151,-0.11295,0.019358
1675,-0.525679,0.813659,-0.248196,0.019438,-0.0613549999999999,-0.046252
1676,-0.530212,0.8194620000000001,-0.217571,0.005859,-0.045551,0.006145
1677,-0.532936,0.8244739999999999,-0.190268,-0.019829,-0.0285449999999999,0.006247
1678,-0.533756,0.829299,-0.165368,0.0161469999999999,0.102128,0.057962
1679,-0.5345260000000001,0.8332649999999999,-0.14117,0.0308029999999999,0.095705,0.05862
1680,-0.5340699999999999,0.837126,-0.118182,0.0200319999999999,-0.0682509999999999,0.004031
1681,-0.533115,0.840724,-0.094592,0.0009339999999999,-0.131908,-0.0154849999999999
1682,-0.533121,0.8432559999999999,-0.068396,0.027704,-0.0768529999999999,-0.00773
