,gravity.x,gravity.y,gravity.z,userAcceleration.x,userAcceleration.y,userAcceleration.z
0,-0.126237,0.984917,-0.1183109999999999,0.0400089999999999,0.001442,-0.1049549999999999
1,-0.123886,0.982442,-0.139478,0.078628,-0.111425,0.201063
2,-0.127971,0.977999,-0.164732,0.0258279999999999,-0.151049,-0.012849
3,-0.135787,0.971512,-0.194223,-0.0317089999999999,0.0729679999999999,-0.11846
4,-0.1461829999999999,0.962432,-0.228801,-0.062023,0.310502,-0.206304
5,-0.159933,0.948971,-0.271791,-0.002176,0.593677,-0.004881
6,-0.17482,0.933156,-0.314092,-0.010422,0.815288,-0.089747
7,-0.191183,0.915452,-0.354109,-0.081202,0.737746,0.261472
8,-0.204742,0.8972479999999999,-0.39118,-0.065186,0.44403,0.4438689999999999
9,-0.211303,0.881864,-0.421502,-0.206116,0.107623,0.495904
10,-0.2137119999999999,0.872099,-0.4401899999999999,-0.2525969999999999,-0.109816,0.322773
11,-0.212098,0.868751,-0.447529,-0.292175,-0.008659,0.263813
12,-0.206361,0.8698889999999999,-0.448002,-0.236282,0.07901,0.283176
13,-0.199171,0.8727239999999999,-0.4457359999999999,-0.126437,-0.059659,0.297344
14,-0.191888,0.877065,-0.440378,-0.023444,-0.205694,0.334512
15,-0.18581,0.8836379999999999,-0.4297149999999999,0.000691,-0.30034,0.358442
16,-0.181835,0.8921319999999999,-0.413562,0.018932,-0.575588,0.280566
17,-0.177331,0.902231,-0.393102,0.081429,-0.628839,0.152517
18,-0.1696609999999999,0.915013,-0.366008,0.102477,-0.619512,0.104076
19,-0.159965,0.929285,-0.332921,0.107795,-0.504633,0.046819
20,-0.153193,0.943005,-0.295414,0.131266,-0.354657,0.062336
21,-0.154195,0.954562,-0.255012,0.1130569999999999,0.017102,0.044944
22,-0.160357,0.963026,-0.216478,0.0790889999999999,0.18413,-0.070646
23,-0.163844,0.968419,-0.187924,0.092967,0.1489359999999999,-0.145054
24,-0.165174,0.971352,-0.170847,0.04022,0.1182329999999999,-0.201803
25,-0.16444,0.972889,-0.1626119999999999,-0.095296,0.0952269999999999,-0.257416
26,-0.161917,0.97399,-0.1585,-0.225046,-0.036627,-0.248955
27,-0.15996,0.975667,-0.14994,-0.1852849999999999,-0.1545609999999999,-0.204842
28,-0.159956,0.977745,-0.135734,-0.0143,-0.094399,-0.320397
29,-0.158136,0.980263,-0.118625,0.153193,0.5109779999999999,0.046299
30,-0.150095,0.984152,-0.0943929999999999,0.193155,0.638742,0.604144
31,-0.132551,0.988419,-0.07384,0.1550119999999999,0.557327,0.832706
32,-0.11821,0.989959,-0.07747,-0.43901,0.349274,-0.509077
33,-0.119723,0.988333,-0.0941169999999999,-0.65872,0.258127,-0.8986040000000001
34,-0.125914,0.98695,-0.100348,-0.41617,0.094059,0.2116309999999999
35,-0.131463,0.986724,-0.095324,-0.418128,0.905457,0.2089869999999999
36,-0.139705,0.985991,-0.091101,-0.0296829999999999,0.943498,0.080664
37,-0.1350029999999999,0.986849,-0.08887,0.735574,0.250791,0.179324
38,-0.125138,0.987819,-0.092458,0.147294,0.089436,0.162267
39,-0.119432,0.988286,-0.09498,-0.088851,-0.029256,0.01713
40,-0.119964,0.988182,-0.095384,-0.04651,-0.248055,0.027955
41,-0.121891,0.987996,-0.094875,0.0637549999999999,-0.3512619999999999,0.16595
42,-0.124224,0.987716,-0.094762,0.0270709999999999,-0.2209469999999999,-0.050441
43,-0.129616,0.986927,-0.095759,-0.091224,-0.115238,-0.2221119999999999
44,-0.13563,0.986312,-0.09375,-0.114493,-0.25688,-0.068085
45,-0.141923,0.985488,-0.093098,-0.046859,-0.420714,0.03278
46,-0.150231,0.983824,-0.09755,0.017449,-0.4548779999999999,-0.0295399999999999
47,-0.157304,0.982193,-0.102703,0.061388,-0.311996,-0.05193
48,-0.1572599999999999,0.981697,-0.1074069999999999,0.08594,0.010918,-0.203949
49,-0.151186,0.982338,-0.110225,0.0956289999999999,0.071846,-0.101399
50,-0.143719,0.982799,-0.115961,0.137417,-0.179469,-0.138692
51,-0.139874,0.981758,-0.128766,0.140149,-0.172585,-0.13425
52,-0.140543,0.978777,-0.149125,0.148966,-0.113665,-0.157424
53,-0.145031,0.972697,-0.181166,0.049145,0.329961,-0.136248
54,-0.1527109999999999,0.962149,-0.225711,0.032365,0.383616,-0.174009
55,-0.168197,0.944846,-0.281019,-0.06569,0.622949,0.04881
56,-0.190806,0.923606,-0.3324789999999999,0.077372,0.711313,0.218831
57,-0.211554,0.904521,-0.370246,0.123526,0.409718,0.5711890000000001
58,-0.218851,0.892328,-0.394781,-0.046408,0.1753299999999999,0.448538
59,-0.2141199999999999,0.8877290000000001,-0.407538,-0.220603,0.105817,0.278006
60,-0.2082369999999999,0.885217,-0.415962,-0.2078699999999999,0.069998,0.271263
61,-0.197373,0.8861,-0.419365,-0.176025,-0.0070569999999999,0.271202
62,-0.183635,0.890367,-0.41656,-0.058812,-0.0663,0.2355449999999999
63,-0.171112,0.8979469999999999,-0.405473,0.051163,-0.101011,0.266282
64,-0.1604259999999999,0.908434,-0.3860159999999999,0.011165,-0.2363449999999999,0.289092
65,-0.153226,0.919684,-0.3615239999999999,0.00163,-0.362158,0.249494
66,-0.149221,0.931138,-0.332733,0.014241,-0.407182,0.182327
67,-0.147258,0.94235,-0.30048,-0.049977,-0.389173,0.109288
68,-0.1477089999999999,0.952451,-0.266486,-0.089154,-0.316282,0.092383
69,-0.150281,0.960853,-0.23275,-0.056659,-0.237007,0.088844
70,-0.154967,0.967363,-0.200473,-0.033281,-0.110643,0.052127
71,-0.16112,0.971499,-0.173854,-0.024366,-0.03667,0.000316
72,-0.166709,0.973693,-0.155322,-0.0260089999999999,-0.087142,-0.08035
73,-0.170483,0.975236,-0.140876,-0.088276,-0.150452,-0.167901
74,-0.168771,0.977257,-0.128371,-0.1907569999999999,-0.1572349999999999,-0.243501
75,-0.163439,0.97935,-0.118976,-0.2370429999999999,-0.095256,-0.295315
76,-0.160487,0.98085,-0.110321,-0.204671,-0.089768,-0.350967
77,-0.16217,0.981638,-0.100413,-0.004334,-0.001276,-0.284536
78,-0.162724,0.98297,-0.08535,0.178394,0.263795,0.164268
79,-0.1557319999999999,0.986115,-0.057615,0.291704,0.479721,0.5588810000000001
80,-0.148394,0.987867,-0.045739,0.089846,0.602358,0.202172
81,-0.146944,0.98656,-0.07142,-0.169096,0.62666,-0.5555640000000001
82,-0.147142,0.984375,-0.096697,-0.2572,0.146866,-0.0057659999999999
83,-0.144891,0.983925,-0.104369,-0.322562,0.046547,0.277892
84,-0.1492079999999999,0.982741,-0.109324,-0.4911569999999999,0.3941659999999999,0.189264
85,-0.157964,0.981999,-0.1035369999999999,0.133916,0.4106399999999999,0.273184
86,-0.156917,0.982843,-0.0969049999999999,0.529827,0.282461,0.359936
87,-0.149196,0.984463,-0.092561,0.267223,0.088764,0.091798
88,-0.144904,0.985554,-0.08764,-0.048501,0.020519,-0.21424
89,-0.147017,0.985304,-0.0869289999999999,-0.040544,0.072786,-0.041672
90,-0.151565,0.984247,-0.090995,-0.000657,0.109274,0.01937
91,-0.155097,0.983642,-0.091583,-0.041649,-0.045593,-0.006256
92,-0.156771,0.983854,-0.086306,-0.038145,-0.2053199999999999,0.076296
93,-0.157633,0.984238,-0.080137,-0.045293,-0.257248,0.062864
94,-0.161872,0.983688,-0.078422,-0.033333,-0.188888,-0.125024
95,-0.168601,0.982487,-0.079297,0.04087,-0.139194,-0.17667
96,-0.173156,0.981626,-0.080135,0.148818,-0.149778,-0.053609
97,-0.175097,0.981298,-0.079932,0.176517,-0.157659,0.012717
98,-0.174656,0.981328,-0.080526,0.193333,-0.214772,-0.08903
99,-0.1721359999999999,0.981421,-0.084715,0.174485,-0.266455,-0.047777
100,-0.168026,0.981651,-0.090129,0.109768,-0.189964,-0.137013
101,-0.164374,0.98138,-0.099339,0.135931,-0.110744,-0.000972
102,-0.1610359999999999,0.980458,-0.112977,0.116404,-0.106663,-0.1857599999999999
103,-0.159768,0.9784,-0.131154,0.057763,-0.091651,-0.241756
104,-0.161447,0.975109,-0.1519619999999999,0.055902,-0.062557,-0.02185
105,-0.167242,0.969171,-0.180923,0.072791,0.070853,0.043655
106,-0.1783269999999999,0.95853,-0.222294,-0.052524,0.555218,-0.321011
107,-0.1842869999999999,0.947044,-0.262944,-0.103433,0.8236620000000001,0.010472
108,-0.18265,0.936926,-0.2979989999999999,-0.1239599999999999,0.638803,0.018961
109,-0.180456,0.927267,-0.3280349999999999,-0.099482,0.415491,0.257478
110,-0.17794,0.919416,-0.350724,-0.086114,0.234683,0.408723
111,-0.177999,0.913246,-0.36646,-0.197275,0.076896,0.356679
112,-0.180808,0.908673,-0.37632,-0.226892,0.0222349999999999,0.197487
113,-0.181566,0.907298,-0.379263,-0.156309,0.18337,0.186575
114,-0.178166,0.908725,-0.377453,-0.080867,0.173977,0.187313
115,-0.171245,0.913474,-0.369102,-0.032536,0.016488,0.289817
116,-0.161252,0.921386,-0.353612,-0.035891,-0.178679,0.33907
117,-0.151402,0.931023,-0.332065,-0.08926,-0.39779,0.316028
118,-0.145297,0.940518,-0.307098,-0.106168,-0.5638850000000001,0.213714
119,-0.142043,0.949538,-0.2796369999999999,-0.055162,-0.618117,0.091725
120,-0.139323,0.957902,-0.25101,0.0265,-0.51468,0.034122
121,-0.1416319999999999,0.964773,-0.221691,0.125443,-0.325308,0.0424
122,-0.148017,0.969387,-0.195889,0.152579,-0.053372,0.085294
123,-0.156127,0.971252,-0.1796869999999999,0.121841,0.010392,0.068099
124,-0.161918,0.972028,-0.1701089999999999,-0.04876,0.035738,0.018223
125,-0.162249,0.973924,-0.158557,-0.1127599999999999,-0.075914,-0.036222
126,-0.1577039999999999,0.977262,-0.141711,-0.143138,-0.149412,-0.077985
127,-0.15234,0.980311,-0.125603,-0.175999,-0.221385,-0.13784
128,-0.148383,0.982708,-0.110726,-0.170129,-0.211834,-0.061607
129,-0.145976,0.984568,-0.096493,-0.092672,-0.253031,-0.0154759999999999
130,-0.145758,0.985668,-0.084892,0.0307829999999999,-0.220806,-0.049859
131,-0.146517,0.986408,-0.07433,0.060747,-0.172825,-0.094951
132,-0.145786,0.987436,-0.060903,-0.023831,0.072211,-0.214305
133,-0.1431849999999999,0.988712,-0.0440329999999999,-0.167255,0.4364439999999999,-0.27924
134,-0.139288,0.989935,-0.024903,-0.181818,0.712672,0.1241
135,-0.132434,0.991102,-0.012983,-0.118818,0.500292,0.213407
136,-0.127105,0.991812,-0.012018,-0.18448,0.298807,-0.209951
137,-0.127849,0.991698,-0.013456,-0.132542,0.222795,0.05876
138,-0.133012,0.990923,-0.019226,-0.356353,0.645887,0.003632
139,-0.1406109999999999,0.989815,-0.022046,-0.087584,0.569481,-0.068622
140,-0.142402,0.98943,-0.027207,0.398338,0.297069,0.120774
141,-0.13754,0.989974,-0.032019,0.306089,0.166291,0.253759
142,-0.133759,0.990372,-0.035518,-0.002761,-0.152421,0.052944
143,-0.133343,0.990443,-0.035113,0.082226,-0.178675,0.140902
144,-0.134304,0.99041,-0.032251,0.145076,-0.056374,0.08796
145,-0.135906,0.990289,-0.029099,0.155437,-0.063333,-0.0179439999999999
146,-0.138095,0.990019,-0.027963,0.146304,-0.151869,-0.025565
147,-0.140392,0.989683,-0.028406,0.066234,-0.166578,-0.055151
148,-0.142765,0.989313,-0.0294649999999999,-0.083798,-0.179498,-0.054245
149,-0.145506,0.988824,-0.03231,-0.247912,-0.137063,-0.171349
150,-0.149856,0.987993,-0.03746,-0.2488409999999999,-0.154573,-0.1115579999999999
151,-0.1555119999999999,0.986771,-0.045705,-0.042623,-0.269836,-0.077174
152,-0.160719,0.985522,-0.053895,0.101713,-0.271045,0.031129
153,-0.163428,0.984623,-0.061636,0.174171,-0.255176,-0.016947
154,-0.1643079999999999,0.983827,-0.071259,0.17859,-0.15294,-0.041946
155,-0.1648099999999999,0.982992,-0.08096,0.15802,-0.095526,-0.013355
156,-0.165593,0.981999,-0.090809,0.1776329999999999,-0.118047,-0.075252
157,-0.165981,0.980957,-0.100812,0.18272,-0.140869,-0.088839
158,-0.16651,0.979417,-0.114054,0.112875,0.000533,-0.193197
159,-0.16741,0.976858,-0.13309,-0.009424,0.4052219999999999,-0.235044
160,-0.166763,0.972419,-0.163043,-0.053803,0.792855,-0.363874
161,-0.168047,0.963512,-0.208317,-0.169844,0.796604,-0.160748
162,-0.173752,0.949885,-0.259847,-0.25949,0.6299939999999999,0.077092
163,-0.180474,0.935425,-0.303977,-0.27021,0.4132229999999999,0.475897
164,-0.186626,0.923206,-0.335938,-0.2665599999999999,0.271206,0.5674899999999999
165,-0.1885369999999999,0.913827,-0.359676,-0.133271,0.104499,0.3341179999999999
166,-0.186137,0.906451,-0.379067,-0.074788,0.058636,0.199731
167,-0.183373,0.901793,-0.391328,0.053703,-0.034605,0.297441
168,-0.183158,0.8997569999999999,-0.396084,0.101585,-0.131493,0.325558
169,-0.183381,0.901991,-0.390867,0.083695,-0.1706369999999999,0.333448
170,-0.1804609999999999,0.909495,-0.3744929999999999,0.059032,-0.276027,0.366909
171,-0.1749619999999999,0.919604,-0.351723,-0.003154,-0.42322,0.357537
172,-0.168168,0.929497,-0.3282489999999999,-0.0510399999999999,-0.564873,0.271242
173,-0.164066,0.938054,-0.305169,-0.071407,-0.640081,0.174263
174,-0.163471,0.946001,-0.279912,-0.054897,-0.5522630000000001,0.154592
175,-0.167468,0.953545,-0.250397,-0.0285769999999999,-0.298592,0.162872
176,-0.174441,0.959553,-0.220951,-0.073895,0.355526,0.09679
177,-0.178463,0.964537,-0.194448,-0.073826,0.375109,0.0163169999999999
178,-0.17656,0.969902,-0.167652,-0.022399,0.2436449999999999,-0.1138119999999999
179,-0.173863,0.9747,-0.1404359999999999,0.148594,-0.226226,-0.345785
180,-0.171025,0.978285,-0.117038,0.139943,-0.2385239999999999,-0.272412
181,-0.16852,0.980505,-0.100995,0.1210349999999999,-0.207342,-0.194796
182,-0.1672809999999999,0.981483,-0.093266,-0.011506,-0.155891,-0.178142
183,-0.166478,0.981865,-0.090645,-0.035304,-0.1023179999999999,-0.252815
184,-0.162846,0.982995,-0.084795,-0.037959,0.007102,-0.289503
185,-0.1539839999999999,0.985986,-0.064108,-0.263878,0.8936379999999999,0.346655
186,-0.137405,0.989977,-0.032456,-0.234284,0.789091,0.436615
187,-0.124511,0.991786,-0.0290829999999999,-0.410584,0.164464,-0.466233
188,-0.123501,0.991508,-0.040594,-0.369724,0.033349,0.089987
189,-0.133428,0.990038,-0.044847,-0.188121,0.012084,0.392762
190,-0.147622,0.987802,-0.049432,-0.150596,0.513663,0.0184569999999999
191,-0.163992,0.985467,-0.044162,0.368093,0.720054,0.081775
192,-0.16448,0.985744,-0.03526,0.5483600000000001,0.432606,0.163174
193,-0.154724,0.987393,-0.033224,0.088013,0.115665,0.016577
194,-0.147955,0.988438,-0.032982,-0.1185859999999999,-0.106877,0.000786
195,-0.14805,0.988531,-0.029597,-0.108679,-0.209188,0.024439
196,-0.152294,0.987958,-0.027076,0.083828,-0.230192,0.057395
197,-0.155664,0.987471,-0.025673,0.1216059999999999,-0.004591,0.013344
198,-0.158666,0.986949,-0.027288,0.077444,0.0868879999999999,-0.0690559999999999
199,-0.162057,0.986372,-0.028219,0.003732,-0.075422,-0.176249
200,-0.165691,0.985747,-0.028937,-0.019765,-0.201842,-0.030893
201,-0.1706089999999999,0.984808,-0.032148,0.041169,-0.308615,-0.042925
202,-0.1779359999999999,0.983279,-0.038586,0.101063,-0.379657,-0.102405
203,-0.185767,0.981567,-0.044781,0.169181,-0.264664,-0.064884
204,-0.193197,0.979788,-0.051771,0.239812,-0.051626,-0.072375
205,-0.199829,0.97794,-0.0607529999999999,0.21695,0.0287279999999999,-0.177223
206,-0.205188,0.976092,-0.071636,0.2179449999999999,-0.268267,-0.089116
207,-0.209176,0.97423,-0.084329,0.14602,-0.441088,0.033517
208,-0.21391,0.971945,-0.097749,0.134625,-0.393393,0.049363
209,-0.2185219999999999,0.969166,-0.113824,0.166901,-0.197071,-0.12168
210,-0.223766,0.965527,-0.1329509999999999,0.16151,-0.075574,-0.193373
211,-0.231217,0.959396,-0.161521,0.041749,0.318635,-0.212503
212,-0.241281,0.949346,-0.201288,-0.1479859999999999,0.536509,-0.3816739999999999
213,-0.254432,0.93618,-0.242533,-0.1149369999999999,0.6484300000000001,0.042307
214,-0.264253,0.923414,-0.278332,0.047181,0.619555,0.228329
215,-0.269271,0.91398,-0.303525,0.071028,0.269156,0.447568
216,-0.271011,0.91021,-0.31315,0.063033,0.189872,0.4330529999999999
217,-0.265924,0.912158,-0.311842,0.004175,0.145887,0.334196
218,-0.259594,0.915298,-0.307949,-0.05875,0.260681,0.067287
219,-0.254744,0.917886,-0.304276,-0.096651,0.244117,0.0479589999999999
220,-0.250889,0.921357,-0.2968989999999999,-0.099865,0.236602,0.070794
221,-0.245702,0.926699,-0.284344,0.003896,0.060758,0.21777
222,-0.238846,0.933301,-0.26813,-0.013748,0.0156889999999999,0.177676
223,-0.229676,0.940577,-0.250111,-0.03659,-0.0279029999999999,0.131566
224,-0.217402,0.948015,-0.23237,-0.0965169999999999,-0.232744,-0.004187
225,-0.2070139999999999,0.95447,-0.214767,-0.053561,-0.2725849999999999,-0.01854
226,-0.203038,0.958872,-0.198322,-0.018321,-0.306178,-4.2e-05
227,-0.201916,0.961946,-0.184071,0.08656,-0.2796949999999999,0.00893
228,-0.202503,0.964289,-0.170681,0.107792,-0.240198,0.007793
229,-0.20364,0.965856,-0.160139,0.069957,-0.081152,-0.00635
230,-0.202645,0.967147,-0.153471,0.007714,-0.0532529999999999,-0.203768
231,-0.199536,0.968055,-0.151811,-0.012103,-0.080604,-0.311293
232,-0.196631,0.968265,-0.154243,0.025961,-0.134891,-0.372429
233,-0.193488,0.967878,-0.160521,0.069449,-0.096525,-0.258027
234,-0.189419,0.967068,-0.169975,0.085019,-0.083691,-0.203056
235,-0.184628,0.966576,-0.177865,0.038235,-0.15847,-0.012641
236,-0.181042,0.966097,-0.184042,0.043224,-0.242098,6.7e-05
237,-0.178553,0.96588,-0.187582,0.042628,-0.265181,-0.030893
238,-0.176613,0.966457,-0.186443,-0.0566789999999999,-0.255046,-0.181522
239,-0.174592,0.968118,-0.179601,-0.115096,-0.185052,-0.272959
240,-0.172675,0.970939,-0.165687,-0.129799,-0.0805429999999999,-0.299355
241,-0.172792,0.973357,-0.150696,-0.199294,0.063828,-0.094345
242,-0.183052,0.973785,-0.135001,-0.246574,0.332764,0.444175
243,-0.203201,0.972374,-0.114838,-0.7033689999999999,1.028373,1.141663
244,-0.207808,0.973542,-0.094976,-0.089524,0.626525,0.702978
245,-0.2177,0.974289,-0.0579429999999999,0.236911,0.212723,-0.0415139999999999
246,-0.229287,0.972937,-0.028463,0.324807,0.532037,0.402211
247,-0.232526,0.972459,-0.015639,0.336835,0.522933,0.628234
248,-0.226225,0.973988,0.01251,0.332106,0.359553,0.502825
249,-0.2181409999999999,0.974927,0.043814,0.1208349999999999,0.146579,0.109094
250,-0.207194,0.976272,0.062852,-0.2076619999999999,-0.032089,0.053298
251,-0.198126,0.977037,0.078296,-0.496683,-0.111452,-0.056995
252,-0.197644,0.975646,0.095066,-0.318286,-0.20256,-0.082096
253,-0.203864,0.972919,0.1088789999999999,0.064856,-0.112354,-0.04264
254,-0.2138389999999999,0.96944,0.1201849999999999,0.289508,-0.0558809999999999,0.031686
255,-0.223545,0.965683,0.132173,0.370868,-0.104446,0.012969
256,-0.232233,0.961936,0.143988,0.336176,-0.144171,-0.043997
257,-0.240284,0.958129,0.155686,0.2485239999999999,-0.106353,-0.084611
258,-0.2482239999999999,0.953752,0.169492,0.179056,-0.0548559999999999,-0.066373
259,-0.257225,0.94837,0.185513,0.140678,-0.0522059999999999,-0.086148
260,-0.268179,0.941858,0.202405,0.135107,0.010855,-0.1920599999999999
261,-0.281146,0.934753,0.217204,0.180194,0.045899,-0.238506
262,-0.2944199999999999,0.927858,0.228868,0.140398,0.130705,-0.209382
263,-0.3059409999999999,0.922069,0.237008,-0.001219,0.24889,-0.3321469999999999
264,-0.315927,0.916913,0.243815,-0.000159,0.269809,-0.299906
265,-0.32905,0.912365,0.243517,0.23559,0.283008,-0.338152
266,-0.341841,0.908882,0.2388809999999999,0.271818,0.2711409999999999,-0.428853
267,-0.3533719999999999,0.906589,0.230673,0.271478,0.242688,-0.459952
268,-0.366533,0.905418,0.214144,0.189332,0.372231,-0.319719
269,-0.3834349999999999,0.904975,0.184346,0.0745059999999999,0.5548489999999999,-0.351124
270,-0.398154,0.906103,0.142953,0.060279,0.612833,-0.261789
271,-0.404896,0.909766,0.091486,0.4872329999999999,0.548562,0.145361
272,-0.401603,0.91497,0.039137,0.412284,0.365716,0.257357
273,-0.391859,0.919929,-0.012811,0.299284,0.400063,0.3039179999999999
274,-0.380851,0.922381,-0.064439,0.05764,0.415494,0.318452
275,-0.3713619999999999,0.921103,-0.116822,-0.0070709999999999,0.232141,0.272386
276,-0.361503,0.91758,-0.165383,0.0551669999999999,0.177009,0.327493
277,-0.346168,0.915315,-0.205804,0.137092,0.183882,0.346933
278,-0.328879,0.9151,-0.23328,0.42832,0.180923,0.458317
279,-0.316835,0.913035,-0.256852,0.457582,0.14739,0.5285489999999999
280,-0.306269,0.910167,-0.278901,0.456659,0.092504,0.585863
281,-0.298073,0.906936,-0.297673,0.46978,0.068512,0.598729
282,-0.293991,0.903978,-0.310456,0.430954,0.046659,0.6586310000000001
283,-0.290752,0.902418,-0.317954,0.368679,0.024797,0.740867
284,-0.29034,0.9004719999999999,-0.323795,0.199444,-0.06606,0.562122
285,-0.290721,0.899711,-0.325563,0.091655,-0.13282,0.5321520000000001
286,-0.288977,0.901315,-0.322666,-0.028176,-0.215555,0.485187
287,-0.284604,0.904632,-0.317226,-0.052249,-0.197235,0.4796399999999999
288,-0.277507,0.909163,-0.310486,-0.069599,-0.171676,0.450593
289,-0.268515,0.914576,-0.3023909999999999,-0.1352789999999999,-0.0321759999999999,0.44825
290,-0.259443,0.920296,-0.292806,-0.216967,-0.086525,0.380773
291,-0.249623,0.925834,-0.2837409999999999,-0.19923,-0.148246,0.254338
292,-0.238002,0.931343,-0.275581,0.001049,-0.152687,-0.116844
293,-0.224476,0.936527,-0.26929,0.139042,-0.092777,-0.32861
294,-0.210637,0.940446,-0.266801,0.119466,-0.029466,-0.421096
295,-0.201379,0.943159,-0.264363,0.108758,0.387423,-0.380138
296,-0.197814,0.944802,-0.261166,0.2505489999999999,0.4380409999999999,-0.250659
297,-0.1955329999999999,0.945635,-0.259867,0.284965,0.273512,-0.149847
298,-0.192643,0.945198,-0.263586,0.201204,-0.072686,-0.107295
299,-0.188223,0.945093,-0.267135,0.219854,-0.407861,-0.2519079999999999
300,-0.184471,0.947436,-0.261389,0.320594,-0.426044,-0.093485
301,-0.180252,0.952175,-0.2466989999999999,0.080108,-0.1942559999999999,0.8318129999999999
302,-0.176228,0.960255,-0.216427,-0.583415,0.521953,0.982968
303,-0.182127,0.965908,-0.183954,-1.1275959999999998,1.810749,-0.949835
304,-0.197569,0.959358,-0.201463,-0.481692,0.377038,0.176209
305,-0.230979,0.949065,-0.214271,0.164481,-0.89894,1.34243
306,-0.241799,0.953084,-0.182075,0.371544,-0.798192,0.675971
307,-0.235486,0.962804,-0.132448,0.5056579999999999,-0.218159,0.457506
308,-0.228533,0.968105,-0.102619,0.1540089999999999,0.361652,0.518787
309,-0.225039,0.971421,-0.075395,0.006579,0.568832,0.3111739999999999
310,-0.232395,0.970416,-0.065349,0.006993,0.7419399999999999,0.042949
311,-0.2466449999999999,0.967205,-0.060555,0.115542,-0.203365,0.0695269999999999
312,-0.262079,0.964316,-0.037353,0.178995,-0.260047,0.363952
313,-0.265808,0.963978,-0.008865,0.159317,-0.259968,0.502868
314,-0.264968,0.964133,0.014994,0.062102,0.030496,-0.017695
315,-0.267281,0.962881,0.037488,0.107766,0.096689,-0.0456209999999999
316,-0.271727,0.960492,0.060042,0.215864,0.044986,-0.046859
317,-0.276213,0.957651,0.081207,0.158552,0.003835,0.033494
318,-0.278966,0.95491,0.10153,0.1132859999999999,0.0214229999999999,0.042879
319,-0.281498,0.951719,0.122366,0.076358,0.015948,0.061045
320,-0.286618,0.947321,0.1428839999999999,0.087201,0.032705,-0.0540169999999999
321,-0.293906,0.941969,0.162164,0.13285,0.058016,-0.095086
322,-0.301379,0.936131,0.181137,0.171175,0.102321,-0.113205
323,-0.309643,0.930086,0.197595,0.231182,0.195403,-0.187143
324,-0.318677,0.924311,0.20994,0.232007,0.237066,-0.150263
325,-0.327376,0.919762,0.216436,0.180388,0.2395699999999999,-0.169836
326,-0.336845,0.915773,0.218806,0.050376,0.14131,-0.37501
327,-0.343974,0.913467,0.21735,-0.009343,0.039063,-0.419254
328,-0.351038,0.912282,0.210938,0.13035,0.112284,-0.271851
329,-0.360415,0.910934,0.200703,0.325366,0.166733,-0.249836
330,-0.370038,0.910039,0.18677,0.341656,0.3715469999999999,-0.313662
331,-0.3796219999999999,0.910456,0.164129,0.200408,0.4691369999999999,-0.371359
332,-0.389396,0.912044,0.128568,0.180106,0.365971,-0.334073
333,-0.397628,0.913989,0.080612,0.237533,0.268063,-0.279602
334,-0.399778,0.916178,0.02792,0.581129,0.360617,0.390827
335,-0.393102,0.919328,-0.0171139999999999,0.521993,0.318923,0.6392760000000001
336,-0.384954,0.921139,-0.057441,0.2722989999999999,0.269657,0.56922
337,-0.370982,0.923209,-0.100222,-0.000676,0.350107,0.204104
338,-0.356373,0.923891,-0.139325,0.0210759999999999,0.29814,0.239865
339,-0.340348,0.923972,-0.174429,0.205217,0.231026,0.35401
340,-0.322086,0.926288,-0.195548,0.209736,0.11575,0.427802
341,-0.30138,0.929546,-0.2123699999999999,0.227512,0.025501,0.408705
342,-0.280048,0.93218,-0.22935,0.223133,-0.12969,0.45138
343,-0.262501,0.934083,-0.2420139999999999,0.2539869999999999,-0.073014,0.476664
344,-0.251244,0.934858,-0.25081,0.271965,-0.032087,0.473055
345,-0.2445,0.935516,-0.254985,0.207513,-0.073044,0.4538069999999999
346,-0.240112,0.937039,-0.253561,0.055985,-0.168453,0.430456
347,-0.23619,0.940234,-0.24528,-0.1451579999999999,-0.224521,0.416071
348,-0.231725,0.944689,-0.232065,-0.281794,-0.2422659999999999,0.4489229999999999
349,-0.2294449999999999,0.948412,-0.218764,-0.306322,-0.209154,0.417327
350,-0.2279429999999999,0.952162,-0.203513,-0.1678089999999999,-0.111464,0.2741909999999999
351,-0.2247829999999999,0.956751,-0.1846269999999999,-0.082926,-0.037699,0.14143
352,-0.219728,0.96122,-0.16662,-0.093596,0.032188,-0.0561889999999999
353,-0.214743,0.965051,-0.150164,-0.037516,0.108161,-0.2150239999999999
354,-0.208126,0.968451,-0.137019,0.011501,0.137827,-0.318105
355,-0.1988609999999999,0.971363,-0.129983,0.167901,0.142147,-0.4730899999999999
356,-0.190657,0.973317,-0.127633,0.14015,0.09225,-0.2586739999999999
357,-0.1824849999999999,0.974517,-0.130398,0.11527,0.03618,-0.1754339999999999
358,-0.173568,0.97537,-0.136067,0.1925049999999999,-0.297224,0.411518
359,-0.163094,0.977307,-0.135128,0.06498,-0.359692,1.007671
360,-0.158299,0.980881,-0.113141,-0.578793,0.078857,0.766874
361,-0.158185,0.983514,-0.087548,-0.6823,0.290931,0.281869
362,-0.168189,0.981581,-0.090543,-0.103265,0.021959,0.369184
363,-0.198173,0.975287,-0.097616,0.019417,-0.203177,1.121786
364,-0.215436,0.972558,-0.087777,0.222104,-0.203408,1.156716
365,-0.226768,0.970742,-0.078883,0.188545,0.133582,-0.052449
366,-0.234037,0.970019,-0.065389,0.27432,0.22778,0.037984
367,-0.2327,0.971319,-0.048741,0.329243,0.296579,0.06963
368,-0.225994,0.973582,-0.032407,0.152187,-0.029506,-0.073138
369,-0.218989,0.97553,-0.019272,0.102259,-0.115498,-0.12735
370,-0.215081,0.976541,-0.009658,0.051202,-0.16871,-0.160691
371,-0.213351,0.976955,-0.0051259999999999,0.021716,-0.0284379999999999,-0.195436
372,-0.213625,0.976891,-0.005928,0.041933,0.006996,-0.214608
373,-0.213536,0.976905,-0.006654,0.079457,0.003319,-0.209258
374,-0.214049,0.976798,-0.00589,0.138533,-0.112403,-0.138962
375,-0.215364,0.976516,-0.004567,0.1554579999999999,-0.12239,-0.119792
376,-0.2163739999999999,0.976292,-0.004625,0.0598029999999999,-0.060109,-0.138487
377,-0.217751,0.975961,-0.008413,0.104424,-0.0115599999999999,-0.2309369999999999
378,-0.220463,0.975269,-0.015255,0.168186,-0.011493,-0.192752
379,-0.221809,0.974739,-0.0259019999999999,0.06411,-0.181968,-0.102791
380,-0.222989,0.974053,-0.038517,-0.021091,-0.198128,-0.18855
381,-0.224877,0.972785,-0.05574,-0.044822,-0.176642,-0.155198
382,-0.226151,0.971455,-0.071535,0.012757,-0.239033,0.1298079999999999
383,-0.225715,0.970198,-0.08806,0.109825,-0.156432,0.0360269999999999
384,-0.224477,0.968852,-0.104518,0.130894,-0.077219,-0.0385939999999999
385,-0.221275,0.967992,-0.118391,0.180198,-0.046162,0.020246
386,-0.220417,0.96634,-0.132627,0.224125,-0.083207,-0.088152
387,-0.221909,0.963122,-0.152114,0.247971,0.106397,-0.177995
388,-0.223,0.958361,-0.178331,0.295983,0.355619,-0.145598
389,-0.224128,0.950301,-0.21606,0.190391,0.612794,-0.34911
390,-0.229055,0.937798,-0.260878,0.071722,0.8419260000000001,-0.038957
391,-0.239703,0.922062,-0.3038639999999999,0.060427,0.612392,0.2798469999999999
392,-0.2515989999999999,0.906591,-0.338793,-0.077823,0.158274,0.491045
393,-0.254292,0.8971319999999999,-0.361221,-0.238735,-0.199775,0.4445949999999999
394,-0.252591,0.893282,-0.371802,-0.31966,-0.2188429999999999,0.201163
395,-0.248849,0.893951,-0.372715,-0.222189,0.127152,0.140324
396,-0.24098,0.8993559999999999,-0.364799,-0.105517,0.129147,0.227257
397,-0.231852,0.906994,-0.351565,-0.05721,-0.035793,0.2973659999999999
398,-0.222313,0.916095,-0.3336739999999999,-0.039147,-0.30382,0.346857
399,-0.215186,0.925364,-0.3120679999999999,-0.03933,-0.4235029999999999,0.328623
400,-0.210774,0.93433,-0.287388,0.021733,-0.569797,0.24326
401,-0.207676,0.943506,-0.25818,0.032611,-0.4964689999999999,0.208116
402,-0.20603,0.951803,-0.227181,0.009466,-0.423666,0.1751329999999999
403,-0.207903,0.958346,-0.195801,-0.005979,-0.348696,0.154328
404,-0.21399,0.962911,-0.1643119999999999,0.023346,-0.011556,0.028769
405,-0.2224179999999999,0.965809,-0.133159,0.031774,-0.014454,-0.002385
406,-0.229737,0.967544,-0.105193,0.080933,0.222412,-0.351442
407,-0.2335949999999999,0.968846,-0.082202,0.149412,0.165767,-0.48985
408,-0.232052,0.970539,-0.064747,0.064907,0.128018,-0.504131
409,-0.223252,0.973234,-0.054394,-0.043944,0.117189,-0.509495
410,-0.21193,0.976276,-0.044222,-0.100509,-0.073444,-0.353544
411,-0.203284,0.978578,-0.032322,-0.036416,-0.122118,-0.221721
412,-0.19679,0.980213,-0.021013,-0.038592,-0.0920899999999999,-0.1151109999999999
413,-0.194681,0.980846,-0.00505,0.0324189999999999,0.472325,0.520644
414,-0.194831,0.9807,0.015899,0.086128,0.376249,0.265412
415,-0.197839,0.979847,0.027274,0.011101,0.580914,-0.577659
416,-0.201452,0.979303,0.0191199999999999,0.087072,0.354147,0.137206
417,-0.2006089999999999,0.979524,0.016517,-0.115218,0.0342089999999999,0.426567
418,-0.196892,0.980189,0.021129,-0.644935,0.341481,-0.159267
419,-0.199036,0.979377,0.034476,-0.131912,0.386605,-0.110251
420,-0.20471,0.977974,0.040541,0.38571,0.280922,0.060792
421,-0.204067,0.977866,0.046027,0.369457,-0.081458,0.019327
422,-0.199708,0.978578,0.049849,0.209488,-0.192521,-0.166945
423,-0.195881,0.979191,0.052901,0.138614,-0.221134,-0.229674
424,-0.193545,0.979542,0.0549539999999999,0.131442,-0.306813,-0.301017
425,-0.192497,0.979851,0.0531059999999999,0.164772,-0.320457,-0.30454
426,-0.192452,0.980198,0.046437,0.153222,-0.265965,-0.372884
427,-0.193226,0.98044,0.037182,-0.170223,-0.152697,-0.172543
428,-0.1955329999999999,0.980414,0.023196,-0.135475,-0.216376,-0.101901
429,-0.19748,0.980295,0.002447,0.01503,-0.316309,-0.25913
430,-0.196989,0.980178,-0.020736,0.047346,-0.191558,-0.107392
431,-0.195241,0.979751,-0.044186,0.068822,-0.148803,-0.042468
432,-0.192531,0.978667,-0.071607,0.127407,-0.048781,-0.201235
433,-0.191425,0.975885,-0.104838,0.171192,0.135657,-0.055562
434,-0.1945859999999999,0.969844,-0.146715,0.233786,0.516713,-0.209746
435,-0.203028,0.959455,-0.195483,0.1174569999999999,0.7414729999999999,-0.0044979999999999
436,-0.2086059999999999,0.947705,-0.24151,0.141177,0.774219,0.114938
437,-0.212997,0.935809,-0.280862,0.021941,0.6539590000000001,0.027932
438,-0.215786,0.9247,-0.313617,-0.2088199999999999,0.3608989999999999,0.272892
439,-0.212855,0.915375,-0.341719,-0.328313,0.127289,0.366301
440,-0.214157,0.907784,-0.360632,-0.365753,-0.017312,0.302755
441,-0.214098,0.904272,-0.3693849999999999,-0.32025,0.043558,0.19371
442,-0.20958,0.905056,-0.370055,-0.101394,0.051014,0.129698
443,-0.204542,0.908443,-0.364535,-0.025744,-0.128291,0.174486
444,-0.2021619999999999,0.913156,-0.353931,-0.0171979999999999,-0.209482,0.2218659999999999
445,-0.201992,0.919667,-0.336752,-0.031865,-0.472127,0.302954
446,-0.2039119999999999,0.927432,-0.313496,-0.0165319999999999,-0.625644,0.341725
447,-0.2068989999999999,0.935969,-0.284858,-0.000193,-0.65655,0.316673
448,-0.210863,0.944186,-0.253058,0.04828,-0.644305,0.2289489999999999
449,-0.215977,0.951206,-0.220338,0.072499,-0.491276,0.157869
450,-0.226847,0.955429,-0.188902,0.130747,-0.164368,0.133741
451,-0.2401719999999999,0.957189,-0.1615349999999999,0.175123,-0.0066739999999999,0.0427
452,-0.25031,0.958745,-0.134686,0.20229,0.25854,-0.317325
453,-0.2540699999999999,0.961308,-0.106405,0.134929,0.261303,-0.36622
454,-0.248477,0.96487,-0.085273,0.071368,0.162068,-0.377923
455,-0.235867,0.968891,-0.074853,-0.0303529999999999,-0.07265,-0.530219
456,-0.221946,0.972827,-0.06583,-0.0377889999999999,-0.024844,-0.492749
457,-0.2077389999999999,0.976812,-0.0516519999999999,-0.061869,0.029062,-0.358382
458,-0.194172,0.980341,-0.034824,-0.177151,0.6750689999999999,0.66138
459,-0.183896,0.982691,-0.022024,-0.286624,0.463522,0.52445
460,-0.1775,0.98391,-0.019995,-0.462546,0.393501,-0.222025
461,-0.1839839999999999,0.982621,-0.024279,-0.009772,-0.0838179999999999,0.298662
462,-0.194003,0.980499,-0.031135,0.0513179999999999,-0.06343,0.4542
463,-0.1951369999999999,0.980502,-0.022846,-0.0250169999999999,0.15849,0.390918
464,-0.193135,0.98112,-0.009262,0.436818,0.761983,-0.023911
465,-0.188022,0.982156,-0.001571,0.486392,0.541572,-0.00026
466,-0.182321,0.983225,0.003352,0.121713,-0.127573,-0.007793
467,-0.180026,0.983631,0.0066359999999999,-0.11163,-0.243382,-0.049559
468,-0.180378,0.983437,0.017293,-0.138088,-0.3003619999999999,0.028377
469,-0.18335,0.982619,0.0287459999999999,0.124817,-0.19377,-0.028518
470,-0.18607,0.981876,0.035816,0.183903,-0.038272,-0.139393
471,-0.18719,0.981388,0.042691,0.127467,0.017178,-0.237759
472,-0.186329,0.981071,0.0525809999999999,0.03304,-0.098228,-0.126708
473,-0.185513,0.981001,0.056612,0.113599,-0.158614,-0.268862
474,-0.187636,0.980936,0.05042,0.0899799999999999,-0.148447,-0.340337
475,-0.190946,0.980867,0.037727,0.062132,-0.239366,-0.21093
476,-0.194959,0.980609,0.019521,0.051328,-0.200244,-0.126607
477,-0.199014,0.979988,-0.000727,0.109826,-0.086373,-0.2478389999999999
478,-0.199439,0.979623,-0.023389,0.074851,0.036063,-0.333117
479,-0.198008,0.978993,-0.048482,-0.019109,-0.120152,-0.0664169999999999
480,-0.1957799999999999,0.977789,-0.074724,-0.023229,-0.2480679999999999,-0.081587
481,-0.193964,0.975757,-0.1013049999999999,0.063486,-0.138064,-0.068877
482,-0.191558,0.972349,-0.133524,0.255629,0.298601,-0.2239429999999999
483,-0.191327,0.964679,-0.1810369999999999,0.188595,0.589382,-0.2929469999999999
484,-0.191685,0.953687,-0.23179,0.099843,0.712436,0.027536
485,-0.199906,0.937345,-0.285325,0.1934519999999999,0.781817,0.09842
486,-0.213065,0.918412,-0.333336,0.2388989999999999,0.738265,0.259773
487,-0.223572,0.900993,-0.371777,0.139817,0.232567,0.452877
488,-0.231653,0.888382,-0.396366,-0.2021089999999999,-0.19934,0.2719
489,-0.230566,0.8840040000000001,-0.406653,-0.315668,-0.24608,0.193213
490,-0.22298,0.886983,-0.404392,-0.155087,-0.0618789999999999,0.2314639999999999
491,-0.210285,0.894157,-0.395289,-0.077633,-0.237144,0.200846
492,-0.194724,0.904506,-0.379397,-0.0459069999999999,-0.329188,0.214709
493,-0.183657,0.916818,-0.354548,0.1348599999999999,-0.588571,0.34933
494,-0.1811,0.92877,-0.323385,0.144479,-0.6509229999999999,0.300726
495,-0.181554,0.940076,-0.288589,0.112508,-0.5585760000000001,0.190826
496,-0.182002,0.950986,-0.249979,0.074474,-0.422879,0.113337
497,-0.186419,0.959927,-0.20923,0.0577409999999999,-0.201351,0.108125
498,-0.196186,0.965596,-0.170651,0.002339,0.014277,0.054547
499,-0.207907,0.968585,-0.136398,-0.057535,0.261884,-0.098221
500,-0.216465,0.970147,-0.109288,-0.002255,0.280265,-0.31837
501,-0.2194989999999999,0.971551,-0.088854,0.028947,0.1535099999999999,-0.4473859999999999
502,-0.216782,0.973444,-0.073471,-0.031768,0.002493,-0.4744109999999999
503,-0.2084,0.976066,-0.062051,-0.153675,-0.200599,-0.28736
504,-0.198178,0.978857,-0.050492,-0.161136,-0.225744,-0.2369679999999999
505,-0.188604,0.981408,-0.035373,-0.1464339999999999,-0.216836,-0.126966
506,-0.183996,0.982777,-0.0166979999999999,-0.206934,0.517604,0.678304
507,-0.184567,0.982806,0.003314,-0.170398,0.556485,0.224194
508,-0.190364,0.981554,0.017231,-0.234807,0.669325,-0.473423
509,-0.199343,0.97991,0.004645,0.278093,0.185647,0.482782
510,-0.197967,0.980194,-0.003431,0.166855,-0.0504149999999999,0.537794
511,-0.190974,0.981586,-0.000682,-0.321965,0.019223,-0.087194
512,-0.1864829999999999,0.982393,0.010508,0.026861,0.503966,0.0723019999999999
513,-0.186095,0.982362,0.0177699999999999,0.245741,0.591888,0.090064
514,-0.183851,0.982616,0.025422,0.375242,0.128224,-0.08162
515,-0.1792089999999999,0.983245,0.033101,0.141184,-0.219527,-0.1802099999999999
516,-0.175417,0.983786,0.03709,0.021151,-0.420813,-0.191296
517,-0.17422,0.98401,0.036772,0.022059,-0.4331529999999999,-0.277129
518,-0.175976,0.98382,0.033351,0.059582,-0.257715,-0.398997
519,-0.179573,0.983317,0.028682,0.1193309999999999,-0.193476,-0.251323
520,-0.181838,0.983127,0.019458,-0.09871,-0.197863,-0.315341
521,-0.182085,0.983271,0.00211,-0.139143,-0.244853,-0.264744
522,-0.182546,0.983001,-0.019203,0.091222,-0.141845,-0.236
523,-0.180522,0.982572,-0.044113,0.144725,-0.129698,-0.201492
524,-0.175834,0.981741,-0.0724559999999999,0.028373,-0.13706,-0.251198
525,-0.170576,0.979655,-0.1056589999999999,0.002668,0.056737,-0.045175
526,-0.1684109999999999,0.97458,-0.147706,0.080719,0.478072,-0.194685
527,-0.174111,0.964136,-0.200281,0.218728,0.8256889999999999,-0.048589
528,-0.183622,0.949231,-0.255403,0.246961,1.025699,0.071916
529,-0.198341,0.931181,-0.305858,0.186501,0.946962,0.292476
530,-0.211653,0.91288,-0.349058,-0.067888,0.436241,0.5736060000000001
531,-0.216163,0.898191,-0.382773,-0.291131,-0.148893,0.3579469999999999
532,-0.2191949999999999,0.887339,-0.405674,-0.340146,-0.361964,0.298847
533,-0.215707,0.8840370000000001,-0.414654,-0.257712,-0.336048,0.373364
534,-0.2067679999999999,0.886763,-0.413386,-0.177005,-0.289046,0.362086
535,-0.193152,0.893267,-0.4059,0.00109,-0.30141,0.288072
536,-0.1782089999999999,0.903353,-0.390108,0.014421,-0.460574,0.363847
537,-0.170511,0.915501,-0.36438,0.014185,-0.568211,0.366181
538,-0.1708309999999999,0.927966,-0.331186,0.036782,-0.724276,0.282236
539,-0.173682,0.940451,-0.292186,0.097907,-0.657233,0.12495
540,-0.181671,0.951478,-0.248338,0.160263,-0.490266,0.034822
541,-0.19921,0.958376,-0.204494,0.158301,-0.049776,-0.032582
542,-0.221151,0.961706,-0.16186,0.107367,0.622416,-0.117086
543,-0.23825,0.961972,-0.1335309999999999,0.13153,0.69118,-0.497771
544,-0.243557,0.962999,-0.115316,0.123638,0.230086,-0.6569159999999999
545,-0.236008,0.966924,-0.0966539999999999,1.6e-05,-0.102621,-0.583324
546,-0.217657,0.972647,-0.081035,-0.246027,0.132181,-0.500005
547,-0.202237,0.977269,-0.063483,-0.379534,0.455837,0.447974
548,-0.197821,0.978955,-0.049967,-0.1809329999999999,0.302035,0.847147
549,-0.193528,0.979913,-0.04797,-0.146179,0.50051,-0.72768
550,-0.196842,0.978212,-0.065861,-0.049999,0.126814,-0.5859489999999999
551,-0.200926,0.976011,-0.083759,-0.168947,-0.070722,0.650409
552,-0.200432,0.976971,-0.073061,-0.356194,0.364002,0.476321
553,-0.205178,0.977158,-0.0552179999999999,-0.232947,0.7967529999999999,0.020215
554,-0.205944,0.977068,-0.0539399999999999,0.710674,0.11685,0.027772
555,-0.194998,0.979459,-0.051192,0.389868,-0.077115,-0.090196
556,-0.187301,0.981013,-0.05015,-0.091279,-0.326808,-0.097631
557,-0.186687,0.981339,-0.045893,-0.179997,-0.273422,0.0449009999999999
558,-0.191487,0.980519,-0.043562,-0.13145,-0.231892,-0.122865
559,-0.196752,0.979604,-0.040586,-0.088786,-0.078206,-0.354021
560,-0.198395,0.979144,-0.043585,-0.0660549999999999,-0.103183,-0.198923
561,-0.197324,0.978952,-0.0519559999999999,-0.033847,-0.177835,-0.126664
562,-0.194971,0.978646,-0.064975,0.077097,-0.145989,-0.272748
563,-0.190114,0.978548,-0.079276,0.061559,-0.22635,-0.1024559999999999
564,-0.185807,0.978118,-0.093513,0.010881,-0.200286,-0.019127
565,-0.18491,0.976575,-0.109973,0.139454,-0.11369,-0.012051
566,-0.186854,0.973946,-0.128448,0.276866,0.081962,-0.119996
567,-0.190685,0.969733,-0.152453,0.349758,0.436364,-0.178541
568,-0.1902849999999999,0.962452,-0.193556,0.207909,0.782803,-0.39728
569,-0.191923,0.94994,-0.246509,-0.102571,0.930554,0.053013
570,-0.206006,0.93055,-0.302696,-0.092288,0.754676,0.32975
571,-0.225128,0.909056,-0.350603,-0.101227,0.294862,0.748873
572,-0.230953,0.896309,-0.3785239999999999,-0.242207,-0.141441,0.376952
573,-0.224435,0.8926639999999999,-0.390857,-0.156668,-0.373224,0.2903929999999999
574,-0.221254,0.891985,-0.394207,-0.038298,-0.213335,0.364223
575,-0.216962,0.8963399999999999,-0.38664,-0.060153,-0.259881,0.3038
576,-0.2084949999999999,0.904848,-0.37117,-0.0542159999999999,-0.454256,0.319153
577,-0.197768,0.917135,-0.346033,0.0997,-0.6507310000000001,0.37768
578,-0.188543,0.931613,-0.310702,0.204168,-0.664935,0.369922
579,-0.183748,0.94467,-0.271698,0.203829,-0.613951,0.305558
580,-0.1860349999999999,0.954548,-0.232839,0.047943,-0.341206,0.082403
581,-0.193761,0.961482,-0.194918,0.036169,-0.113398,0.0334029999999999
582,-0.203361,0.96563,-0.161818,0.0347209999999999,0.010627,-0.0257279999999999
583,-0.213776,0.967357,-0.136026,0.051071,0.280736,-0.346061
584,-0.220466,0.968307,-0.117296,0.098365,0.224838,-0.630522
585,-0.220202,0.970813,-0.094947,0.184024,-0.077609,-0.4950489999999999
586,-0.214389,0.974069,-0.072177,0.12752,-0.154092,-0.287625
587,-0.2056909999999999,0.977021,-0.055699,-0.222028,0.2367389999999999,-0.071223
588,-0.19897,0.97922,-0.038984,-0.45728,0.942639,0.414381
589,-0.196417,0.98017,-0.025837,-0.174219,0.634622,-0.123364
590,-0.1915079999999999,0.981252,-0.021207,0.068263,0.328226,-0.696749
591,-0.1885359999999999,0.981485,-0.033504,-0.213655,0.210486,0.171047
592,-0.190241,0.980738,-0.044079,-0.323873,0.073034,0.4097409999999999
593,-0.196207,0.979824,-0.0377959999999999,-0.002691,0.458927,0.199799
594,-0.20505,0.978412,-0.025386,0.292437,0.599438,0.16685
595,-0.2077889999999999,0.978054,-0.014653,0.5067689999999999,0.562763,0.139424
596,-0.20359,0.979031,-0.005452,0.311301,-0.158367,-0.196971
597,-0.197957,0.980199,-0.001993,0.215398,-0.348576,-0.170446
598,-0.193108,0.981167,0.000411,0.121941,-0.479184,-0.113219
599,-0.191503,0.981477,0.00293,-0.282481,-0.139345,-0.146149
600,-0.195967,0.98059,0.0043479999999999,-0.2696699999999999,0.009003,-0.160369
601,-0.204285,0.97889,0.004629,0.116288,-0.2073289999999999,-0.2269489999999999
602,-0.2104639999999999,0.977588,0.002567,0.292724,-0.373264,-0.057072
603,-0.2123989999999999,0.977159,-0.005287,0.288326,-0.390229,-0.027062
604,-0.213533,0.976824,-0.014125,0.300356,-0.210192,-0.055821
605,-0.2134469999999999,0.976663,-0.023475,0.289634,-0.06611,-0.217217
606,-0.21145,0.976741,-0.035318,0.2437219999999999,-0.033686,-0.302359
607,-0.209351,0.976642,-0.048193,0.095474,-0.024845,-0.225397
608,-0.2085429999999999,0.975703,-0.067047,0.044633,0.068334,-0.36496
609,-0.209098,0.972912,-0.098493,-0.02427,0.447483,-0.445467
610,-0.211364,0.966606,-0.144846,-0.080933,0.604256,-0.212637
611,-0.216451,0.956053,-0.1977269999999999,-0.039012,0.675615,0.046375
612,-0.225298,0.941139,-0.251959,0.218203,0.6333850000000001,0.190802
613,-0.2371719999999999,0.9258,-0.294328,0.256718,0.448528,0.480821
614,-0.240761,0.915761,-0.321561,-0.008461,0.250529,0.393751
615,-0.240186,0.908902,-0.340871,-0.277225,0.000445,0.24706
616,-0.2397099999999999,0.904743,-0.352086,-0.383795,-0.089741,0.280538
617,-0.238802,0.903717,-0.355325,-0.21655,-0.128967,0.320764
618,-0.234816,0.906358,-0.351229,-0.087297,-0.124055,0.330706
619,-0.229372,0.912646,-0.338308,-0.010114,-0.231264,0.392843
620,-0.224242,0.92197,-0.315711,0.0493,-0.367374,0.370459
621,-0.222471,0.931806,-0.286756,0.042631,-0.534879,0.30029
622,-0.22246,0.941584,-0.252817,0.09714,-0.6390020000000001,0.22532
623,-0.222079,0.951061,-0.2148179999999999,0.1132079999999999,-0.598217,0.154378
624,-0.225829,0.958263,-0.175257,0.0906059999999999,-0.53059,0.134974
625,-0.234948,0.962285,-0.137075,-0.008323,-0.166798,0.1239059999999999
626,-0.243659,0.964304,-0.1035869999999999,0.023734,0.00788,0.0229599999999999
627,-0.251952,0.96493,-0.0735649999999999,0.044799,0.075934,-0.090391
628,-0.257569,0.96527,-0.043498,0.04448,0.1687789999999999,-0.498464
629,-0.256296,0.966424,-0.017762,-0.099402,0.079566,-0.66252
630,-0.249432,0.96836,-0.0063869999999999,-0.306842,-0.027457,-0.544333
631,-0.2394389999999999,0.9709,0.000572,-0.346269,-0.102736,-0.478645
632,-0.230015,0.973107,0.011536,-0.24026,0.390571,0.102417
633,-0.22725,0.973374,0.029639,-0.147445,0.585845,0.36857
634,-0.2323239999999999,0.971084,0.0547669999999999,0.045862,0.59015,0.420285
635,-0.240339,0.967839,0.07418,0.364667,0.4302939999999999,-0.5116649999999999
636,-0.24828,0.966405,0.066297,0.290089,0.417155,-0.42111
637,-0.253176,0.965881,0.054351,0.2234219999999999,0.179871,-0.026732
638,-0.251194,0.966664,0.0493889999999999,-0.390728,0.503734,-0.101223
639,-0.249052,0.966603,0.060242,-0.416902,0.878765,-0.2217719999999999
640,-0.252672,0.964601,0.075349,-0.048124,0.891157,-0.291948
641,-0.2585719999999999,0.962474,0.082227,0.331784,-0.032679,0.08594
642,-0.260949,0.961223,0.089067,0.201287,-0.1064859999999999,0.010527
643,-0.262812,0.959669,0.099705,-0.002905,-0.146589,-0.037327
644,-0.268784,0.956987,0.109118,0.072556,-0.0680559999999999,-0.187411
645,-0.27704,0.953979,0.114668,0.1019299999999999,-0.075607,-0.22064
646,-0.285912,0.950686,0.1201119999999999,0.093331,-0.242877,-0.262751
647,-0.296547,0.946745,0.125341,0.139946,-0.235868,-0.055913
648,-0.31099,0.941498,0.129778,0.180924,-0.1787109999999999,0.0016309999999999
649,-0.327345,0.935224,0.134818,0.230986,-0.118894,-0.0473699999999999
650,-0.343844,0.92868,0.138925,0.362994,-0.032699,-0.290719
651,-0.360614,0.92204,0.140622,0.392703,0.001071,-0.145337
652,-0.376271,0.915613,0.141587,0.4614,0.156851,-0.287735
653,-0.39203,0.909622,0.137381,0.452867,0.199142,-0.621787
654,-0.407958,0.904034,0.127542,0.301528,0.100879,-0.530695
655,-0.423514,0.898115,0.118313,0.302131,0.043077,-0.232678
656,-0.440115,0.8911959999999999,0.109739,0.3067539999999999,0.000925,-0.2388289999999999
657,-0.4585359999999999,0.8833549999999999,0.096968,0.294855,0.086463,-0.279493
658,-0.472209,0.878374,0.07385,0.388164,0.674986,-0.188383
659,-0.473469,0.879958,0.038455,0.442524,0.7499100000000001,0.0463839999999999
660,-0.4602449999999999,0.887777,-0.002179,0.333475,0.628901,0.475095
661,-0.43837,0.897749,-0.043085,0.133698,0.619478,0.433771
662,-0.41031,0.908201,-0.082437,-0.016387,1.029955,-0.0346589999999999
663,-0.379315,0.917623,-0.1186069999999999,0.016644,1.278528,-0.088409
664,-0.349915,0.924422,-0.151604,0.272309,0.563401,0.299203
665,-0.317656,0.932904,-0.169603,0.3405289999999999,0.40137,0.388673
666,-0.282286,0.942513,-0.178787,0.352415,0.312476,0.567321
667,-0.256826,0.94754,-0.190235,0.4291439999999999,0.150833,0.6299170000000001
668,-0.246021,0.946904,-0.206947,0.290928,0.041041,0.592201
669,-0.2403989999999999,0.944961,-0.2218969999999999,0.040387,-0.153824,0.6192810000000001
670,-0.238471,0.942851,-0.2326929999999999,-0.13749,-0.50326,0.632885
671,-0.235851,0.941678,-0.239999,-0.2215,-0.6949890000000001,0.5544359999999999
672,-0.2313909999999999,0.942472,-0.241222,-0.140099,-0.763502,0.4630689999999999
673,-0.2238659999999999,0.94592,-0.23474,-0.08224,-0.617306,0.3743579999999999
674,-0.218965,0.950908,-0.21866,-0.1285849999999999,-0.390544,0.347292
675,-0.213979,0.956333,-0.1990549999999999,-0.211848,-0.105808,-0.002803
676,-0.204403,0.961468,-0.183795,-0.324391,0.188876,-0.507383
677,-0.198511,0.962968,-0.182397,-0.3003139999999999,0.507888,-0.927314
678,-0.203766,0.957269,-0.20518,-0.283676,0.734794,-0.8632549999999999
679,-0.204837,0.950801,-0.2323849999999999,0.23595,0.4404189999999999,-0.5236270000000001
680,-0.202045,0.946219,-0.2526489999999999,0.2319369999999999,-0.290534,-0.086234
681,-0.19769,0.943797,-0.26486,0.099957,-0.495509,-0.211932
682,-0.189657,0.94491,-0.266757,0.317266,0.190435,0.267673
683,-0.187621,0.951039,-0.245575,-0.026842,0.947627,1.165345
684,-0.20202,0.945358,-0.255872,-0.80416,0.791718,0.669309
685,-0.22512,0.931696,-0.28504,-0.62954,-0.451426,0.401296
686,-0.244925,0.935227,-0.255628,0.110663,-0.8456739999999999,0.743268
687,-0.255361,0.946456,-0.197472,0.223653,-0.369673,0.833199
688,-0.261256,0.955836,-0.1345559999999999,0.31428,0.203573,0.88094
689,-0.264623,0.95964,-0.095108,0.497793,0.604233,0.340439
690,-0.27505,0.957255,-0.089394,0.4408979999999999,0.625753,-0.062645
691,-0.283865,0.954984,-0.086066,0.415426,0.5932029999999999,-0.321298
692,-0.2857409999999999,0.95681,-0.05336,-0.120799,-0.134819,0.246171
693,-0.27908,0.96016,-0.013651,-0.221759,-0.167985,0.17927
694,-0.275995,0.961043,0.014204,-0.235434,-0.159331,0.04323
695,-0.28198,0.958693,0.03706,0.129423,-0.096053,-0.066372
696,-0.292276,0.954228,0.063251,0.289483,-0.084813,-0.09386
697,-0.301253,0.949533,0.087233,0.287367,-0.051569,-0.0565779999999999
698,-0.307519,0.94527,0.108963,0.137597,-0.0239449999999999,0.0244139999999999
699,-0.3120989999999999,0.940898,0.131459,0.087474,-0.004542,0.018566
700,-0.317722,0.935665,0.153489,0.05135,-0.00375,-0.109757
701,-0.325449,0.92927,0.1746859999999999,0.086435,0.015035,-0.192447
702,-0.334414,0.921902,0.195543,0.1650569999999999,0.188907,-0.1759359999999999
703,-0.345516,0.913995,0.212614,0.289516,0.331488,-0.231382
704,-0.35627,0.907871,0.220941,0.257424,0.329449,-0.352746
705,-0.364535,0.90392,0.2236409999999999,0.138247,0.28126,-0.464287
706,-0.369934,0.902155,0.221901,0.267136,0.193945,-0.361412
707,-0.381139,0.9002600000000001,0.210332,0.4995779999999999,0.260827,-0.422749
708,-0.393865,0.8986040000000001,0.19328,0.468938,0.274751,-0.362653
709,-0.404151,0.899385,0.166568,0.298194,0.4891189999999999,-0.34003
710,-0.411125,0.902299,0.129653,0.114265,0.387481,-0.31343
711,-0.4152939999999999,0.905849,0.083343,0.125454,0.356725,-0.020096
712,-0.411127,0.910704,0.039635,0.445627,0.432832,0.458671
713,-0.399567,0.916692,-0.001172,0.355728,0.262522,0.2469449999999999
714,-0.379392,0.92423,-0.042913,0.175703,0.414622,0.173452
715,-0.357356,0.930419,-0.08123,-0.216725,0.5378430000000001,0.240394
716,-0.337478,0.933557,-0.120673,-0.109864,0.191184,0.3670719999999999
717,-0.316394,0.93476,-0.1615579999999999,-0.009122,0.135644,0.467512
718,-0.291715,0.936674,-0.193721,0.232633,0.18416,0.3492989999999999
719,-0.266754,0.940258,-0.2115199999999999,0.351913,0.060703,0.456012
720,-0.24225,0.941653,-0.233642,0.3708349999999999,0.056607,0.402129
721,-0.222003,0.942121,-0.251212,0.327838,0.01372,0.447776
722,-0.209581,0.940147,-0.268671,0.290559,0.011391,0.559702
723,-0.204679,0.935941,-0.286542,0.234494,0.025347,0.649487
724,-0.203009,0.932474,-0.298772,0.073721,-0.0408269999999999,0.66393
725,-0.202102,0.929707,-0.307872,-0.1017309999999999,-0.185887,0.532802
726,-0.200182,0.927943,-0.314379,-0.216276,-0.258128,0.390536
727,-0.192207,0.929191,-0.315667,-0.122216,-0.288688,0.336129
728,-0.180206,0.932974,-0.311562,-0.076325,-0.330374,0.285423
729,-0.167356,0.938168,-0.303014,-0.064456,-0.294141,0.251958
730,-0.15936,0.943583,-0.290242,-0.051669,-0.1680849999999999,0.271917
731,-0.1577859999999999,0.94888,-0.273341,-0.032415,-0.116558,0.359691
732,-0.158518,0.95382,-0.255114,-0.0580039999999999,-0.117959,0.350481
733,-0.160472,0.958241,-0.236657,-0.084249,0.021648,0.02044
734,-0.162418,0.961909,-0.219848,0.005634,0.244084,-0.329438
735,-0.160149,0.964232,-0.211168,0.03457,0.357637,-0.485411
736,-0.156543,0.964094,-0.214475,-0.2293059999999999,0.511111,-0.601183
737,-0.154095,0.963382,-0.219388,-0.134967,0.251644,-0.366977
738,-0.1481289999999999,0.963111,-0.224625,0.010067,-0.100883,0.100953
739,-0.137689,0.963517,-0.2294739999999999,-0.111533,0.0067129999999999,0.2172369999999999
740,-0.131078,0.96714,-0.21781,-0.082606,0.308114,0.660208
741,-0.13247,0.967648,-0.214686,-0.281974,0.373019,0.227305
742,-0.146669,0.961241,-0.233423,-0.441328,0.254839,0.049768
743,-0.165598,0.958324,-0.232755,0.205118,-0.432949,0.6664100000000001
744,-0.178544,0.962767,-0.2029359999999999,0.335313,-0.226546,0.508783
745,-0.182622,0.967705,-0.173718,0.4306689999999999,0.022759,0.478558
746,-0.185867,0.969593,-0.159134,0.01091,0.416027,0.211823
747,-0.189487,0.969157,-0.1575109999999999,-0.069546,0.368612,0.06251
748,-0.193855,0.969251,-0.151501,-0.118309,0.246294,-0.030872
749,-0.196492,0.971343,-0.133654,-0.180034,-0.27864,0.053912
750,-0.19775,0.974017,-0.110292,-0.1403849999999999,-0.268146,0.033067
751,-0.200538,0.975583,-0.089445,0.027183,-0.006925,-0.015627
752,-0.20456,0.976377,-0.069435,0.125016,0.010775,-0.002587
753,-0.2081619999999999,0.976899,-0.048101,0.1572579999999999,-0.181901,0.035558
754,-0.211916,0.976752,-0.031988,0.165453,-0.083442,-0.181498
755,-0.21769,0.975816,-0.01924,0.280114,0.076231,-0.310564
756,-0.222598,0.974855,-0.009218,0.360766,0.113448,-0.221525
757,-0.2239989999999999,0.974562,-0.005467,0.221359,0.1055619999999999,-0.2271989999999999
758,-0.2231929999999999,0.974726,-0.008391,0.072055,-0.0418339999999999,-0.235811
759,-0.2231119999999999,0.974626,-0.017377,-0.0113239999999999,-0.123475,-0.203204
760,-0.224377,0.974118,-0.026945,-0.048817,-0.346142,-0.03763
761,-0.228859,0.972585,-0.040962,-0.020347,-0.197515,-0.2061079999999999
762,-0.234904,0.970376,-0.056286,0.059947,0.003974,-0.052662
763,-0.238875,0.968405,-0.07147,0.2338239999999999,0.066553,0.0204449999999999
764,-0.2375659999999999,0.96751,-0.086392,0.348727,0.004368,-0.058307
765,-0.228649,0.96748,-0.108076,0.245525,-0.002178,-0.247744
766,-0.215385,0.967252,-0.13421,0.0649179999999999,-0.026517,-0.079032
767,-0.201989,0.964772,-0.16851,0.035546,-0.124928,-0.078164
768,-0.193573,0.957239,-0.21495,0.032684,-0.101649,-0.085252
769,-0.197027,0.940627,-0.2763739999999999,-0.025431,0.08191,0.1206119999999999
770,-0.2051219999999999,0.916854,-0.342474,-0.0771039999999999,0.203782,0.4297689999999999
771,-0.215938,0.890875,-0.399621,-0.04366,0.296869,0.639001
772,-0.2093199999999999,0.87351,-0.4394899999999999,0.071808,0.574198,0.374274
773,-0.192041,0.861549,-0.469937,-0.052633,0.098794,0.509686
774,-0.174792,0.852462,-0.492689,-0.100538,-0.12445,0.586241
775,-0.1610619999999999,0.8484450000000001,-0.50417,-0.154032,-0.2846329999999999,0.549717
776,-0.145216,0.852894,-0.5014689999999999,-0.236406,-0.275028,0.248128
777,-0.127202,0.866934,-0.481904,-0.232844,-0.26824,0.215027
778,-0.115682,0.886626,-0.44777,-0.079707,-0.239363,0.222901
779,-0.117567,0.906425,-0.405654,-0.048647,-0.182304,0.187072
780,-0.1328,0.924335,-0.357703,-0.040555,-0.144398,0.106696
781,-0.155651,0.940426,-0.302249,0.038951,0.0192759999999999,0.044436
782,-0.178575,0.952599,-0.2462639999999999,0.0320149999999999,0.325416,0.036898
783,-0.196363,0.960076,-0.199187,0.059217,0.490928,-0.025651
784,-0.205873,0.964455,-0.165594,0.2295699999999999,0.167961,-0.276438
785,-0.205307,0.969565,-0.1333069999999999,0.2434989999999999,-0.1630309999999999,-0.3274019999999999
786,-0.1932019999999999,0.975893,-0.101406,0.135402,-0.449205,-0.250294
787,-0.174005,0.982256,-0.0698049999999999,-0.117789,-0.57982,-0.211598
788,-0.160073,0.986136,-0.0434439999999999,-0.292823,-0.427695,0.175402
789,-0.154408,0.987561,-0.029267,-0.407223,-0.049481,0.172364
790,-0.153937,0.987773,-0.024148,-0.417764,0.612599,-0.387778
791,-0.162064,0.986265,-0.031476,0.326737,0.6671159999999999,-0.897784
792,-0.16395,0.985465,-0.044206,0.349451,0.142037,0.328218
793,-0.160169,0.984929,-0.065094,-0.323611,0.557796,0.463074
794,-0.161855,0.983083,-0.0856059999999999,0.389669,0.596126,-0.0274769999999999
795,-0.162009,0.981527,-0.1016649999999999,0.323401,-0.0885519999999999,0.67152
796,-0.159923,0.981665,-0.103615,0.310405,-0.374289,-0.039497
797,-0.164093,0.981858,-0.0949049999999999,0.04216,0.352478,-0.169347
798,-0.163679,0.982472,-0.089083,0.023542,1.047298,-0.480864
799,-0.155126,0.983826,-0.089445,-0.0270029999999999,0.442322,-0.7799550000000001
800,-0.144352,0.984451,-0.099982,-0.366604,-0.1115869999999999,-0.27337
801,-0.139132,0.982167,-0.126368,-0.392957,-0.29691,-0.236563
802,-0.139738,0.976463,-0.16423,-0.276018,-0.397499,-0.00853
803,-0.139993,0.967984,-0.2083,-0.070105,-0.484616,0.274065
804,-0.139879,0.955267,-0.2605369999999999,0.055544,-0.372793,0.233483
805,-0.145941,0.939611,-0.309539,0.0658779999999999,-0.250875,0.7480760000000001
806,-0.153774,0.923987,-0.350123,0.110729,-0.318899,0.764261
807,-0.159479,0.907008,-0.389728,-0.0016079999999999,-0.109416,0.275348
808,-0.161483,0.8917809999999999,-0.422654,-0.1527869999999999,0.3961369999999999,0.484254
809,-0.155763,0.884917,-0.438916,-0.17044,0.244829,0.459729
810,-0.137869,0.885234,-0.444229,-0.005808,-0.0457259999999999,0.318893
811,-0.120957,0.889393,-0.4408359999999999,-0.095489,-0.265553,0.280039
812,-0.108339,0.898381,-0.425629,-0.29193,-0.340596,0.319855
813,-0.103804,0.910756,-0.3996659999999999,-0.424226,-0.128499,0.242134
814,-0.108423,0.926425,-0.360508,-0.1975309999999999,-0.0151849999999999,-0.009487
815,-0.124331,0.942717,-0.309533,0.155947,0.079134,-0.231559
816,-0.14987,0.955003,-0.255911,0.373579,0.460189,-0.292078
817,-0.170919,0.962707,-0.2096719999999999,0.519079,0.597046,-0.324752
818,-0.178018,0.967957,-0.177058,0.505578,0.024994,-0.346104
819,-0.175958,0.973149,-0.148325,0.501946,-0.211552,-0.254782
820,-0.1670309999999999,0.978837,-0.118141,0.4735649999999999,-0.7450720000000001,0.110679
821,-0.152471,0.984267,-0.089158,0.171545,-0.901717,0.4337319999999999
822,-0.136294,0.988371,-0.067257,-0.143354,-0.646803,0.4262359999999999
823,-0.123136,0.990812,-0.055741,-0.841173,0.362292,-0.437774
824,-0.123763,0.990133,-0.065558,-0.643053,1.615962,-2.048669
825,-0.138342,0.985266,-0.100457,-0.218714,0.244715,0.263375
826,-0.137504,0.986108,-0.093078,-0.308236,0.241676,0.930129
827,-0.142096,0.983937,-0.107969,-0.284555,0.689357,-0.359591
828,-0.150302,0.978796,-0.139101,0.77582,0.871928,-0.265806
829,-0.139946,0.979326,-0.146001,0.734322,0.126921,-0.014537
830,-0.132903,0.977952,-0.161021,0.2195119999999999,-0.017259,-0.409307
831,-0.13222,0.975325,-0.176747,0.006182,0.0968639999999999,-0.124797
832,-0.133991,0.971931,-0.1933339999999999,-0.206738,0.33445,-0.265834
833,-0.132684,0.968145,-0.2123,-0.3154969999999999,-0.107626,-0.03831
834,-0.12542,0.96235,-0.241113,-0.2650369999999999,-0.327798,-0.115348
835,-0.122626,0.950281,-0.286203,-0.201547,-0.272974,-0.142218
836,-0.123884,0.933091,-0.337609,-0.128618,-0.32071,0.515129
837,-0.1264539999999999,0.914021,-0.385437,-0.073589,-0.322087,0.711395
838,-0.131001,0.8961319999999999,-0.423997,-0.041073,-0.382735,0.853699
839,-0.128113,0.880547,-0.456304,-0.011719,-0.5013810000000001,0.430135
840,-0.1221619999999999,0.869482,-0.4786069999999999,0.034104,-0.310202,0.382416
841,-0.1166619999999999,0.8627229999999999,-0.4920229999999999,0.001016,0.33645,0.554249
842,-0.102014,0.865562,-0.4902899999999999,-0.143789,0.413902,0.166742
843,-0.0912549999999999,0.874869,-0.475674,-0.051369,0.27839,0.1453819999999999
844,-0.09786,0.8865799999999999,-0.452092,-0.0166419999999999,0.119874,0.18607
845,-0.109411,0.90284,-0.415809,-0.239695,-0.285042,0.0119849999999999
846,-0.121341,0.922369,-0.36674,-0.1423309999999999,-0.30036,-0.0744679999999999
847,-0.137815,0.941003,-0.30904,-0.054461,-0.232156,-0.129589
848,-0.1625049999999999,0.954363,-0.250533,-0.0387589999999999,0.72151,0.030868
849,-0.180662,0.962503,-0.202317,0.024,0.775961,-0.051223
850,-0.187004,0.968798,-0.162613,0.235481,-0.1948869999999999,-0.338867
851,-0.1868119999999999,0.97388,-0.128997,0.278624,-0.608997,-0.33516
852,-0.180864,0.978073,-0.103163,0.517595,-0.818329,-0.113955
853,-0.170907,0.981783,-0.082911,0.352028,-0.73018,0.2798719999999999
854,-0.1582869999999999,0.984977,-0.0688889999999999,-0.162514,-0.328513,0.432399
855,-0.146519,0.987032,-0.065423,-0.509502,-0.134889,0.133081
856,-0.151075,0.984882,-0.084637,-0.482379,1.168407,-1.609668
857,-0.166029,0.980182,-0.107977,0.174009,0.064816,0.710303
858,-0.157959,0.982389,-0.099703,0.236679,0.037828,1.164919
859,-0.151201,0.982194,-0.111417,0.5426810000000001,1.465468,-0.688174
860,-0.135937,0.984047,-0.114693,0.6133390000000001,0.819435,-0.034141
861,-0.1141609999999999,0.9871,-0.112167,0.376353,0.285971,-0.125488
862,-0.108617,0.985419,-0.130896,-0.16894,0.11564,-0.5677270000000001
863,-0.1157609999999999,0.980685,-0.157606,-0.28318,0.215711,-0.163226
864,-0.1212309999999999,0.973289,-0.194924,-0.290055,0.2264179999999999,-0.250678
865,-0.115772,0.964636,-0.236769,-0.389432,-0.116613,-0.12079
866,-0.0958,0.953737,-0.284945,-0.157694,-0.191072,0.008517
867,-0.075324,0.937757,-0.339006,-0.010797,-0.254285,0.514269
868,-0.064696,0.918418,-0.390271,0.093657,-0.2453219999999999,0.960186
869,-0.063688,0.8964549999999999,-0.438521,0.108564,-0.4686439999999999,0.732375
870,-0.056173,0.872086,-0.486106,-0.0964759999999999,-0.649766,0.330024
871,-0.054902,0.855181,-0.515405,-0.2239219999999999,-0.104555,0.6099939999999999
872,-0.054087,0.8485870000000001,-0.526275,-0.0764519999999999,0.230133,0.550933
873,-0.048505,0.850879,-0.523108,0.009641,0.017605,0.35578
874,-0.044126,0.86115,-0.506421,-0.104967,-0.334859,0.274015
875,-0.042297,0.879426,-0.474141,-0.2574619999999999,-0.334229,0.2974449999999999
876,-0.04478,0.906022,-0.4208409999999999,-0.303716,-0.291688,0.2370489999999999
877,-0.065433,0.932748,-0.354522,-0.279492,-0.041742,0.038573
878,-0.102871,0.952568,-0.286386,0.0510829999999999,0.498436,-0.068579
879,-0.130088,0.96551,-0.225504,0.556236,1.294683,-0.132147
880,-0.132878,0.974846,-0.178892,1.008015,0.442345,-0.412386
881,-0.123398,0.982544,-0.139149,0.588119,-0.255249,-0.394741
882,-0.109375,0.988082,-0.108222,0.216629,-0.59732,-0.183663
883,-0.096554,0.991405,-0.088175,-0.167865,-0.5704600000000001,0.017725
884,-0.086995,0.992909,-0.080894,-0.641139,-0.082249,0.029563
885,-0.084512,0.99232,-0.0902179999999999,-0.969123,0.383306,-0.872612
886,-0.101899,0.987861,-0.117169,-0.5288689999999999,0.2500239999999999,-0.622394
887,-0.114126,0.985531,-0.125237,0.0378779999999999,0.090305,0.80909
888,-0.119782,0.985078,-0.123509,0.025116,0.5400229999999999,0.834218
889,-0.115996,0.985273,-0.125555,0.831191,1.148166,-0.333963
890,-0.098591,0.987686,-0.121399,0.676838,0.796754,-0.37175
891,-0.092302,0.988267,-0.12161,0.280016,0.172728,0.0918399999999999
892,-0.098907,0.985023,-0.141164,-0.007843,0.338967,-0.677653
893,-0.105057,0.980516,-0.165932,-0.325759,0.414168,-0.322167
894,-0.105986,0.974278,-0.198828,-0.5498069999999999,-0.169743,-0.29107
895,-0.106706,0.965234,-0.238581,-0.331832,-0.555475,0.214914
896,-0.104817,0.952829,-0.284807,-0.141368,-0.629602,0.207139
897,-0.101999,0.93903,-0.328336,-0.027014,-0.5193369999999999,0.504499
898,-0.100255,0.924965,-0.3665719999999999,0.032796,-0.478096,0.71348
899,-0.102567,0.912851,-0.395183,0.054288,-0.459574,0.459575
900,-0.1040349999999999,0.89889,-0.42563,0.1471569999999999,-0.142253,0.298036
901,-0.106323,0.8856149999999999,-0.452074,-0.003952,0.384207,0.6891649999999999
902,-0.0974169999999999,0.8801549999999999,-0.464571,-0.128275,0.403704,0.294588
903,-0.084627,0.8832059999999999,-0.4612739999999999,-0.063841,0.212344,0.150834
904,-0.078048,0.892339,-0.444554,-0.117585,-0.165776,0.19254
905,-0.083267,0.904352,-0.41857,-0.291505,-0.2158909999999999,0.31745
906,-0.101615,0.9168,-0.386185,-0.4965449999999999,-0.243842,0.296432
907,-0.125452,0.931044,-0.342643,-0.37351,-0.042433,0.189613
908,-0.152539,0.944484,-0.290975,-0.048267,0.416005,-0.1166789999999999
909,-0.181902,0.953069,-0.24198,0.456637,0.665141,-0.461755
910,-0.196021,0.960116,-0.199338,0.867576,0.090544,-0.648105
911,-0.186573,0.969469,-0.159068,0.999226,-0.516634,-0.363927
912,-0.165373,0.979026,-0.1189119999999999,0.8910959999999999,-0.8818280000000001,0.059159
913,-0.14405,0.98536,-0.091079,0.129798,-0.5328609999999999,0.8391559999999999
914,-0.128365,0.986902,-0.097607,-1.010917,0.160681,-0.5252720000000001
915,-0.128385,0.983231,-0.129439,-1.7193470000000002,1.477782,-2.064333
916,-0.151519,0.977751,-0.145004,-0.132645,0.336107,-0.09613
917,-0.148989,0.978194,-0.144636,0.222765,-0.214523,1.257917
918,-0.146784,0.975717,-0.162522,0.22671,-0.2429739999999999,1.091294
919,-0.144474,0.974152,-0.173601,0.622516,1.747375,-0.752318
920,-0.13637,0.975357,-0.173394,0.394716,0.492676,0.355142
921,-0.139865,0.972387,-0.186774,0.145709,0.155604,-0.379494
922,-0.150491,0.968373,-0.198971,0.071725,0.361644,-0.08855
923,-0.154066,0.964966,-0.212339,-0.132449,0.467529,-0.321185
924,-0.149952,0.962136,-0.227582,-0.246319,0.144188,-0.196353
925,-0.141999,0.95743,-0.251294,-0.190581,-0.090563,-0.2511469999999999
926,-0.132153,0.949439,-0.284759,0.05267,-0.189795,0.0823049999999999
927,-0.123731,0.937222,-0.326025,0.095381,-0.200512,0.272497
928,-0.120512,0.921852,-0.368311,0.087049,-0.2342139999999999,0.534296
929,-0.1216839999999999,0.9086,-0.399532,0.0947669999999999,-0.562912,0.8253440000000001
930,-0.124731,0.8937780000000001,-0.430803,0.122625,-0.693476,0.656405
931,-0.130313,0.876569,-0.463286,0.11037,-0.7863439999999999,0.4145649999999999
932,-0.142981,0.864241,-0.4823189999999999,-0.2484829999999999,-0.090484,0.62064
933,-0.143477,0.861504,-0.487046,-0.252275,0.116645,0.612061
934,-0.136571,0.8668319999999999,-0.479519,-0.197413,0.253575,0.510434
935,-0.131279,0.877851,-0.460577,-0.258278,0.033282,0.4205689999999999
936,-0.132582,0.89413,-0.427717,-0.432909,0.083821,0.357023
937,-0.1398589999999999,0.914305,-0.380096,-0.449496,0.064913,0.180404
938,-0.163357,0.932177,-0.323027,0.135541,0.376066,-0.326463
939,-0.197413,0.943788,-0.265098,0.2674809999999999,0.653776,-0.345574
940,-0.214135,0.953615,-0.2115389999999999,0.396325,0.8570540000000001,-0.3135159999999999
941,-0.205317,0.964836,-0.164069,0.052012,-0.086632,-0.150278
942,-0.18174,0.975437,-0.124404,-0.084129,-0.2453949999999999,-0.2393199999999999
943,-0.163935,0.982549,-0.087775,-0.133444,-0.426381,-0.33407
944,-0.1572069999999999,0.985477,-0.0640429999999999,0.343487,-0.38303,-0.30319
945,-0.153905,0.986836,-0.049496,0.1287589999999999,-0.049824,0.718533
946,-0.152146,0.98771,-0.03553,-0.452987,0.497764,-0.0319589999999999
947,-0.160139,0.986196,-0.041881,-0.704882,0.7325689999999999,-1.407231
948,-0.173301,0.9829,-0.062097,-0.243325,0.127421,0.250528
949,-0.174793,0.98246,-0.064818,-0.248105,0.253716,0.640227
950,-0.1803,0.98186,-0.058512,-0.205976,1.012006,-0.183706
951,-0.185663,0.981602,-0.044349,0.357111,0.8762469999999999,0.030769
952,-0.185764,0.982124,-0.030091,0.537342,0.1380549999999999,0.147614
953,-0.1896,0.98154,-0.024735,0.157068,0.0023769999999999,-0.184219
954,-0.198933,0.979734,-0.022986,-0.020381,0.047137,-0.313562
955,-0.211813,0.977136,-0.017933,-0.262781,0.191382,-0.4157979999999999
956,-0.228789,0.973343,-0.015474,-0.1430519999999999,-0.018372,-0.096586
957,-0.2476699999999999,0.968714,-0.015267,-0.0080069999999999,-0.09582,-0.157402
958,-0.268788,0.963046,-0.016622,0.362828,-0.043414,0.074025
959,-0.289753,0.95692,-0.018099,0.545261,-0.104595,-0.068448
960,-0.3074639999999999,0.951338,-0.020038,0.576659,-0.194106,-0.109052
961,-0.324154,0.94575,-0.02148,0.3186,-0.143458,-0.318943
962,-0.338029,0.940785,-0.025282,0.250459,-0.132009,-0.405154
963,-0.352574,0.934899,-0.0404519999999999,0.112568,-0.158089,-0.625884
964,-0.371185,0.926042,-0.06819,0.087387,-0.051362,-0.2561199999999999
965,-0.3885909999999999,0.915545,-0.103713,0.2435409999999999,0.204481,0.120971
966,-0.398178,0.906491,-0.140395,0.331177,0.521472,0.1925339999999999
967,-0.395555,0.901943,-0.173256,0.412827,0.896748,0.5578850000000001
968,-0.376824,0.903173,-0.205585,0.470681,0.442316,0.514606
969,-0.348194,0.907268,-0.235815,0.458409,1.182652,0.024496
970,-0.316231,0.915596,-0.248328,0.3955,1.426934,0.1380829999999999
971,-0.282751,0.926279,-0.249086,0.187033,0.567008,0.296709
972,-0.2544599999999999,0.931707,-0.259146,-0.055201,0.312815,0.4160819999999999
973,-0.231582,0.935727,-0.266024,-0.1155099999999999,0.169375,0.425997
974,-0.216601,0.938157,-0.270055,0.123706,0.045897,0.458684
975,-0.211105,0.936362,-0.280438,0.11821,0.047692,0.469067
976,-0.209378,0.933582,-0.290811,0.100064,-0.079593,0.4566439999999999
977,-0.2081889999999999,0.93158,-0.297998,0.062849,-0.371857,0.5365840000000001
978,-0.2051239999999999,0.931126,-0.3015199999999999,0.059784,-0.371403,0.5401060000000001
979,-0.20282,0.931537,-0.3018079999999999,-0.042877,-0.543171,0.442173
980,-0.204235,0.932818,-0.296859,-0.056309,-0.371767,0.4338979999999999
981,-0.206719,0.935652,-0.286019,-0.038123,-0.29634,0.429589
982,-0.203715,0.940009,-0.273619,-0.0490009999999999,-0.238136,0.314864
983,-0.1948099999999999,0.944433,-0.264727,-0.201125,0.080286,-0.411893
984,-0.189833,0.945715,-0.263764,-0.149797,0.1721589999999999,-0.486678
985,-0.192409,0.942858,-0.272,-0.028829,0.369307,-0.5134770000000001
986,-0.194663,0.938363,-0.285599,0.178305,0.387778,-0.456955
987,-0.195857,0.93522,-0.294941,0.33076,0.001472,-0.165066
988,-0.194982,0.933932,-0.299564,0.199774,-0.3120449999999999,0.015552
989,-0.188127,0.937072,-0.294092,0.192735,-0.188247,0.121958
990,-0.181058,0.943151,-0.278694,-0.0830559999999999,0.704753,0.918678
991,-0.191929,0.936871,-0.292269,-0.739757,1.363498,-0.509428
992,-0.216844,0.917296,-0.333966,-0.058973,-0.553237,1.2278870000000002
993,-0.2422619999999999,0.91246,-0.329716,0.10562,-1.046463,1.205647
994,-0.24506,0.923673,-0.294551,0.085758,-0.615232,0.829997
995,-0.241071,0.936988,-0.252831,0.028485,0.47915,0.917488
996,-0.243313,0.945866,-0.214757,0.029293,0.8243209999999999,0.876149
997,-0.256909,0.947511,-0.190274,0.398373,0.982542,0.13873
998,-0.277929,0.944943,-0.172692,0.4797109999999999,0.131824,-0.225486
999,-0.2918989999999999,0.94612,-0.140126,0.133177,-0.262694,0.243276
1000,-0.291582,0.950486,-0.107417,-0.150496,-0.307588,0.252772
1001,-0.2898,0.953814,-0.078975,-0.2043559999999999,-0.1281,0.024211
1002,-0.294384,0.954428,-0.048861,-0.0555159999999999,-0.140966,0.0021379999999999
1003,-0.302419,0.953015,-0.016923,0.1570339999999999,-0.089977,0.0656289999999999
1004,-0.308127,0.951231,0.0140539999999999,0.278723,-0.131727,0.146087
1005,-0.312125,0.949212,0.039427,0.2350989999999999,-0.110741,-0.008498
1006,-0.317605,0.94626,0.060811,0.1622859999999999,0.148115,-0.1889539999999999
1007,-0.327085,0.94121,0.084374,0.225583,0.3191199999999999,0.017661
1008,-0.335543,0.935615,0.109615,0.3966389999999999,0.342614,0.04784
1009,-0.339939,0.931636,0.128353,0.373218,0.115712,-0.15295
1010,-0.343246,0.928314,0.142807,0.062775,0.069962,-0.168076
1011,-0.350457,0.92285,0.159707,0.045571,0.101076,-0.265343
1012,-0.36291,0.915373,0.17426,0.258891,0.168993,-0.332357
1013,-0.377402,0.907976,0.182004,0.522849,0.233107,-0.299802
1014,-0.389113,0.902535,0.184387,0.560042,0.2453989999999999,-0.399155
1015,-0.395815,0.900019,0.182412,0.191866,0.292577,-0.495598
1016,-0.402706,0.8986569999999999,0.173848,0.03625,0.29484,-0.415731
1017,-0.414729,0.896726,0.154475,0.122264,0.283175,-0.370448
1018,-0.427696,0.8959790000000001,0.119491,0.321037,0.654131,-0.258178
1019,-0.434179,0.8979590000000001,0.071688,0.4640399999999999,0.350774,-0.185915
1020,-0.4301779999999999,0.902517,0.019818,0.563479,0.238108,0.246585
1021,-0.418187,0.908042,-0.023736,0.6293529999999999,0.264642,0.563729
1022,-0.4026889999999999,0.913397,-0.059423,0.291926,0.420771,0.366948
1023,-0.382375,0.918849,-0.097414,0.166174,0.5072220000000001,0.348619
1024,-0.361858,0.921988,-0.13777,0.065319,0.523019,0.28691
1025,-0.338723,0.926866,-0.161771,0.164285,0.389387,0.379559
1026,-0.313734,0.933487,-0.1736619999999999,0.186872,0.274872,0.427996
1027,-0.2913239999999999,0.935989,-0.1975849999999999,0.211337,0.154739,0.5236649999999999
1028,-0.273008,0.933974,-0.230533,0.231748,-0.114928,0.29195
1029,-0.253673,0.932799,-0.255972,0.239619,-0.066375,0.3304809999999999
1030,-0.24008,0.931032,-0.274821,0.270216,-0.067125,0.424861
1031,-0.233338,0.928328,-0.289392,0.309174,-0.089018,0.557992
1032,-0.232807,0.925567,-0.298521,0.21648,-0.118926,0.570829
1033,-0.235077,0.923531,-0.303011,0.136826,-0.1214529999999999,0.596056
1034,-0.23725,0.922439,-0.30464,-0.151605,-0.166671,0.534559
1035,-0.232842,0.924963,-0.300357,-0.176292,-0.275503,0.470005
1036,-0.223577,0.930652,-0.289633,-0.204218,-0.4772979999999999,0.262152
1037,-0.216152,0.938152,-0.270432,-0.0076939999999999,-0.364651,0.103425
1038,-0.2133989999999999,0.945923,-0.2442869999999999,0.115697,-0.306701,0.136286
1039,-0.213561,0.953264,-0.213692,0.055892,0.111724,-0.086754
1040,-0.218189,0.958396,-0.183995,-0.1875119999999999,0.688027,-0.618907
1041,-0.224192,0.958875,-0.174011,-0.181875,0.896548,-0.910019
1042,-0.224163,0.956723,-0.185517,0.177166,0.37804,-0.4118189999999999
1043,-0.2178929999999999,0.955073,-0.200854,0.034497,-0.320414,-0.107694
1044,-0.203893,0.956179,-0.210079,0.010045,-0.4859189999999999,-0.1158329999999999
1045,-0.1874849999999999,0.964013,-0.188445,0.08226,-0.190255,1.379424
1046,-0.1871519999999999,0.968021,-0.167009,-0.6352359999999999,0.629055,-0.116301
1047,-0.207774,0.963109,-0.170979,-0.986104,1.127528,-1.297618
1048,-0.239046,0.955519,-0.172694,0.4058239999999999,-0.332793,1.0747790000000002
1049,-0.258883,0.954045,-0.150863,0.715731,-0.379827,0.693451
1050,-0.2656949999999999,0.955791,-0.125903,0.465845,0.028874,0.290362
1051,-0.262614,0.958396,-0.111765,0.2290599999999999,0.229348,0.221827
1052,-0.2564059999999999,0.9615,-0.098771,0.086301,0.374697,0.089937
1053,-0.252086,0.963884,-0.0858049999999999,0.0622669999999999,0.174407,-0.055735
1054,-0.251539,0.965322,-0.069731,0.003385,-0.127325,-0.01999
1055,-0.251958,0.966423,-0.050248,-0.161967,-0.181465,-0.0674429999999999
1056,-0.253505,0.966784,-0.032326,-0.1174819999999999,-0.2058429999999999,-0.135902
1057,-0.256519,0.966335,-0.019354,0.124042,-0.146099,-0.15307
1058,-0.26014,0.965495,-0.011258,0.304772,0.010854,-0.202655
1059,-0.261349,0.965215,-0.00604,0.363125,0.046092,-0.232684
1060,-0.259855,0.965633,-0.002767,0.376051,-0.037212,-0.194621
1061,-0.256524,0.96652,-0.003941,0.373192,-0.096067,-0.0801809999999999
1062,-0.252419,0.967557,-0.009915,0.323494,-0.103299,-0.085895
1063,-0.249727,0.968177,-0.015824,0.0152909999999999,-0.1776039999999999,-0.288894
1064,-0.247704,0.968521,-0.024308,0.03756,0.00795,-0.092819
1065,-0.245576,0.968394,-0.043433,-0.000716,0.105779,-0.224725
1066,-0.243258,0.968002,-0.061491,-0.054182,-0.041244,-0.104738
1067,-0.2376059999999999,0.967624,-0.085035,0.0083579999999999,-0.1491569999999999,-0.134707
1068,-0.22981,0.965454,-0.1227569999999999,0.122144,-0.169052,-0.316712
1069,-0.22375,0.95707,-0.184218,-0.060765,-0.0318839999999999,-0.104005
1070,-0.219554,0.942992,-0.250096,-0.1168569999999999,-0.188246,0.159108
1071,-0.216342,0.924824,-0.312864,0.13129,-0.299244,0.813398
1072,-0.21709,0.904654,-0.366687,0.292682,-0.379081,0.5410189999999999
1073,-0.217415,0.889367,-0.402176,0.381538,0.149833,0.412842
1074,-0.213502,0.8764850000000001,-0.431487,0.3845679999999999,0.3538469999999999,0.493834
1075,-0.2018579999999999,0.8707530000000001,-0.448366,0.24591,0.426077,0.546022
1076,-0.188279,0.8723350000000001,-0.451189,-0.208617,0.002314,0.301134
1077,-0.175542,0.881258,-0.438814,-0.328639,0.044462,0.287706
1078,-0.1559849999999999,0.900651,-0.405569,-0.430334,0.168182,0.2300309999999999
1079,-0.14458,0.924142,-0.353617,-0.075361,0.137625,-0.281851
1080,-0.146009,0.943757,-0.296633,0.1293,-0.002625,-0.330092
1081,-0.155889,0.957382,-0.243113,0.63448,-0.165481,-0.047124
1082,-0.161174,0.967603,-0.194296,0.5165810000000001,0.005099,0.2134309999999999
1083,-0.1620339999999999,0.975183,-0.15082,0.0639049999999999,0.219794,0.095355
1084,-0.163566,0.978976,-0.121797,0.0667789999999999,0.032544,-0.354918
1085,-0.167311,0.981274,-0.095343,0.411467,-0.495343,-0.432138
1086,-0.170934,0.982999,-0.066901,0.586767,-0.832425,-0.01423
1087,-0.169052,0.984619,-0.043903,0.271652,-1.051865,0.137668
1088,-0.164573,0.9861,-0.0224259999999999,-0.345544,-0.732896,0.172252
1089,-0.155882,0.987759,0.003692,-0.562761,-0.402767,0.193146
1090,-0.1514049999999999,0.988416,0.009568,-1.142709,1.958713,-1.361252
1091,-0.155135,0.987793,-0.013372,0.398024,0.801162,-0.115809
1092,-0.143762,0.989186,-0.0287389999999999,0.345117,0.274974,0.520957
1093,-0.131704,0.989319,-0.062322,0.288671,0.952759,0.0616049999999999
1094,-0.125596,0.987685,-0.093206,0.076814,-0.29344,0.5809380000000001
1095,-0.1307579999999999,0.985825,-0.105045,0.1047119999999999,-0.146424,-0.078137
1096,-0.144068,0.984028,-0.104479,0.347941,0.415203,-0.074461
1097,-0.149488,0.983799,-0.098873,0.239088,0.815609,-0.20113
1098,-0.147374,0.983889,-0.101121,0.179997,0.583997,-0.749084
1099,-0.139641,0.983285,-0.1167609999999999,-0.003913,0.203788,-0.398361
1100,-0.134036,0.979315,-0.151522,-0.280606,0.024881,-0.517255
1101,-0.132996,0.970357,-0.201749,-0.318954,-0.2356929999999999,0.135373
1102,-0.130886,0.956768,-0.25971,-0.260609,-0.398433,0.436438
1103,-0.123839,0.942229,-0.311214,-0.09038,-0.394027,0.777187
1104,-0.1117799999999999,0.931782,-0.345362,-0.049871,-0.398991,0.818812
1105,-0.106766,0.913074,-0.393554,0.0576169999999999,-0.460605,0.71878
1106,-0.108669,0.891739,-0.439297,0.067394,-0.569824,0.272655
1107,-0.109026,0.8787309999999999,-0.464687,-0.075972,-0.403817,0.4866439999999999
1108,-0.093737,0.8766290000000001,-0.471937,-0.238141,0.22823,0.5864090000000001
1109,-0.073698,0.887524,-0.454817,-0.082842,0.474613,0.193998
1110,-0.062763,0.905736,-0.4191539999999999,-0.137006,0.4175819999999999,0.158229
1111,-0.07014,0.923903,-0.376126,0.1105599999999999,-0.184782,0.021054
1112,-0.0934059999999999,0.940456,-0.326808,0.213585,-0.515011,-0.146688
1113,-0.122179,0.955606,-0.2680929999999999,0.26082,-0.609201,-0.227573
1114,-0.152605,0.967166,-0.203189,0.476153,0.013028,0.044391
1115,-0.181204,0.972306,-0.147542,0.248434,0.596785,0.107076
1116,-0.196594,0.973706,-0.115018,0.058197,0.518786,-0.28583
1117,-0.202894,0.975409,-0.085984,0.319105,-0.25672,-0.406158
1118,-0.193391,0.979551,-0.055339,0.520967,-0.877668,-0.271367
1119,-0.172197,0.984616,-0.0293529999999999,0.378374,-0.813153,0.184672
1120,-0.155547,0.987785,-0.008168,-0.5400550000000001,-0.282905,0.144643
1121,-0.15283,0.988067,-0.018632,-1.630754,1.241959,-1.622389
1122,-0.1716619999999999,0.983561,-0.0558669999999999,0.108719,1.385823,-0.5080979999999999
1123,-0.164598,0.984097,-0.066646,0.371691,0.363315,1.037243
1124,-0.1566789999999999,0.983087,-0.094736,0.4417439999999999,0.349921,-0.031119
1125,-0.148383,0.9837,-0.101489,0.3862219999999999,0.3054699999999999,0.51871
1126,-0.138268,0.986125,-0.091773,0.533974,0.505849,-0.63337
1127,-0.133871,0.986892,-0.090033,0.303793,0.604737,-0.313653
1128,-0.129822,0.986067,-0.103926,0.053223,0.322466,-0.696108
1129,-0.125017,0.980886,-0.149055,-0.4245279999999999,0.267176,-0.755272
1130,-0.125001,0.96924,-0.211977,-0.57704,-0.002931,0.072482
1131,-0.123481,0.951656,-0.281228,-0.498742,-0.4217189999999999,0.5241939999999999
1132,-0.112174,0.931695,-0.345471,-0.229379,-0.6822590000000001,0.891782
1133,-0.093259,0.91903,-0.382981,-0.051654,-0.76307,0.7173470000000001
1134,-0.081885,0.907757,-0.411414,0.0877899999999999,-0.714809,0.5523600000000001
1135,-0.080987,0.891848,-0.445014,0.199441,-0.218356,0.437949
1136,-0.077915,0.881326,-0.4660289999999999,-0.248196,-0.1198819999999999,0.671764
1137,-0.06963,0.878074,-0.473421,-0.246989,0.053749,0.564836
1138,-0.072665,0.882133,-0.46535,0.034533,0.075874,0.325701
1139,-0.0854169999999999,0.893552,-0.440748,-0.079515,0.058078,0.25282
1140,-0.102775,0.911556,-0.3981099999999999,-0.2606429999999999,-0.006573,-0.142127
1141,-0.131543,0.930781,-0.341074,0.004468,-0.069605,-0.24639
1142,-0.169758,0.945764,-0.276948,0.154026,0.467566,-0.019393
1143,-0.202761,0.956575,-0.2093719999999999,0.262179,0.641996,-0.011987
1144,-0.214952,0.964163,-0.155463,0.511614,0.015237,-0.153603
1145,-0.214693,0.96977,-0.115918,0.404192,-0.4913,-0.067477
1146,-0.204855,0.974825,-0.0879409999999999,0.3618679999999999,-0.666567,-0.147716
1147,-0.188386,0.979651,-0.069125,0.350556,-0.559088,0.026706
1148,-0.170962,0.983788,-0.054001,-0.152738,-0.146386,-0.07666
1149,-0.155047,0.986267,-0.056749,-0.6835760000000001,0.140381,-0.754042
1150,-0.154494,0.985492,-0.070135,-0.150423,0.823025,-0.02778
1151,-0.160513,0.984496,-0.070612,-0.033701,1.290574,-0.579809
1152,-0.14474,0.98475,-0.096439,0.774943,1.205817,0.676136
1153,-0.130227,0.984055,-0.1210789999999999,0.34855,-0.58519,0.408417
1154,-0.1219609999999999,0.984128,-0.128843,0.445478,-0.60214,-0.1617
1155,-0.121004,0.985179,-0.121505,0.2417929999999999,0.215611,-0.6117560000000001
1156,-0.121053,0.985744,-0.1167839999999999,-0.0868179999999999,1.402821,-0.527732
1157,-0.118004,0.985058,-0.125376,-0.275703,0.166324,-0.605367
1158,-0.115604,0.980503,-0.158854,-0.481732,-0.074909,-0.274252
1159,-0.114643,0.973286,-0.198888,-0.557796,-0.263935,-0.118891
1160,-0.1077299999999999,0.962502,-0.248938,-0.286191,-0.538064,0.266852
1161,-0.09592,0.948962,-0.30043,-0.102825,-0.475726,0.364105
1162,-0.082395,0.937418,-0.338298,0.136854,-0.25825,0.772517
1163,-0.06627,0.925535,-0.372801,0.1973589999999999,-0.2003609999999999,0.459822
1164,-0.057236,0.90877,-0.41334,0.145584,-0.174319,0.259196
1165,-0.0593919999999999,0.8923030000000001,-0.447502,-0.1075079999999999,-0.194946,0.543175
1166,-0.063085,0.879373,-0.471925,-0.158915,-0.2139219999999999,0.431535
1167,-0.061012,0.8753110000000001,-0.4796859999999999,-0.355034,0.059611,0.268871
1168,-0.050736,0.885711,-0.461446,-0.45076,0.238923,-0.025966
1169,-0.04806,0.905385,-0.42185,-0.237341,-0.063497,-0.0192969999999999
1170,-0.06473,0.925623,-0.372855,-0.140562,-0.341684,-0.031701
1171,-0.093967,0.942462,-0.320817,0.1189609999999999,-0.412234,-0.176009
1172,-0.132576,0.954861,-0.265803,0.506722,0.088535,-0.151266
1173,-0.170784,0.962929,-0.208774,0.638863,0.795708,-0.066174
1174,-0.19485,0.96751,-0.161067,0.5460619999999999,0.5636329999999999,-0.246632
1175,-0.203799,0.97062,-0.127856,0.447909,-0.361215,-0.119046
1176,-0.197167,0.97499,-0.1024849999999999,0.431145,-0.808608,0.124091
1177,-0.178288,0.980325,-0.084616,-0.11999,-0.770486,0.220556
1178,-0.161014,0.984255,-0.0728,-0.7154050000000001,-0.5111720000000001,-0.464645
1179,-0.159833,0.984474,-0.072438,-1.771639,0.969841,-1.54388
1180,-0.179061,0.980397,-0.082116,0.396636,1.688808,-0.075584
1181,-0.170529,0.981525,-0.086675,0.0395779999999999,-0.015049,0.349782
1182,-0.160119,0.983248,-0.087,0.207833,0.215726,-0.3281
1183,-0.158429,0.98277,-0.0951159999999999,0.629132,0.5619529999999999,0.114265
1184,-0.153687,0.983766,-0.092574,0.757721,0.849776,-0.643922
1185,-0.14765,0.984406,-0.095545,0.276144,0.639541,-0.43128
1186,-0.144805,0.983537,-0.1080339999999999,-0.097993,0.131606,-0.4213689999999999
1187,-0.144628,0.980362,-0.134011,-0.49322,-0.1978609999999999,-0.336158
1188,-0.145364,0.973337,-0.177401,-0.603781,-0.254465,-0.335142
1189,-0.142867,0.962264,-0.2315699999999999,-0.466356,-0.324157,0.185534
1190,-0.1371109999999999,0.947372,-0.2892679999999999,-0.2907909999999999,-0.479919,0.670585
1191,-0.128267,0.929814,-0.344941,0.0265819999999999,-0.5855600000000001,0.883591
1192,-0.118452,0.917225,-0.380339,0.158934,-0.759235,0.4793229999999999
1193,-0.1064339999999999,0.905385,-0.411024,0.309269,-0.3917739999999999,0.3604719999999999
1194,-0.100097,0.895165,-0.434339,0.0402519999999999,0.094901,0.685865
1195,-0.094201,0.8924690000000001,-0.4411529999999999,-0.105964,0.358996,0.483832
1196,-0.085635,0.8973049999999999,-0.433014,0.021792,0.239398,0.3165429999999999
1197,-0.078724,0.908499,-0.410392,-0.033245,0.177331,0.383369
1198,-0.086663,0.923256,-0.37427,-0.194023,-0.064736,0.2082239999999999
1199,-0.110425,0.938768,-0.32636,0.021009,-0.214006,-0.264186
1200,-0.1418299999999999,0.953027,-0.267604,0.2298579999999999,0.08599,-0.3861739999999999
1201,-0.174324,0.963169,-0.204704,0.200219,0.558865,-0.150368
1202,-0.190859,0.970267,-0.148798,0.465441,-0.132651,-0.288031
1203,-0.189425,0.976519,-0.102538,0.38135,-0.37926,-0.359666
1204,-0.184688,0.981163,-0.056512,0.317836,-0.588341,-0.437552
1205,-0.177914,0.983822,-0.020616,-0.1067839999999999,-0.150417,-0.0018449999999999
1206,-0.173313,0.984815,-0.009234,-0.1113849999999999,-0.151411,-0.013227
1207,-0.168158,0.985577,-0.018541,-0.728708,1.120807,-0.668929
1208,-0.168404,0.984831,-0.041624,-0.081855,0.523424,-0.7550979999999999
1209,-0.169426,0.983323,-0.065993,0.077186,0.116057,-0.4140939999999999
1210,-0.1666119999999999,0.983053,-0.076373,-0.0889269999999999,-0.306921,0.86185
1211,-0.171048,0.980935,-0.092171,0.033261,0.804496,-0.702278
1212,-0.173234,0.979613,-0.1016519999999999,0.035448,0.805818,-0.692796
1213,-0.15634,0.982771,-0.098514,0.71916,0.398394,-0.124341
1214,-0.145376,0.982132,-0.119448,0.089208,0.395782,-0.750104
1215,-0.145575,0.978079,-0.148849,-0.142405,0.234079,-0.32811
1216,-0.148032,0.969607,-0.194773,-0.445931,0.067915,-0.477071
1217,-0.148854,0.956027,-0.252673,-0.415386,-0.297137,0.381304
1218,-0.1411369999999999,0.939061,-0.313421,-0.327354,-0.336339,0.563025
1219,-0.124093,0.92417,-0.361248,-0.043937,-0.407477,0.758495
1220,-0.1037579999999999,0.916307,-0.38679,0.339079,-0.405946,0.618754
1221,-0.093236,0.905977,-0.412921,0.329396,-0.406907,0.51279
1222,-0.091847,0.8948809999999999,-0.436741,0.206227,-0.264953,0.519505
1223,-0.087254,0.8917879999999999,-0.443952,-0.234248,-0.2375519999999999,0.425763
1224,-0.08372,0.8969090000000001,-0.434208,0.043254,-0.146802,0.282551
1225,-0.083637,0.909509,-0.407172,0.174045,-0.135507,0.327033
1226,-0.09785,0.924401,-0.368645,-0.037572,0.016654,0.382378
1227,-0.136729,0.936704,-0.322304,-0.0923669999999999,0.040987,0.19352
1228,-0.184391,0.948441,-0.257776,-0.169735,0.691512,-0.287314
1229,-0.225958,0.955951,-0.18732,0.229086,0.858548,-0.403729
1230,-0.241614,0.961401,-0.131593,0.553657,0.352655,-0.409591
1231,-0.2382679999999999,0.967367,-0.086115,0.739977,-0.549428,-0.5251520000000001
1232,-0.224604,0.973217,-0.048854,0.780192,-1.024166,-0.2103159999999999
1233,-0.211151,0.977326,-0.015299,0.544662,-1.096329,-0.031255
1234,-0.209164,0.977866,-0.0036149999999999,-0.793201,0.393044,0.042097
1235,-0.210236,0.977626,-0.00582,-0.979797,1.7017259999999998,-0.6508729999999999
1236,-0.2193179999999999,0.975457,-0.019205,-0.278957,1.577705,-1.1807299999999998
1237,-0.220187,0.974306,-0.047248,-0.376813,-0.207551,0.613471
1238,-0.2044349999999999,0.976533,-0.067645,-0.570742,-0.324586,0.714175
1239,-0.204326,0.974443,-0.093264,-0.369069,0.312407,-0.5493600000000001
1240,-0.2262809999999999,0.970491,-0.083253,0.581491,0.618865,-0.222762
1241,-0.2395469999999999,0.967489,-0.081039,1.22824,0.140757,0.198745
1242,-0.237234,0.967795,-0.084134,1.036551,-0.030081,-0.4361
1243,-0.238651,0.966453,-0.094871,0.355763,0.109384,-0.279961
1244,-0.243934,0.964914,-0.097076,0.191978,-0.165017,0.010451
1245,-0.253195,0.961499,-0.106761,0.080603,-0.290417,-0.189321
1246,-0.264386,0.956092,-0.126393,-0.312275,-0.276984,-0.073482
1247,-0.273829,0.94928,-0.154507,-0.34612,-0.142578,0.0111349999999999
1248,-0.283041,0.939706,-0.191908,-0.291178,-0.086739,0.0102519999999999
1249,-0.292498,0.927495,-0.232778,0.292635,0.320048,0.4302109999999999
1250,-0.30175,0.915255,-0.266915,0.548103,0.6654180000000001,0.542871
1251,-0.293955,0.914782,-0.277042,0.70785,0.788037,0.444339
1252,-0.257407,0.9257,-0.277145,0.571829,0.5455979999999999,-0.011521
1253,-0.2273099999999999,0.932885,-0.279365,0.0620419999999999,0.129188,0.140571
1254,-0.216834,0.935359,-0.27942,-0.3836,0.430379,-0.038772
1255,-0.212912,0.939478,-0.268401,-0.208262,0.426382,-0.061952
1256,-0.202816,0.945616,-0.25429,0.094341,-0.041884,0.203768
1257,-0.189873,0.953746,-0.233032,0.027596,-0.080547,0.180725
1258,-0.1836559999999999,0.959937,-0.211609,-0.0152419999999999,-0.155204,0.13475
1259,-0.182976,0.963826,-0.193769,-0.069588,-0.523457,0.063398
1260,-0.18106,0.967368,-0.1772119999999999,-0.100678,-0.576407,0.034618
1261,-0.181241,0.96949,-0.165011,-0.128878,-0.5683060000000001,-0.011457
1262,-0.186146,0.970168,-0.155275,-0.019955,-0.232207,-0.338667
1263,-0.1950309999999999,0.969133,-0.150766,0.021279,-0.137484,-0.458197
1264,-0.199614,0.966487,-0.161384,0.061567,-0.061229,-0.580194
1265,-0.1977819999999999,0.964322,-0.1759339999999999,0.296461,-0.012006,-0.440505
1266,-0.195545,0.963411,-0.183277,0.404636,0.062941,-0.286007
1267,-0.199542,0.960575,-0.193565,0.40671,0.09129,-0.139732
1268,-0.2034359999999999,0.956677,-0.208257,0.146368,-0.296796,-0.253611
1269,-0.208179,0.953068,-0.2197989999999999,0.201893,-0.472813,-0.311679
1270,-0.218019,0.949992,-0.223544,0.093797,-0.239298,-0.294965
1271,-0.227593,0.947973,-0.222572,0.055886,0.2387949999999999,1.951942
1272,-0.262557,0.939901,-0.218263,-0.4852149999999999,0.956339,2.324388
1273,-0.292098,0.934318,-0.204246,-0.762192,1.0234450000000002,-0.320855
1274,-0.293837,0.944451,-0.147177,0.408416,-0.198357,1.063955
1275,-0.302811,0.943786,-0.132521,0.451188,-0.383575,0.988203
1276,-0.304764,0.941934,-0.140957,0.057419,1.179145,0.521526
1277,-0.306537,0.944281,-0.119823,0.1134059999999999,0.529123,0.362545
1278,-0.301966,0.949698,-0.082936,0.070964,0.235254,0.307469
1279,-0.288546,0.956225,-0.048607,-0.194654,0.065153,-0.110496
1280,-0.27921,0.960114,-0.014516,-0.290798,0.004395,-0.109019
1281,-0.281161,0.959465,0.019003,-0.180753,-0.0452199999999999,-0.082724
1282,-0.291966,0.955303,0.046229,0.365651,-0.145718,-0.00648
1283,-0.304008,0.950132,0.069386,0.426658,-0.025327,-0.204823
1284,-0.312011,0.945644,0.09161,0.362991,-0.018184,-0.348171
1285,-0.31504,0.94221,0.113909,0.2063969999999999,-0.324443,-0.205263
1286,-0.3190119999999999,0.938294,0.133489,0.138928,-0.312562,0.000193
1287,-0.325982,0.933282,0.1506819999999999,0.1385279999999999,-0.064278,-0.114138
1288,-0.336479,0.926644,0.16762,0.196479,0.062125,-0.111956
1289,-0.349004,0.918948,0.183613,0.229375,0.190472,-0.148991
1290,-0.359711,0.911385,0.199923,0.313705,0.2651139999999999,-0.281939
1291,-0.368747,0.904229,0.215358,0.396427,0.2209539999999999,-0.415843
1292,-0.378612,0.897908,0.224491,0.340816,0.297694,-0.353504
1293,-0.38963,0.8921049999999999,0.228736,0.354001,0.30777,-0.199622
1294,-0.401748,0.8866040000000001,0.229161,0.2088469999999999,0.393273,-0.418859
1295,-0.413288,0.881756,0.227336,0.202976,0.379017,-0.39387
1296,-0.427708,0.8768219999999999,0.2196179999999999,0.299626,0.345315,-0.356993
1297,-0.445702,0.87131,0.205309,0.517021,0.320859,-0.277437
1298,-0.4637199999999999,0.867207,0.181383,0.400808,0.422329,-0.362657
1299,-0.47628,0.866042,0.152027,0.222526,0.391907,-0.083576
1300,-0.478701,0.8702709999999999,0.1160099999999999,0.337603,0.458755,0.235675
1301,-0.469568,0.879273,0.079808,0.202585,0.4255819999999999,0.375712
1302,-0.451452,0.891279,0.042419,0.079351,0.382281,0.336686
1303,-0.42912,0.903234,0.003402,0.118817,0.384791,0.310822
1304,-0.407869,0.912364,-0.034955,0.0800179999999999,0.29662,0.278928
1305,-0.38988,0.91813,-0.070839,0.002124,0.196189,0.3214639999999999
1306,-0.372654,0.921784,-0.106921,-0.030697,0.168213,0.278628
1307,-0.3541809999999999,0.924473,-0.141046,0.1401609999999999,0.058834,0.226525
1308,-0.333496,0.927539,-0.168645,0.2012779999999999,0.027005,0.274861
1309,-0.316756,0.929176,-0.190491,0.215117,-0.0579909999999999,0.3644719999999999
1310,-0.303636,0.930268,-0.205902,0.3834849999999999,-0.007615,0.538269
1311,-0.292004,0.931338,-0.21756,0.459851,0.023618,0.545975
1312,-0.28046,0.932103,-0.2291639999999999,0.4354439999999999,0.153194,0.539925
1313,-0.26931,0.933595,-0.236353,0.337471,0.1450789999999999,0.511621
1314,-0.26088,0.934206,-0.2432909999999999,0.27359,0.1217319999999999,0.5040939999999999
1315,-0.255702,0.933462,-0.251508,0.118464,0.050303,0.336316
1316,-0.246923,0.933496,-0.2600099999999999,0.079351,0.0932679999999999,0.3139349999999999
1317,-0.236159,0.933318,-0.270437,0.057235,0.081162,0.321752
1318,-0.225146,0.933041,-0.280595,-0.024426,-0.015408,0.383897
1319,-0.215989,0.932959,-0.28797,-0.05577,-0.072516,0.4266569999999999
1320,-0.210337,0.932712,-0.292911,-0.099477,-0.108325,0.494755
1321,-0.2087389999999999,0.931439,-0.29806,-0.117646,-0.156659,0.515604
1322,-0.210247,0.930406,-0.300219,-0.093525,-0.168962,0.425616
1323,-0.21109,0.931001,-0.297772,-0.080658,-0.17354,0.36343
1324,-0.2061079999999999,0.933946,-0.291984,0.017845,-0.175981,0.013908
1325,-0.193747,0.939019,-0.284071,0.085257,-0.19088,-0.182832
1326,-0.177601,0.945009,-0.274603,0.0388839999999999,-0.137163,-0.2126559999999999
1327,-0.162735,0.950919,-0.2631739999999999,-0.117188,0.125436,-0.252421
1328,-0.155921,0.955136,-0.251783,-0.044778,0.385029,-0.422411
1329,-0.157242,0.955564,-0.249322,0.1266779999999999,0.306292,-0.406623
1330,-0.157952,0.954477,-0.253011,0.1064529999999999,-0.064996,-0.23501
1331,-0.153434,0.954573,-0.255418,-0.046151,-0.281294,-0.152343
1332,-0.145512,0.956917,-0.251249,-0.306026,0.264,0.068738
1333,-0.146826,0.960965,-0.234477,-0.766504,1.34859,0.623606
1334,-0.166561,0.959286,-0.228076,-0.40163,1.103459,-0.076581
1335,-0.184453,0.943378,-0.275692,-0.067698,-0.683154,1.134579
1336,-0.205788,0.934467,-0.290541,0.1743849999999999,-1.409778,0.8341959999999999
1337,-0.20903,0.941081,-0.265827,0.401383,-0.074488,0.658619
1338,-0.203306,0.951926,-0.229115,0.403578,0.319909,0.709126
1339,-0.18449,0.965271,-0.184948,0.464459,0.660737,0.587109
1340,-0.175309,0.971395,-0.160149,0.178361,0.738062,0.04171
1341,-0.182867,0.97047,-0.15728,0.154745,0.595585,-0.203926
1342,-0.197095,0.968547,-0.151854,-0.065158,-0.1653859999999999,0.098631
1343,-0.209102,0.967653,-0.141119,-0.1406599999999999,-0.327409,0.174078
1344,-0.217718,0.968474,-0.121024,-0.157968,-0.355696,0.182273
1345,-0.222629,0.97004,-0.097199,0.145709,-0.125604,0.019303
1346,-0.226093,0.971115,-0.076199,0.200427,0.0462949999999999,-0.120349
1347,-0.22814,0.971986,-0.056423,0.221198,0.028319,-0.1582839999999999
1348,-0.229365,0.972603,-0.037719,0.249689,-0.0823899999999999,-0.143525
1349,-0.230286,0.972874,-0.021774,0.236008,-0.134327,-0.162018
1350,-0.229978,0.973119,-0.011773,0.112317,-0.076909,-0.116935
1351,-0.230111,0.973109,-0.009816,-0.016791,-0.001963,-0.167079
1352,-0.233185,0.972376,-0.009902,-0.054977,0.02146,-0.159714
1353,-0.238262,0.971173,-0.006572,0.0346029999999999,-0.032849,-0.081135
1354,-0.2435639999999999,0.969876,-0.002469,0.23183,-0.103253,-0.012851
1355,-0.247007,0.969001,-0.0035759999999999,0.362028,0.040871,-0.109614
1356,-0.249717,0.968277,-0.008384,0.439643,0.126084,-0.3079159999999999
1357,-0.251653,0.967583,-0.021027,0.2139489999999999,0.03907,-0.251983
1358,-0.251032,0.967031,-0.042694,-0.04917,-0.051641,-0.388275
1359,-0.248063,0.965784,-0.075598,-0.352233,-0.075159,-0.308786
1360,-0.243886,0.962691,-0.1172,-0.327662,-0.21205,0.056775
1361,-0.236895,0.955846,-0.173869,-0.0887429999999999,-0.300115,0.24827
1362,-0.234255,0.942586,-0.238007,0.038256,-0.384191,0.4527899999999999
1363,-0.243642,0.921177,-0.303421,0.171681,-0.159321,0.316238
1364,-0.254738,0.896668,-0.36206,0.28225,0.2904199999999999,0.3306719999999999
1365,-0.253008,0.8774190000000001,-0.407573,0.2126179999999999,0.552589,0.315532
1366,-0.2288059999999999,0.863667,-0.449134,-0.033492,0.872417,0.4288399999999999
1367,-0.207504,0.8505780000000001,-0.4831689999999999,-0.072647,0.202843,0.389617
1368,-0.189122,0.8405549999999999,-0.507636,-0.151195,-0.043894,0.458914
1369,-0.172447,0.8378200000000001,-0.51799,-0.173271,-0.130804,0.361176
1370,-0.152507,0.8457819999999999,-0.511261,-0.094777,-0.095447,0.2896579999999999
1371,-0.132236,0.862726,-0.48807,-0.139538,-0.193994,0.2310199999999999
1372,-0.117681,0.884767,-0.450925,-0.107188,-0.273759,0.248243
1373,-0.116868,0.907166,-0.40421,-0.034499,-0.3618159999999999,0.233342
1374,-0.129043,0.928623,-0.347851,0.084762,-0.304691,0.160214
1375,-0.147888,0.947178,-0.284563,0.199081,-0.097477,0.081499
1376,-0.1688069999999999,0.95992,-0.223716,0.173583,0.188273,0.112953
1377,-0.188298,0.967031,-0.171423,0.050709,0.32081,0.008291
1378,-0.198793,0.970636,-0.135416,0.0589149999999999,-0.076471,-0.384772
1379,-0.199149,0.974376,-0.104504,0.210655,-0.6047779999999999,-0.456805
1380,-0.187719,0.979501,-0.073005,0.163686,-0.606484,-0.267281
1381,-0.165794,0.984475,-0.057546,0.064567,-0.507729,-0.128306
1382,-0.148637,0.987878,-0.044642,-0.7780600000000001,0.454001,0.182398
1383,-0.144393,0.98895,-0.033442,-0.724854,0.987567,-0.390248
1384,-0.157137,0.985243,-0.067785,0.320803,0.561754,-0.1579839999999999
1385,-0.155304,0.983634,-0.091297,-0.273789,0.452676,0.062687
1386,-0.152641,0.982155,-0.1098369999999999,-0.075798,0.5042800000000001,-0.193615
1387,-0.1582299999999999,0.978092,-0.135243,0.233746,0.420925,-0.214062
1388,-0.15563,0.977023,-0.14559,0.1542099999999999,-0.046756,-0.105494
1389,-0.153427,0.977041,-0.147797,0.067184,-0.027517,-0.218521
1390,-0.151267,0.975443,-0.160068,-0.216225,0.2494719999999999,-0.4702729999999999
1391,-0.1468829999999999,0.972641,-0.1799619999999999,-0.310896,0.084183,-0.304688
1392,-0.138371,0.967049,-0.213688,-0.245373,0.004295,-0.254909
1393,-0.130077,0.955736,-0.263897,-0.24033,-0.180589,0.065472
1394,-0.123554,0.937877,-0.324214,-0.2050739999999999,-0.392024,0.56103
1395,-0.11969,0.916621,-0.381411,-0.00882,-0.418833,0.8435540000000001
1396,-0.1171589999999999,0.89741,-0.425351,0.016329,-0.438822,0.481259
1397,-0.109884,0.878007,-0.465858,0.169256,-0.053666,0.3337469999999999
1398,-0.112219,0.8616950000000001,-0.494857,0.150732,0.196929,0.6413409999999999
1399,-0.110447,0.852915,-0.510228,0.0495339999999999,0.075918,0.431722
1400,-0.104551,0.8544350000000001,-0.508925,-0.167925,-0.007435,0.362166
1401,-0.097408,0.8676459999999999,-0.487541,-0.282902,0.143951,0.292732
1402,-0.095904,0.8907290000000001,-0.444296,-0.206129,-0.057523,0.065481
1403,-0.109003,0.914869,-0.388751,-0.078192,-0.084684,-0.022855
1404,-0.131388,0.937376,-0.322579,0.043131,-0.014204,-0.032432
1405,-0.151659,0.955833,-0.251744,0.309588,0.4617239999999999,-0.0442
1406,-0.169322,0.966929,-0.190709,0.412577,0.447622,0.041707
1407,-0.180822,0.972926,-0.1439099999999999,0.398565,0.179006,-0.094829
1408,-0.182062,0.977531,-0.106198,0.264657,-0.601585,-0.352283
1409,-0.1784869999999999,0.981243,-0.072764,0.301091,-0.89613,-0.238226
1410,-0.171929,0.98402,-0.046221,0.2494429999999999,-0.8584700000000001,-0.195203
1411,-0.163618,0.985973,-0.032808,-0.321062,0.108341,0.0413829999999999
1412,-0.153466,0.987678,-0.030493,-0.8684149999999999,1.194588,-0.71615
1413,-0.14538,0.988277,-0.0465019999999999,-0.6482289999999999,1.450825,-1.296103
1414,-0.142798,0.986058,-0.085371,-0.384194,-0.399495,0.642759
1415,-0.134535,0.986844,-0.08961,-0.307756,-0.193128,0.813365
1416,-0.1365579999999999,0.985829,-0.097387,0.117301,0.876079,-0.175318
1417,-0.151411,0.982733,-0.1063089999999999,1.197813,1.28341,-0.313735
1418,-0.140195,0.985199,-0.098595,0.614133,0.339997,0.074471
1419,-0.131497,0.985755,-0.104821,-0.050479,0.085046,-0.824699
1420,-0.132646,0.982462,-0.131014,-0.347105,0.152746,-0.346937
1421,-0.132425,0.977354,-0.1650329999999999,-0.529883,0.157198,-0.48281
1422,-0.130447,0.966739,-0.21998,-0.576401,0.146099,-0.490331
1423,-0.126618,0.950865,-0.282519,-0.470443,-0.450255,0.679796
1424,-0.115171,0.932418,-0.342531,-0.132495,-0.725493,0.857958
1425,-0.097313,0.918216,-0.3839329999999999,-0.005058,-0.738406,0.741722
1426,-0.0789049999999999,0.908173,-0.411085,0.094515,-0.8542629999999999,0.580259
1427,-0.0678309999999999,0.8946649999999999,-0.441553,0.2410949999999999,-0.151241,0.311014
1428,-0.0604669999999999,0.886764,-0.4582449999999999,0.0313079999999999,0.229935,0.546227
1429,-0.049643,0.8883979999999999,-0.456377,0.175361,0.4604479999999999,0.285539
1430,-0.048462,0.894964,-0.443493,0.096588,-0.012457,0.36375
1431,-0.0584,0.905045,-0.42128,-0.077067,-0.136048,0.416504
1432,-0.0748549999999999,0.91845,-0.388381,-0.412206,-0.146951,0.191421
1433,-0.096002,0.934648,-0.34236,-0.067892,-0.254564,-0.071871
1434,-0.1235349999999999,0.950255,-0.285916,0.147812,-0.0541059999999999,-0.090641
1435,-0.1476559999999999,0.963397,-0.223732,0.466213,0.336209,-0.117576
1436,-0.158725,0.973077,-0.1670869999999999,0.729236,0.100897,-0.2913179999999999
1437,-0.1569569999999999,0.98001,-0.1222109999999999,0.784521,-0.382201,-0.421322
1438,-0.145914,0.985124,-0.0907169999999999,0.664942,-0.583971,-0.224057
1439,-0.129803,0.988488,-0.077665,0.065045,-0.3013389999999999,0.435011
1440,-0.115522,0.989217,-0.089962,-0.54378,0.0708559999999999,0.211102
1441,-0.111292,0.988194,-0.105244,-1.301962,1.610759,-1.597805
1442,-0.130482,0.983842,-0.122553,-0.141841,0.632125,-0.2426969999999999
1443,-0.127841,0.982958,-0.1320569999999999,0.0694,-0.010119,1.256447
1444,-0.126048,0.980626,-0.149918,-0.044149,0.390514,-0.386902
1445,-0.132841,0.978323,-0.158828,0.465146,0.776529,-0.022019
1446,-0.125595,0.980574,-0.150632,0.501891,0.290483,-0.030948
1447,-0.123948,0.980383,-0.153216,0.124818,0.472971,-0.426206
1448,-0.121669,0.977889,-0.170059,-0.137898,0.403901,-0.533921
1449,-0.113417,0.972111,-0.205251,-0.620394,0.140743,-0.463237
1450,-0.1067819999999999,0.960066,-0.258576,-0.538863,-0.361907,0.411682
1451,-0.100994,0.942279,-0.319221,-0.364399,-0.601581,0.787605
1452,-0.090907,0.924614,-0.3698889999999999,-0.142293,-0.730766,0.935746
1453,-0.080789,0.913061,-0.399732,0.254281,-1.024572,0.644941
1454,-0.076682,0.901113,-0.4267399999999999,0.41146,-0.959875,0.385221
1455,-0.081587,0.8885350000000001,-0.451489,0.316725,-0.5404359999999999,0.445035
1456,-0.082559,0.8835729999999999,-0.46095,-0.116125,0.092623,0.3869599999999999
1457,-0.074811,0.8884110000000001,-0.452904,0.107617,0.536806,0.269372
1458,-0.077423,0.8993959999999999,-0.4302149999999999,0.171127,0.392138,0.308709
1459,-0.09074,0.914073,-0.395259,-0.267415,0.201543,0.146235
1460,-0.114463,0.92756,-0.3557,-0.365304,0.094275,-0.114667
1461,-0.143678,0.93989,-0.309764,-0.328474,0.229711,-0.171086
1462,-0.168873,0.950985,-0.259038,-0.134823,0.6637,-0.057735
1463,-0.183547,0.959595,-0.213257,0.350966,0.299576,-0.2639
1464,-0.192904,0.966538,-0.169064,0.50664,0.068115,-0.36594
1465,-0.195218,0.972424,-0.127558,0.554501,-0.558178,-0.191122
1466,-0.1927849999999999,0.976506,-0.096221,0.289892,-0.738286,-0.1055
1467,-0.188916,0.978982,-0.076771,0.146833,-0.6924520000000001,-0.07101
1468,-0.184302,0.980243,-0.071725,-0.256478,0.11427,0.130746
1469,-0.177669,0.981341,-0.073423,-0.382695,0.836774,-0.224627
1470,-0.173945,0.981822,-0.075873,0.000285,0.692601,-0.945321
1471,-0.17506,0.980626,-0.087834,-0.171651,-0.1994369999999999,0.6152850000000001
1472,-0.176424,0.978129,-0.110128,-0.2095469999999999,-0.2420449999999999,0.975439
1473,-0.185306,0.974869,-0.123621,-0.452267,0.820465,-0.220297
1474,-0.199022,0.973138,-0.115677,0.6851520000000001,0.524954,0.14325
1475,-0.1988579999999999,0.973623,-0.111812,0.580923,0.148264,-0.326557
1476,-0.202525,0.972044,-0.1187569999999999,0.198482,0.156634,-0.6406729999999999
1477,-0.209586,0.968317,-0.135738,0.0072549999999999,0.16419,-0.318379
1478,-0.214209,0.96307,-0.163093,-0.059472,0.137744,-0.5579149999999999
1479,-0.2203989999999999,0.95545,-0.196291,-0.035033,-0.009695,-0.210081
1480,-0.2236409999999999,0.946143,-0.2340699999999999,-0.035713,-0.47988,0.193771
1481,-0.222604,0.935266,-0.2751639999999999,-0.021079,-0.58877,0.3965329999999999
1482,-0.21459,0.925604,-0.311767,0.007436,-0.603751,0.528259
1483,-0.206627,0.920714,-0.331031,0.106026,-0.5312640000000001,0.608772
1484,-0.209648,0.914033,-0.347252,0.24665,0.063598,0.063332
1485,-0.217223,0.905552,-0.3643929999999999,0.268111,1.277981,0.215452
1486,-0.210728,0.90409,-0.371761,0.591374,0.722527,0.16383
1487,-0.199613,0.905096,-0.37543,0.234098,0.051615,0.149417
1488,-0.192314,0.908581,-0.370794,0.008933,0.121296,0.182104
1489,-0.182317,0.917013,-0.3547389999999999,-0.367121,0.786371,0.037905
1490,-0.166172,0.929025,-0.330592,-0.065762,0.0976929999999999,0.077495
1491,-0.147723,0.941727,-0.30219,-0.054898,-0.083298,0.1024829999999999
1492,-0.1345049999999999,0.952052,-0.274765,-0.046449,-0.228755,0.074723
1493,-0.1289,0.959378,-0.250938,-0.0500699999999999,-0.502286,0.000526
1494,-0.129517,0.963733,-0.233314,-0.0830679999999999,-0.495135,-0.010781
1495,-0.136002,0.965314,-0.22285,-0.0925899999999999,-0.479459,-0.026692
1496,-0.149733,0.964705,-0.216598,-0.04326,-0.270262,-0.298569
1497,-0.167577,0.961429,-0.2180889999999999,0.009099,-0.199848,-0.383993
1498,-0.182123,0.956657,-0.2272239999999999,0.084024,-0.1362529999999999,-0.478541
1499,-0.190666,0.953686,-0.232636,0.495781,-0.003293,-0.313064
1500,-0.192185,0.95354,-0.231986,0.499543,-0.0307339999999999,-0.192987
1501,-0.18721,0.952649,-0.239589,0.342514,-0.1888099999999999,-0.188665
1502,-0.185922,0.949051,-0.254413,0.153253,-0.243454,-0.524091
1503,-0.192428,0.944444,-0.266437,0.135116,-0.081468,-0.446453
1504,-0.2072409999999999,0.940816,-0.268157,-0.1053809999999999,0.6773939999999999,2.291763
1505,-0.22739,0.933355,-0.277728,-1.734661,1.89448,0.366305
1506,-0.221378,0.937721,-0.267696,-1.306775,1.259666,-0.724216
1507,-0.237668,0.950586,-0.199723,0.129681,-0.39596,1.267625
1508,-0.2477619999999999,0.949648,-0.191761,0.050023,0.358305,0.8978459999999999
1509,-0.2475889999999999,0.947728,-0.2012509999999999,-0.135315,1.451488,0.259311
1510,-0.261747,0.949999,-0.170237,0.187421,0.396315,0.521159
1511,-0.269124,0.95325,-0.137391,0.111607,-0.2551449999999999,0.439485
1512,-0.267719,0.956959,-0.111999,-0.028225,-0.3476,0.194686
1513,-0.267073,0.960537,-0.07764,-0.386079,-0.0287899999999999,0.003529
1514,-0.272572,0.960721,-0.052024,-0.013423,0.045367,-0.01603
1515,-0.284202,0.958249,-0.0312339999999999,0.392052,-0.057477,0.12149
1516,-0.29704,0.954829,-0.00747,0.453366,-0.192439,-0.00434
1517,-0.3044969999999999,0.952425,0.012467,0.246834,-0.2574929999999999,-0.240021
1518,-0.3095699999999999,0.950369,0.030854,0.132217,-0.264654,-0.06102
1519,-0.316845,0.947172,0.049588,0.108624,-0.142759,0.076602
1520,-0.3270909999999999,0.94244,0.0693059999999999,0.050296,-0.03767,-0.039948
1521,-0.339025,0.936597,0.088508,0.0833179999999999,-0.026624,-0.084602
1522,-0.352219,0.930125,0.103891,0.185333,0.034444,-0.1030369999999999
1523,-0.3649489999999999,0.923392,0.118923,0.283192,0.144463,-0.163082
1524,-0.377711,0.916278,0.133239,0.323328,0.194043,-0.274154
1525,-0.391725,0.908863,0.143188,0.46956,0.306377,-0.244781
1526,-0.406206,0.901703,0.148028,0.544771,0.433716,-0.2064239999999999
1527,-0.419651,0.8953709999999999,0.148955,0.528965,0.482452,-0.228026
1528,-0.431847,0.8897860000000001,0.147559,0.344567,0.492356,-0.34214
1529,-0.445722,0.8838889999999999,0.141617,0.376417,0.447974,-0.402756
1530,-0.46237,0.8772030000000001,0.12928,0.504362,0.594843,-0.252144
1531,-0.47856,0.871331,0.10839,0.483,0.5014109999999999,-0.202338
1532,-0.489564,0.8685219999999999,0.077339,0.2677469999999999,0.4041369999999999,-0.0845409999999999
1533,-0.493205,0.869042,0.038738,0.269374,0.455039,0.129017
1534,-0.4885319999999999,0.872533,-0.003037,0.41558,0.428172,0.416764
1535,-0.474283,0.8791100000000001,-0.04699,0.169153,0.421259,0.541192
1536,-0.454868,0.8861709999999999,-0.088223,0.081439,0.437117,0.549481
1537,-0.437072,0.890409,-0.126993,0.0814049999999999,0.258883,0.325693
1538,-0.423131,0.891027,-0.164377,0.1088,0.0622659999999999,0.408701
1539,-0.407895,0.8901969999999999,-0.202878,0.158582,0.073029,0.435513
1540,-0.39111,0.888393,-0.240378,0.19212,0.105489,0.456625
1541,-0.370742,0.887581,-0.273388,0.339721,0.1237109999999999,0.454876
1542,-0.3554449999999999,0.886884,-0.295105,0.35224,0.106341,0.489242
1543,-0.348649,0.885335,-0.3075969999999999,0.383103,0.105998,0.515117
1544,-0.342231,0.885805,-0.313398,0.5664279999999999,0.18817,0.627333
1545,-0.33263,0.888236,-0.316834,0.4725229999999999,0.191613,0.681108
1546,-0.326294,0.890466,-0.317163,0.390045,0.171667,0.7259760000000001
1547,-0.3230449999999999,0.8924280000000001,-0.314969,0.296754,0.0410899999999999,0.647824
1548,-0.320495,0.8935360000000001,-0.314432,0.2272179999999999,-0.009533,0.494608
1549,-0.313642,0.895675,-0.315255,0.20567,0.049988,0.460122
1550,-0.302854,0.8998229999999999,-0.313988,0.123426,0.102572,0.534874
1551,-0.29251,0.903898,-0.312086,0.0756059999999999,0.108996,0.553221
1552,-0.286086,0.907481,-0.307609,-0.080826,-0.031092,0.538062
1553,-0.280746,0.91229,-0.298159,-0.0927429999999999,-0.099576,0.50371
1554,-0.27526,0.918535,-0.28375,-0.08619,-0.126589,0.472517
1555,-0.269275,0.925468,-0.266439,-0.09158,-0.15023,0.340963
1556,-0.262084,0.932129,-0.249873,-0.075074,-0.139252,0.025172
1557,-0.254238,0.938556,-0.233375,-0.076832,-0.072086,-0.1183859999999999
1558,-0.249184,0.943248,-0.219496,-0.054679,0.168004,-0.498216
1559,-0.252379,0.943695,-0.213853,0.024962,0.393295,-0.541488
1560,-0.262372,0.939964,-0.218213,0.12457,0.499458,-0.476672
1561,-0.263901,0.936704,-0.230067,0.3231199999999999,-0.159574,-0.099309
1562,-0.25633,0.935191,-0.244339,0.247587,-0.417155,0.038116
1563,-0.245313,0.936514,-0.250503,0.189848,-0.622275,0.041915
1564,-0.231565,0.942314,-0.241682,0.159299,0.009132,0.693113
1565,-0.224572,0.948757,-0.2222989999999999,-0.638053,1.4771,0.9311
1566,-0.234257,0.944586,-0.229934,-1.07719,2.283167,-0.283707
1567,-0.257352,0.930101,-0.262051,-0.058795,-0.473268,1.104687
1568,-0.269189,0.928354,-0.256292,0.145441,-1.092676,0.597356
1569,-0.269202,0.937866,-0.2189219999999999,0.1618099999999999,-0.414261,0.8684129999999999
1570,-0.267178,0.947527,-0.175489,0.220441,-0.191179,0.6944560000000001
1571,-0.256693,0.955368,-0.146181,0.505732,0.53743,0.105897
1572,-0.251897,0.958866,-0.130813,0.367223,0.551281,0.066649
1573,-0.254662,0.959556,-0.119947,0.2184829999999999,0.325158,0.0565769999999999
1574,-0.258282,0.95998,-0.108241,0.149563,-0.074436,0.039119
1575,-0.260827,0.961042,-0.091413,-0.071219,-0.200711,-0.020266
1576,-0.261574,0.962869,-0.066707,-0.029441,-0.201089,-0.014744
1577,-0.263634,0.963558,-0.045168,0.129448,-0.109417,-0.0869429999999999
1578,-0.2676159999999999,0.963075,-0.029264,0.191124,0.035766,-0.156146
1579,-0.269553,0.96287,-0.014502,0.2262489999999999,0.071615,-0.2327659999999999
1580,-0.269466,0.962997,-0.003561,0.274593,-0.070525,-0.241785
1581,-0.268215,0.963352,-0.000134,0.176494,-0.105168,-0.238742
1582,-0.267771,0.963474,-0.001941,0.133326,-0.0555299999999999,-0.133023
1583,-0.26904,0.96309,-0.007881,0.158582,-0.031831,-0.111702
1584,-0.268462,0.963149,-0.016094,0.043242,0.032624,-0.2372929999999999
1585,-0.267901,0.963213,-0.0208919999999999,-0.10954,-0.039568,-0.143811
1586,-0.270893,0.962263,-0.025564,0.082371,-0.142531,-0.055399
1587,-0.274182,0.960974,-0.036624,0.424252,0.018152,-0.228467
1588,-0.274253,0.960219,-0.052472,0.462363,0.162401,-0.388477
1589,-0.272494,0.95906,-0.077059,0.176669,0.042816,-0.368406
1590,-0.269938,0.956169,-0.113414,-0.001867,-0.021813,-0.229848
1591,-0.268896,0.94917,-0.1635849999999999,-0.307459,-0.170774,-0.088871
1592,-0.266586,0.93684,-0.2263929999999999,-0.125473,-0.244991,0.432341
1593,-0.2672489999999999,0.91779,-0.293649,0.1068799999999999,-0.4056599999999999,0.735482
1594,-0.270461,0.897076,-0.349423,0.344573,-0.410825,0.6226619999999999
1595,-0.272707,0.881258,-0.3860159999999999,0.5385,0.019881,0.260207
1596,-0.263292,0.87093,-0.41491,0.540361,0.26678,0.155099
1597,-0.244993,0.864442,-0.438988,-0.102007,0.593382,0.520333
1598,-0.222437,0.8619870000000001,-0.4555149999999999,-0.375036,0.402967,0.24418
1599,-0.196441,0.865865,-0.460089,-0.2335829999999999,0.263804,0.058722
1600,-0.171495,0.8769469999999999,-0.448939,-0.053542,-0.07374,0.146861
1601,-0.157193,0.8906430000000001,-0.42666,-0.089678,-0.389804,0.105081
1602,-0.153517,0.906385,-0.3935619999999999,-0.0622879999999999,-0.456922,0.0613929999999999
1603,-0.164526,0.921608,-0.351514,0.085058,-0.3286659999999999,0.074292
1604,-0.185383,0.93595,-0.299369,0.067494,0.059595,0.088172
1605,-0.204736,0.948408,-0.242065,0.06698,0.193179,0.0506589999999999
1606,-0.2161679999999999,0.957717,-0.1898359999999999,0.173153,0.320069,0.004183
1607,-0.226634,0.962951,-0.146117,0.347666,0.1090859999999999,-0.400575
1608,-0.232453,0.966263,-0.11085,0.615891,-0.342026,-0.631154
1609,-0.2284949999999999,0.970145,-0.081211,0.748789,-0.672523,-0.188549
1610,-0.2137639999999999,0.975115,-0.05867,0.314838,-0.749041,0.186432
1611,-0.1943119999999999,0.979506,-0.0528789999999999,-0.1076599999999999,-0.539321,0.351433
1612,-0.17718,0.98263,-0.055061,-1.6274,1.05892,-0.760339
1613,-0.182913,0.981438,-0.057524,-0.251367,1.496086,-1.0937059999999998
1614,-0.200939,0.976766,-0.07442,0.6512720000000001,0.818095,0.038073
1615,-0.194551,0.976878,-0.088578,0.6870890000000001,-0.104457,0.1837619999999999
1616,-0.189801,0.975214,-0.113671,0.378003,0.6892,-0.323081
1617,-0.1858119999999999,0.975831,-0.1149559999999999,0.061545,0.57344,0.324123
1618,-0.186606,0.977108,-0.1021059999999999,0.085608,0.299473,-0.320822
1619,-0.194645,0.976328,-0.094248,-0.114757,0.579793,-0.510763
1620,-0.196448,0.975742,-0.096553,-0.212396,0.528469,-0.734594
1621,-0.192945,0.97391,-0.1194089999999999,-0.194567,0.083463,-0.619711
1622,-0.185137,0.968967,-0.16375,-0.257612,-0.071995,-0.127357
1623,-0.17668,0.958606,-0.223266,-0.266069,-0.061633,-0.067841
1624,-0.167089,0.943296,-0.286817,-0.174967,-0.579435,0.763166
1625,-0.153596,0.928642,-0.3376719999999999,0.084992,-0.7386699999999999,1.065852
1626,-0.139793,0.921126,-0.363286,0.278739,-1.064848,0.6070909999999999
1627,-0.129868,0.909858,-0.3940599999999999,0.356324,-1.005012,0.267961
1628,-0.134936,0.8963840000000001,-0.4222329999999999,0.238391,-0.441824,0.349693
1629,-0.143282,0.88845,-0.436027,0.019228,0.124093,0.439933
1630,-0.150759,0.8875940000000001,-0.435247,0.083621,0.650766,0.469625
1631,-0.163092,0.892797,-0.419889,0.185919,0.428752,0.494382
1632,-0.174547,0.902023,-0.394816,-0.351561,0.341599,0.417017
1633,-0.179048,0.916989,-0.35646,-0.433623,0.162738,-0.5562600000000001
1634,-0.186178,0.93614,-0.298277,-0.116404,0.093523,-0.388613
1635,-0.187871,0.952814,-0.238407,0.089833,0.144995,-0.224865
1636,-0.185769,0.965125,-0.184424,0.558846,0.202417,-0.048684
1637,-0.184085,0.973074,-0.1386619999999999,0.591388,-0.163595,-0.205134
1638,-0.17933,0.978371,-0.103039,0.506601,-0.427224,-0.248279
1639,-0.174047,0.982213,-0.070374,0.465306,-0.985829,0.184021
1640,-0.166381,0.98507,-0.044054,0.073272,-0.7042470000000001,0.164858
1641,-0.156763,0.987138,-0.031147,-0.181738,-0.344407,0.060429
1642,-0.149452,0.9883,-0.03023,-0.969353,1.046078,-1.137922
1643,-0.1514049999999999,0.987884,-0.033891,-0.921974,1.766007,-1.405089
1644,-0.155911,0.986726,-0.045267,0.120983,0.740065,0.6141449999999999
1645,-0.144593,0.987767,-0.05827,0.5610970000000001,1.030635,-0.828083
1646,-0.128022,0.988501,-0.080394,0.113495,0.1249789999999999,0.144236
1647,-0.116876,0.98932,-0.087023,0.084772,-0.077058,-0.330915
1648,-0.118152,0.98744,-0.104831,0.048022,0.377443,-0.352154
1649,-0.124452,0.983635,-0.1302309999999999,-0.035673,0.4231789999999999,-0.399845
1650,-0.12611,0.978359,-0.1640059999999999,-0.1067549999999999,0.01746,-0.190212
1651,-0.124369,0.969521,-0.211071,-0.207312,-0.167076,-0.01865
1652,-0.116298,0.957248,-0.264841,-0.215032,-0.338077,0.355891
1653,-0.1042599999999999,0.942377,-0.317877,-0.188464,-0.415613,0.623617
1654,-0.09007,0.930435,-0.355203,-0.136996,-0.693923,0.8972110000000001
1655,-0.076153,0.920562,-0.38309,-0.055378,-1.003844,0.386035
1656,-0.076365,0.902662,-0.423512,0.027979,-0.767622,0.261295
1657,-0.086966,0.8890620000000001,-0.449441,-0.052057,-0.2352989999999999,0.476358
1658,-0.083476,0.885065,-0.457913,-0.112401,0.311148,0.431104
1659,-0.07392,0.890813,-0.448309,-0.067788,0.6291760000000001,0.408956
1660,-0.075932,0.905434,-0.41763,-0.201457,0.69416,0.06535
1661,-0.0949779999999999,0.922894,-0.373144,-0.101799,-0.013608,-0.5889989999999999
1662,-0.123745,0.93809,-0.323519,0.08749,-0.014186,-0.708555
1663,-0.148322,0.951863,-0.26823,0.459007,0.298885,-0.32636
1664,-0.160241,0.965095,-0.20713,0.5263140000000001,0.3643119999999999,0.3164599999999999
1665,-0.157968,0.975145,-0.155324,0.335459,0.193602,0.324239
1666,-0.149902,0.98126,-0.121017,0.160049,-0.016661,0.243819
1667,-0.1469869999999999,0.985282,-0.087182,0.050078,-1.031776,-0.160972
1668,-0.145863,0.987792,-0.0545779999999999,0.1512339999999999,-1.018904,-0.1066609999999999
1669,-0.142166,0.989287,-0.032978,0.184204,-0.85829,-0.1345329999999999
1670,-0.130975,0.991076,-0.02449,-0.179496,0.8169069999999999,-0.646774
1671,-0.110799,0.993363,-0.030654,-0.4216569999999999,1.402328,-0.8885200000000001
1672,-0.094325,0.994319,-0.049182,-0.283315,0.521367,0.2091849999999999
1673,-0.083243,0.993617,-0.076042,-0.783883,0.041936,-0.284279
1674,-0.0844029999999999,0.992034,-0.093452,-0.830392,0.71985,-0.668022
1675,-0.104235,0.988825,-0.106528,0.513491,0.4187979999999999,0.177238
1676,-0.100434,0.989332,-0.105464,0.572984,0.335588,-0.431691
1677,-0.095225,0.989254,-0.110888,0.156779,0.3916659999999999,-0.408521
1678,-0.103021,0.985908,-0.131759,-0.178198,0.39605,-0.3504489999999999
1679,-0.111063,0.980385,-0.162788,-0.189627,0.127159,-0.5078050000000001
1680,-0.111939,0.971407,-0.20935,-0.334198,0.037092,-0.415634
1681,-0.1141109999999999,0.955468,-0.272123,-0.21026,-0.320031,0.454251
1682,-0.119027,0.934187,-0.336331,-0.03498,-0.6288739999999999,0.853512
1683,-0.122648,0.915636,-0.382831,0.052427,-0.69034,0.901569
1684,-0.1190079999999999,0.907824,-0.402101,0.142934,-0.720064,0.38881
1685,-0.1145,0.89875,-0.423237,0.159361,-0.414772,0.544392
1686,-0.120145,0.891109,-0.437587,0.052732,-0.21368,0.586788
1687,-0.1185369999999999,0.892272,-0.435651,-0.012216,0.4422609999999999,0.36453
1688,-0.114765,0.90023,-0.420009,-0.026302,0.507836,0.240367
1689,-0.114945,0.91437,-0.388212,-0.0827789999999999,0.474272,0.094968
1690,-0.133267,0.92809,-0.347679,-0.110995,0.222163,-0.439004
1691,-0.16587,0.939245,-0.300496,0.082191,0.386286,-0.499278
1692,-0.195709,0.947533,-0.252726,0.210342,0.460701,-0.461217
1693,-0.212288,0.95499,-0.207167,0.41053,0.322704,-0.045885
1694,-0.2172,0.962245,-0.164011,0.3129639999999999,-0.108546,-0.171728
1695,-0.215658,0.968043,-0.127963,0.294896,-0.351588,-0.16734
1696,-0.211363,0.972768,-0.095061,0.5117010000000001,-0.982351,0.108855
1697,-0.204198,0.97666,-0.066538,0.454717,-1.165548,0.526682
1698,-0.192765,0.980646,-0.034088,0.277955,-1.107309,0.4857479999999999
1699,-0.185092,0.982707,-0.003774,-0.712598,0.023549,-0.220194
1700,-0.184066,0.982788,0.0153009999999999,-0.8522040000000001,1.97197,-2.156948
1701,-0.19921,0.979702,-0.022054,-0.112009,2.067097,-2.388347
1702,-0.193147,0.980938,-0.021002,0.061051,-0.4259449999999999,1.232275
1703,-0.181385,0.982391,-0.044657,-0.41798,-0.361877,-0.103444
1704,-0.18847,0.980427,-0.056813,-0.2828739999999999,0.167278,-0.282207
1705,-0.198349,0.97895,-0.047962,0.764022,0.92701,-0.036266
1706,-0.192564,0.980582,-0.036924,0.8362709999999999,0.199579,0.127973
1707,-0.193673,0.980133,-0.0425959999999999,0.647195,-0.039887,-0.339057
1708,-0.195785,0.979649,-0.044066,0.208617,-0.21468,-0.338014
1709,-0.193603,0.979803,-0.049895,-0.060746,0.03805,-0.239182
1710,-0.189822,0.98002,-0.059275,-0.137128,-0.003915,-0.122121
1711,-0.186851,0.979488,-0.075334,-0.27282,-0.307644,-0.257323
1712,-0.184024,0.978034,-0.097832,-0.409528,-0.399451,-0.052055
1713,-0.18432,0.974326,-0.129233,-0.409232,-0.3957429999999999,-0.020654
1714,-0.190227,0.96812,-0.162922,-0.003896,-0.265972,0.250126
1715,-0.202065,0.960045,-0.193575,0.323525,0.591515,0.030031
1716,-0.212705,0.952585,-0.217546,0.334165,0.598975,0.054002
1717,-0.2049699999999999,0.951229,-0.2305199999999999,0.5626359999999999,1.234318,-0.066843
1718,-0.18233,0.953436,-0.240217,0.236789,0.433985,-0.199953
1719,-0.169123,0.953573,-0.2491679999999999,0.041681,0.195673,-0.106194
1720,-0.166235,0.952547,-0.2549659999999999,-0.365503,-0.159853,0.047081
1721,-0.162633,0.953747,-0.252797,-0.23054,-0.077907,0.102711
1722,-0.15832,0.956487,-0.245063,-0.234853,-0.080648,0.0949769999999999
1723,-0.156341,0.959918,-0.232601,-0.0647129999999999,-0.081348,-0.053959
1724,-0.160215,0.962656,-0.218204,0.169599,-0.170175,0.027363
1725,-0.165626,0.965019,-0.203211,0.1912,-0.239601,0.014445
1726,-0.170632,0.966968,-0.189328,0.107445,-0.423175,-0.034137
1727,-0.176637,0.968058,-0.177903,0.045336,-0.583155,-0.1617569999999999
1728,-0.181838,0.969252,-0.165748,0.079803,-0.467726,-0.283776
1729,-0.183924,0.970684,-0.154697,0.059549,-0.259304,-0.350979
1730,-0.18152,0.972211,-0.147793,-0.036635,-0.151228,-0.590183
1731,-0.17879,0.973306,-0.143865,-0.020276,-0.079812,-0.669566
1732,-0.177848,0.973977,-0.140447,-0.06756,0.169257,-0.589625
1733,-0.177103,0.973736,-0.143039,-0.131857,-0.058712,-0.423046
1734,-0.177231,0.972077,-0.153765,-0.142227,-0.345276,-0.272733
1735,-0.1774079999999999,0.970575,-0.1627849999999999,-0.100485,-0.788293,-0.432872
1736,-0.184513,0.968882,-0.164954,-0.081265,0.172948,-0.208428
1737,-0.207161,0.966097,-0.15404,0.3119429999999999,0.93559,2.908618
1738,-0.233994,0.962852,-0.134728,-0.297103,1.328805,2.379601
1739,-0.214677,0.970192,-0.11238,-0.192427,0.481072,-0.2276159999999999
1740,-0.209519,0.973727,-0.089139,-0.2550199999999999,0.506238,0.939405
1741,-0.212215,0.974597,-0.071512,-0.00655,0.92764,0.571192
1742,-0.217084,0.975772,-0.027023,0.413937,0.592282,0.196838
1743,-0.217694,0.975755,0.022316,0.38194,0.229293,0.587609
1744,-0.213299,0.975152,0.059736,0.120815,0.06919,0.273424
1745,-0.2141809999999999,0.973062,0.085231,-0.10662,0.101859,-0.376766
1746,-0.216276,0.970311,0.108197,-0.188341,0.0861919999999999,-0.467908
1747,-0.216662,0.965349,0.145405,-0.051999,-0.277682,0.091579
1748,-0.2218969999999999,0.957963,0.181805,0.139469,-0.388413,-0.0211909999999999
1749,-0.231926,0.949155,0.212836,0.177315,-0.3356449999999999,-0.182699
1750,-0.246309,0.939063,0.2397409999999999,-0.0244729999999999,-0.069815,-0.386119
1751,-0.2631429999999999,0.927631,0.265027,-0.041682,-0.061282,-0.247342
1752,-0.282578,0.915123,0.287546,0.1867069999999999,-0.0352699999999999,-0.182336
1753,-0.304586,0.901362,0.307825,0.682439,0.15299,-0.488687
1754,-0.328015,0.888569,0.320676,0.331998,0.311748,-0.547315
