,gravity.x,gravity.y,gravity.z,userAcceleration.x,userAcceleration.y,userAcceleration.z
0,0.105371,0.83426,-0.541209,-0.085076,-0.3369,0.32603
1,0.120577,0.8509110000000001,-0.511284,-0.051378,-0.594075,0.311974
2,0.128792,0.868458,-0.4787409999999999,0.006004,-0.821751,0.199078
3,0.127768,0.887928,-0.441882,0.028681,-1.017093,0.07175
4,0.116243,0.908824,-0.400657,0.004774,-1.03445,0.048424
5,0.097472,0.927517,-0.360848,0.020768,-0.992062,-0.004356
6,0.07585,0.942623,-0.325129,0.081026,-0.79359,-0.113729
7,0.054122,0.953888,-0.295242,0.025193,-0.33368,-0.0715789999999999
8,0.0380449999999999,0.961923,-0.270658,-0.005834,-0.154321,-0.050722
9,0.030345,0.966279,-0.255701,-0.214519,0.420104,0.126948
10,0.035087,0.965945,-0.256357,-0.647925,1.182615,0.132929
11,0.048183,0.966927,-0.25046,-0.8713489999999999,1.641243,-0.109571
12,0.079972,0.972022,-0.220859,-0.084793,-0.480887,0.235614
13,0.109037,0.974511,-0.1960609999999999,0.043261,-0.574547,0.5125430000000001
14,0.123155,0.973662,-0.191875,0.12686,-0.3290389999999999,0.2143969999999999
15,0.126688,0.967422,-0.219192,1.055898,3.836121,-0.679307
16,0.13843,0.959525,-0.245252,0.670484,0.373162,0.222318
17,0.145474,0.955955,-0.254925,0.151096,-0.546974,0.420116
18,0.1398049999999999,0.957954,-0.250556,0.192379,-0.3648909999999999,-0.181009
19,0.126182,0.963736,-0.235141,0.167397,0.1168309999999999,-0.030285
20,0.119848,0.969108,-0.215558,0.168406,0.183266,0.045469
21,0.120833,0.973118,-0.1960609999999999,0.071183,0.25114,0.248903
22,0.123429,0.97604,-0.179198,-0.1612859999999999,0.010838,0.1930069999999999
23,0.12417,0.97846,-0.164916,-0.196238,-0.09635,0.1044
24,0.118613,0.980711,-0.155359,-0.247169,-0.298842,-0.191946
25,0.109463,0.982311,-0.1519339999999999,-0.0777549999999999,-0.36172,-0.147596
26,0.1012,0.982928,-0.153662,0.020489,-0.3880639999999999,-0.107675
27,0.097419,0.982514,-0.158666,0.150704,-0.535249,-0.066065
28,0.099263,0.981416,-0.164224,0.164424,-0.476289,-0.072013
29,0.1046329999999999,0.979529,-0.171973,0.147931,-0.4012969999999999,-0.066278
30,0.112088,0.976683,-0.183102,0.231952,-0.122893,-0.038212
31,0.1197319999999999,0.973062,-0.197014,0.351596,-0.022806,-0.034523
32,0.124714,0.968841,-0.213995,0.525021,-0.068359,0.011022
33,0.123842,0.963635,-0.2367929999999999,0.4596699999999999,-0.273068,0.031563
34,0.116203,0.955738,-0.270298,0.280968,-0.177052,0.117222
35,0.101985,0.942443,-0.3184349999999999,0.070409,0.074906,0.1329789999999999
36,0.081296,0.920696,-0.381719,-0.128735,0.496922,0.017477
37,0.0589779999999999,0.889618,-0.4528819999999999,-0.335681,0.943329,-0.127074
38,0.039742,0.856994,-0.513792,-0.490242,1.017579,-0.048769
39,0.030762,0.831074,-0.555311,-0.48288,0.544842,0.078306
40,0.030048,0.810704,-0.584685,-0.233341,0.177852,-0.043199
41,0.0391629999999999,0.7969930000000001,-0.6027170000000001,-0.3603,0.240665,-0.29247
42,0.053294,0.7909609999999999,-0.609541,0.007436,0.523675,-0.228853
43,0.068996,0.791505,-0.607256,0.0042,0.144546,-0.0439279999999999
44,0.089923,0.8003140000000001,-0.5928,-0.101016,-0.013159,0.107601
45,0.114541,0.8166899999999999,-0.565595,-0.1484,-0.145013,0.257169
46,0.1368,0.836939,-0.5299229999999999,-0.087438,-0.373148,0.310044
47,0.151617,0.859353,-0.488389,-0.150442,-0.599618,0.191956
48,0.155655,0.884992,-0.438817,-0.135193,-0.791898,0.085698
49,0.149469,0.911609,-0.382921,0.001196,-0.920932,0.119616
50,0.137655,0.93498,-0.326899,0.03979,-0.921568,0.080271
51,0.121025,0.95427,-0.273352,0.074257,-0.7390760000000001,0.088873
52,0.10077,0.968243,-0.228802,0.00061,-0.211896,0.132381
53,0.077519,0.975145,-0.207563,-0.1380809999999999,0.298567,0.019483
54,0.061876,0.975823,-0.2096199999999999,-0.244997,0.331657,-0.071935
55,0.059011,0.973672,-0.220184,-0.324849,0.290702,-0.070084
56,0.063222,0.970439,-0.23292,-0.701237,0.25089,-0.216375
57,0.074212,0.968174,-0.239024,-0.8015369999999999,0.806454,-0.044027
58,0.089976,0.968295,-0.2330449999999999,-0.385234,0.357572,0.514112
59,0.11142,0.96808,-0.224514,0.175323,-0.112291,0.653622
60,0.126627,0.96683,-0.221823,0.416555,-0.2676719999999999,0.461264
61,0.137299,0.96824,-0.208951,0.721511,-0.0819179999999999,0.026349
62,0.13848,0.972159,-0.189022,0.527047,0.269265,-0.649998
63,0.139202,0.973719,-0.180263,1.160267,3.118932,-0.343282
64,0.154518,0.971905,-0.17755,0.4210899999999999,0.1310609999999999,0.236404
65,0.175717,0.970137,-0.167208,-0.041775,-0.352613,0.039141
66,0.177517,0.970202,-0.1649119999999999,-0.0173,-0.278078,-0.144704
67,0.170329,0.971593,-0.164302,0.08585,0.022304,0.104121
68,0.163316,0.973004,-0.163071,0.099685,0.11861,0.202835
69,0.160185,0.974677,-0.156033,-0.181135,-0.078711,0.141125
70,0.159839,0.976313,-0.145824,-0.283542,-0.180018,0.11407
71,0.161181,0.977624,-0.135172,-0.306734,-0.211923,0.089014
72,0.161773,0.97872,-0.126236,-0.246704,-0.310965,-0.050445
73,0.160209,0.979443,-0.122573,-0.105262,-0.391507,-0.093628
74,0.1583119999999999,0.979202,-0.126886,-0.046084,-0.444641,-0.110465
75,0.15772,0.977559,-0.13965,0.114329,-0.388128,-0.16609
76,0.159861,0.974588,-0.156916,0.235251,-0.001428,0.0207919999999999
77,0.160029,0.970551,-0.180059,0.278555,0.145034,0.060568
78,0.159275,0.96525,-0.207182,0.45132,0.169073,0.017241
79,0.161115,0.958219,-0.2363449999999999,0.441714,-0.070584,-0.067732
80,0.158901,0.94917,-0.271712,0.4168739999999999,-0.2879,0.005049
81,0.146204,0.936676,-0.318218,0.251562,-0.246704,0.168667
82,0.122693,0.91777,-0.377684,0.044833,0.010361,0.059203
83,0.094807,0.88936,-0.447271,-0.180577,0.517089,-0.146967
84,0.064555,0.856975,-0.5113,-0.4779,1.106908,-0.103736
85,0.039268,0.8282790000000001,-0.558938,-0.536567,1.011519,0.270181
86,0.026197,0.8061229999999999,-0.591167,-0.327359,0.281126,0.19154
87,0.025563,0.791417,-0.610742,-0.370488,-0.039418,-0.107016
88,0.044084,0.783233,-0.620164,-0.271974,0.203035,-0.246657
89,0.061992,0.7804979999999999,-0.622077,-0.086177,0.2247809999999999,-0.049829
90,0.075697,0.7860729999999999,-0.613481,-0.094007,-0.021394,0.102236
91,0.093589,0.8003060000000001,-0.592242,-0.172095,-0.237806,0.216937
92,0.116822,0.822161,-0.557139,-0.153214,-0.39728,0.191737
93,0.140643,0.848131,-0.510777,-0.118365,-0.5777,0.122593
94,0.154172,0.875338,-0.4582729999999999,-0.078046,-0.792376,-0.034204
95,0.151719,0.902184,-0.40379,-0.021149,-0.8635639999999999,-0.082676
96,0.134553,0.925092,-0.355106,0.05281,-0.790555,-0.082486
97,0.110973,0.942218,-0.316086,0.318409,-0.392169,0.011459
98,0.089607,0.953836,-0.286648,0.277733,-0.266794,-0.013828
99,0.075659,0.961235,-0.265148,0.05549,0.180229,0.009044
100,0.069996,0.964554,-0.254434,-0.069691,0.296463,0.029443
101,0.072446,0.965432,-0.2503849999999999,-0.580533,0.371864,0.037357
102,0.0788659999999999,0.967191,-0.241498,-0.865151,0.759737,-0.045825
103,0.083979,0.970527,-0.225886,-0.956401,0.919197,-0.079534
104,0.097515,0.972469,-0.2116469999999999,-0.17805,-0.0308339999999999,0.1830369999999999
105,0.115826,0.970906,-0.209584,0.238208,-0.096913,0.271001
106,0.130243,0.967569,-0.216444,0.407049,0.007865,0.01573
107,0.137932,0.966449,-0.216683,0.466683,0.7470680000000001,-0.497596
108,0.138051,0.965267,-0.221815,0.883251,1.370488,-0.224962
109,0.14397,0.964088,-0.2231739999999999,0.310147,0.153313,0.047316
110,0.145696,0.965174,-0.217281,0.12649,-0.169902,0.0211599999999999
111,0.140985,0.968735,-0.204148,0.164908,-0.014648,-0.071136
112,0.135691,0.973205,-0.185634,0.188375,0.03949,0.076519
113,0.133931,0.976843,-0.166854,0.120067,0.007669,0.163909
114,0.134767,0.97963,-0.14887,0.0069409999999999,-0.116853,0.189092
115,0.135646,0.98179,-0.133001,-0.089244,-0.213525,0.155813
116,0.1348089999999999,0.983432,-0.121195,-0.139616,-0.284152,0.014643
117,0.1327559999999999,0.98465,-0.113316,-0.164128,-0.306717,-0.129818
118,0.129887,0.985392,-0.110144,-0.166905,-0.313212,-0.141473
119,0.12673,0.985348,-0.114144,-0.111517,-0.412121,-0.101539
120,0.1245759999999999,0.984333,-0.1247809999999999,0.0140039999999999,-0.512836,-0.10227
121,0.123669,0.982247,-0.1410529999999999,0.128544,-0.505868,-0.127593
122,0.1234109999999999,0.979309,-0.160389,0.213625,-0.394973,-0.129956
123,0.1245329999999999,0.975203,-0.18295,0.33375,-0.184859,-0.016818
124,0.125783,0.968707,-0.213975,0.4686689999999999,0.016446,-0.031645
125,0.123922,0.958025,-0.258519,0.4907939999999999,-0.043932,0.187031
126,0.113881,0.940692,-0.319578,0.2159829999999999,-0.061694,0.252119
127,0.094093,0.913994,-0.3946659999999999,-0.050026,0.290718,0.086103
128,0.067297,0.877819,-0.4742409999999999,-0.243216,0.932667,-0.245867
129,0.030662,0.843808,-0.5357689999999999,-0.346962,1.207065,-0.239454
130,0.005515,0.82111,-0.5707439999999999,-0.624305,0.501186,0.1009559999999999
131,0.002861,0.80799,-0.5891890000000001,-0.414055,0.010781,-0.002119
132,0.020313,0.800318,-0.599232,-0.469181,-0.004404,-0.166469
133,0.047415,0.797492,-0.601464,-0.19776,0.435327,-0.158134
134,0.073723,0.8029430000000001,-0.591479,-0.043038,0.3340349999999999,-0.040708
135,0.100858,0.817825,-0.5665600000000001,-0.072156,0.079834,0.099885
136,0.129011,0.8383139999999999,-0.5297029999999999,-0.1008429999999999,-0.168515,0.1696869999999999
137,0.153613,0.8610270000000001,-0.484804,-0.0645169999999999,-0.444233,0.163012
138,0.166171,0.8862209999999999,-0.432434,-0.0242949999999999,-0.720221,0.079621
139,0.160882,0.913352,-0.374038,0.01876,-0.844764,0.0164939999999999
140,0.141921,0.938746,-0.31403,0.029054,-0.843332,-0.048473
141,0.115047,0.958901,-0.259371,0.19315,-0.6184930000000001,-0.090849
142,0.086361,0.972097,-0.218103,0.222431,-0.352193,-0.03829
143,0.062361,0.978331,-0.197434,0.1152059999999999,0.002001,0.031708
144,0.049786,0.97798,-0.202673,-0.451672,0.212907,-0.0263769999999999
145,0.048936,0.973011,-0.225512,-0.6688390000000001,0.304898,0.005709
146,0.053084,0.969615,-0.238807,-0.669921,0.56313,-0.164452
147,0.0541769999999999,0.970508,-0.234903,-0.00396,-0.13663,0.927301
148,0.052757,0.969721,-0.2384489999999999,0.1867609999999999,-0.26774,0.3702539999999999
149,0.066011,0.969995,-0.2339909999999999,0.6107020000000001,-0.4873439999999999,-0.052187
150,0.080672,0.973442,-0.214247,0.442568,3.4972449999999995,-1.130693
151,0.081374,0.970815,-0.225604,0.441866,3.4998730000000005,-1.119336
152,0.1028099999999999,0.969046,-0.224455,0.2048829999999999,0.46087,0.707533
153,0.111331,0.968403,-0.223161,0.158582,-0.489567,-0.198776
154,0.101822,0.97071,-0.217611,0.380524,-0.252616,-0.264719
155,0.088347,0.974738,-0.205134,0.294984,0.005425,0.012339
156,0.0805159999999999,0.977662,-0.194152,0.1224869999999999,-0.0267339999999999,0.19908
157,0.0782419999999999,0.980253,-0.18161,0.124761,-0.029325,0.186539
158,0.080336,0.982714,-0.166791,-0.268232,-0.09067,-0.111041
159,0.0812389999999999,0.985269,-0.150481,-0.248842,-0.211252,-0.111375
160,0.077017,0.987337,-0.1386869999999999,-0.159521,-0.253343,-0.035782
161,0.070551,0.988736,-0.131998,0.187063,-0.300214,-0.079413
162,0.064609,0.989495,-0.12933,0.314267,-0.357903,-0.0792269999999999
163,0.058355,0.989663,-0.1310059999999999,0.356257,-0.371605,-0.050131
164,0.049781,0.989136,-0.138315,0.417931,-0.295563,-0.073904
165,0.039161,0.988163,-0.148323,0.452568,-0.255787,-0.078667
166,0.027176,0.986751,-0.159949,0.421463,-0.221782,-0.03811
167,0.012262,0.984396,-0.17554,0.388175,-0.196035,0.059237
168,-0.006629,0.979889,-0.199433,0.364585,-0.164551,0.183304
169,-0.030156,0.97167,-0.234408,0.151372,-0.10842,0.264285
170,-0.057683,0.958402,-0.279532,0.044469,0.091723,0.274939
171,-0.087434,0.93806,-0.33526,-0.258453,0.535054,0.144266
172,-0.113917,0.914415,-0.388418,-0.398077,0.64453,0.14324
173,-0.132635,0.8929940000000001,-0.430081,-0.421015,0.345715,0.2080659999999999
174,-0.132487,0.873383,-0.468668,-0.344732,0.132217,0.038843
175,-0.108868,0.856626,-0.504321,-0.652057,0.488757,-0.398511
176,-0.058769,0.845725,-0.530374,-0.280998,0.7369020000000001,-0.400382
177,-0.014624,0.8417469999999999,-0.539674,0.055487,0.555485,-0.195968
178,0.017362,0.846233,-0.5325300000000001,0.239946,-0.045528,-0.137285
179,0.0443389999999999,0.858965,-0.510111,0.306186,-0.216357,-0.036047
180,0.0610809999999999,0.8752840000000001,-0.4797359999999999,0.3820489999999999,-0.366007,0.037613
181,0.0615559999999999,0.8932469999999999,-0.4453319999999999,0.260419,-0.56822,0.247105
182,0.050362,0.911563,-0.408064,0.1142349999999999,-0.556949,0.232786
183,0.031475,0.929342,-0.367876,0.075184,-0.535741,0.178011
184,0.006517,0.944575,-0.32823,0.006575,-0.452449,0.100172
185,-0.021318,0.955814,-0.293198,-0.100844,-0.346851,-0.036956
186,-0.043174,0.964561,-0.260306,-0.368264,0.035607,-0.23179
187,-0.0543409999999999,0.970211,-0.236087,-0.365428,0.456653,-0.0610929999999999
188,-0.063295,0.969157,-0.238179,-0.334578,0.523077,-0.120433
189,-0.0659049999999999,0.963672,-0.258829,-0.201551,0.331723,-0.310537
190,-0.049735,0.95816,-0.281878,-0.01635,-0.062988,-0.445859
191,-0.021454,0.955241,-0.295051,-0.0456079999999999,-0.650462,-0.40635
192,0.0117489999999999,0.955912,-0.293417,0.0945889999999999,-0.823787,-0.241648
193,0.039353,0.957506,-0.285717,-0.082902,-0.4860239999999999,0.022762
194,0.044241,0.957965,-0.283453,0.03158,0.10545,0.395483
195,0.028074,0.958444,-0.283896,0.202806,1.0268620000000002,0.293921
196,0.023487,0.960092,-0.278698,0.262676,0.430335,0.372768
197,0.026215,0.961428,-0.273806,0.492904,0.02548,0.327074
198,0.0266529999999999,0.964938,-0.261123,0.377675,1.007932,0.324096
199,0.016556,0.967808,-0.251143,0.5151359999999999,1.540096,0.100752
200,0.017434,0.969558,-0.2442389999999999,0.168876,0.599594,-0.0664299999999999
201,0.015718,0.972089,-0.234084,-0.301484,-0.292325,0.286437
202,0.006992,0.97565,-0.219219,-0.113101,-0.109516,0.303204
203,0.001379,0.980567,-0.19618,0.077814,0.387582,0.021498
204,0.002149,0.986101,-0.166133,0.0500209999999999,0.218016,0.067394
205,0.003085,0.990137,-0.140072,-0.013705,-0.100351,0.212078
206,0.000495,0.993023,-0.117921,-0.016257,-0.30772,0.258882
207,-0.006822,0.995307,-0.096525,-0.021025,-0.4171359999999999,0.184324
208,-0.018955,0.996942,-0.075817,-0.008892,-0.418771,0.163616
209,-0.03453,0.997855,-0.0556169999999999,0.098906,-0.41677,0.073958
210,-0.050787,0.998141,-0.033705,0.15354,-0.313845,0.035979
211,-0.066736,0.99772,-0.010092,0.178903,-0.233453,-0.051569
212,-0.082175,0.996538,0.012587,0.196768,-0.076464,-0.199339
213,-0.097015,0.994666,0.035029,0.308426,0.12304,-0.286112
214,-0.110145,0.992382,0.055194,0.431404,0.143284,-0.147403
215,-0.119918,0.990299,0.070198,0.500579,0.132931,-0.10041
216,-0.126922,0.988591,0.081108,0.5628810000000001,0.18867,-0.233329
217,-0.132865,0.987309,0.086993,0.537864,0.245571,-0.330158
218,-0.138602,0.986644,0.085575,0.616888,0.470738,-0.319553
219,-0.138569,0.987662,0.072959,0.434666,0.600214,-0.124488
220,-0.132063,0.990193,0.045567,0.316069,0.292338,0.120235
221,-0.119778,0.992779,0.006568,0.233654,0.12978,0.113443
222,-0.1046589999999999,0.993728,-0.039385,0.089477,-0.145568,0.18091
223,-0.090395,0.991704,-0.091386,-0.060087,-0.036779,0.112763
224,-0.077297,0.9862,-0.146405,-0.141194,0.271917,0.252026
225,-0.066045,0.976748,-0.203964,-0.144282,0.713773,0.211609
226,-0.052279,0.964664,-0.258245,0.0295889999999999,0.564542,0.017111
227,-0.0287029999999999,0.951728,-0.305598,0.146898,0.477334,0.041438
228,-0.002445,0.937319,-0.348465,0.313053,0.350157,0.110885
229,0.014241,0.922132,-0.386614,0.32571,0.288592,0.234636
230,0.024599,0.905877,-0.422826,0.324659,0.231315,0.277959
231,0.031254,0.890383,-0.454138,0.214718,0.078764,0.292288
232,0.027056,0.879669,-0.4748159999999999,0.147169,-0.1389,0.440927
233,0.016345,0.873791,-0.486027,0.099194,-0.28204,0.545551
234,0.001927,0.8719030000000001,-0.489675,0.0874429999999999,-0.419556,0.5258079999999999
235,-0.014972,0.8741459999999999,-0.485433,0.028675,-0.498474,0.496114
236,-0.0322649999999999,0.879402,-0.474985,0.011925,-0.4815899999999999,0.49354
237,-0.046737,0.8874540000000001,-0.45852,-0.039628,-0.3720739999999999,0.37185
238,-0.055385,0.8978950000000001,-0.436712,-0.103627,-0.318839,0.258856
239,-0.057149,0.909241,-0.412327,-0.16389,-0.268586,0.151982
240,-0.053097,0.919905,-0.388529,-0.207981,-0.142729,0.0155889999999999
241,-0.045672,0.92962,-0.365679,-0.200605,0.082465,-0.161573
242,-0.036745,0.936366,-0.349096,-0.15869,0.435673,-0.225428
243,-0.0281459999999999,0.937946,-0.345638,0.096688,0.704587,-0.188725
244,-0.02122,0.93415,-0.35625,0.1168309999999999,0.581414,-0.232052
245,-0.01732,0.925519,-0.378306,0.252169,0.002155,-0.217855
246,-0.020319,0.918233,-0.395519,0.058832,-0.636189,-0.1298099999999999
247,-0.02756,0.915305,-0.401818,0.221606,-0.773474,-0.122322
248,-0.033016,0.914561,-0.403098,0.181942,-0.413463,-0.137735
249,-0.030244,0.912971,-0.406902,-0.0846389999999999,0.204049,0.058681
250,-0.0242819999999999,0.909652,-0.414662,0.686239,1.7526099999999998,0.0242509999999999
251,-0.0140349999999999,0.916144,-0.400604,0.207746,0.918008,0.601333
252,0.000842,0.921879,-0.387476,0.149763,-0.288472,0.351526
253,-0.000279,0.922359,-0.386333,0.320393,-0.376537,0.3336139999999999
254,-0.013306,0.927275,-0.374145,0.380814,-0.425383,0.4952539999999999
255,-0.034357,0.936792,-0.348196,0.337305,-0.017053,0.4610039999999999
256,-0.058965,0.946223,-0.3180949999999999,0.262243,0.262944,0.406351
257,-0.075436,0.954613,-0.288137,-0.009647,0.575797,0.191595
258,-0.072576,0.964731,-0.253037,0.061925,0.184561,0.098389
259,-0.061426,0.974513,-0.215756,0.041788,0.055684,0.092907
260,-0.05427,0.981791,-0.182047,0.026042,-0.2074679999999999,0.141566
261,-0.054222,0.986571,-0.154069,0.096108,-0.250457,0.102708
262,-0.057546,0.989954,-0.129151,0.12554,-0.291132,0.057907
263,-0.060874,0.992671,-0.104392,0.140677,-0.263927,0.044577
264,-0.064493,0.994673,-0.0804179999999999,0.153742,-0.183164,0.121388
265,-0.0689289999999999,0.995941,-0.057885,0.101095,-0.116317,0.204965
266,-0.0736179999999999,0.996758,-0.032463,0.040659,0.007011,0.1381599999999999
267,-0.079992,0.996793,-0.002425,0.032293,0.071811,-0.043244
268,-0.089019,0.995626,0.028376,0.1076039999999999,-0.005605,-0.215204
269,-0.100392,0.993343,0.0564929999999999,0.177815,-0.003948,-0.252477
270,-0.110864,0.990716,0.078688,0.34234,0.108924,-0.122557
271,-0.118309,0.988681,0.092266,0.340431,0.161313,-0.122997
272,-0.122302,0.98778,0.096602,0.342959,0.203855,-0.172377
273,-0.124855,0.987626,0.094896,0.4280319999999999,0.263442,-0.251833
274,-0.126358,0.987842,0.090568,0.460831,0.222241,-0.249702
275,-0.125641,0.988484,0.084338,0.444977,0.273219,-0.115435
276,-0.120826,0.990441,0.066535,0.442451,0.314353,0.090081
277,-0.1099069999999999,0.993303,0.035635,0.248411,0.204649,-0.009634
278,-0.09045,0.9959,-0.001309,0.012615,0.0182449999999999,0.062192
279,-0.066366,0.996681,-0.04715,-0.114588,-0.014152,0.154527
280,-0.043746,0.993294,-0.107018,-0.272523,0.241554,0.150491
281,-0.025025,0.983873,-0.177111,-0.206588,0.689879,0.200899
282,-0.008628,0.968778,-0.247781,-0.136208,0.824283,0.306848
283,0.0159039999999999,0.951323,-0.307786,0.089442,0.442797,0.256578
284,0.052359,0.93364,-0.354365,0.177729,0.430282,0.089183
285,0.089709,0.916935,-0.388821,0.201413,0.511898,0.082776
286,0.116202,0.900244,-0.419592,0.157419,0.516519,0.208823
287,0.133418,0.883123,-0.449771,6.6e-05,0.1899819999999999,0.236179
288,0.136607,0.867245,-0.478774,-0.123103,-0.127957,0.388381
289,0.125469,0.854601,-0.5039,-0.163982,-0.400423,0.5069670000000001
290,0.108079,0.846666,-0.521033,-0.173616,-0.556124,0.425955
291,0.090451,0.844317,-0.528155,-0.2370719999999999,-0.574358,0.3324
292,0.078097,0.8470469999999999,-0.525749,-0.178851,-0.5780350000000001,0.211143
293,0.06925,0.855226,-0.513608,-0.10613,-0.620698,0.1443299999999999
294,0.061301,0.8661700000000001,-0.495975,-0.076011,-0.584096,0.0937539999999999
295,0.05385,0.8776200000000001,-0.476322,-0.085557,-0.610546,0.1000559999999999
296,0.04918,0.889178,-0.45491,-0.0657809999999999,-0.61365,0.100586
297,0.050467,0.901459,-0.429912,-0.0223599999999999,-0.485505,0.181361
298,0.0557299999999999,0.914937,-0.39973,-0.0073599999999999,-0.434652,0.179774
299,0.058547,0.927572,-0.369029,0.063187,-0.326391,0.185313
300,0.051957,0.936756,-0.346104,0.097198,-0.061024,0.156544
301,0.0366779999999999,0.941922,-0.333823,0.055409,0.0372339999999999,0.111914
302,0.018381,0.944833,-0.327036,-0.181543,0.103598,0.003642
303,0.003691,0.948726,-0.316077,-0.264937,0.090794,0.0183009999999999
304,-0.004052,0.954883,-0.296954,-0.2239139999999999,0.098004,0.048816
305,-0.007117,0.961522,-0.274636,-0.36863,0.165752,0.085046
306,-0.002975,0.966637,-0.256132,-0.368882,0.405143,-0.077837
307,0.0057079999999999,0.9697,-0.244234,-0.001542,0.641232,0.150789
308,0.01783,0.971566,-0.236096,0.594902,0.173209,0.314877
309,0.026882,0.971554,-0.235288,0.497227,-0.158413,0.050321
310,0.032902,0.970142,-0.2402929999999999,0.421993,0.188198,-0.170519
311,0.03845,0.969311,-0.242811,0.439546,0.522861,-0.17769
312,0.0410779999999999,0.969283,-0.242493,0.156768,0.760484,-0.343613
313,0.044745,0.968411,-0.245312,0.125451,0.919956,-0.2230099999999999
314,0.053834,0.967056,-0.248807,0.309035,-0.0594779999999999,0.101483
315,0.057599,0.966984,-0.248242,0.386371,-0.164204,0.165982
316,0.05737,0.968359,-0.242877,0.385364,-0.172339,0.190005
317,0.054371,0.970706,-0.234039,0.337032,-0.212115,0.192245
318,0.049023,0.973417,-0.2237309999999999,0.101292,-0.287672,0.186393
319,0.04275,0.976685,-0.210377,0.002782,-0.2018589999999999,0.084599
320,0.037661,0.979613,-0.1973329999999999,-0.033267,-0.14897,0.019125
321,0.0317389999999999,0.981321,-0.189742,-0.152955,-0.135786,-0.067094
322,0.022973,0.981381,-0.19069,-0.160486,-0.17973,-0.069533
323,0.0135419999999999,0.980502,-0.196043,-0.089347,-0.244479,-0.049928
324,0.0049159999999999,0.979169,-0.202987,0.000668,-0.205961,-0.079713
325,-0.002503,0.977361,-0.211563,0.153824,-0.161001,-0.08902
326,-0.00959,0.974106,-0.225888,0.346703,-0.157196,-0.022754
327,-0.0179509999999999,0.967593,-0.251876,0.5676800000000001,-0.207309,0.234634
328,-0.028865,0.954867,-0.295627,0.356852,0.167874,0.130511
329,-0.042092,0.933593,-0.355855,0.2418139999999999,0.382813,0.0314529999999999
330,-0.05355,0.902737,-0.426847,-0.017266,0.596256,-0.063495
331,-0.065321,0.8671620000000001,-0.4937229999999999,-0.592928,1.088984,-0.067357
332,-0.071687,0.835994,-0.544036,-0.6334529999999999,0.646352,0.195693
333,-0.066144,0.811611,-0.580441,-0.473483,0.453602,0.271955
334,-0.058686,0.791938,-0.607775,-0.0590659999999999,-0.050056,0.091936
335,-0.051806,0.775597,-0.629099,0.0210139999999999,-0.126121,-0.0613909999999999
336,-0.0462329999999999,0.765835,-0.641373,0.017608,0.017902,-0.062683
337,-0.040142,0.767134,-0.64023,-0.0318339999999999,0.061037,0.018526
338,-0.032401,0.7801319999999999,-0.624775,-0.08706,-0.095562,0.094777
339,-0.018817,0.803106,-0.595539,-0.165937,-0.341985,0.129994
340,-0.000567,0.8326819999999999,-0.553751,-0.157209,-0.509089,0.045618
341,0.017502,0.865182,-0.501153,-0.103272,-0.6152880000000001,-0.070029
342,0.032581,0.8951600000000001,-0.444553,0.0160949999999999,-0.654544,-0.0540429999999999
343,0.040122,0.919312,-0.391478,0.0337,-0.665269,-0.066331
344,0.040242,0.938686,-0.342416,0.044475,-0.575863,0.0523919999999999
345,0.03832,0.954973,-0.294207,-0.001959,0.009642,0.235812
346,0.035175,0.966238,-0.255238,-0.039402,0.345682,0.189045
347,0.034205,0.970916,-0.2369639999999999,-0.3427989999999999,0.754731,-0.01885
348,0.041608,0.97193,-0.231563,-0.634107,0.3314,-0.250142
349,0.051688,0.973459,-0.22295,-0.5609649999999999,0.019354,-0.265377
350,0.059387,0.976765,-0.20592,-0.3536829999999999,-0.09586,0.2168
351,0.062982,0.978897,-0.194407,0.134619,0.05835,0.496058
352,0.061799,0.978432,-0.1971099999999999,0.272734,0.049431,0.28764
353,0.064448,0.977,-0.203269,0.63886,0.132055,0.0715399999999999
354,0.075457,0.976125,-0.203681,0.766523,0.097407,-0.30024
355,0.086834,0.975676,-0.201285,0.596485,-0.023818,-0.035195
356,0.097287,0.976201,-0.193822,0.353671,0.171413,-0.11433
357,0.1065359999999999,0.977274,-0.1832619999999999,0.2655949999999999,0.811254,-0.166149
358,0.117362,0.977222,-0.176814,0.149072,0.5693630000000001,0.012843
359,0.13162,0.975301,-0.1773809999999999,-0.216322,-0.066213,0.166547
360,0.138896,0.972905,-0.184833,-0.336696,-0.390218,0.139423
361,0.1373869999999999,0.970769,-0.196804,-0.219632,-0.394155,0.018902
362,0.130736,0.969919,-0.2053429999999999,-0.166975,-0.32493,-0.100504
363,0.1220069999999999,0.970049,-0.2100449999999999,-0.0547,-0.275973,-0.1234359999999999
364,0.113639,0.97018,-0.2140949999999999,0.069832,-0.236751,-0.137224
365,0.107557,0.969899,-0.218467,0.157351,-0.1814309999999999,-0.088509
366,0.1027049999999999,0.968826,-0.225451,0.2134719999999999,-0.074935,-0.0953649999999999
367,0.097035,0.966577,-0.237303,0.286143,0.045111,-0.069414
368,0.091536,0.962884,-0.253919,0.396837,-0.002221,0.042036
369,0.085597,0.956473,-0.278983,0.488255,-0.177482,0.120933
370,0.075028,0.946116,-0.3150159999999999,0.4763489999999999,-0.248377,0.213744
371,0.0593309999999999,0.929053,-0.365159,0.255092,-0.10993,0.180085
372,0.042074,0.903058,-0.4274529999999999,-0.082082,0.348178,-0.119101
373,0.028348,0.870619,-0.4911399999999999,-0.5049560000000001,1.004808,-0.242121
374,0.011566,0.841989,-0.539371,-0.5662229999999999,0.954139,-0.019986
375,0.003835,0.8211219999999999,-0.5707399999999999,-0.619939,0.709884,0.1468809999999999
376,0.0144919999999999,0.808701,-0.588041,-0.4447899999999999,0.077087,0.074934
377,0.037492,0.80235,-0.595675,-0.238053,0.082324,-0.021269
378,0.062295,0.798411,-0.598881,-0.100564,0.046361,-0.025111
379,0.086062,0.799259,-0.594792,0.0435,0.027874,0.047566
380,0.11312,0.8065260000000001,-0.580276,-0.036383,-0.091362,0.126952
381,0.1398569999999999,0.818802,-0.55678,-0.07905,-0.158859,0.142504
382,0.159373,0.834168,-0.52798,-0.11497,-0.299302,0.115474
383,0.168809,0.852517,-0.494689,-0.142946,-0.427087,0.02478
384,0.167369,0.874086,-0.456028,-0.147548,-0.498521,-0.0447959999999999
385,0.155212,0.8972129999999999,-0.4134229999999999,-0.125808,-0.550335,-0.103544
386,0.13187,0.9182,-0.3735219999999999,0.041363,-0.367221,-0.042479
387,0.102329,0.934963,-0.339665,0.035656,-0.185147,-0.050548
388,0.076564,0.94678,-0.312644,0.014851,-0.106021,-0.072839
389,0.063053,0.954302,-0.292116,-0.028461,0.128217,-0.073485
390,0.06157,0.957601,-0.281442,-0.255555,0.367167,-0.018973
391,0.068862,0.95855,-0.276477,-0.317855,0.253272,-0.034329
392,0.0801289999999999,0.961616,-0.262438,-0.352117,0.1436079999999999,0.1500109999999999
393,0.089112,0.967794,-0.235444,-0.376663,0.192896,0.365098
394,0.091227,0.97248,-0.214382,-0.240015,0.031228,0.084713
395,0.0885,0.974325,-0.207025,-0.1386099999999999,0.060542,-0.037329
396,0.085632,0.973636,-0.211423,0.338502,0.233685,-0.000277
397,0.091135,0.971463,-0.218984,0.381262,0.252963,-0.005763
398,0.098687,0.970978,-0.217861,0.281974,0.279068,-0.087818
399,0.106637,0.972233,-0.208306,0.379553,0.4096329999999999,-0.140739
400,0.1145019999999999,0.973562,-0.197654,0.415313,0.366831,-0.126839
401,0.123588,0.974028,-0.189723,0.358956,0.195863,-0.200001
402,0.131174,0.973796,-0.185779,0.290259,0.063939,-0.0004849999999999
403,0.133609,0.973781,-0.184119,0.154461,-0.052974,0.055808
404,0.131451,0.974222,-0.183337,0.0519289999999999,-0.136713,0.034137
405,0.127352,0.975163,-0.181214,-0.073839,-0.17519,-0.043883
406,0.124394,0.976448,-0.176281,-0.160435,-0.201668,-0.087681
407,0.124482,0.977517,-0.170193,-0.167771,-0.213646,-0.082264
408,0.126814,0.978202,-0.164435,-0.166853,-0.312156,-0.11677
409,0.1299259999999999,0.978283,-0.161499,-0.096082,-0.309246,-0.1204079999999999
410,0.133322,0.977834,-0.161448,0.051614,-0.2615099999999999,-0.097662
411,0.136489,0.977116,-0.163139,0.236314,-0.133,-0.022469
412,0.1386349999999999,0.976138,-0.167138,0.400855,-0.080538,0.039727
413,0.140274,0.974874,-0.173046,0.4896399999999999,-0.060826,7.2e-05
414,0.138953,0.973443,-0.181937,0.4643029999999999,-0.073876,-0.039255
415,0.132581,0.971192,-0.198012,0.413501,-0.158738,0.032149
416,0.1188869999999999,0.966978,-0.225432,0.320292,-0.189588,0.249556
417,0.099006,0.958042,-0.268986,0.177086,-0.130115,0.272877
418,0.076266,0.940512,-0.33109,-0.175799,0.5245,-0.108607
419,0.0566049999999999,0.91378,-0.402246,-0.448618,0.919243,-0.128805
420,0.039255,0.885541,-0.4629,-0.487131,0.911868,0.011225
421,0.027937,0.859874,-0.509741,-0.554075,0.340321,0.201345
422,0.03173,0.83826,-0.544346,-0.443427,0.14169,0.100377
423,0.049804,0.823989,-0.564413,-0.31343,0.0786299999999999,0.04273
424,0.0708559999999999,0.815434,-0.574497,0.10758,0.003978,0.069019
425,0.086173,0.809688,-0.580499,0.148064,-0.133876,0.098901
426,0.093321,0.809938,-0.579044,0.130083,-0.175371,0.1246369999999999
427,0.102976,0.818447,-0.56528,-0.08993,-0.227001,0.1054869999999999
428,0.117214,0.833598,-0.539792,-0.12315,-0.314952,0.128201
429,0.130147,0.853044,-0.5053489999999999,-0.109319,-0.50905,0.123726
430,0.135108,0.8760690000000001,-0.46287,-0.1003179999999999,-0.581788,0.088358
431,0.131389,0.8996040000000001,-0.416472,-0.0373649999999999,-0.6347119999999999,0.033706
432,0.121142,0.920766,-0.370831,0.030897,-0.464574,0.010906
433,0.103399,0.938461,-0.329545,0.005472,-0.370849,-0.029785
434,0.079583,0.952574,-0.293716,-0.061959,0.031923,-0.135651
435,0.0572429999999999,0.962156,-0.26642,-0.3060989999999999,0.773379,-0.195723
436,0.043188,0.965438,-0.257029,-0.413366,0.7141430000000001,-0.1255089999999999
437,0.040402,0.964012,-0.262771,-0.419187,0.277809,-0.018646
438,0.049307,0.964328,-0.260078,-0.248419,0.130261,0.088966
439,0.066809,0.968901,-0.23826,-0.085516,0.2297989999999999,0.401559
440,0.081179,0.9736,-0.213336,-0.032992,0.102114,0.404284
441,0.089424,0.975816,-0.199465,0.18528,-0.067857,0.0186789999999999
442,0.0949179999999999,0.976313,-0.194429,0.445288,0.083379,-0.102095
443,0.09724,0.975897,-0.19537,0.5582010000000001,0.126459,-0.091068
444,0.096954,0.975904,-0.1954789999999999,0.552017,0.125659,-0.063295
445,0.096844,0.976677,-0.191635,0.459049,0.084877,-0.081939
446,0.097425,0.978381,-0.182423,0.229174,0.110028,-0.246715
447,0.098286,0.979558,-0.175517,0.258938,0.705058,0.0946299999999999
448,0.106589,0.978849,-0.174624,0.139215,0.028674,0.134615
449,0.1190619999999999,0.977132,-0.176174,0.004489,-0.3012289999999999,0.101268
450,0.128308,0.975509,-0.1786569999999999,0.009982,-0.4307399999999999,0.0559
451,0.132055,0.974689,-0.180396,-0.019018,-0.412433,-0.053735
452,0.129619,0.974514,-0.183089,-0.0778919999999999,-0.3190119999999999,-0.104234
453,0.123339,0.974469,-0.187611,-0.091692,-0.2078829999999999,-0.143749
454,0.1166869999999999,0.974614,-0.191079,-0.01485,-0.0221759999999999,-0.10073
455,0.1098519999999999,0.974892,-0.193694,0.105342,0.1208109999999999,-0.056611
456,0.10309,0.974396,-0.199811,0.1945319999999999,0.096435,-0.029101
457,0.098281,0.972621,-0.2105949999999999,0.249863,-0.0245,0.027092
458,0.092985,0.968773,-0.229855,0.251512,-0.100395,-0.006321
459,0.084065,0.96176,-0.2606739999999999,0.326656,-0.241866,0.084603
460,0.068277,0.949005,-0.3077789999999999,0.247076,-0.186599,0.133997
461,0.045631,0.928519,-0.3684699999999999,0.054147,0.0001,0.06511
462,0.021836,0.8996940000000001,-0.435974,-0.2215739999999999,0.365717,-0.07753
463,0.003933,0.868064,-0.496438,-0.4319729999999999,0.690607,0.000939
464,-0.011397,0.841117,-0.540733,-0.39615,0.5520109999999999,0.188988
465,-0.015183,0.8207959999999999,-0.57102,-0.2901,0.1146599999999999,0.19309
466,-0.002611,0.809159,-0.587584,-0.1212289999999999,-0.102677,0.102721
467,0.020919,0.802742,-0.595959,-0.125884,-0.0380029999999999,0.072506
468,0.04817,0.7976800000000001,-0.601154,-0.114027,0.065861,0.052631
469,0.073046,0.798535,-0.597499,-0.025896,0.1433289999999999,-0.005696
470,0.099271,0.80711,-0.5819949999999999,-0.00137,0.0131569999999999,0.091654
471,0.126144,0.820926,-0.556928,-0.050704,-0.091998,0.101865
472,0.1479,0.8376389999999999,-0.5258189999999999,-0.036633,-0.323342,0.139467
473,0.1580109999999999,0.857712,-0.489247,-0.0855929999999999,-0.4571989999999999,0.055317
474,0.15557,0.880649,-0.447499,-0.092597,-0.506595,-0.033122
475,0.140435,0.903476,-0.404981,0.116523,-0.37598,-0.0749539999999999
476,0.115847,0.923054,-0.3668119999999999,0.117964,-0.107441,-0.126444
477,0.089934,0.938053,-0.3346159999999999,0.077455,0.20779,-0.172586
478,0.0703049999999999,0.9493,-0.306411,0.015419,0.375438,-0.190446
479,0.0605799999999999,0.956962,-0.283819,-0.241976,0.6043470000000001,-0.10615
480,0.059895,0.961151,-0.269445,-0.5476270000000001,0.174011,0.030248
481,0.063471,0.965152,-0.253876,-0.533563,-0.029559,-0.0307
482,0.0673179999999999,0.971876,-0.2256659999999999,-0.271465,-0.004499,0.2957349999999999
483,0.073022,0.978273,-0.1940329999999999,-0.056635,0.0655039999999999,0.436572
484,0.074932,0.982581,-0.170059,0.103764,-0.166541,0.209702
485,0.074652,0.984902,-0.156188,0.22532,-0.208443,0.031814
486,0.078436,0.985107,-0.1530119999999999,0.432245,-0.1077569999999999,-0.240634
487,0.085339,0.983277,-0.160887,0.483875,-0.017731,-0.160997
488,0.091193,0.981295,-0.16954,0.433602,0.191114,-0.031174
489,0.094463,0.981622,-0.165817,0.347813,0.363303,-0.118118
490,0.100887,0.982597,-0.155967,0.250035,0.409646,-0.184594
491,0.1147089999999999,0.983228,-0.141791,0.2002779999999999,0.440539,-0.108972
492,0.130548,0.982438,-0.1333119999999999,0.106055,0.349669,0.188473
493,0.144493,0.980176,-0.1355579999999999,0.012748,-0.065488,0.161681
494,0.151163,0.977332,-0.148229,-0.072031,-0.286673,-0.004328
495,0.148789,0.975341,-0.16301,-0.088227,-0.405715,-0.0915059999999999
496,0.142286,0.974357,-0.174307,-0.067121,-0.324577,-0.2056219999999999
497,0.13609,0.974273,-0.179642,-0.054166,-0.3139639999999999,-0.278595
498,0.131753,0.974843,-0.179784,0.036704,-0.246648,-0.166041
499,0.127299,0.975552,-0.179145,0.172322,-0.081524,-0.109613
500,0.119638,0.975874,-0.182639,0.315528,0.095308,-0.098824
501,0.11175,0.974925,-0.192438,0.4680229999999999,0.090809,-0.1168579999999999
502,0.104308,0.971761,-0.211659,0.550172,-0.1244869999999999,0.024342
503,0.092951,0.964909,-0.245581,0.540563,-0.214024,0.22846
504,0.072113,0.951858,-0.297938,0.297958,-0.052459,0.271967
505,0.043351,0.931009,-0.362413,-0.151323,0.434363,-0.010176
506,0.017279,0.903001,-0.4292899999999999,-0.445639,0.8523700000000001,0.004898
507,-0.005423,0.874417,-0.485145,-0.6224770000000001,0.718784,0.292915
508,-0.023211,0.8491360000000001,-0.5276649999999999,-0.7330760000000001,0.320756,0.2264409999999999
509,-0.020153,0.830499,-0.556656,-0.383915,0.044196,0.057572
510,0.00081,0.819319,-0.573338,-0.203706,-0.058592,0.079685
511,0.029772,0.8109649999999999,-0.584337,-0.070101,0.125986,0.093401
512,0.055629,0.806706,-0.588329,0.028188,0.193157,0.119747
513,0.0746899999999999,0.810381,-0.581123,0.016359,-0.0091569999999999,0.1394119999999999
514,0.0928929999999999,0.8226,-0.5609810000000001,-0.037153,-0.241362,0.175788
515,0.112945,0.840756,-0.529502,-0.034942,-0.4483149999999999,0.146797
516,0.126341,0.8634870000000001,-0.4882899999999999,0.027025,-0.615242,0.1187829999999999
517,0.12474,0.8898520000000001,-0.438866,-0.016876,-0.64684,-0.0284649999999999
518,0.111949,0.916978,-0.382909,0.066914,-0.5400550000000001,-0.1226609999999999
519,0.091024,0.9397,-0.329665,0.124613,0.0276769999999999,-0.160127
520,0.064389,0.955802,-0.286875,-0.13255,0.669397,-0.292013
521,0.044592,0.966305,-0.253508,-0.357183,0.932606,-0.2626969999999999
522,0.038352,0.971579,-0.23359,-0.61605,0.263437,-0.063423
523,0.031769,0.974047,-0.224105,-0.448791,-0.402926,0.032485
524,0.0287569999999999,0.976623,-0.213026,0.05155,-0.391296,0.424818
525,0.034133,0.978476,-0.203519,0.3295909999999999,-0.297873,0.8264290000000001
526,0.040125,0.980145,-0.194178,0.20252,-0.3014949999999999,0.230311
527,0.044655,0.981581,-0.185753,0.222648,-0.292525,-0.092094
528,0.0559429999999999,0.979918,-0.191394,0.439708,-0.190214,-0.137478
529,0.069832,0.976647,-0.203184,0.39933,0.210975,-0.119478
530,0.086259,0.972159,-0.2178679999999999,0.318495,0.400537,-0.263241
531,0.098562,0.968757,-0.227586,0.108759,0.430291,-0.1879569999999999
532,0.106517,0.9673,-0.230185,0.222264,0.520646,-0.052744
533,0.1102809999999999,0.96527,-0.236837,0.218683,0.13559,-0.079203
534,0.108516,0.963115,-0.24624,0.1046339999999999,-0.152583,-0.0615299999999999
535,0.099959,0.961847,-0.2546719999999999,0.146517,-0.252009,-0.190686
536,0.087906,0.962136,-0.258005,0.254653,-0.2175679999999999,-0.2791949999999999
537,0.072925,0.963428,-0.2578539999999999,0.4647949999999999,-0.13425,-0.2433969999999999
538,0.058437,0.964903,-0.256021,0.557347,-0.0483839999999999,-0.173987
539,0.045301,0.965738,-0.255534,0.530367,0.012564,-0.066885
540,0.032395,0.965312,-0.259082,0.383728,0.023702,0.040561
541,0.0171,0.963062,-0.268735,0.279149,-0.043751,0.110654
542,-0.001928,0.957608,-0.288067,0.23464,-0.108609,0.261654
543,-0.02769,0.948138,-0.31665,0.1139029999999999,-0.1263,0.281891
544,-0.060744,0.934219,-0.351491,-0.15886,0.00879,0.234639
545,-0.091462,0.915433,-0.39194,-0.3780199999999999,0.3019429999999999,0.2148159999999999
546,-0.115231,0.8957709999999999,-0.429321,-0.567615,0.491802,0.168731
547,-0.124789,0.8783270000000001,-0.4614859999999999,-0.6256229999999999,0.188033,0.058516
548,-0.112967,0.866287,-0.486605,-0.5453279999999999,0.065445,0.0288259999999999
549,-0.08151,0.8591530000000001,-0.5051859999999999,-0.37073,0.051125,0.012037
550,-0.04568,0.8546530000000001,-0.5171859999999999,0.0027719999999999,0.258872,0.073765
551,-0.012504,0.853029,-0.521714,0.018974,0.314467,0.031861
552,0.016474,0.85836,-0.512784,0.165655,0.206963,-0.098148
553,0.03991,0.870784,-0.490044,0.214927,-0.200007,0.067345
554,0.05687,0.88675,-0.458738,0.1481319999999999,-0.291962,0.124495
555,0.062987,0.903417,-0.4241109999999999,0.052141,-0.418203,0.183632
556,0.0559879999999999,0.919074,-0.390088,-0.055546,-0.438422,0.096067
557,0.037892,0.933979,-0.355313,-0.085988,-0.4366489999999999,0.0069549999999999
558,0.011457,0.947993,-0.318086,-0.132597,-0.399622,-0.08029
559,-0.016451,0.959935,-0.2797389999999999,-0.1813789999999999,-0.197545,-0.246079
560,-0.036305,0.969078,-0.2440679999999999,-0.1872049999999999,0.136024,-0.37495
561,-0.046716,0.974196,-0.220817,-0.131461,0.475145,-0.358971
562,-0.049447,0.973969,-0.221221,-0.059501,0.5061180000000001,-0.4106149999999999
563,-0.041184,0.969689,-0.2408489999999999,0.029617,0.235695,-0.44923
564,-0.020249,0.965519,-0.2595429999999999,0.027742,-0.1975599999999999,-0.284784
565,0.005462,0.964484,-0.264084,0.219437,-0.486732,-0.139939
566,0.029858,0.962012,-0.27137,0.10152,-0.2359679999999999,0.106423
567,0.039143,0.957825,-0.284675,0.301205,0.060501,0.146721
568,0.022697,0.956467,-0.290958,0.400963,-0.0008699999999999,0.550265
569,-0.000737,0.958543,-0.284946,0.46021,-0.058702,0.988849
570,-0.013843,0.960948,-0.276381,0.300693,0.425374,0.333968
571,-0.0219639999999999,0.96573,-0.2586179999999999,0.339575,0.895552,-0.229709
572,-0.01576,0.976224,-0.216189,0.332319,1.709353,-0.317243
573,-0.003469,0.979791,-0.199992,-0.344111,0.028113,0.262324
574,0.010431,0.981272,-0.192345,-0.297739,-0.113062,0.177055
575,0.010104,0.983234,-0.182068,-0.011584,-0.078251,0.181473
576,0.000361,0.986028,-0.166579,0.1244099999999999,0.003978,0.1267839999999999
577,-0.009747,0.989856,-0.141739,0.094067,-0.102802,0.09996
578,-0.017581,0.993575,-0.111798,0.095401,-0.183196,0.083111
579,-0.025042,0.996403,-0.080958,0.095507,-0.139042,0.094904
580,-0.034033,0.998123,-0.050903,0.149588,-0.0812529999999999,0.0870669999999999
581,-0.047583,0.99853,-0.025968,0.220084,-0.069971,0.075392
582,-0.063196,0.997985,-0.005646,0.18403,-0.10321,-0.00769
583,-0.078074,0.996867,0.012683,0.19192,-0.095851,-0.106769
584,-0.091879,0.99538,0.027862,0.133429,0.00436,-0.257232
585,-0.103479,0.993923,0.03754,0.180475,0.075642,-0.346821
586,-0.11344,0.992745,0.039868,0.3048619999999999,0.0955429999999999,-0.285931
587,-0.12217,0.99192,0.034201,0.48423,0.0783929999999999,-0.229438
588,-0.128932,0.991279,0.027241,0.5991310000000001,0.127739,-0.2451219999999999
589,-0.13424,0.990775,0.018559,0.608956,0.2018059999999999,-0.139973
590,-0.138167,0.990406,-0.002292,0.650893,0.320949,-0.0287899999999999
591,-0.136265,0.989988,-0.036828,0.4861189999999999,0.244815,0.057809
592,-0.1278089999999999,0.988357,-0.082553,0.257631,-0.069931,0.199909
593,-0.116163,0.983476,-0.138856,0.026548,0.026656,0.1433579999999999
594,-0.1039,0.973917,-0.201719,-0.104672,0.458471,0.013059
595,-0.090533,0.960047,-0.26479,-0.14462,1.128256,0.264119
596,-0.0748669999999999,0.944137,-0.3209349999999999,-0.082359,0.984024,0.303876
597,-0.049929,0.92961,-0.365147,0.325732,0.318559,0.0045969999999999
598,-0.019515,0.916286,-0.400048,0.438933,0.268818,0.081139
599,0.007858,0.904484,-0.426436,0.41243,0.253918,0.157942
600,0.028916,0.893567,-0.447997,0.373031,0.266391,0.2637469999999999
601,0.04348,0.882209,-0.468846,0.1119,-0.09217,0.396336
602,0.0442,0.8732559999999999,-0.485254,0.082494,-0.161433,0.458795
603,0.033985,0.869394,-0.4929489999999999,0.101848,-0.22938,0.504683
604,0.019701,0.870202,-0.492301,0.132002,-0.334878,0.485938
605,0.004547,0.874218,-0.485513,0.117264,-0.351451,0.4575899999999999
606,-0.010892,0.879754,-0.475305,0.047345,-0.250023,0.412454
607,-0.023825,0.8856649999999999,-0.463713,0.049124,-0.1289819999999999,0.366591
608,-0.031588,0.892491,-0.4499579999999999,0.003618,-0.043675,0.355979
609,-0.032357,0.90075,-0.433131,-0.0774,0.0528019999999999,0.335444
610,-0.02628,0.909553,-0.414757,-0.217937,0.158547,0.2363969999999999
611,-0.01444,0.918685,-0.394727,-0.282267,0.169938,0.180723
612,0.001507,0.927577,-0.373628,-0.344601,0.167576,0.124635
613,0.018158,0.935139,-0.353815,-0.167938,0.012218,-0.162481
614,0.035293,0.941516,-0.335115,-0.0544129999999999,-0.105426,-0.276732
615,0.049684,0.945717,-0.3211699999999999,0.127898,-0.215661,-0.3866239999999999
616,0.055736,0.947065,-0.316167,0.367726,-0.26724,-0.466945
617,0.050421,0.946596,-0.318456,0.454172,-0.2785809999999999,-0.4320479999999999
618,0.039243,0.94617,-0.321281,0.559512,-0.307376,-0.2127
619,0.033259,0.947884,-0.316875,0.30924,-0.136345,-0.116047
620,0.0384959999999999,0.951286,-0.305898,0.3280659999999999,0.561883,-0.039179
621,0.039598,0.956281,-0.289758,0.8140850000000001,2.389148,0.50039
622,0.031149,0.96528,-0.259354,0.288416,1.837867,0.942292
623,0.048533,0.968488,-0.244285,-0.485209,-0.4311649999999999,0.2258369999999999
624,0.060919,0.970111,-0.234888,-0.166602,-0.771579,0.132044
625,0.062011,0.974625,-0.215083,-0.116256,-0.786209,0.190089
626,0.052676,0.979322,-0.19533,-0.107653,-0.658582,0.240496
627,0.0298709999999999,0.982926,-0.181559,-0.151286,-0.398545,0.221156
628,-0.0032229999999999,0.984878,-0.173217,-0.03233,0.2301639999999999,0.290435
629,-0.039747,0.984667,-0.1698589999999999,0.115354,1.050017,0.268858
630,-0.062137,0.985116,-0.160266,0.2081329999999999,0.466391,0.074359
631,-0.0596419999999999,0.988011,-0.1424,0.157589,-0.175923,-0.1391859999999999
632,-0.047079,0.99148,-0.121456,0.170828,-0.288446,-0.088047
633,-0.035607,0.993991,-0.103506,0.240059,-0.258029,-0.019267
634,-0.0283889999999999,0.995622,-0.089055,0.249138,-0.20514,-0.020259
635,-0.025668,0.996831,-0.075296,0.2434719999999999,-0.124333,0.027368
636,-0.025792,0.997844,-0.0603549999999999,0.229253,-0.096278,0.048225
637,-0.02643,0.998663,-0.044419,0.140474,-0.032248,0.069337
638,-0.027274,0.999211,-0.028879,0.095283,-0.0185129999999999,0.02688
639,-0.029037,0.999487,-0.013535,0.0364839999999999,0.036173,-0.151595
640,-0.032816,0.999458,0.002642,0.070414,-0.0058509999999999,-0.196017
641,-0.0390709999999999,0.999071,0.018157,0.115227,-0.018603,-0.199249
642,-0.046622,0.998454,0.030266,0.2170929999999999,0.018315,-0.097039
643,-0.05297,0.997904,0.037167,0.2223119999999999,0.124975,-0.085538
644,-0.057433,0.997611,0.038385,0.162276,0.131265,-0.13595
645,-0.059095,0.997643,0.034865,0.158155,0.130531,-0.066313
646,-0.057289,0.998159,0.019932,0.285668,0.17425,0.117504
647,-0.0527059999999999,0.998541,-0.011701,0.361269,0.2887969999999999,-0.0072959999999999
648,-0.042506,0.997768,-0.0515039999999999,0.135294,0.2243239999999999,-0.133799
649,-0.029457,0.994229,-0.1031599999999999,-0.020363,0.106724,0.042537
650,-0.019615,0.985931,-0.165996,-0.132302,0.207947,0.222743
651,-0.011302,0.972456,-0.232813,-0.171163,0.522097,0.224573
652,-0.004489,0.954599,-0.297858,-0.122617,0.725637,0.347602
653,0.008808,0.93617,-0.351438,0.058086,0.421176,0.191236
654,0.033228,0.918985,-0.392891,0.319418,0.375296,-0.00898
655,0.060657,0.904157,-0.422872,0.274991,0.289523,0.04215
656,0.08685,0.8904709999999999,-0.4466739999999999,0.167438,0.241304,0.1010929999999999
657,0.106878,0.8760290000000001,-0.4702659999999999,-0.038015,-0.052375,0.230703
658,0.112006,0.863326,-0.49206,-0.1317809999999999,-0.2184739999999999,0.3769929999999999
659,0.10563,0.854417,-0.508738,-0.141564,-0.267137,0.415827
660,0.094243,0.849823,-0.518574,-0.144308,-0.431351,0.395283
661,0.081997,0.849899,-0.520526,-0.127529,-0.464889,0.347705
662,0.070071,0.854576,-0.5145770000000001,-0.119067,-0.424797,0.263265
663,0.0591429999999999,0.862669,-0.5022989999999999,-0.078567,-0.360197,0.17219
664,0.0512899999999999,0.8726709999999999,-0.485608,-0.0643519999999999,-0.36762,0.138791
665,0.048045,0.883483,-0.4659939999999999,-0.087077,-0.342375,0.1359
666,0.048246,0.8946360000000001,-0.444184,-0.135969,-0.3573429999999999,0.151673
667,0.050873,0.906093,-0.420008,-0.147171,-0.366833,0.141291
668,0.055027,0.918208,-0.392257,-0.143986,-0.3079639999999999,0.110473
669,0.057558,0.930223,-0.362453,-0.104296,-0.2237719999999999,0.094387
670,0.0543909999999999,0.940412,-0.335658,-0.062325,-0.179624,0.116267
671,0.046349,0.947917,-0.315126,0.015372,-0.1499589999999999,0.110795
672,0.036672,0.952846,-0.3012309999999999,0.008937,-0.132625,0.056419
673,0.029774,0.956389,-0.290576,-0.044896,-0.1395549999999999,0.006335
674,0.028888,0.960562,-0.27656,-0.123264,-0.051474,-0.025244
675,0.033585,0.965406,-0.258581,-0.219467,0.007647,-0.020441
676,0.041581,0.970231,-0.238583,-0.320726,0.004317,-0.078479
677,0.048275,0.975184,-0.216069,-0.4560359999999999,0.321432,-0.033412
678,0.050422,0.979782,-0.1936109999999999,-0.151923,1.0100559999999998,0.331886
679,0.047592,0.982036,-0.182594,0.4279479999999999,0.169926,0.485863
680,0.048169,0.982001,-0.182633,0.470325,-0.134649,0.124954
681,0.0535289999999999,0.981888,-0.181745,0.541122,-0.077713,-0.002078
682,0.065707,0.982714,-0.173075,0.257657,0.250165,-0.187414
683,0.083756,0.983191,-0.162235,0.164703,0.6491939999999999,-0.475277
684,0.108417,0.980977,-0.161028,0.237729,0.745265,-0.018202
685,0.139123,0.976891,-0.162264,0.064933,-0.16021,0.133745
686,0.147894,0.974416,-0.169235,0.037821,-0.344122,0.186935
687,0.141195,0.974259,-0.175738,0.059199,-0.376709,0.22005
688,0.128411,0.975266,-0.1799089999999999,0.004799,-0.3260349999999999,0.201241
689,0.113851,0.977371,-0.178282,-0.150503,-0.245513,0.081419
690,0.101899,0.979796,-0.172097,-0.130601,-0.10153,-0.085426
691,0.095334,0.98132,-0.1671,-0.088819,-0.115323,-0.178374
692,0.091295,0.981951,-0.165645,-0.032823,-0.198564,-0.117024
693,0.087589,0.981359,-0.171062,0.122342,-0.263006,0.014766
694,0.086471,0.97987,-0.1799369999999999,0.200501,-0.247753,0.0263879999999999
695,0.087851,0.977826,-0.190102,0.220621,-0.2246369999999999,0.07238
696,0.089009,0.975138,-0.2029369999999999,0.238094,-0.177195,0.0094709999999999
697,0.088971,0.971359,-0.220332,0.319918,-0.164215,0.042354
698,0.084981,0.966552,-0.241981,0.405376,-0.209152,0.106788
699,0.075959,0.95944,-0.271487,0.306975,-0.073041,0.220584
700,0.066996,0.946721,-0.315011,0.087103,0.286434,0.092309
701,0.0618559999999999,0.925584,-0.373454,-0.160611,0.773207,-0.116185
702,0.059363,0.896028,-0.44001,-0.401465,0.756422,-0.083473
703,0.055275,0.863734,-0.500907,-0.5891649999999999,0.5796100000000001,-0.006204
704,0.060221,0.834883,-0.5471229999999999,-0.437114,0.420534,-0.040875
705,0.080075,0.8130430000000001,-0.576671,-0.118176,0.179877,0.014552
706,0.100094,0.797461,-0.59501,0.083134,0.016717,0.0649039999999999
707,0.1116359999999999,0.7852140000000001,-0.609078,0.1244329999999999,-0.1784329999999999,-0.00315
708,0.117961,0.778563,-0.61638,0.041035,-0.053771,-0.047698
709,0.122069,0.782572,-0.610475,-0.013243,-0.066187,0.027361
710,0.128744,0.796179,-0.591206,-0.12351,-0.151495,0.139455
711,0.137707,0.813696,-0.564743,-0.234173,-0.240942,0.206223
712,0.144171,0.8319639999999999,-0.535771,-0.2450159999999999,-0.4402399999999999,0.220036
713,0.142718,0.851723,-0.504181,-0.188876,-0.588906,0.214051
714,0.132938,0.874093,-0.4672149999999999,-0.136051,-0.638238,0.125341
715,0.118415,0.8985049999999999,-0.4226899999999999,-0.0475839999999999,-0.53704,0.069189
716,0.102094,0.922382,-0.3725429999999999,-0.022428,-0.304477,0.021758
717,0.086425,0.942093,-0.324022,-0.045211,-0.058427,-0.020781
718,0.073609,0.955283,-0.286385,-0.051499,0.198816,-0.0414649999999999
719,0.064087,0.962357,-0.264126,-0.1603089999999999,0.423431,-0.051197
720,0.0605049999999999,0.964725,-0.256213,-0.35854,0.464581,-0.056775
721,0.064009,0.965092,-0.253969,-0.542968,0.122966,-0.000792
722,0.072523,0.968077,-0.239931,-0.576368,0.07541,0.0871909999999999
723,0.08009,0.97427,-0.210673,-0.512067,0.38364,0.279384
724,0.085747,0.978536,-0.187387,-0.092629,0.082285,0.266748
725,0.088891,0.980506,-0.175231,0.132971,0.061776,0.037277
726,0.092066,0.981669,-0.166884,0.4699,0.1963859999999999,-0.093934
727,0.098744,0.982422,-0.158422,0.689968,0.210007,-0.092844
728,0.10735,0.982211,-0.154072,0.598842,0.095014,-0.035656
729,0.114193,0.982119,-0.149673,0.3821449999999999,0.205533,-0.066086
730,0.119874,0.982937,-0.13952,0.279571,0.5860029999999999,-0.083487
731,0.127693,0.983671,-0.126829,0.236244,0.558397,-0.03789
732,0.138829,0.983565,-0.115439,0.129207,0.152772,0.0524809999999999
733,0.149674,0.982928,-0.1070089999999999,0.0155629999999999,-0.101122,0.07408
734,0.154123,0.982724,-0.102468,-0.074273,-0.219525,0.100271
735,0.151239,0.983343,-0.100814,-0.104867,-0.238317,0.108718
736,0.143722,0.9848,-0.097535,-0.154754,-0.181409,0.136369
737,0.136393,0.986526,-0.090348,-0.167201,-0.114563,0.050141
738,0.131913,0.988039,-0.079864,-0.14972,-0.094423,-0.023972
739,0.129198,0.989101,-0.070616,-0.059709,-0.181469,-0.172502
740,0.12653,0.98963,-0.067989,-0.0570419999999999,-0.181998,-0.175129
741,0.124078,0.989451,-0.074779,0.149649,-0.264353,-0.120519
742,0.123321,0.988361,-0.089074,0.233796,-0.3111,-0.0416329999999999
743,0.125564,0.986121,-0.108624,0.241028,-0.334372,-0.045505
744,0.127106,0.983371,-0.129716,0.178222,-0.320788,-0.132872
745,0.125745,0.980545,-0.150728,0.223406,-0.19429,-0.068861
746,0.121679,0.977302,-0.173419,0.3578739999999999,-0.040718,0.051028
747,0.1139,0.973365,-0.198966,0.429542,0.0158169999999999,0.059562
748,0.103269,0.967508,-0.230789,0.405993,0.111151,0.080154
749,0.091722,0.95731,-0.274124,0.100173,0.260829,0.1279
750,0.079328,0.939164,-0.334184,-0.208173,0.475967,0.065827
751,0.061244,0.909961,-0.410146,-0.406261,0.690701,-0.00085
752,0.031493,0.874182,-0.484577,-0.5353680000000001,0.6677489999999999,0.075366
753,0.005221,0.841195,-0.5407069999999999,-0.5370659999999999,0.4583649999999999,0.12495
754,-0.002485,0.815415,-0.578872,-0.259584,0.2216179999999999,0.035613
755,0.005441,0.795139,-0.606403,-0.260965,0.257031,-0.094555
756,0.022656,0.780967,-0.624161,-0.057339,0.23243,-0.2402949999999999
757,0.038353,0.774241,-0.631728,0.037712,0.002538,-0.04384
758,0.0490079999999999,0.7769739999999999,-0.627622,-0.008954,-0.1539579999999999,0.146863
759,0.059514,0.788578,-0.6120479999999999,-0.04221,-0.285755,0.24753
760,0.071741,0.806343,-0.5870810000000001,-0.019831,-0.530846,0.248305
761,0.084173,0.827707,-0.554812,-0.123693,-0.562723,0.174776
762,0.095646,0.8506889999999999,-0.516895,-0.08321,-0.663509,0.104206
763,0.101487,0.8744870000000001,-0.474312,-0.043168,-0.706778,0.043938
764,0.098718,0.8987879999999999,-0.427124,-0.001566,-0.705947,0.021851
765,0.089115,0.921128,-0.378922,0.1512869999999999,-0.35022,0.102112
766,0.078288,0.939188,-0.334359,0.15772,-0.045634,0.135965
767,0.06809,0.952302,-0.297464,0.108423,0.113357,0.109002
768,0.0614679999999999,0.960656,-0.270855,-0.252538,0.364082,0.0400509999999999
769,0.061207,0.965579,-0.252808,-0.370289,0.170026,-0.049194
770,0.060819,0.969552,-0.2372119999999999,-0.504545,0.006202,-0.153703
771,0.06132,0.973685,-0.219495,-0.609553,0.026804,-0.163042
772,0.065367,0.977238,-0.201826,-0.484022,0.28706,-0.04117
773,0.073037,0.978852,-0.191089,-0.302682,0.503143,0.1645849999999999
774,0.083199,0.979147,-0.185333,-0.062477,0.418283,0.1828
775,0.093193,0.978827,-0.182243,0.145821,-0.09075,0.215629
776,0.100422,0.978462,-0.1803529999999999,0.162075,-0.241936,0.325754
777,0.10141,0.978366,-0.18032,0.278244,-0.064151,0.107734
778,0.099457,0.979787,-0.173571,0.503967,0.326518,-0.196959
779,0.098675,0.982083,-0.160549,0.482196,0.357135,-0.226124
780,0.101449,0.984129,-0.145597,0.250342,0.321154,-0.166659
781,0.107234,0.985371,-0.132461,0.15949,0.4633899999999999,-0.153382
782,0.115743,0.986043,-0.119675,0.167689,0.566508,-0.108627
783,0.126193,0.985638,-0.112217,0.148176,0.165714,0.044498
784,0.1375279999999999,0.984698,-0.1070359999999999,0.005889,-0.061403,0.142497
785,0.144201,0.983924,-0.105358,-0.082647,-0.2415989999999999,0.159053
786,0.146441,0.983308,-0.1079779999999999,-0.179248,-0.322328,0.112403
787,0.145194,0.982946,-0.1128579999999999,-0.214896,-0.354512,0.059025
788,0.1428589999999999,0.982492,-0.1195859999999999,-0.18241,-0.352609,-0.073255
789,0.141394,0.981577,-0.1285069999999999,-0.183508,-0.35438,-0.188891
790,0.141271,0.980182,-0.13887,-0.142492,-0.395572,-0.104477
791,0.141945,0.978279,-0.151066,0.025474,-0.333611,-0.080532
792,0.143217,0.976102,-0.163443,0.1880359999999999,-0.229169,-0.032174
793,0.147092,0.973681,-0.174096,0.32355,-0.109957,-0.065177
794,0.152767,0.970882,-0.184528,0.476521,0.044423,-0.115124
795,0.158238,0.967415,-0.197661,0.519634,0.0416949999999999,-0.025957
796,0.157504,0.963096,-0.218261,0.4482239999999999,-0.137794,0.0825029999999999
797,0.148825,0.955895,-0.253211,0.2929469999999999,-0.075127,0.16619
798,0.1354,0.941959,-0.307213,0.018409,0.186474,0.047036
799,0.116284,0.918408,-0.37816,-0.371716,0.565387,-0.1711869999999999
800,0.089895,0.885782,-0.455312,-0.5867060000000001,0.731055,-0.053599
801,0.061401,0.8532190000000001,-0.517925,-0.626709,0.615241,0.113125
802,0.04755,0.827528,-0.559408,-0.564029,0.543887,0.160314
803,0.056372,0.807359,-0.5873619999999999,-0.051627,0.244964,-0.0193729999999999
804,0.074013,0.793821,-0.603632,0.1128,0.274157,-0.044959
805,0.086935,0.783821,-0.614872,0.070261,0.319024,-0.072216
806,0.090602,0.7809550000000001,-0.617981,0.040395,0.2515,-0.028641
807,0.0958909999999999,0.789367,-0.606387,-0.0264779999999999,-0.062209,0.137973
808,0.109734,0.806837,-0.580493,-0.155892,-0.290052,0.1750519999999999
809,0.126931,0.829211,-0.5443319999999999,-0.166817,-0.426181,0.149007
810,0.138801,0.853722,-0.501889,-0.074058,-0.676064,0.13519
811,0.139286,0.8798889999999999,-0.454306,-0.086994,-0.727485,0.037482
812,0.13021,0.905315,-0.404291,-0.027533,-0.757686,-0.002096
813,0.114115,0.926557,-0.358428,0.1065579999999999,-0.5735140000000001,0.100524
814,0.095064,0.942474,-0.320476,0.094847,-0.384323,0.08366
815,0.0749789999999999,0.954161,-0.289749,0.024585,-0.0624529999999999,-0.010681
816,0.055719,0.962569,-0.2652469999999999,-0.189721,0.349809,-0.023709
817,0.042938,0.96681,-0.251861,-0.387848,0.3643659999999999,0.081084
818,0.0362959999999999,0.968313,-0.247086,-0.452388,0.026132,0.082307
819,0.032761,0.970407,-0.2392409999999999,-0.6131439999999999,-0.1036779999999999,0.03279
820,0.038064,0.973828,-0.2240739999999999,-0.60328,0.058154,-0.015062
821,0.051748,0.977372,-0.205098,-0.4149529999999999,0.342742,0.088094
822,0.069605,0.978676,-0.1932569999999999,-0.146418,0.647438,0.223881
823,0.086374,0.977486,-0.192514,0.217367,0.178993,0.162652
824,0.102625,0.975609,-0.194047,0.289556,-0.083535,0.035676
825,0.113454,0.975236,-0.189852,0.5440159999999999,-0.10991,-0.044767
826,0.1146339999999999,0.976465,-0.18269,0.62795,0.183615,-0.053104
827,0.10808,0.977939,-0.178759,0.599486,0.472989,-0.069608
828,0.106998,0.97794,-0.179401,0.711468,1.049221,-0.226392
829,0.130733,0.975229,-0.17843,0.258534,0.1343599999999999,-0.207526
830,0.151876,0.972863,-0.17456,-0.164205,-0.389657,-0.021561
831,0.15403,0.971895,-0.178029,-0.07122,-0.323488,0.202076
832,0.148002,0.97211,-0.181926,0.01429,-0.193759,0.169918
833,0.14297,0.972845,-0.182022,-0.024211,-0.078955,0.101746
834,0.140762,0.973821,-0.178491,-0.147872,-0.135259,0.0544059999999999
835,0.13939,0.974525,-0.175701,-0.1175089999999999,-0.23922,0.018001
836,0.138011,0.974456,-0.17717,-0.116771,-0.397521,-0.004684
837,0.135217,0.973777,-0.1829589999999999,-0.075525,-0.465995,-0.083414
838,0.131883,0.972582,-0.19155,0.166991,-0.223665,-0.018212
839,0.130151,0.970885,-0.201103,0.235648,-0.166427,-0.026055
840,0.1304529999999999,0.96848,-0.2121989999999999,0.264506,-0.1162769999999999,-0.068715
841,0.1347799999999999,0.965285,-0.22374,0.354783,-0.036147,-0.024261
842,0.13835,0.961367,-0.237977,0.3795489999999999,-0.1032579999999999,0.0165419999999999
843,0.137459,0.956016,-0.259112,0.415931,-0.168952,0.045092
844,0.131476,0.947883,-0.290229,0.284021,0.023629,0.083396
845,0.120305,0.9352,-0.333059,0.059734,0.330471,0.035207
846,0.105045,0.916721,-0.385472,-0.170154,0.585675,-0.056194
847,0.0879559999999999,0.8926299999999999,-0.442126,-0.4397479999999999,0.760538,0.0139639999999999
848,0.069472,0.866395,-0.494502,-0.549864,0.680068,0.121181
849,0.0535389999999999,0.842449,-0.5361090000000001,-0.487484,0.459095,0.111228
850,0.04989,0.8231799999999999,-0.565584,-0.278833,0.292024,-0.025816
851,0.06041,0.810181,-0.583058,-0.117829,0.305206,-0.150066
852,0.080757,0.804624,-0.588268,0.0546799999999999,0.221621,-0.140065
853,0.100224,0.804995,-0.584755,0.0756179999999999,0.163572,-0.067314
854,0.1159099999999999,0.811348,-0.5729569999999999,-0.033894,0.085808,0.062916
855,0.133096,0.823216,-0.551906,-0.076196,-0.071736,0.205653
856,0.1497089999999999,0.8385879999999999,-0.523791,-0.12943,-0.259517,0.288149
857,0.160005,0.855916,-0.491737,-0.164827,-0.401342,0.309776
858,0.162404,0.874289,-0.4574319999999999,-0.1873369999999999,-0.522803,0.249928
859,0.15846,0.89343,-0.420325,-0.117169,-0.59654,0.151435
860,0.147456,0.912868,-0.380695,-0.0836129999999999,-0.5320550000000001,0.046451
861,0.131678,0.930713,-0.3412239999999999,-0.023676,-0.402591,-0.013558
862,0.1144369999999999,0.945377,-0.305233,-0.023159,-0.157749,-0.09441
863,0.097772,0.95634,-0.275418,-0.1031579999999999,0.093328,-0.190616
864,0.082512,0.963779,-0.253617,-0.186043,0.2317159999999999,-0.117767
865,0.069342,0.967611,-0.242734,-0.172217,-0.008246,0.051694
866,0.0566679999999999,0.968577,-0.242171,-0.194287,-0.247142,0.0725389999999999
867,0.048989,0.968332,-0.244812,-0.236062,-0.279184,0.067231
868,0.054109,0.968703,-0.242252,-0.396027,-0.021255,0.0262029999999999
869,0.069373,0.970297,-0.231757,-0.411292,-0.022848,0.015708
870,0.087064,0.971906,-0.218673,-0.303769,0.690233,0.120193
871,0.101995,0.972969,-0.207192,0.2772469999999999,-0.2529369999999999,0.009988
872,0.117048,0.97225,-0.202558,0.353426,-0.298346,-0.0442069999999999
873,0.131489,0.970484,-0.202166,0.5221060000000001,-0.109293,0.093065
874,0.137692,0.970524,-0.197796,0.701755,0.334148,0.083294
875,0.139298,0.971337,-0.192613,0.8400110000000001,0.693702,-0.271025
876,0.150558,0.971286,-0.184216,0.459046,0.961087,-0.29404
877,0.167924,0.969419,-0.178963,0.061736,0.444445,-0.011589
878,0.182215,0.967172,-0.1771329999999999,-0.070124,0.033408,0.0608
879,0.186749,0.96548,-0.181585,-0.0038729999999999,-0.059657,0.141348
880,0.1849579999999999,0.964574,-0.188117,-0.000831,-0.071202,0.146003
881,0.179067,0.965031,-0.19144,-0.0934649999999999,-0.094197,0.139209
882,0.170835,0.967051,-0.188755,-0.215268,-0.140741,0.102665
883,0.163028,0.969993,-0.180373,-0.219226,-0.191444,0.048186
884,0.156264,0.972957,-0.1701089999999999,-0.169951,-0.20077,-0.01144
885,0.150024,0.975576,-0.160451,-0.0365589999999999,-0.215398,-0.064433
886,0.144089,0.977575,-0.153573,0.153335,-0.2399659999999999,-0.0522529999999999
887,0.1384,0.97831,-0.154124,0.246655,-0.2342,-0.075444
888,0.133991,0.978081,-0.159387,0.282528,-0.205101,-0.0874549999999999
889,0.130989,0.977083,-0.167782,0.277199,-0.154909,-0.087681
890,0.128303,0.974928,-0.181807,0.240059,-0.096449,-0.073503
891,0.124791,0.971608,-0.201012,0.2338059999999999,-0.100148,-0.052772
892,0.118005,0.967313,-0.224455,0.2954469999999999,-0.1183289999999999,-0.019259
893,0.105945,0.961728,-0.252697,0.273236,-0.06477,0.06416
894,0.088561,0.954011,-0.286392,0.128664,0.093627,0.122696
895,0.068275,0.942478,-0.327221,-0.108421,0.333416,0.027263
896,0.0482649999999999,0.925998,-0.374431,-0.272538,0.501599,0.0064659999999999
897,0.0292529999999999,0.906042,-0.422176,-0.375994,0.485483,0.110652
898,0.011453,0.8836930000000001,-0.467926,-0.493768,0.421925,0.169022
899,0.000687,0.8621260000000001,-0.506694,-0.469818,0.304363,0.053966
900,0.0028469999999999,0.844242,-0.5359550000000001,-0.144983,0.268261,-0.049204
901,0.009965,0.830727,-0.5565899999999999,-0.0407579999999999,0.233955,-0.01209
902,0.019078,0.822507,-0.568434,-0.1041,0.2069119999999999,-0.061494
903,0.031749,0.820321,-0.571022,-0.090374,0.1291119999999999,-0.127266
904,0.047411,0.8245899999999999,-0.56374,-0.1188369999999999,0.062037,-0.031169
905,0.0667649999999999,0.8344299999999999,-0.5470550000000001,-0.111016,-0.087741,0.164685
906,0.0845289999999999,0.847195,-0.524515,-0.089366,-0.273327,0.333383
907,0.097329,0.861181,-0.4988939999999999,-0.087807,-0.389638,0.334511
908,0.104444,0.8766120000000001,-0.469727,-0.113507,-0.437647,0.220444
909,0.106781,0.8941549999999999,-0.434839,-0.048783,-0.471914,0.1246119999999999
910,0.104229,0.912909,-0.394632,0.003101,-0.482931,0.0245449999999999
911,0.095916,0.930889,-0.352486,0.0279089999999999,-0.4166979999999999,-0.038459
912,0.0820429999999999,0.946529,-0.312013,0.0354649999999999,-0.370601,-0.092711
913,0.065434,0.959009,-0.2757179999999999,0.029491,-0.071268,-0.167947
914,0.049815,0.968058,-0.245727,0.02889,0.099157,-0.20189
915,0.039513,0.97315,-0.226755,-0.1426319999999999,0.275629,-0.034674
916,0.0339,0.974889,-0.2200949999999999,-0.192424,0.142069,0.045885
917,0.035074,0.974465,-0.2217829999999999,-0.3599179999999999,-0.036812,0.040768
918,0.045995,0.973911,-0.2222179999999999,-0.355855,-0.070774,-0.013332
919,0.064429,0.975847,-0.208738,-0.1191779999999999,0.011992,0.265119
920,0.076984,0.978523,-0.191223,-0.131732,0.009316,0.247604
921,0.079826,0.979721,-0.183781,0.161233,-0.194427,0.271977
922,0.081248,0.979538,-0.184129,0.371404,-0.0291449999999999,0.061845
923,0.084063,0.979996,-0.180393,0.47746,0.243179,-0.063809
924,0.090127,0.979908,-0.177927,0.531669,0.731243,-0.299643
925,0.099558,0.979334,-0.1760509999999999,0.39591,0.5316529999999999,-0.326054
926,0.113504,0.978518,-0.172103,0.28826,0.287519,-0.095048
927,0.125083,0.977806,-0.168079,0.295586,0.294732,-0.066372
928,0.129714,0.977013,-0.169173,0.289918,0.057624,-0.034837
929,0.1267839999999999,0.976971,-0.171618,0.168183,-0.193692,0.126819
930,0.118683,0.977975,-0.171696,0.145584,-0.281442,0.107349
931,0.1093619999999999,0.979609,-0.168543,0.034955,-0.280665,-0.070684
932,0.100904,0.981664,-0.161722,-0.066419,-0.214574,-0.1560119999999999
933,0.093007,0.983814,-0.153164,-0.10053,-0.125874,-0.22205
934,0.085363,0.985794,-0.144652,-0.018652,-0.046539,-0.122224
935,0.077292,0.987133,-0.139978,0.122843,0.003406,-0.087149
936,0.0691929999999999,0.98736,-0.142592,0.276159,-0.066843,-0.069628
937,0.0598659999999999,0.986001,-0.155621,0.282313,-0.134484,-0.053485
938,0.0465519999999999,0.981999,-0.183059,0.308612,-0.230046,0.033538
939,0.0256939999999999,0.973563,-0.226969,0.124574,-0.239035,0.1577859999999999
940,-0.00336,0.959936,-0.2802,0.06911,-0.1852319999999999,0.2046079999999999
941,-0.033984,0.940328,-0.338569,-0.2461219999999999,0.103801,0.198264
942,-0.0583,0.915887,-0.397181,-0.300373,0.413825,0.232248
943,-0.073006,0.8906459999999999,-0.448798,-0.305779,0.5729770000000001,0.131492
944,-0.071535,0.867834,-0.4916779999999999,-0.334517,0.344462,-0.0373589999999999
945,-0.048924,0.8532559999999999,-0.519192,-0.214626,0.112228,-0.097996
946,-0.009887,0.845992,-0.533103,-0.134446,0.037888,-0.0541309999999999
947,0.03482,0.8411200000000001,-0.539726,-0.03418,0.231756,-0.147866
948,0.069335,0.840873,-0.536773,0.088411,0.227136,-0.155564
949,0.09354,0.848331,-0.521137,0.1236839999999999,0.031582,0.060215
950,0.109567,0.860635,-0.497296,0.07041,-0.275841,0.196698
951,0.116709,0.876131,-0.467732,-0.000971,-0.404955,0.197407
952,0.1157349999999999,0.895116,-0.43055,-0.099271,-0.444875,0.063286
953,0.10701,0.916803,-0.384735,-0.078766,-0.45083,-0.075425
954,0.089799,0.938457,-0.333518,-0.010148,-0.391658,-0.1475
955,0.065675,0.956524,-0.284163,-4.7e-05,-0.143795,-0.204347
956,0.0411949999999999,0.968283,-0.246438,-0.086682,0.307489,-0.314185
957,0.02486,0.973853,-0.225815,-0.218082,0.648065,-0.294494
958,0.020681,0.973749,-0.226683,-0.061911,0.268347,-0.245165
959,0.026554,0.968933,-0.2458949999999999,-0.0646549999999999,0.042435,-0.189133
960,0.042186,0.963237,-0.26532,-0.09785,-0.235286,-0.113311
961,0.0622049999999999,0.960011,-0.272965,-0.005183,0.013256,0.1088109999999999
962,0.078954,0.956892,-0.279506,0.137065,0.174959,0.237392
963,0.082722,0.955737,-0.282353,0.2303739999999999,0.172589,0.392628
964,0.076593,0.954871,-0.286976,0.318075,0.134927,0.406056
965,0.066593,0.954084,-0.292042,0.473385,-0.12924,0.566517
966,0.0535309999999999,0.957821,-0.282335,0.487591,0.841297,0.21686
967,0.042868,0.966839,-0.251762,0.577585,1.3404120000000002,-0.068474
968,0.046447,0.972753,-0.2271429999999999,0.1640329999999999,0.485346,0.150574
969,0.055672,0.975161,-0.214388,-0.08503,0.0656409999999999,0.088091
970,0.058871,0.978032,-0.19997,-0.225237,-0.10378,0.072925
971,0.051844,0.981063,-0.186623,-0.193324,-0.098021,0.205178
972,0.040148,0.984402,-0.171289,-0.13016,-0.058163,0.2403809999999999
973,0.03056,0.98806,-0.151009,-0.078716,-0.173729,0.162499
974,0.022578,0.991446,-0.128546,-0.049571,-0.271369,0.095877
975,0.013482,0.99432,-0.105573,0.016822,-0.284344,0.0437139999999999
976,0.000494,0.996609,-0.082278,0.120295,-0.22453,0.080386
977,-0.017415,0.998095,-0.059182,0.226537,-0.182589,0.140146
978,-0.037391,0.998699,-0.034671,0.333229,-0.090999,0.055164
979,-0.0565919999999999,0.998342,-0.010517,0.345441,-0.012548,-0.0138509999999999
980,-0.072812,0.997292,0.0103629999999999,0.198377,0.179054,-0.252825
981,-0.084507,0.996082,0.026047,0.193806,0.149944,-0.321106
982,-0.091849,0.995207,0.033578,0.355903,0.147555,-0.2427909999999999
983,-0.096826,0.994718,0.034069,0.484567,0.171465,-0.217098
984,-0.10191,0.994296,0.031464,0.518749,0.18855,-0.228562
985,-0.107333,0.993913,0.0248509999999999,0.522845,0.27478,-0.102915
986,-0.112232,0.993652,0.0077209999999999,0.472568,0.331543,-0.039994
987,-0.112194,0.993447,-0.021809,0.412731,0.203544,0.056263
988,-0.108483,0.992125,-0.062611,0.252648,0.0396899999999999,0.26421
989,-0.10279,0.988034,-0.114988,0.068381,0.049762,0.2153449999999999
990,-0.097295,0.979958,-0.173827,-0.067088,0.377159,0.16107
991,-0.0901049999999999,0.967914,-0.2345699999999999,-0.109083,0.8621639999999999,0.248638
992,-0.078455,0.953343,-0.291516,-0.0010279999999999,0.6646380000000001,0.20799
993,-0.058325,0.938973,-0.339011,0.223882,0.38842,0.020896
994,-0.032141,0.924492,-0.379843,0.350074,0.3410559999999999,0.0307829999999999
995,-0.007089,0.90974,-0.415118,0.4370819999999999,0.339512,0.2007779999999999
996,0.009999,0.895741,-0.444463,0.403422,0.283015,0.336538
997,0.0203409999999999,0.8818819999999999,-0.4710319999999999,0.307707,0.128113,0.362786
998,0.016548,0.8692989999999999,-0.49401,0.195198,-0.124273,0.522895
999,0.000391,0.861381,-0.507959,0.193655,-0.236686,0.595224
1000,-0.019809,0.8587020000000001,-0.512093,0.206835,-0.351576,0.613549
1001,-0.041401,0.859485,-0.5094810000000001,0.112324,-0.4342069999999999,0.544683
1002,-0.060841,0.8635510000000001,-0.500578,0.043293,-0.415599,0.4847079999999999
1003,-0.075499,0.870609,-0.486149,-0.013307,-0.26543,0.420521
1004,-0.084649,0.8792690000000001,-0.4687439999999999,-0.045188,-0.201488,0.3513739999999999
1005,-0.085592,0.890267,-0.4473229999999999,-0.067072,-0.183023,0.316158
1006,-0.079604,0.903458,-0.421221,-0.2397929999999999,0.07431,0.218188
1007,-0.0720809999999999,0.917155,-0.391957,-0.2473159999999999,0.060613,0.188924
1008,-0.063407,0.929479,-0.363383,-0.4884729999999999,0.443934,0.077983
1009,-0.051812,0.93762,-0.34378,-0.346961,0.337862,-0.126191
1010,-0.041915,0.940514,-0.337159,-0.165452,0.226982,-0.223662
1011,-0.03408,0.938657,-0.3431639999999999,0.038993,-0.049878,-0.271079
1012,-0.03028,0.93197,-0.361268,0.245276,-0.252756,-0.341475
1013,-0.0289199999999999,0.923412,-0.382718,0.490254,-0.374081,-0.273059
1014,-0.0225919999999999,0.917481,-0.397138,0.604669,-0.295884,-0.1244079999999999
1015,0.003217,0.915934,-0.401317,0.337008,0.106588,-0.108769
1016,0.038522,0.919006,-0.392356,0.8630129999999999,1.139755,0.2013309999999999
1017,0.0591019999999999,0.930182,-0.362311,0.282069,1.070169,0.739157
1018,0.061397,0.936648,-0.34485,-0.245693,-0.255938,0.235979
1019,0.040593,0.938728,-0.34226,-0.212834,-0.583091,0.266683
1020,0.012637,0.944061,-0.32953,0.059857,-0.5282279999999999,0.324754
1021,-0.018135,0.949964,-0.3118309999999999,0.174446,-0.087858,0.4975
1022,-0.046623,0.955499,-0.291286,0.152076,0.118781,0.39532
1023,-0.065997,0.961678,-0.2661199999999999,0.064807,0.270622,0.240623
1024,-0.066294,0.970294,-0.2326679999999999,0.18104,0.2611969999999999,0.040651
1025,-0.057287,0.977887,-0.201133,0.17835,0.105029,0.034538
1026,-0.052844,0.982729,-0.177345,0.150744,-0.1860369999999999,0.028907
1027,-0.053963,0.985823,-0.158875,0.177926,-0.256804,0.047349
1028,-0.056593,0.988275,-0.141812,0.206526,-0.256188,0.064663
1029,-0.058748,0.990717,-0.122594,0.169114,-0.203348,0.084478
1030,-0.061257,0.993075,-0.100252,0.127922,-0.181688,0.1076369999999999
1031,-0.065687,0.994901,-0.076533,0.131208,-0.0996529999999999,0.156657
1032,-0.070775,0.996135,-0.052023,0.097066,-0.0541179999999999,0.120047
1033,-0.077223,0.996665,-0.026364,0.125639,0.075799,-0.015994
1034,-0.084796,0.996398,0.000562,0.161669,0.08426,-0.18649
1035,-0.093008,0.99535,0.0250759999999999,0.267507,-0.0020629999999999,-0.212851
1036,-0.099074,0.994104,0.044052,0.385634,0.016165,-0.090652
1037,-0.1030119999999999,0.993153,0.055097,0.361526,0.056926,-0.073789
1038,-0.1058119999999999,0.992685,0.058141,0.336678,0.164618,-0.174428
1039,-0.108395,0.992484,0.056795,0.234753,0.186898,-0.25931
1040,-0.109698,0.992518,0.053608,0.3624449999999999,0.231542,-0.162632
1041,-0.109971,0.993056,0.041781,0.360016,0.252854,-0.030902
1042,-0.104238,0.994435,0.0153099999999999,0.337438,0.357769,-0.015707
1043,-0.091795,0.99556,-0.020841,0.350188,0.150436,0.079969
1044,-0.072895,0.995157,-0.065948,0.02016,-0.0505,0.165741
1045,-0.051582,0.9911,-0.122718,-0.162727,0.078266,0.139747
1046,-0.031779,0.981439,-0.189125,-0.262837,0.452979,0.081337
1047,-0.015047,0.965807,-0.258825,-0.262785,0.717497,0.180013
1048,0.001976,0.946997,-0.321235,0.09301,0.4179319999999999,0.179771
1049,0.0290089999999999,0.927653,-0.372316,0.065977,0.437277,0.230852
1050,0.0636019999999999,0.909227,-0.411413,0.204068,0.472807,0.088766
1051,0.092102,0.89231,-0.441928,0.148025,0.40043,0.1817349999999999
1052,0.116701,0.875381,-0.4691369999999999,0.042387,0.376985,0.177893
1053,0.134517,0.8590709999999999,-0.493864,-0.063365,0.286314,0.18759
1054,0.137791,0.8467950000000001,-0.5137619999999999,-0.200047,-0.240396,0.461226
1055,0.129478,0.838465,-0.52935,-0.169777,-0.35969,0.506004
1056,0.115365,0.83388,-0.539754,-0.127252,-0.5644560000000001,0.444783
1057,0.101341,0.8345940000000001,-0.541463,-0.13758,-0.6443479999999999,0.314321
1058,0.0900379999999999,0.84109,-0.533349,-0.0995289999999999,-0.679286,0.232675
1059,0.081469,0.852234,-0.516778,-0.039019,-0.612061,0.053857
1060,0.074313,0.8643790000000001,-0.49732,-0.080859,-0.556868,0.01084
1061,0.068507,0.8755629999999999,-0.478222,-0.1055859999999999,-0.545027,-0.003834
1062,0.063049,0.885542,-0.460261,-0.1255339999999999,-0.468657,0.068461
1063,0.056944,0.894301,-0.443828,-0.116392,-0.3537889999999999,0.161327
1064,0.049281,0.901605,-0.4297439999999999,-0.058802,-0.306176,0.222179
1065,0.039166,0.907704,-0.417779,0.017612,-0.275883,0.233606
1066,0.0269319999999999,0.913801,-0.405269,0.04335,-0.27046,0.217723
1067,0.01455,0.921324,-0.388522,0.071647,-0.2282239999999999,0.174396
1068,0.002897,0.930599,-0.366028,0.088152,-0.141323,0.1303109999999999
1069,-0.005493,0.941043,-0.3382409999999999,0.038742,-0.017566,0.066772
1070,-0.007256,0.952028,-0.305924,-0.136665,0.105391,-0.027816
1071,-0.002487,0.962198,-0.272341,-0.355987,0.327307,-0.15991
1072,0.008212,0.969086,-0.246586,-0.491168,0.838607,-0.062099
1073,0.02435,0.973926,-0.225555,-0.064526,0.480389,0.4036409999999999
1074,0.039105,0.975834,-0.2149829999999999,0.354144,-0.092778,0.304507
1075,0.04482,0.974621,-0.219329,0.428813,-0.089398,0.131591
1076,0.045356,0.974803,-0.218406,0.609429,0.415013,-0.167276
1077,0.047534,0.975546,-0.2145949999999999,0.602002,1.421747,-0.386586
1078,0.061259,0.973439,-0.2206,0.091451,0.358059,0.154423
1079,0.079985,0.971322,-0.22391,0.001176,-0.238839,0.288501
1080,0.086028,0.970618,-0.2247219999999999,0.192872,-0.349402,0.068579
1081,0.083436,0.971854,-0.2203119999999999,0.213027,-0.38372,0.000387
1082,0.077639,0.974543,-0.210328,0.159376,-0.308375,0.0922559999999999
1083,0.06965,0.97739,-0.199646,0.054755,-0.16341,0.090668
1084,0.061885,0.97951,-0.191653,0.00591,-0.097704,-0.012326
1085,0.056538,0.980575,-0.18782,-0.102833,-0.167465,-0.147965
1086,0.051409,0.980396,-0.19021,-0.11812,-0.204197,-0.098501
1087,0.0438589999999999,0.979259,-0.1978059999999999,0.034953,-0.229153,0.017371
1088,0.035718,0.978017,-0.205443,0.182895,-0.2144829999999999,-0.0294959999999999
1089,0.028661,0.97667,-0.212825,0.3204909999999999,-0.198746,-0.052922
1090,0.023431,0.97438,-0.223682,0.388922,-0.169586,-0.017712
1091,0.018625,0.969814,-0.243134,0.52645,-0.155468,0.134446
1092,0.0106439999999999,0.960025,-0.279713,0.488608,0.006528,0.227452
1093,-5.4000000000000005e-05,0.941501,-0.33701,0.195962,0.392911,0.073689
1094,-0.009781,0.912856,-0.408165,-0.152115,0.68303,-0.134666
1095,-0.021281,0.877461,-0.479176,-0.523351,0.922756,-0.0615039999999999
1096,-0.035189,0.842615,-0.537365,-0.73451,0.749304,0.086788
1097,-0.029437,0.8145220000000001,-0.579385,-0.356702,0.258079,0.008935
1098,-0.010084,0.795061,-0.606445,-0.123277,-0.0836809999999999,0.009064
1099,0.0148669999999999,0.777888,-0.6282270000000001,-0.032735,0.1196339999999999,-0.119866
1100,0.0388639999999999,0.765918,-0.641763,-0.033905,0.192563,-0.1306369999999999
1101,0.059675,0.765546,-0.640608,-0.009367,0.172,-0.121416
1102,0.081773,0.777505,-0.623537,0.00212,-0.261972,0.165422
1103,0.104377,0.797492,-0.594232,-0.020484,-0.281959,0.136117
1104,0.1213089999999999,0.8211629999999999,-0.557652,0.005354,-0.563183,0.143391
1105,0.125502,0.8473450000000001,-0.516,-0.113646,-0.673852,0.041803
1106,0.119888,0.8748309999999999,-0.469359,-0.098159,-0.7424310000000001,0.022978
1107,0.1078269999999999,0.899932,-0.422488,-0.046533,-0.766127,-0.006284
1108,0.091069,0.920715,-0.3794599999999999,0.034145,-0.571121,0.027348
1109,0.073945,0.937216,-0.340819,0.08702,-0.283042,-0.010515
1110,0.061678,0.949741,-0.306902,-0.0130789999999999,0.094571,-0.055373
1111,0.0615059999999999,0.956758,-0.284309,-0.2619,0.409285,-0.079582
1112,0.075806,0.959536,-0.2711909999999999,-0.393448,0.318632,0.092648
1113,0.094372,0.963334,-0.251159,-0.300228,-0.238328,0.335555
1114,0.104864,0.969345,-0.2222039999999999,-0.0398,-0.52359,0.511037
1115,0.105643,0.973228,-0.204122,0.0767149999999999,-0.416664,0.491537
1116,0.103025,0.973919,-0.202159,0.170275,-0.308178,0.3160659999999999
1117,0.1120579999999999,0.970686,-0.2126289999999999,0.439181,0.984193,-0.5022909999999999
1118,0.1343619999999999,0.967208,-0.215534,0.310676,1.260438,-0.2244989999999999
1119,0.163029,0.96412,-0.2095119999999999,0.176098,0.8903270000000001,-0.104056
1120,0.192595,0.957937,-0.212753,0.307482,0.6041810000000001,-0.116044
1121,0.21486,0.952755,-0.214694,0.281844,0.3089179999999999,-0.094433
1122,0.2253679999999999,0.949285,-0.219241,0.092533,-0.422811,0.127886
1123,0.221298,0.948167,-0.228051,0.075638,-0.288331,-0.080604
1124,0.206565,0.948944,-0.238405,0.041115,-0.047119,-0.177199
1125,0.189889,0.950962,-0.244158,-0.134561,0.059185,-0.308882
1126,0.175095,0.952313,-0.249885,-0.132996,0.037555,-0.306741
1127,0.162659,0.952341,-0.258048,-0.071335,-0.076548,-0.019952
1128,0.1478529999999999,0.950035,-0.274906,-0.029735,-0.158912,0.188648
1129,0.130541,0.942179,-0.308639,0.08502,-0.219156,0.283325
1130,0.1122609999999999,0.926382,-0.359464,0.129316,-0.046484,0.322156
1131,0.091447,0.898279,-0.429805,0.124205,0.2022,0.220256
1132,0.072463,0.8598969999999999,-0.5052979999999999,0.006349,0.418377,0.0462529999999999
1133,0.062583,0.820614,-0.568046,-0.309851,0.708408,-0.040628
1134,0.054234,0.788863,-0.612171,-0.251561,0.822984,-0.051952
1135,0.054357,0.767658,-0.63855,-0.2595119999999999,0.3662829999999999,-0.099457
1136,0.070133,0.7559130000000001,-0.6509050000000001,-0.341602,-0.155174,-0.1084329999999999
1137,0.096785,0.755078,-0.648452,-0.195509,-0.281964,-0.0579379999999999
1138,0.1227619999999999,0.767092,-0.629682,-0.101354,-0.25844,-0.052996
1139,0.14382,0.787028,-0.5999180000000001,0.011759,-0.321498,0.037083
1140,0.161879,0.81038,-0.563098,0.0018789999999999,-0.387193,0.052584
1141,0.179394,0.836549,-0.51769,0.012348,-0.425905,-0.05131
1142,0.184712,0.8655579999999999,-0.4655,0.054438,-0.479328,-0.1353599999999999
1143,0.170808,0.8946350000000001,-0.41286,0.08995,-0.524518,-0.152616
1144,0.143236,0.920256,-0.364161,0.157026,-0.272184,0.025065
1145,0.111274,0.940897,-0.319892,0.162636,-0.160715,0.04145
1146,0.0848059999999999,0.955234,-0.283435,0.109789,-0.014438,0.048801
1147,0.070633,0.96361,-0.257811,-0.201706,0.155042,0.031112
1148,0.069124,0.968246,-0.240254,-0.200197,0.1504059999999999,0.0135539999999999
1149,0.0763,0.971757,-0.2233099999999999,-0.448568,0.188964,-0.156695
1150,0.085357,0.975725,-0.201679,-0.424652,0.326338,-0.017544
1151,0.094445,0.978813,-0.181672,-0.220208,0.370704,0.348038
1152,0.103044,0.979407,-0.173621,0.096557,-0.062827,0.275077
1153,0.111893,0.977386,-0.1794329999999999,0.259216,-0.225296,0.213719
1154,0.121014,0.973923,-0.191913,0.283878,-0.1130829999999999,0.1552609999999999
1155,0.125419,0.970513,-0.2058489999999999,0.372475,0.412742,-0.106467
1156,0.1298349999999999,0.967666,-0.216254,0.357942,0.505112,-0.164819
1157,0.132927,0.966549,-0.219346,0.148979,0.399555,-0.110839
1158,0.13524,0.966721,-0.217165,0.034499,0.238006,-0.022504
1159,0.138044,0.967036,-0.213973,0.219667,0.173085,-0.0079659999999999
1160,0.140601,0.967432,-0.2104909999999999,0.213311,0.076925,0.020641
1161,0.141104,0.967965,-0.207684,0.203424,-0.010797,0.048398
1162,0.13943,0.968739,-0.205194,0.102391,-0.166874,0.03483
1163,0.136416,0.969582,-0.203228,0.052701,-0.176232,0.010128
1164,0.133257,0.97016,-0.202563,-0.0038929999999999,-0.189505,-0.0209789999999999
1165,0.130279,0.970633,-0.202236,-0.13829,-0.2715059999999999,-0.159702
1166,0.127824,0.970962,-0.202223,-0.110826,-0.2882989999999999,-0.146349
1167,0.125949,0.971032,-0.203062,-0.077472,-0.307473,-0.128893
1168,0.122719,0.97072,-0.206501,0.142967,-0.278444,-0.0422779999999999
1169,0.1175339999999999,0.969926,-0.213142,0.190633,-0.223634,-0.034554
1170,0.112304,0.968134,-0.2238389999999999,0.239182,-0.14947,-0.04206
1171,0.108438,0.964796,-0.239602,0.4234989999999999,-0.074995,0.007775
1172,0.103088,0.959391,-0.2625659999999999,0.471497,-0.125163,0.043023
1173,0.094137,0.950566,-0.29591,0.4190319999999999,-0.168889,0.15179
1174,0.082873,0.937109,-0.339057,0.2484719999999999,-0.115392,0.199393
1175,0.071759,0.918534,-0.388775,0.06081,0.0612789999999999,0.163037
1176,0.062975,0.8938370000000001,-0.4439479999999999,-0.257799,0.485771,-0.130698
1177,0.0528059999999999,0.8676280000000001,-0.494402,-0.39355,0.7476520000000001,-0.1449869999999999
1178,0.039525,0.8462149999999999,-0.531374,-0.422368,0.754692,-0.027143
1179,0.039543,0.832182,-0.553092,-0.279518,0.2338889999999999,0.031851
1180,0.053065,0.826039,-0.56111,-0.120295,0.003933,-0.021532
1181,0.0727169999999999,0.824392,-0.561329,-0.160196,-0.00382,0.009052
1182,0.094064,0.824025,-0.5586899999999999,-0.154184,0.260845,-0.110621
1183,0.1151359999999999,0.8289120000000001,-0.547402,-0.092644,0.259925,0.015465
1184,0.133677,0.8392719999999999,-0.5270229999999999,-0.132151,0.0499649999999999,0.19107
1185,0.150551,0.8532549999999999,-0.499289,-0.120553,-0.2070449999999999,0.217276
1186,0.160854,0.8705700000000001,-0.465009,-0.111843,-0.438762,0.1824319999999999
1187,0.1598619999999999,0.8900520000000001,-0.42691,-0.120067,-0.602042,0.095748
1188,0.14714,0.909891,-0.387876,-0.084914,-0.725214,0.022702
1189,0.125974,0.928147,-0.350247,-0.028165,-0.724198,0.011746
1190,0.099992,0.943227,-0.316741,0.00447,-0.536748,-0.053117
1191,0.072872,0.95487,-0.287946,0.036137,-0.26705,-0.112704
1192,0.051683,0.962595,-0.26597,0.0142199999999999,0.0075739999999999,-0.1029109999999999
1193,0.04451,0.966031,-0.254565,-0.145905,0.527362,-0.0498329999999999
1194,0.04816,0.966138,-0.2534909999999999,-0.374606,0.823657,-0.088337
1195,0.0581,0.967497,-0.2461179999999999,-0.469141,0.494264,-0.066993
1196,0.074747,0.973288,-0.217079,-0.457163,0.227807,0.219444
1197,0.089443,0.978798,-0.184269,-0.148998,-0.256553,0.348988
1198,0.095651,0.980406,-0.172207,0.0537169999999999,-0.289229,0.228954
1199,0.0971809999999999,0.979664,-0.17554,0.173907,-0.221379,0.0490899999999999
1200,0.095713,0.978979,-0.180107,0.519308,0.164148,-0.06942
1201,0.099588,0.979373,-0.175815,0.390432,0.2645079999999999,-0.186017
1202,0.107174,0.979819,-0.168726,0.257709,0.343988,-0.394186
1203,0.117757,0.980004,-0.160393,0.170268,0.954826,-0.16935
1204,0.134081,0.978983,-0.153673,0.280225,0.2486179999999999,-0.060027
1205,0.145399,0.978046,-0.14928,0.221026,-0.151966,0.025317
1206,0.144102,0.978244,-0.149246,0.215227,-0.296267,0.1167599999999999
1207,0.136055,0.979144,-0.150882,0.242653,-0.258502,0.149524
1208,0.127959,0.980242,-0.150837,0.078264,-0.2028829999999999,0.054874
1209,0.1233119999999999,0.98112,-0.148988,-0.085699,-0.190135,-0.063979
1210,0.123272,0.981764,-0.14472,-0.123974,-0.204771,-0.144556
1211,0.125943,0.982096,-0.140092,-0.091534,-0.2257179999999999,-0.140013
1212,0.1294819999999999,0.98199,-0.1375829999999999,-0.051921,-0.234447,-0.126318
1213,0.132253,0.98163,-0.13752,0.158045,-0.063097,-0.041069
1214,0.136117,0.980585,-0.141158,0.204017,-0.052469,-0.040101
1215,0.140801,0.978556,-0.150342,0.231971,-0.077052,-0.022983
1216,0.142558,0.975293,-0.168764,0.2944989999999999,-0.207821,0.011033
1217,0.137364,0.970225,-0.199488,0.30978,-0.1819859999999999,-0.010641
1218,0.125532,0.961966,-0.2426179999999999,0.232103,-0.015097,-0.003415
1219,0.10842,0.948074,-0.299,0.0301449999999999,0.1058809999999999,0.085453
1220,0.085564,0.925905,-0.367938,-0.107063,0.351133,0.000109
1221,0.058311,0.895789,-0.440639,-0.14463,0.658609,-0.01006
1222,0.0335769999999999,0.8628459999999999,-0.504351,-0.2958139999999999,0.710503,0.0621059999999999
1223,0.014236,0.834522,-0.550791,-0.329345,0.410488,0.11828
1224,0.009011,0.812243,-0.58325,-0.1678849999999999,0.102156,0.039412
1225,0.01715,0.7957310000000001,-0.6054069999999999,-0.2341,0.088622,-0.1130829999999999
1226,0.038474,0.7837390000000001,-0.619898,-0.290442,0.155943,-0.090155
1227,0.064291,0.775192,-0.628446,-0.200063,0.249848,-0.034274
1228,0.089516,0.774501,-0.626207,-0.177345,0.1100049999999999,0.035677
1229,0.118566,0.7833829999999999,-0.610125,-0.1678359999999999,-0.024533,0.091464
1230,0.148013,0.798367,-0.583697,-0.02112,-0.427731,0.235614
1231,0.168013,0.817796,-0.550437,0.022539,-0.5528430000000001,0.241126
1232,0.1720269999999999,0.84115,-0.512712,-0.006408,-0.653223,0.11017
1233,0.161668,0.868215,-0.469113,0.0710129999999999,-0.7295729999999999,0.038464
1234,0.140556,0.895537,-0.422206,0.152779,-0.6820510000000001,0.027416
1235,0.1148569999999999,0.918884,-0.377438,0.126599,-0.484207,-0.019229
1236,0.0888549999999999,0.937366,-0.336823,0.079037,-0.2746159999999999,-0.180816
1237,0.06554,0.952641,-0.296952,-0.07175,0.146496,-0.2051849999999999
1238,0.047272,0.962208,-0.26818,-0.296295,0.481807,0.054527
1239,0.035717,0.965394,-0.25834,-0.332165,0.278457,0.161324
1240,0.031323,0.967344,-0.251526,-0.467327,0.263049,-0.1151119999999999
1241,0.042395,0.972106,-0.230677,-0.3723059999999999,0.303116,-0.0674039999999999
1242,0.062944,0.978088,-0.198451,-0.2497719999999999,0.334519,0.124919
1243,0.080633,0.981228,-0.1751869999999999,0.1423589999999999,0.024006,0.2278909999999999
1244,0.090941,0.981708,-0.167267,0.181291,-0.120197,0.058761
1245,0.09797,0.980713,-0.169127,0.39907,0.119522,0.040175
1246,0.09777,0.980489,-0.170537,0.468865,0.485469,-0.14532
1247,0.09788,0.980364,-0.171191,0.508214,0.711851,-0.269895
1248,0.106688,0.978325,-0.177474,0.399736,0.413002,-0.1072849999999999
1249,0.118975,0.976313,-0.180713,0.067732,-0.147654,-0.050473
1250,0.125089,0.976038,-0.17805,0.081713,-0.225413,0.052059
1251,0.126304,0.976415,-0.175101,0.162896,-0.151418,0.061728
1252,0.1249,0.977131,-0.172092,0.149041,-0.162113,0.138645
1253,0.121404,0.978053,-0.1693339999999999,0.106852,-0.1605329999999999,0.152473
1254,0.1173869999999999,0.978924,-0.167116,-0.072007,-0.146832,-0.0411819999999999
1255,0.1123369999999999,0.979634,-0.166428,-0.107011,-0.185856,-0.142242
1256,0.105111,0.980003,-0.168958,-0.100244,-0.214896,-0.149844
1257,0.09755,0.979645,-0.175439,-0.017579,-0.281495,-0.08428
1258,0.091332,0.978719,-0.183757,0.097923,-0.288412,-0.07552
1259,0.085458,0.977424,-0.193234,0.116065,-0.254554,-0.070392
1260,0.079638,0.97561,-0.204557,0.145429,-0.2117389999999999,-0.042086
1261,0.0730919999999999,0.973191,-0.218075,0.381146,0.023544,-0.0376769999999999
1262,0.0656429999999999,0.970208,-0.233211,0.4872899999999999,0.035102,0.011928
1263,0.054923,0.965453,-0.254723,0.53225,-0.1044,0.075004
1264,0.041807,0.957177,-0.286469,0.3387159999999999,0.0593179999999999,0.004975
1265,0.027811,0.944461,-0.327445,0.222769,0.208981,0.024329
1266,0.013142,0.928326,-0.371535,-0.256992,0.518925,0.08287
1267,-0.00158,0.909634,-0.4154069999999999,-0.452659,0.6582819999999999,0.08246
1268,-0.013894,0.8894209999999999,-0.4568779999999999,-0.566962,0.6102890000000001,0.124694
1269,-0.0167639999999999,0.872175,-0.488906,-0.595404,0.533434,0.142196
1270,-0.006654,0.85977,-0.510638,-0.108001,0.1585859999999999,0.071948
1271,0.007361,0.8527440000000001,-0.522277,-0.057364,0.085656,0.0846389999999999
1272,0.021037,0.849115,-0.5277890000000001,0.0098319999999999,-0.0064329999999999,0.042849
1273,0.03245,0.848469,-0.528249,-0.009027,0.076259,0.037068
1274,0.046625,0.853035,-0.519766,-0.033213,0.01493,0.135229
1275,0.065325,0.8624850000000001,-0.501848,-0.084658,-0.1330849999999999,0.227877
1276,0.084695,0.875426,-0.475875,-0.136987,-0.289137,0.225494
1277,0.100379,0.8914639999999999,-0.4418319999999999,-0.1343609999999999,-0.460251,0.151793
1278,0.10783,0.909702,-0.401017,-0.058712,-0.635929,0.0280009999999999
1279,0.104899,0.928369,-0.356548,-0.019007,-0.698572,-0.0030559999999999
1280,0.093776,0.944858,-0.313766,-0.033427,-0.69321,-0.022889
1281,0.077968,0.95827,-0.275028,-0.004024,-0.39313,-0.092068
1282,0.060028,0.968283,-0.242538,-0.000198,-0.22637,-0.1854869999999999
1283,0.043973,0.97429,-0.220966,-0.065717,0.296889,-0.211026
1284,0.033507,0.975731,-0.2163949999999999,-0.195876,0.365929,-0.016057
1285,0.032587,0.973821,-0.2249699999999999,-0.255091,0.26971,-0.046576
1286,0.041716,0.973557,-0.224602,-0.293547,0.100738,-0.113701
1287,0.055886,0.977059,-0.205503,-0.168939,0.202842,0.3774699999999999
1288,0.066368,0.981139,-0.181552,0.02848,-0.212432,0.154163
1289,0.072671,0.982845,-0.169516,0.351356,-0.394786,-0.063349
1290,0.079452,0.982453,-0.168741,0.458237,-0.038682,-0.120917
1291,0.0856789999999999,0.982556,-0.165055,0.67105,0.6172979999999999,-0.183258
1292,0.091499,0.983406,-0.1566519999999999,0.597023,0.697395,-0.320658
1293,0.105029,0.983304,-0.148598,0.372601,1.084658,-0.178611
1294,0.122818,0.981426,-0.147376,0.198792,0.338505,0.202765
1295,0.1386349999999999,0.978684,-0.151518,0.100959,-0.177323,0.179152
1296,0.141446,0.976217,-0.164296,0.062885,-0.380194,0.22083
1297,0.135934,0.974422,-0.178952,0.016669,-0.445262,0.19244
1298,0.1262059999999999,0.973627,-0.190058,-0.128236,-0.359003,-0.008459
1299,0.1163059999999999,0.973503,-0.1968869999999999,-0.209308,-0.240578,-0.173367
1300,0.110296,0.97374,-0.19916,-0.172018,-0.17981,-0.230055
1301,0.105679,0.973712,-0.201782,-0.116772,-0.169849,-0.081421
1302,0.098566,0.973253,-0.2075159999999999,0.017462,-0.1849839999999999,-0.002369
1303,0.087616,0.972032,-0.217892,0.1547849999999999,-0.076158,-0.066379
1304,0.077236,0.969702,-0.231761,0.236942,-0.0177979999999999,-0.048894
1305,0.068108,0.965034,-0.253121,0.453102,-0.025795,0.13514
1306,0.056169,0.956052,-0.2877679999999999,0.364257,-0.050732,0.160571
1307,0.039085,0.940738,-0.3368739999999999,0.309212,0.031705,0.107672
1308,0.019072,0.917007,-0.398415,0.203263,0.15152,0.046303
1309,-5.3e-05,0.8863989999999999,-0.462922,-0.2912369999999999,0.702498,-0.211853
1310,-0.021668,0.8562540000000001,-0.516101,-0.442474,0.931374,-0.143567
1311,-0.038966,0.832614,-0.552481,-0.566457,0.553708,0.138541
1312,-0.039788,0.8160149999999999,-0.5766600000000001,-0.2275309999999999,0.0574289999999999,0.07724
1313,-0.031653,0.8080689999999999,-0.588237,-0.214075,-0.108865,0.015346
1314,-0.0130689999999999,0.806994,-0.5904149999999999,-0.145928,-0.074099,-0.047051
1315,0.010114,0.81166,-0.5840420000000001,-0.033262,0.070847,-0.015002
1316,0.031149,0.822599,-0.567768,-0.026846,0.0560779999999999,0.031604
1317,0.053007,0.839515,-0.540745,-0.042036,-0.098197,0.117253
1318,0.076859,0.8594510000000001,-0.505408,-0.02295,-0.334304,0.147742
1319,0.096458,0.880928,-0.463316,0.004524,-0.521583,0.11569
1320,0.103824,0.903071,-0.416753,0.031094,-0.642604,0.026311
1321,0.099535,0.924393,-0.368226,0.06787,-0.640687,-0.029312
1322,0.085802,0.942748,-0.322281,0.1010419999999999,-0.510054,-0.018097
1323,0.065916,0.956543,-0.284045,0.1411,-0.16957,-0.01254
1324,0.045343,0.965543,-0.256261,0.112783,0.121615,-0.097132
1325,0.031231,0.970837,-0.237697,-0.02763,0.303913,-0.165043
1326,0.0270259999999999,0.97356,-0.226828,-0.2108789999999999,0.217099,-0.13537
1327,0.0293209999999999,0.97462,-0.221935,-0.3503969999999999,0.170002,-0.127872
1328,0.033085,0.97613,-0.21465,-0.387486,-0.004344,-0.0937
1329,0.03562,0.979884,-0.196365,-0.292914,0.228933,0.098236
1330,0.0353389999999999,0.984399,-0.172362,-0.272354,0.4427859999999999,0.1252579999999999
1331,0.030338,0.987707,-0.153342,-0.085834,0.025202,0.053778
1332,0.0244479999999999,0.989369,-0.1433549999999999,0.043011,0.025569,0.0558909999999999
1333,0.018031,0.989628,-0.142517,0.350118,0.044506,0.242233
1334,0.011258,0.989814,-0.141919,0.465579,-0.032646,0.219266
1335,0.0073849999999999,0.991164,-0.132434,0.487671,0.134873,0.026462
1336,0.008326,0.993445,-0.114008,0.515355,0.161951,-0.17417
1337,0.013136,0.995754,-0.091113,0.4720319999999999,0.233952,-0.202512
1338,0.018903,0.997641,-0.065996,0.340044,0.4983,-0.16133
1339,0.023819,0.998765,-0.0436089999999999,0.191528,0.421996,-0.029663
1340,0.027475,0.999223,-0.028244,0.039954,-0.031282,0.005966
1341,0.026155,0.999438,-0.020954,0.037489,-0.21239,0.071201
1342,0.019994,0.999637,-0.018068,0.008906,-0.373965,0.06949
1343,0.009022,0.999834,-0.015826,0.0069689999999999,-0.452868,-0.00105
1344,-0.005613,0.999903,-0.012724,0.096464,-0.4450939999999999,-0.136751
1345,-0.021438,0.99972,-0.010004,0.3524469999999999,-0.29835,-0.176992
1346,-0.037073,0.999273,-0.008851,0.450082,-0.269796,-0.170074
1347,-0.051641,0.998625,-0.0089819999999999,0.526296,-0.262923,-0.178731
1348,-0.064568,0.997869,-0.009356,0.6197739999999999,-0.201574,-0.256879
1349,-0.075499,0.997123,-0.00669,0.624846,-0.132744,-0.241693
1350,-0.085044,0.996377,9.2e-05,0.566612,0.02085,-0.139771
1351,-0.094296,0.995526,0.006053,0.48431,-0.165143,-0.148875
1352,-0.10327,0.994636,0.005837,0.4307689999999999,-0.210441,-0.23275
1353,-0.1165549999999999,0.993165,-0.006243,0.492501,-0.053452,-0.102934
1354,-0.132814,0.990496,-0.03576,0.045366,0.428602,0.094507
1355,-0.141586,0.987365,-0.071157,-0.119492,0.696976,0.184148
1356,-0.146915,0.981726,-0.120958,-0.4422569999999999,0.711557,0.2438519999999999
1357,-0.143777,0.972253,-0.18453,-0.228843,1.4236209999999998,0.328466
1358,-0.121701,0.96088,-0.248792,0.077207,1.451321,0.332807
1359,-0.083579,0.949033,-0.303894,0.444968,0.923328,0.03601
1360,-0.037819,0.937875,-0.344907,0.746544,0.666724,-0.219546
1361,0.000258,0.928203,-0.372075,0.862626,0.813725,-0.043468
1362,0.025263,0.917611,-0.396676,0.528754,0.725684,0.231042
1363,0.027548,0.908539,-0.416892,0.215051,0.227677,0.421652
1364,0.016073,0.905623,-0.423779,0.119959,-0.077925,0.559354
1365,-0.000766,0.907889,-0.419209,0.0519899999999999,-0.368262,0.689595
1366,-0.019116,0.91078,-0.4124489999999999,0.010953,-0.474531,0.667363
1367,-0.0418329999999999,0.911946,-0.408171,-0.02497,-0.5209090000000001,0.501235
1368,-0.066233,0.914214,-0.399782,0.016962,-0.479125,0.357942
1369,-0.091673,0.921182,-0.378179,0.082549,-0.414743,0.363011
1370,-0.1176,0.93116,-0.345124,0.089615,-0.2837449999999999,0.407014
1371,-0.136494,0.941345,-0.308609,-0.040843,-0.184341,0.467041
1372,-0.141577,0.949742,-0.279188,-0.070764,-0.142094,0.405698
1373,-0.136017,0.955217,-0.262792,-0.113755,0.0869429999999999,0.215612
1374,-0.125186,0.958385,-0.256569,-0.427076,0.368077,-0.0140759999999999
1375,-0.105752,0.959824,-0.259914,-0.525199,0.238876,-0.056798
1376,-0.08614,0.957678,-0.274648,-0.335353,-0.187949,-0.192789
1377,-0.078737,0.950727,-0.2998639999999999,-0.2524389999999999,-0.46478,-0.2389239999999999
1378,-0.078271,0.942768,-0.324133,0.003732,-0.624988,-0.309152
1379,-0.076313,0.938609,-0.336436,0.100895,-0.284007,-0.389546
1380,-0.063803,0.934982,-0.348909,0.431402,0.750031,-0.536101
1381,-0.042911,0.926752,-0.373214,1.172107,1.430151,0.4474479999999999
1382,-0.014683,0.933032,-0.359494,0.188389,0.613217,0.363552
1383,-0.005758,0.940748,-0.339057,0.006612,-0.188826,0.244086
1384,-0.005802,0.944326,-0.32896,0.194599,-0.414297,0.200847
1385,-0.019285,0.950083,-0.311401,0.323209,-0.4358619999999999,0.313415
1386,-0.045222,0.956712,-0.287503,0.41865,-0.124207,0.3336
1387,-0.071373,0.963955,-0.256315,0.301186,0.276615,0.316266
1388,-0.090629,0.971227,-0.220236,0.033241,0.410609,0.139914
1389,-0.094463,0.979049,-0.180387,0.06361,0.341859,0.011976
1390,-0.088036,0.986216,-0.1401,0.021294,-0.004557,-0.060782
1391,-0.082859,0.991242,-0.102827,0.018604,-0.184022,-0.101228
1392,-0.083256,0.993792,-0.0738019999999999,0.137776,-0.29207,-0.0137229999999999
1393,-0.086201,0.994833,-0.0536289999999999,0.210865,-0.346472,0.070948
1394,-0.088281,0.995474,-0.035171,0.199716,-0.343863,0.107467
1395,-0.089477,0.995925,-0.011253,0.161193,-0.334426,0.125144
1396,-0.091178,0.995686,0.017225,0.097312,-0.148075,0.038745
1397,-0.093819,0.994543,0.045623,0.128685,-0.0485899999999999,-0.038451
1398,-0.100198,0.99243,0.071009,0.164452,0.052552,-0.085841
1399,-0.108039,0.989728,0.093626,0.306479,0.346789,-0.339002
1400,-0.1161109999999999,0.986569,0.114891,0.344138,0.292377,-0.371178
1401,-0.122081,0.983873,0.130727,0.373363,0.235151,-0.343816
1402,-0.125776,0.982643,0.136355,0.466078,0.2799,-0.273379
1403,-0.128406,0.982939,0.131692,0.537571,0.359865,-0.281518
1404,-0.126684,0.984938,0.117682,0.56893,0.430864,-0.239157
1405,-0.1162609999999999,0.988867,0.092875,0.4438979999999999,0.19343,-0.12028
1406,-0.100592,0.993259,0.057607,0.263281,0.138348,-0.1136369999999999
1407,-0.080994,0.996656,0.010836,0.1119839999999999,0.069857,-0.041766
1408,-0.062307,0.996987,-0.04621,-0.25114,0.551826,0.1148599999999999
1409,-0.0480079999999999,0.993017,-0.1077569999999999,-0.178402,0.759073,0.486435
1410,-0.038469,0.985792,-0.163509,-0.011275,0.4328329999999999,0.314632
1411,-0.025729,0.976264,-0.215052,0.11362,0.312082,0.016551
1412,-0.002409,0.965151,-0.261684,0.173231,0.321013,-0.064121
1413,0.026336,0.953143,-0.301373,0.147233,0.39076,0.030347
1414,0.049712,0.940663,-0.33568,0.027894,0.22224,0.1640039999999999
1415,0.067069,0.927468,-0.367838,-0.040763,0.130103,0.212686
1416,0.075052,0.915167,-0.396025,-0.08642,-0.373587,0.335646
1417,0.075148,0.905998,-0.416558,-0.1030099999999999,-0.501487,0.446893
1418,0.071363,0.899596,-0.430854,-0.09036,-0.55287,0.459586
1419,0.06663,0.895012,-0.441036,-0.095484,-0.549782,0.436764
1420,0.059321,0.8916649999999999,-0.448792,-0.091563,-0.514208,0.413788
1421,0.046932,0.890966,-0.451639,-0.097408,-0.5002800000000001,0.356042
1422,0.032474,0.895394,-0.444088,-0.139286,-0.409921,0.0154539999999999
1423,0.022271,0.905023,-0.42478,-0.171945,-0.2806639999999999,-0.230539
1424,0.0191639999999999,0.916692,-0.399136,-0.109206,-0.060933,-0.319202
1425,0.019906,0.924558,-0.3805219999999999,0.011466,0.298709,-0.36577
1426,0.026822,0.927003,-0.374093,-0.011395,0.564772,-0.50553
1427,0.033955,0.927011,-0.3734949999999999,0.057552,0.2244179999999999,-0.375773
1428,0.034559,0.923624,-0.38174,0.014452,-0.154321,0.035396
1429,0.031162,0.918331,-0.3945849999999999,-0.153538,-0.402828,0.084695
1430,0.024758,0.912872,-0.407495,-0.1405269999999999,-0.099334,-0.089362
1431,0.016097,0.901908,-0.4316279999999999,0.001756,0.9497,-0.091245
1432,0.0067269999999999,0.8854540000000001,-0.464679,0.341188,1.1043379999999998,0.109149
1433,0.004218,0.8808739999999999,-0.473333,0.140939,0.439317,0.141347
1434,0.016159,0.886495,-0.462456,0.146835,-0.198278,0.5171439999999999
1435,0.033726,0.8941620000000001,-0.446471,0.345378,-0.25398,0.6184529999999999
1436,0.0365889999999999,0.90464,-0.424604,0.462404,-0.216438,0.538618
1437,0.022936,0.915472,-0.401728,0.552183,0.120722,0.389734
1438,0.002767,0.925656,-0.378355,0.4390199999999999,0.456241,0.371825
1439,-0.009446,0.934686,-0.3553489999999999,0.226944,0.483756,0.340625
1440,-0.0066739999999999,0.943576,-0.33109,-0.253793,0.179883,0.108571
1441,0.006021,0.95326,-0.30209,-0.332422,-0.062025,0.071912
1442,0.019566,0.961744,-0.2732489999999999,-0.250386,-0.174757,0.069422
1443,0.027305,0.967927,-0.249744,-0.070213,-0.20131,0.010989
1444,0.029705,0.972485,-0.231063,0.150059,-0.170544,-0.096483
1445,0.029322,0.975898,-0.2162469999999999,0.199727,-0.191658,-0.107377
1446,0.027316,0.977985,-0.2068809999999999,0.2442599999999999,-0.20943,-0.092924
1447,0.024332,0.978742,-0.203646,0.244757,-0.23155,-0.085996
1448,0.021407,0.978531,-0.204984,0.223985,-0.2363739999999999,-0.068682
1449,0.020618,0.977526,-0.209803,0.2183949999999999,-0.229113,-0.043508
1450,0.024175,0.976046,-0.216217,0.039988,-0.289065,-0.028672
1451,0.029979,0.974303,-0.223237,0.006489,-0.281325,-0.0964039999999999
1452,0.035153,0.9717,-0.233586,-0.00108,-0.250677,-0.1428019999999999
1453,0.03906,0.968415,-0.2462639999999999,0.0851919999999999,-0.270768,-0.195905
1454,0.040851,0.964881,-0.2594909999999999,0.181928,-0.340064,-0.046952
1455,0.040791,0.961841,-0.270553,0.26173,-0.348529,0.153594
1456,0.037004,0.959142,-0.280495,0.303114,-0.184926,0.363762
1457,0.031162,0.956087,-0.291423,0.323132,-0.109956,0.321132
1458,0.022742,0.949771,-0.312119,0.4330529999999999,0.117673,0.29097
1459,0.0124739999999999,0.935658,-0.352688,0.150276,0.33279,0.254498
1460,-0.000393,0.910304,-0.41394,-0.148594,0.648,-0.018265
1461,-0.014608,0.8763290000000001,-0.481491,-0.2918949999999999,0.8371870000000001,-0.17044
1462,-0.033596,0.8423940000000001,-0.537814,-0.437596,0.690337,0.0231199999999999
1463,-0.052,0.815789,-0.5760069999999999,-0.460772,0.521705,0.103381
1464,-0.055562,0.7980550000000001,-0.600017,-0.3104659999999999,0.255198,-0.224751
1465,-0.047403,0.790064,-0.611189,-0.2143469999999999,0.272848,-0.205354
1466,-0.032764,0.789328,-0.613097,-0.080487,0.08906,-0.085267
1467,-0.014399,0.794854,-0.60663,-0.0635429999999999,0.0992649999999999,0.085024
1468,0.005716,0.8061159999999999,-0.59173,-0.112375,-0.012827,0.180475
1469,0.0269209999999999,0.8215690000000001,-0.569472,-0.081669,-0.2237449999999999,0.258773
1470,0.049739,0.840475,-0.539563,-0.099025,-0.380804,0.248822
1471,0.0730659999999999,0.86287,-0.500116,-0.0868289999999999,-0.527101,0.168024
1472,0.0912559999999999,0.888285,-0.450135,0.027076,-0.679942,0.066178
1473,0.095287,0.914583,-0.393011,0.103779,-0.667086,-0.0031219999999999
1474,0.086736,0.937371,-0.337362,0.144083,-0.564858,0.00945
1475,0.071641,0.954309,-0.290106,0.151229,-0.431329,0.0259149999999999
1476,0.054395,0.965647,-0.2540989999999999,0.174304,-0.363932,-0.015401
1477,0.04105,0.972888,-0.227604,-0.020222,0.045132,-0.065472
1478,0.037925,0.976709,-0.211189,-0.1245039999999999,0.116034,-0.063118
1479,0.045474,0.976917,-0.2087239999999999,-0.522998,0.2413449999999999,-0.021974
1480,0.057623,0.976564,-0.207368,-0.686361,0.706266,-0.116897
1481,0.065346,0.978646,-0.1948869999999999,-0.709725,1.031562,0.013155
1482,0.07536,0.980539,-0.1812869999999999,0.068164,-0.2382139999999999,0.664441
1483,0.0850679999999999,0.980036,-0.179702,0.277466,-0.2499179999999999,0.216583
1484,0.092557,0.978828,-0.182562,0.4614439999999999,0.204171,-0.213357
1485,0.098426,0.979113,-0.1779059999999999,0.490746,0.6795939999999999,-0.228542
1486,0.098775,0.979651,-0.174722,0.485392,0.478159,-0.1478789999999999
1487,0.100177,0.980647,-0.168214,0.355114,0.6042529999999999,-0.209548
1488,0.101171,0.982122,-0.158749,0.333903,0.444895,-0.171115
1489,0.104493,0.983515,-0.147578,0.20848,0.122717,-0.018407
1490,0.106127,0.984613,-0.1388319999999999,0.181974,-0.053903,0.090126
1491,0.106742,0.985535,-0.131635,0.125222,-0.182358,0.158445
1492,0.107063,0.986382,-0.124855,0.018258,-0.246437,0.12394
1493,0.1062569999999999,0.987365,-0.1175609999999999,-0.076045,-0.219756,0.0535039999999999
1494,0.103671,0.988147,-0.113213,-0.148303,-0.2223239999999999,6.9e-05
1495,0.100138,0.988604,-0.1124059999999999,-0.164347,-0.305437,-0.070883
1496,0.095968,0.988722,-0.114971,-0.129445,-0.442717,-0.084538
1497,0.090956,0.988415,-0.121504,-0.04048,-0.558971,-0.118852
1498,0.086362,0.987577,-0.131278,0.0521419999999999,-0.404569,-0.2117699999999999
1499,0.084491,0.985948,-0.144109,0.112424,-0.28235,-0.144618
1500,0.085828,0.983169,-0.1612839999999999,0.284732,0.070115,0.016035
1501,0.0864299999999999,0.97865,-0.186477,0.353557,0.0306579999999999,0.1383349999999999
1502,0.084125,0.970627,-0.2254,0.335781,-0.099427,0.209882
1503,0.077179,0.955812,-0.283667,0.228958,-0.145372,0.263204
1504,0.063618,0.931295,-0.358669,-0.077976,0.224559,-0.023518
1505,0.041263,0.890651,-0.452812,-0.470112,0.882283,-0.418358
1506,0.014244,0.846893,-0.531572,-0.637138,1.286438,-0.124556
1507,-0.011398,0.815593,-0.5785140000000001,-0.511704,0.426961,0.247505
1508,-0.0142009999999999,0.794837,-0.606657,-0.220326,-0.279075,0.1111579999999999
1509,-0.0096099999999999,0.778291,-0.62783,-0.143832,-0.376786,0.102989
1510,-0.004584,0.764038,-0.645155,-0.285134,0.204361,0.074873
1511,0.008209,0.757931,-0.652283,-0.079636,0.240894,0.068314
1512,0.027487,0.766197,-0.6420170000000001,-0.087439,0.046806,0.020496
1513,0.049572,0.789979,-0.6111270000000001,-0.120114,-0.203217,-0.0390649999999999
1514,0.074461,0.8231700000000001,-0.562891,-0.058912,-0.40984,-0.145681
1515,0.099244,0.8572780000000001,-0.5051979999999999,0.0596299999999999,-0.547433,-0.172689
1516,0.118211,0.8862479999999999,-0.447874,0.074019,-0.6766220000000001,-0.132539
1517,0.127994,0.908989,-0.396681,0.042447,-0.762459,-0.07445
1518,0.12571,0.928129,-0.350392,-0.0304029999999999,-0.687299,0.086354
1519,0.109097,0.94605,-0.305102,-0.11546,-0.319478,0.2156699999999999
1520,0.083536,0.960792,-0.264389,-0.169657,0.160241,0.255981
1521,0.062138,0.96894,-0.239363,-0.353703,0.426538,0.161436
1522,0.056186,0.971853,-0.228788,-0.398151,0.347391,-0.079745
1523,0.062023,0.974118,-0.2173639999999999,-0.405529,0.334582,-0.13371
1524,0.072174,0.97648,-0.203168,-0.193222,0.307349,0.182813
1525,0.089068,0.977363,-0.191906,-0.058032,0.211388,0.1094619999999999
1526,0.10615,0.977491,-0.18233,0.054678,0.358523,0.074695
1527,0.12265,0.975849,-0.180765,0.556153,0.474331,-0.073737
1528,0.133474,0.973902,-0.183573,0.679712,0.596197,-0.372015
1529,0.138266,0.972838,-0.185659,0.536829,0.456667,-0.056375
1530,0.139875,0.97209,-0.18835,0.152453,0.215379,0.059169
1531,0.139507,0.972356,-0.187248,-0.010875,0.132518,0.046531
1532,0.138483,0.973656,-0.1811549999999999,-0.018244,0.13192,0.064669
1533,0.138497,0.975357,-0.171751,-0.017204,0.063447,0.106214
1534,0.140717,0.977096,-0.159633,-0.099381,-0.126113,0.134868
1535,0.142695,0.978753,-0.147246,-0.097102,-0.2013329999999999,0.112746
1536,0.142822,0.9801,-0.1378599999999999,-0.092133,-0.261518,0.083935
1537,0.139995,0.981286,-0.132209,-0.1105309999999999,-0.433755,-0.059823
1538,0.134574,0.982531,-0.12854,-0.094413,-0.473956,-0.080384
1539,0.128445,0.983624,-0.126432,-0.079541,-0.512372,-0.095889
1540,0.123319,0.984421,-0.125328,0.028735,-0.491135,-0.089271
1541,0.119458,0.984744,-0.12653,0.057453,-0.468401,-0.076061
1542,0.11656,0.984438,-0.131517,0.223498,-0.2953199999999999,-0.090377
1543,0.115731,0.983332,-0.140228,0.330711,-0.068888,-0.211777
1544,0.117339,0.980864,-0.155361,0.482697,0.202302,-0.183399
1545,0.11825,0.976603,-0.179618,0.461477,-0.0649059999999999,0.043372
1546,0.1166329999999999,0.969054,-0.217555,0.409902,-0.214553,0.2435409999999999
1547,0.106609,0.955688,-0.274398,0.325779,-0.146103,0.323577
1548,0.084988,0.932323,-0.351497,-0.274777,0.763447,-0.168813
1549,0.056739,0.8965850000000001,-0.439221,-0.408027,1.11756,-0.113513
1550,0.024469,0.858339,-0.5124989999999999,-0.564081,0.9989,0.065585
1551,0.00277,0.8245239999999999,-0.56582,-0.5958640000000001,0.519165,-0.0212009999999999
1552,0.013044,0.797326,-0.6034079999999999,-0.396497,0.432395,-0.244965
1553,0.043088,0.7783899999999999,-0.626301,-0.162289,0.50376,-0.1539569999999999
1554,0.072041,0.7649050000000001,-0.6401020000000001,-0.020603,0.388019,-0.117146
1555,0.094897,0.75936,-0.643714,0.091581,0.152872,-0.041681
1556,0.111971,0.766111,-0.632879,0.113019,-0.188108,0.160498
1557,0.1279269999999999,0.783062,-0.608645,0.070849,-0.4650689999999999,0.228717
1558,0.143899,0.805343,-0.575078,-0.0375,-0.504455,0.183889
1559,0.15372,0.8290059999999999,-0.537698,-0.094577,-0.614498,0.1475769999999999
1560,0.152451,0.853817,-0.49775,-0.15033,-0.723233,0.1102829999999999
1561,0.1407769999999999,0.878345,-0.4568279999999999,-0.11824,-0.752368,0.048793
1562,0.123735,0.900432,-0.4170279999999999,-0.068971,-0.646175,0.066716
1563,0.105637,0.919764,-0.3779889999999999,-0.051118,-0.460734,0.1093119999999999
1564,0.087646,0.936808,-0.338688,-0.11029,-0.255609,0.06606
1565,0.070617,0.950424,-0.302831,-0.139175,-0.145813,0.033041
1566,0.057757,0.959309,-0.27639,-0.229098,0.190289,0.091865
1567,0.050671,0.964475,-0.259267,-0.250027,0.091662,0.149541
1568,0.048721,0.968082,-0.245853,-0.329101,-0.012927,0.15839
1569,0.054571,0.972268,-0.2274159999999999,-0.565527,0.093467,0.137297
1570,0.06744,0.976853,-0.203005,-0.569347,0.379257,0.102846
1571,0.080062,0.979771,-0.183408,-0.2420179999999999,0.187603,0.251875
1572,0.090126,0.980115,-0.17678,-0.0120159999999999,-0.089475,0.237815
1573,0.100756,0.977775,-0.183862,0.629057,0.48945,-0.313727
1574,0.115045,0.974763,-0.191315,0.8254309999999999,0.870818,-0.295349
1575,0.124115,0.972536,-0.196899,1.121262,0.994902,-0.250809
1576,0.139026,0.968252,-0.207748,0.419552,0.308771,-0.106522
1577,0.155755,0.964704,-0.212335,0.200934,0.125948,-0.045691
1578,0.161653,0.963642,-0.2127489999999999,0.0910779999999999,0.006359,0.031704
1579,0.157136,0.96472,-0.211243,-0.021928,0.076662,0.070603
1580,0.150013,0.966988,-0.205988,-0.041309,0.113777,0.104807
1581,0.145681,0.969842,-0.195406,-0.097265,0.096,0.153643
1582,0.1436839999999999,0.972593,-0.182804,-0.175544,-0.147413,0.0558809999999999
1583,0.143286,0.974719,-0.171438,-0.146292,-0.198581,-0.0202889999999999
1584,0.142014,0.976422,-0.16258,-0.048829,-0.317456,-0.1152059999999999
1585,0.1368619999999999,0.977819,-0.158552,0.072839,-0.428228,-0.119967
1586,0.129039,0.97907,-0.15739,0.102239,-0.478566,-0.099324
1587,0.120179,0.980609,-0.154798,0.153198,-0.481067,-0.044024
1588,0.111396,0.982162,-0.1514869999999999,0.183526,-0.373596,-0.106173
1589,0.104847,0.983018,-0.150607,0.178478,-0.286592,-0.137189
1590,0.101671,0.982228,-0.157771,0.211226,0.009349,-0.083989
1591,0.098553,0.979466,-0.175879,0.216098,-0.056767,-0.022425
1592,0.091319,0.973563,-0.2093719999999999,0.244969,-0.09902,0.093832
1593,0.077948,0.962234,-0.260825,-0.042624,0.174592,0.072242
1594,0.0585,0.942005,-0.330461,-0.235746,0.693051,-0.065336
1595,0.036652,0.912777,-0.406812,-0.287582,0.872029,0.013913
1596,0.013202,0.882459,-0.470203,-0.4911069999999999,0.645785,0.203785
1597,0.00261,0.855176,-0.518331,-0.367585,0.429583,-0.0655159999999999
1598,0.012504,0.8303659999999999,-0.557077,-0.270042,0.396929,-0.22875
1599,0.034227,0.809713,-0.5858270000000001,-0.210405,0.526392,-0.28104
1600,0.056614,0.793068,-0.6064970000000001,-0.088474,0.5335770000000001,-0.206781
1601,0.070153,0.7842100000000001,-0.616518,-0.035286,0.116654,-0.000304
1602,0.079949,0.786497,-0.6123970000000001,0.026481,-0.33708,0.309083
1603,0.093348,0.7985760000000001,-0.594611,0.054403,-0.617225,0.4666659999999999
1604,0.106582,0.816435,-0.567516,-0.126953,-0.594206,0.301616
1605,0.112857,0.838987,-0.53232,-0.086688,-0.64491,0.1565109999999999
1606,0.111679,0.864849,-0.489454,-0.056885,-0.823909,0.024274
1607,0.103887,0.891942,-0.440054,-0.054647,-0.857793,-0.046976
1608,0.092935,0.916954,-0.388018,0.08721,-0.777138,-0.070493
1609,0.0810309999999999,0.938531,-0.33555,0.093377,-0.5770649999999999,-0.0613
1610,0.0701779999999999,0.957005,-0.281454,0.120084,-0.470341,-0.11085
1611,0.061124,0.971509,-0.228985,-0.165448,0.574893,-0.091876
1612,0.054692,0.977743,-0.202551,-0.535771,0.935678,0.10285
1613,0.055074,0.97541,-0.213409,-0.478139,0.703561,0.116225
1614,0.064568,0.972146,-0.2253079999999999,-0.430535,0.2629309999999999,0.209821
1615,0.0861919999999999,0.973848,-0.210216,-0.039698,-0.483431,0.142299
1616,0.099143,0.975263,-0.197568,0.010125,-0.44473,0.085508
1617,0.103052,0.973522,-0.204045,0.120886,-0.308392,-0.051784
1618,0.1009559999999999,0.972848,-0.2082639999999999,0.6493800000000001,1.510932,-0.831515
1619,0.097363,0.9732,-0.208331,0.908862,1.511541,-0.601117
1620,0.109453,0.971707,-0.2093,0.69258,0.4752229999999999,-0.033162
1621,0.116803,0.970963,-0.208777,0.280307,-0.030869,0.056586
1622,0.116002,0.971923,-0.204719,0.2813219999999999,-0.1801589999999999,0.109168
1623,0.109475,0.974023,-0.1982259999999999,0.297629,-0.176843,0.110885
1624,0.102583,0.9762,-0.191076,0.057557,-0.1365549999999999,0.137686
1625,0.096133,0.978668,-0.181568,-0.111041,-0.140869,0.106449
1626,0.0930179999999999,0.981371,-0.168104,-0.182557,-0.153108,0.02458
1627,0.093259,0.983782,-0.153216,-0.2444889999999999,-0.2315699999999999,-0.153501
1628,0.092266,0.986009,-0.1388309999999999,-0.203747,-0.279893,-0.119226
1629,0.085733,0.987993,-0.128528,0.00617,-0.358583,-0.018826
1630,0.075241,0.989441,-0.123879,0.214203,-0.425567,-0.00251
1631,0.06343,0.990467,-0.122276,0.310044,-0.4740029999999999,-0.0841
1632,0.051548,0.990389,-0.128346,0.3543969999999999,-0.347765,-0.1180529999999999
1633,0.035025,0.988177,-0.149263,0.356805,-0.12691,0.025285
1634,0.010978,0.982171,-0.18767,0.291467,-0.104058,0.298311
1635,-0.021185,0.971485,-0.236151,0.018453,0.054699,0.283071
1636,-0.057397,0.950465,-0.305486,-0.130439,0.4279989999999999,0.090306
1637,-0.086505,0.923799,-0.372977,-0.36955,0.794508,-0.020181
1638,-0.104242,0.9000530000000001,-0.4231279999999999,-0.571829,0.449343,0.029101
1639,-0.096583,0.8819819999999999,-0.461281,-0.488576,0.234626,-0.168892
1640,-0.0602049999999999,0.8685870000000001,-0.4918659999999999,-0.309668,0.306202,-0.264772
1641,-0.012713,0.859244,-0.511407,0.099673,0.609857,-0.453681
1642,0.0284019999999999,0.8524729999999999,-0.521998,0.315684,0.476216,-0.446034
1643,0.053959,0.852131,-0.5205390000000001,0.315685,-0.058338,-0.253142
1644,0.072361,0.860671,-0.503993,0.392727,-0.395187,0.092997
1645,0.081578,0.872275,-0.482163,0.355296,-0.523474,0.22519
1646,0.0804769999999999,0.8838159999999999,-0.4608609999999999,-0.037218,-0.63052,0.312576
1647,0.069977,0.8958450000000001,-0.4388229999999999,-0.04097,-0.624116,0.306758
1648,0.052421,0.908275,-0.4150779999999999,-0.006523,-0.5947680000000001,0.266106
1649,0.030335,0.921842,-0.386376,-0.048813,-0.566404,0.156945
1650,0.007205,0.937848,-0.346972,-0.1463799999999999,-0.568753,0.035647
1651,-0.0133099999999999,0.955115,-0.295935,-0.2430679999999999,-0.45153,-0.044244
1652,-0.028854,0.969768,-0.2423159999999999,-0.339203,-0.1077839999999999,-0.056558
1653,-0.040177,0.97822,-0.203645,-0.351074,0.286077,-0.063811
1654,-0.048906,0.97945,-0.195667,-0.400419,0.530239,-0.116772
1655,-0.052163,0.975848,-0.212131,-0.260947,0.596204,-0.393872
1656,-0.043798,0.967329,-0.249713,-0.4858949999999999,0.739336,-0.46745
1657,-0.023986,0.954736,-0.296486,-0.0583039999999999,0.7502810000000001,0.0839309999999999
1658,-0.003724,0.942808,-0.333316,0.107041,-0.649107,0.402301
1659,0.013799,0.937252,-0.348379,0.18278,-0.376156,0.2437949999999999
1660,0.022557,0.936031,-0.351194,0.5791430000000001,-0.294689,1.075926
1661,0.034907,0.940388,-0.338308,0.715993,-0.089649,1.173314
1662,0.022061,0.947909,-0.317778,1.26163,2.16847,-0.5739920000000001
1663,0.0094939999999999,0.959216,-0.282514,0.551038,0.7572300000000001,-0.030978
1664,0.008277,0.966231,-0.2575429999999999,0.136758,-0.092803,0.2240349999999999
1665,0.011447,0.971982,-0.2347769999999999,-0.383013,0.071689,0.1383569999999999
1666,0.007843,0.978132,-0.207839,-0.432785,0.078341,0.072798
1667,-0.000433,0.98352,-0.180801,-0.319284,0.083756,0.064986
1668,-0.005944,0.988391,-0.151816,-0.117881,-0.074969,0.068488
1669,-0.008582,0.99222,-0.124204,-0.029947,-0.2550679999999999,0.040799
1670,-0.01253,0.994805,-0.1010269999999999,0.010699,-0.385552,0.042067
1671,-0.019219,0.996504,-0.081309,0.097893,-0.466184,0.085245
1672,-0.029811,0.99763,-0.0620159999999999,0.186213,-0.499034,0.165181
1673,-0.043878,0.998196,-0.040983,0.251901,-0.475247,0.140516
1674,-0.059641,0.998085,-0.0164139999999999,0.303919,-0.332344,0.014599
1675,-0.0758409999999999,0.997064,0.010605,0.3531849999999999,-0.0900509999999999,-0.08043
1676,-0.090976,0.995245,0.034795,0.36832,-0.088232,-0.104619
1677,-0.103169,0.993201,0.053925,0.241413,0.242913,-0.2307739999999999
1678,-0.109124,0.991566,0.069918,0.190239,0.10783,-0.279055
1679,-0.1131079999999999,0.990301,0.080683,0.296321,0.127619,-0.2460429999999999
1680,-0.118775,0.989102,0.087,0.445939,0.22951,-0.303446
1681,-0.126998,0.987739,0.090796,0.51065,0.319009,-0.350149
1682,-0.133596,0.987012,0.089212,0.5848140000000001,0.422808,-0.285378
1683,-0.135688,0.988061,0.072961,0.436287,0.572547,0.087531
1684,-0.129098,0.990832,0.03981,0.418282,0.238812,0.147568
1685,-0.116196,0.993218,-0.003939,0.093537,0.019126,0.215075
1686,-0.10006,0.993457,-0.05506,-0.031425,0.180966,0.061149
1687,-0.087619,0.989859,-0.111812,-0.063107,0.4796229999999999,0.22633
1688,-0.078608,0.981893,-0.172355,0.043207,0.870798,0.425925
1689,-0.070845,0.969509,-0.234591,0.0308829999999999,0.496952,0.234759
1690,-0.0548539999999999,0.955695,-0.289201,0.139845,0.3045739999999999,0.027574
1691,-0.030832,0.941536,-0.335498,0.154382,0.325401,0.021991
1692,-0.0066,0.92609,-0.377244,0.3290639999999999,0.298794,0.113679
1693,0.010375,0.910401,-0.413597,0.3629469999999999,0.2878719999999999,0.260719
1694,0.018168,0.894843,-0.446011,0.312276,0.151452,0.362225
1695,0.014522,0.8801399999999999,-0.474492,0.2149239999999999,-0.153989,0.490514
1696,-0.0048119999999999,0.8708389999999999,-0.491544,0.2237449999999999,-0.33875,0.6727270000000001
1697,-0.0300959999999999,0.866196,-0.4987979999999999,0.2372949999999999,-0.386414,0.717029
1698,-0.055089,0.864434,-0.4997189999999999,0.001455,-0.4647449999999999,0.585214
1699,-0.074104,0.866742,-0.493221,-0.101113,-0.402096,0.4530909999999999
1700,-0.084937,0.873994,-0.4784569999999999,-0.106652,-0.374772,0.396029
1701,-0.089103,0.8848309999999999,-0.457312,-0.153329,-0.263005,0.2737179999999999
1702,-0.087338,0.897776,-0.431706,-0.211918,-0.184382,0.202336
1703,-0.0820559999999999,0.910773,-0.404673,-0.266211,-0.137625,0.160288
1704,-0.072603,0.922072,-0.380148,-0.418775,0.211839,0.132101
1705,-0.055402,0.930921,-0.360994,-0.461032,0.481951,0.017686
1706,-0.030919,0.936393,-0.349587,-0.159678,0.477806,-0.089774
1707,-0.0074519999999999,0.93684,-0.349679,-0.047678,0.414387,-0.135733
1708,0.006889,0.931012,-0.364925,0.042244,0.098514,-0.196141
1709,0.0105519999999999,0.921879,-0.387334,0.164467,-0.430714,-0.316386
1710,0.008241,0.915357,-0.40256,0.449752,-0.4383359999999999,-0.311277
1711,0.007867,0.913297,-0.407217,0.53475,-0.208738,-0.400308
1712,0.02335,0.912926,-0.407457,0.738658,0.567619,-0.197707
1713,0.040199,0.911103,-0.410214,0.940956,1.3324280000000002,0.339475
1714,0.066487,0.916928,-0.393476,0.1203109999999999,0.258304,0.7710239999999999
1715,0.083829,0.927805,-0.363526,-0.352719,-0.115442,0.4626159999999999
1716,0.074797,0.934496,-0.348027,-0.371062,-0.350893,0.00063
1717,0.0440459999999999,0.94235,-0.331716,-0.012399,-0.660749,0.243414
1718,0.015182,0.950041,-0.311755,0.206254,-0.51686,0.354662
1719,-0.01053,0.958374,-0.285323,0.552766,0.214157,0.6045520000000001
1720,-0.033713,0.965901,-0.256706,0.372061,0.537242,0.4615859999999999
1721,-0.04303,0.973297,-0.2254789999999999,-0.0505069999999999,0.480835,0.10234
1722,-0.038651,0.98081,-0.191097,-0.174224,0.111475,-0.1929519999999999
1723,-0.039041,0.985963,-0.162333,-0.091696,-0.250032,-0.155492
1724,-0.046714,0.989259,-0.138509,0.220878,-0.2831579999999999,0.0288439999999999
1725,-0.0546409999999999,0.991841,-0.115176,0.4222399999999999,-0.218236,0.122088
1726,-0.059208,0.994336,-0.088257,0.3548159999999999,-0.2367989999999999,0.1008309999999999
1727,-0.062104,0.99635,-0.0585549999999999,0.26024,-0.290036,0.0692059999999999
1728,-0.066276,0.997482,-0.025246,0.26905,-0.261367,0.0866929999999999
1729,-0.0700679999999999,0.997482,0.010925,0.2243349999999999,0.014831,0.008927
1730,-0.074706,0.996156,0.045751,0.208037,0.071365,-0.087911
1731,-0.07781,0.994384,0.071742,0.1041619999999999,0.115052,-0.22024
1732,-0.077957,0.993565,0.0821679999999999,0.078125,0.201977,-0.365676
1733,-0.076711,0.994027,0.077621,0.165975,0.194297,-0.260833
1734,-0.074016,0.995397,0.060875,0.253032,0.138773,-0.215477
1735,-0.06962,0.996818,0.03881,0.401285,0.058647,0.097909
1736,-0.065081,0.997873,0.003797,0.427218,0.263602,0.108904
1737,-0.058772,0.997301,-0.044016,0.378017,0.3374769999999999,-0.1035359999999999
1738,-0.051223,0.993494,-0.101714,-0.01857,0.285864,0.204772
1739,-0.047722,0.984172,-0.170668,-0.266426,0.53513,0.224273
1740,-0.050718,0.969222,-0.2409079999999999,-0.430834,0.859224,0.305804
1741,-0.053957,0.949794,-0.308187,-0.3396119999999999,0.6185350000000001,0.345464
1742,-0.043548,0.929294,-0.366766,-0.021942,0.469846,0.263082
1743,-0.020062,0.910746,-0.412479,0.172848,0.339086,0.142048
1744,0.009476,0.893739,-0.4484869999999999,0.2827139999999999,0.379744,0.1019299999999999
1745,0.03482,0.877726,-0.477897,0.247712,0.319021,0.161902
1746,0.060637,0.861604,-0.503946,0.0370029999999999,0.0036,0.272135
1747,0.0900919999999999,0.8490639999999999,-0.520552,-0.035664,-0.2121469999999999,0.258909
1748,0.099277,0.84298,-0.528705,-0.165744,-0.309136,0.366306
1749,0.082089,0.8385450000000001,-0.538612,-0.154187,-0.5038590000000001,0.4061659999999999
1750,0.056063,0.836669,-0.5448310000000001,-0.095339,-0.66452,0.386781
1751,0.03131,0.840749,-0.540519,-0.05786,-0.662664,0.3004219999999999
1752,0.011375,0.851497,-0.524237,0.004372,-0.573695,0.215261
1753,-0.001782,0.865087,-0.5016189999999999,0.023571,-0.579076,0.144533
1754,-0.008525,0.878583,-0.477513,-0.012562,-0.59538,0.105
1755,-0.008805,0.892516,-0.4509289999999999,-0.057464,-0.6190939999999999,0.119874
