,gravity.x,gravity.y,gravity.z,userAcceleration.x,userAcceleration.y,userAcceleration.z
0,-0.1034099999999999,0.839742,0.533039,0.393342,-0.419683,-0.25121
1,-0.100142,0.852914,0.5123489999999999,0.304991,-0.676491,-0.332036
2,-0.084327,0.869554,0.486576,-0.054848,-0.648516,-0.130527
3,-0.0596019999999999,0.88871,0.454571,-0.169463,-0.635826,-0.069866
4,-0.031472,0.909155,0.415258,-0.254569,-0.56423,-0.032506
5,-0.0038469999999999,0.927588,0.3735739999999999,-0.15959,0.050485,-0.082436
6,0.021963,0.942587,0.333226,-0.1854,0.035486,-0.042088
7,0.041238,0.95365,0.298068,0.265113,0.1492099999999999,-0.032992
8,0.051861,0.961363,0.270343,0.361363,-0.1097549999999999,0.041486
9,0.0540429999999999,0.966549,0.250711,0.327808,-0.08334,0.086874
10,0.044716,0.970522,0.236815,0.1796039999999999,0.017363,0.2215889999999999
11,0.026726,0.974922,0.220923,0.023674,-0.170372,-0.195135
12,0.0191919999999999,0.975792,0.2178429999999999,0.133914,0.129235,-0.189339
13,0.018009,0.971996,0.234292,-0.081455,0.583287,-0.03547
14,0.0115599999999999,0.973393,0.2288349999999999,0.00669,0.540126,-0.36537
15,0.001176,0.974387,0.224861,-0.0262,0.995523,0.113624
16,-0.01085,0.972042,0.2345429999999999,-0.309203,0.505757,0.128387
17,-0.034183,0.972776,0.2291989999999999,0.196689,-0.393522,-0.455914
18,-0.038822,0.972325,0.23037,0.194492,-0.448552,-0.59797
19,-0.029983,0.971282,0.236021,0.055892,-0.466705,-0.0703559999999999
20,-0.014394,0.970625,0.240154,0.1037339999999999,-0.214583,0.080235
21,-0.0002399999999999,0.972561,0.2326369999999999,0.253398,-0.076,-0.0643779999999999
22,0.008091,0.976003,0.217592,0.094997,-0.027013,0.283598
23,0.011363,0.978421,0.2062949999999999,-0.112193,0.107913,0.324421
24,0.007416,0.979976,0.198964,-0.203644,-0.050242,-0.1052599999999999
25,0.004349,0.979483,0.201463,-0.073715,-0.517737,-0.092546
26,0.0046619999999999,0.97777,0.209616,-0.077081,-0.5895859999999999,-0.009207
27,0.007351,0.97488,0.2225929999999999,-0.149166,-0.062084,0.132128
28,0.0064629999999999,0.970406,0.241378,-0.257348,0.237754,-0.104247
29,-0.000325,0.961842,0.273592,-0.219767,0.569652,0.020964
30,-0.014693,0.948105,0.317607,0.052688,0.700653,0.183522
31,-0.034343,0.928586,0.369517,0.306346,0.668979,0.093878
32,-0.055915,0.905046,0.421614,0.4304729999999999,0.566634,0.042147
33,-0.072655,0.879916,0.469533,0.4766319999999999,0.108747,-0.094121
34,-0.078186,0.858166,0.507376,0.301621,0.075123,-0.032934
35,-0.079571,0.8429840000000001,0.532013,0.008511,0.058536,-0.024231
36,-0.079148,0.8335610000000001,0.546721,0.05925,0.142666,-0.069472
37,-0.080927,0.8299,0.552005,0.188913,0.084361,-0.106799
38,-0.084495,0.833058,0.546686,0.311561,-0.165135,-0.166605
39,-0.085768,0.8429469999999999,0.531108,0.349806,-0.308294,-0.158274
40,-0.079315,0.8570559999999999,0.509074,0.306473,-0.544098,-0.294672
41,-0.061074,0.872908,0.484039,0.074807,-0.588728,-0.228394
42,-0.034158,0.889292,0.456055,-0.130118,-0.669489,-0.1095119999999999
43,-0.002035,0.906202,0.42283,-0.18609,-0.660551,-0.087777
44,0.031966,0.921866,0.38618,-0.057525,-0.029532,-0.232157
45,0.0666559999999999,0.93404,0.350883,0.0094849999999999,0.066067,-0.093452
46,0.0963789999999999,0.942502,0.31999,0.072597,0.13309,0.01874
47,0.1155,0.94901,0.2933119999999999,0.251626,-0.094594,0.1910329999999999
48,0.122098,0.955221,0.269513,0.299457,-0.109457,0.245731
49,0.121119,0.960293,0.251318,0.328588,0.074055,0.435404
50,0.109892,0.964159,0.241482,0.2433179999999999,0.261854,0.370503
51,0.089583,0.97021,0.225079,0.2305469999999999,-0.035731,-0.647015
52,0.085375,0.973777,0.210864,0.26959,0.0526509999999999,-0.452517
53,0.095704,0.971484,0.216919,-0.180176,0.272855,0.323425
54,0.095772,0.972945,0.2102369999999999,-0.248665,0.258866,-0.068025
55,0.087671,0.976351,0.197602,0.127646,0.780561,-0.206864
56,0.08108,0.97507,0.20654,-0.1034799999999999,1.557752,0.730884
57,0.0596549999999999,0.973768,0.219571,-0.38865,0.178774,0.105502
58,0.046294,0.973494,0.223966,0.1027839999999999,-0.517546,-0.554654
59,0.046462,0.974224,0.2207329999999999,-0.0398699999999999,-0.7466689999999999,-0.568771
60,0.0565419999999999,0.97512,0.214332,-0.076303,-0.305396,-0.079948
61,0.067225,0.975349,0.210163,0.019826,0.559426,0.274379
62,0.0692,0.977048,0.201451,0.051192,0.388003,0.224833
63,0.068335,0.97908,0.191641,0.0053799999999999,-0.2164,0.097971
64,0.069363,0.980043,0.186275,-0.120449,-0.2050179999999999,0.23473
65,0.070363,0.980018,0.186029,-0.092045,-0.084342,0.045249
66,0.0716649999999999,0.978624,0.192749,-0.218455,-0.093599,0.081695
67,0.0719149999999999,0.975293,0.208863,-0.121796,-0.156156,0.10762
68,0.070865,0.970556,0.230198,-0.02666,-0.215582,0.031277
69,0.069853,0.963806,0.257275,-0.099608,-0.165176,-0.2119869999999999
70,0.068039,0.953711,0.292913,-0.1030119999999999,0.061334,-0.080083
71,0.059854,0.938341,0.34048,-0.03016,0.362669,0.061986
72,0.044383,0.920464,0.38829,0.229116,0.365654,-0.070739
73,0.025767,0.901538,0.4319229999999999,0.382146,0.192228,-0.15052
74,0.011026,0.881972,0.4711619999999999,0.398993,0.186082,-0.142519
75,-0.001035,0.8643139999999999,0.502942,0.087033,0.071447,-0.203763
76,-0.0148759999999999,0.850784,0.525296,0.089568,0.1209269999999999,-0.113019
77,-0.029217,0.8404889999999999,0.541029,0.166805,0.406627,0.088762
78,-0.037949,0.836938,0.545971,0.125992,0.407157,-0.012661
79,-0.038604,0.8401639999999999,0.5409470000000001,0.171508,-0.151581,-0.087562
80,-0.035119,0.851153,0.5237310000000001,0.155282,-0.460345,-0.150563
81,-0.026248,0.8681610000000001,0.4955779999999999,0.062228,-0.523511,-0.118029
82,-0.009831,0.887415,0.460856,-0.023266,-0.584055,-0.011866
83,0.013085,0.9069,0.421131,-0.21415,-0.4997189999999999,-0.149861
84,0.045208,0.924341,0.378867,-0.144802,-0.253153,-0.199408
85,0.083884,0.937621,0.337373,-0.089789,-0.03572,-0.266908
86,0.123726,0.946218,0.2989219999999999,0.441581,0.27096,-0.220034
87,0.159868,0.95271,0.258413,0.45529,0.0405149999999999,-0.02242
88,0.185078,0.95778,0.219992,0.40736,-0.279069,0.2158909999999999
89,0.1965839999999999,0.960667,0.196125,-0.280309,-0.702153,0.459576
90,0.196459,0.96277,0.18566,-0.533846,-0.680238,0.15867
91,0.184112,0.966706,0.177694,-0.543121,-0.675797,-0.274465
92,0.18123,0.967232,0.177792,0.1398309999999999,0.942741,0.404072
93,0.182304,0.963725,0.194913,-0.084739,1.524251,0.701434
94,0.163496,0.966305,0.198784,-0.39955,1.086201,-0.058648
95,0.133121,0.970441,0.20128,-0.011859,-0.084989,-0.09427
96,0.116766,0.972284,0.202533,0.1086819999999999,0.068655,-0.27428
97,0.1099,0.974347,0.196368,-0.272528,0.168735,-0.215106
98,0.106941,0.975831,0.190543,-0.149574,0.042373,-0.0638649999999999
99,0.111783,0.977089,0.181086,0.086627,-0.118904,-0.0796149999999999
100,0.1242,0.976639,0.175332,0.278129,-0.12735,-0.045266
101,0.1435,0.97471,0.171282,0.373773,-0.098993,0.254728
102,0.164288,0.972627,0.164303,-0.0275079999999999,0.070235,0.285098
103,0.181054,0.970945,0.15644,-0.344552,0.252245,0.213738
104,0.193244,0.969338,0.151756,-0.45298,0.154106,0.089287
105,0.2053289999999999,0.966781,0.152196,-0.463996,0.083115,0.078929
106,0.2211199999999999,0.962413,0.157659,-0.358861,-0.033259,0.001216
107,0.238834,0.955939,0.170666,-0.363712,0.125161,-0.099682
108,0.2510159999999999,0.947669,0.197237,-0.290201,0.322366,0.039152
109,0.254191,0.937989,0.2356929999999999,0.17835,0.701171,0.3388
110,0.243752,0.927882,0.282148,0.203391,0.5710350000000001,0.0340139999999999
111,0.222344,0.917259,0.330434,0.278114,0.468621,-0.286427
112,0.196425,0.906224,0.374382,0.265627,0.7456470000000001,-0.170494
113,0.16987,0.897689,0.406553,0.109,0.853852,-0.2405219999999999
114,0.147411,0.890383,0.430666,-0.349361,0.681821,-0.278291
115,0.125947,0.8823479999999999,0.453414,-0.218446,0.398429,-0.206969
116,0.105695,0.8787659999999999,0.465387,0.028155,0.116764,-0.392893
117,0.092752,0.878352,0.468914,0.266348,-0.066737,-0.469707
118,0.091322,0.876762,0.4721579999999999,0.293948,-0.16288,-0.360296
119,0.093959,0.875758,0.473502,0.048116,-0.245006,-0.476707
120,0.105564,0.871765,0.4784,-0.0305819999999999,-0.286193,-0.44831
121,0.125353,0.8659950000000001,0.48407,0.1051309999999999,-0.331861,-0.337128
122,0.148438,0.861577,0.4854229999999999,0.2127369999999999,-0.272648,-0.178096
123,0.168769,0.8613940000000001,0.479064,0.216607,-0.223363,-0.095763
124,0.183943,0.8663799999999999,0.464257,0.078982,-0.163011,-0.067117
125,0.198073,0.872569,0.446514,-0.052459,-0.0438949999999999,-0.1462369999999999
126,0.216381,0.8756149999999999,0.431813,-0.101009,0.022838,-0.155522
127,0.237065,0.8743489999999999,0.423438,-0.090398,-0.053197,-0.104804
128,0.257632,0.870074,0.420214,-0.038013,-0.0282779999999999,0.055784
129,0.278656,0.865569,0.416084,-0.078979,0.029832,0.096322
130,0.296016,0.8628,0.409797,-0.218821,0.231987,0.1682519999999999
131,0.309589,0.860124,0.40537,-0.253986,0.293471,0.237834
132,0.317078,0.85777,0.404568,-0.240006,0.275226,0.162418
133,0.310558,0.860181,0.404507,-0.200603,0.165332,-0.014661
134,0.298185,0.8658110000000001,0.4017969999999999,0.152865,0.1451599999999999,-0.09447
135,0.284051,0.872793,0.396902,0.2089909999999999,0.210703,-0.232153
136,0.266047,0.8805059999999999,0.392317,0.29807,0.36513,-0.382017
137,0.2534639999999999,0.887123,0.385686,-0.0387879999999999,-0.1217569999999999,-0.126897
138,0.256372,0.8884,0.380794,-0.087549,-0.281451,-0.193798
139,0.264085,0.886387,0.380214,-0.109743,-0.366001,-0.4374649999999999
140,0.2837449999999999,0.884851,0.369477,-0.110466,0.457068,-0.564332
141,0.307838,0.884473,0.350612,-0.227608,0.565005,-0.391551
142,0.325094,0.8852459999999999,0.332627,-0.233114,0.466424,-0.273484
143,0.335083,0.888395,0.313784,-0.1599269999999999,0.031984,-0.157137
144,0.343089,0.8924489999999999,0.292936,-0.154338,0.046119,-0.2679269999999999
145,0.352231,0.895934,0.270598,-0.064725,0.024446,-0.263655
146,0.361792,0.8989790000000001,0.246844,0.1091859999999999,-0.12014,-0.067355
147,0.368777,0.90246,0.2226179999999999,0.098219,-0.141763,-0.057503
148,0.3755469999999999,0.904935,0.200114,-0.142164,-0.0072299999999999,-0.084148
149,0.3819619999999999,0.906605,0.17934,-0.2468449999999999,0.1376609999999999,-0.108219
150,0.387216,0.907977,0.160096,-0.25477,0.129147,-0.1058349999999999
151,0.391892,0.908779,0.14329,-0.194749,-0.0305279999999999,0.067617
152,0.395748,0.909734,0.125533,-0.176113,-0.032811,0.139939
153,0.4002,0.910326,0.105529,-0.193855,-0.025362,0.14534
154,0.405992,0.910036,0.0836399999999999,-0.2660079999999999,0.060453,0.0533679999999999
155,0.4128159999999999,0.908705,0.061887,-0.221761,0.128221,0.077899
156,0.4208449999999999,0.906252,0.039865,-0.249489,0.107618,0.105445
157,0.42828,0.90343,0.01959,-0.276073,0.107541,0.080095
158,0.4326689999999999,0.901541,0.0037909999999999,-0.237371,0.083399,-0.074149
159,0.434325,0.900683,-0.011167,-0.2373489999999999,0.117948,-0.170702
160,0.43354,0.900776,-0.025265,-0.2313309999999999,0.160107,0.019161
161,0.4300819999999999,0.902063,-0.0361149999999999,-0.172284,0.172537,0.129743
162,0.4254489999999999,0.904009,-0.041866,-0.146107,0.39398,0.105404
163,0.420492,0.906425,-0.039659,-0.227605,0.596352,0.1462109999999999
164,0.413337,0.910275,-0.023331,-0.382926,0.6611819999999999,-0.004028
165,0.401202,0.915967,0.005863,-0.318774,0.576129,-0.009922
166,0.386748,0.921175,0.043061,-0.111144,0.347807,0.297759
167,0.373865,0.922418,0.0967539999999999,0.034399,0.0850279999999999,0.042711
168,0.366796,0.917117,0.156038,0.121424,0.019742,-0.312639
169,0.358565,0.909798,0.209021,-0.157088,-0.075172,-0.426199
170,0.344288,0.902998,0.257002,-0.463093,0.162706,-0.303556
171,0.330124,0.8955299999999999,0.298387,-0.390258,0.365121,-0.320711
172,0.316866,0.8904639999999999,0.326586,-0.1376359999999999,0.82795,-0.262667
173,0.298801,0.8891,0.34671,0.017346,0.4636979999999999,-0.3653099999999999
174,0.279947,0.888401,0.363817,0.091025,0.129619,-0.373796
175,0.265351,0.8857389999999999,0.380848,0.2303,-0.2510489999999999,-0.301777
176,0.253735,0.883266,0.3942719999999999,0.0666539999999999,-0.376277,-0.365921
177,0.25005,0.8805,0.4027199999999999,-0.084797,-0.425392,-0.3018139999999999
178,0.252128,0.878114,0.406617,-0.082069,-0.338013,-0.275559
179,0.258573,0.876625,0.405781,-0.0153479999999999,-0.3418199999999999,-0.390446
180,0.271936,0.875418,0.399606,0.020102,-0.424963,-0.276819
181,0.291408,0.8755459999999999,0.385346,0.020146,-0.288357,-0.075318
182,0.313896,0.877626,0.362262,-0.085396,-0.091981,0.15669
183,0.334983,0.8805280000000001,0.335333,-0.133719,0.1958119999999999,0.355569
184,0.353238,0.8812129999999999,0.314132,-0.098493,0.378232,0.505555
185,0.362527,0.878934,0.309906,-0.36889,0.179858,0.325684
186,0.363485,0.875866,0.317378,-0.414587,-0.0033539999999999,0.265188
187,0.356157,0.876249,0.324547,-0.410448,-0.210615,0.169425
188,0.337669,0.8786459999999999,0.337568,0.038917,0.5311899999999999,-0.917234
189,0.311616,0.884001,0.348467,0.278701,0.691331,-0.8256399999999999
190,0.301818,0.891467,0.337912,-0.103698,-0.045825,-0.442404
191,0.291722,0.895603,0.335836,0.069728,-0.512409,-0.214071
192,0.297494,0.8936540000000001,0.335964,0.1535099999999999,-0.088371,-0.290524
193,0.319368,0.8908520000000001,0.323078,0.1390829999999999,0.4862229999999999,-0.449558
194,0.341973,0.885653,0.314113,0.112785,0.471067,0.036016
195,0.35575,0.884015,0.303235,-0.126441,0.032382,0.243228
196,0.358828,0.8884209999999999,0.28626,-0.211306,0.028724,-0.078526
197,0.360588,0.895352,0.26137,-0.288033,0.090198,-0.163241
198,0.362875,0.90045,0.239804,-0.302694,0.028017,0.000125
199,0.362645,0.90489,0.2228369999999999,-0.2229809999999999,-0.1184369999999999,0.038698
200,0.361007,0.909022,0.208197,-0.190764,-0.163936,-0.02146
201,0.360576,0.91167,0.197068,-0.274059,-0.2438699999999999,0.086685
202,0.360243,0.913666,0.188236,-0.340589,-0.278748,0.239117
203,0.3574989999999999,0.915329,0.185369,-0.302811,-0.123458,0.205393
204,0.350928,0.916313,0.192909,-0.222876,-0.0268629999999999,0.002403
205,0.341939,0.917313,0.203981,-0.206395,-0.086884,0.067122
206,0.333036,0.916777,0.220455,-0.162962,-0.246946,0.221256
207,0.326719,0.914343,0.2392159999999999,-0.178144,-0.379569,0.001568
208,0.322218,0.911563,0.255386,-0.2476789999999999,-0.39992,-0.026504
209,0.320484,0.908046,0.269696,-0.303211,-0.128291,-0.023908
210,0.318331,0.903696,0.286342,-0.405031,0.347448,0.1486559999999999
211,0.311451,0.899236,0.307191,-0.602222,0.535945,-0.211838
212,0.2953929999999999,0.8944219999999999,0.335775,-0.571288,0.681766,-0.085379
213,0.270439,0.8858799999999999,0.376924,-0.334342,0.703216,-0.116792
214,0.245675,0.873341,0.420608,0.406516,0.234386,-0.19873
215,0.221821,0.8585510000000001,0.462254,0.566479,-0.066482,-0.310582
216,0.208507,0.8437870000000001,0.49451,0.374394,-0.158698,-0.0569029999999999
217,0.200006,0.8345670000000001,0.51331,0.032477,-0.149005,0.047573
218,0.190325,0.833117,0.519311,0.075956,0.275328,-0.203683
219,0.1806579999999999,0.834628,0.5203369999999999,0.0902159999999999,0.345731,-0.246396
220,0.169506,0.8403639999999999,0.514827,0.139256,0.015074,-0.235835
221,0.166523,0.8505370000000001,0.498847,0.168987,-0.434171,-0.171103
222,0.173768,0.862815,0.474706,0.085937,-0.492576,-0.077687
223,0.188465,0.876403,0.443159,-0.024693,-0.57521,0.096651
224,0.2051619999999999,0.891602,0.4036659999999999,-0.138939,-0.6573180000000001,0.10227
225,0.220896,0.905843,0.3614489999999999,-0.183954,-0.5682119999999999,-0.037917
226,0.243362,0.914317,0.323717,-0.216446,-0.386424,-0.20218
227,0.272898,0.91566,0.295104,0.225698,0.272984,-0.197768
228,0.301511,0.915272,0.267135,0.257617,0.223583,-0.0996539999999999
229,0.317606,0.917605,0.239,0.238775,0.072736,0.0224289999999999
230,0.318272,0.924055,0.211703,-0.258061,-0.0066359999999999,0.187635
231,0.306537,0.933071,0.188168,-0.3689909999999999,-0.025524,0.37656
232,0.285505,0.943278,0.16943,-0.429106,-0.024562,0.466342
233,0.266231,0.949816,0.164209,-0.157421,0.717542,0.187201
234,0.251523,0.950265,0.183649,-0.2093469999999999,0.368201,-0.064508
235,0.239855,0.951555,0.192372,0.163877,1.039,0.577449
236,0.2335199999999999,0.944886,0.229462,0.276032,0.979796,0.1856539999999999
237,0.223502,0.944329,0.241421,0.061853,-0.2504969999999999,-0.449597
238,0.2147659999999999,0.946515,0.2407889999999999,-0.133544,-0.491925,-0.333807
239,0.210114,0.948579,0.236736,-0.039857,0.064497,0.044133
240,0.212686,0.949518,0.2305969999999999,-0.006051,0.13555,0.0289399999999999
241,0.218766,0.949704,0.224051,-0.103684,0.201282,0.247019
242,0.227513,0.947888,0.223029,-0.0536549999999999,0.3690989999999999,0.47088
243,0.233475,0.946453,0.222957,-0.013169,0.0461,0.308019
244,0.236569,0.944271,0.228871,-0.1302299999999999,-0.274456,0.254603
245,0.240555,0.940745,0.239012,-0.271439,-0.34202,0.036867
246,0.244255,0.934799,0.257848,-0.315254,-0.138015,0.005809
247,0.243029,0.926066,0.288677,-0.334063,-0.022715,-0.0059619999999999
248,0.235328,0.914025,0.330414,-0.20243,0.058036,-0.110687
249,0.223701,0.895849,0.383937,-0.012031,0.2157079999999999,-0.158901
250,0.211102,0.872325,0.4409979999999999,0.237903,0.207188,-0.2541239999999999
251,0.201145,0.84845,0.489559,0.486386,-0.007629,-0.345226
252,0.192546,0.829325,0.5245380000000001,0.176045,-0.273783,-0.007388
253,0.182754,0.8140310000000001,0.551316,-0.003341,-0.1138359999999999,0.098083
254,0.171573,0.806362,0.565983,0.012555,0.194569,-0.1078079999999999
255,0.158289,0.805028,0.571724,0.064398,0.214259,-0.177346
256,0.1487089999999999,0.8099689999999999,0.567301,0.2609889999999999,-0.044023,-0.2216739999999999
257,0.152979,0.819999,0.5515369999999999,0.0522669999999999,-0.286659,-0.051186
258,0.173564,0.833779,0.524101,-0.082255,-0.358392,0.0529409999999999
259,0.203351,0.8516219999999999,0.4830979999999999,-0.218427,-0.443953,0.1530099999999999
260,0.232058,0.8721639999999999,0.430668,-0.354373,-0.438875,0.290951
261,0.257504,0.8916639999999999,0.372321,-0.340909,-0.251619,0.175561
262,0.281518,0.905644,0.3171,-0.100472,0.231105,-0.325966
263,0.301751,0.913695,0.2722199999999999,0.17298,0.129182,-0.198795
264,0.31849,0.918701,0.233555,0.225577,-0.045578,-0.0714149999999999
265,0.330025,0.921395,0.205211,0.253914,0.004371,0.250263
266,0.327111,0.925723,0.189822,-0.19468,0.077863,0.75984
267,0.3028619999999999,0.934059,0.189221,-0.258886,-0.08741,-0.100262
268,0.281579,0.942777,0.178553,-0.027581,-0.287702,-0.373118
269,0.275381,0.941275,0.195354,-0.392325,0.183084,0.0390519999999999
270,0.273579,0.940771,0.200254,-0.425068,0.101252,-0.248106
271,0.266307,0.943783,0.1958349999999999,-0.216319,0.269734,-0.288303
272,0.261525,0.938217,0.226603,-0.197285,0.833297,0.099294
273,0.241337,0.942399,0.231596,-0.0665169999999999,-0.171388,-0.4606909999999999
274,0.228174,0.946055,0.23003,-0.03599,-1.013376,-0.276554
275,0.227917,0.943679,0.239835,-0.083691,-0.78984,0.013064
276,0.247405,0.938946,0.2390969999999999,0.071596,-0.231701,0.298562
277,0.262547,0.933332,0.244861,-0.063114,0.670397,0.251294
278,0.265277,0.931905,0.2473389999999999,-0.1698329999999999,-0.035375,0.135839
279,0.263867,0.931274,0.251197,-0.254758,-0.1035609999999999,0.086755
280,0.2603789999999999,0.928964,0.263106,-0.511737,-0.000162,0.068345
281,0.253449,0.925212,0.282389,-0.403336,-0.009104,-0.048961
282,0.242844,0.917382,0.315331,-0.304505,0.019584,-0.012032
283,0.227927,0.902451,0.36555,0.031029,-0.048753,-0.166759
284,0.215577,0.878323,0.426699,0.252013,-0.060818,-0.377581
285,0.21324,0.84772,0.485691,0.337053,-0.097598,-0.484104
286,0.219323,0.817439,0.532622,0.093177,-0.494243,-0.191558
287,0.222014,0.794696,0.564945,-0.281386,-0.5096310000000001,-0.040912
288,0.217083,0.782434,0.583666,-0.10754,-0.029856,-0.002062
289,0.202182,0.779958,0.59227,0.2681699999999999,0.2385969999999999,-0.028488
290,0.1819609999999999,0.787628,0.588665,0.385864,0.333557,-0.031552
291,0.177758,0.802401,0.569692,0.188514,0.167295,-0.173117
292,0.197858,0.8171510000000001,0.5413979999999999,-0.059811,-0.19476,0.144225
293,0.223458,0.8331700000000001,0.5058560000000001,-0.364037,-0.405695,0.288654
294,0.2425199999999999,0.8513299999999999,0.465207,-0.384503,-0.518062,0.366306
295,0.252664,0.8722049999999999,0.418826,-0.220361,-0.313398,-0.07677
296,0.270846,0.890069,0.366628,0.038435,0.208198,-0.410893
297,0.300235,0.8987799999999999,0.319453,0.268216,0.620904,-0.349788
298,0.330051,0.903074,0.27481,0.346478,0.280993,0.020158
299,0.347828,0.909052,0.229426,0.193295,-0.272684,0.2360739999999999
300,0.350092,0.91692,0.191545,-0.002771,-0.456715,0.220092
301,0.3447659999999999,0.924614,0.161929,-0.1237279999999999,-0.500588,0.3180969999999999
302,0.339967,0.930374,0.1372,-0.0963909999999999,-0.256439,-0.343331
303,0.340944,0.9322,0.121478,0.150664,0.1612289999999999,0.045041
304,0.345913,0.929768,0.125986,-0.019635,0.404049,0.341986
305,0.339325,0.931755,0.129185,-0.077896,0.410302,-0.295902
306,0.323617,0.937129,0.130605,-0.062189,0.404927,-0.297322
307,0.3085469999999999,0.94144,0.135967,-0.149398,0.1754119999999999,-0.059048
308,0.293662,0.943539,0.153279,-0.150733,0.7585029999999999,0.450694
309,0.279561,0.945901,0.164663,-0.100469,0.265326,-0.225225
310,0.269696,0.948773,0.164595,-0.001004,-0.201016,-0.499877
311,0.269024,0.948128,0.169341,0.032856,-0.029976,0.415422
312,0.27639,0.945294,0.173281,0.065117,0.099766,0.432112
313,0.285428,0.943144,0.17032,-0.045269,0.2891869999999999,0.175063
314,0.289304,0.942242,0.168761,-0.179914,0.323825,0.03267
315,0.287017,0.942525,0.171074,-0.297133,0.0588179999999999,0.0758139999999999
316,0.2802449999999999,0.942393,0.182633,-0.333361,-0.003276,0.111922
317,0.267848,0.94068,0.208267,-0.307353,0.0072109999999999,0.131119
318,0.252139,0.935625,0.24704,-0.203173,-0.047167,-0.100571
319,0.233404,0.924594,0.301072,-0.002722,-0.024158,-0.112168
320,0.216939,0.901695,0.374005,0.057338,0.237282,-0.247937
321,0.209044,0.869658,0.447205,0.1217819999999999,0.23726,-0.2781679999999999
322,0.208135,0.835542,0.508474,0.203364,-0.359071,-0.039449
323,0.2132909999999999,0.80374,0.555434,0.2559929999999999,-0.315947,0.091524
324,0.209427,0.7829659999999999,0.58575,0.126892,0.0145199999999999,0.1507609999999999
325,0.1952549999999999,0.774573,0.60159,0.237393,0.359598,0.007434
326,0.1823789999999999,0.77442,0.605813,0.177271,0.34054,-0.130014
327,0.184642,0.776517,0.602434,0.0305529999999999,-0.058957,-0.196321
328,0.193635,0.782989,0.5911270000000001,-0.024003,-0.499008,-0.146119
329,0.206713,0.7961050000000001,0.568756,-0.068301,-0.5384,-0.0492709999999999
330,0.221579,0.814279,0.536516,-0.1075349999999999,-0.6545350000000001,0.0760179999999999
331,0.239107,0.8359219999999999,0.4940239999999999,-0.153764,-0.6437229999999999,0.1183569999999999
332,0.265006,0.8573,0.4413689999999999,-0.205069,-0.027176,-0.066674
333,0.299724,0.8745059999999999,0.381317,-0.157696,0.632193,-0.251617
334,0.330604,0.886582,0.323527,0.034203,0.8014819999999999,-0.223811
335,0.345205,0.898825,0.270082,0.205042,0.096033,0.000136
336,0.349402,0.909825,0.223906,0.272302,-0.327977,0.079225
337,0.356304,0.915494,0.186857,0.256321,-0.165341,0.4649529999999999
338,0.356331,0.920939,0.15779,-0.145775,-0.249155,0.804109
339,0.338366,0.929265,0.148233,-0.2081469999999999,-0.444539,-0.554148
340,0.32422,0.935266,0.141967,0.14984,-0.327265,-0.358626
341,0.325584,0.932437,0.156696,-0.2389599999999999,0.100293,0.4945029999999999
342,0.326935,0.928848,0.174218,-0.656205,0.4805609999999999,-0.09971
343,0.3115719999999999,0.934895,0.169972,-0.158755,0.277736,-0.655751
344,0.295806,0.937388,0.183846,0.303071,1.734212,1.346748
345,0.28455,0.935226,0.210667,-0.2737159999999999,0.629502,-0.120045
346,0.260412,0.943272,0.20596,-0.019445,-0.8130229999999999,-0.636213
347,0.25181,0.94453,0.210835,-0.064569,-0.5747329999999999,0.190609
348,0.259786,0.938611,0.226973,0.133738,0.158496,0.5721
349,0.282529,0.932124,0.226535,0.137988,0.77152,0.5866979999999999
350,0.288901,0.930347,0.225802,-0.03675,0.21893,0.351026
351,0.28809,0.929574,0.229983,-0.097813,0.130485,0.5183840000000001
352,0.283657,0.929543,0.2355489999999999,-0.239163,0.1877049999999999,0.481477
353,0.273283,0.928884,0.2499739999999999,-0.365263,-0.0729269999999999,0.080256
354,0.260877,0.924889,0.276622,-0.2448699999999999,-0.239357,-0.1501569999999999
355,0.248988,0.915564,0.315821,-0.112773,-0.281836,-0.217707
356,0.234988,0.8957219999999999,0.377436,0.1660589999999999,-0.066865,-0.23498
357,0.228096,0.867765,0.441533,0.268029,-0.046659,-0.369191
358,0.233503,0.835304,0.497733,0.341005,-0.0471269999999999,-0.470572
359,0.242586,0.805153,0.541179,0.092649,-0.395867,-0.007365
360,0.2407949999999999,0.7840590000000001,0.57207,-0.0351519999999999,-0.256425,-0.079073
361,0.232728,0.773544,0.58946,-0.140565,-0.12445,-0.117795
362,0.2197309999999999,0.770511,0.598352,0.125316,-0.041553,-0.143152
363,0.2087239999999999,0.776126,0.5950270000000001,0.243806,-0.042468,-0.122218
364,0.2104599999999999,0.790316,0.575414,0.273671,-0.025347,-0.218236
365,0.234172,0.805951,0.543692,0.06252,-0.108319,0.085886
366,0.263733,0.8227610000000001,0.503491,-0.234864,-0.3857489999999999,0.3947179999999999
367,0.285164,0.842348,0.457302,-0.524788,-0.500124,0.209659
368,0.297952,0.863682,0.406536,-0.365014,-0.163762,-0.309277
369,0.313117,0.881448,0.353555,-0.196219,0.06684,-0.401986
370,0.337736,0.8911469999999999,0.302963,0.435885,0.633268,-0.338516
371,0.3689659999999999,0.8948860000000001,0.2510719999999999,0.421226,0.076183,0.183528
372,0.393176,0.894099,0.2144599999999999,0.270032,-0.141155,0.403888
373,0.39359,0.8969530000000001,0.2013839999999999,-0.140523,-0.242641,0.50464
374,0.368711,0.909141,0.19367,-0.346708,-0.542488,-0.248159
375,0.353994,0.918946,0.17384,-0.306357,-0.527085,-0.535687
376,0.348425,0.918859,0.1851819999999999,-0.226202,0.57487,0.3064409999999999
377,0.33945,0.918193,0.204181,-0.323139,0.826131,0.462934
378,0.32585,0.924692,0.196877,-0.244658,0.245687,-0.3759389999999999
379,0.3111489999999999,0.927523,0.207081,0.226403,1.275938,1.025432
380,0.303767,0.923065,0.235948,-0.0987799999999999,0.160966,-0.3710179999999999
381,0.297761,0.925328,0.234736,-0.131333,-0.5777479999999999,-0.5744279999999999
382,0.299915,0.923221,0.240226,-0.145389,-0.4887729999999999,0.125588
383,0.308454,0.920323,0.240534,0.075915,0.676784,0.813299
384,0.315691,0.919446,0.23442,-0.0581529999999999,0.8605370000000001,0.127106
385,0.311494,0.92155,0.23176,-0.153199,0.224919,0.287923
386,0.302502,0.921958,0.241829,-0.218518,-0.079886,0.365013
387,0.296621,0.918564,0.261248,-0.30303,-0.074768,0.139494
388,0.287522,0.909055,0.301571,-0.268006,-0.082578,-0.017818
389,0.273838,0.892493,0.3584179999999999,-0.116093,-0.040945,-0.240284
390,0.263758,0.867569,0.4216029999999999,-0.009363,-0.004548,-0.5451229999999999
391,0.264661,0.833456,0.485076,0.244357,0.092432,-0.456542
392,0.267312,0.801044,0.5355979999999999,0.232337,-0.161167,-0.372023
393,0.270946,0.776994,0.56821,0.036885,-0.401597,-0.202991
394,0.265395,0.762034,0.590646,-0.390975,-0.459422,-0.307519
395,0.25668,0.753103,0.605759,-0.011059,-0.217245,-0.056442
396,0.237596,0.759004,0.60618,0.1761609999999999,-0.1640329999999999,0.1277829999999999
397,0.227608,0.778644,0.5847220000000001,0.31739,0.0101129999999999,0.030451
398,0.240521,0.799147,0.5509149999999999,0.13045,-0.184691,-0.031872
399,0.265447,0.816208,0.513162,-0.076589,-0.315399,0.031806
400,0.2906809999999999,0.8327700000000001,0.4711609999999999,-0.24611,-0.427649,0.186645
401,0.31405,0.8499129999999999,0.423102,-0.3034,-0.090666,0.0380029999999999
402,0.347016,0.8627940000000001,0.367642,-0.2122659999999999,0.175582,-0.097501
403,0.3845139999999999,0.867733,0.3149349999999999,-0.018975,0.510304,-0.120126
404,0.414811,0.8699120000000001,0.266796,0.345321,0.122901,0.165928
405,0.428208,0.874582,0.227463,0.214583,-0.203638,0.188339
406,0.431671,0.8798370000000001,0.198855,0.145493,-0.369034,0.206586
407,0.421786,0.888806,0.1792089999999999,-0.6233850000000001,-0.536572,-0.098108
408,0.3992199999999999,0.903047,0.1585109999999999,-0.597386,-0.677721,-0.503359
409,0.392162,0.909262,0.139457,-0.341244,-0.535116,-0.520393
410,0.389673,0.907971,0.154079,-0.6043029999999999,0.903415,0.194127
411,0.375039,0.914017,0.154646,-0.501413,0.864441,0.271837
412,0.353442,0.919334,0.172915,0.424954,1.44117,0.7247439999999999
413,0.3411349999999999,0.916455,0.209126,0.1111359999999999,-0.328839,-0.6959420000000001
414,0.337686,0.917799,0.2088269999999999,0.0018219999999999,-0.576628,-0.8891700000000001
415,0.3360329999999999,0.919312,0.204799,-0.187046,-0.773133,-0.580074
416,0.3362489999999999,0.918743,0.206988,-0.141318,0.356007,0.216977
417,0.347879,0.917367,0.193425,-0.129495,0.515891,0.29214
418,0.355642,0.916664,0.182321,-0.045461,0.313652,0.295554
419,0.364975,0.915091,0.171458,-0.142517,-0.059484,0.1849559999999999
420,0.37692,0.911219,0.166153,-0.277707,-0.120844,0.253342
421,0.389181,0.906888,0.161517,-0.6004079999999999,0.280856,0.187558
422,0.398842,0.902565,0.162163,-0.765908,0.536537,0.107063
423,0.407709,0.896501,0.173365,-0.686182,0.491576,-0.025432
424,0.411583,0.8890459999999999,0.200482,-0.063575,0.421241,0.189044
425,0.40897,0.8801200000000001,0.2410989999999999,0.1084859999999999,0.290703,0.185094
426,0.401172,0.869484,0.288191,0.224621,0.11985,0.099535
427,0.387885,0.8603629999999999,0.33063,0.294305,-0.061901,-0.412264
428,0.369506,0.8545969999999999,0.364863,0.164643,0.361086,-0.336298
429,0.346186,0.850525,0.395927,0.021001,1.536926,0.243875
430,0.323355,0.8527469999999999,0.4101939999999999,-0.19779,1.598684,-0.1383579999999999
431,0.298514,0.861308,0.4111359999999999,-0.211783,0.123815,-0.3568449999999999
432,0.281053,0.867828,0.40973,-0.088869,-0.222442,-0.301851
433,0.273486,0.8723860000000001,0.405146,0.175839,-0.13267,-0.2822969999999999
434,0.271513,0.87645,0.397633,0.242983,-0.015396,-0.132008
435,0.2760579999999999,0.8779889999999999,0.391053,0.058583,-0.104735,-0.2331239999999999
436,0.2907949999999999,0.8750819999999999,0.386866,0.056419,-0.321265,-0.351663
437,0.313742,0.8680629999999999,0.384745,0.113199,-0.451254,-0.28364
438,0.337532,0.859899,0.3829369999999999,0.164116,-0.477788,0.026059
439,0.356584,0.855093,0.376374,0.129637,-0.3612889999999999,0.209319
440,0.373746,0.853541,0.363011,-0.095471,-0.171488,0.241252
441,0.391425,0.852355,0.346804,-0.219504,-0.07846,0.214476
442,0.408653,0.8495280000000001,0.3336179999999999,-0.321953,0.002066,-0.050109
443,0.4249949999999999,0.84501,0.324551,-0.196312,0.067527,0.016789
444,0.43832,0.841333,0.316272,-0.122646,0.116674,0.055692
445,0.447049,0.839333,0.309294,0.055316,0.186974,0.3371909999999999
446,0.452906,0.837726,0.3050989999999999,0.025991,0.053799,0.426408
447,0.4499,0.8399459999999999,0.303438,-0.157099,-0.1900589999999999,0.185499
448,0.437163,0.847569,0.300848,-0.150557,-0.261189,-0.056249
449,0.426127,0.855909,0.292968,0.034795,-0.02136,-0.086486
450,0.418547,0.8643549999999999,0.278752,0.344103,0.469858,-0.028493
451,0.40961,0.8721620000000001,0.267482,0.405896,1.105071,0.1719099999999999
452,0.396415,0.8758600000000001,0.275169,-0.171882,0.723993,0.191018
453,0.380048,0.879,0.287952,-0.20268,-0.446932,-0.350024
454,0.372488,0.883712,0.283373,-0.117742,-1.045684,-0.661409
455,0.381361,0.885124,0.266673,-0.245726,-0.090827,-0.369654
456,0.397253,0.882382,0.252167,-0.405965,0.62392,-0.129105
457,0.400952,0.883072,0.243757,-0.514371,1.11789,-0.028272
458,0.400095,0.8880899999999999,0.2263119999999999,-0.1142369999999999,0.193896,-0.165383
459,0.3956989999999999,0.895206,0.2049969999999999,-0.024102,0.010006,-0.120127
460,0.399464,0.898148,0.183728,0.125743,-0.090515,-0.128872
461,0.406543,0.899331,0.1610059999999999,0.25787,-0.175103,-0.040202
462,0.412463,0.900754,0.136066,0.143781,-0.181103,-0.045658
463,0.4187689999999999,0.901237,0.1113619999999999,-0.016089,-0.048729,-0.008427
464,0.424572,0.901256,0.086448,-0.1172599999999999,0.118138,-0.073111
465,0.428158,0.901534,0.062556,-0.1542329999999999,0.068223,-0.043192
466,0.430712,0.901587,0.040323,-0.1658349999999999,-0.087622,0.080237
467,0.4342359999999999,0.9005799999999999,0.0198099999999999,-0.18065,-0.0569519999999999,0.127941
468,0.438006,0.898969,0.0018789999999999,-0.1193569999999999,-0.0081,0.122358
469,0.442484,0.896642,-0.015433,-0.081522,-0.026677,0.176887
470,0.4485479999999999,0.8930950000000001,-0.0344029999999999,-0.16272,-0.0071849999999999,0.180369
471,0.455109,0.8888209999999999,-0.053578,-0.205537,0.059207,0.133885
472,0.460105,0.885009,-0.071132,-0.146064,0.18898,0.1056619999999999
473,0.461322,0.8829819999999999,-0.08673,-0.09447,0.182646,0.1822349999999999
474,0.4600189999999999,0.881948,-0.1027039999999999,-0.168363,0.211939,0.2122929999999999
475,0.458244,0.8819040000000001,-0.110702,-0.236671,0.355202,0.165527
476,0.4551149999999999,0.883524,-0.110695,-0.16323,0.430288,0.188652
477,0.450347,0.8868370000000001,-0.103469,-0.162688,0.45702,0.224731
478,0.443588,0.892057,-0.086385,-0.21048,0.421359,0.186178
479,0.434561,0.899058,-0.053382,-0.203452,0.501074,0.2057719999999999
480,0.424386,0.905459,-0.00627,-0.138421,0.438749,0.343001
481,0.415425,0.908125,0.052251,-0.0089769999999999,0.198458,0.114375
482,0.4062739999999999,0.906188,0.117317,-0.012933,0.1686869999999999,-0.295722
483,0.393839,0.901224,0.180786,-0.0256139999999999,0.196036,-0.409256
484,0.376078,0.896752,0.233236,-0.015451,0.243644,-0.4199729999999999
485,0.355677,0.894123,0.272093,-0.260325,0.6209520000000001,-0.156157
486,0.331806,0.892867,0.304451,-0.236453,0.622209,-0.188515
487,0.307278,0.892149,0.331127,0.0032689999999999,0.361757,-0.418331
488,0.284755,0.8899799999999999,0.356153,0.154088,-0.1214259999999999,-0.450101
489,0.265664,0.884534,0.383429,0.175529,-0.179883,-0.399771
490,0.247076,0.8789170000000001,0.407987,0.11857,-0.244319,-0.322996
491,0.232308,0.8735649999999999,0.42768,0.0578529999999999,-0.2201989999999999,-0.313789
492,0.2213389999999999,0.868408,0.443702,0.0138139999999999,-0.192382,-0.314368
493,0.2161539999999999,0.86425,0.454251,0.079134,-0.1622839999999999,-0.360043
494,0.2194219999999999,0.8611260000000001,0.458595,0.135314,-0.148068,-0.394355
495,0.2289159999999999,0.858303,0.459247,0.188,-0.233532,-0.257129
496,0.24064,0.857468,0.454791,0.257132,-0.286988,-0.166201
497,0.252001,0.859776,0.4441569999999999,0.2508829999999999,-0.311589,-0.145985
498,0.262841,0.864555,0.4283149999999999,0.155815,-0.332542,-0.112626
499,0.274956,0.8703040000000001,0.408611,0.019508,-0.251759,-0.044964
500,0.29013,0.8755350000000001,0.386336,-0.054595,-0.053758,0.1143049999999999
501,0.309473,0.879283,0.362052,-0.059946,0.033529,0.174783
502,0.330336,0.8794790000000001,0.34262,-0.047316,0.125633,0.268877
503,0.344998,0.875351,0.338719,-0.104992,0.551239,0.6318779999999999
504,0.34355,0.8725700000000001,0.347258,-0.207167,0.273854,0.568422
505,0.326476,0.8755700000000001,0.356065,-0.338805,-0.2574059999999999,-0.147645
506,0.31211,0.879983,0.358062,-0.045814,0.056784,-0.558761
507,0.306707,0.884757,0.3508949999999999,0.11915,0.600641,-0.700581
508,0.293992,0.8936290000000001,0.339098,0.380401,0.8805870000000001,-0.511217
509,0.274559,0.8989860000000001,0.3412239999999999,0.244194,0.397553,0.039224
510,0.260221,0.896913,0.3575239999999999,0.220125,-0.259218,0.0436449999999999
511,0.257828,0.8974409999999999,0.357934,0.328354,-1.155833,-0.3304829999999999
512,0.277057,0.899998,0.3365039999999999,0.040219,-0.288593,-0.24663
513,0.299908,0.897225,0.32409,-0.112652,0.387092,-0.289575
514,0.314998,0.8942319999999999,0.31799,-0.073268,0.715174,-0.548535
515,0.322509,0.894864,0.308542,-0.05255,0.097583,0.083487
516,0.325693,0.899156,0.29229,-0.028147,-0.104875,-0.036034
517,0.330912,0.90349,0.272384,-0.020869,-0.140917,-0.119369
518,0.335163,0.908089,0.251061,0.005947,-0.13842,-0.11239
519,0.3382949999999999,0.911849,0.232552,0.048912,-0.03105,-0.140709
520,0.342489,0.913632,0.21902,0.041041,-0.024411,-0.0265459999999999
521,0.346978,0.914469,0.208193,-0.034524,-0.074533,0.069242
522,0.350729,0.91508,0.199022,-0.141897,-0.07574,0.058134
523,0.352488,0.915819,0.192405,-0.186579,-0.070147,0.064096
524,0.351429,0.916739,0.189943,-0.283359,-0.108634,0.210325
525,0.345775,0.91748,0.196623,-0.325969,-0.175308,0.123704
526,0.33798,0.917791,0.208376,-0.185469,-0.333318,0.129485
527,0.3331179999999999,0.91736,0.217888,-0.175846,-0.287172,-0.015862
528,0.3290619999999999,0.91565,0.230857,-0.179053,-0.244141,-0.033134
529,0.325949,0.913575,0.243167,-0.178046,-0.0390779999999999,-0.032794
530,0.319567,0.91416,0.249362,-0.059862,-0.114813,-0.2621179999999999
531,0.312868,0.914452,0.256678,-0.018785,-0.195091,-0.207423
532,0.309578,0.91243,0.267626,-0.033211,-0.0513159999999999,-0.11014
533,0.310197,0.909644,0.276255,-0.0959179999999999,0.1923609999999999,-0.071512
534,0.309365,0.907251,0.28492,-0.283058,0.3305869999999999,0.047111
535,0.299274,0.904324,0.304343,-0.390628,0.4193149999999999,-0.097663
536,0.281067,0.898166,0.338068,-0.162552,0.5013850000000001,-0.011163
537,0.255663,0.885551,0.387849,0.194822,0.605813,0.186889
538,0.2264219999999999,0.865282,0.447226,0.500354,0.487226,0.106379
539,0.197924,0.840625,0.504149,0.510054,0.131589,-0.252349
540,0.185331,0.814095,0.550355,0.420427,-0.29548,-0.538621
541,0.189184,0.787017,0.5872,0.153101,-0.428954,-0.237087
542,0.192795,0.764925,0.61458,0.040329,-0.0064719999999999,-0.0878309999999999
543,0.186677,0.75438,0.629326,0.23204,0.449843,0.018044
544,0.173809,0.758698,0.6278189999999999,0.3986699999999999,0.631606,-0.131603
545,0.163687,0.770478,0.616084,0.264246,-0.177552,-0.281841
546,0.160366,0.788316,0.5939939999999999,0.233646,-0.38875,-0.3072809999999999
547,0.1635049999999999,0.8094859999999999,0.563904,0.174477,-0.523933,-0.339966
548,0.172015,0.831822,0.527704,-0.275775,-0.7670640000000001,0.166769
549,0.182529,0.8553540000000001,0.48481,-0.233906,-0.780968,0.133354
550,0.19608,0.879625,0.4333619999999999,-0.160298,-0.445009,-0.187161
551,0.220879,0.8981399999999999,0.380194,0.025321,0.153115,-0.3934539999999999
552,0.2510699999999999,0.907413,0.336981,0.224531,0.533277,-0.4012969999999999
553,0.279436,0.911262,0.3025,0.445768,0.27665,0.021154
554,0.292453,0.916464,0.273048,0.157147,-0.4599819999999999,0.300271
555,0.290552,0.924383,0.247155,-0.043436,-0.6451020000000001,0.316612
556,0.282188,0.932771,0.2242739999999999,-0.386573,-0.451326,-0.049774
557,0.271984,0.940038,0.20578,-0.11076,-0.104466,-0.443588
558,0.267846,0.942123,0.201629,0.027762,0.455949,0.279023
559,0.2626469999999999,0.935752,0.2353219999999999,-0.067548,1.04696,0.5397029999999999
560,0.2477059999999999,0.932925,0.261312,-0.118174,0.899274,0.211909
561,0.2268239999999999,0.939139,0.257994,0.030271,-0.464728,-0.878127
562,0.2152369999999999,0.94273,0.254803,0.312504,-0.088284,0.375827
563,0.22389,0.937969,0.2647239999999999,0.439135,1.930165,0.907776
564,0.210954,0.941523,0.262726,-0.1688859999999999,0.464285,-0.478043
565,0.196685,0.944662,0.262527,-0.090514,-0.631491,-0.305831
566,0.198465,0.940584,0.27551,0.058738,-0.456834,0.5542630000000001
567,0.2153719999999999,0.937069,0.27479,0.221045,0.379902,0.403433
568,0.224788,0.935297,0.27328,-0.00819,0.895331,0.072987
569,0.219548,0.933116,0.284753,-0.064305,0.244755,0.114462
570,0.205759,0.92754,0.311971,-0.060785,-0.172825,0.029414
571,0.193651,0.915243,0.353303,0.012022,-0.211248,-0.06923
572,0.1752369999999999,0.896708,0.406445,-0.011419,-0.301372,-0.256314
573,0.162444,0.868251,0.4687689999999999,0.01848,-0.208339,-0.444477
574,0.166621,0.8288559999999999,0.534066,0.327046,-0.026534,-0.539223
575,0.179109,0.78737,0.589882,0.274688,-0.254502,-0.356362
576,0.18832,0.751747,0.631984,0.200795,-0.3619,-0.246074
577,0.19327,0.725846,0.66014,0.007337,-0.037781,-0.22676
578,0.194353,0.708723,0.678181,0.229384,0.065126,-0.167866
579,0.185522,0.7059270000000001,0.6835479999999999,0.456171,-0.030726,-0.0596929999999999
580,0.178177,0.7198869999999999,0.670824,0.388107,-0.105141,-0.081194
581,0.186841,0.744268,0.641206,0.271228,-0.1237849999999999,0.1083819999999999
582,0.2068849999999999,0.770569,0.602837,0.135233,-0.289261,0.192817
583,0.2251739999999999,0.796021,0.561816,-0.045868,-0.43422,0.276609
584,0.233377,0.8258479999999999,0.513324,-0.316888,-0.219585,-0.129642
585,0.238977,0.858849,0.453056,-0.294061,-0.001671,-0.389182
586,0.253389,0.883174,0.3947,-0.227052,0.214955,-0.5129100000000001
587,0.279049,0.8960549999999999,0.3452659999999999,0.398807,0.4320859999999999,-0.104818
588,0.30918,0.902599,0.2995239999999999,0.330316,0.234654,0.176001
589,0.327917,0.906049,0.267465,0.270304,0.100848,0.385428
590,0.327366,0.91294,0.243646,0.226055,-0.271293,0.691489
591,0.303779,0.926633,0.221496,0.01873,-0.370496,0.087632
592,0.2872699999999999,0.937158,0.197994,-0.020119,-0.431558,-0.5164449999999999
593,0.288141,0.935522,0.204365,-0.15571,-0.033484,0.15794
594,0.287023,0.928966,0.233733,-0.441503,0.19759,0.042405
595,0.274844,0.932933,0.232568,-0.177448,0.084355,-0.739725
596,0.26049,0.940842,0.216685,0.514031,1.17546,0.421514
597,0.249109,0.939415,0.235449,0.491537,1.986824,1.25419
598,0.219987,0.94203,0.2533289999999999,0.1198559999999999,-0.478911,-0.666324
599,0.207411,0.943041,0.260087,0.095476,-1.118868,-0.545411
600,0.212709,0.935749,0.281281,-0.041749,-1.1550790000000002,-0.20549
601,0.226338,0.926011,0.302102,0.0554,0.2102659999999999,0.5277930000000001
602,0.248765,0.920623,0.30093,0.235946,1.429215,0.20525
603,0.2438179999999999,0.923373,0.2965219999999999,-0.0803659999999999,0.570448,0.176226
604,0.2280199999999999,0.926747,0.298556,-0.252556,0.052134,0.078351
605,0.2115469999999999,0.926742,0.310462,-0.35588,-0.184936,0.078622
606,0.198689,0.919501,0.339163,-0.263218,-0.19808,-0.137686
607,0.186962,0.905063,0.3819639999999999,-0.04948,0.037808,-0.1045589999999999
608,0.17514,0.878655,0.444163,0.233125,0.196724,-0.145518
609,0.169944,0.84301,0.5103340000000001,0.5767909999999999,0.2661659999999999,-0.303196
610,0.169789,0.807493,0.564902,0.595775,0.017107,-0.454276
611,0.171657,0.779619,0.602258,0.3093,-0.384767,-0.115289
612,0.15757,0.763625,0.626127,-0.007942,-0.297103,-0.106138
613,0.134301,0.762516,0.632867,0.097495,-0.034305,-0.077828
614,0.110252,0.770817,0.627434,0.219155,0.037975,-0.234612
615,0.098499,0.7823399999999999,0.615005,0.252239,-0.101996,-0.385619
616,0.103397,0.796408,0.595845,0.24368,-0.311865,-0.357304
617,0.125122,0.811254,0.5711390000000001,0.117951,-0.424093,-0.148257
618,0.156165,0.826205,0.541283,0.000222,-0.525713,0.021278
619,0.185427,0.8439719999999999,0.503306,-0.244005,-0.635842,0.432012
620,0.212056,0.865642,0.453526,-0.300465,-0.357601,0.246913
621,0.2392139999999999,0.8864569999999999,0.396182,-0.202074,-0.172834,-0.0393709999999999
622,0.267185,0.8975069999999999,0.350831,0.438396,0.473846,-0.625215
623,0.291426,0.902267,0.317765,0.441438,0.312378,-0.102875
624,0.302709,0.90721,0.292108,0.260737,0.192155,0.469122
625,0.2853199999999999,0.916817,0.279338,0.068729,0.326347,0.5599109999999999
626,0.254272,0.932284,0.25726,-0.012695,-0.089236,-0.214383
627,0.241826,0.939952,0.240837,0.1248119999999999,-0.325984,-0.1109079999999999
628,0.240342,0.931193,0.274055,-0.1109319999999999,0.057744,0.04287
629,0.244638,0.929441,0.276192,-0.2067659999999999,0.224001,0.073524
630,0.237639,0.929899,0.280725,0.4189779999999999,1.606646,0.128485
631,0.219769,0.923147,0.315424,0.087695,1.019831,0.131582
632,0.2102239999999999,0.926171,0.313057,0.147915,-0.5848770000000001,-0.4610979999999999
633,0.201147,0.928556,0.311954,-0.223318,-0.799024,-0.187366
634,0.2061719999999999,0.930295,0.303376,-0.0433,-0.111645,0.0215449999999999
635,0.216832,0.930294,0.295851,0.091701,0.548343,0.099367
636,0.225215,0.929377,0.292451,0.15978,0.395498,0.112426
637,0.232841,0.927304,0.293058,0.085976,0.0139189999999999,0.3130969999999999
638,0.23745,0.924608,0.2978389999999999,0.007774,-0.049013,0.470883
639,0.236281,0.923017,0.303647,-0.265196,0.0167259999999999,0.07706
640,0.231897,0.921601,0.311231,-0.279184,0.118407,-0.023999
641,0.2246,0.914606,0.3362159999999999,-0.132742,0.041342,-0.029087
642,0.2119329999999999,0.899524,0.382009,0.056088,0.07034,-0.014913
643,0.19542,0.875501,0.441926,0.098662,-0.017988,-0.407304
644,0.1844319999999999,0.842097,0.5068,0.149491,-0.045038,-0.7094520000000001
645,0.1896769999999999,0.80089,0.567966,0.149023,-0.20717,-0.556614
646,0.200935,0.764467,0.612537,0.114266,-0.51758,-0.271961
647,0.2001869999999999,0.745638,0.63556,0.0004969999999999,-0.5225390000000001,-0.202256
648,0.192182,0.741237,0.643133,0.116747,-0.269206,-0.134969
649,0.179677,0.7451439999999999,0.642232,0.181117,-0.177838,-0.252324
650,0.1675829999999999,0.755235,0.633657,0.394123,-0.072801,-0.382833
651,0.166345,0.775546,0.608969,0.421012,0.030179,-0.322363
652,0.187431,0.798369,0.5722430000000001,0.260414,0.1086589999999999,0.0742559999999999
653,0.2187619999999999,0.812176,0.540832,-0.078153,-0.024746,0.623154
654,0.2424219999999999,0.8257180000000001,0.509322,-0.294134,-0.1316109999999999,0.668855
655,0.254617,0.847549,0.465638,-0.216683,-0.001205,-0.082551
656,0.266728,0.8682620000000001,0.418289,0.081783,0.389963,-0.415954
657,0.287122,0.8821709999999999,0.37326,0.402606,0.539063,-0.290024
658,0.306632,0.891919,0.332335,0.4067159999999999,0.319538,-0.130781
659,0.3144969999999999,0.900768,0.299494,0.237032,-0.31329,0.049704
660,0.318726,0.909334,0.267422,0.248626,-0.396516,0.165821
661,0.321209,0.916235,0.23943,0.033406,-0.504339,0.415645
662,0.319279,0.920839,0.2238409999999999,-0.327259,-0.2395949999999999,-0.4346109999999999
663,0.31811,0.923776,0.21315,-0.169062,-0.05317,-0.527802
664,0.318314,0.924282,0.210637,-0.1196599999999999,0.076206,-0.3447159999999999
665,0.306763,0.925727,0.221169,-0.352218,0.126413,0.0345069999999999
666,0.284155,0.932996,0.2208239999999999,-0.329611,0.119143,0.0348529999999999
667,0.264833,0.936438,0.230079,0.584105,1.097849,0.567086
668,0.257811,0.928525,0.2671389999999999,0.1799329999999999,1.545764,0.656064
669,0.2336659999999999,0.933591,0.271655,-0.018288,0.243838,-0.7976409999999999
670,0.224296,0.932366,0.283502,-0.171165,-1.125268,-0.120401
671,0.223836,0.924563,0.3083329999999999,0.017176,-0.362903,0.379945
672,0.240584,0.920287,0.308513,0.326997,1.080415,0.454167
673,0.2413489999999999,0.919967,0.30887,0.092788,1.18303,0.221282
674,0.229859,0.919138,0.3199059999999999,-0.035752,0.114615,0.299021
675,0.219521,0.917665,0.3311969999999999,-0.205254,-0.277238,-0.003164
676,0.211181,0.909643,0.357689,-0.32553,-0.1167349999999999,0.013252
677,0.1984,0.8938879999999999,0.401984,-0.217092,0.002001,-0.151526
678,0.187383,0.86774,0.460331,0.03921,0.029675,-0.422992
679,0.184995,0.830831,0.524868,0.16933,0.07635,-0.591579
680,0.193734,0.790395,0.5811470000000001,0.396933,-0.161473,-0.6482100000000001
681,0.203393,0.7571899999999999,0.620711,0.439521,-0.619983,-0.308059
682,0.201183,0.739123,0.6428149999999999,0.093388,-0.202365,-0.1305619999999999
683,0.191649,0.736236,0.649011,0.137102,-0.100982,-0.114191
684,0.177312,0.7428560000000001,0.645534,0.165157,-0.11163,-0.1598
685,0.16652,0.756446,0.632494,0.155471,-0.292014,-0.344591
686,0.170547,0.7748189999999999,0.608734,0.178803,-0.296914,-0.314972
687,0.191002,0.7946770000000001,0.57619,0.133446,-0.235229,-0.093738
688,0.222042,0.813226,0.537912,-0.084148,-0.169519,0.236059
689,0.253673,0.83096,0.495122,-0.301463,0.043857,0.4552569999999999
690,0.278527,0.852973,0.441417,-0.195488,0.338387,0.14893
691,0.293438,0.875575,0.383736,0.160832,0.677434,-0.2799
692,0.303624,0.8930309999999999,0.332111,0.539226,0.454533,-0.212024
693,0.312936,0.905252,0.287367,0.37104,-0.12742,0.091295
694,0.316409,0.913433,0.255961,0.201917,-0.1703609999999999,0.226705
695,0.305987,0.923587,0.230978,-0.165377,-0.263309,0.299692
696,0.286426,0.936585,0.201893,-0.020481,-0.379944,-0.466435
697,0.284115,0.940671,0.185496,0.239506,-0.289166,0.196874
698,0.287329,0.932679,0.218044,-0.288382,0.209044,0.5649
699,0.280179,0.931961,0.2300869999999999,-0.370984,0.127121,-0.363708
700,0.264941,0.94058,0.212386,0.24423,0.438204,-0.682739
701,0.251952,0.941026,0.225791,0.292054,1.460448,0.692635
702,0.241904,0.938717,0.24553,-0.088293,0.4071079999999999,0.2647239999999999
703,0.2291659999999999,0.940677,0.250204,0.067496,-0.423358,-0.4631409999999999
704,0.230503,0.939096,0.25487,-0.190525,-1.023065,-0.173449
705,0.2383559999999999,0.932637,0.270861,-0.091323,-0.0308279999999999,0.249601
706,0.259318,0.925353,0.276528,0.128866,0.6325689999999999,0.456611
707,0.26114,0.92409,0.2790289999999999,0.092757,0.16818,0.290963
708,0.25021,0.924801,0.286583,-0.004879,-0.047802,0.308555
709,0.2384599999999999,0.922073,0.304811,-0.109203,-0.168274,0.186384
710,0.227204,0.912144,0.341121,-0.173707,-0.136677,-0.127681
711,0.2095,0.8954120000000001,0.39286,-0.056774,-0.068905,-0.258903
712,0.198025,0.8667969999999999,0.457647,0.031207,0.024561,-0.3478449999999999
713,0.193271,0.8318700000000001,0.5202220000000001,0.398053,-0.155539,-0.439976
714,0.194438,0.800288,0.567207,0.42571,-0.264781,-0.305885
715,0.1910359999999999,0.7732939999999999,0.604576,0.394092,-0.246057,-0.188835
716,0.182164,0.75605,0.628646,0.152202,0.341927,-0.113097
717,0.169043,0.750275,0.639142,0.223032,0.21968,-0.09071
718,0.1610619999999999,0.7512939999999999,0.6400060000000001,0.257838,0.077685,-0.029136
719,0.161897,0.758415,0.631337,0.136625,-0.5590890000000001,-0.188558
720,0.174334,0.770038,0.6137100000000001,0.0566539999999999,-0.505145,-0.199983
721,0.197601,0.785977,0.58582,-0.062621,-0.495922,-0.194539
722,0.226994,0.804797,0.5484220000000001,-0.098164,-0.5554680000000001,-0.064825
723,0.260209,0.8248489999999999,0.5019020000000001,-0.149567,-0.405172,-0.026789
724,0.300487,0.841675,0.4486449999999999,-0.141353,0.287231,-0.023199
725,0.3362179999999999,0.855507,0.393773,0.141413,0.613701,-0.238744
726,0.359602,0.869108,0.339602,0.278154,0.560244,-0.227526
727,0.371703,0.879524,0.297097,0.488831,-0.101798,0.031257
728,0.385696,0.8795780000000001,0.278517,0.18657,0.123626,0.462755
729,0.372608,0.884208,0.281659,-0.021107,0.133462,0.3340639999999999
730,0.341895,0.905618,0.250908,-0.280769,-0.809625,-0.364586
731,0.338546,0.912485,0.229672,0.049898,-0.031763,0.07532
732,0.33938,0.904505,0.258232,-0.233606,0.516897,0.273003
733,0.330607,0.909145,0.253269,0.396321,1.460682,-0.0364569999999999
734,0.31888,0.910607,0.262874,-0.269762,1.116997,0.388051
735,0.296313,0.906327,0.301265,-0.191424,-0.3806469999999999,-0.4375409999999999
736,0.294501,0.905924,0.304239,-0.21955,-0.704569,-0.476938
737,0.292853,0.905779,0.306256,-0.330344,-0.551287,-0.2425969999999999
738,0.301035,0.906474,0.296097,-0.003184,0.371297,0.084045
739,0.310671,0.909006,0.277819,-0.016084,0.630422,0.104353
740,0.313514,0.911298,0.266904,0.066018,0.146838,0.278674
741,0.320265,0.912227,0.255468,-0.059126,-0.096797,0.266078
742,0.329835,0.910893,0.24794,-0.221512,-0.078694,0.179001
743,0.340117,0.908513,0.242727,-0.331419,-0.058126,0.080515
744,0.350566,0.904797,0.241738,-0.375148,0.1800109999999999,0.08953
745,0.3618139999999999,0.8974059999999999,0.25248,-0.350721,0.315363,0.320167
746,0.3702539999999999,0.889568,0.267532,-0.3141469999999999,0.107518,-0.171798
747,0.373224,0.8786229999999999,0.297854,-0.20939,0.1619799999999999,-0.239855
748,0.370951,0.863093,0.3427199999999999,0.170416,0.236348,0.074241
749,0.3630219999999999,0.8467180000000001,0.388939,0.2116239999999999,0.096,-0.248543
750,0.350061,0.832685,0.4290489999999999,0.268881,0.043276,-0.414355
751,0.336634,0.82214,0.459078,0.2857719999999999,0.253894,-0.336885
752,0.3185929999999999,0.8130390000000001,0.487293,0.1097819999999999,1.553156,-0.048923
753,0.29733,0.80971,0.5059170000000001,0.159136,1.583356,-0.162884
754,0.275681,0.81462,0.5102760000000001,0.102264,0.4550479999999999,-0.353781
755,0.263848,0.820047,0.507834,0.1726599999999999,-0.082467,-0.325202
756,0.260678,0.8240639999999999,0.502945,0.165653,-0.10475,-0.292022
757,0.2581719999999999,0.82826,0.497314,0.062125,-0.067884,-0.271835
758,0.25926,0.831415,0.491447,0.164369,-0.267191,-0.371056
759,0.268644,0.829991,0.488808,0.227877,-0.284642,-0.359856
760,0.287001,0.824801,0.4871569999999999,0.269304,-0.272235,-0.318684
761,0.31139,0.817708,0.484126,0.230342,-0.274205,-0.219096
762,0.334341,0.811462,0.479307,0.177699,-0.296035,-0.040647
763,0.353489,0.807767,0.4717479999999999,0.137371,-0.284925,0.037147
764,0.369772,0.806045,0.462114,-0.097662,-0.1225579999999999,0.0101
765,0.3835739999999999,0.805079,0.452447,-0.165877,-0.111369,-0.023644
766,0.3975889999999999,0.8036260000000001,0.442828,-0.2367,-0.059715,-0.013827
767,0.413089,0.801351,0.432648,-0.223529,0.247691,0.179458
768,0.427917,0.79984,0.420871,-0.210785,0.354914,0.184781
769,0.4402819999999999,0.798281,0.410962,-0.013799,0.381666,0.302035
770,0.444768,0.7978930000000001,0.406866,-0.131871,0.160115,0.190668
771,0.440683,0.801528,0.404157,-0.2195679999999999,0.027223,0.1105829999999999
772,0.4331529999999999,0.807272,0.400851,-0.132295,-0.144431,-0.116793
773,0.431105,0.812577,0.392246,0.220475,0.167159,-0.337635
774,0.428675,0.8213950000000001,0.376216,0.368413,0.298829,-0.447292
775,0.4209029999999999,0.831073,0.363523,0.444133,0.6603359999999999,-0.09712
776,0.4164859999999999,0.8309040000000001,0.368956,0.044436,0.093153,0.244463
777,0.410705,0.8238030000000001,0.390718,-0.073989,-0.227261,0.106169
778,0.412083,0.8209719999999999,0.3952,-0.10027,-0.797992,-0.5083439999999999
779,0.425677,0.8216399999999999,0.379076,-0.330935,0.197067,-0.489915
780,0.433408,0.8254290000000001,0.361685,-0.679059,1.343577,-0.494467
781,0.430263,0.834881,0.343275,-0.509151,0.806415,-0.580687
782,0.424106,0.846251,0.322466,-0.264072,0.0539409999999999,-0.32593
783,0.4264529999999999,0.8557239999999999,0.29303,-0.031342,-0.19627,-0.341385
784,0.436706,0.860268,0.2630969999999999,0.167451,-0.109231,-0.254536
785,0.4494479999999999,0.8610469999999999,0.2378809999999999,0.308013,-0.123743,-0.061336
786,0.463602,0.858626,0.218694,0.409033,-0.190154,0.129435
787,0.4765319999999999,0.856353,0.19892,0.141037,-0.1578369999999999,0.089898
788,0.488321,0.8544149999999999,0.177514,-0.115976,0.07251,-0.050744
789,0.495039,0.854359,0.158118,-0.280271,0.151119,-0.122351
790,0.499829,0.854561,0.141029,-0.270963,0.115119,-0.041007
791,0.503101,0.854988,0.126015,-0.2106969999999999,0.033333,0.07798
792,0.505883,0.855461,0.110739,-0.17437,-0.021049,0.123697
793,0.509717,0.8553,0.092973,-0.267575,0.033951,0.117644
794,0.5137,0.8545950000000001,0.075988,-0.277128,0.132176,0.038911
795,0.516785,0.853952,0.0607809999999999,-0.2214809999999999,0.11872,0.046015
796,0.5191359999999999,0.853417,0.046605,-0.22664,0.124702,0.064083
797,0.515558,0.8558959999999999,0.040454,-0.1876,0.131409,-0.042361
798,0.510478,0.8592920000000001,0.032003,-0.121424,0.03852,-0.145818
799,0.508076,0.861117,0.01816,-0.115391,0.032041,-0.085802
800,0.50593,0.862539,0.007554,-0.076029,0.14242,-0.038164
801,0.5019170000000001,0.8649100000000001,-0.002142,0.001852,0.2833739999999999,-0.0348
802,0.50617,0.8623350000000001,-0.012836,-0.1549589999999999,0.4595939999999999,0.11272
803,0.508466,0.8609110000000001,-0.01706,-0.312985,0.427389,0.017594
804,0.507999,0.8611489999999999,-0.01882,-0.263462,0.373623,0.063162
805,0.504976,0.863051,-0.011719,-0.227831,0.354051,0.0541539999999999
806,0.4993729999999999,0.866351,0.007554,-0.155944,0.356305,0.18016
807,0.492818,0.8692850000000001,0.038324,-0.148717,0.284935,0.175848
808,0.4867439999999999,0.8695430000000001,0.0834879999999999,-0.1532329999999999,0.100092,0.130715
809,0.4801569999999999,0.866052,0.139277,-0.142389,0.0422279999999999,-0.183131
810,0.472559,0.8597879999999999,0.193512,-0.124857,0.056457,-0.482818
811,0.463779,0.8524290000000001,0.241386,-0.078709,0.309299,-0.421577
812,0.452934,0.8449840000000001,0.284335,-0.040458,0.5331899999999999,-0.325716
813,0.4392439999999999,0.8389059999999999,0.321394,-0.051488,0.603065,-0.223021
814,0.4225239999999999,0.8340559999999999,0.354705,-0.05259,0.4022409999999999,-0.354888
815,0.404173,0.831448,0.381222,-0.042601,0.108463,-0.43388
816,0.3875719999999999,0.82963,0.401862,0.015763,-0.010203,-0.5083989999999999
817,0.374285,0.8263370000000001,0.420795,0.11363,-0.186109,-0.343784
818,0.3643619999999999,0.822051,0.437565,0.094699,-0.16484,-0.289082
819,0.35773,0.8186899999999999,0.449184,0.038861,-0.151713,-0.326397
820,0.356274,0.815655,0.4558149999999999,-0.087353,-0.12672,-0.403279
821,0.360414,0.8123560000000001,0.4584439999999999,-0.087297,-0.1872339999999999,-0.365564
822,0.369952,0.8099149999999999,0.455155,-0.01166,-0.274194,-0.27887
823,0.3830179999999999,0.809465,0.445036,0.04081,-0.297441,-0.1797619999999999
824,0.39744,0.8118989999999999,0.4276149999999999,0.048177,-0.278986,-0.146029
825,0.411585,0.816466,0.404936,0.0136009999999999,-0.118957,-0.048033
826,0.425664,0.8217110000000001,0.378938,-0.065694,-0.0277509999999999,0.022796
827,0.4421489999999999,0.825383,0.351055,-0.092494,0.08079,0.145588
828,0.45819,0.827377,0.324813,-0.044524,0.248307,0.214005
829,0.4704,0.8262520000000001,0.309879,-0.051577,0.45216,0.321438
830,0.474056,0.823918,0.310521,-0.197399,0.310268,0.4742689999999999
831,0.4658229999999999,0.8254940000000001,0.318689,-0.33034,-0.150491,0.318335
832,0.451088,0.8316309999999999,0.323887,-0.374291,-0.2445639999999999,-0.159916
833,0.440036,0.837259,0.3245909999999999,-0.251498,0.005454,-0.4742949999999999
834,0.4320859999999999,0.8445799999999999,0.316196,-0.032229,0.554773,-0.611866
835,0.421466,0.8556469999999999,0.30038,0.39755,0.828542,-0.53004
836,0.410931,0.861173,0.299184,0.2642239999999999,0.4267149999999999,-0.0066879999999999
837,0.4038199999999999,0.858878,0.315042,0.131641,-0.201102,0.010352
838,0.409142,0.8598959999999999,0.305248,0.243736,-0.98958,-0.3085739999999999
839,0.4278689999999999,0.860302,0.277132,-0.072278,-0.03973,-0.033571
840,0.441116,0.8570909999999999,0.266094,-0.248581,0.8996540000000001,-0.491374
841,0.449496,0.8567469999999999,0.252848,-0.327258,0.513309,-0.255213
842,0.452634,0.8591610000000001,0.238661,-0.182019,0.103089,0.089022
843,0.455413,0.8626790000000001,0.219952,-0.1851799999999999,0.026482,-0.1128349999999999
844,0.4596409999999999,0.865192,0.200416,-0.143326,-0.027363,-0.117668
845,0.462441,0.8681540000000001,0.180144,0.023079,-0.123113,0.029985
846,0.4643529999999999,0.870957,0.160639,0.022021,-0.109924,0.0256399999999999
847,0.467597,0.872409,0.142307,-0.0115269999999999,-0.067599,0.024929
848,0.470559,0.8732620000000001,0.126417,-0.1408319999999999,0.039961,0.008227
849,0.4725819999999999,0.8736649999999999,0.115632,-0.168794,0.037651,0.002975
850,0.473692,0.873742,0.11039,-0.207884,0.013587,0.019615
851,0.474376,0.8733059999999999,0.110896,-0.365886,-0.072327,0.176015
852,0.472386,0.8733129999999999,0.119039,-0.391743,-0.139915,0.193018
853,0.467951,0.8736809999999999,0.133036,-0.307764,-0.193993,0.44016
854,0.4625359999999999,0.8745149999999999,0.145873,-0.451718,-0.125171,0.435884
855,0.452805,0.876383,0.1640609999999999,-0.315919,-0.154947,-0.1888099999999999
856,0.4445449999999999,0.8756700000000001,0.188619,-0.14146,-0.4122,-0.047917
857,0.443481,0.8715200000000001,0.20922,-0.180648,-0.32843,-0.012046
858,0.443003,0.8682489999999999,0.223355,-0.219721,-0.041345,-0.11961
859,0.440426,0.8660680000000001,0.23653,-0.095257,0.2064409999999999,-0.021549
860,0.438691,0.864682,0.244688,-0.1068279999999999,0.2621489999999999,-0.012098
861,0.437366,0.8647959999999999,0.2466489999999999,-0.213062,0.340908,0.013041
862,0.435195,0.864771,0.2505429999999999,-0.3135969999999999,0.337591,-0.025903
863,0.430598,0.861548,0.268915,-0.315608,0.31878,0.092734
864,0.42239,0.853582,0.304926,-0.163083,0.257075,0.1424619999999999
865,0.410871,0.840442,0.3533219999999999,0.111117,0.33453,0.147807
866,0.393104,0.820622,0.414782,0.325585,0.344493,-0.119418
867,0.372815,0.797953,0.473577,0.325427,0.086157,-0.333776
868,0.3578469999999999,0.775833,0.5196390000000001,0.095034,-0.225234,-0.460892
869,0.350191,0.758626,0.5494060000000001,-0.2335679999999999,-0.387365,-0.152388
870,0.341819,0.748838,0.5677989999999999,-0.057426,0.015765,-0.0614059999999999
871,0.3236699999999999,0.747695,0.579815,0.16188,0.354585,-0.104046
872,0.3104369999999999,0.755983,0.576292,0.191745,0.385633,-0.081648
873,0.3045469999999999,0.768331,0.562951,0.172473,-0.1486869999999999,-0.147149
874,0.305021,0.784927,0.5393020000000001,0.085436,-0.426071,-0.179088
875,0.311715,0.804109,0.506201,-0.0033659999999999,-0.505143,-0.215521
876,0.323085,0.8230129999999999,0.467186,-0.142482,-0.514877,-0.007881
877,0.342368,0.8396680000000001,0.4215899999999999,-0.255363,-0.545219,0.239054
878,0.3684409999999999,0.853275,0.369011,-0.229067,-0.326542,0.080071
879,0.404338,0.858367,0.315773,-0.113567,0.412446,-0.227883
880,0.438205,0.8576799999999999,0.268992,0.316845,1.218842,-0.361552
881,0.455667,0.860867,0.226433,0.125464,0.121417,0.199074
882,0.458026,0.868359,0.190161,-0.2254969999999999,-0.769559,0.365534
883,0.448796,0.8789620000000001,0.161261,-0.549534,-1.191965,0.42521
884,0.432172,0.891351,0.13681,-0.716001,-0.984689,-0.024704
885,0.428703,0.894776,0.124846,-0.179832,0.066101,-0.382948
886,0.429097,0.892433,0.1394109999999999,0.13264,1.11309,0.101572
887,0.4208979999999999,0.893863,0.154437,-0.439559,1.289319,0.134824
888,0.392499,0.905137,0.163306,-0.414976,0.308196,-0.072546
889,0.375088,0.912661,0.162348,0.282489,-0.220415,-0.063898
890,0.380709,0.909802,0.1652829999999999,0.474363,1.853275,0.4459229999999999
891,0.373786,0.910069,0.179043,0.071924,0.7325699999999999,-0.327054
892,0.36212,0.913907,0.183415,-0.116148,0.003421,-0.278721
893,0.354476,0.911718,0.207639,-0.51448,-0.320348,0.23244
894,0.3533409999999999,0.907275,0.228028,-0.40368,0.440457,0.647094
895,0.345043,0.90423,0.251615,-0.289485,0.657278,0.389712
896,0.330658,0.8951549999999999,0.298928,0.204666,-0.150389,-0.0129629999999999
897,0.316405,0.8754,0.365458,0.279069,-0.328998,-0.117823
898,0.305656,0.8459260000000001,0.437012,0.283425,-0.450342,-0.242463
899,0.307465,0.8074520000000001,0.503471,0.141433,0.017957,-0.520011
900,0.320919,0.76748,0.5549609999999999,0.224186,0.097358,-0.264281
901,0.318085,0.742035,0.590086,0.259292,0.076813,-0.034056
902,0.308742,0.728533,0.611484,0.011646,0.077634,-0.144565
903,0.299173,0.724032,0.621504,0.049841,0.1079069999999999,-0.1004169999999999
904,0.288882,0.728014,0.621722,0.176786,-0.101061,-0.139925
905,0.285013,0.739588,0.609731,0.156683,-0.357402,-0.288014
906,0.294082,0.756997,0.583495,-0.135787,-0.3807,-0.181609
907,0.317907,0.777609,0.542453,-0.230413,-0.399908,-0.12514
908,0.350546,0.795238,0.49468,-0.361609,-0.500484,0.148417
909,0.383713,0.811087,0.441471,-0.404267,-0.390036,0.391613
910,0.409233,0.830414,0.378069,-0.051796,0.422226,-0.213884
911,0.423131,0.8473,0.320995,0.4582779999999999,1.039418,-0.366771
912,0.426801,0.8619620000000001,0.273602,0.5269189999999999,0.7656930000000001,-0.249798
913,0.428667,0.8726209999999999,0.234035,-0.001115,-0.292589,0.14719
914,0.41368,0.884911,0.214004,-0.416075,-0.355751,0.172502
915,0.385961,0.901418,0.196155,-0.454412,-0.4891859999999999,0.322659
916,0.374836,0.908824,0.183119,0.092556,-0.164073,0.342317
917,0.373121,0.902816,0.213774,0.184038,0.416886,0.354326
918,0.367351,0.9031,0.222396,0.052357,0.643501,-0.687804
919,0.35718,0.909292,0.213557,0.261244,0.725993,0.255971
920,0.351426,0.902552,0.248786,0.238753,1.133397,0.7985770000000001
921,0.339045,0.903063,0.263669,-0.043345,-0.297778,-0.3840909999999999
922,0.333845,0.903301,0.269426,-0.345518,-0.596584,-0.201463
923,0.330334,0.904103,0.2710599999999999,-0.5066189999999999,-0.438618,0.091687
924,0.336623,0.903031,0.266864,0.037859,0.436126,0.314496
925,0.346009,0.900922,0.261944,0.1421349999999999,0.794574,0.1194799999999999
926,0.347917,0.898674,0.267088,-0.192216,0.444008,0.392702
927,0.341469,0.8967129999999999,0.2816059999999999,-0.279472,-0.015701,0.285914
928,0.333137,0.8922040000000001,0.304942,-0.259803,-0.239753,-0.016963
929,0.3245099999999999,0.879648,0.347722,-0.246446,-0.106439,-0.13094
930,0.313031,0.857351,0.4086059999999999,-0.085797,0.152048,-0.19216
931,0.307005,0.823924,0.476336,0.237337,0.280569,-0.341463
932,0.3062,0.7867930000000001,0.535906,0.468946,0.092723,-0.456301
933,0.308712,0.754462,0.5792069999999999,0.422322,-0.080802,-0.5038590000000001
934,0.306475,0.732209,0.608226,-0.002306,-0.262361,-0.044582
935,0.297441,0.72285,0.6237090000000001,-0.1848,-0.0993,-0.211691
936,0.286701,0.721588,0.630167,-0.031284,-0.044495,-0.170511
937,0.272733,0.730498,0.626088,0.2092,-0.093764,-0.149022
938,0.267621,0.74915,0.605929,0.159457,-0.1953619999999999,-0.18619
939,0.281599,0.770675,0.571627,0.082262,-0.202057,-0.119921
940,0.308211,0.790147,0.529783,-0.017988,-0.264528,-0.033048
941,0.335355,0.80782,0.484727,-0.3906679999999999,-0.3946119999999999,0.1943349999999999
942,0.357322,0.826118,0.4357149999999999,-0.366034,-0.321708,0.138352
943,0.3765949999999999,0.8433430000000001,0.383334,-0.291741,-0.185567,-0.040241
944,0.398329,0.8546379999999999,0.333052,0.3199329999999999,0.686469,-0.240965
945,0.4213979999999999,0.862146,0.28129,0.368336,0.6056729999999999,-0.003992
946,0.439608,0.8648299999999999,0.242508,0.376737,0.394737,0.299637
947,0.440942,0.8711709999999999,0.215935,0.187797,-0.190186,0.403221
948,0.430571,0.8837430000000001,0.183312,0.177308,-0.2313989999999999,0.259254
949,0.420925,0.8936950000000001,0.155331,0.0963779999999999,-0.248401,0.149174
950,0.418158,0.89676,0.144783,0.248239,-0.188051,-0.185585
951,0.421913,0.8944409999999999,0.148192,-0.024132,-0.069765,0.088548
952,0.418863,0.891157,0.174325,-0.223597,0.080553,0.479087
953,0.403391,0.8955350000000001,0.187852,-0.525034,-0.172665,-0.440645
954,0.39056,0.9005120000000001,0.191148,-0.361156,-0.143173,-0.817994
955,0.377945,0.903492,0.202129,0.291809,1.200146,0.767171
956,0.3699179999999999,0.903391,0.216888,0.149063,1.797018,1.277558
957,0.339942,0.91372,0.222603,-0.481696,0.488105,-0.443687
958,0.322422,0.920923,0.218955,-0.212558,-0.8642059999999999,-0.285376
959,0.316181,0.921557,0.2252989999999999,-0.348103,-0.8606590000000001,0.122418
960,0.325157,0.919639,0.220307,-0.0499649999999999,0.160134,0.557372
961,0.342178,0.91465,0.215238,0.341385,1.124733,0.198276
962,0.348094,0.913549,0.2103719999999999,0.179052,0.293955,0.053834
963,0.346228,0.915363,0.205511,-0.194632,-0.204684,0.228159
964,0.345395,0.916822,0.200344,-0.393628,0.01253,0.200336
965,0.344683,0.916819,0.201578,-0.528185,0.351461,-0.0378509999999999
966,0.34234,0.914345,0.216273,-0.286234,0.28962,0.068211
967,0.338488,0.907898,0.247273,0.027936,0.22763,0.1580609999999999
968,0.33552,0.895316,0.292973,0.095266,0.2078489999999999,0.079357
969,0.326428,0.8790180000000001,0.347518,0.137485,0.151759,-1.4e-05
970,0.312044,0.857432,0.409188,0.162977,0.000951,-0.269417
971,0.302257,0.829441,0.46975,0.255086,-0.17226,-0.284325
972,0.299737,0.798373,0.522259,0.226676,-0.172869,-0.410122
973,0.298324,0.7723770000000001,0.560742,-0.040786,-0.422371,-0.214108
974,0.291572,0.754325,0.5881970000000001,-0.180625,-0.304419,-0.2776349999999999
975,0.282574,0.742418,0.6074229999999999,0.272983,-0.004488,-0.003709
976,0.265495,0.746961,0.609554,0.490197,0.021975,0.1067849999999999
977,0.261881,0.759898,0.594951,-0.036966,-0.248088,-0.210384
978,0.272132,0.77135,0.575288,-0.106635,-0.3603699999999999,-0.0792399999999999
979,0.288758,0.786461,0.545977,-0.238603,-0.4907609999999999,-0.048861
980,0.311153,0.802104,0.509713,-0.507091,-0.769374,-0.0507279999999999
981,0.331293,0.8220129999999999,0.463178,-0.4458859999999999,-0.684821,-0.132963
982,0.360158,0.8389850000000001,0.407904,-0.366216,-0.5176649999999999,-0.21903
983,0.398638,0.8476969999999999,0.349991,0.378218,0.984777,-0.301819
984,0.435656,0.8533950000000001,0.286209,0.55206,1.189162,-0.075928
985,0.459391,0.8563270000000001,0.2359239999999999,0.63912,0.923779,0.357612
986,0.459512,0.8588549999999999,0.226303,0.073127,0.015489,0.782883
987,0.427626,0.873757,0.231692,-0.1519,-0.22155,0.315504
988,0.400276,0.8959729999999999,0.192373,-0.394783,-0.59507,-0.106573
989,0.402468,0.895905,0.188068,-0.291857,0.404128,0.158703
990,0.399275,0.8833049999999999,0.245659,-0.400572,1.082546,0.957024
991,0.38479,0.8863030000000001,0.257682,-0.351831,1.186817,0.268609
992,0.364781,0.890439,0.27212,0.135005,0.17087,0.1393329999999999
993,0.355528,0.8888969999999999,0.288891,0.135011,0.109241,0.138233
994,0.348017,0.893208,0.2847139999999999,-0.225336,-0.1532329999999999,-0.100448
995,0.345044,0.8977,0.274002,-0.27998,-0.125575,-0.330368
996,0.344916,0.899791,0.267219,-0.072684,0.3708079999999999,0.164117
997,0.346252,0.899041,0.268017,0.051881,0.634361,0.5052369999999999
998,0.3463,0.899098,0.267762,0.056852,0.176021,0.504867
999,0.3431659999999999,0.897191,0.277996,0.009541,0.011607,0.5310090000000001
1000,0.338458,0.8917799999999999,0.300286,-0.226565,-0.057445,0.11814
1001,0.3245389999999999,0.880022,0.3467469999999999,-0.2857969999999999,-0.022066,-0.260397
1002,0.312114,0.85449,0.415245,-0.182003,0.049654,-0.336784
1003,0.3076239999999999,0.817442,0.4869819999999999,0.164666,-0.080275,-0.5206729999999999
1004,0.310959,0.784072,0.5371520000000001,0.302932,-0.176772,-0.6341359999999999
1005,0.309555,0.759737,0.571815,0.1655579999999999,-0.362795,-0.213081
1006,0.300992,0.744868,0.59546,-0.11398,-0.006556,-0.215836
1007,0.287598,0.744708,0.60224,-0.278397,-0.040408,-0.338431
1008,0.27551,0.749447,0.602012,0.008731,-0.141995,-0.194648
1009,0.266766,0.7608699999999999,0.591532,0.060489,-0.427587,-0.270243
1010,0.274051,0.778652,0.564441,0.065717,-0.521541,-0.237262
1011,0.2971,0.7976,0.524941,0.157948,-0.432411,-0.011895
1012,0.330042,0.810743,0.483491,0.0406399999999999,-0.3030989999999999,0.216109
1013,0.364965,0.819164,0.442457,-0.176534,0.027821,0.186495
1014,0.398972,0.8267760000000001,0.396559,-0.0338899999999999,0.607947,0.021425
1015,0.4273949999999999,0.834707,0.3472679999999999,0.18314,0.8997139999999999,0.017524
1016,0.441565,0.844982,0.301699,0.108453,0.314427,0.2174199999999999
1017,0.4428229999999999,0.855108,0.269619,0.1208359999999999,0.100107,0.249623
1018,0.429831,0.869358,0.2438429999999999,-0.032325,0.1847349999999999,0.244759
1019,0.400831,0.888755,0.2223639999999999,-0.160933,-0.296363,-0.362043
1020,0.385964,0.903237,0.187598,-0.0195849999999999,-0.403542,-0.224798
1021,0.380793,0.902593,0.200797,0.004004,-0.2731679999999999,0.2725
1022,0.3735219999999999,0.8977209999999999,0.233614,-0.4318869999999999,0.2279199999999999,0.302747
1023,0.362278,0.905264,0.221919,-0.233814,-0.22814,-0.986979
1024,0.349376,0.910671,0.2204809999999999,-0.050884,0.006382,-0.8335020000000001
1025,0.338068,0.906522,0.252834,-0.137857,0.783648,0.004749
1026,0.314755,0.916429,0.247153,-0.114545,0.773741,0.010431
1027,0.3024199999999999,0.920291,0.248202,-0.19869,-0.8876379999999999,-0.380511
1028,0.302329,0.914313,0.269492,0.077401,0.040185,0.632776
1029,0.320677,0.906061,0.276074,0.165574,0.448401,0.419116
1030,0.331236,0.901992,0.27693,0.126802,0.722565,0.018801
1031,0.334233,0.9001040000000001,0.279462,-0.220738,0.098385,0.4051079999999999
1032,0.33591,0.9003909999999999,0.276511,-0.307163,0.192077,0.371408
1033,0.331712,0.9002629999999999,0.281944,-0.48317,0.406515,0.191765
1034,0.32483,0.8966200000000001,0.300925,-0.4578569999999999,0.2347429999999999,-0.12052
1035,0.312041,0.886785,0.34094,-0.2115469999999999,0.036494,0.160723
1036,0.297256,0.867916,0.397943,0.027298,-0.007961,-0.049783
1037,0.287389,0.840002,0.4602189999999999,0.192103,-0.107717,-0.405516
1038,0.288731,0.803832,0.520083,0.1787369999999999,-0.099227,-0.649112
1039,0.304773,0.7642100000000001,0.5684130000000001,0.139563,-0.229832,-0.518425
1040,0.312715,0.731746,0.6056020000000001,0.109389,-0.477184,-0.066662
1041,0.311676,0.71182,0.629419,-0.010254,-0.189466,-0.080881
1042,0.301382,0.705043,0.641935,0.3216489999999999,0.172276,-0.017835
1043,0.283022,0.713846,0.640563,0.379103,0.16265,-0.074553
1044,0.2836639999999999,0.727292,0.624963,0.1915099999999999,0.098987,-0.186151
1045,0.297855,0.740604,0.602317,-0.0589639999999999,-0.197239,0.023553
1046,0.315698,0.757949,0.570828,-0.180871,-0.252777,0.067798
1047,0.329463,0.780542,0.53123,-0.300136,-0.410013,0.225713
1048,0.338109,0.8078810000000001,0.482709,-0.2407889999999999,-0.672383,0.1353329999999999
1049,0.359305,0.8316469999999999,0.423392,-0.1958069999999999,-0.2497989999999999,-0.210639
1050,0.392461,0.846087,0.3607059999999999,0.062907,0.462522,-0.439655
1051,0.423253,0.855191,0.299172,0.315867,0.8738440000000001,-0.3402489999999999
1052,0.4469479999999999,0.8603639999999999,0.24497,0.132001,0.020663,0.2121219999999999
1053,0.460088,0.8620459999999999,0.2125909999999999,0.177561,-0.2140659999999999,0.407953
1054,0.465974,0.863281,0.193938,0.310454,-0.166535,0.608796
1055,0.462858,0.866772,0.1856539999999999,0.076388,-0.17059,0.327834
1056,0.444701,0.8758549999999999,0.187395,-0.17842,-0.3945929999999999,-0.730745
1057,0.441568,0.8776940000000001,0.186198,-0.121469,-0.016305,-0.05517
1058,0.4357729999999999,0.877375,0.200781,-0.632169,0.39559,0.258753
1059,0.413806,0.887252,0.2038309999999999,-0.418124,1.091508,-0.126637
1060,0.385692,0.89384,0.228673,-0.012004,1.83257,1.0083879999999998
1061,0.360458,0.9001469999999999,0.244548,-0.1006919999999999,-0.074205,-0.606486
1062,0.347442,0.906986,0.238032,-0.201949,-0.81908,-0.55395
1063,0.342683,0.904645,0.253348,-0.302094,-0.622693,-0.1217559999999999
1064,0.355625,0.896601,0.263886,0.106609,0.409292,0.468414
1065,0.368604,0.8922899999999999,0.260669,0.137042,0.481077,0.337536
1066,0.373477,0.8915379999999999,0.256266,0.0996679999999999,0.36896,0.149007
1067,0.377884,0.8917879999999999,0.248829,-0.2068179999999999,-0.00925,0.236889
1068,0.382701,0.890833,0.244856,-0.211634,-0.008295,0.240861
1069,0.385682,0.8893139999999999,0.245698,-0.513001,-0.026246,0.051421
1070,0.387284,0.886549,0.253059,-0.641892,-0.146086,0.001076
1071,0.392344,0.8785139999999999,0.272537,-0.43368,-0.010182,0.202728
1072,0.393323,0.868568,0.3014679999999999,-0.231076,0.020073,-0.112198
1073,0.390044,0.8553959999999999,0.340823,0.013368,0.199597,-0.189929
1074,0.38571,0.8384950000000001,0.384904,0.1078819999999999,0.233481,-0.120026
1075,0.379524,0.8230879999999999,0.422475,0.175804,0.182253,-0.295888
1076,0.373427,0.8111689999999999,0.45006,0.302553,0.074024,-0.246996
1077,0.363014,0.80535,0.468646,0.249703,0.003656,0.008496
1078,0.3503,0.804975,0.478855,0.043606,0.215259,-0.021671
1079,0.340645,0.806458,0.483303,-0.035866,0.396117,-0.020184
1080,0.3345309999999999,0.812296,0.4777659999999999,-0.015149,0.224692,-0.032164
1081,0.335051,0.82075,0.462718,0.08748,-0.145274,-0.1125289999999999
1082,0.341217,0.8293389999999999,0.442452,0.132004,-0.2436,-0.067071
1083,0.3502929999999999,0.837219,0.4199489999999999,0.137164,-0.237975,-0.053586
1084,0.359294,0.8437209999999999,0.3987969999999999,-0.005259,-0.359987,-0.088158
1085,0.3720219999999999,0.8474280000000001,0.378762,-0.086591,-0.379212,-0.12597
1086,0.38995,0.846965,0.361365,-0.07066,-0.3397179999999999,-0.143271
1087,0.411188,0.844994,0.341914,0.020315,-0.17582,-0.086329
1088,0.437057,0.842377,0.315244,0.033753,-0.1129299999999999,0.070026
1089,0.463178,0.839456,0.284211,-0.027418,0.030967,0.229217
1090,0.484171,0.8368559999999999,0.255432,-0.0727179999999999,0.120129,0.4183659999999999
1091,0.494076,0.835515,0.240416,-0.096524,0.230998,0.7863479999999999
1092,0.490383,0.8367030000000001,0.2438199999999999,-0.265621,0.19943,0.982712
1093,0.4734609999999999,0.845765,0.245991,-0.285717,-0.0520179999999999,0.418606
1094,0.454838,0.8561139999999999,0.245332,0.153042,0.163082,0.04573
1095,0.43648,0.8652290000000001,0.2466969999999999,0.166166,0.543737,0.076149
1096,0.416227,0.873525,0.252399,-0.174482,0.529246,-0.100498
1097,0.394489,0.886941,0.240229,0.297863,0.1376109999999999,-1.048411
1098,0.3865449999999999,0.894843,0.223235,0.60549,0.0747309999999999,0.275545
1099,0.384823,0.882073,0.271761,-0.284451,0.548316,0.383741
1100,0.38485,0.878301,0.283679,-0.165581,-0.045979,-0.781848
1101,0.396832,0.883229,0.249852,0.2410159999999999,0.140987,-0.581196
1102,0.404989,0.886257,0.224784,-0.024572,0.645161,-0.3962469999999999
1103,0.409761,0.890862,0.1961,-0.128832,0.390449,-0.135049
1104,0.411463,0.895927,0.167355,-0.1408329999999999,0.065956,-0.139981
1105,0.4155689999999999,0.8984110000000001,0.141968,-0.068859,0.009243,-0.2028049999999999
1106,0.422944,0.8983540000000001,0.118629,0.022124,-0.030648,-0.004417
1107,0.430596,0.896597,0.103423,0.115257,-0.192572,0.044511
1108,0.438808,0.8940229999999999,0.0903679999999999,0.122288,-0.270488,0.081461
1109,0.448103,0.891315,0.06896,-0.0217419999999999,-0.20409,0.1154569999999999
1110,0.456449,0.888675,0.043657,-0.202085,0.011517,0.003249
1111,0.4628569999999999,0.8862,0.02019,-0.282056,0.057998,0.010556
1112,0.468145,0.883649,-0.0005679999999999,-0.174719,0.0576659999999999,0.104938
1113,0.473077,0.880761,-0.02131,-0.17965,0.060554,0.12568
1114,0.47827,0.8773040000000001,-0.039874,-0.1233359999999999,0.103576,0.229357
1115,0.4829739999999999,0.8739459999999999,-0.054318,-0.2439599999999999,0.109956,0.371594
1116,0.486415,0.871174,-0.066723,-0.277538,0.14172,0.278607
1117,0.488137,0.8691690000000001,-0.0791419999999999,-0.280831,0.175128,0.151087
1118,0.4892109999999999,0.8674870000000001,-0.090186,-0.145049,0.190572,0.046912
1119,0.489633,0.8662860000000001,-0.099017,-0.132959,0.219453,0.081912
1120,0.488888,0.8656870000000001,-0.1075589999999999,-0.115201,0.241979,0.144531
1121,0.488172,0.8652610000000001,-0.114048,-0.148618,0.151951,0.273182
1122,0.488092,0.8655459999999999,-0.1122119999999999,-0.191827,0.211465,0.245101
1123,0.487246,0.867115,-0.103431,-0.288073,0.370144,0.081382
1124,0.485234,0.869819,-0.089212,-0.366322,0.328134,-0.050574
1125,0.48058,0.8746389999999999,-0.063591,-0.35059,0.420649,-0.058647
1126,0.475035,0.879358,-0.032666,-0.151152,0.466376,0.039777
1127,0.473387,0.880768,0.012123,0.0729539999999999,0.254714,0.232842
1128,0.47372,0.877871,0.070189,0.073521,0.157042,0.18683
1129,0.47118,0.8727159999999999,0.127867,-0.057698,0.2164719999999999,-0.278471
1130,0.463247,0.8676149999999999,0.180665,-0.117879,0.216965,-0.438554
1131,0.451694,0.8642129999999999,0.2215869999999999,-0.221439,0.278442,-0.455383
1132,0.438432,0.8625450000000001,0.25256,-0.456346,0.434849,-0.3190429999999999
1133,0.42507,0.860819,0.2798199999999999,-0.200156,0.448538,-0.368153
1134,0.411797,0.8601989999999999,0.300786,-0.085717,0.36444,-0.3795219999999999
1135,0.397471,0.86064,0.31829,0.002355,-0.046553,-0.322761
1136,0.382598,0.861425,0.334003,0.019456,-0.105673,-0.30875
1137,0.3682539999999999,0.8626280000000001,0.346779,-0.012831,-0.113467,-0.233803
1138,0.354943,0.864017,0.357046,-0.058434,-0.045063,-0.249807
1139,0.345013,0.8650540000000001,0.364198,-0.086682,-0.0174889999999999,-0.286882
1140,0.3392969999999999,0.864986,0.369689,0.01669,0.014668,-0.354506
1141,0.338124,0.862707,0.376033,0.09315,-0.0291959999999999,-0.29124
1142,0.3392239999999999,0.859785,0.381693,0.136759,-0.0569429999999999,-0.226084
1143,0.3411929999999999,0.858145,0.3836219999999999,0.223275,-0.168631,-0.059846
1144,0.343858,0.8583379999999999,0.380801,0.176208,-0.1943359999999999,-0.062228
1145,0.346972,0.8596209999999999,0.375036,0.0754669999999999,-0.21744,-0.086478
1146,0.350394,0.8614950000000001,0.36748,-0.010627,-0.192565,-0.070727
1147,0.354352,0.863749,0.358279,-0.025387,-0.14651,-0.04175
1148,0.359642,0.8661209999999999,0.347107,-0.05384,-0.134462,0.044571
1149,0.3670739999999999,0.868582,0.332884,-0.049203,-0.101615,0.136629
1150,0.3773289999999999,0.8701840000000001,0.316849,-0.065775,-0.017294,0.207031
1151,0.387353,0.8716700000000001,0.300232,-0.221109,0.125354,0.274719
1152,0.391769,0.873713,0.288328,-0.310577,0.24738,0.300601
1153,0.384979,0.877077,0.28726,-0.331604,0.462156,0.2323329999999999
1154,0.367791,0.882659,0.292632,-0.1774069999999999,0.183396,-0.035354
1155,0.352811,0.887921,0.295148,-0.08006,0.011738,-0.102109
1156,0.342726,0.8939440000000001,0.288782,-0.027541,-0.037712,-0.102212
1157,0.33583,0.900225,0.2771389999999999,0.6661229999999999,0.204465,-0.379266
1158,0.329575,0.905911,0.265891,0.6723779999999999,0.1987799999999999,-0.3680179999999999
1159,0.3308,0.904747,0.26832,0.381374,0.202766,0.1900079999999999
1160,0.328834,0.900937,0.283146,0.097344,-0.236036,0.235317
1161,0.325906,0.90146,0.28486,-0.012567,-0.887956,-0.218576
1162,0.334992,0.905654,0.259926,-0.0569309999999999,-0.630004,-0.435615
1163,0.350107,0.907426,0.232364,-0.266596,0.460066,-0.486881
1164,0.356977,0.907289,0.222227,-0.6074039999999999,0.967528,-0.217359
1165,0.3562909999999999,0.909957,0.212193,-0.538817,0.399034,-0.13535
1166,0.354953,0.91461,0.193615,-0.147494,-0.1766039999999999,-0.366344
1167,0.358898,0.916968,0.174222,0.208637,-0.049673,-0.058484
1168,0.364747,0.917302,0.15971,0.306121,0.0996809999999999,0.007405
1169,0.370845,0.917117,0.146153,0.327336,-0.018603,-0.045368
1170,0.374741,0.917355,0.134237,0.325179,-0.3146489999999999,-0.076497
1171,0.381865,0.915998,0.1229529999999999,0.25493,-0.271864,-0.063581
1172,0.391354,0.913584,0.110446,0.074512,-0.021051,-0.084003
1173,0.399084,0.911922,0.095513,-0.135534,0.092153,-0.138375
1174,0.404532,0.911182,0.078049,-0.159049,0.092113,-0.1170809999999999
1175,0.409257,0.910435,0.060077,-0.1288,0.035183,-0.040164
1176,0.414631,0.909026,0.041765,-0.101292,-0.054152,0.139113
1177,0.4208149999999999,0.906868,0.0222699999999999,-0.14512,0.087211,0.287529
1178,0.425411,0.904992,0.002662,-0.239544,0.185096,0.329125
1179,0.426856,0.904201,-0.014359,-0.2530739999999999,0.241002,0.258576
1180,0.4249239999999999,0.904884,-0.024827,-0.178983,0.130898,0.137284
1181,0.4202939999999999,0.907066,-0.024023,-0.105826,0.0155719999999999,0.0686399999999999
1182,0.414188,0.91002,-0.017459,-0.007755,-0.010713,0.125033
1183,0.404328,0.914598,-0.004647,0.029906,0.125426,0.158867
1184,0.39481,0.91871,0.009365,0.028087,0.353491,0.099079
1185,0.382441,0.923484,0.030122,0.148,0.5588,0.030532
1186,0.370831,0.926926,0.0573169999999999,0.2111699999999999,0.373337,0.057231
1187,0.362236,0.926775,0.099321,0.187096,0.125593,0.263182
1188,0.351674,0.92317,0.1551529999999999,0.195323,0.030687,0.053114
1189,0.338647,0.916561,0.21266,0.113883,-0.094112,-0.263838
1190,0.33125,0.904115,0.269887,0.05379,-0.180207,-0.471029
1191,0.327282,0.888725,0.321005,-0.115322,0.0555809999999999,-0.302175
1192,0.3215949999999999,0.877065,0.356822,-0.028901,0.337626,-0.043742
1193,0.313944,0.868232,0.384189,0.222113,0.517663,-0.178836
1194,0.302019,0.8615729999999999,0.408002,0.294066,0.230819,-0.399335
1195,0.287209,0.8559770000000001,0.429888,0.250694,-0.269856,-0.386293
1196,0.272932,0.850758,0.4491189999999999,0.029772,-0.4277229999999999,-0.286124
1197,0.262807,0.846434,0.463109,-0.023992,-0.410292,-0.302754
1198,0.255079,0.843073,0.473445,-0.030897,-0.394129,-0.283366
1199,0.249026,0.841717,0.479047,-0.035586,-0.505993,-0.184659
1200,0.247815,0.8418690000000001,0.479408,-0.046002,-0.5428270000000001,-0.15969
1201,0.253596,0.8434440000000001,0.47358,-0.068476,-0.578521,-0.128076
1202,0.26702,0.8464780000000001,0.460611,-0.2155369999999999,-0.569455,-0.102213
1203,0.285168,0.8504959999999999,0.441953,-0.233685,-0.573473,-0.0835549999999999
1204,0.3032,0.855678,0.4193729999999999,-0.294685,-0.334346,-0.180069
1205,0.318949,0.862375,0.393153,-0.1333869999999999,-0.205591,-0.0996809999999999
1206,0.33441,0.8685729999999999,0.365704,0.0021079999999999,-0.0395779999999999,0.001819
1207,0.350837,0.8743,0.335413,0.125252,0.076674,0.136053
1208,0.360612,0.883191,0.2998679999999999,0.291915,0.077166,0.091108
1209,0.3604199999999999,0.893824,0.266768,0.231484,-0.134562,-0.076552
1210,0.359519,0.900293,0.2453719999999999,0.112374,-0.280344,-0.108027
1211,0.358684,0.903071,0.236219,-0.048976,-0.16662,0.051043
1212,0.349814,0.906555,0.236177,-0.280875,0.226365,-0.046999
1213,0.328858,0.915618,0.231269,-0.40178,0.462342,-0.5183939999999999
1214,0.310857,0.918236,0.245359,-0.008611,0.111824,0.545916
1215,0.29334,0.912052,0.286537,0.036219,0.1244619999999999,0.490212
1216,0.277627,0.915617,0.2907889999999999,0.105429,-0.028975,-0.129518
1217,0.2705639999999999,0.913166,0.304816,0.3645219999999999,1.362377,0.9983
1218,0.262785,0.907256,0.328359,-0.00305,0.396744,-0.234334
1219,0.246898,0.911403,0.329203,-0.095547,-0.4500689999999999,-0.360636
1220,0.240806,0.909696,0.338311,-0.1121279999999999,-0.5876899999999999,-0.413659
1221,0.247426,0.908286,0.33732,0.070521,0.087594,0.192038
1222,0.260319,0.906972,0.331097,0.252895,0.693187,0.381015
1223,0.266109,0.905574,0.330319,0.215901,0.712026,0.502567
1224,0.259934,0.906725,0.332074,-0.084992,0.075072,0.162342
1225,0.249492,0.907593,0.3376639999999999,-0.2132219999999999,-0.060547,0.098036
1226,0.235713,0.902005,0.361683,-0.205455,-0.046597,-0.084507
1227,0.220259,0.889056,0.401313,-0.117201,0.021055,-0.265907
1228,0.208648,0.865201,0.455938,0.203171,0.063739,-0.3360039999999999
1229,0.205025,0.834708,0.511091,0.484962,-0.0528779999999999,-0.414473
1230,0.205475,0.805207,0.556246,0.499389,-0.250367,-0.448076
1231,0.2076449999999999,0.783764,0.5853079999999999,0.244534,-0.352565,-0.152722
1232,0.2015549999999999,0.771686,0.603212,-0.035051,-0.166751,-0.2010819999999999
1233,0.1958079999999999,0.765966,0.612325,-0.052498,-0.094015,-0.243139
1234,0.18616,0.7651819999999999,0.616302,0.176221,-0.077209,-0.204604
1235,0.17472,0.776127,0.605876,0.397149,-0.156574,-0.21516
1236,0.1772099999999999,0.794247,0.581166,0.4165859999999999,-0.0253569999999999,-0.260823
1237,0.197445,0.8091,0.553497,0.281543,-0.049563,0.049439
1238,0.217763,0.8212790000000001,0.527321,-0.086461,-0.334996,0.319557
1239,0.232977,0.8379770000000001,0.493462,-0.379598,-0.449564,0.4105
1240,0.250173,0.859024,0.446631,-0.434026,-0.380905,0.29635
1241,0.275789,0.8751399999999999,0.397566,-0.176088,0.257169,-0.423292
1242,0.3054,0.8824790000000001,0.357702,-0.016063,0.5318890000000001,-0.4140979999999999
1243,0.325071,0.8913049999999999,0.316058,0.286699,0.1118079999999999,-0.046329
1244,0.332727,0.90147,0.276826,0.337118,-0.170956,0.057326
1245,0.336455,0.909934,0.242503,0.270296,-0.1231599999999999,0.248693
1246,0.3311429999999999,0.91962,0.211267,0.154498,-0.076633,0.442084
1247,0.3136739999999999,0.930916,0.187067,0.0011,-0.298775,-0.4487859999999999
1248,0.305209,0.938727,0.160092,0.009564,-0.306586,-0.421811
1249,0.301166,0.936545,0.179366,-0.109607,-0.0695559999999999,0.341859
1250,0.29341,0.931449,0.2151829999999999,-0.340758,0.021462,0.5001939999999999
1251,0.286442,0.933818,0.214302,0.064449,0.0942279999999999,-0.207009
1252,0.28017,0.928073,0.245307,0.52786,1.514584,0.238564
1253,0.269305,0.923496,0.273169,-0.217715,0.635739,-0.013861
1254,0.256767,0.927737,0.270859,-0.1295079999999999,-0.163806,-0.6159819999999999
1255,0.251242,0.928097,0.274779,-0.161718,-0.589367,-0.276382
1256,0.260709,0.926396,0.271685,0.049823,0.5071060000000001,0.4177689999999999
1257,0.26794,0.925276,0.268447,0.070332,0.69887,0.381317
1258,0.265099,0.925686,0.269849,0.080207,0.7772399999999999,0.279208
1259,0.256506,0.926641,0.274833,0.064966,-0.020055,0.282174
1260,0.24669,0.927035,0.282384,0.001357,-0.187488,0.064799
1261,0.239438,0.921443,0.305944,-0.03111,-0.306346,-0.086919
1262,0.232685,0.909556,0.344319,-0.143895,-0.292155,-0.2758219999999999
1263,0.223359,0.8918969999999999,0.393216,-0.1158,-0.214834,-0.472333
1264,0.2209179999999999,0.86059,0.458877,0.175216,0.157934,-0.286987
1265,0.225631,0.824018,0.5196850000000001,0.49466,0.155321,-0.41884
1266,0.230196,0.79368,0.5630890000000001,0.608046,-0.204019,-0.272394
1267,0.22298,0.773958,0.592669,0.126736,-0.149049,-0.103915
1268,0.20839,0.76545,0.608809,-0.042832,-0.161476,-0.096937
1269,0.190289,0.7663909999999999,0.613532,0.2195619999999999,-0.098697,-0.140174
1270,0.171542,0.774733,0.6085619999999999,0.3018619999999999,-0.157348,-0.240627
1271,0.166052,0.788161,0.592635,0.214166,-0.31639,-0.249846
1272,0.176626,0.8054060000000001,0.565785,0.140101,-0.332155,-0.200871
1273,0.199864,0.823534,0.530881,0.036342,-0.507005,0.011645
1274,0.226604,0.8405030000000001,0.4921319999999999,-0.040752,-0.562243,0.137049
1275,0.254913,0.8584709999999999,0.445011,-0.156891,-0.121518,0.056866
1276,0.284673,0.877591,0.3857239999999999,-0.064961,0.520877,-0.059888
1277,0.305223,0.895741,0.323227,0.271788,0.96249,-0.156006
1278,0.310338,0.910047,0.27476,0.254481,-0.012464,0.060124
1279,0.30239,0.9178,0.257281,-0.204093,-0.260802,-0.115969
1280,0.2746159999999999,0.928999,0.248063,-0.359272,-0.6690659999999999,-0.1491859999999999
1281,0.257621,0.940517,0.221466,-0.022346,-0.8567469999999999,0.2268219999999999
1282,0.260439,0.929829,0.259957,0.206251,0.192882,0.725471
1283,0.259463,0.919801,0.294335,0.1481299999999999,1.2902360000000002,0.303658
1284,0.236713,0.934633,0.265362,-0.121921,0.367674,-1.255779
1285,0.21151,0.940445,0.266109,-0.127801,0.2783199999999999,-0.8840899999999999
1286,0.198495,0.940044,0.277317,0.064124,0.607503,0.56329
1287,0.190897,0.942649,0.273788,0.13024,0.330987,0.043305
1288,0.191734,0.942023,0.275353,0.177452,-0.059378,-0.101998
1289,0.197066,0.936901,0.288736,0.2075969999999999,0.2191199999999999,0.561377
1290,0.200682,0.932908,0.298992,0.248033,0.355284,0.6678970000000001
1291,0.199175,0.931817,0.30337,0.076658,0.046713,0.129522
1292,0.196425,0.927919,0.316813,-0.079435,-0.076509,0.096258
1293,0.1928099999999999,0.91935,0.342937,-0.179046,-0.170678,-0.1155349999999999
1294,0.186097,0.904023,0.384833,-0.196244,-0.1121839999999999,-0.2742679999999999
1295,0.1785,0.8801450000000001,0.43985,-0.038164,-0.073764,-0.4195859999999999
1296,0.178331,0.846987,0.500796,0.121199,0.053449,-0.527285
1297,0.184394,0.8098489999999999,0.556892,0.388238,0.019878,-0.386955
1298,0.186523,0.782528,0.594007,0.434357,-0.314892,-0.314313
1299,0.181143,0.766721,0.6158819999999999,0.023538,-0.221387,-0.161857
1300,0.173523,0.759215,0.627268,0.025345,-0.1787099999999999,-0.054087
1301,0.160163,0.760026,0.629835,0.279946,0.01184,-0.103361
1302,0.146329,0.770897,0.619912,0.335025,0.040398,-0.124489
1303,0.145189,0.78942,0.5964229999999999,0.225508,-0.176826,-0.172869
1304,0.163695,0.808319,0.565516,0.123628,-0.255844,-0.058253
1305,0.190772,0.82529,0.5314949999999999,-0.030341,-0.326831,0.1713859999999999
1306,0.211938,0.84452,0.4917859999999999,-0.0597309999999999,-0.448967,0.240071
1307,0.230573,0.8685809999999999,0.4386229999999999,-0.074964,-0.2373849999999999,-0.163125
1308,0.256652,0.8885780000000001,0.38019,0.1127329999999999,0.278429,-0.490526
1309,0.287196,0.899302,0.329792,0.41216,0.734015,-0.372028
1310,0.314702,0.904288,0.288469,0.35139,0.127618,0.108443
1311,0.333239,0.904459,0.266257,0.16673,-0.274378,0.399972
1312,0.330571,0.905932,0.264571,-0.195302,-0.4299949999999999,0.514146
1313,0.302477,0.918166,0.255865,-0.429338,-0.752196,0.065943
1314,0.28617,0.930615,0.228145,-0.137977,-0.4655729999999999,-0.47755
1315,0.282934,0.926887,0.24661,-0.008414,0.716576,0.183077
1316,0.274782,0.919749,0.280257,-0.05565,1.424916,0.262972
1317,0.25629,0.924378,0.282541,0.023236,0.286484,-0.247705
1318,0.2359139999999999,0.927328,0.290509,0.057573,0.124278,0.27373
1319,0.226566,0.926895,0.299202,0.0341,0.468674,0.15168
1320,0.217507,0.928795,0.300031,0.015434,0.204216,-0.252058
1321,0.21452,0.92719,0.307063,-0.027356,-0.041676,0.003865
1322,0.214257,0.92152,0.323854,0.0654059999999999,0.0359079999999999,0.598372
1323,0.215443,0.917848,0.333353,0.246685,0.141234,0.400335
1324,0.211317,0.917634,0.33657,0.039263,0.123413,0.099938
1325,0.202692,0.914793,0.349365,-0.083597,-0.060804,-0.100845
1326,0.193056,0.905536,0.377784,-0.155076,-0.134509,-0.255012
1327,0.181057,0.885706,0.427467,-0.146404,0.0271509999999999,-0.20742
1328,0.172117,0.854909,0.489376,0.202166,0.008265,-0.41505
1329,0.175112,0.817641,0.5484359999999999,0.35684,-0.0597059999999999,-0.446614
1330,0.184493,0.7827810000000001,0.5943039999999999,0.4388289999999999,-0.15154,-0.5301710000000001
1331,0.190711,0.757012,0.624935,0.090311,-0.032128,-0.123791
1332,0.187794,0.7431439999999999,0.642224,0.093227,-0.01826,-0.1410799999999999
1333,0.175722,0.7411840000000001,0.64788,0.3890969999999999,0.092464,-0.06655
1334,0.1564819999999999,0.752081,0.6402100000000001,0.53613,0.019541,-0.182813
1335,0.151112,0.769491,0.620508,0.407986,-0.1196339999999999,-0.169992
1336,0.164434,0.786285,0.595565,0.190012,-0.280212,-0.165802
1337,0.187838,0.801995,0.567012,-0.2474239999999999,-0.479454,0.173924
1338,0.207067,0.8212809999999999,0.531604,-0.282461,-0.6028979999999999,0.203183
1339,0.22635,0.842715,0.488446,-0.237123,-0.663181,0.175433
1340,0.258586,0.8611280000000001,0.437693,0.1880079999999999,0.304659,-0.285334
1341,0.300262,0.8707159999999999,0.389461,0.359848,0.831508,-0.3154099999999999
1342,0.336995,0.877475,0.341257,0.462642,0.623273,0.199896
1343,0.354346,0.8844479999999999,0.303602,0.122109,-0.106983,0.30057
1344,0.3557869999999999,0.892058,0.278628,0.1043109999999999,-0.241133,0.301664
1345,0.349966,0.900994,0.256359,-0.0578059999999999,-0.546715,0.4535869999999999
1346,0.337104,0.911094,0.23718,-0.44805,-0.681236,-0.148816
1347,0.321289,0.921911,0.216426,-0.071716,-0.504827,-0.964534
1348,0.32327,0.92231,0.2117239999999999,0.057346,-0.17405,0.012062
1349,0.332016,0.911952,0.24103,-0.411545,0.844274,0.983091
1350,0.31686,0.914954,0.24989,-0.441722,0.375298,-0.4539
1351,0.290648,0.92639,0.2393969999999999,0.348757,0.462068,-0.3780989999999999
1352,0.275613,0.925507,0.259731,0.312339,1.003418,0.988285
1353,0.264085,0.923557,0.278007,-0.153092,0.117673,-0.234703
1354,0.251723,0.927711,0.275631,-0.197158,-0.595344,-0.467282
1355,0.252616,0.924462,0.285555,-0.143379,-0.67379,-0.404131
1356,0.261799,0.918214,0.297205,0.007977,-0.188798,0.259283
1357,0.280153,0.911385,0.301459,0.19644,0.3951639999999999,0.445565
1358,0.294953,0.911773,0.285759,-0.043167,0.410996,0.03582
1359,0.302885,0.914789,0.2672219999999999,-0.36595,0.2378289999999999,0.069143
1360,0.307538,0.917277,0.252999,-0.589017,0.184316,0.030417
1361,0.310633,0.918187,0.245819,-0.547113,0.055019,0.170929
1362,0.319668,0.914465,0.2480969999999999,-0.396603,0.038736,0.137813
1363,0.333128,0.905369,0.263285,0.182147,0.393276,0.058309
1364,0.3452389999999999,0.892358,0.290678,0.515433,0.382315,0.211855
1365,0.35064,0.8787799999999999,0.323702,0.476447,0.1572609999999999,0.253416
1366,0.347113,0.867015,0.357469,0.295649,-0.059215,-0.288468
1367,0.339711,0.8576290000000001,0.386076,0.216105,0.167945,-0.473814
1368,0.333515,0.84864,0.4105649999999999,0.29768,0.680733,-0.413342
1369,0.323628,0.841467,0.432647,0.283977,0.966669,-0.006011
1370,0.317507,0.8386040000000001,0.442627,0.052305,0.516941,-0.222137
1371,0.309865,0.839751,0.445855,-0.000889,0.03621,-0.316934
1372,0.303003,0.8432299999999999,0.444001,0.035681,-0.0778799999999999,-0.300676
1373,0.298782,0.8473209999999999,0.439047,0.102799,0.026534,-0.296224
1374,0.296278,0.8523639999999999,0.430906,0.176226,0.034339,-0.21736
1375,0.29589,0.8574440000000001,0.420981,0.080957,0.012749,-0.316138
1376,0.3007559999999999,0.859181,0.4139319999999999,0.012751,-0.028737,-0.319297
1377,0.3120179999999999,0.8559450000000001,0.412297,0.081872,-0.1482119999999999,-0.247121
1378,0.32535,0.8492540000000001,0.415813,0.136045,-0.207103,-0.114146
1379,0.33557,0.8429840000000001,0.4204229999999999,0.099625,-0.139569,0.084689
1380,0.342194,0.8414510000000001,0.41815,0.039367,-0.101384,0.0564289999999999
1381,0.348217,0.8434590000000001,0.409032,-0.041973,-0.078719,-0.032964
1382,0.352608,0.844822,0.402403,-0.0862049999999999,-0.104664,-0.162138
1383,0.357842,0.842666,0.402303,-0.092659,-0.124939,-0.179113
1384,0.367206,0.837397,0.404858,-0.072391,-0.0588789999999999,-0.017163
1385,0.38047,0.831592,0.404578,-0.125968,0.056271,0.052499
1386,0.395345,0.8267329999999999,0.40025,-0.189199,0.184909,0.175922
1387,0.4055,0.8227209999999999,0.398354,-0.257917,0.231906,0.290336
1388,0.405047,0.8209200000000001,0.402509,-0.265215,0.2174559999999999,0.121539
1389,0.396665,0.8235120000000001,0.405551,-0.154951,0.117971,-0.14812
1390,0.392321,0.826749,0.403183,-0.0373709999999999,0.088946,-0.063049
1391,0.39088,0.8303659999999999,0.397104,0.068944,0.133242,0.045722
1392,0.388474,0.836333,0.386811,0.207138,0.245805,-0.2293099999999999
1393,0.3827,0.8423370000000001,0.379467,0.384573,0.312066,-0.436626
1394,0.376974,0.8456950000000001,0.377727,0.346003,0.303216,-0.141429
1395,0.377222,0.843965,0.38133,0.152868,-0.137102,0.152453
1396,0.378592,0.8387020000000001,0.39145,-0.000739,-0.586306,-0.0984049999999999
1397,0.380941,0.8375959999999999,0.391538,-0.019796,-0.743923,-0.568921
1398,0.394387,0.8395459999999999,0.373641,-0.033242,-0.745872,-0.551025
1399,0.411708,0.840148,0.353035,-0.458583,0.952607,-0.543755
1400,0.418855,0.8428610000000001,0.337833,-0.354432,0.495976,-0.250324
1401,0.4202189999999999,0.844908,0.330955,-0.151542,0.238771,-0.307304
1402,0.4213699999999999,0.84783,0.321897,0.324785,-0.358069,-0.1030859999999999
1403,0.433976,0.8486610000000001,0.3023659999999999,0.172058,-0.3224619999999999,-0.028349
1404,0.4512229999999999,0.8490979999999999,0.274622,-0.057195,0.0565419999999999,-0.2192329999999999
1405,0.462938,0.8525950000000001,0.242398,-0.04532,0.270482,-0.367565
1406,0.469091,0.856725,0.214389,-0.004979,0.192301,-0.163073
1407,0.47457,0.8589459999999999,0.1923079999999999,0.011026,0.0872059999999999,-0.026094
1408,0.480747,0.8593209999999999,0.1744619999999999,-0.075809,-0.103126,0.089728
1409,0.487496,0.859017,0.1562859999999999,-0.126656,-0.043114,0.01356
1410,0.493351,0.858856,0.137698,-0.1887849999999999,0.082841,-0.076572
1411,0.4989689999999999,0.8582930000000001,0.119799,-0.184302,0.118681,-0.1156789999999999
1412,0.504842,0.8572049999999999,0.101599,-0.16071,0.0291629999999999,-0.016181
1413,0.511073,0.855726,0.080783,-0.212428,0.0295889999999999,0.066541
1414,0.517051,0.853972,0.05814,-0.242026,0.112688,0.127239
1415,0.520766,0.85288,0.037267,-0.215209,0.201823,0.138347
1416,0.52159,0.85288,0.023021,-0.142363,0.237757,0.073476
1417,0.519843,0.8541270000000001,0.014851,-0.112754,0.218444,-0.0514409999999999
1418,0.515284,0.8569469999999999,0.010686,-0.151148,0.199724,-0.113119
1419,0.51162,0.8591639999999999,0.008564,-0.1398849999999999,0.276701,0.092556
1420,0.510312,0.859952,0.0073569999999999,-0.140256,0.307009,0.22714
1421,0.507877,0.8613200000000001,0.013405,-0.155994,0.261788,0.173545
1422,0.503961,0.8632780000000001,0.027658,-0.109979,0.243885,-0.155176
1423,0.499055,0.865144,0.049598,-0.082444,0.283523,-0.019446
1424,0.494618,0.8651620000000001,0.082679,0.002773,0.205837,-0.156135
1425,0.49127,0.863317,0.115442,0.080446,0.109172,-0.142679
1426,0.486802,0.8595360000000001,0.155596,0.1903369999999999,-0.098748,-0.079424
1427,0.481059,0.854867,0.194354,0.054082,0.023124,-0.334323
1428,0.474975,0.850197,0.22705,0.060166,0.027793,-0.367018
1429,0.4679109999999999,0.846209,0.254906,0.139313,0.168363,-0.321938
1430,0.460508,0.843448,0.276613,0.261309,0.184887,-0.332948
1431,0.455275,0.840449,0.293867,0.288301,0.12821,-0.347242
1432,0.455291,0.834341,0.310762,0.313416,-0.244161,-0.304094
1433,0.4598239999999999,0.826624,0.324409,0.183517,-0.443125,-0.249854
1434,0.4690689999999999,0.817423,0.334337,0.08809,-0.318537,-0.230501
1435,0.483093,0.807038,0.339555,0.1940309999999999,-0.109971,-0.213655
1436,0.495465,0.798802,0.341198,0.383029,-0.021764,-0.181393
1437,0.505664,0.7930619999999999,0.339622,0.6535310000000001,-0.019411,-0.115272
1438,0.514853,0.7868430000000001,0.340281,0.575036,-0.0500269999999999,-0.178248
1439,0.521346,0.7778729999999999,0.350855,0.270631,0.011419,-0.126963
1440,0.519633,0.770181,0.369851,0.162374,0.137702,-0.053536
1441,0.509716,0.7656890000000001,0.392297,-0.022274,0.147367,-0.023599
1442,0.4946819999999999,0.764525,0.413252,-0.5023880000000001,0.085771,-0.1506019999999999
1443,0.481731,0.7672829999999999,0.4233189999999999,-0.6610520000000001,-0.013011,-0.449075
1444,0.4875489999999999,0.765062,0.420668,-0.301453,-0.054598,-0.314207
1445,0.5003340000000001,0.7606850000000001,0.413534,-0.073134,-0.097858,-0.027441
1446,0.505866,0.759944,0.408131,0.056146,-0.134364,0.14883
1447,0.499793,0.768887,0.398756,-0.187247,0.0031309999999999,0.127245
1448,0.484573,0.7902359999999999,0.375103,-0.342895,0.0233169999999999,0.02924
1449,0.464221,0.818864,0.337562,-0.651492,0.054412,-0.231773
1450,0.435924,0.8529040000000001,0.287251,-0.058528,0.399171,-0.297489
1451,0.396123,0.877036,0.271813,0.509242,0.404794,-0.1655049999999999
1452,0.394399,0.8695280000000001,0.297251,0.652537,-0.622305,0.8466540000000001
1453,0.4341649999999999,0.8425879999999999,0.318644,0.033135,-0.745023,0.317189
1454,0.464133,0.818105,0.339518,-0.415641,0.424068,-1.32223
1455,0.4782149999999999,0.8148770000000001,0.327527,-0.709477,1.211918,-0.4179199999999999
1456,0.4770609999999999,0.819157,0.318405,-0.689006,0.920299,-0.161789
1457,0.462341,0.8336680000000001,0.302037,-0.4356069999999999,0.358776,-0.365545
1458,0.4525689999999999,0.846094,0.281591,-0.385995,0.019674,-0.208867
1459,0.45224,0.85225,0.26294,-0.184418,-0.125657,-0.259812
1460,0.458334,0.8541219999999999,0.245752,0.055475,-0.14822,-0.013651
1461,0.467972,0.853794,0.228091,0.138077,-0.079167,0.0699429999999999
1462,0.476409,0.853675,0.210384,0.110719,0.038293,0.042668
1463,0.482795,0.854555,0.191394,-0.072257,0.022932,0.011472
1464,0.4885739999999999,0.855316,0.172391,-0.183719,0.03415,0.033801
1465,0.494084,0.855509,0.154836,-0.377751,0.086615,0.057444
1466,0.49854,0.8554350000000001,0.14028,-0.385441,0.1236299999999999,0.004602
1467,0.502317,0.855585,0.125067,-0.3352179999999999,0.15177,0.048456
1468,0.506127,0.855943,0.105766,-0.332894,0.153029,0.02134
1469,0.50975,0.856101,0.085063,-0.2856599999999999,0.057244,0.009679
1470,0.512662,0.855925,0.067527,-0.168439,-0.072173,0.009408
1471,0.51522,0.855453,0.0523299999999999,-0.0669169999999999,-0.023925,0.0573039999999999
1472,0.5187069999999999,0.8541629999999999,0.036577,-0.055084,0.072991,0.129668
1473,0.5231180000000001,0.851974,0.021835,-0.1017769999999999,0.2432409999999999,0.066162
1474,0.52766,0.8494,0.009112,-0.204479,0.2325539999999999,-0.009493
1475,0.5326890000000001,0.846301,-0.002592,-0.3461349999999999,0.191693,0.071974
1476,0.537554,0.843153,-0.010884,-0.414568,0.265612,0.044407
1477,0.541098,0.84085,-0.013203,-0.262763,0.531587,-0.030284
1478,0.543689,0.839184,-0.01273,-0.197726,0.59946,0.199314
1479,0.54409,0.8390139999999999,-0.003459,-0.27697,0.602911,0.353526
1480,0.5387,0.8421,0.025693,-0.2549929999999999,0.555605,0.1221339999999999
1481,0.527287,0.8471360000000001,0.065725,-0.209202,0.4126149999999999,0.142877
1482,0.513594,0.8502149999999999,0.115516,-0.160277,0.2748,0.111214
1483,0.499015,0.848599,0.175645,0.162224,0.046313,-0.160692
1484,0.487079,0.8415959999999999,0.2333599999999999,0.347928,0.124758,-0.269707
1485,0.477302,0.8317700000000001,0.283425,0.132974,0.213198,-0.307091
1486,0.4680359999999999,0.820873,0.327256,-0.0605039999999999,0.352207,-0.1177069999999999
1487,0.451752,0.8116949999999999,0.370214,-0.102814,0.498181,-0.262594
1488,0.4304949999999999,0.806463,0.405313,-0.072768,0.393367,-0.38714
1489,0.405727,0.8054399999999999,0.432016,-0.0033829999999999,0.125056,-0.490427
1490,0.379795,0.805595,0.454706,0.0608019999999999,-0.0759809999999999,-0.472879
1491,0.358825,0.803778,0.47452,0.175583,-0.189597,-0.414354
1492,0.344578,0.799183,0.492501,0.157818,-0.24126,-0.441903
1493,0.336496,0.792616,0.508444,0.010535,-0.36717,-0.231421
1494,0.330083,0.787409,0.5205930000000001,-0.0040479999999999,-0.428888,-0.177087
1495,0.325051,0.785365,0.526809,-0.0146419999999999,-0.498393,-0.129928
1496,0.322596,0.7876270000000001,0.524938,-0.151072,-0.641402,-0.085485
1497,0.324084,0.793568,0.51498,-0.197176,-0.5355880000000001,-0.196591
1498,0.328105,0.802595,0.49817,-0.209209,-0.313231,-0.31334
1499,0.334658,0.81233,0.4776069999999999,-0.095752,-0.185896,-0.297645
1500,0.344114,0.81947,0.458301,-0.041807,-0.1850089999999999,-0.125614
1501,0.3601789999999999,0.8222889999999999,0.440564,-0.091075,-0.208642,0.032001
1502,0.377894,0.824276,0.421605,-0.192255,-0.206646,0.061046
1503,0.391334,0.8284540000000001,0.400634,-0.146079,-0.151971,0.048402
1504,0.399169,0.8349209999999999,0.378888,0.04303,-0.023687,-0.208859
1505,0.402093,0.8420709999999999,0.359478,0.19178,0.226457,-0.3609739999999999
1506,0.4073469999999999,0.848233,0.338459,0.185991,0.167437,-0.204013
1507,0.4153239999999999,0.855484,0.309257,-0.135462,-0.0342709999999999,0.02134
1508,0.419692,0.8636809999999999,0.279107,-0.051329,-0.15874,0.114905
1509,0.4159,0.872266,0.257227,-0.00521,-0.202741,0.05451
1510,0.405902,0.881107,0.242653,-0.477527,0.138576,-0.270577
1511,0.3926409999999999,0.8906870000000001,0.229123,-0.601488,0.129028,-0.37576
1512,0.38377,0.8972690000000001,0.218211,-0.051174,0.1979759999999999,0.122853
1513,0.372897,0.8940950000000001,0.24805,0.417371,1.355493,0.671246
1514,0.3662,0.883141,0.293164,0.06834,1.107551,0.335529
1515,0.341541,0.8852059999999999,0.315826,-0.0862309999999999,-0.603788,-0.947051
1516,0.324726,0.8895620000000001,0.321274,-0.216251,-0.748235,-0.251587
1517,0.316821,0.889767,0.328518,-0.067264,0.243259,0.2075389999999999
1518,0.317276,0.893164,0.318712,-0.259217,0.562112,0.089063
1519,0.313199,0.8975860000000001,0.310212,-0.124982,0.240171,0.1164849999999999
1520,0.314067,0.8975799999999999,0.309351,0.101003,0.123889,0.12319
1521,0.321343,0.8949590000000001,0.309471,0.0686259999999999,0.2226409999999999,0.221306
1522,0.327629,0.89336,0.307492,-0.034126,-0.145954,0.336154
1523,0.333039,0.892344,0.304618,-0.182664,0.081396,0.338525
1524,0.335464,0.8905930000000001,0.3070719999999999,-0.351425,0.483995,-0.170978
1525,0.328725,0.8828540000000001,0.335401,-0.354421,0.474202,0.102694
1526,0.312823,0.8659530000000001,0.390194,-0.155551,0.262419,-0.189068
1527,0.298726,0.8410690000000001,0.4509439999999999,-0.046331,0.0912429999999999,-0.384614
1528,0.295302,0.807496,0.510617,0.398805,-0.263582,-0.529233
1529,0.300662,0.773119,0.558455,0.38783,-0.436617,-0.25421
1530,0.302051,0.749632,0.588896,0.168255,-0.461012,0.251954
1531,0.291379,0.743392,0.602037,0.1150539999999999,-0.12239,0.008131
1532,0.271932,0.747093,0.606538,0.112803,0.062004,-0.331834
1533,0.252452,0.754871,0.6053270000000001,0.085194,0.016568,-0.393642
1534,0.2477619999999999,0.7657010000000001,0.593548,0.060313,-0.1238549999999999,-0.344219
1535,0.258714,0.779903,0.569914,-0.07306,-0.177715,-0.074598
1536,0.28143,0.794296,0.538399,-0.098538,-0.24086,0.095054
1537,0.303296,0.810131,0.50168,-0.154095,-0.3581809999999999,0.227507
1538,0.322046,0.828247,0.4585609999999999,-0.148767,-0.367828,1.1e-05
1539,0.346228,0.845937,0.405587,-0.147849,-0.105245,-0.122491
1540,0.374668,0.858561,0.349975,-0.072086,0.314046,-0.2731159999999999
1541,0.397662,0.8678739999999999,0.297734,0.050763,0.14122,0.030543
1542,0.405314,0.877382,0.256726,0.042989,-0.247179,0.1449619999999999
1543,0.404409,0.8848799999999999,0.231145,-0.13973,-0.378227,0.2624
1544,0.394212,0.895538,0.206387,-0.501375,-0.3356929999999999,0.13277
1545,0.3779909999999999,0.907483,0.1832599999999999,-0.257004,-0.243878,-0.331545
1546,0.368723,0.914377,0.167169,-0.146188,0.347387,0.124274
1547,0.36155,0.912257,0.192499,-0.328408,0.477376,0.5016229999999999
1548,0.353196,0.909249,0.220241,-0.029557,0.022895,-0.066966
1549,0.339798,0.912503,0.227736,0.449845,0.894352,0.5972149999999999
1550,0.333655,0.903807,0.267944,-0.162863,0.934602,-0.08258
1551,0.316374,0.906752,0.278739,-0.1355569999999999,0.066316,-0.655204
1552,0.303225,0.911775,0.276962,-0.367693,-0.5835130000000001,-0.143157
1553,0.30006,0.911404,0.28159,-0.1059069999999999,0.070285,0.37234
1554,0.311141,0.908713,0.2782409999999999,0.087693,0.6605310000000001,0.115604
1555,0.320866,0.905615,0.2772969999999999,0.009503,0.663385,0.170518
1556,0.326331,0.902927,0.279673,-0.043433,0.2595179999999999,0.4916899999999999
1557,0.326426,0.902206,0.281881,-0.186442,0.236298,0.256144
1558,0.321171,0.900322,0.293695,-0.304706,0.183556,0.121084
1559,0.309674,0.895125,0.320688,-0.242215,-0.151076,-0.134211
1560,0.297212,0.883574,0.361871,-0.071855,-0.227263,-0.135369
1561,0.286657,0.859859,0.422441,0.165766,-0.008053,-0.166017
1562,0.281724,0.8244520000000001,0.4908119999999999,0.256789,0.067958,-0.366727
1563,0.285831,0.784185,0.550763,0.217846,-0.1156359999999999,-0.635632
1564,0.296097,0.747844,0.594172,0.080749,-0.453182,-0.210932
1565,0.298936,0.719719,0.626598,-0.17206,-0.359093,-0.107326
1566,0.289921,0.7050350000000001,0.6471899999999999,-0.276752,-0.173556,-0.139973
1567,0.272798,0.704929,0.654705,0.188597,0.023785,-0.030041
1568,0.258087,0.71711,0.647401,0.18425,0.056099,-0.172471
1569,0.262229,0.730641,0.630384,0.1818789999999999,-0.065403,-0.162748
1570,0.276362,0.7469899999999999,0.6046600000000001,-0.010935,-0.334545,-0.088577
1571,0.293869,0.7672859999999999,0.569997,-0.231353,-0.57205,0.130274
1572,0.309191,0.790315,0.528949,-0.238512,-0.589173,0.275982
1573,0.328804,0.812537,0.481307,-0.3023909999999999,-0.161688,0.299592
1574,0.359658,0.8322940000000001,0.421802,-0.107247,0.755016,-0.192523
1575,0.390399,0.8458190000000001,0.363544,0.111463,1.051108,-0.28371
1576,0.411419,0.855316,0.31489,0.279575,0.998963,-0.231776
1577,0.418747,0.864202,0.278914,0.138428,-0.26032,0.087571
1578,0.419888,0.86971,0.259396,0.064029,-0.249715,0.248127
1579,0.406478,0.879642,0.246967,-0.0945429999999999,-0.242588,0.4416779999999999
1580,0.385154,0.893756,0.22988,-0.288612,-0.567447,-0.392523
1581,0.378558,0.899352,0.218741,-0.054889,-0.32849,-0.166739
1582,0.381232,0.8906930000000001,0.2476199999999999,-0.1097009999999999,-0.044563,0.092696
1583,0.382977,0.884548,0.266252,0.079196,1.0116459999999998,-0.0437629999999999
1584,0.370801,0.8896540000000001,0.266474,0.106768,1.459574,-0.001795
1585,0.347673,0.888337,0.2999469999999999,-0.104249,0.571258,0.029383
1586,0.33188,0.8914110000000001,0.308591,-0.175203,-0.704858,-0.215802
1587,0.3210679999999999,0.8939010000000001,0.312799,-0.263329,-0.7084,-0.108438
1588,0.321814,0.893033,0.314507,-0.066412,0.291598,0.348732
1589,0.330334,0.892194,0.307989,0.007495,0.552096,0.323298
1590,0.335987,0.891692,0.303293,0.0060539999999999,0.666246,0.407416
1591,0.336265,0.8909959999999999,0.305025,-0.195823,0.287028,0.429075
1592,0.3326119999999999,0.889258,0.3139699999999999,-0.312836,-0.070212,0.131297
1593,0.325815,0.884193,0.334717,-0.299433,-0.197623,-0.116836
1594,0.314897,0.871275,0.37644,-0.162279,-0.025221,-0.201803
1595,0.304341,0.8457379999999999,0.438281,0.016887,-0.02776,-0.411029
1596,0.304571,0.81302,0.496206,0.170145,-0.011079,-0.460668
1597,0.3093849999999999,0.781373,0.5419609999999999,0.602633,-0.279237,-0.185043
1598,0.309859,0.758847,0.57282,0.19272,-0.2176179999999999,-0.053777
1599,0.3032829999999999,0.7490979999999999,0.5889449999999999,-0.138351,-0.070463,-0.2083449999999999
1600,0.293805,0.7471479999999999,0.596182,-0.109265,-0.098146,-0.203131
1601,0.281196,0.750402,0.598172,-0.0275949999999999,-0.166891,-0.205671
1602,0.270538,0.762153,0.588147,0.0578,-0.182883,-0.259198
1603,0.273106,0.781459,0.560998,0.085399,-0.1463269999999999,-0.180398
1604,0.293896,0.802027,0.519964,-0.065929,-0.1409099999999999,0.175471
1605,0.324805,0.819376,0.472346,-0.287512,-0.221781,0.53362
1606,0.3539739999999999,0.8347370000000001,0.421785,-0.448517,-0.086904,0.408339
1607,0.367356,0.855675,0.364496,-0.35054,0.2048559999999999,-0.258294
1608,0.371733,0.876451,0.306001,0.291201,0.500579,-0.774507
1609,0.376575,0.890184,0.256421,0.3628659999999999,-0.243929,-0.319227
1610,0.387576,0.894978,0.220879,-0.020342,-0.571706,0.059684
1611,0.391942,0.897158,0.2036609999999999,-0.6015520000000001,-0.3382739999999999,0.803998
1612,0.369428,0.907553,0.199647,-0.6336189999999999,-0.385001,0.145049
1613,0.352462,0.913255,0.204268,0.0812539999999999,0.273452,0.4376239999999999
1614,0.342755,0.905959,0.248488,0.229175,0.748765,0.374483
1615,0.332194,0.906803,0.259507,0.152807,0.467449,-0.516831
1616,0.31778,0.909182,0.269061,-0.086319,0.337171,0.5102359999999999
1617,0.308703,0.906573,0.287777,-0.180041,0.449781,0.075397
1618,0.296014,0.912303,0.282961,-0.284357,0.060521,-0.166796
1619,0.28981,0.9151,0.280341,-0.260757,-0.198074,-0.23754
1620,0.294683,0.913054,0.281928,-0.116796,0.260637,0.554208
1621,0.304586,0.90886,0.284938,0.078074,0.6232439999999999,0.450032
1622,0.3090429999999999,0.905121,0.291954,-0.055671,0.313034,0.314323
1623,0.30708,0.899617,0.310452,-0.149976,-0.125432,0.261753
1624,0.304117,0.891034,0.336987,-0.176233,-0.129651,-0.09837
1625,0.2969739999999999,0.8756290000000001,0.3808809999999999,-0.164497,0.042493,-0.18125
1626,0.287653,0.851685,0.438037,-0.099649,0.0334319999999999,-0.343128
1627,0.286512,0.822945,0.490571,-0.0032479999999999,0.024909,-0.484254
1628,0.28719,0.795535,0.53351,0.415462,-0.313861,-0.157091
1629,0.285368,0.77653,0.561742,0.245348,-0.284632,-0.092931
1630,0.279155,0.767898,0.576534,-0.041942,-0.039932,-0.049999
1631,0.267194,0.76773,0.582396,0.13135,0.088365,-0.101775
1632,0.252323,0.774664,0.5798399999999999,0.173809,0.146127,-0.137243
1633,0.246676,0.78617,0.566634,0.167158,-0.031242,-0.190886
1634,0.252927,0.799007,0.545529,-0.038312,-0.099407,-0.10719
1635,0.2700329999999999,0.811837,0.517676,-0.169417,-0.257974,0.177117
1636,0.290101,0.82605,0.483188,-0.216996,-0.496094,0.3523989999999999
1637,0.310841,0.842232,0.4404659999999999,-0.252843,-0.301934,0.210886
1638,0.335394,0.858756,0.387348,-0.1061309999999999,0.160302,-0.215976
1639,0.3614219999999999,0.8716520000000001,0.3310389999999999,0.289671,0.7493350000000001,-0.531463
1640,0.382059,0.881416,0.2777179999999999,0.176535,-0.021552,-0.1221849999999999
1641,0.398813,0.887181,0.232053,-0.062815,-0.545033,0.175586
1642,0.412624,0.88828,0.201717,-0.540371,-0.5506949999999999,0.37627
1643,0.404828,0.8960469999999999,0.182219,-0.755551,-0.700338,0.524736
1644,0.387793,0.906543,0.166695,-0.214377,-0.282092,-0.046394
1645,0.384015,0.907265,0.171443,0.051181,0.901375,0.216558
1646,0.376026,0.905692,0.195743,-0.1027869999999999,1.236459,0.22955
1647,0.361821,0.912738,0.189694,-0.309011,0.015027,-0.3121
1648,0.343407,0.920714,0.185325,-0.0759659999999999,-0.2217239999999999,-0.475593
1649,0.330972,0.925994,0.181606,-0.0767,0.644624,0.508549
1650,0.326464,0.926561,0.186801,-0.148714,0.634688,0.097684
1651,0.3211719999999999,0.930074,0.178324,-0.152974,-0.351278,-0.215144
1652,0.322836,0.930725,0.1718029999999999,-0.005881,-0.6714479999999999,0.200801
1653,0.3366369999999999,0.925083,0.175743,0.090121,-0.280201,0.42115
1654,0.362752,0.915611,0.173365,0.170039,0.166542,0.560034
1655,0.380696,0.910642,0.160599,-0.43221,0.591113,0.065719
1656,0.387364,0.909878,0.148524,-0.438878,0.5918760000000001,0.077794
1657,0.392088,0.909325,0.13923,-0.716566,0.0527269999999999,-0.076257
1658,0.397602,0.907324,0.136621,-0.667164,0.008081,-0.00509
1659,0.402887,0.904668,0.138734,-0.423868,0.12707,-0.173508
1660,0.406776,0.900284,0.1549549999999999,0.154167,0.5931850000000001,0.415572
1661,0.403828,0.896532,0.182049,0.6037859999999999,0.5877060000000001,0.68314
1662,0.395094,0.895027,0.206918,0.52585,0.155616,0.139945
1663,0.382969,0.89281,0.2370949999999999,0.4358479999999999,0.090116,-0.247288
1664,0.370608,0.890216,0.264865,0.366346,0.310589,-0.307834
1665,0.360435,0.886458,0.2902869999999999,0.365182,0.976365,0.32803
1666,0.3478949999999999,0.8825149999999999,0.316423,0.242163,1.161628,0.019301
1667,0.331706,0.88285,0.332467,0.143559,0.4768,-0.296594
1668,0.317479,0.8818530000000001,0.348609,0.076823,-0.194964,-0.310737
1669,0.309056,0.8757520000000001,0.370849,0.065944,-0.501728,-0.188186
1670,0.307578,0.867405,0.39114,0.099999,-0.5842930000000001,-0.115169
1671,0.313869,0.8591709999999999,0.404101,-0.020748,-0.508386,-0.197039
1672,0.3286219999999999,0.848641,0.4144899999999999,-0.107476,-0.346963,-0.229294
1673,0.346387,0.8377110000000001,0.422188,-0.1991089999999999,-0.375019,-0.2417679999999999
1674,0.366761,0.8267180000000001,0.426627,-0.144837,-0.399273,-0.1056589999999999
1675,0.383421,0.820365,0.424235,-0.071256,-0.343223,0.010549
1676,0.396601,0.8193870000000001,0.4138819999999999,-0.187265,-0.158209,0.039213
1677,0.408486,0.821737,0.397333,-0.295114,0.035608,0.1207029999999999
1678,0.416247,0.8268139999999999,0.37829,-0.311785,0.155348,0.252432
1679,0.41912,0.833,0.361159,-0.244773,0.202706,0.411271
1680,0.417311,0.83826,0.350938,-0.120314,0.2552,0.468993
1681,0.4107659999999999,0.842024,0.349647,0.050523,0.250368,0.4652489999999999
1682,0.403063,0.843196,0.3557349999999999,0.187788,0.154866,0.435463
1683,0.395947,0.843733,0.3623909999999999,0.068133,-0.176573,0.290517
1684,0.387787,0.8460129999999999,0.365883,0.058029,-0.246709,0.131813
1685,0.384002,0.849576,0.361593,0.094361,-0.026929,0.135706
1686,0.3894849999999999,0.854441,0.343831,0.0610159999999999,0.149816,0.287273
1687,0.392463,0.8613649999999999,0.322506,0.0478899999999999,0.685647,0.10445
1688,0.3829869999999999,0.869548,0.311761,0.218377,0.760228,-0.580575
1689,0.364806,0.877282,0.311899,0.106706,-0.280892,-0.495752
1690,0.3487409999999999,0.8838940000000001,0.311607,0.282119,-1.286283,-0.150948
1691,0.347943,0.8886,0.298852,0.219165,-0.849324,0.01261
1692,0.355982,0.8915879999999999,0.279885,-0.3351989999999999,0.607481,0.190254
1693,0.349951,0.902184,0.252162,-0.379538,0.929938,-0.852824
1694,0.342499,0.916202,0.207984,-0.193161,0.466336,-0.571525
1695,0.333439,0.923545,0.189399,-0.046421,-0.160651,0.108224
1696,0.337683,0.924994,0.174199,0.042886,-0.356833,0.172099
1697,0.350165,0.926287,0.139165,0.0840539999999999,-0.238497,-0.143941
1698,0.36488,0.925544,0.101095,0.045383,-0.034537,-0.155646
1699,0.378471,0.922673,0.073642,0.000404,0.094798,-0.058414
1700,0.389827,0.919529,0.049916,-0.106898,-0.03751,0.201336
1701,0.397644,0.917221,0.023977,-0.162964,-0.108597,0.213358
1702,0.404398,0.914578,-0.000573,-0.194804,-0.118771,0.173913
1703,0.4117189999999999,0.911048,-0.021685,-0.266882,0.037881,-0.030271
1704,0.419464,0.906962,-0.038214,-0.262787,0.057684,-0.011651
1705,0.4269199999999999,0.902615,-0.054919,-0.2324929999999999,0.042637,0.079455
1706,0.434324,0.8976780000000001,-0.074347,-0.163511,-0.007587,0.124258
1707,0.440824,0.8925540000000001,-0.094939,-0.135358,0.053186,0.130721
1708,0.446715,0.88726,-0.114919,-0.153395,0.112358,0.155217
1709,0.4533029999999999,0.8814360000000001,-0.132581,-0.173549,0.08977,0.10214
1710,0.461208,0.875539,-0.143913,-0.1580609999999999,0.1775769999999999,0.056281
1711,0.470025,0.869552,-0.151482,-0.2327659999999999,0.373062,0.069116
1712,0.478413,0.863818,-0.157899,-0.356236,0.456495,0.280442
1713,0.484151,0.8598319999999999,-0.162109,-0.366872,0.521455,0.295226
1714,0.4853399999999999,0.859243,-0.161677,-0.387836,0.590418,0.31573
1715,0.480062,0.863916,-0.152256,-0.1221059999999999,0.613867,0.116825
1716,0.465901,0.8745850000000001,-0.134271,-0.013371,0.6048,0.165994
1717,0.448642,0.887659,-0.103796,0.2757239999999999,0.2205869999999999,0.444495
1718,0.435426,0.8988200000000001,-0.050182,0.539442,-0.016343,0.068965
1719,0.4275489999999999,0.903827,0.017021,0.580737,-0.116824,-0.16024
1720,0.423506,0.902394,0.079482,0.5155350000000001,0.0773269999999999,0.013459
1721,0.415714,0.8989729999999999,0.137903,0.256756,0.315046,0.023321
1722,0.400127,0.8960319999999999,0.192389,0.026036,0.42161,-0.051322
1723,0.380096,0.892482,0.24288,-0.000397,0.2957349999999999,-0.2638
1724,0.359068,0.8868809999999999,0.290691,-0.052854,0.0866,-0.449764
1725,0.33928,0.879376,0.334026,-0.094896,-0.063397,-0.485088
1726,0.32274,0.869806,0.373181,-0.112916,-0.209009,-0.442181
1727,0.3144409999999999,0.8579399999999999,0.406267,-0.100391,-0.3845659999999999,-0.412722
1728,0.316135,0.843057,0.435086,-0.0741,-0.509622,-0.311963
1729,0.3230099999999999,0.8286530000000001,0.45715,0.048618,-0.533563,-0.310253
1730,0.33099,0.8167949999999999,0.4725229999999999,0.075504,-0.517235,-0.304539
1731,0.339728,0.8089310000000001,0.4797939999999999,0.039376,-0.53322,-0.2478449999999999
1732,0.34972,0.806131,0.477322,-0.084552,-0.532617,-0.175152
1733,0.360625,0.8086979999999999,0.4646979999999999,-0.127471,-0.422483,-0.094901
1734,0.371768,0.816883,0.440996,-0.193667,-0.282993,-0.027422
1735,0.381654,0.8290420000000001,0.408676,-0.21274,-0.073503,0.229539
1736,0.389235,0.8406309999999999,0.376594,-0.154524,0.216757,0.61393
1737,0.396978,0.8467950000000001,0.354025,0.000956,0.6170720000000001,0.8170569999999999
