,gravity.x,gravity.y,gravity.z,userAcceleration.x,userAcceleration.y,userAcceleration.z
0,-0.200234,0.96795,-0.151566,-1.323448,0.468466,-0.8424379999999999
1,-0.242951,0.947481,-0.207963,-0.2164,0.8679030000000001,0.582307
2,-0.276285,0.931354,-0.237151,0.580759,0.921094,0.763488
3,-0.263563,0.930157,-0.255609,0.651564,1.281085,-1.091285
4,-0.259327,0.923773,-0.281758,0.267109,-0.469717,1.002736
5,-0.2320429999999999,0.927816,-0.292075,0.26459,-0.57395,0.702231
6,-0.22194,0.934314,-0.278916,-0.072325,-0.235767,-0.386474
7,-0.243832,0.932322,-0.267049,0.208309,0.330281,0.019368
8,-0.255237,0.930489,-0.262752,0.206226,0.298896,-0.186635
9,-0.2594619999999999,0.926633,-0.272076,0.046922,-0.0789,-0.134464
10,-0.260683,0.922075,-0.286034,-0.0967539999999999,-0.335634,-0.5135109999999999
11,-0.261451,0.914221,-0.309577,-0.073937,-0.2973989999999999,-0.2514429999999999
12,-0.258707,0.90284,-0.343431,0.0135129999999999,-0.221123,-0.297606
13,-0.255772,0.887026,-0.384395,-0.156856,-0.169726,0.370937
14,-0.259413,0.8696659999999999,-0.419977,-0.190477,-0.1333079999999999,0.550348
15,-0.278074,0.842866,-0.460702,-0.185763,0.1239609999999999,0.829202
16,-0.308785,0.793617,-0.524233,0.051583,0.514947,0.705553
17,-0.337097,0.7206060000000001,-0.605879,0.145523,0.356466,-1.365542
18,-0.3784929999999999,0.673285,-0.6351600000000001,0.268004,-0.146612,-0.1130549999999999
19,-0.379348,0.6600600000000001,-0.648392,-0.405213,-0.004802,0.165574
20,-0.368726,0.662118,-0.65241,-0.112613,-0.098977,0.147786
21,-0.365484,0.67189,-0.644191,0.157461,-0.34024,-0.007939
22,-0.362648,0.69319,-0.622873,0.165932,-0.521117,-0.0070709999999999
23,-0.348704,0.729104,-0.588905,0.165339,-0.7020350000000001,0.133186
24,-0.326861,0.774493,-0.541588,0.172167,-0.730243,0.154305
25,-0.302132,0.8238340000000001,-0.479593,0.2132949999999999,-0.673825,0.172189
26,-0.276636,0.872252,-0.403291,0.225488,-0.398207,0.1222549999999999
27,-0.254492,0.914288,-0.315128,0.166189,0.051502,0.107181
28,-0.231501,0.946017,-0.22683,0.178248,0.594708,0.067482
29,-0.209856,0.963276,-0.167492,0.169695,0.5907859999999999,0.337764
30,-0.192931,0.963923,-0.183368,-0.189729,0.830084,-0.418637
31,-0.2135389999999999,0.945052,-0.247531,-0.90937,1.347078,0.933841
32,-0.2682199999999999,0.927715,-0.259608,-1.3983139999999998,1.530003,-1.822911
33,-0.2902639999999999,0.8935139999999999,-0.342599,0.147884,-0.263402,1.791238
34,-0.264072,0.8983709999999999,-0.350984,0.578129,-0.702479,-0.8815299999999999
35,-0.257913,0.911026,-0.321723,0.52105,0.649749,0.2580179999999999
36,-0.249021,0.924068,-0.289967,0.335813,0.764745,0.1053819999999999
37,-0.243171,0.933412,-0.263824,-0.047921,0.312361,0.170425
38,-0.2432929999999999,0.938303,-0.245743,-0.2636949999999999,-0.347421,0.0068049999999999
39,-0.250638,0.937734,-0.240476,-0.266239,-0.363973,-0.193209
40,-0.261439,0.93205,-0.250849,-0.162511,-0.270673,-0.555959
41,-0.264016,0.930652,-0.253327,0.11947,-0.322849,-0.179916
42,-0.248129,0.934281,-0.256015,0.141958,-0.271348,-0.1183289999999999
43,-0.23301,0.934486,-0.2691389999999999,0.113839,-0.252143,0.180378
44,-0.23095,0.927763,-0.293107,0.042122,-0.20503,0.370332
45,-0.246223,0.90902,-0.336229,-0.157463,-0.209542,0.8239
46,-0.281366,0.8715629999999999,-0.4015039999999999,-0.268179,0.04311,0.97116
47,-0.333392,0.80992,-0.482571,-0.130704,0.491045,0.202649
48,-0.365928,0.726292,-0.581887,0.234794,0.616054,-1.697227
49,-0.386798,0.694847,-0.606276,0.130954,-0.041893,0.0988909999999999
50,-0.375347,0.687075,-0.622124,-0.117756,-0.134982,0.100701
51,-0.3634969999999999,0.688836,-0.6271939999999999,-0.158582,-0.132989,0.029507
52,-0.34891,0.704527,-0.61798,0.075503,-0.355833,-0.256974
53,-0.334556,0.735042,-0.58973,0.136039,-0.535732,-0.194602
54,-0.32127,0.7740520000000001,-0.54555,0.154507,-0.662434,-0.125288
55,-0.302779,0.8179270000000001,-0.489199,0.279037,-0.66987,0.159152
56,-0.270378,0.865818,-0.421009,0.324272,-0.300556,0.2364389999999999
57,-0.231041,0.913266,-0.335497,0.271065,-0.179196,0.1905079999999999
58,-0.200999,0.949704,-0.240114,0.279292,0.0999179999999999,0.3462389999999999
59,-0.177638,0.971235,-0.158555,0.335292,-0.1097079999999999,0.384995
60,-0.158671,0.98104,-0.111245,0.266154,-0.310462,0.334923
61,-0.153572,0.982828,-0.102254,-0.292916,-0.552423,0.214223
62,-0.169094,0.977796,-0.123743,-0.835728,0.145571,-0.064687
63,-0.212684,0.966492,-0.143697,-1.1258629999999998,0.663802,-0.0788529999999999
64,-0.268306,0.937834,-0.220162,-0.14153,3.209734,-1.895866
65,-0.269253,0.914008,-0.303453,0.164181,0.963799,0.30504
66,-0.216036,0.92725,-0.305824,0.279756,-1.200718,-0.053215
67,-0.192182,0.933213,-0.303598,0.5777260000000001,-0.398606,0.278848
68,-0.198322,0.938358,-0.283098,0.504749,0.268429,-0.210738
69,-0.223546,0.933734,-0.27957,0.360646,2.072339,-0.343385
70,-0.244441,0.915361,-0.319931,-0.006887,0.5414720000000001,-0.231811
71,-0.256924,0.895468,-0.363484,-0.219348,-0.728567,0.548741
72,-0.272686,0.8711180000000001,-0.408398,-0.223133,-0.8855379999999999,0.5495270000000001
73,-0.287026,0.840521,-0.4594939999999999,-0.235465,-1.006369,0.563025
74,-0.303079,0.8083239999999999,-0.504727,-0.213507,-0.945714,0.583646
75,-0.3387469999999999,0.770977,-0.539296,0.197496,-0.269802,0.686757
76,-0.36994,0.71745,-0.590259,0.576956,0.700199,-0.376706
77,-0.387586,0.693634,-0.607162,0.148831,0.042649,-0.106858
78,-0.386113,0.6968840000000001,-0.604371,-0.1250869999999999,-0.4171899999999999,-0.130294
79,-0.389387,0.709657,-0.587162,-0.326891,-0.5468770000000001,-0.03651
80,-0.383703,0.7374430000000001,-0.555828,0.017309,0.071959,-0.076573
81,-0.376234,0.775746,-0.506616,0.0547309999999999,0.0633799999999999,-0.146567
82,-0.36359,0.815893,-0.449571,0.123722,0.028742,-0.357619
83,-0.342881,0.852524,-0.394498,0.2153929999999999,-0.3576809999999999,-0.297091
84,-0.299335,0.892492,-0.337414,0.229755,-0.335165,-0.176823
85,-0.249909,0.930694,-0.267106,0.249329,-0.267715,0.155641
86,-0.21952,0.956527,-0.1919799999999999,0.083274,-0.128814,0.68313
87,-0.21749,0.968363,-0.1223089999999999,0.027259,-0.221201,0.873041
88,-0.227763,0.969838,-0.08675,-0.4394119999999999,0.369807,0.210698
89,-0.258736,0.957765,-0.125421,-0.705666,0.6224810000000001,-0.148383
90,-0.308815,0.930612,-0.196429,-0.894768,1.316061,0.187716
91,-0.349255,0.907701,-0.232571,0.73338,0.729338,-0.47652
92,-0.327989,0.921006,-0.2101469999999999,0.588136,0.6277,-0.8655520000000001
93,-0.294773,0.938432,-0.180123,0.342732,0.632506,-0.003471
94,-0.277096,0.949937,-0.144313,0.259579,0.476195,-0.156987
95,-0.28062,0.950088,-0.136288,0.105984,0.283021,-0.1602819999999999
96,-0.292102,0.942086,-0.164742,-0.143155,-0.188653,-0.132712
97,-0.304551,0.931193,-0.200295,-0.29074,-0.5982770000000001,-0.014594
98,-0.320292,0.916777,-0.238586,-0.186925,-0.832518,0.2841639999999999
99,-0.332426,0.902518,-0.273761,0.066373,-0.923987,0.43642
100,-0.33891,0.8931879999999999,-0.295543,0.187909,-0.8840790000000001,0.372173
101,-0.349908,0.892174,-0.285624,0.233529,-0.805077,0.512614
102,-0.3629429999999999,0.8895069999999999,-0.277561,0.335279,-0.7055779999999999,0.667423
103,-0.367157,0.882252,-0.294649,0.562591,-0.619786,0.513171
104,-0.3693,0.866826,-0.334995,0.479392,-0.356817,0.141391
105,-0.379297,0.84703,-0.372379,0.3765199999999999,-0.181274,-0.270413
106,-0.397286,0.8446440000000001,-0.358793,0.369607,0.076407,-0.099017
107,-0.411864,0.8512940000000001,-0.325052,0.395583,0.254084,0.048425
108,-0.423249,0.8589,-0.288344,0.262605,0.362932,0.04373
109,-0.425543,0.8686659999999999,-0.253621,-0.739129,0.5564899999999999,-0.827159
110,-0.400198,0.8931690000000001,-0.2051349999999999,-1.604929,0.8871959999999999,-1.272343
111,-0.344575,0.925005,-0.160072,-1.2191459999999998,1.141691,-1.24511
112,-0.313054,0.937406,-0.152497,0.182348,0.127154,-0.5843649999999999
113,-0.297412,0.937785,-0.179151,0.66904,-0.662852,0.733274
114,-0.2720599999999999,0.937974,-0.214891,0.6286430000000001,-0.8357100000000001,0.573213
115,-0.267069,0.926108,-0.266436,-0.293508,1.245187,0.266115
116,-0.345815,0.87503,-0.338712,-0.8669690000000001,1.868408,0.705228
117,-0.41058,0.852088,-0.3245949999999999,0.390606,0.6686479999999999,1.970454
118,-0.380494,0.8723270000000001,-0.3070199999999999,0.516618,0.965533,0.133802
119,-0.3648659999999999,0.8871530000000001,-0.282532,0.413588,1.23301,0.6111
120,-0.354618,0.905937,-0.2313349999999999,0.258397,1.111657,-0.083149
121,-0.344228,0.923284,-0.170422,0.112402,0.27186,0.184414
122,-0.333737,0.935509,-0.115896,-0.1242549999999999,-0.039223,0.016897
123,-0.32925,0.941906,-0.066301,0.017925,-0.160519,0.145204
124,-0.326003,0.945012,-0.025751,0.2326349999999999,-0.332341,0.143778
125,-0.325476,0.945528,0.005533,0.030066,-0.403521,-0.249018
126,-0.3266429999999999,0.944374,0.038081,-0.0102709999999999,-0.340401,-0.40478
127,-0.329573,0.941275,0.073291,0.035185,-0.134985,-0.504199
128,-0.337436,0.935895,0.101121,0.127353,-0.0097629999999999,-0.559709
129,-0.34924,0.929097,0.121647,0.162305,0.009441,-0.6284069999999999
130,-0.361639,0.923268,0.129545,0.490697,-0.138447,-0.547941
131,-0.375934,0.919071,0.118194,0.5526310000000001,-0.097232,-0.4626619999999999
132,-0.391358,0.914974,0.098232,0.4929199999999999,0.09763,-0.2154199999999999
133,-0.407966,0.910402,0.068712,0.461479,0.760512,0.29164
134,-0.41915,0.907632,0.022511,0.553946,0.6688149999999999,0.388393
135,-0.4162109999999999,0.908653,-0.033281,-0.010379,0.457146,0.2138989999999999
136,-0.412684,0.906201,-0.092095,-0.1963859999999999,0.818149,0.372063
137,-0.401518,0.903132,-0.152068,-0.127092,0.914754,0.294082
138,-0.382931,0.9028,-0.19572,0.164806,0.906511,0.099376
139,-0.362402,0.905135,-0.222232,0.393042,0.838975,0.208377
140,-0.3406639999999999,0.910621,-0.2338989999999999,0.360164,0.619271,0.325284
141,-0.323398,0.918715,-0.226644,0.389071,0.365831,0.657613
142,-0.308726,0.922814,-0.230423,0.322017,0.169197,0.610153
143,-0.304184,0.921685,-0.240748,0.1776579999999999,-0.209115,0.569911
144,-0.302631,0.915542,-0.2649309999999999,0.073627,-0.455795,0.366005
145,-0.306279,0.90933,-0.281611,0.074987,-0.604459,0.395151
146,-0.311332,0.906911,-0.28386,0.334831,-0.54807,0.5024109999999999
147,-0.319523,0.90639,-0.276323,0.502659,-0.501528,0.566484
148,-0.328665,0.905508,-0.268378,0.464041,-0.445821,0.522101
149,-0.335393,0.904733,-0.262605,0.275075,-0.414147,0.434709
150,-0.337534,0.905893,-0.255773,-0.052709,-0.391519,0.323385
151,-0.3345,0.909848,-0.245515,-0.4109529999999999,-0.356381,0.140626
152,-0.329136,0.916168,-0.228684,-0.370845,-0.258484,0.066422
153,-0.321916,0.923666,-0.207853,-0.278853,-0.158621,-0.023776
154,-0.3180139999999999,0.928522,-0.191583,-0.150385,0.2615409999999999,-0.538428
155,-0.318483,0.929584,-0.18556,0.148484,0.7987479999999999,-0.983034
156,-0.328326,0.926229,-0.185186,0.202014,0.767573,-0.940257
157,-0.345126,0.916906,-0.200405,0.6714359999999999,-0.141348,-0.714054
158,-0.342406,0.911912,-0.226201,0.714004,-0.258469,-0.377315
159,-0.32276,0.916151,-0.237667,0.654776,0.861575,0.392055
160,-0.301291,0.926354,-0.226018,0.623587,2.36451,2.118474
161,-0.290172,0.930646,-0.22291,0.085384,-0.352445,1.127879
162,-0.295101,0.926459,-0.2336239999999999,-0.2974739999999999,-0.468543,0.905407
163,-0.327287,0.909455,-0.25645,-0.725509,-1.030167,-0.725407
164,-0.38004,0.8973469999999999,-0.2243389999999999,-0.470164,-0.299508,-0.253719
165,-0.408096,0.89792,-0.164888,0.204467,0.857894,0.176439
166,-0.398889,0.909786,-0.114743,0.762567,0.856403,0.428052
167,-0.372038,0.925913,-0.065272,0.655226,0.538396,0.229533
168,-0.352229,0.935742,-0.01759,0.493617,-0.039852,0.1418579999999999
169,-0.340742,0.940031,0.014934,0.16252,-0.395888,0.089848
170,-0.334577,0.941332,0.044035,-0.023807,-0.653414,-0.089766
171,-0.33211,0.940153,0.076171,0.046221,-0.3860449999999999,-0.110168
172,-0.329369,0.937767,0.1099779999999999,0.09092,0.001534,-0.126092
173,-0.324687,0.934856,0.143557,0.151744,0.112752,-0.2131829999999999
174,-0.32115,0.930538,0.175918,0.250731,0.0986679999999999,-0.2204429999999999
175,-0.321734,0.92547,0.199945,0.1312279999999999,0.123175,-0.424188
176,-0.321177,0.92187,0.216763,0.075083,0.4489039999999999,-0.769452
177,-0.319538,0.918628,0.2323849999999999,0.204502,0.490064,-0.6861510000000001
178,-0.3211429999999999,0.918741,0.229711,0.527167,0.265296,-0.4150899999999999
179,-0.329476,0.920393,0.210494,0.524163,0.255709,-0.4096359999999999
180,-0.343292,0.923506,0.17109,0.313247,0.455797,-0.02958
181,-0.355169,0.928791,0.105772,0.043203,0.3814659999999999,-0.072523
182,-0.358917,0.93303,0.0249169999999999,-0.058945,0.1054069999999999,0.22696
183,-0.365827,0.93028,-0.027149,-0.038424,0.12607,0.742314
184,-0.381872,0.922395,-0.0578809999999999,0.257361,0.398665,0.500081
185,-0.3935389999999999,0.912521,-0.111456,0.374588,0.6358189999999999,0.215338
186,-0.4016929999999999,0.898288,-0.178076,0.052984,1.082165,-0.218454
187,-0.409271,0.886443,-0.2161179999999999,0.184524,0.774491,0.144494
188,-0.396603,0.887431,-0.234867,0.1582299999999999,0.2273909999999999,0.388768
189,-0.368139,0.8917930000000001,-0.263004,0.117086,-0.3860099999999999,0.35239
190,-0.339034,0.896275,-0.2859,0.12506,-0.764332,0.251659
191,-0.3180489999999999,0.900753,-0.295772,0.253321,-0.823009,0.168499
192,-0.305357,0.907291,-0.289091,0.381757,-0.6742130000000001,0.292585
193,-0.288884,0.91873,-0.26921,0.458806,-0.644331,0.442168
194,-0.263899,0.93364,-0.242211,0.350371,-0.52208,0.427331
195,-0.2473659999999999,0.947937,-0.200543,0.0752169999999999,-0.480865,0.460629
196,-0.245563,0.957761,-0.149613,-0.09689,-0.382214,0.287583
197,-0.2393969999999999,0.963792,-0.117407,-0.325575,0.079238,-0.3196199999999999
198,-0.233344,0.966751,-0.1045599999999999,-0.382653,0.4322819999999999,-0.955255
199,-0.2339909999999999,0.964443,-0.122832,0.093946,0.195072,-0.727846
200,-0.251576,0.952571,-0.171193,-0.298579,0.272862,0.904607
201,-0.288761,0.939833,-0.18254,-0.200725,0.3375869999999999,1.139723
202,-0.312459,0.933793,-0.174332,0.362981,0.012298,0.704986
203,-0.321297,0.936316,-0.14167,0.551583,0.196939,0.28173
204,-0.333866,0.934138,-0.126133,0.713719,0.687429,-0.3494219999999999
205,-0.337129,0.928989,-0.152689,0.932817,0.491421,-0.309881
206,-0.315618,0.937162,-0.14867,0.372655,0.099245,-0.0792809999999999
207,-0.281944,0.949784,-0.135676,-0.15606,-0.010835,-0.156896
208,-0.259005,0.957924,-0.123644,-0.7878850000000001,-0.107048,-0.171889
209,-0.253665,0.959723,-0.120734,-0.51048,-0.19869,-0.162881
210,-0.267812,0.953565,-0.137772,-0.033274,-0.240476,-0.166915
211,-0.2893409999999999,0.939853,-0.181516,0.160114,-0.2792239999999999,-0.151308
212,-0.304162,0.922802,-0.236459,0.193398,-0.180798,-0.508139
213,-0.32036,0.905811,-0.2772489999999999,0.2678239999999999,-0.177845,-0.208056
214,-0.340177,0.8892629999999999,-0.30575,0.143171,-0.179669,0.460657
215,-0.354655,0.873296,-0.334017,0.0731909999999999,-0.362325,0.8677540000000001
216,-0.364894,0.856232,-0.365667,0.092875,-0.665207,0.928946
217,-0.383741,0.830766,-0.4031929999999999,0.302305,-0.65262,0.79693
218,-0.400657,0.7821319999999999,-0.47722,0.101233,0.708316,-0.2170699999999999
219,-0.4027739999999999,0.721492,-0.563222,-0.437863,0.92365,-1.728664
220,-0.391419,0.721457,-0.5712149999999999,-0.24263,0.7330409999999999,-0.4614689999999999
221,-0.36304,0.738578,-0.568067,0.225848,-0.5131600000000001,0.1225869999999999
222,-0.345363,0.765533,-0.5428430000000001,0.188045,-1.029572,-0.299961
223,-0.329399,0.806161,-0.4915239999999999,0.38485,-0.932504,-0.181206
224,-0.302669,0.856038,-0.419029,0.421703,-0.8295790000000001,-0.141732
225,-0.260865,0.90447,-0.337458,0.4363859999999999,-0.331655,-0.162832
226,-0.213286,0.940967,-0.262839,0.490813,0.18266,-0.085321
227,-0.1690559999999999,0.961867,-0.2149989999999999,0.560917,0.450959,0.066455
228,-0.1300619999999999,0.970296,-0.203966,0.039974,1.646266,0.732546
229,-0.140696,0.96875,-0.204255,-1.489003,2.245574,-0.6546930000000001
230,-0.218745,0.941713,-0.255581,-2.481023,2.529159,-0.529453
231,-0.257194,0.90399,-0.341538,0.297096,-0.582472,-1.248138
232,-0.25528,0.892985,-0.370682,0.660935,-0.8917950000000001,-0.623444
233,-0.2400449999999999,0.900849,-0.361724,0.7153109999999999,0.000762,-0.330583
234,-0.220238,0.910673,-0.349519,0.617851,0.560732,-0.432051
235,-0.227214,0.906489,-0.355873,0.1182049999999999,0.6165510000000001,0.012962
236,-0.251952,0.8864479999999999,-0.388233,-0.163423,-0.104115,0.509053
237,-0.27766,0.8593379999999999,-0.429462,-0.2249489999999999,-0.4136899999999999,0.738376
238,-0.294041,0.830881,-0.472412,-0.320735,-1.052606,0.682876
239,-0.303843,0.800412,-0.516735,-0.345205,-1.044294,0.617398
240,-0.325018,0.771278,-0.5472560000000001,-0.203089,-0.853874,0.405792
241,-0.348926,0.732049,-0.585109,0.793842,0.388465,-0.420278
242,-0.36035,0.720417,-0.5925739999999999,0.464735,0.1168319999999999,0.079466
243,-0.3538989999999999,0.7325149999999999,-0.581527,0.164476,-0.321276,0.011413
244,-0.350375,0.756139,-0.552709,-0.068768,-0.344228,-0.1188299999999999
245,-0.336835,0.7912819999999999,-0.510305,-0.051059,0.023812,-0.229289
246,-0.30801,0.832952,-0.4596909999999999,-0.128055,0.070948,-0.431163
247,-0.265289,0.87784,-0.398766,-0.1330569999999999,0.299269,-0.664085
248,-0.21818,0.918112,-0.330852,-0.085424,0.773524,-0.777836
249,-0.183544,0.947482,-0.261885,0.07272,0.670713,-0.467837
250,-0.150491,0.965788,-0.2111849999999999,0.353021,0.017824,0.193577
251,-0.09298,0.980245,-0.174551,0.230065,-0.551473,0.746496
252,-0.041689,0.992281,-0.116757,-0.221265,-0.992739,0.985654
253,-0.0205419999999999,0.997401,-0.068997,-0.54971,-0.553904,0.758175
254,-0.038861,0.995728,-0.0837059999999999,-0.8869360000000001,0.701293,-1.020756
255,-0.138265,0.972425,-0.187788,-0.440882,3.1446560000000003,-0.273333
256,-0.2199699999999999,0.926388,-0.305632,0.5846399999999999,0.310703,0.300124
257,-0.172345,0.940613,-0.292467,0.185605,-0.604248,-1.129042
258,-0.133127,0.954335,-0.267424,0.371164,-0.357045,0.207411
259,-0.117647,0.962051,-0.246189,0.163331,0.926361,-0.451428
260,-0.146001,0.952291,-0.267989,-0.177531,0.333323,0.441893
261,-0.188644,0.927107,-0.323851,-0.295075,-0.015211,0.515868
262,-0.218081,0.896957,-0.38458,-0.373273,-0.600525,0.548765
263,-0.2243139999999999,0.868553,-0.44192,-0.323889,-1.049171,0.453471
264,-0.2298,0.846087,-0.4809609999999999,-0.456067,-1.113497,0.387989
265,-0.2620639999999999,0.82157,-0.506301,0.892893,-0.344015,0.804809
266,-0.291548,0.78922,-0.540489,1.111067,-0.149296,0.267982
267,-0.290321,0.763463,-0.576918,0.471549,-0.194691,-0.367784
268,-0.289317,0.770211,-0.568389,0.1244609999999999,-0.4928369999999999,-0.211167
269,-0.293454,0.786664,-0.543176,0.134778,-0.584363,-0.293692
270,-0.295876,0.816625,-0.495555,-0.004783,0.009165,-0.019948
271,-0.289115,0.8526520000000001,-0.435191,-0.177758,0.2970219999999999,-0.319249
272,-0.261139,0.890028,-0.373699,-0.325241,0.398257,-0.572438
273,-0.211021,0.92468,-0.316907,-0.318001,0.930209,-0.779406
274,-0.158585,0.950449,-0.267375,-0.093719,0.622945,-0.606434
275,-0.115347,0.967202,-0.226291,0.074408,-0.103188,0.213382
276,-0.077581,0.980264,-0.181814,-0.0284519999999999,-0.8184140000000001,1.225622
277,-0.045515,0.992544,-0.113034,-0.325075,-0.564443,1.294675
278,-0.048504,0.995378,-0.0828309999999999,-0.449589,-0.006074,0.117881
279,-0.1000559999999999,0.986253,-0.131474,-0.127803,1.492553,-0.347621
280,-0.196134,0.951347,-0.237621,-0.2973659999999999,2.498864,-1.067387
281,-0.2179699999999999,0.9329,-0.286669,-0.064104,0.080436,-0.4525729999999999
282,-0.175174,0.943676,-0.280681,0.062534,-0.480145,0.060252
283,-0.134827,0.952002,-0.274785,0.139313,-0.029837,-0.3063619999999999
284,-0.147661,0.945011,-0.291792,0.1647809999999999,0.2130389999999999,-0.134371
285,-0.189174,0.92194,-0.337984,-0.209431,-0.045872,0.3991719999999999
286,-0.225288,0.891424,-0.393196,-0.240044,-0.363714,0.334785
287,-0.248693,0.859303,-0.446928,-0.009807,-0.770069,0.533736
288,-0.263507,0.837773,-0.478221,0.010532,-0.990529,0.519389
289,-0.286248,0.816336,-0.50165,0.397073,-0.7270260000000001,0.640307
290,-0.310957,0.7875449999999999,-0.532046,0.64305,-0.443581,0.635516
291,-0.325533,0.755211,-0.568929,0.8314379999999999,-0.122749,0.269094
292,-0.329517,0.755023,-0.5668810000000001,0.144016,0.074826,-0.131148
293,-0.3250719999999999,0.771345,-0.547129,0.083571,-0.474516,-0.214101
294,-0.319876,0.797998,-0.510757,0.030066,-0.657846,-0.237366
295,-0.307052,0.8332309999999999,-0.459825,-0.106705,-0.155298,-0.114348
296,-0.2835809999999999,0.872192,-0.398569,-0.282337,0.524552,-0.573996
297,-0.2416739999999999,0.913832,-0.32634,-0.326075,0.935197,-0.7794949999999999
298,-0.19137,0.950003,-0.246709,-0.20481,1.192087,-0.456233
299,-0.139638,0.971657,-0.190727,0.1179549999999999,-0.225105,0.0388709999999999
300,-0.098518,0.981376,-0.164889,-0.018945,-0.6815859999999999,0.6133609999999999
301,-0.070544,0.988072,-0.1368589999999999,-0.347974,-0.784047,1.239154
302,-0.072173,0.989595,-0.124438,-0.6013350000000001,0.019804,0.1107819999999999
303,-0.1266,0.975755,-0.178516,-0.463793,0.735793,-0.563809
304,-0.220567,0.936651,-0.272082,0.771303,1.825128,-0.833311
305,-0.233726,0.912107,-0.336791,0.258384,0.473422,-0.708069
306,-0.195594,0.925642,-0.32392,0.057258,-0.4089489999999999,0.204031
307,-0.160173,0.942105,-0.29458,0.1347819999999999,-0.420239,0.171564
308,-0.15874,0.94826,-0.274953,-0.007687,0.497831,0.100439
309,-0.18431,0.944111,-0.2732739999999999,-0.020051,0.425777,-0.076824
310,-0.2029369999999999,0.935621,-0.288835,-0.056691,0.1441069999999999,-0.537734
311,-0.219344,0.92227,-0.318277,-0.134095,-0.097319,-0.401739
312,-0.23694,0.905719,-0.351465,-0.128202,-0.037006,0.011422
313,-0.259013,0.883223,-0.390928,-0.158376,-0.248946,0.532651
314,-0.2792409999999999,0.859836,-0.427437,-0.087885,-0.5712010000000001,0.608513
315,-0.3104429999999999,0.833586,-0.4568979999999999,-0.034848,-0.385893,0.623112
316,-0.363326,0.790466,-0.4931069999999999,0.381651,0.14354,1.033741
317,-0.385362,0.731063,-0.563063,0.623109,0.32605,-1.317369
318,-0.397847,0.717924,-0.571227,0.4919779999999999,0.348146,-0.166231
319,-0.3884039999999999,0.724136,-0.569883,-0.389702,-0.480896,0.048658
320,-0.373147,0.7385609999999999,-0.561503,-0.214392,-0.611166,-0.058217
321,-0.353075,0.7651939999999999,-0.538343,0.034456,-0.354351,-0.289644
322,-0.323142,0.8065720000000001,-0.4949939999999999,0.085242,-0.443992,-0.373537
323,-0.28897,0.855484,-0.4296979999999999,0.156935,-0.562149,-0.3136489999999999
324,-0.25001,0.901764,-0.352581,0.205332,-0.502289,-0.195774
325,-0.205404,0.939785,-0.273146,0.18305,0.018345,0.233351
326,-0.159592,0.967526,-0.196008,0.233902,0.042758,0.286035
327,-0.119182,0.985513,-0.120642,0.207653,-0.13366,0.2829489999999999
328,-0.094285,0.993701,-0.060515,-0.222137,-0.414829,0.555358
329,-0.088811,0.99563,-0.028763,-0.354961,-0.055475,0.471787
330,-0.107066,0.993598,-0.03597,-0.46343,0.2286,0.037206
331,-0.155943,0.981886,-0.107594,-0.607576,1.540483,-0.913418
332,-0.220705,0.959621,-0.174391,0.530138,2.320301,-1.455874
333,-0.2083179999999999,0.951425,-0.226694,0.567647,0.694129,-0.491537
334,-0.146852,0.967392,-0.206355,0.1228349999999999,-0.401734,-0.632238
335,-0.126023,0.976035,-0.1774,0.1934519999999999,0.112924,-0.043837
336,-0.158599,0.971305,-0.177229,0.287276,0.453042,0.532057
337,-0.195804,0.958591,-0.206786,0.06821,0.50755,-0.043824
338,-0.232823,0.934422,-0.269527,-0.355769,-0.117528,0.221569
339,-0.252676,0.90921,-0.330891,-0.486642,-0.3657829999999999,0.227223
340,-0.257598,0.888669,-0.379351,-0.274964,-0.912855,0.247851
341,-0.269586,0.879075,-0.393127,-0.1336119999999999,-1.076707,0.5131220000000001
342,-0.285627,0.8735450000000001,-0.394124,0.364057,-0.927851,0.623754
343,-0.2959179999999999,0.863116,-0.409221,0.85114,-0.598589,0.5832470000000001
344,-0.289861,0.853567,-0.4329,0.739904,-0.312795,-0.186622
345,-0.283771,0.8574639999999999,-0.429217,-0.0115319999999999,-0.368664,-0.231046
346,-0.273173,0.875251,-0.399135,0.073451,-0.426551,-0.1481819999999999
347,-0.257524,0.897631,-0.357684,0.2309119999999999,-0.217394,-0.115995
348,-0.242308,0.922493,-0.300483,0.017058,0.12011,-0.088479
349,-0.224346,0.94742,-0.2281659999999999,-0.545566,0.820738,-0.202529
350,-0.188333,0.969218,-0.158563,-0.673315,1.362462,-0.4586699999999999
351,-0.145799,0.982063,-0.1195369999999999,0.023408,0.257423,-0.845352
352,-0.1129049999999999,0.986314,-0.12013,0.0447889999999999,-1.247453,-0.006228
353,-0.092782,0.990631,-0.100176,-0.138801,-1.238526,0.810244
354,-0.096963,0.994022,-0.050117,-0.240135,-0.045673,1.239982
355,-0.12663,0.99165,-0.024299,0.101346,1.3560219999999998,0.324424
356,-0.15746,0.985602,-0.061561,0.845037,1.5375,-0.1529319999999999
357,-0.158157,0.983179,-0.091323,0.161041,0.622931,0.27095
358,-0.158438,0.983883,-0.082868,-0.256967,0.4259989999999999,-1.50841
359,-0.1610349999999999,0.984903,-0.063473,0.35206,-0.075708,0.102596
360,-0.154087,0.987847,-0.020234,0.389301,-0.05143,-0.071532
361,-0.1476849999999999,0.988727,0.024527,0.416774,-0.0983,0.101221
362,-0.151224,0.986691,0.059707,0.101008,-0.276028,0.008744
363,-0.160805,0.983406,0.08395,0.010704,-0.322609,-0.171017
364,-0.172309,0.979421,0.105055,0.0123209999999999,-0.126745,-0.640364
365,-0.184603,0.97208,0.1448279999999999,0.1546799999999999,-0.164906,-0.32006
366,-0.2074869999999999,0.96453,0.163172,0.367979,-0.207602,-0.13418
367,-0.239971,0.9586,0.153276,0.182079,-0.158887,-0.3669449999999999
368,-0.267113,0.954199,0.134716,0.1220319999999999,-0.269568,-0.331234
369,-0.295504,0.94939,0.106446,0.198382,-0.51453,-0.123108
370,-0.324545,0.944001,0.059384,0.354025,0.5454399999999999,0.367633
371,-0.339229,0.940673,-0.0073069999999999,0.479442,1.255647,0.515562
372,-0.317905,0.945237,-0.07389,0.242984,1.833023,0.297553
373,-0.282839,0.951981,-0.117175,-0.537809,0.974411,0.20589
374,-0.250467,0.956252,-0.151141,-0.4494229999999999,1.002946,0.008502
375,-0.228194,0.955759,-0.185601,0.185134,0.968374,-0.086845
376,-0.215201,0.952627,-0.214911,0.5350560000000001,1.011958,-0.08056
377,-0.2050679999999999,0.952873,-0.223553,0.5219020000000001,0.784355,0.414074
378,-0.189973,0.95006,-0.247572,0.396028,0.684675,0.442747
379,-0.182763,0.94472,-0.272207,-0.112067,0.029508,0.500051
380,-0.180279,0.939964,-0.289765,-0.24747,-0.482612,0.5379189999999999
381,-0.1821559999999999,0.936223,-0.300502,-0.221561,-0.638265,0.519725
382,-0.1831549999999999,0.934655,-0.304746,0.176914,-0.781472,0.302106
383,-0.183833,0.937526,-0.295373,0.269801,-0.7211420000000001,0.370828
384,-0.18023,0.943778,-0.277123,0.168481,-0.6734220000000001,0.3360829999999999
385,-0.16947,0.952468,-0.253139,-0.214151,-0.715698,0.2277179999999999
386,-0.159418,0.962581,-0.219132,-0.266256,-0.725719,0.089692
387,-0.155669,0.970384,-0.184711,-0.262102,-0.229234,-0.108289
388,-0.158069,0.972239,-0.172515,-0.172894,0.7594810000000001,-0.6074069999999999
389,-0.171838,0.964123,-0.202323,-0.136252,1.6908,-1.129556
390,-0.216169,0.944911,-0.245786,0.0476959999999999,0.0947929999999999,-0.485965
391,-0.261556,0.921719,-0.286389,0.267904,-1.216946,-0.205539
392,-0.288594,0.908902,-0.30101,0.8961379999999999,-1.664944,0.238144
393,-0.273845,0.916629,-0.2912,0.942683,0.098554,0.857224
394,-0.2314159999999999,0.927612,-0.29322,0.8324600000000001,2.931,0.538582
395,-0.214853,0.922795,-0.319818,0.600214,1.9178580000000005,0.713388
396,-0.239557,0.914151,-0.3270119999999999,-0.674216,-0.148526,0.782975
397,-0.289605,0.905745,-0.3094369999999999,-0.716453,-1.20175,0.116505
398,-0.334304,0.890791,-0.30778,-0.098389,0.074068,-0.0897879999999999
399,-0.35481,0.889387,-0.288263,0.29469,0.608934,-0.048742
400,-0.3292469999999999,0.916747,-0.226204,0.77546,0.652345,0.205025
401,-0.286993,0.945129,-0.156085,0.678991,0.883393,-0.015698
402,-0.258655,0.960047,-0.106781,0.563145,0.224905,0.406052
403,-0.235905,0.969031,-0.072957,0.255269,-0.341986,0.335606
404,-0.223856,0.973914,-0.037082,-0.110067,-0.3896239999999999,-0.055875
405,-0.22329,0.974744,-0.003154,-0.2304909999999999,-0.347486,-0.222615
406,-0.221876,0.974687,0.027401,-0.135378,-0.17386,-0.309826
407,-0.217477,0.974412,0.05674,-0.045554,-0.16414,-0.30825
408,-0.213391,0.973382,0.083585,0.076321,-0.186593,-0.247709
409,-0.213788,0.971358,0.103699,0.168744,-0.220259,-0.110108
410,-0.219309,0.967929,0.122519,0.18809,-0.156452,-0.049094
411,-0.229069,0.963632,0.1376109999999999,0.267475,-0.060479,0.029015
412,-0.237176,0.958728,0.1567869999999999,0.28779,0.2083559999999999,-0.15433
413,-0.238011,0.952447,0.190238,0.357777,0.348029,-0.246268
414,-0.2347699999999999,0.948088,0.214491,0.489683,0.316042,-0.260924
415,-0.234182,0.946601,0.221584,0.251882,0.492196,-0.353633
416,-0.228448,0.944843,0.234686,-0.001685,0.57481,-0.788427
417,-0.223991,0.943762,0.24318,-0.098046,0.6534369999999999,-0.73816
418,-0.233109,0.946689,0.222338,0.618256,0.49786,-0.263934
419,-0.242298,0.951427,0.189932,0.8519629999999999,0.267522,0.014597
420,-0.243981,0.958206,0.149366,0.851967,0.134827,0.059573
421,-0.249207,0.962299,0.108955,0.29036,0.0665549999999999,0.061715
422,-0.259561,0.963372,0.067359,0.07641,0.089271,0.104333
423,-0.26866,0.963065,0.01797,0.106398,0.437142,0.156072
424,-0.275507,0.960179,-0.046352,0.291407,0.857051,0.365154
425,-0.274615,0.956403,-0.099381,0.326526,0.926471,0.20755
426,-0.268784,0.956946,-0.109569,0.235688,0.793588,0.371532
427,-0.263315,0.95991,-0.096094,0.3121739999999999,0.477056,0.673441
428,-0.262619,0.95925,-0.104249,0.443985,0.169916,0.558427
429,-0.2708,0.954638,-0.123816,0.443056,0.05882,0.425543
430,-0.2792949999999999,0.947173,-0.157654,0.3523699999999999,0.027299,0.3507699999999999
431,-0.285803,0.936272,-0.204226,0.3164119999999999,-0.175271,0.190966
432,-0.29146,0.924834,-0.2443989999999999,0.239229,-0.440917,0.209013
433,-0.292152,0.918415,-0.266756,0.417473,-0.496097,0.318971
434,-0.289937,0.91837,-0.269316,0.455495,-0.514225,0.430739
435,-0.286952,0.920562,-0.264995,0.463236,-0.4616989999999999,0.539546
436,-0.285065,0.921321,-0.264392,0.3885659999999999,-0.314906,0.540775
437,-0.279264,0.922635,-0.265995,0.224836,-0.36009,0.456165
438,-0.26125,0.929094,-0.261783,-0.093013,-0.503847,0.206287
439,-0.235844,0.939198,-0.2495639999999999,-0.092632,-0.501973,0.1803809999999999
440,-0.2103679999999999,0.949596,-0.232402,-0.119817,-0.2640949999999999,-0.0414779999999999
441,-0.185755,0.958644,-0.2156239999999999,-0.109975,-0.090236,-0.254362
442,-0.159296,0.964511,-0.2105739999999999,-0.012884,0.517408,-0.637113
443,-0.148931,0.96441,-0.2184699999999999,0.020529,1.141898,-0.929067
444,-0.167936,0.958542,-0.2301969999999999,-0.026431,0.546462,-0.688474
445,-0.199521,0.937895,-0.2837969999999999,0.131299,0.32541,-0.457918
446,-0.241271,0.905564,-0.348913,0.89099,0.969772,1.311208
447,-0.235854,0.899848,-0.366938,0.8204030000000001,-0.195106,1.84962
448,-0.168682,0.926329,-0.336837,0.661388,-1.275862,1.996337
449,-0.131238,0.949086,-0.2863739999999999,-0.374805,-0.678532,0.5751310000000001
450,-0.197377,0.935577,-0.292805,-0.423442,1.483505,-0.061397
451,-0.2828199999999999,0.90868,-0.307102,-0.244981,1.760144,0.754566
452,-0.279445,0.913279,-0.296359,0.488139,0.364919,-0.117444
453,-0.2345409999999999,0.929615,-0.284259,0.465315,0.051006,-0.663784
454,-0.202798,0.938756,-0.278582,0.133325,-0.260701,-0.231535
455,-0.16501,0.949724,-0.266071,0.028886,-0.5123,0.083636
456,-0.130373,0.961694,-0.241129,0.131472,-0.375375,-0.039754
457,-0.114798,0.968727,-0.219967,0.188528,-0.19651,0.086086
458,-0.110402,0.970396,-0.214802,0.06902,-0.186491,-0.1016799999999999
459,-0.1090839999999999,0.969193,-0.22082,0.008177,-0.2726449999999999,-0.194509
460,-0.110413,0.965952,-0.233971,-0.225937,-0.418436,-0.75634
461,-0.1218839999999999,0.961841,-0.244956,-0.230533,-0.4342979999999999,-0.615334
462,-0.134285,0.958208,-0.252589,-0.031273,-0.365008,-0.377263
463,-0.145129,0.953242,-0.265072,0.271563,0.159291,-0.303455
464,-0.158751,0.943892,-0.289589,0.271925,0.14087,-0.182442
465,-0.179995,0.927598,-0.327353,0.1937279999999999,0.051894,-0.029367
466,-0.2106039999999999,0.907108,-0.3644139999999999,0.12813,-0.297687,0.452518
467,-0.246862,0.89328,-0.375642,0.0202539999999999,-0.597122,0.6328590000000001
468,-0.286539,0.872365,-0.396071,0.108286,-0.617863,0.896956
469,-0.32698,0.833706,-0.444988,0.372436,-0.000393,0.828472
470,-0.364233,0.777574,-0.5125529999999999,0.164846,0.920973,0.526713
471,-0.3879039999999999,0.713229,-0.583809,-0.122884,0.800702,-1.132744
472,-0.389221,0.699574,-0.59925,0.299652,-0.055607,0.027977
473,-0.378307,0.710204,-0.593709,0.288738,-0.066238,0.022436
474,-0.35496,0.7357739999999999,-0.576747,-0.125326,-0.581752,-0.21703
475,-0.3220179999999999,0.7795449999999999,-0.537225,-0.02367,-0.571858,-0.165671
476,-0.2802489999999999,0.832208,-0.478421,0.030966,-0.384653,-0.1353329999999999
477,-0.230765,0.882957,-0.408817,0.08045,-0.094322,-0.215878
478,-0.1766309999999999,0.92609,-0.333399,0.217876,0.457012,-0.172537
479,-0.128915,0.95837,-0.254762,0.577829,0.799854,0.059907
480,-0.083999,0.976688,-0.197537,0.405547,-0.507358,0.461941
481,-0.03244,0.986726,-0.159108,0.118851,-0.8729870000000001,0.584447
482,0.00352,0.99111,-0.132982,-0.256999,-0.504522,0.458406
483,-0.020413,0.989623,-0.142214,-0.470538,0.6188819999999999,0.460101
484,-0.1075319999999999,0.974338,-0.197729,-0.491071,1.396267,0.240423
485,-0.168022,0.941092,-0.2934469999999999,-0.295387,0.973978,0.629232
486,-0.168527,0.931435,-0.322526,0.377389,0.185142,0.018602
487,-0.163408,0.928012,-0.334794,0.495958,-0.140003,0.398896
488,-0.139087,0.934981,-0.326286,0.194888,0.304842,-0.241082
489,-0.148843,0.927087,-0.344024,0.071939,0.302451,0.146865
490,-0.178046,0.914283,-0.363845,-0.014474,-0.017203,0.105316
491,-0.2159719999999999,0.8896209999999999,-0.402403,-0.04477,-0.480731,0.245435
492,-0.242079,0.858614,-0.45186,-0.045442,-0.554765,0.4408579999999999
493,-0.256355,0.831834,-0.492272,-0.083672,-0.720933,0.5812149999999999
494,-0.293172,0.812122,-0.5044850000000001,0.024495,-0.741261,0.8304889999999999
495,-0.345817,0.784439,-0.514843,0.450492,0.0128479999999999,0.454113
496,-0.368898,0.750698,-0.5480550000000001,0.2510239999999999,0.474156,-0.324961
497,-0.3749889999999999,0.738609,-0.560212,0.383488,0.0868,0.141266
498,-0.381163,0.738583,-0.5560649999999999,-0.289782,-0.278454,-0.110424
499,-0.382502,0.753866,-0.5342060000000001,-0.12113,0.132654,0.026562
500,-0.368951,0.780421,-0.504792,-0.181449,0.148351,-0.264342
501,-0.338156,0.8120649999999999,-0.475603,0.046515,-0.024742,-0.325484
502,-0.293883,0.8456299999999999,-0.44558,0.084105,-0.091525,-0.450325
503,-0.249304,0.8786290000000001,-0.407255,0.097097,0.053241,-0.507204
504,-0.208504,0.907994,-0.363415,0.036858,0.200176,-0.4385409999999999
505,-0.168848,0.933944,-0.315017,-0.0651,0.539429,-0.179689
506,-0.1347,0.954186,-0.267171,-0.155567,0.3021,0.182134
507,-0.09431,0.970092,-0.223658,-0.125844,-0.237533,0.6633399999999999
508,-0.045972,0.985378,-0.164055,-0.420886,-0.4948229999999999,0.922737
509,-0.022525,0.993295,-0.1133769999999999,-0.644025,-0.4349,0.696843
510,-0.0298639999999999,0.99499,-0.09539,-0.430997,-0.170786,0.025184
511,-0.061944,0.990887,-0.119592,0.001732,0.31055,-0.8672549999999999
512,-0.130647,0.976157,-0.173335,-0.140715,2.313836,-0.948919
513,-0.177547,0.961121,-0.211471,0.8413950000000001,0.802367,-0.801652
514,-0.146424,0.959719,-0.239783,0.2691969999999999,-0.862353,0.817679
515,-0.094158,0.967511,-0.234634,0.071667,-0.736676,0.586182
516,-0.059805,0.976401,-0.20751,-0.37504,-0.03057,-0.28953
517,-0.071256,0.978885,-0.191582,0.1423,0.370709,0.2331619999999999
518,-0.088931,0.978406,-0.186572,0.235415,0.349887,-0.103833
519,-0.112062,0.972434,-0.204479,-0.006286,0.141321,-0.507847
520,-0.138414,0.960757,-0.240384,-0.16931,-0.310778,-0.400363
521,-0.160869,0.946112,-0.281052,-0.184971,-0.321158,-0.183288
522,-0.184435,0.921666,-0.34134,-0.250868,-0.459492,0.435579
523,-0.204611,0.8868309999999999,-0.4143229999999999,-0.06727,-0.385412,0.5435949999999999
524,-0.232756,0.849744,-0.473031,0.11331,-0.332288,0.7817470000000001
525,-0.301671,0.810191,-0.502576,0.369924,-0.142726,0.799543
526,-0.355861,0.7535850000000001,-0.5526939999999999,0.266368,0.265793,-0.521937
527,-0.368351,0.720146,-0.587968,0.311084,0.285179,0.322709
528,-0.386486,0.703634,-0.59626,-0.126987,-0.230032,0.152946
529,-0.394513,0.697705,-0.597968,-0.13074,-0.2326619999999999,0.045142
530,-0.379851,0.709707,-0.5933189999999999,-0.117464,-0.23934,-0.230076
531,-0.35299,0.742522,-0.569261,-0.081291,-0.360854,-0.352095
532,-0.319884,0.790083,-0.5229159999999999,0.034789,-0.343077,-0.3586
533,-0.282328,0.842224,-0.459292,0.0522399999999999,-0.324035,-0.334989
534,-0.235726,0.891332,-0.387244,0.077279,0.00207,-0.173318
535,-0.1787349999999999,0.932438,-0.3140239999999999,0.150385,0.6984520000000001,0.2731449999999999
536,-0.119005,0.961087,-0.249293,0.250306,0.293231,0.3532969999999999
537,-0.066152,0.977051,-0.202467,-0.026957,-0.497147,0.813673
538,-0.033246,0.985073,-0.1688859999999999,-0.229373,-0.2525139999999999,0.8258840000000001
539,-0.032682,0.986456,-0.1607309999999999,-0.824083,0.583292,-0.235875
540,-0.0871,0.974809,-0.205327,-0.267576,0.621474,-0.47668
541,-0.161142,0.954626,-0.2504369999999999,0.103464,1.324747,-1.005728
542,-0.176432,0.946903,-0.26878,-0.169652,1.099972,-0.656208
543,-0.154979,0.946906,-0.2816849999999999,0.348705,-0.229209,0.46833
544,-0.1341619999999999,0.951748,-0.275994,0.320502,-0.388119,-0.090919
545,-0.132393,0.95153,-0.277594,0.26725,0.351036,-0.261682
546,-0.16646,0.93499,-0.31318,0.1060349999999999,0.258186,0.251061
547,-0.2068559999999999,0.912069,-0.354031,-0.0495829999999999,0.027339,0.302044
548,-0.2422929999999999,0.878892,-0.410902,-0.0310839999999999,-0.736115,0.584348
549,-0.261815,0.847309,-0.462079,-0.176098,-0.880741,0.510892
550,-0.293903,0.8197409999999999,-0.491572,-0.149289,-0.924493,0.622004
551,-0.339752,0.785096,-0.517871,0.558761,-0.29358,0.46767
552,-0.373832,0.7467520000000001,-0.550099,0.534904,0.167769,-0.211467
553,-0.373901,0.739205,-0.560154,0.3286429999999999,0.23423,0.046985
554,-0.366693,0.744658,-0.55769,-0.027457,-0.4439229999999999,-0.040393
555,-0.36262,0.757825,-0.542408,0.05778,-0.421216,-0.0866659999999999
556,-0.350132,0.784974,-0.511097,-0.028881,-0.039705,-0.065868
557,-0.31909,0.824209,-0.467822,-0.199174,0.165979,-0.297894
558,-0.267944,0.868332,-0.4173739999999999,-0.159424,0.211975,-0.4743949999999999
559,-0.2019099999999999,0.907166,-0.369159,-0.003885,0.61322,-0.5050020000000001
560,-0.135218,0.936589,-0.323286,0.1192569999999999,0.578975,-0.55823
561,-0.079068,0.955795,-0.283197,0.140729,0.197297,-0.128806
562,-0.046664,0.967518,-0.2484489999999999,-0.314465,-0.467075,1.418799
563,-0.024697,0.974754,-0.221901,-0.303703,-0.324943,1.244926
564,-0.025919,0.976549,-0.213719,-0.616689,0.257567,0.3727
565,-0.072143,0.962724,-0.260679,0.03279,1.853347,-1.210116
566,-0.1892589999999999,0.919449,-0.344661,0.1240579999999999,1.603119,-0.940617
567,-0.213339,0.8984989999999999,-0.383644,0.5226350000000001,-0.141113,0.303565
568,-0.158644,0.905398,-0.393807,0.444593,-0.213488,-0.064216
569,-0.129254,0.91587,-0.3800949999999999,0.275051,0.105874,0.147703
570,-0.128858,0.929564,-0.345402,0.268598,0.255693,0.034855
571,-0.140894,0.937278,-0.318833,-0.0567679999999999,0.140954,-0.323532
572,-0.156444,0.934152,-0.320747,-0.153554,-0.035364,-0.341652
573,-0.1627549999999999,0.931699,-0.324718,-0.20579,-0.270124,-0.1925089999999999
574,-0.169564,0.928185,-0.331233,-0.189429,-0.404763,0.154505
575,-0.183035,0.915583,-0.358053,-0.2091469999999999,-0.514628,0.340093
576,-0.202488,0.894178,-0.3992989999999999,-0.1214869999999999,-0.530226,0.525886
577,-0.228353,0.869166,-0.4386359999999999,0.026266,-0.2334699999999999,0.687446
578,-0.275473,0.850029,-0.448956,0.099646,0.115623,0.7300840000000001
579,-0.343889,0.8105060000000001,-0.474149,0.370043,0.4539899999999999,0.004178
580,-0.379517,0.762652,-0.5237609999999999,-0.181304,0.7866489999999999,-0.389173
581,-0.388407,0.747157,-0.539345,0.116755,0.2275739999999999,0.400277
582,-0.395879,0.737476,-0.547179,0.1238,-0.6880069999999999,0.240417
583,-0.39593,0.735241,-0.550143,0.046031,-0.478191,-0.125058
584,-0.377996,0.752011,-0.539996,0.005224,-0.001721,-0.18707
585,-0.343128,0.788041,-0.511128,0.104191,-0.195939,-0.132747
586,-0.301781,0.8318969999999999,-0.4656949999999999,0.021111,-0.298801,-0.1217829999999999
587,-0.254961,0.87461,-0.4123699999999999,-0.056685,-0.139014,-0.165846
588,-0.202572,0.913344,-0.353219,-0.018131,0.198976,-0.292639
589,-0.153628,0.946341,-0.284313,0.089099,0.536768,-0.260808
590,-0.1184089999999999,0.970527,-0.209885,0.061448,0.622139,-0.086944
591,-0.087377,0.98481,-0.150031,0.052038,0.25019,0.030188
592,-0.045964,0.991848,-0.118825,-0.146694,-0.312573,0.030461
593,-0.012938,0.994641,-0.102558,-0.367052,-0.918011,0.632328
594,0.007437,0.995782,-0.09142,-0.628562,-0.590448,0.616566
595,-0.001283,0.995983,-0.089504,-0.415877,0.218632,0.463055
596,-0.031718,0.994037,-0.1043089999999999,-0.031957,0.959882,-0.265549
597,-0.070571,0.987072,-0.143891,0.5741569999999999,1.420597,-1.70674
598,-0.096008,0.973904,-0.205645,0.502777,0.4590189999999999,0.644305
599,-0.0491,0.981214,-0.186559,-0.255846,0.35773,-0.367686
600,-0.024943,0.987027,-0.158593,-0.061926,0.4576909999999999,0.157753
601,-0.033875,0.98637,-0.161003,0.201463,0.400288,0.167366
602,-0.053188,0.98084,-0.1874019999999999,0.166713,0.1775,-0.059729
603,-0.085511,0.9663,-0.2427909999999999,0.094941,-0.183738,0.168023
604,-0.129302,0.942364,-0.308589,-0.018601,-0.402798,0.293864
605,-0.179116,0.910135,-0.373589,0.01629,-0.919977,0.5512779999999999
606,-0.2178699999999999,0.8862700000000001,-0.408724,0.063207,-1.101754,0.269365
607,-0.259605,0.8644709999999999,-0.430457,0.1110299999999999,-1.0268700000000002,0.395545
608,-0.281947,0.841026,-0.461713,0.581233,-0.716087,0.311216
609,-0.296936,0.828368,-0.475009,0.677398,-0.916075,0.5692020000000001
610,-0.307417,0.8200870000000001,-0.482649,0.273313,-0.8308450000000001,0.255048
611,-0.308292,0.8216110000000001,-0.479488,0.080585,-0.526476,-0.25301
612,-0.299584,0.842533,-0.4476449999999999,0.125542,0.161999,-0.1632559999999999
613,-0.280361,0.869991,-0.405599,0.066097,0.175343,-0.397959
614,-0.255535,0.897676,-0.358994,-0.040638,0.16252,-0.585296
615,-0.222942,0.920802,-0.320025,-0.34084,0.746861,-0.657849
616,-0.183755,0.940495,-0.285832,-0.428931,0.956081,-0.361187
617,-0.13437,0.958926,-0.249804,-0.384398,0.856825,-0.262021
618,-0.088063,0.974365,-0.20701,0.050038,-0.063294,0.5721069999999999
619,-0.062351,0.987722,-0.14322,-0.089504,0.141153,1.046648
620,-0.065975,0.992614,-0.101787,-0.032734,0.132631,1.179912
621,-0.092165,0.992263,-0.0831539999999999,0.1061569999999999,0.455476,0.447167
622,-0.136682,0.984721,-0.107873,-0.1029109999999999,1.105092,-0.313971
623,-0.157821,0.976754,-0.14505,0.046508,0.983238,-0.36789
624,-0.144537,0.982168,-0.120208,0.38677,0.297144,0.035354
625,-0.124595,0.988681,-0.0835429999999999,0.240028,0.039074,0.129274
626,-0.109688,0.992565,-0.052713,0.127891,-0.030239,0.226404
627,-0.104898,0.994173,-0.0247289999999999,-0.038916,-0.1687789999999999,0.051355
628,-0.109622,0.993957,-0.005257,-0.044218,-0.3393239999999999,-0.114006
629,-0.1176339999999999,0.992973,0.012735,0.036259,-0.409126,-0.273065
630,-0.126461,0.991207,0.038858,0.167492,-0.499478,-0.25799
631,-0.138309,0.988474,0.061515,0.2439,-0.4901529999999999,-0.065055
632,-0.158667,0.9848,0.070634,0.278875,-0.446577,-0.089067
633,-0.18095,0.980717,0.0738019999999999,0.178829,-0.274555,-0.196071
634,-0.2008059999999999,0.976535,0.077795,0.2141719999999999,-0.151645,-0.278723
635,-0.2210869999999999,0.972055,0.078899,0.244494,-0.271036,-0.401775
636,-0.246889,0.966585,0.068957,0.2272969999999999,-0.292802,-0.393511
637,-0.281543,0.958477,0.0453019999999999,0.138232,-0.446208,-0.30693
638,-0.32442,0.945904,0.003781,0.31061,-0.401073,-0.002209
639,-0.368529,0.928156,-0.052062,0.3441,-0.0024809999999999,0.370253
640,-0.395787,0.910603,-0.118964,0.259785,1.747784,0.58892
641,-0.390576,0.904933,-0.168947,-0.218158,2.135228,0.338946
642,-0.368086,0.907493,-0.202404,-0.938662,1.488931,0.294506
643,-0.331271,0.91361,-0.235742,0.311206,1.097514,-0.09307
644,-0.309737,0.917907,-0.248007,0.517486,0.7085279999999999,-0.141641
645,-0.287101,0.924328,-0.251373,0.434791,0.913486,0.160415
646,-0.249617,0.933769,-0.256445,0.333921,0.767204,0.4553279999999999
647,-0.1895099999999999,0.947878,-0.2561469999999999,0.056026,0.3175949999999999,0.4562199999999999
648,-0.14277,0.955236,-0.25911,-0.004569,-0.106649,0.503815
649,-0.11855,0.956978,-0.264833,0.005635,-0.2444989999999999,0.495134
650,-0.111694,0.957714,-0.265152,-0.119767,-0.442181,0.672821
651,-0.118691,0.958048,-0.260871,-0.170356,-0.606577,0.585471
652,-0.138623,0.956013,-0.258495,-0.076038,-0.563435,0.370357
653,-0.163415,0.953416,-0.253554,0.048287,-0.445985,0.249175
654,-0.186798,0.950735,-0.247398,0.14505,-0.364584,0.1276769999999999
655,-0.205679,0.946356,-0.249205,0.050925,-0.371054,-0.203477
656,-0.222303,0.942316,-0.250238,0.069623,-0.441385,-0.2612219999999999
657,-0.237778,0.94017,-0.244004,0.2381599999999999,-0.155823,-0.4286189999999999
658,-0.251275,0.936609,-0.244173,0.473077,0.399633,-0.658842
659,-0.259383,0.930508,-0.258596,0.364852,0.701969,-0.487651
660,-0.262602,0.923283,-0.280329,0.322829,0.274348,-0.270879
661,-0.260934,0.918013,-0.2986,0.354608,-0.244811,-0.334273
662,-0.259481,0.916387,-0.304797,0.291647,-0.5410510000000001,-0.284482
663,-0.248998,0.920394,-0.30145,0.355703,-0.641967,0.008404
664,-0.225122,0.929366,-0.292568,0.349817,-0.009642,0.4961359999999999
665,-0.197354,0.93921,-0.280951,0.247571,0.6741020000000001,0.7088840000000001
666,-0.1894799999999999,0.943776,-0.27089,-0.006825,2.345287,1.215059
667,-0.207695,0.940027,-0.270573,-0.1619799999999999,1.052069,0.252339
668,-0.250262,0.926663,-0.280466,-0.059125,-0.66145,0.610575
669,-0.284508,0.920919,-0.266385,-0.090736,-1.151281,0.416074
670,-0.297517,0.922972,-0.244138,0.368379,0.321718,-0.143619
671,-0.2944239999999999,0.929997,-0.220036,1.040579,0.696651,0.280796
672,-0.268935,0.945103,-0.185605,0.93138,0.505,0.484372
673,-0.2573,0.954695,-0.1495,0.328955,0.2084369999999999,0.28451
674,-0.255278,0.958675,-0.125581,0.1937549999999999,0.040516,0.1297309999999999
675,-0.254421,0.962066,-0.098462,0.000697,-0.065627,-0.016284
676,-0.256376,0.964778,-0.058903,-0.0090049999999999,-0.104701,-0.1749079999999999
677,-0.253294,0.967317,-0.01157,0.051313,-0.093233,-0.168774
678,-0.2446849999999999,0.969145,0.0296829999999999,0.107829,-0.174757,-0.163945
679,-0.2359619999999999,0.970016,0.058188,0.244553,-0.276061,-0.029792
680,-0.2297199999999999,0.970006,0.079441,0.2481219999999999,-0.26505,0.0101129999999999
681,-0.227739,0.968654,0.0991799999999999,0.22423,-0.193371,0.042253
682,-0.227723,0.965953,0.122759,0.206208,-0.0912429999999999,0.098371
683,-0.229033,0.962204,0.147312,0.139815,-0.041931,0.079739
684,-0.232401,0.958075,0.1675559999999999,0.064326,-0.001975,-0.049666
685,-0.232933,0.95383,0.189591,-0.017952,0.133145,-0.284851
686,-0.228925,0.949242,0.215698,-0.06093,0.174705,-0.320083
687,-0.228019,0.945432,0.232721,-0.0514919999999999,0.2662989999999999,-0.34675
688,-0.237396,0.942619,0.2347469999999999,0.4943079999999999,0.1716079999999999,0.220698
689,-0.249013,0.940331,0.231868,0.347555,0.592689,-0.181331
690,-0.245214,0.938462,0.2432139999999999,0.165411,0.5464319999999999,-0.769474
691,-0.222293,0.934397,0.278356,0.37189,0.541388,-0.754354
692,-0.2136469999999999,0.935858,0.280211,0.434564,0.45402,-0.688048
693,-0.228175,0.940473,0.251872,0.597224,0.208926,-0.3200179999999999
694,-0.2409929999999999,0.946339,0.215308,0.405391,0.227107,-0.045035
695,-0.246888,0.954004,0.17005,0.328202,0.193671,0.106821
696,-0.247571,0.96119,0.121724,0.243283,0.087699,-0.010594
697,-0.246025,0.966595,0.071823,0.395317,0.431964,0.079468
698,-0.2456829999999999,0.96894,0.028069,0.400179,0.5572739999999999,0.227226
699,-0.241838,0.970312,0.001535,0.388734,0.666223,0.116095
700,-0.23453,0.972007,-0.0138319999999999,0.378085,0.625023,0.217658
701,-0.222648,0.974692,-0.019933,0.403846,0.431985,0.3871969999999999
702,-0.214006,0.976151,-0.036412,0.384676,0.21933,0.478993
703,-0.215434,0.973358,-0.078463,0.329173,-0.000778,0.444537
704,-0.227181,0.965611,-0.126405,0.234704,-0.054936,0.149553
705,-0.2402909999999999,0.956322,-0.166447,0.32194,-0.033333,0.259144
706,-0.247481,0.948477,-0.197838,0.340331,0.0002839999999999,0.310128
707,-0.251731,0.942007,-0.221923,0.209754,-0.347433,0.3043659999999999
708,-0.258476,0.937029,-0.234863,0.186348,-0.375979,0.34906
709,-0.262505,0.93405,-0.242151,0.210167,-0.409956,0.382684
710,-0.262677,0.933312,-0.244796,0.1187109999999999,-0.438637,0.410811
711,-0.255741,0.935356,-0.244335,0.009433,-0.427422,0.350109
712,-0.2434619999999999,0.940187,-0.2382639999999999,-0.047034,-0.474733,0.310041
713,-0.227088,0.947261,-0.226101,-0.081262,-0.666759,0.126858
714,-0.208153,0.956371,-0.204988,-0.009544,-0.5942649999999999,-0.0565779999999999
715,-0.187747,0.966579,-0.174556,0.001651,-0.38351,-0.305043
716,-0.170523,0.974571,-0.145346,0.034064,0.2138139999999999,-0.569238
717,-0.165036,0.976261,-0.140252,-0.277607,1.473141,-0.78112
718,-0.185572,0.970088,-0.1564819999999999,-0.405019,0.4624689999999999,-0.792752
719,-0.2224269999999999,0.952664,-0.207247,-0.420792,0.297595,-0.8804299999999999
720,-0.280567,0.919977,-0.273715,0.4652439999999999,1.626761,0.789096
721,-0.289527,0.908275,-0.302002,0.891074,-0.87611,1.436783
722,-0.256405,0.920555,-0.294669,0.682049,-1.630302,1.4574200000000002
723,-0.234279,0.933381,-0.271859,0.032985,-1.065492,0.419426
724,-0.269109,0.926209,-0.264029,-0.33314,1.580565,-0.224923
725,-0.297009,0.917974,-0.262875,-0.065952,1.399408,0.400738
726,-0.254086,0.936291,-0.242473,0.457318,0.295047,0.23698
727,-0.212419,0.954561,-0.2090119999999999,0.013597,0.1086099999999999,-0.352588
728,-0.19888,0.960511,-0.194575,0.0613679999999999,-0.036957,0.084361
729,-0.188841,0.965577,-0.178871,0.150953,-0.221711,0.107292
730,-0.172365,0.972926,-0.153945,0.1398329999999999,-0.407802,0.02072
731,-0.152379,0.98012,-0.127046,0.106938,-0.369448,-0.0677789999999999
732,-0.140663,0.983859,-0.11059,0.058586,-0.2957639999999999,-0.118948
733,-0.136363,0.984847,-0.107123,0.052684,-0.122588,-0.130502
734,-0.135311,0.98425,-0.113738,0.0913809999999999,-0.147367,-0.1365829999999999
735,-0.133542,0.984033,-0.117645,0.047452,-0.2983179999999999,-0.310593
736,-0.130222,0.983765,-0.123464,0.002018,-0.7324069999999999,-0.01681
737,-0.1274559999999999,0.983632,-0.12735,-0.029755,-0.798848,-0.174576
738,-0.1357539999999999,0.981763,-0.133066,-0.1160619999999999,-0.375425,-0.411764
739,-0.1569569999999999,0.976545,-0.147375,0.035954,0.007311,-0.3210389999999999
740,-0.177036,0.969759,-0.167993,0.197513,0.203825,-0.128912
741,-0.192213,0.96086,-0.199495,0.205488,-0.038481,0.066408
742,-0.210765,0.944742,-0.2510719999999999,0.16978,-0.122705,0.309422
743,-0.242494,0.918671,-0.311826,-0.0016309999999999,-0.0360269999999999,0.5397770000000001
744,-0.296576,0.8718110000000001,-0.389852,-0.190866,0.187958,0.2073719999999999
745,-0.352981,0.809247,-0.469597,-0.25615,0.835376,-0.921135
746,-0.357753,0.775688,-0.519922,0.155147,1.377038,-0.242835
747,-0.368048,0.751923,-0.546946,0.224097,1.064804,0.076457
748,-0.3694139999999999,0.7452300000000001,-0.555124,-0.091585,-0.056875,-0.067602
749,-0.358168,0.756437,-0.547281,-0.0547659999999999,-0.209028,-0.103598
750,-0.344136,0.7786850000000001,-0.524612,-0.071879,-0.456999,-0.042054
751,-0.325446,0.807211,-0.492434,0.063895,-0.625449,0.0034509999999999
752,-0.300213,0.840709,-0.45064,0.204342,-0.776714,0.111819
753,-0.263108,0.877344,-0.401294,0.137605,-0.801584,0.248996
754,-0.2151679999999999,0.913836,-0.344388,0.169727,-0.525393,0.350613
755,-0.164147,0.946985,-0.2761699999999999,0.148965,-0.152918,0.2574929999999999
756,-0.124294,0.973386,-0.192523,0.139828,0.161211,0.224459
757,-0.0966419999999999,0.989225,-0.109949,0.109704,0.136996,0.061045
758,-0.066403,0.996198,-0.0563409999999999,0.28674,-0.372907,-0.296167
759,-0.040585,0.99775,-0.0533169999999999,0.0024219999999999,-0.722039,-0.737897
760,-0.0339519999999999,0.995021,-0.093674,-0.123199,-0.626033,0.439011
761,-0.047734,0.995397,-0.083072,0.133092,0.6740520000000001,1.291065
762,-0.092109,0.987918,-0.1246109999999999,-0.399681,3.664944,-3.1442490000000003
763,-0.125945,0.974932,-0.183412,-0.393663,0.785611,2.144777
764,-0.127059,0.972087,-0.1972269999999999,-0.266252,-0.223735,-1.683129
765,-0.139221,0.962454,-0.233015,0.361908,-0.534918,-0.1026329999999999
766,-0.1409099999999999,0.963829,-0.226213,0.409511,0.351951,-0.728789
767,-0.1506809999999999,0.962849,-0.224079,0.37526,0.7371479999999999,-0.165478
768,-0.169724,0.953852,-0.247702,0.200105,0.364538,0.369772
769,-0.2043,0.931756,-0.300146,-0.075989,-0.588494,0.586828
770,-0.231113,0.905384,-0.35618,-0.1051609999999999,-0.764469,0.763071
771,-0.25078,0.883858,-0.394844,-0.346205,-1.033546,0.378807
772,-0.295564,0.85185,-0.432424,0.313783,-0.858152,0.359044
773,-0.336753,0.815998,-0.469833,0.629584,-0.4366489999999999,0.168014
774,-0.346277,0.797633,-0.4938329999999999,0.6434270000000001,-0.03599,-0.152697
775,-0.341837,0.80176,-0.49023,0.092295,-0.331805,-0.085561
776,-0.340986,0.816469,-0.465943,0.163816,-0.536455,-0.17134
777,-0.32819,0.8447819999999999,-0.422649,0.007816,-0.366404,-0.016362
778,-0.296811,0.880341,-0.37,-0.192325,0.006836,-0.395854
779,-0.2390739999999999,0.917954,-0.3165449999999999,-0.186647,0.1150359999999999,-0.858366
780,-0.171147,0.949809,-0.261852,-0.056621,0.606679,-1.048359
781,-0.1192299999999999,0.971276,-0.205916,0.058134,0.743384,-0.48607
782,-0.08451,0.982126,-0.168171,0.070716,0.344702,-0.093578
783,-0.046997,0.988623,-0.142862,-0.171769,-0.620291,1.327997
784,-0.021493,0.993343,-0.113147,-0.50283,0.2187239999999999,0.500598
785,-0.045856,0.991198,-0.124166,-0.567334,0.697751,-0.159099
786,-0.123046,0.972521,-0.197628,0.354187,2.056349,-1.015706
787,-0.1807109999999999,0.950457,-0.252924,-0.059325,0.65161,-0.9018
788,-0.156649,0.948126,-0.2766079999999999,0.170748,-0.1125859999999999,-0.2113989999999999
789,-0.1220059999999999,0.947992,-0.293973,-0.0136759999999999,-0.2978909999999999,-0.468585
790,-0.130681,0.93686,-0.324362,-0.051372,-0.02147,0.327154
791,-0.180586,0.910147,-0.37285,0.007154,-0.044424,0.459703
792,-0.237257,0.8819370000000001,-0.4072989999999999,0.171476,-0.724909,0.441692
793,-0.283893,0.8580059999999999,-0.428048,0.2405119999999999,-1.015813,0.528939
794,-0.311062,0.8333969999999999,-0.456822,0.309277,-0.973823,0.461979
795,-0.325057,0.812075,-0.4846319999999999,0.397948,-0.94887,0.465101
796,-0.340278,0.792404,-0.506264,0.40023,-0.464263,0.251167
797,-0.344277,0.781431,-0.520418,0.31495,-0.215131,0.116701
798,-0.33536,0.7902819999999999,-0.5128189999999999,0.051653,-0.357482,-0.277449
799,-0.323937,0.810245,-0.48843,0.034081,-0.298511,-0.293476
800,-0.305205,0.8410709999999999,-0.446592,-0.136934,0.1016929999999999,-0.3291949999999999
801,-0.274165,0.877863,-0.392664,-0.36498,0.206869,-0.455908
802,-0.220375,0.914826,-0.338412,-0.172768,0.8255610000000001,-0.830838
803,-0.156876,0.944731,-0.287867,-0.00209,0.6900350000000001,-0.752767
804,-0.1005409999999999,0.960091,-0.260978,0.163194,0.31974,-0.222039
805,-0.064841,0.964149,-0.257307,-0.261163,-0.0309519999999999,1.317487
806,-0.050911,0.965797,-0.254238,-0.701789,0.29467,1.057781
807,-0.061402,0.96243,-0.264482,-0.616058,0.152667,0.6530630000000001
808,-0.129788,0.940407,-0.314299,0.339368,1.4873120000000002,0.4923689999999999
809,-0.188116,0.914502,-0.3581789999999999,0.239431,0.99602,-1.024389
810,-0.1681099999999999,0.922717,-0.346881,0.214252,0.003827,0.006763
811,-0.140069,0.933757,-0.329352,0.052057,0.168462,-0.101739
812,-0.122448,0.939495,-0.319922,0.104626,0.419514,-0.1645599999999999
813,-0.130113,0.93543,-0.328687,0.114748,0.391291,-0.084872
814,-0.156024,0.922951,-0.351869,-0.054104,-0.3824849999999999,0.347199
815,-0.188375,0.903582,-0.384772,-0.019038,-0.949846,0.3739389999999999
816,-0.216732,0.880867,-0.420827,-0.073414,-1.126442,0.419041
817,-0.239855,0.8599100000000001,-0.450577,-0.082487,-0.986374,0.469163
818,-0.269939,0.8428110000000001,-0.4656149999999999,0.1582599999999999,-0.707008,0.473641
819,-0.314712,0.820947,-0.476443,0.586258,-0.125589,0.395083
820,-0.338515,0.797786,-0.4989399999999999,0.628402,-0.015437,0.189797
821,-0.339419,0.793867,-0.504545,-0.169371,-0.116239,-0.093187
822,-0.331928,0.804175,-0.4930739999999999,-0.08804,-0.151847,-0.010939
823,-0.326664,0.820702,-0.468759,-0.034664,0.12867,-0.2119199999999999
824,-0.309639,0.848568,-0.429013,-0.190163,0.298664,-0.2626219999999999
825,-0.271225,0.8850299999999999,-0.378357,-0.407333,0.327952,-0.450791
826,-0.2081309999999999,0.921224,-0.3286699999999999,-0.118789,0.423808,-0.692876
827,-0.141469,0.948476,-0.283503,-0.127437,0.567332,-0.650976
828,-0.090643,0.966631,-0.239588,0.224951,0.277753,-0.333212
829,-0.05305,0.976842,-0.207267,0.330928,-0.461217,1.032935
830,-0.016622,0.984007,-0.177331,0.2278489999999999,-0.466979,1.172357
831,0.0065439999999999,0.987872,-0.155108,-0.453992,0.234586,0.756213
832,0.000148,0.987311,-0.158775,-1.122325,0.961053,-0.865547
833,-0.055973,0.969614,-0.23814,-0.589398,0.7021390000000001,-0.770726
834,-0.15173,0.931936,-0.329345,0.666104,-0.256887,0.376892
835,-0.135925,0.930803,-0.339301,0.289367,0.48532,-1.479303
836,-0.1065369999999999,0.936845,-0.333115,0.131089,0.416579,-0.457535
837,-0.115666,0.939333,-0.322907,0.1405539999999999,0.396406,0.5581520000000001
838,-0.137113,0.927803,-0.346953,0.022001,0.09568,-0.069017
839,-0.176174,0.8966430000000001,-0.4061889999999999,0.054088,-0.225744,0.004883
840,-0.2028839999999999,0.864115,-0.460584,0.080631,-0.760996,0.1152319999999999
841,-0.2279929999999999,0.8383200000000001,-0.4952109999999999,0.119244,-0.861483,0.6097279999999999
842,-0.255675,0.817349,-0.516301,0.183439,-0.756146,0.721837
843,-0.293943,0.7955979999999999,-0.529733,0.108198,-0.279027,0.6266729999999999
844,-0.336136,0.7585069999999999,-0.55828,0.269974,0.348823,-0.0938809999999999
845,-0.358046,0.737421,-0.572721,0.198363,0.235403,0.056455
846,-0.371092,0.735514,-0.5668380000000001,-0.003404,-0.427195,-0.184032
847,-0.3839619999999999,0.744333,-0.5463859999999999,-0.276866,-0.195566,-0.076432
848,-0.376085,0.769692,-0.515878,-0.391158,0.121574,-0.264807
849,-0.3461,0.8061,-0.480014,-0.304611,0.222938,-0.550473
850,-0.298153,0.848986,-0.436259,-0.309757,0.139295,-0.664022
851,-0.2446699999999999,0.890418,-0.38378,0.0082659999999999,-0.224097,-0.685999
852,-0.191902,0.926327,-0.324169,0.0966559999999999,-0.1431849999999999,-0.518986
853,-0.144679,0.951797,-0.270452,0.300792,6.2e-05,0.253819
854,-0.100881,0.968782,-0.2264429999999999,0.281911,-0.453462,0.934573
855,-0.066249,0.981794,-0.178001,0.075817,-0.455549,1.288292
856,-0.0560019999999999,0.986889,-0.151346,-0.50395,0.077473,0.699106
857,-0.078099,0.982259,-0.17047,-1.273845,0.775309,-0.702561
858,-0.141866,0.960386,-0.2398429999999999,-0.5861310000000001,0.833208,-0.750834
859,-0.206927,0.935583,-0.286109,0.68114,1.473871,-0.68963
860,-0.166104,0.935694,-0.311256,0.26318,0.144949,-0.084282
861,-0.116283,0.945947,-0.302747,0.026973,-0.70672,0.47151
862,-0.095645,0.95404,-0.283995,-0.1853759999999999,-0.535949,-0.4273699999999999
863,-0.130394,0.945272,-0.299085,0.027886,0.40803,-0.142535
864,-0.180044,0.929932,-0.320631,0.1153309999999999,0.63179,-0.842424
865,-0.204851,0.915519,-0.346201,0.203126,0.366753,-0.5475220000000001
866,-0.213329,0.905852,-0.365946,0.069897,-0.422911,0.224055
867,-0.234169,0.8917219999999999,-0.387286,-0.1310339999999999,-0.47444,0.8553799999999999
868,-0.271184,0.868842,-0.4142079999999999,-0.055385,-0.3488679999999999,0.864693
869,-0.318266,0.833838,-0.451017,0.111921,-0.213888,0.704725
870,-0.370239,0.785563,-0.495791,0.245376,0.118749,-0.598158
871,-0.3926179999999999,0.760092,-0.51779,0.335184,0.393061,0.067915
872,-0.398443,0.753135,-0.523475,0.012167,-0.362388,0.078239
873,-0.405371,0.7524609999999999,-0.5191060000000001,-0.230569,-0.367513,0.1408859999999999
874,-0.3996679999999999,0.765162,-0.5047649999999999,-0.130118,-0.125162,0.0533029999999999
875,-0.3789869999999999,0.791501,-0.479468,-0.032665,-0.243008,-0.01011
876,-0.347105,0.825574,-0.444905,0.039762,-0.5307430000000001,-0.025493
877,-0.305917,0.8612620000000001,-0.405754,0.0817809999999999,-0.516826,-0.0819169999999999
878,-0.258243,0.895509,-0.3624469999999999,0.153857,-0.253618,-0.203639
879,-0.2077429999999999,0.927859,-0.309699,0.186991,-0.043612,-0.2906579999999999
880,-0.164179,0.957352,-0.237728,0.143733,0.322845,-0.2154889999999999
881,-0.131731,0.978443,-0.159023,0.054461,0.464871,0.024715
882,-0.102663,0.989808,-0.098646,-0.022368,0.241835,0.277464
883,-0.079899,0.994314,-0.07034,-0.334987,-0.148824,0.326688
884,-0.078011,0.994322,-0.072314,-0.532829,-0.021772,0.248935
885,-0.101473,0.989828,-0.099677,-0.5640390000000001,0.565852,-0.3103869999999999
886,-0.143423,0.980644,-0.133262,0.551397,0.257805,-0.367317
887,-0.173202,0.972509,-0.155625,0.541381,0.887339,-0.160293
888,-0.170742,0.970876,-0.168044,0.280498,0.932948,-0.708176
889,-0.164969,0.969954,-0.17879,0.3091489999999999,-0.365569,0.700229
890,-0.156394,0.974472,-0.161052,0.177497,-0.286941,0.17126
891,-0.15496,0.978383,-0.1369119999999999,0.018683,0.079203,-0.023412
892,-0.164619,0.978701,-0.122626,0.209693,0.14607,0.1173309999999999
893,-0.172899,0.979421,-0.104078,0.1169299999999999,-0.072911,-0.161898
894,-0.182313,0.978871,-0.092546,-0.075026,-0.307851,-0.244307
895,-0.197072,0.97645,-0.087749,-0.032466,-0.399439,-0.217824
896,-0.215002,0.972819,-0.085957,0.157996,-0.401133,-0.203396
897,-0.233834,0.968763,-0.082528,0.305291,-0.3272989999999999,-0.2446809999999999
898,-0.251956,0.964808,-0.075208,0.36626,-0.2251989999999999,-0.277972
899,-0.268075,0.961589,-0.058949,0.4736869999999999,-0.102748,-0.169704
900,-0.279479,0.959481,-0.035753,0.432357,-0.077264,-0.261397
901,-0.289952,0.956979,-0.01053,0.235738,-0.133706,-0.399657
902,-0.303777,0.952588,0.016941,0.161427,-0.173627,-0.532215
903,-0.320486,0.946126,0.0461149999999999,0.34519,-0.147038,-0.449633
904,-0.342077,0.937686,0.060991,0.546606,-0.195697,-0.326585
905,-0.366317,0.928857,0.0550159999999999,0.403609,-0.480371,-0.236244
906,-0.387047,0.921303,0.037237,0.331138,-0.321831,0.099116
907,-0.4062699999999999,0.913596,0.016655,0.197378,0.1232089999999999,0.4303659999999999
908,-0.412981,0.910595,-0.015934,0.102236,1.309452,0.414066
909,-0.400037,0.915718,-0.037697,-0.61774,1.81974,0.393853
910,-0.36699,0.928156,-0.061937,-1.111816,1.42095,0.025666
911,-0.320385,0.943478,-0.084812,-0.327167,1.041934,-0.2173119999999999
912,-0.286463,0.951068,-0.1157589999999999,0.052256,1.26341,-0.326975
913,-0.259757,0.953342,-0.153807,0.38253,1.201565,-0.152941
914,-0.222252,0.957257,-0.185082,0.359504,1.068668,-0.104789
915,-0.171062,0.962505,-0.21051,0.070095,0.452214,0.0467529999999999
916,-0.12424,0.966658,-0.223894,-0.2968409999999999,-0.2435139999999999,0.4821029999999999
917,-0.105174,0.967476,-0.2300469999999999,-0.309026,-0.418724,0.725255
918,-0.113845,0.962458,-0.246385,0.017165,-0.520579,0.817018
919,-0.137408,0.95237,-0.272219,0.225833,-0.760704,0.429979
920,-0.162805,0.943134,-0.289803,0.234628,-0.818134,0.3285909999999999
921,-0.181468,0.940166,-0.288356,0.138514,-0.955715,0.358577
922,-0.188043,0.944981,-0.267662,0.267908,-1.077427,0.3789599999999999
923,-0.189376,0.952077,-0.240162,0.254515,-0.717046,0.1628
924,-0.179463,0.959395,-0.21759,0.075032,-0.04875,-0.4022219999999999
925,-0.161354,0.964412,-0.209443,-0.139443,0.762487,-0.967803
926,-0.147472,0.960954,-0.234117,-0.214696,1.172041,-1.115965
927,-0.155444,0.948644,-0.275507,0.1020539999999999,0.30363,-0.692068
928,-0.1844049999999999,0.931959,-0.312154,0.234515,-0.930647,-0.329356
929,-0.2126989999999999,0.916356,-0.339181,0.4467689999999999,-1.178975,0.065942
930,-0.209767,0.915696,-0.342771,0.520055,-0.539231,0.6569189999999999
931,-0.193028,0.91251,-0.360638,0.003849,2.625683,0.5786859999999999
932,-0.187423,0.904525,-0.3830159999999999,0.010879,1.510667,-0.317943
933,-0.198078,0.8942,-0.401454,-0.575192,-0.994221,1.52737
934,-0.2279179999999999,0.902249,-0.36605,-0.5905630000000001,0.002826,-0.280068
935,-0.281955,0.8946780000000001,-0.346475,0.224353,1.074286,-0.001318
936,-0.303098,0.891668,-0.336232,0.927884,0.535547,0.265798
937,-0.26396,0.918337,-0.294915,0.8032199999999999,0.347471,0.061089
938,-0.246759,0.935098,-0.25435,0.51748,0.542212,0.141297
939,-0.246244,0.944065,-0.2193099999999999,0.394651,0.37518,0.41566
940,-0.235455,0.954753,-0.1816549999999999,0.234219,0.078817,0.130706
941,-0.219482,0.965455,-0.1404089999999999,0.054992,-0.177796,-0.187442
942,-0.206077,0.974416,-0.089635,-0.08622,-0.358434,-0.150096
943,-0.190874,0.98084,-0.038832,-0.105863,-0.5149739999999999,-0.088792
944,-0.177771,0.984064,0.002013,-0.105371,-0.573908,-0.081619
945,-0.171919,0.984469,0.03539,0.0073069999999999,-0.505358,-0.027425
946,-0.173938,0.982711,0.063335,0.154757,-0.308502,0.022893
947,-0.181394,0.979647,0.085873,0.300779,-0.151522,0.120701
948,-0.186401,0.976207,0.110728,0.374313,-0.038341,0.274129
949,-0.188883,0.97218,0.138477,0.235101,-0.079037,0.0820429999999999
950,-0.188898,0.967057,0.170595,-0.057745,0.170897,-0.177217
951,-0.184422,0.96208,0.2009369999999999,-0.103694,0.4042989999999999,-0.584268
952,-0.178021,0.956843,0.22966,0.125515,0.5355270000000001,-0.6381680000000001
953,-0.180214,0.953416,0.241877,0.3573989999999999,0.459761,-0.532007
954,-0.1916,0.953354,0.2332139999999999,0.268443,0.396286,-0.438109
955,-0.203156,0.953348,0.2232449999999999,0.407074,0.697103,-0.472863
956,-0.213271,0.954552,0.208159,0.482268,0.5687939999999999,-0.33792
957,-0.223181,0.958178,0.179079,0.566763,0.2129489999999999,0.06433
958,-0.23588,0.962839,0.131481,0.234064,0.289603,0.097157
959,-0.253344,0.964836,0.06996,0.087832,0.222496,0.160677
960,-0.265602,0.964018,0.010579,0.28228,0.495806,-0.0564929999999999
961,-0.271934,0.961439,-0.040928,0.556952,0.641314,0.148228
962,-0.274624,0.95819,-0.0802539999999999,0.631649,0.630311,0.266426
963,-0.266802,0.95876,-0.097902,0.611528,0.454479,0.35045
964,-0.2497739999999999,0.962431,-0.10643,0.5116609999999999,0.422044,0.390899
965,-0.228467,0.967059,-0.112197,0.5169189999999999,0.317777,0.354385
966,-0.21433,0.968977,-0.123023,0.2706199999999999,0.018038,0.356253
967,-0.214467,0.965869,-0.145223,0.231878,-0.199939,0.155782
968,-0.22363,0.95894,-0.174396,0.344967,-0.209443,0.195179
969,-0.228471,0.95239,-0.201851,0.593568,-0.079389,0.2958909999999999
970,-0.23051,0.948361,-0.2178699999999999,0.576671,-0.1833769999999999,0.43485
971,-0.23565,0.945217,-0.225884,0.5447930000000001,-0.219387,0.4930199999999999
972,-0.2429059999999999,0.941141,-0.235032,0.327287,-0.239146,0.556611
973,-0.253176,0.936137,-0.244007,0.11664,-0.2074389999999999,0.5550729999999999
974,-0.261493,0.930904,-0.25501,0.033587,-0.198375,0.517889
975,-0.265392,0.927138,-0.264524,-0.147999,-0.307082,0.32089
976,-0.262215,0.926901,-0.268495,-0.122352,-0.276891,0.3129889999999999
977,-0.254387,0.92971,-0.266304,-0.111672,-0.2309639999999999,0.34301
978,-0.242075,0.933815,-0.263401,-0.110876,-0.2903219999999999,0.221164
979,-0.22708,0.939534,-0.256323,-0.135667,-0.361516,-0.012018
980,-0.212337,0.946004,-0.244909,-0.211369,-0.154897,-0.329432
981,-0.199473,0.951453,-0.234388,-0.163381,0.531472,-0.85016
982,-0.199331,0.950388,-0.23879,-0.112589,1.225073,-0.80723
983,-0.22153,0.940599,-0.257271,-0.161145,-0.2414869999999999,-0.729545
984,-0.248992,0.925611,-0.285025,-0.063493,-0.7429939999999999,-0.782801
985,-0.270706,0.910051,-0.313873,-0.135345,-0.592272,-0.5630649999999999
986,-0.291867,0.896941,-0.3321179999999999,1.295285,3.321549,0.903575
987,-0.311238,0.8821680000000001,-0.353416,1.591878,2.661518,1.27877
988,-0.2911,0.880685,-0.373692,1.180398,-0.555185,2.046407
989,-0.244328,0.884418,-0.39762,-0.4204819999999999,-2.087268,1.10134
990,-0.2264139999999999,0.901052,-0.369911,-0.8277399999999999,-0.333715,-0.993691
991,-0.300128,0.885415,-0.354901,-0.0132719999999999,0.99935,0.448499
992,-0.335948,0.8766930000000001,-0.344296,0.522716,0.514069,0.440976
993,-0.275482,0.907213,-0.317909,0.5009,0.430189,-0.037132
994,-0.240484,0.928118,-0.284176,0.329931,0.4458439999999999,-0.167759
995,-0.235473,0.933508,-0.270382,0.299606,0.04307,0.257275
996,-0.219219,0.94295,-0.250559,0.315579,-0.2345,0.144403
997,-0.193251,0.956563,-0.21825,0.173537,-0.311879,-0.14021
998,-0.169668,0.967884,-0.1854829999999999,0.057348,-0.1715279999999999,-0.101764
999,-0.149437,0.97545,-0.161726,-0.0155719999999999,-0.057832,-0.076098
1000,-0.134509,0.979653,-0.148921,-0.3109099999999999,-0.0803,-0.0593919999999999
1001,-0.128513,0.980218,-0.1504859999999999,-0.288616,-0.185418,-0.0545309999999999
1002,-0.130353,0.978402,-0.160392,-0.091098,-0.480707,-0.013833
1003,-0.138198,0.975662,-0.170219,0.261657,-0.552612,-0.128151
1004,-0.146368,0.973032,-0.178256,0.30303,-0.341852,-0.289365
1005,-0.15416,0.969793,-0.189013,0.141663,-0.025533,-0.4696329999999999
1006,-0.159072,0.966424,-0.201768,-0.01526,-0.21174,-0.082198
1007,-0.159887,0.965437,-0.205808,-0.00712,-0.223372,-0.0304589999999999
1008,-0.160712,0.963464,-0.214241,0.049552,-0.138329,-0.1122359999999999
1009,-0.169393,0.956128,-0.2389909999999999,0.1082349999999999,-0.051403,-0.009437
1010,-0.186789,0.943054,-0.275228,0.071295,-0.004257,0.167272
1011,-0.214038,0.922514,-0.321164,0.176074,-0.1806019999999999,0.56593
1012,-0.246715,0.896893,-0.3670239999999999,0.205638,-0.159802,0.789555
1013,-0.2887699999999999,0.865484,-0.409319,0.247952,-0.063391,0.80652
1014,-0.328598,0.814262,-0.478534,0.251145,0.941033,-0.108075
1015,-0.364338,0.756346,-0.543316,0.217243,0.797288,-0.7625
1016,-0.3881739999999999,0.732345,-0.559451,0.158102,0.50174,-0.18504
1017,-0.388759,0.722713,-0.571443,-0.366566,-0.217631,0.245775
1018,-0.376535,0.726052,-0.575381,0.039118,-0.6654140000000001,0.1210359999999999
1019,-0.370008,0.73917,-0.562776,0.172651,-0.7714270000000001,-0.131072
1020,-0.3581809999999999,0.7634029999999999,-0.53751,0.247769,-0.590032,0.0139189999999999
1021,-0.3328489999999999,0.7969609999999999,-0.504043,0.130823,-0.473413,0.11589
1022,-0.301113,0.8350870000000001,-0.460385,0.138683,-0.356617,0.1206319999999999
1023,-0.266755,0.87389,-0.406388,0.13199,-0.14658,-0.055297
1024,-0.231096,0.911943,-0.339038,0.042863,0.295592,-0.212049
1025,-0.198133,0.946075,-0.256273,0.2318239999999999,0.789719,-0.381056
1026,-0.169207,0.969583,-0.176824,0.295016,0.524542,-0.269511
1027,-0.140366,0.980773,-0.135541,0.098145,-0.139983,0.037396
1028,-0.1097279999999999,0.984356,-0.137812,-0.3252239999999999,-0.2487599999999999,1.003261
1029,-0.078856,0.986781,-0.141544,-0.454653,0.319677,0.8597290000000001
1030,-0.074037,0.988747,-0.129949,-0.632368,0.992744,0.600698
1031,-0.122966,0.977998,-0.168491,0.207835,1.21469,-0.5655640000000001
1032,-0.191945,0.942822,-0.27246,0.365545,0.49596,-0.933076
1033,-0.2215079999999999,0.928064,-0.2993719999999999,0.492825,-0.859735,-0.04215
1034,-0.204377,0.937854,-0.280449,1.048448,0.352673,-0.062645
1035,-0.1791569999999999,0.948533,-0.261112,0.85236,1.077682,-0.178783
1036,-0.159168,0.957882,-0.238996,0.123416,0.704487,-0.079028
1037,-0.162563,0.961081,-0.223353,-0.192631,-0.2292539999999999,0.092448
1038,-0.177316,0.954394,-0.240171,-0.196219,-0.466311,-0.02666
1039,-0.21489,0.935276,-0.281199,-0.276825,-0.787388,0.184153
1040,-0.249106,0.912144,-0.32547,-0.309487,-0.841374,0.0845799999999999
1041,-0.274503,0.887094,-0.371085,-0.141116,-0.775858,0.361411
1042,-0.295739,0.864448,-0.406523,-0.025855,-0.55474,0.651381
1043,-0.328921,0.8482860000000001,-0.414989,0.2278469999999999,-0.2380719999999999,0.660137
1044,-0.375078,0.817731,-0.4366069999999999,0.633104,0.222507,0.621544
1045,-0.4040829999999999,0.776493,-0.483497,0.211166,0.470531,-0.560403
1046,-0.401481,0.766458,-0.5013479999999999,0.089699,0.283805,0.034444
1047,-0.391467,0.77086,-0.502516,-0.053983,-0.438325,-0.172014
1048,-0.373012,0.789118,-0.488005,-0.159886,-0.14918,-0.270555
1049,-0.3396119999999999,0.820853,-0.459192,-0.183871,-0.140585,-0.381536
1050,-0.2921539999999999,0.861735,-0.414792,-0.1206579999999999,-0.078989,-0.5020020000000001
1051,-0.235375,0.902572,-0.360492,-0.038627,0.4400489999999999,-0.528562
1052,-0.183685,0.933143,-0.3090219999999999,0.06311,0.5479510000000001,-0.366546
1053,-0.14189,0.951362,-0.273437,0.416487,-0.089714,0.112381
1054,-0.103602,0.96019,-0.259407,0.591136,-1.148499,1.039482
1055,-0.062488,0.971192,-0.2299389999999999,0.3853789999999999,-0.8492129999999999,1.1366
1056,-0.043314,0.97796,-0.204226,-0.709325,0.748038,0.18416
1057,-0.086537,0.968836,-0.2320719999999999,-0.948421,1.829015,-1.11061
1058,-0.171403,0.93077,-0.322921,-0.7614890000000001,1.7319950000000002,0.3945909999999999
1059,-0.204677,0.912909,-0.353121,-0.012013,0.702584,-1.753019
1060,-0.188505,0.907433,-0.375529,0.554762,-0.7699060000000001,0.269053
1061,-0.147328,0.918772,-0.3662559999999999,0.3401079999999999,-0.221583,-0.514512
1062,-0.156301,0.91833,-0.363636,0.224081,0.607854,0.029164
1063,-0.205063,0.905641,-0.371152,-0.046143,0.471205,0.07121
1064,-0.249578,0.87782,-0.4088199999999999,-0.064203,0.2516199999999999,0.2353579999999999
1065,-0.274764,0.848196,-0.4528359999999999,-0.065187,-0.571753,0.5423140000000001
1066,-0.296673,0.8224,-0.4854239999999999,-0.15665,-0.7183039999999999,0.6516069999999999
1067,-0.336544,0.7924479999999999,-0.508682,0.178325,-0.105665,0.336823
1068,-0.374291,0.748632,-0.5472199999999999,0.2138449999999999,0.237803,-0.429648
1069,-0.39855,0.717324,-0.571487,0.699805,0.621711,-0.067124
1070,-0.396173,0.7162569999999999,-0.574471,0.039392,-0.1334779999999999,0.186776
1071,-0.388662,0.724441,-0.5693159999999999,-0.277186,-0.508575,0.066569
1072,-0.373307,0.745714,-0.5518569999999999,-0.2145989999999999,-0.451952,-0.030114
1073,-0.348586,0.780675,-0.518678,-0.136949,-0.353658,-0.169677
1074,-0.309353,0.826257,-0.470736,0.012799,-0.233453,-0.323026
1075,-0.254111,0.8737870000000001,-0.414628,0.099143,-0.087623,-0.5108020000000001
1076,-0.190001,0.914036,-0.3583679999999999,0.133132,0.7782399999999999,-0.311157
1077,-0.127354,0.945033,-0.301136,0.12972,0.856252,-0.229763
1078,-0.074746,0.96521,-0.2505429999999999,0.137658,0.678421,-0.152167
1079,-0.034345,0.976982,-0.21051,-0.001315,-0.500252,1.154999
1080,0.005385,0.983203,-0.182401,-0.198562,-0.529163,1.197125
1081,0.012087,0.985296,-0.170388,-0.495943,-0.316046,0.7795340000000001
1082,-0.031663,0.977115,-0.210315,-0.692443,0.653058,-0.693998
1083,-0.121745,0.948531,-0.292328,0.10342,0.980012,-0.452758
1084,-0.15397,0.932769,-0.325921,0.283456,1.283448,-0.689445
1085,-0.122459,0.936396,-0.32887,0.3493719999999999,-0.128458,0.350736
1086,-0.089772,0.946902,-0.308716,0.177342,-0.171451,0.2129059999999999
1087,-0.087867,0.951405,-0.295121,0.094123,0.033885,-0.232665
1088,-0.115167,0.94321,-0.311577,0.098459,0.426663,-0.171653
1089,-0.142797,0.928852,-0.341809,0.005788,0.067807,-0.187442
1090,-0.1691869999999999,0.908953,-0.3810119999999999,-0.1618369999999999,-0.5035729999999999,0.345093
1091,-0.195171,0.887447,-0.4175359999999999,-0.2051739999999999,-0.533871,0.470255
1092,-0.226842,0.8656309999999999,-0.446337,-0.227915,-0.795197,0.766237
1093,-0.272525,0.84219,-0.465228,0.267063,-0.561581,0.7456079999999999
1094,-0.327375,0.8055720000000001,-0.4938329999999999,0.50894,-0.32994,0.482801
1095,-0.359079,0.768041,-0.530253,0.594751,0.276423,-0.732152
1096,-0.365989,0.765314,-0.52947,0.157218,-0.2534119999999999,0.046057
1097,-0.375376,0.769334,-0.516925,-0.023504,-0.490113,0.0347009999999999
1098,-0.382955,0.782871,-0.490358,-0.18516,-0.2277719999999999,0.017457
1099,-0.372075,0.8105760000000001,-0.452238,-0.60583,0.170015,-0.079455
1100,-0.328103,0.850116,-0.411876,-0.334022,0.113995,-0.365437
1101,-0.2635909999999999,0.89218,-0.366777,-0.237721,0.014024,-0.464446
1102,-0.199406,0.925591,-0.321727,0.112813,0.117744,-0.8938790000000001
1103,-0.150613,0.949222,-0.276192,0.229303,0.156628,-0.4016639999999999
1104,-0.115724,0.965695,-0.232446,0.229738,0.041813,-0.059577
1105,-0.083212,0.978225,-0.190103,-0.019632,-0.39804,1.233453
1106,-0.052947,0.98888,-0.138923,-0.364854,-0.243565,1.14846
1107,-0.048934,0.992764,-0.109595,-0.540467,0.27338,0.487113
1108,-0.065363,0.992128,-0.106752,-0.507757,1.077711,-1.125304
1109,-0.119401,0.980887,-0.153593,-0.343658,1.440759,-0.912996
1110,-0.179419,0.962469,-0.203592,0.433677,0.1764619999999999,-0.368567
1111,-0.1761,0.960269,-0.216473,0.507811,-0.160144,-0.147098
1112,-0.156278,0.961939,-0.22414,0.096723,-0.209254,0.3004489999999999
1113,-0.14612,0.96568,-0.214706,-0.02992,-0.192945,0.261215
1114,-0.150523,0.970578,-0.187908,0.342525,-0.23956,0.469784
1115,-0.156404,0.974353,-0.161747,0.334138,-0.153064,0.1756329999999999
1116,-0.162697,0.975892,-0.1454329999999999,0.093819,-0.161027,-0.1155839999999999
1117,-0.170514,0.976092,-0.134747,-0.0099519999999999,-0.310671,-0.381076
1118,-0.177678,0.976898,-0.118691,0.067967,-0.405868,-0.298912
1119,-0.183997,0.978204,-0.096171,0.162681,-0.395242,-0.213934
1120,-0.18936,0.978791,-0.078095,0.369795,-0.145844,-0.2886039999999999
1121,-0.196431,0.978212,-0.067103,0.321675,-0.157884,-0.348439
1122,-0.205134,0.977316,-0.0525389999999999,0.274623,-0.179266,-0.313245
1123,-0.213713,0.976351,-0.032416,0.301161,-0.180361,-0.267969
1124,-0.224163,0.974425,-0.015229,0.275188,-0.2175889999999999,-0.290389
1125,-0.237589,0.971357,-0.001674,0.245051,-0.2197239999999999,-0.279408
1126,-0.254681,0.967006,0.004731,0.2217829999999999,-0.234584,-0.260331
1127,-0.276287,0.961068,-0.000344,0.174404,-0.432488,-0.269523
1128,-0.29863,0.95422,-0.01646,0.2464449999999999,-0.517101,-0.048756
1129,-0.318091,0.94719,-0.040442,0.313162,-0.323365,0.184165
1130,-0.33202,0.940368,-0.07387,0.5521590000000001,1.224823,0.45563
1131,-0.333435,0.936992,-0.104188,0.149902,2.639775,0.183686
1132,-0.316719,0.938292,-0.138872,-0.76281,2.21393,0.416353
1133,-0.275204,0.946419,-0.168946,-0.888217,1.084007,-0.046874
1134,-0.244002,0.949921,-0.195196,0.082137,1.076125,-0.348475
1135,-0.233183,0.946979,-0.221009,0.295302,1.187008,-0.301009
1136,-0.223094,0.942271,-0.249688,0.6095689999999999,1.091008,-0.12632
1137,-0.189722,0.941678,-0.277918,0.426797,0.6894710000000001,-0.1023309999999999
1138,-0.151163,0.945985,-0.286796,0.043787,-0.091066,0.575019
1139,-0.132346,0.948464,-0.287906,-0.031472,-0.292992,0.768146
1140,-0.1390279999999999,0.94477,-0.296768,0.06867,-0.424308,0.867081
1141,-0.162276,0.936664,-0.310349,0.22534,-0.798221,0.535172
1142,-0.185316,0.92965,-0.3184329999999999,0.103239,-0.973748,0.3931699999999999
1143,-0.201631,0.928317,-0.312351,-0.039122,-0.961367,0.448184
1144,-0.213303,0.932574,-0.291201,0.045945,-0.942354,0.382617
1145,-0.2183,0.940068,-0.261928,0.181251,-0.746861,0.212261
1146,-0.215833,0.948649,-0.231238,0.025968,-0.337382,-0.146463
1147,-0.206196,0.955349,-0.211614,-0.279476,0.113025,-0.6766310000000001
1148,-0.19542,0.957046,-0.2141559999999999,-0.318404,0.4217689999999999,-0.8291940000000001
1149,-0.200119,0.951271,-0.234576,-0.155044,0.729119,-0.8849309999999999
1150,-0.232434,0.939175,-0.252813,-0.020649,-0.092053,-0.311182
1151,-0.277407,0.920769,-0.27426,0.19504,0.0167,-0.026277
1152,-0.321108,0.8951690000000001,-0.309116,0.651354,2.215122,-0.194332
1153,-0.341277,0.871079,-0.353189,1.058348,-0.224061,0.97239
1154,-0.313216,0.875182,-0.368703,0.4386279999999999,-0.981811,1.827291
1155,-0.300081,0.886127,-0.353159,-0.739683,-0.1084779999999999,-0.122747
1156,-0.344104,0.878549,-0.331261,-0.016431,1.260443,0.371224
1157,-0.3850699999999999,0.867138,-0.315886,0.6285390000000001,0.721012,0.313795
1158,-0.3516829999999999,0.8879239999999999,-0.296479,0.617003,0.547638,-0.376372
1159,-0.327752,0.907094,-0.264101,0.678109,0.329479,0.24106
1160,-0.320208,0.918006,-0.2339239999999999,0.592074,0.106011,0.2244489999999999
1161,-0.3104949999999999,0.92936,-0.199679,0.338067,-0.1120839999999999,0.186481
1162,-0.292831,0.942755,-0.159532,0.099486,-0.075812,-0.075148
1163,-0.277936,0.953797,-0.114059,0.073926,-0.1079869999999999,-0.075119
1164,-0.260497,0.963133,-0.0671,0.093657,-0.273908,-0.081627
1165,-0.243044,0.969679,-0.025265,-0.020995,-0.396421,-0.06551
1166,-0.229512,0.973258,0.008827,-0.048915,-0.416419,-0.084374
1167,-0.2243139999999999,0.973792,0.03738,0.020548,-0.344702,-0.1459609999999999
1168,-0.225956,0.972065,0.063372,0.178623,-0.180912,-0.223773
1169,-0.23175,0.968879,0.0868879999999999,0.3134,-0.063407,-0.301518
1170,-0.238112,0.964949,0.110274,0.411727,-0.039533,-0.262053
1171,-0.2426699999999999,0.960979,0.132714,0.40742,0.116871,-0.113015
1172,-0.251904,0.955761,0.151813,0.137264,0.51044,-0.354785
1173,-0.252767,0.951138,0.177277,0.1056569999999999,0.513462,-0.527466
1174,-0.246626,0.948947,0.196613,0.147719,0.39903,-0.411045
1175,-0.249751,0.948252,0.196018,0.255702,0.59226,-0.375248
1176,-0.259737,0.947451,0.186694,0.340059,0.65994,-0.440142
1177,-0.27275,0.948398,0.161647,0.487442,0.5240600000000001,-0.302257
1178,-0.291158,0.950478,0.108634,0.482,0.566383,0.0690549999999999
1179,-0.3074469999999999,0.950489,0.045075,0.0359019999999999,0.015408,-0.009996
1180,-0.322709,0.946465,-0.0068379999999999,0.44719,0.443839,0.049517
1181,-0.338915,0.939446,-0.050622,0.690936,0.570838,0.1219109999999999
1182,-0.348969,0.933417,-0.083302,0.891465,0.647195,0.188969
1183,-0.348288,0.93194,-0.100841,0.635016,0.5670069999999999,0.115657
1184,-0.338254,0.934826,-0.1080329999999999,0.551297,0.527744,0.13437
1185,-0.325687,0.939021,-0.110247,0.473499,0.3754929999999999,0.120974
1186,-0.3144659999999999,0.943011,-0.1087539999999999,0.517728,0.188718,0.224569
1187,-0.307747,0.945514,-0.106215,0.604333,-0.0073269999999999,0.277449
1188,-0.304859,0.946086,-0.1094,0.70052,-0.084132,0.198175
1189,-0.301399,0.946191,-0.117764,0.792458,-0.088128,0.089779
1190,-0.293515,0.947451,-0.127173,0.858883,-0.049776,0.058936
1191,-0.281492,0.949676,-0.137352,0.8536969999999999,-0.025252,0.071083
1192,-0.266381,0.95233,-0.148647,0.696175,0.016756,0.391628
1193,-0.2550699999999999,0.953542,-0.1602589999999999,0.402211,-0.039693,0.5899770000000001
1194,-0.252793,0.951594,-0.174792,0.224488,-0.094935,0.68024
1195,-0.256608,0.947132,-0.1925609999999999,-0.2449329999999999,-0.292012,0.546046
1196,-0.258616,0.943162,-0.208688,-0.291479,-0.323335,0.505776
1197,-0.259486,0.940304,-0.220191,-0.13059,-0.4585229999999999,0.467948
1198,-0.262472,0.93787,-0.226928,-0.101908,-0.5400729999999999,0.326828
1199,-0.266476,0.936086,-0.229611,-0.1237369999999999,-0.556218,0.239132
1200,-0.269525,0.93544,-0.228681,-0.13262,-0.50383,-0.073046
1201,-0.26725,0.936565,-0.22674,-0.178917,-0.467754,-0.459264
1202,-0.259765,0.939804,-0.221984,-0.184342,-0.043412,-0.948991
1203,-0.258588,0.940532,-0.2202719999999999,-0.1048,0.915349,-1.241368
1204,-0.276172,0.93318,-0.229981,-0.034726,1.075487,-0.779174
1205,-0.298626,0.922252,-0.245481,-0.329227,-0.458232,-0.785571
1206,-0.314953,0.909291,-0.271996,-0.285587,-0.8384450000000001,-0.737983
1207,-0.324837,0.898608,-0.294912,-0.144203,0.081922,-0.556361
1208,-0.328372,0.8868790000000001,-0.324972,0.448581,2.214242,-0.037897
1209,-0.316732,0.873067,-0.370709,0.809407,1.872615,1.103451
1210,-0.296244,0.871359,-0.391104,-0.395742,-1.138922,2.069693
1211,-0.312664,0.8739709999999999,-0.37203,-0.3111,-1.496468,0.009923
1212,-0.347746,0.8714129999999999,-0.345978,0.59825,0.488206,-0.93666
1213,-0.361309,0.861942,-0.355671,1.2275200000000002,1.008389,0.8034100000000001
1214,-0.298025,0.887674,-0.351005,0.739325,0.330725,0.309837
1215,-0.2366079999999999,0.916683,-0.322022,0.148519,0.302037,-0.531433
1216,-0.231909,0.92274,-0.307826,-0.017877,0.181752,0.117427
1217,-0.221243,0.933324,-0.282746,-0.036691,-0.078725,0.1457369999999999
1218,-0.190876,0.949596,-0.24864,0.057209,-0.1232099999999999,-0.014299
1219,-0.168301,0.961858,-0.2156179999999999,0.089596,-0.146169,-0.075352
1220,-0.159901,0.968663,-0.190025,0.128193,-0.361455,-0.004753
1221,-0.1478819999999999,0.974796,-0.1669999999999999,0.1219119999999999,-0.223271,-0.05024
1222,-0.130992,0.980345,-0.147482,-0.002858,-0.0505959999999999,-0.070536
1223,-0.120098,0.983004,-0.138799,-0.063771,-0.147647,0.01624
1224,-0.112803,0.983929,-0.138366,-0.001424,-0.425519,-0.1822369999999999
1225,-0.107748,0.983744,-0.143609,0.019537,-0.5514319999999999,-0.179968
1226,-0.105178,0.982367,-0.15453,0.012161,-0.548361,-0.189968
1227,-0.103318,0.980898,-0.164776,0.018403,-0.394579,-0.352909
1228,-0.105769,0.979745,-0.169997,0.0271709999999999,-0.294671,-0.165376
1229,-0.110519,0.979695,-0.167245,0.053497,-0.254872,-0.0934059999999999
1230,-0.115186,0.979759,-0.163677,0.091626,0.001091,-0.130589
1231,-0.124588,0.977846,-0.16817,0.000137,0.1282329999999999,-0.026395
1232,-0.144734,0.971087,-0.1898099999999999,0.020284,0.134992,-0.0047539999999999
1233,-0.172051,0.957871,-0.229934,-0.03231,-0.229386,0.257263
1234,-0.211662,0.934568,-0.285957,-0.137261,0.000995,0.353432
1235,-0.269842,0.897649,-0.348428,-0.16276,0.602824,0.555108
1236,-0.3360599999999999,0.843778,-0.418442,0.108048,1.4957,-0.087494
1237,-0.374511,0.789673,-0.4859529999999999,0.331359,1.262589,-0.686776
1238,-0.381803,0.764936,-0.518741,0.230375,0.548388,0.006519
1239,-0.380977,0.7517149999999999,-0.538307,0.0196949999999999,-1.265875,-0.09121
1240,-0.373316,0.7528739999999999,-0.542041,0.070749,-1.041021,-0.153576
1241,-0.360388,0.769205,-0.527671,0.222433,-0.582712,-0.008721
1242,-0.340813,0.801092,-0.492026,0.239205,-0.509039,0.133735
1243,-0.312311,0.844145,-0.435743,0.087305,-0.427702,0.270765
1244,-0.270043,0.889431,-0.368755,0.0553059999999999,-0.007915,0.186824
1245,-0.2179289999999999,0.931721,-0.290504,0.121142,0.131969,0.232642
1246,-0.163804,0.963013,-0.213921,0.318085,0.2307429999999999,0.032342
1247,-0.120325,0.980005,-0.158429,0.407419,-0.2041869999999999,-0.211719
1248,-0.091503,0.985886,-0.140154,0.153057,-0.4507899999999999,-0.246748
1249,-0.074165,0.983849,-0.162877,-0.174874,-0.367973,-0.132488
1250,-0.07505,0.979358,-0.187653,-0.73539,1.019132,0.597122
1251,-0.0941309999999999,0.97281,-0.211585,-0.475724,2.005675,-1.954354
1252,-0.176919,0.935988,-0.304327,0.120553,-0.237426,1.560812
1253,-0.174475,0.928892,-0.32666,0.265478,-0.997557,-0.444534
1254,-0.159631,0.92152,-0.35399,0.415109,-0.609295,0.160478
1255,-0.157814,0.922404,-0.3525,0.376197,0.545309,-0.426842
1256,-0.180064,0.928542,-0.3246179999999999,0.35377,0.951371,-0.233381
1257,-0.1960829999999999,0.92869,-0.314763,0.281273,0.838735,-0.032909
1258,-0.203183,0.920727,-0.3331199999999999,-0.0937679999999999,-0.028316,0.099233
1259,-0.222236,0.90429,-0.364501,-0.202508,-0.428414,0.303832
1260,-0.250198,0.8814,-0.400657,-0.3175659999999999,-0.685385,0.408012
1261,-0.2872639999999999,0.855574,-0.430655,-0.267515,-0.739729,0.424567
1262,-0.334388,0.8277479999999999,-0.4505649999999999,0.139457,0.099299,0.13277
1263,-0.373987,0.791057,-0.484102,0.206476,0.457661,-0.327619
1264,-0.393966,0.7692859999999999,-0.502973,0.349457,0.638505,-0.4674859999999999
1265,-0.404175,0.768124,-0.49661,0.2384639999999999,-0.219494,0.165525
1266,-0.408583,0.7734880000000001,-0.484529,-0.2825789999999999,-0.437993,-0.017653
1267,-0.395486,0.793215,-0.463026,-0.2065949999999999,-0.182696,-0.072787
1268,-0.36712,0.822852,-0.433737,-0.154639,-0.330696,-0.2150659999999999
1269,-0.323833,0.8580530000000001,-0.3985829999999999,0.033306,-0.458014,-0.330482
1270,-0.268997,0.8936200000000001,-0.359269,0.172989,-0.225316,-0.487197
1271,-0.213689,0.925531,-0.312603,0.192205,-0.048608,-0.520161
1272,-0.16549,0.952258,-0.25653,0.167534,0.372068,-0.284379
1273,-0.127721,0.971942,-0.197497,0.0018969999999999,0.309735,0.323352
1274,-0.09105,0.984165,-0.152041,-0.0039049999999999,0.077694,0.510058
1275,-0.051783,0.991529,-0.1190619999999999,-0.175146,-0.471556,0.807508
1276,-0.025967,0.994852,-0.097887,-0.586079,-0.256037,0.203738
1277,-0.030055,0.994299,-0.102249,-0.789495,0.36677,-0.4154819999999999
1278,-0.070407,0.984998,-0.157514,-0.0214509999999999,1.329867,-1.065448
1279,-0.137999,0.963033,-0.23133,0.575591,1.283931,-0.326058
1280,-0.135494,0.954403,-0.265984,0.469692,0.694386,-0.1426319999999999
1281,-0.091735,0.960939,-0.261096,0.130095,-0.550219,0.4953479999999999
1282,-0.059177,0.971008,-0.231588,-0.038662,-0.252364,-0.036601
1283,-0.068243,0.973874,-0.2165699999999999,0.032522,0.002109,0.1807119999999999
1284,-0.093904,0.972642,-0.2124619999999999,0.072724,0.492828,-0.1353619999999999
1285,-0.123417,0.966034,-0.227019,0.072209,0.318665,-0.586671
1286,-0.147287,0.955234,-0.256565,-0.086386,-0.198001,-0.5008199999999999
1287,-0.159019,0.946533,-0.280676,-0.227318,-0.413483,-0.05932
1288,-0.179585,0.935164,-0.305301,-0.326915,-0.735137,0.437885
1289,-0.208034,0.91577,-0.343627,-0.160099,-0.672407,0.653976
1290,-0.235894,0.8945690000000001,-0.3795949999999999,0.082208,-0.505318,0.871706
1291,-0.287128,0.877618,-0.383845,0.356876,-0.261773,0.82429
1292,-0.353145,0.834665,-0.422631,0.176967,0.055884,-1.275383
1293,-0.387257,0.786276,-0.481452,0.081318,0.311975,-0.641061
1294,-0.392253,0.777595,-0.491404,0.136714,0.0400779999999999,0.103129
1295,-0.394552,0.7737930000000001,-0.495547,-0.072275,-0.266713,-0.063947
1296,-0.385223,0.782007,-0.489961,-0.166825,0.059362,-0.195815
1297,-0.355815,0.806426,-0.4722989999999999,-0.198903,-0.071639,-0.236854
1298,-0.314193,0.8417110000000001,-0.439088,-0.062424,-0.320715,-0.211073
1299,-0.2676409999999999,0.8790520000000001,-0.394498,-0.027892,-0.465584,-0.312212
1300,-0.2182579999999999,0.91246,-0.34608,-0.025531,-0.36972,-0.439564
1301,-0.166192,0.940106,-0.29761,0.165017,0.0822929999999999,-0.3264289999999999
1302,-0.122249,0.963231,-0.239233,0.330486,0.144374,0.169394
1303,-0.083023,0.981612,-0.1718599999999999,0.313644,0.156221,0.5901649999999999
1304,-0.04846,0.991744,-0.118681,0.166853,-0.288863,0.6495340000000001
1305,-0.024209,0.994936,-0.0975019999999999,-0.116218,-0.174852,0.5698989999999999
1306,-0.02638,0.993723,-0.108662,-0.732409,0.185354,0.112248
1307,-0.057695,0.986793,-0.151328,-0.815688,0.825997,-0.4231189999999999
1308,-0.105219,0.969162,-0.2228119999999999,-0.4294949999999999,2.0663150000000003,-1.51666
1309,-0.118249,0.955247,-0.271132,0.390924,-0.432664,0.473143
1310,-0.076748,0.963915,-0.254891,0.337994,-0.8274090000000001,0.287255
1311,-0.056519,0.972791,-0.224662,0.203751,0.131594,0.049736
1312,-0.0816,0.970367,-0.2274219999999999,0.1680859999999999,0.926789,-0.3581789999999999
1313,-0.127685,0.960544,-0.2470679999999999,0.059265,0.797207,-0.345629
1314,-0.15527,0.945298,-0.286871,-0.078998,-0.301225,0.004049
1315,-0.172932,0.929189,-0.326642,-0.1827349999999999,-0.621266,0.171674
1316,-0.202591,0.910579,-0.360272,-0.188446,-0.623043,0.372982
1317,-0.249464,0.8929299999999999,-0.37475,-0.179858,-0.743912,0.532343
1318,-0.299534,0.871505,-0.388267,0.308094,-0.295013,0.545143
1319,-0.339521,0.836548,-0.430008,0.329359,0.033081,-0.6573180000000001
1320,-0.36568,0.807251,-0.463268,0.578052,0.205719,-0.03574
1321,-0.373734,0.806912,-0.4573939999999999,0.1174019999999999,-0.550061,0.046505
1322,-0.384677,0.80917,-0.444142,-0.109815,-0.440304,-0.073116
1323,-0.3879869999999999,0.8241719999999999,-0.412552,-0.368162,-0.008361,-0.016571
1324,-0.3664659999999999,0.854142,-0.368967,-0.3946119999999999,0.1134329999999999,-0.12824
1325,-0.315496,0.8924709999999999,-0.322414,-0.135157,0.014573,-0.412999
1326,-0.252783,0.929169,-0.2696989999999999,-0.040125,-0.0518799999999999,-0.712754
1327,-0.196186,0.957496,-0.211431,0.074665,0.029488,-0.8372139999999999
1328,-0.150753,0.976965,-0.151002,0.1990019999999999,0.027139,-0.463439
1329,-0.1118779999999999,0.989259,-0.0940169999999999,0.16037,-0.309815,0.135842
1330,-0.074515,0.996584,-0.035449,-0.09733,0.129103,0.953509
1331,-0.045864,0.998563,0.027505,-0.248142,0.177508,1.021141
1332,-0.040873,0.996592,0.07156,-0.634939,0.3668869999999999,0.454563
1333,-0.050551,0.993915,0.0978,-0.51941,0.574521,-0.8247899999999999
1334,-0.06487,0.994009,0.087891,-0.132502,0.455514,-0.875183
1335,-0.066702,0.995468,0.067698,0.742392,0.150971,-0.09614
1336,-0.048304,0.995223,0.084769,0.634699,0.430863,-0.252646
1337,-0.042355,0.989958,0.134819,0.217465,0.359712,-0.51017
1338,-0.038208,0.983831,0.174938,-0.5045930000000001,0.151758,-0.051082
1339,-0.035216,0.976772,0.211337,0.023207,-0.261394,0.245542
1340,-0.050557,0.969583,0.239457,0.133718,-0.155191,-0.010102
1341,-0.0690409999999999,0.965198,0.252217,0.2180889999999999,-0.183444,-0.212971
1342,-0.074059,0.960274,0.269027,0.194131,-0.3687829999999999,-0.3493949999999999
1343,-0.0810039999999999,0.944729,0.317667,0.078303,-0.36546,-0.110941
1344,-0.101538,0.926677,0.361863,0.018088,-0.4480699999999999,-0.215821
1345,-0.124449,0.912174,0.390433,0.016676,-0.24036,-0.198081
1346,-0.140536,0.8979459999999999,0.417047,0.182192,-0.125394,-0.393472
1347,-0.1550619999999999,0.8834780000000001,0.44205,0.136172,-0.011286,-0.5861390000000001
1348,-0.172369,0.870078,0.4617779999999999,0.115896,0.028604,-0.673357
1349,-0.194467,0.8577940000000001,0.4757689999999999,0.24183,-0.000968,-0.721115
1350,-0.220502,0.849137,0.4799279999999999,0.472852,0.041946,-0.702096
1351,-0.248275,0.845304,0.4730819999999999,0.529266,0.032,-0.692137
1352,-0.274959,0.844412,0.459731,0.405452,-0.312338,-0.7225630000000001
1353,-0.298518,0.851433,0.431202,0.305858,-0.480629,-0.61301
1354,-0.326142,0.8664350000000001,0.378033,0.393464,-0.18513,0.039325
1355,-0.353513,0.886067,0.299835,0.106244,0.8544879999999999,0.5402680000000001
1356,-0.358283,0.906197,0.224563,-0.922906,2.789253,0.2610639999999999
1357,-0.321274,0.932148,0.166949,-2.126495,2.733761,0.067212
1358,-0.259384,0.959252,0.112005,-0.657211,1.427162,-0.013021
1359,-0.220396,0.974158,0.049304,-0.265901,1.172876,-0.146151
1360,-0.190687,0.98164,-0.003194,-0.01935,1.63573,-0.125072
1361,-0.1506829999999999,0.987638,-0.043078,0.295016,1.59099,-0.372312
1362,-0.100481,0.988959,-0.108877,0.109926,0.990075,-0.009104
1363,-0.06704,0.98319,-0.1698049999999999,-0.2178719999999999,-0.078848,0.43485
1364,-0.046669,0.974178,-0.2208889999999999,-0.336372,-0.746394,0.625735
1365,-0.051967,0.963778,-0.261579,-0.149617,-1.37871,0.393308
1366,-0.071048,0.95473,-0.28885,0.153217,-1.243457,0.0890059999999999
1367,-0.081486,0.952249,-0.294236,-0.06834,-1.251184,0.454743
1368,-0.087733,0.956018,-0.279867,-0.233983,-1.396188,0.570867
1369,-0.091679,0.964162,-0.248955,-0.206447,-1.515752,0.665642
1370,-0.087373,0.974494,-0.206683,0.1119999999999999,-0.812171,0.35863
1371,-0.075451,0.982573,-0.169846,0.411831,-0.171935,-0.286499
1372,-0.0695559999999999,0.978672,-0.193272,0.5533359999999999,0.772442,-1.64503
1373,-0.093573,0.949481,-0.299534,0.23963,0.136654,-1.381649
1374,-0.1378059999999999,0.915153,-0.378809,-0.062358,0.1220319999999999,-0.106191
1375,-0.119573,0.900792,-0.417455,0.072347,1.082759,0.803808
1376,-0.098554,0.915308,-0.390502,-0.640185,-0.344019,1.454864
1377,-0.119646,0.915751,-0.383508,-0.917814,-0.724589,0.657968
1378,-0.1501579999999999,0.908121,-0.390847,-0.0602,0.835851,0.6121300000000001
1379,-0.140867,0.924835,-0.353313,0.376508,0.942719,0.183956
1380,-0.097105,0.950617,-0.29477,0.575498,0.979421,-0.143478
1381,-0.067223,0.971116,-0.228923,0.506417,0.447463,0.130245
1382,-0.046354,0.987126,-0.153048,0.461149,0.2933,0.002245
1383,-0.023013,0.996381,-0.081759,0.294085,0.143862,0.0258209999999999
1384,-0.001575,0.999831,-0.018026,0.077595,-0.4923079999999999,0.021994
1385,0.0113879999999999,0.998793,0.047661,-0.14304,-0.645994,-0.0967789999999999
1386,0.011887,0.995188,0.097201,-0.5784,-0.671091,-0.089831
1387,0.004469,0.992107,0.125263,-0.295607,-0.469814,-0.251117
1388,-0.010532,0.985064,0.1718299999999999,-0.002926,-0.353548,-0.264787
1389,-0.035338,0.973531,0.225778,0.117217,-0.214376,-0.5187470000000001
1390,-0.064283,0.9633,0.2605889999999999,0.0516029999999999,-0.148817,-0.45285
1391,-0.088464,0.954686,0.284141,0.2299739999999999,-0.053425,-0.534293
1392,-0.105671,0.949406,0.295715,0.597492,0.127345,-0.307159
1393,-0.1157869999999999,0.947604,0.297702,0.363651,0.16435,-0.529269
1394,-0.116476,0.9474,0.298081,0.0965169999999999,0.061511,-0.716126
1395,-0.12394,0.949841,0.287099,0.1343619999999999,0.3759639999999999,-0.278753
1396,-0.146581,0.957125,0.249825,0.1256,0.833708,0.196647
1397,-0.1643869999999999,0.968116,0.188986,-0.285091,1.049325,0.47561
1398,-0.164126,0.979499,0.116756,-0.655241,0.983377,0.376729
1399,-0.1537349999999999,0.986644,0.053739,-0.523343,0.823308,0.459139
1400,-0.143375,0.98966,0.002344,-0.20651,0.955454,0.225317
1401,-0.133066,0.989793,-0.050922,-0.126089,0.777511,0.036869
1402,-0.12225,0.98784,-0.095999,-0.12894,0.723387,0.035681
1403,-0.112604,0.985354,-0.128017,-0.146598,0.302396,0.151149
1404,-0.106269,0.98153,-0.15905,-0.006981,0.029258,0.254692
1405,-0.1052829999999999,0.974343,-0.198904,0.238294,-0.286446,0.3417719999999999
1406,-0.1034,0.966071,-0.2366579999999999,0.218359,-0.370307,0.591394
1407,-0.102827,0.956267,-0.273811,0.095396,-0.640196,0.7101970000000001
1408,-0.1135579999999999,0.943245,-0.312067,0.2212849999999999,-0.769142,0.610757
1409,-0.134441,0.92769,-0.348296,0.186214,-0.8413860000000001,0.462661
1410,-0.154158,0.912897,-0.377953,0.016585,-0.8297969999999999,0.311485
1411,-0.171428,0.903261,-0.393352,-0.013493,-0.841814,0.264003
1412,-0.182418,0.9004979999999999,-0.394742,0.003325,-0.8501290000000001,0.274441
1413,-0.1827,0.906186,-0.381368,0.002357,-0.811184,0.297673
1414,-0.16873,0.919441,-0.355177,-0.075335,-0.8034140000000001,0.2478469999999999
1415,-0.138594,0.938567,-0.316032,-0.1138319999999999,-0.582671,-0.004967
1416,-0.098067,0.959584,-0.263769,-0.039171,0.049343,-0.23176
1417,-0.066607,0.969558,-0.2356099999999999,-0.093061,0.58017,-0.618501
1418,-0.067505,0.955716,-0.286429,-0.604034,3.328021,-1.21914
1419,-0.09696,0.942298,-0.320416,-0.603296,-1.13198,-0.645999
1420,-0.120813,0.929542,-0.348352,-0.351813,-1.7885810000000002,-0.427237
1421,-0.15063,0.923156,-0.353676,-0.385212,-0.436935,0.723336
1422,-0.161053,0.928517,-0.33453,-0.1617,0.2299449999999999,1.186093
1423,-0.156827,0.937402,-0.310929,0.108243,1.721336,0.510468
1424,-0.162947,0.935077,-0.314757,0.3945599999999999,0.813763,0.2265
1425,-0.171301,0.929311,-0.327153,0.355887,0.150126,0.00147
1426,-0.190869,0.922793,-0.334686,0.190869,-0.707461,1.108398
1427,-0.168793,0.934166,-0.314382,0.192292,-0.591789,1.011739
1428,-0.115414,0.958187,-0.26182,0.033292,0.17899,0.482462
1429,-0.0745919999999999,0.97429,-0.212573,0.229225,0.631576,0.088214
1430,-0.039505,0.979664,-0.196698,0.237244,0.481777,0.297284
1431,0.0025629999999999,0.985435,-0.17001,0.147752,-0.221504,0.470837
1432,0.049328,0.992663,-0.1103599999999999,-0.034848,-0.192415,0.252236
1433,0.080244,0.995143,-0.056944,-0.1163309999999999,-0.186641,0.038252
1434,0.095399,0.994997,-0.029519,-0.103501,-0.146501,0.1398859999999999
1435,0.104696,0.994465,-0.0082659999999999,0.011332,-0.205006,-0.092106
1436,0.110952,0.99366,0.017893,0.090983,-0.172218,-0.0626309999999999
1437,0.115402,0.992113,0.0488139999999999,0.129333,-0.181856,-0.030443
1438,0.1173,0.989626,0.082885,0.14715,-0.11252,-0.069961
1439,0.117047,0.986402,0.115321,0.132129,-0.0596289999999999,-0.0516
1440,0.115116,0.983419,0.140084,0.1513789999999999,-0.012289,-0.135888
1441,0.114817,0.980524,0.159307,0.173467,0.060782,-0.285359
1442,0.117667,0.976907,0.178311,0.045374,0.013663,-0.503003
1443,0.120523,0.972048,0.20146,-0.11384,0.002379,-0.575377
1444,0.115939,0.966525,0.228856,-0.123538,0.03996,-0.3024179999999999
1445,0.1038119999999999,0.964238,0.243838,0.035073,0.086147,-0.165774
1446,0.0883549999999999,0.965315,0.245657,0.160638,0.04799,-0.23644
1447,0.070168,0.966956,0.245073,0.089362,0.180536,-0.183672
1448,0.049379,0.969673,0.239341,-0.0601509999999999,0.258797,-0.3048619999999999
1449,0.030048,0.974561,0.222068,0.0444,0.298403,-0.0898809999999999
1450,0.006881,0.982646,0.185326,-0.159301,0.799656,0.460517
1451,-0.0073069999999999,0.991879,0.12693,-0.653353,0.8363379999999999,-0.102546
1452,-0.011186,0.997994,0.062227,-0.934676,0.113212,0.019438
1453,-0.026254,0.99965,0.001066,-0.912955,0.15953,0.4386319999999999
1454,-0.04765,0.997525,-0.051624,-0.334232,0.280613,0.359592
1455,-0.069809,0.9924,-0.1012909999999999,-0.169785,0.573472,0.202167
1456,-0.091435,0.985244,-0.1446599999999999,-0.123424,0.613312,0.132453
1457,-0.114586,0.976753,-0.181154,0.102669,0.310112,0.2403429999999999
1458,-0.133719,0.966453,-0.219276,0.145438,0.187325,0.284813
1459,-0.140694,0.955021,-0.261026,0.166221,0.08334,0.296686
1460,-0.147267,0.943501,-0.2968369999999999,0.10613,-0.284825,0.474404
1461,-0.158039,0.930118,-0.331509,0.1239359999999999,-0.431659,0.478253
1462,-0.168938,0.915367,-0.365457,0.154564,-0.510948,0.128397
1463,-0.179143,0.903085,-0.390309,0.122838,-0.507989,0.064106
1464,-0.181968,0.8978940000000001,-0.400836,0.079001,-0.558142,0.09621
1465,-0.1723839999999999,0.899466,-0.401547,0.021932,-0.589591,0.160474
1466,-0.155141,0.906604,-0.392425,-0.043437,-0.631488,0.176727
1467,-0.129959,0.916907,-0.377344,-0.071518,-0.666007,0.146402
1468,-0.09834,0.929355,-0.3558429999999999,-0.065982,-0.575397,0.053124
1469,-0.059544,0.943571,-0.325767,-0.086697,-0.543928,-0.039864
1470,-0.012584,0.958799,-0.2837989999999999,0.01765,-0.428892,-0.2208699999999999
1471,0.035403,0.972366,-0.2307519999999999,-0.034335,0.379242,-0.8109350000000001
1472,0.066664,0.979121,-0.192024,-0.058088,1.056157,-1.12368
1473,0.0666419999999999,0.973333,-0.219493,-0.204078,2.3993330000000004,-0.973333
1474,0.049259,0.96131,-0.271021,-0.404499,-0.517843,-0.714254
1475,0.025521,0.948552,-0.315582,-0.7346729999999999,-1.230321,-0.433868
1476,-0.002888,0.94255,-0.334044,-0.257519,-0.719711,0.645338
1477,-0.004013,0.948497,-0.316752,-0.017411,0.693242,1.244075
1478,0.008029,0.964152,-0.265217,-0.050845,1.273091,1.481693
1479,0.0158379999999999,0.971203,-0.237715,0.12349,0.345082,0.186995
1480,0.0183699999999999,0.97057,-0.240107,-0.000151,-0.12627,0.097483
1481,0.010681,0.966527,-0.256331,-0.408538,-0.4765979999999999,0.249815
1482,0.01835,0.970498,-0.240396,-0.359781,-0.208642,0.180322
1483,0.044355,0.983148,-0.17733,0.124636,0.330985,0.0595929999999999
1484,0.082967,0.988971,-0.122662,0.3398239999999999,0.356794,0.362012
1485,0.126957,0.989211,-0.073036,0.265743,-0.11827,0.384056
1486,0.165592,0.986162,-0.007409,-0.070743,-0.330705,0.433328
1487,0.180526,0.98152,0.063399,-0.4217979999999999,-0.2364489999999999,0.431108
1488,0.183242,0.977577,0.1037039999999999,-0.207427,-0.0277639999999999,0.343226
1489,0.185317,0.975324,0.119958,0.154633,-0.017667,0.065711
1490,0.184789,0.974427,0.127806,0.1056319999999999,-0.0143139999999999,-0.213896
1491,0.181334,0.973116,0.141961,0.088334,-0.024736,-0.227685
1492,0.177272,0.970573,0.162946,0.086049,-0.002784,-0.208509
1493,0.175002,0.96725,0.183818,0.209855,-0.039165,-0.2386739999999999
1494,0.172814,0.963748,0.203253,0.244819,-0.0493199999999999,-0.26026
1495,0.168285,0.959432,0.226181,0.171742,-0.002141,-0.255035
1496,0.161423,0.953635,0.2539909999999999,-0.022629,0.134775,-0.360848
1497,0.152421,0.948846,0.276491,-0.052384,0.154624,-0.512437
1498,0.146483,0.944248,0.294832,-0.032469,0.09364,-0.598329
1499,0.136653,0.94022,0.311928,0.060674,0.151913,-0.323357
1500,0.1207839999999999,0.938726,0.322787,-0.064662,0.25004,-0.398348
1501,0.109271,0.937616,0.330034,-0.178256,0.31626,-0.485308
1502,0.10021,0.938044,0.33169,-0.284933,0.129094,-0.2195679999999999
1503,0.0850409999999999,0.941024,0.327459,-0.165928,0.130021,-0.440847
1504,0.061987,0.947038,0.315063,-0.033316,0.155883,-0.493957
1505,0.025168,0.956741,0.289829,0.2701199999999999,0.374177,-0.1927829999999999
1506,-0.009934,0.969727,0.243963,0.252594,0.425796,-0.086309
1507,-0.025761,0.982595,0.1839309999999999,-0.127834,0.4233189999999999,0.069182
1508,-0.022576,0.991467,0.128344,-0.155326,0.4417609999999999,0.1384109999999999
1509,-0.014543,0.996346,0.084093,-0.216887,0.420753,0.201506
1510,-0.0073129999999999,0.99904,0.043065,-0.106502,0.530913,0.040111
1511,-0.003293,0.999988,0.0018969999999999,0.0015539999999999,0.491376,-0.009541
1512,-0.008575,0.998791,-0.048302,0.162093,0.3060179999999999,0.182305
1513,-0.03044,0.993921,-0.1057599999999999,0.143767,0.155371,0.274125
1514,-0.056673,0.985281,-0.16125,0.122378,0.09852,0.2093449999999999
1515,-0.077828,0.974523,-0.210334,0.115212,0.031672,0.363304
1516,-0.100759,0.962834,-0.250581,0.1212829999999999,-0.130207,0.512422
1517,-0.1229609999999999,0.94836,-0.292381,0.161489,-0.280422,0.422767
1518,-0.146151,0.930607,-0.335565,0.191363,-0.377461,0.346093
1519,-0.172347,0.912138,-0.371881,0.134566,-0.556791,0.1869289999999999
1520,-0.195204,0.898151,-0.393971,0.13809,-0.528278,0.291127
1521,-0.211315,0.889817,-0.404432,0.106228,-0.509293,0.333066
1522,-0.22283,0.8866379999999999,-0.405233,0.003942,-0.521953,0.3547869999999999
1523,-0.228084,0.889099,-0.39683,-0.0250139999999999,-0.589676,0.287867
1524,-0.223463,0.8978079999999999,-0.379471,-0.032274,-0.604793,0.143479
1525,-0.208594,0.9122,-0.352664,-0.065073,-0.655258,-0.046307
1526,-0.185752,0.931155,-0.313749,-0.0584809999999999,-0.515704,-0.318713
1527,-0.163036,0.950188,-0.2656199999999999,-0.069218,0.05114,-0.70194
1528,-0.152048,0.960749,-0.2320219999999999,-0.116003,1.428518,-0.8596370000000001
1529,-0.1625,0.95893,-0.232461,-0.389761,2.151208,-0.339591
1530,-0.18995,0.948282,-0.254305,-0.4888369999999999,0.261633,-0.286146
1531,-0.211589,0.933299,-0.2901289999999999,-0.11324,-1.209102,-0.59305
1532,-0.236238,0.922262,-0.305967,-0.195494,-0.795737,0.010084
1533,-0.250677,0.920809,-0.298768,0.328619,1.264371,0.8024
1534,-0.249742,0.925499,-0.284732,0.855867,1.334999,0.5170170000000001
1535,-0.241467,0.925292,-0.292438,0.596585,0.000108,0.133991
1536,-0.249675,0.921037,-0.298908,0.398982,-0.8902450000000001,0.494876
1537,-0.245187,0.926495,-0.28545,0.322396,-0.55267,0.822377
1538,-0.233315,0.943119,-0.236815,0.109857,0.203365,0.332549
1539,-0.232928,0.952623,-0.1955609999999999,0.090167,0.710539,-0.052516
1540,-0.231615,0.955902,-0.180547,0.1484849999999999,0.703186,0.07874
1541,-0.222863,0.96175,-0.159247,0.244378,-0.014454,0.259482
1542,-0.212745,0.96933,-0.123,0.187492,-0.155273,0.209121
1543,-0.206071,0.974915,-0.084047,0.16266,-0.05774,0.0179
1544,-0.198715,0.978791,-0.049682,0.269119,0.019194,-0.091599
1545,-0.189764,0.981569,-0.0223419999999999,0.255286,-0.086809,-0.12611
1546,-0.179544,0.983738,0.003488,0.169732,-0.228214,-0.101846
1547,-0.16852,0.985309,0.027464,0.125155,-0.267124,-0.051252
1548,-0.161589,0.985627,0.049154,0.069945,-0.2123719999999999,-0.019277
1549,-0.1589539999999999,0.984494,0.074112,0.058689,-0.13229,-0.026322
1550,-0.157948,0.982235,0.101255,0.099323,-0.0207639999999999,-0.028272
1551,-0.157804,0.979149,0.127873,0.167814,0.022056,-0.042149
1552,-0.157602,0.975372,0.154263,0.1835119999999999,0.006195,-0.201519
1553,-0.155773,0.971219,0.180152,0.104488,0.083316,-0.307654
1554,-0.15432,0.967018,0.202603,0.019646,0.126839,-0.362744
1555,-0.156041,0.963611,0.217002,-0.175289,0.194866,-0.363578
1556,-0.160455,0.960066,0.229157,-0.040152,0.211779,-0.373078
1557,-0.166717,0.957424,0.235648,0.317519,0.111668,-0.175696
1558,-0.177153,0.955959,0.233976,0.545515,0.539525,-0.129515
1559,-0.187051,0.95655,0.223629,0.4469689999999999,0.659875,-0.337964
1560,-0.184213,0.959845,0.2115389999999999,0.458521,0.5450229999999999,-0.486151
1561,-0.178976,0.965666,0.188263,0.205648,0.419252,-0.034637
1562,-0.178316,0.972361,0.150679,0.0474259999999999,0.183553,-0.034148
1563,-0.184569,0.9771,0.105816,-0.14737,-0.144779,-0.073437
1564,-0.190571,0.98011,0.0552779999999999,-0.052624,0.079888,0.234334
1565,-0.19514,0.980765,0.002916,0.0579029999999999,0.196664,0.297042
1566,-0.196882,0.979539,-0.041594,0.281584,0.305084,0.194578
1567,-0.196247,0.97797,-0.071069,0.186802,0.505718,-0.012534
1568,-0.196241,0.976101,-0.0933,0.115339,0.395633,0.0277779999999999
1569,-0.203669,0.971463,-0.121524,0.156763,0.067034,0.160449
1570,-0.214466,0.964372,-0.154858,0.282673,-0.097856,0.098065
1571,-0.221921,0.956586,-0.188905,0.342496,-0.035077,0.195267
1572,-0.228437,0.949247,-0.216191,0.285093,-0.040296,0.269338
1573,-0.238509,0.941417,-0.2384099999999999,0.164596,-0.077723,0.330192
1574,-0.24875,0.932518,-0.261772,0.0977799999999999,-0.203316,0.26838
1575,-0.257665,0.924473,-0.280982,0.112371,-0.3275949999999999,0.194571
1576,-0.263204,0.919887,-0.290729,0.135701,-0.397976,0.235446
1577,-0.263556,0.919128,-0.292804,0.13262,-0.422729,0.263903
1578,-0.2606239999999999,0.920982,-0.289583,0.1298109999999999,-0.436791,0.239885
1579,-0.254835,0.925258,-0.280979,0.016416,-0.395992,0.125934
1580,-0.2463429999999999,0.932199,-0.265164,-0.070414,-0.2730039999999999,-0.105746
1581,-0.237326,0.941427,-0.2395489999999999,-0.101999,-0.195684,-0.180373
1582,-0.228929,0.951019,-0.207715,-0.191405,0.038605,-0.26514
1583,-0.22598,0.956193,-0.186065,-0.37398,0.809524,-0.496567
1584,-0.238252,0.952203,-0.191144,-0.42903,0.681021,-0.451953
1585,-0.254576,0.944234,-0.208817,-0.316088,0.385859,-0.349532
1586,-0.266878,0.934915,-0.2338869999999999,-0.1565079999999999,-0.282495,-0.0937809999999999
1587,-0.277123,0.92654,-0.2544,0.050454,-0.20518,-0.064646
1588,-0.297985,0.911842,-0.282384,0.104671,0.479622,-0.072154
1589,-0.312429,0.89797,-0.3098889999999999,1.120748,1.7633310000000002,0.545988
1590,-0.287521,0.903981,-0.316454,0.766632,-0.333394,1.152361
1591,-0.248006,0.915945,-0.315486,0.10265,-1.5816709999999998,1.026133
1592,-0.242531,0.922733,-0.299557,-0.144417,-0.354801,-0.50568
1593,-0.298778,0.90621,-0.299178,-0.097645,0.8296600000000001,-0.282945
1594,-0.319326,0.896676,-0.306588,0.602651,0.266379,0.100762
1595,-0.270438,0.915127,-0.298994,0.361762,0.192966,-0.3467119999999999
1596,-0.242691,0.930148,-0.2755309999999999,0.164398,0.162915,-0.259915
1597,-0.244601,0.934175,-0.259769,0.068957,-0.010423,0.1159549999999999
1598,-0.245481,0.938262,-0.2437099999999999,0.12599,-0.120376,0.066907
1599,-0.2436289999999999,0.9433,-0.225437,0.1226119999999999,-0.281587,0.0578799999999999
1600,-0.2415469999999999,0.945791,-0.217085,0.125046,-0.393255,-0.11899
1601,-0.245006,0.945399,-0.214903,0.156948,-0.490763,-0.101961
1602,-0.242073,0.949372,-0.200211,0.19558,-0.537125,-0.011642
1603,-0.235348,0.954775,-0.181679,0.025951,-0.4223189999999999,-0.171852
1604,-0.234154,0.957446,-0.168698,-0.057686,-0.305911,-0.260257
1605,-0.238086,0.957746,-0.161334,-0.094068,-0.2148409999999999,-0.302152
1606,-0.2485389999999999,0.954917,-0.162333,-0.1668359999999999,0.0983059999999999,-0.461157
1607,-0.265757,0.94675,-0.1817369999999999,0.08488,-0.1055789999999999,0.064625
1608,-0.281978,0.933729,-0.220518,0.2055469999999999,-0.172392,0.2055949999999999
1609,-0.304252,0.91901,-0.250684,0.232567,-0.180027,0.518079
1610,-0.337051,0.8990030000000001,-0.279609,0.189987,-0.31923,0.759895
1611,-0.375264,0.865575,-0.3315869999999999,0.214696,-0.0705,0.7079300000000001
1612,-0.407862,0.8154710000000001,-0.4106689999999999,0.168483,0.410894,0.173807
1613,-0.443779,0.757682,-0.478509,-0.017158,0.355019,-1.289725
1614,-0.470968,0.727329,-0.499176,0.4338439999999999,0.606763,-0.294098
1615,-0.475803,0.7235149999999999,-0.500132,-0.529308,0.558712,0.169001
1616,-0.458679,0.731876,-0.50395,-0.35704,-0.163516,-0.056902
1617,-0.439564,0.750606,-0.493324,-0.1183579999999999,-0.50616,-0.193368
1618,-0.410979,0.780925,-0.470368,-0.064012,-0.7233390000000001,-0.008666
1619,-0.379477,0.811164,-0.444976,0.123724,-0.891151,-0.044648
1620,-0.345987,0.8416399999999999,-0.414643,0.2452639999999999,-0.8229479999999999,0.0304569999999999
1621,-0.305824,0.877344,-0.369772,0.527443,-0.45553,0.124014
1622,-0.26271,0.913405,-0.310913,0.444717,-0.137038,0.000396
1623,-0.2176409999999999,0.942887,-0.252169,0.2453659999999999,0.431854,-0.353438
1624,-0.17683,0.966038,-0.188398,0.163693,0.6503869999999999,-0.4702939999999999
1625,-0.146117,0.980396,-0.13215,-0.07898,-0.058262,0.3164
1626,-0.1124619999999999,0.987612,-0.109384,-0.1126359999999999,-0.065478,0.293634
1627,-0.073723,0.992599,-0.096448,-0.570656,-0.066101,0.452146
1628,-0.069186,0.992763,-0.098108,-0.407971,0.596913,0.163629
1629,-0.102294,0.985681,-0.134015,0.283995,0.89051,-0.513996
1630,-0.159352,0.962953,-0.21753,0.5340010000000001,1.4816120000000002,-0.199035
1631,-0.179504,0.943411,-0.27883,0.170425,0.312922,-0.595331
1632,-0.155443,0.943238,-0.293483,0.259112,-0.561844,0.232646
1633,-0.125565,0.949846,-0.286389,0.128617,-0.397325,-0.326023
1634,-0.132803,0.949494,-0.284284,0.099966,0.324402,-0.013018
1635,-0.163592,0.945466,-0.281645,0.0329459999999999,0.399062,-0.200014
1636,-0.19555,0.933191,-0.301507,0.05845,0.0521909999999999,0.172189
1637,-0.225279,0.910613,-0.346448,0.055113,-0.342406,0.17262
1638,-0.251472,0.879983,-0.402971,0.010765,-0.54667,0.420199
1639,-0.274328,0.845767,-0.457621,-0.058482,-0.7172270000000001,0.545084
1640,-0.300842,0.8157270000000001,-0.494042,-0.1125039999999999,-0.665733,0.6889270000000001
1641,-0.348865,0.7843760000000001,-0.512877,-0.012326,-0.383054,0.635374
1642,-0.380299,0.741743,-0.552435,0.507069,0.4867869999999999,-0.263773
1643,-0.377236,0.72837,-0.571984,0.556008,0.4732449999999999,0.10125
1644,-0.375455,0.731615,-0.5690069999999999,0.229764,-0.540667,0.149359
1645,-0.373381,0.7459640000000001,-0.551471,-0.102876,-0.208091,-0.119977
1646,-0.349655,0.780799,-0.5177729999999999,-0.190323,-0.100821,-0.2164489999999999
1647,-0.311973,0.8284090000000001,-0.4651939999999999,-0.166848,-0.1086369999999999,-0.301789
1648,-0.261427,0.877107,-0.402904,-0.006288,-0.0287639999999999,-0.4256479999999999
1649,-0.20301,0.918604,-0.339038,0.000572,-0.022715,-0.550489
1650,-0.153014,0.950751,-0.269538,0.099379,0.241861,-0.5340050000000001
1651,-0.115646,0.971885,-0.205075,0.143981,0.331917,0.004376
1652,-0.085727,0.984378,-0.153755,-0.0754519999999999,0.483914,0.4128489999999999
1653,-0.058432,0.99011,-0.127502,-0.465051,0.273134,0.765899
1654,-0.050572,0.990344,-0.129041,-1.021663,0.235364,-0.020953
1655,-0.089132,0.977137,-0.192998,-0.403559,-0.031718,-0.199778
1656,-0.162717,0.947275,-0.276017,0.4754609999999999,0.663138,-1.076064
1657,-0.213772,0.926754,-0.308904,0.910854,0.8669020000000001,-0.473125
1658,-0.170175,0.930213,-0.325171,0.389932,0.261056,-0.131556
1659,-0.140365,0.938262,-0.316156,0.0261529999999999,-0.37535,0.491555
1660,-0.126092,0.945501,-0.300203,-0.0268779999999999,-0.210805,-0.39369
1661,-0.148808,0.940105,-0.306678,0.065037,0.299184,-0.281182
1662,-0.1892839999999999,0.924976,-0.329521,0.047988,0.381283,-0.278283
1663,-0.221791,0.903921,-0.365689,0.019352,-0.199377,0.086865
1664,-0.243756,0.88129,-0.404851,-0.098743,-0.582019,0.331273
1665,-0.2646469999999999,0.8529049999999999,-0.450009,-0.206011,-0.7890020000000001,0.665555
1666,-0.286863,0.823413,-0.4895859999999999,-0.174929,-0.728107,0.720025
1667,-0.332461,0.791912,-0.512192,0.063693,-0.421886,0.701584
1668,-0.382448,0.748207,-0.542139,0.336091,0.2812119999999999,0.103052
1669,-0.395122,0.7219949999999999,-0.567976,0.224544,0.51859,-0.275805
1670,-0.393082,0.720688,-0.5710430000000001,0.137314,-0.085221,0.168959
1671,-0.392345,0.7276560000000001,-0.562652,-0.124623,-0.5328930000000001,0.012085
1672,-0.37278,0.7528100000000001,-0.542501,-0.199074,-0.028765,-0.206965
1673,-0.335449,0.793616,-0.507584,-0.184326,0.001138,-0.266968
1674,-0.285507,0.840239,-0.460954,-0.199234,-0.070677,-0.349715
1675,-0.22734,0.884697,-0.406966,-0.169739,-0.0718,-0.491792
1676,-0.168309,0.92269,-0.346854,0.062535,0.309091,-0.6637350000000001
1677,-0.126253,0.952088,-0.278534,0.254656,0.299072,-0.33638
1678,-0.093574,0.971448,-0.2179989999999999,0.1635049999999999,0.095385,0.207409
1679,-0.056563,0.983363,-0.172596,-0.094957,-0.169246,0.716785
1680,-0.0223979999999999,0.991501,-0.128118,-0.444322,-0.348481,0.8103239999999999
1681,-0.008145,0.99511,-0.098389,-0.785693,-0.03286,0.514558
1682,-0.0265839999999999,0.992295,-0.120978,-0.7019770000000001,0.515548,-0.159876
1683,-0.078716,0.976711,-0.199578,0.155833,0.397877,-0.793342
1684,-0.142044,0.948774,-0.282213,0.967301,0.114321,0.50226
1685,-0.102475,0.954033,-0.281625,0.5671510000000001,0.443993,0.055963
1686,-0.065762,0.966521,-0.248002,-0.455082,0.915056,-0.811294
1687,-0.062581,0.968689,-0.240245,0.273915,0.0459139999999999,0.280986
1688,-0.055077,0.970823,-0.233371,0.284387,0.181338,-0.477444
1689,-0.0589279999999999,0.96786,-0.2444739999999999,0.2038859999999999,0.413167,-0.796756
1690,-0.064066,0.969534,-0.236413,0.032343,0.398126,-0.638495
1691,-0.064265,0.973822,-0.21802,-0.0213819999999999,0.125604,-0.091214
1692,-0.063627,0.972958,-0.222028,-0.070971,-0.002682,0.06294
1693,-0.0774919999999999,0.964473,-0.2525449999999999,-0.155495,-0.148998,0.278546
1694,-0.113391,0.946456,-0.302253,-0.2565429999999999,-0.509749,0.537864
1695,-0.152941,0.922229,-0.355101,-0.243086,-0.752963,0.642622
1696,-0.191747,0.900475,-0.390348,-0.051798,-0.891625,0.515637
1697,-0.23705,0.8766709999999999,-0.418628,0.521779,-0.673668,0.812839
1698,-0.26788,0.8442149999999999,-0.464257,0.88902,-0.648125,0.603021
1699,-0.292026,0.811512,-0.506127,0.419162,-0.811237,-0.139198
1700,-0.305112,0.796445,-0.5220899999999999,0.002179,-0.511548,-0.0729419999999999
1701,-0.30985,0.803805,-0.5078239999999999,0.189748,-0.22745,0.00082
1702,-0.3108059999999999,0.8228190000000001,-0.475777,0.213562,-0.3765449999999999,-0.115837
1703,-0.304834,0.851584,-0.426468,-0.069494,-0.209036,-0.0567929999999999
1704,-0.282056,0.886447,-0.366946,-0.491397,0.143811,-0.0861789999999999
1705,-0.230301,0.922787,-0.308899,-0.6195069999999999,0.422581,-0.5562739999999999
1706,-0.163471,0.955878,-0.244063,-0.217648,0.8748870000000001,-0.678453
1707,-0.113005,0.978811,-0.17073,0.099959,0.732157,-0.706345
1708,-0.083868,0.990423,-0.1096299999999999,-0.014902,0.1030069999999999,0.001796
1709,-0.067166,0.995892,-0.060645,-0.3956179999999999,-0.360196,1.537772
1710,-0.058749,0.997993,-0.023415,-0.569349,0.0399399999999999,0.821556
1711,-0.082215,0.996392,-0.020807,-0.750594,0.3654699999999999,0.392038
1712,-0.12572,0.990347,-0.058279,0.97214,1.072122,-0.7206670000000001
1713,-0.15447,0.985538,-0.069602,1.00089,1.076932,-0.709344
1714,-0.130427,0.989438,-0.063169,0.6805979999999999,0.695666,-0.094088
1715,-0.098834,0.994313,-0.03952,-0.320798,0.515468,-0.602708
1716,-0.082504,0.996418,-0.018218,-0.401291,0.218914,0.263213
1717,-0.089558,0.995965,-0.004693,0.042805,-0.049538,0.119423
1718,-0.107515,0.994189,0.00418,0.246126,-0.125414,-0.017623
1719,-0.120792,0.992439,0.021501,0.361835,-0.105399,-0.062761
1720,-0.125327,0.991012,0.046648,0.2872679999999999,-0.261062,-0.1247119999999999
1721,-0.126735,0.989427,0.070421,0.132213,-0.441942,-0.194322
1722,-0.131203,0.986857,0.094263,0.093224,-0.5105689999999999,-0.1421599999999999
1723,-0.137896,0.982815,0.122663,0.133425,-0.44418,-0.020276
1724,-0.144601,0.977989,0.150381,0.162484,-0.444816,-0.241842
1725,-0.150988,0.972752,0.175902,0.154605,-0.392049,-0.3528739999999999
1726,-0.160387,0.967011,0.197867,0.147615,-0.3508,-0.394675
1727,-0.175629,0.960877,0.214139,0.2912599999999999,-0.225723,-0.316709
1728,-0.192964,0.955069,0.224926,0.340013,-0.249381,-0.360821
1729,-0.208598,0.949702,0.233533,0.350825,-0.17544,-0.588055
1730,-0.222038,0.94541,0.238504,0.395683,-0.152883,-0.626413
1731,-0.237769,0.943464,0.230922,0.319785,0.394457,-0.126995
1732,-0.261691,0.945765,0.192434,0.211718,1.239904,0.401728
1733,-0.2758739999999999,0.95187,0.133501,-0.200368,1.659138,0.65425
1734,-0.265313,0.961815,0.067142,-1.678565,1.478173,0.234311
1735,-0.24088,0.970502,0.0094819999999999,-0.285075,0.943622,-0.068121
1736,-0.22279,0.97434,-0.0318279999999999,0.058194,1.002619,-0.08626
1737,-0.207387,0.975772,-0.069627,0.067174,1.242551,-0.165771
1738,-0.192779,0.9752,-0.108674,0.113723,0.8693129999999999,-0.08615
1739,-0.169118,0.97712,-0.128934,0.139119,0.546866,0.239346
1740,-0.138443,0.978014,-0.155919,0.1910859999999999,-0.233157,-0.427638
1741,-0.117901,0.972806,-0.199343,-0.425159,-0.345654,0.653475
1742,-0.114645,0.964908,-0.2362179999999999,-0.29191,-0.476581,0.3522
