,gravity.x,gravity.y,gravity.z,userAcceleration.x,userAcceleration.y,userAcceleration.z
0,0.4016969999999999,0.8716010000000001,-0.280969,0.269888,-0.0270569999999999,0.08294
1,0.389648,0.886267,-0.250392,0.087112,-0.129858,-0.168264
2,0.383237,0.896144,-0.223712,-0.04205,0.0441029999999999,-0.177823
3,0.381076,0.901808,-0.203751,-0.235202,0.066652,-0.382033
4,0.379826,0.902928,-0.2011099999999999,-0.275196,-0.142353,-0.110917
5,0.379959,0.901363,-0.207769,-0.249298,-0.121577,0.037557
6,0.378792,0.901149,-0.210802,-0.243782,-0.155834,-0.191664
7,0.376591,0.90459,-0.199714,-0.145589,-0.09473,0.072745
8,0.369714,0.910401,-0.185665,-0.015222,0.325454,0.157451
9,0.359935,0.915394,-0.180251,0.4170569999999999,0.301281,0.114379
10,0.364169,0.916806,-0.163825,0.395978,0.261997,-0.251107
11,0.370314,0.917488,-0.14517,0.06627,0.1394119999999999,0.153044
12,0.369766,0.919311,-0.134655,-0.028381,0.05922,0.513332
13,0.36526,0.922888,-0.121876,-0.07281,0.363764,0.072056
14,0.349352,0.928572,-0.125293,0.239759,0.648165,-0.086392
15,0.329961,0.933859,-0.137927,0.285624,0.614801,-0.0946169999999999
16,0.3257739999999999,0.934736,-0.141881,-0.178115,0.029497,0.365133
17,0.323558,0.93585,-0.139594,-0.251689,0.011553,0.340796
18,0.31823,0.938915,-0.130992,-0.2535179999999999,0.180729,0.250438
19,0.313397,0.941451,-0.124271,-0.03236,0.058808,0.212421
20,0.30934,0.943319,-0.1202029999999999,0.058565,-0.046301,0.1333099999999999
21,0.304926,0.945248,-0.116263,0.080221,-0.083599,0.136755
22,0.3003889999999999,0.947429,-0.1101589999999999,0.074443,-0.150081,-0.0886179999999999
23,0.294887,0.949461,-0.107498,-0.158656,-0.2121719999999999,-0.31279
24,0.291575,0.950564,-0.106788,-0.162974,-0.222384,-0.281701
25,0.28904,0.951329,-0.106863,-0.153679,-0.3136489999999999,0.024831
26,0.283892,0.952997,-0.105789,-0.1036859999999999,-0.148112,0.096542
27,0.275069,0.95556,-0.105983,-0.094863,-0.150674,0.096736
28,0.256947,0.960278,-0.108787,0.151638,-0.08334,0.074744
29,0.238894,0.964318,-0.114063,0.158887,-0.007989,0.066074
30,0.230425,0.965636,-0.12017,0.167356,-0.009307,0.072181
31,0.2317969999999999,0.964611,-0.125642,0.263809,-0.019879,-0.000884
32,0.237613,0.961559,-0.1376079999999999,0.2755559999999999,-0.136821,0.024479
33,0.246288,0.956484,-0.156438,0.285725,-0.018556,0.045033
34,0.258155,0.948951,-0.181219,0.333322,0.270943,0.029531
35,0.275339,0.936928,-0.215285,0.285986,0.536659,-0.1122599999999999
36,0.297226,0.919757,-0.256315,0.13153,0.504239,-0.162615
37,0.321454,0.9002819999999999,-0.293519,-0.183423,0.632494,-0.142562
38,0.342645,0.8831379999999999,-0.320399,-0.224603,0.616786,0.1090339999999999
39,0.360739,0.869477,-0.337448,-0.2237449999999999,0.434097,0.169906
40,0.3776739999999999,0.858975,-0.3457139999999999,-0.2244449999999999,0.236392,0.178203
41,0.392259,0.85224,-0.346141,-0.1226059999999999,0.244028,0.093547
42,0.40345,0.847095,-0.34591,-0.208763,0.187573,0.112877
43,0.412341,0.843311,-0.344668,-0.22243,0.066846,0.248522
44,0.417678,0.840651,-0.34474,-0.252654,-0.099974,0.291197
45,0.418177,0.839823,-0.346149,-0.321818,-0.111704,0.268619
46,0.4122989999999999,0.842499,-0.346696,-0.41796,-0.305924,0.192155
47,0.400338,0.8489959999999999,-0.344862,-0.437874,-0.396847,0.163114
48,0.385851,0.858291,-0.338305,-0.386339,-0.442214,0.158999
49,0.365813,0.8708809999999999,-0.328238,-0.274382,-0.390016,0.113089
50,0.343314,0.885388,-0.313395,-0.272422,-0.458463,0.1277569999999999
51,0.318211,0.901744,-0.292562,-0.048527,-0.337123,-0.027826
52,0.292718,0.916221,-0.2735829999999999,0.27468,-0.121681,0.029061
53,0.267469,0.928411,-0.257887,0.413576,-0.019368,0.030211
54,0.2469039999999999,0.93775,-0.244247,0.23828,0.084208,-0.120301
55,0.2346239999999999,0.944458,-0.230091,-0.040608,0.022537,-0.155529
56,0.2282809999999999,0.950511,-0.210733,-0.132776,-0.11233,-0.195791
57,0.227563,0.954656,-0.191934,-0.187478,-0.1592,-0.142478
58,0.232152,0.955836,-0.1802089999999999,-0.492421,-0.033106,-0.055723
59,0.2333469999999999,0.956483,-0.175163,-0.57696,0.219848,-0.527382
60,0.222776,0.959558,-0.1720799999999999,-0.152692,0.110052,-0.2177059999999999
61,0.21658,0.961942,-0.166593,0.6458619999999999,0.0312529999999999,0.8391850000000001
62,0.2279389999999999,0.959414,-0.166019,0.4934199999999999,0.641813,0.023425
63,0.253585,0.951992,-0.17146,0.451356,0.863224,-0.59032
64,0.269179,0.946039,-0.180404,0.215486,0.280569,0.155059
65,0.278009,0.940499,-0.195359,-0.164301,0.085837,0.3451849999999999
66,0.284093,0.935856,-0.208468,-0.4399,-0.086857,0.542529
67,0.2846079999999999,0.934525,-0.213669,-0.498704,-0.077317,0.529755
68,0.280494,0.937584,-0.205555,0.089715,0.383094,0.014713
69,0.271784,0.942221,-0.195823,0.098424,0.378458,0.004981
70,0.2642489999999999,0.94606,-0.187447,0.229617,0.220002,-0.037925
71,0.259979,0.947794,-0.184638,-0.144317,-0.0077,-0.126794
72,0.255425,0.949086,-0.184357,-0.139763,-0.008992,-0.127075
73,0.248083,0.951007,-0.184481,-0.203268,-0.010654,-0.143537
74,0.2378159999999999,0.953478,-0.185246,0.07209,-0.046679,-0.146495
75,0.228973,0.954949,-0.188777,0.2086329999999999,-0.078729,-0.177114
76,0.224656,0.953427,-0.201247,0.390304,-0.18031,-0.185853
77,0.2294179999999999,0.946537,-0.2267809999999999,0.201948,-0.183323,-0.199825
78,0.246044,0.932703,-0.263671,0.047993,-0.16279,-0.200196
79,0.270291,0.911867,-0.308927,-0.13548,0.083036,0.049116
80,0.297236,0.8851629999999999,-0.357956,-0.104273,0.315475,0.363434
81,0.319834,0.858031,-0.401851,-0.04397,0.308213,0.574412
82,0.332504,0.835089,-0.43825,0.063721,0.081827,0.5774859999999999
83,0.3370579999999999,0.816426,-0.468867,-0.300727,0.246348,0.3186739999999999
84,0.3443219999999999,0.801994,-0.4881029999999999,-0.357765,0.407677,0.302938
85,0.353057,0.793155,-0.496237,-0.248153,0.4085809999999999,0.289908
86,0.366552,0.790686,-0.490359,-0.204091,0.2081239999999999,0.185046
87,0.379056,0.796579,-0.470929,-0.202344,0.075614,0.167447
88,0.387612,0.80958,-0.440831,-0.250191,-0.279109,0.093083
89,0.390005,0.8275600000000001,-0.403776,-0.205542,-0.379501,0.0578889999999999
90,0.381309,0.8498020000000001,-0.363915,-0.091178,-0.427195,0.003166
91,0.357306,0.876207,-0.3234,0.334543,-0.157076,0.098317
92,0.320692,0.90426,-0.281895,0.5430010000000001,0.1166599999999999,0.101948
93,0.284493,0.927221,-0.243552,0.656044,0.414408,0.0984559999999999
94,0.261871,0.941691,-0.2112679999999999,-0.003281,-0.083583,-0.392156
95,0.252132,0.948932,-0.189608,-0.021709,-0.183108,-0.562879
96,0.246965,0.95377,-0.171243,-0.0396139999999999,-0.36005,0.085565
97,0.24688,0.955801,-0.159648,-0.4788439999999999,-0.648031,-0.359884
98,0.242163,0.957933,-0.153993,-0.4822439999999999,-0.308046,-0.151321
99,0.234475,0.956809,-0.171844,-0.192956,-0.025901,0.4738
100,0.232927,0.956196,-0.177276,0.295149,1.539959,0.061996
101,0.246771,0.954127,-0.169525,0.351938,0.294103,-0.112244
102,0.264152,0.951132,-0.159888,-0.156699,-0.317954,0.402884
103,0.2753739999999999,0.949314,-0.151542,0.040316,0.320965,0.229758
104,0.279508,0.949708,-0.141148,0.237643,0.918319,0.261158
105,0.27929,0.95023,-0.1380279999999999,0.006568,0.335719,-0.043048
106,0.275515,0.950772,-0.141833,-0.214907,0.281558,0.022678
107,0.265417,0.953199,-0.144768,-0.3246969999999999,0.469729,-0.057457
108,0.251364,0.956763,-0.146335,-0.27735,0.427683,-0.1665309999999999
109,0.24086,0.95943,-0.146535,0.078232,0.023144,-0.247523
110,0.2363199999999999,0.960537,-0.146677,0.082771,0.022038,-0.247381
111,0.237444,0.958576,-0.157307,0.347258,-0.064502,-0.304012
112,0.247976,0.951328,-0.1829599999999999,0.365992,-0.085835,-0.22863
113,0.271404,0.935529,-0.226093,0.104085,-0.134519,-0.2058989999999999
114,0.301976,0.911446,-0.279411,-0.303334,-0.236916,0.040581
115,0.3348,0.881474,-0.333024,-0.4701609999999999,-0.295201,0.146913
116,0.356405,0.851683,-0.384194,-0.4121149999999999,-0.318343,0.709527
117,0.368021,0.827075,-0.424855,-0.423731,-0.293734,0.750188
118,0.371878,0.810445,-0.452637,0.184854,0.061473,0.489976
119,0.373789,0.796333,-0.4755319999999999,0.026449,0.379021,0.481147
120,0.3739389999999999,0.786929,-0.490822,0.026299,0.388425,0.496438
121,0.367687,0.783289,-0.501259,-0.298915,0.035712,0.435249
122,0.366224,0.786867,-0.496705,-0.244794,0.028181,0.088319
123,0.367767,0.800667,-0.472943,-0.246337,0.0143819999999999,0.064557
124,0.361037,0.8270290000000001,-0.430893,0.253892,-0.024524,-0.244659
125,0.34037,0.863482,-0.37221,0.4125899999999999,0.044812,-0.0989049999999999
126,0.31105,0.8987700000000001,-0.308955,0.44191,0.009524,-0.16216
127,0.280296,0.927114,-0.248769,0.455712,-0.172934,0.100713
128,0.255921,0.945569,-0.20099,0.380722,-0.573941,-0.22264
129,0.242859,0.953727,-0.177252,0.392776,-0.723899,-0.230631
130,0.240828,0.952628,-0.185727,-0.666579,-0.638984,-0.561786
131,0.232055,0.950105,-0.208434,-0.996841,-0.089875,-0.64084
132,0.206557,0.95138,-0.228482,-1.009246,0.623861,0.112118
133,0.19357,0.954993,-0.224751,0.008502,1.48707,-0.061397
134,0.197139,0.954854,-0.222226,0.572499,0.053508,0.116086
135,0.2063239999999999,0.954229,-0.2164969999999999,0.48316,-0.157568,0.412649
136,0.2114849999999999,0.954224,-0.211479,0.7273430000000001,0.338821,0.103142
137,0.215835,0.952713,-0.213884,0.197129,0.194321,0.1083549999999999
138,0.20655,0.952284,-0.2246929999999999,0.062264,0.223452,0.229744
139,0.18816,0.954545,-0.231155,-0.180118,0.332427,0.515121
140,0.166917,0.958308,-0.2319,-0.253175,0.0373579999999999,0.201276
141,0.144527,0.96233,-0.230275,-0.060039,-0.024403,0.239598
142,0.123379,0.966223,-0.226241,0.13071,0.087046,0.127791
143,0.106143,0.969093,-0.222681,0.160322,0.110955,-0.152411
144,0.08938,0.970733,-0.2228949999999999,0.2376619999999999,0.1002049999999999,-0.165075
145,0.0719409999999999,0.971398,-0.226282,0.536473,-0.129693,-0.046499
146,0.054732,0.970528,-0.234675,0.6271220000000001,-0.1882859999999999,-0.008352
147,0.039363,0.967622,-0.249302,0.656927,-0.195176,-0.01704
148,0.028179,0.962224,-0.270783,0.428547,0.031581,-0.057357
149,0.023012,0.954256,-0.298093,0.5184770000000001,0.091154,0.041638
150,0.03092,0.943224,-0.330706,0.39387,0.093824,0.184893
151,0.056209,0.929542,-0.364399,0.228077,0.373986,0.390644
152,0.091521,0.916266,-0.389968,-0.105208,0.6532220000000001,0.631774
153,0.137566,0.905242,-0.402004,-0.358224,0.766663,0.334423
154,0.184743,0.896681,-0.402279,0.088023,0.80591,-0.130024
155,0.221232,0.891991,-0.394211,0.596318,0.798087,0.008942
156,0.25874,0.887444,-0.3814349999999999,0.75803,0.4367899999999999,0.3083909999999999
157,0.29939,0.882186,-0.363467,0.298435,0.434388,0.437929
158,0.333206,0.8760399999999999,-0.348602,0.042863,0.4758739999999999,0.335067
159,0.350305,0.869668,-0.3477909999999999,-0.151026,0.4844279999999999,0.3028389999999999
160,0.35644,0.8660700000000001,-0.350527,-0.432413,0.123722,0.359361
161,0.363691,0.8635430000000001,-0.34931,-0.331052,-0.070162,0.273702
162,0.367665,0.862914,-0.346693,-0.292179,-0.152267,0.3655989999999999
163,0.365636,0.8647100000000001,-0.344357,-0.280675,-0.393396,0.570385
164,0.3563199999999999,0.870511,-0.339472,-0.5416380000000001,-0.379269,0.5031680000000001
165,0.338846,0.880484,-0.33155,-0.5241640000000001,-0.389243,0.495246
166,0.3125679999999999,0.8929360000000001,-0.323976,-0.488776,-0.020576,0.143327
167,0.280951,0.903873,-0.322606,0.064599,0.2268489999999999,-0.097438
168,0.252305,0.910671,-0.327133,0.093246,0.220051,-0.092911
169,0.23669,0.912957,-0.332387,0.6449779999999999,0.000739,0.048711
170,0.2360409999999999,0.912142,-0.335076,0.123822,0.078764,0.232704
171,0.235061,0.911345,-0.337921,0.124802,0.079561,0.23555
172,0.231717,0.912355,-0.337505,-0.151609,-0.326051,0.207027
173,0.231344,0.914214,-0.3326969999999999,0.156886,-0.174575,0.289469
174,0.2330489999999999,0.917165,-0.323251,0.1551809999999999,-0.177525,0.280023
175,0.2283329999999999,0.926488,-0.299128,0.097809,0.950923,-0.185765
176,0.216909,0.927744,-0.303703,0.648142,1.724737,-0.8833850000000001
177,0.211168,0.923981,-0.318845,0.00601,-0.226746,0.964704
178,0.201245,0.929368,-0.3094659999999999,-0.464901,-0.371324,0.383578
179,0.18314,0.938631,-0.292277,-0.440876,-0.1134049999999999,0.806651
180,0.147424,0.950576,-0.2732489999999999,-0.318643,-0.02481,0.859186
181,0.100314,0.959473,-0.263332,0.244062,0.3921199999999999,0.678768
182,0.064099,0.962721,-0.262783,0.396473,0.188006,0.045101
183,0.032103,0.965539,-0.25826,0.230989,-0.026269,0.115071
184,0.004759,0.969536,-0.244892,-0.124083,-0.030128,0.448246
185,-0.0107409999999999,0.973619,-0.227913,-0.090547,0.013182,0.250267
186,-0.0214229999999999,0.978148,-0.20679,0.025299,0.029787,0.144611
187,-0.032345,0.982225,-0.184879,0.32568,-0.110384,0.197071
188,-0.045586,0.985891,-0.161041,0.2837909999999999,-0.143651,0.144119
189,-0.061949,0.98868,-0.136631,0.207609,-0.125353,0.147815
190,-0.079738,0.990134,-0.115195,0.0483959999999999,-0.131583,0.078788
191,-0.098768,0.990401,-0.096665,0.089597,-0.132063,0.015733
192,-0.115966,0.990038,-0.07981,0.10176,-0.080751,0.075233
193,-0.131564,0.989237,-0.063979,0.136554,-0.000712,0.168654
194,-0.147637,0.987839,-0.0486889999999999,0.2318199999999999,0.03859,0.154066
195,-0.1646,0.985765,-0.0341459999999999,0.286594,0.0757429999999999,0.062313
196,-0.180203,0.983394,-0.021321,0.342892,0.186558,0.003819
197,-0.192255,0.981302,-0.008767,0.33021,0.21575,-0.029929
198,-0.201113,0.979561,0.002512,0.463976,0.260552,-0.16897
199,-0.2088989999999999,0.977901,0.007984,0.721197,0.068257,-0.170506
200,-0.213704,0.976849,0.009389,0.953221,-0.025067,-0.0262649999999999
201,-0.213627,0.976885,0.0071239999999999,1.007756,0.023893,-0.019193
202,-0.207719,0.978166,-0.006013,0.6290140000000001,0.412688,-0.094344
203,-0.186854,0.981861,-0.0320279999999999,0.6327619999999999,0.320034,0.023239
204,-0.155474,0.985616,-0.066188,0.5102720000000001,0.264979,-0.027013
205,-0.115625,0.986896,-0.112521,0.167017,0.388486,-0.031507
206,-0.068682,0.983648,-0.166473,-0.067228,0.435328,0.200439
207,-0.0203479999999999,0.977632,-0.209323,-0.168678,0.49858,0.428317
208,0.02235,0.970408,-0.240423,0.071537,0.467275,0.594
209,0.058298,0.963594,-0.260925,0.371573,0.242827,0.35823
210,0.091902,0.957692,-0.272715,0.506472,0.249858,0.198405
211,0.129495,0.950623,-0.28203,0.4405729999999999,0.192077,0.271318
212,0.171779,0.940521,-0.293097,0.01151,0.152313,0.326194
213,0.217584,0.927169,-0.304973,-0.034296,0.165665,0.338069
214,0.2466269999999999,0.916732,-0.31428,-0.072524,-0.103789,0.378473
215,0.266523,0.907686,-0.324139,-0.135969,-0.153825,0.439144
216,0.280206,0.9001680000000001,-0.333432,-0.194711,-0.220083,0.504178
217,0.285285,0.895935,-0.34045,-0.355781,-0.264756,0.48312
218,0.283352,0.895861,-0.342256,-0.37614,-0.26729,0.4591689999999999
219,0.276097,0.8996430000000001,-0.3382409999999999,-0.36739,-0.258423,0.439163
220,0.264268,0.906272,-0.32989,-0.390351,-0.30326,0.2873179999999999
221,0.2474449999999999,0.915541,-0.317096,-0.432854,-0.179274,0.176516
222,0.224491,0.928448,-0.295942,-0.390827,-0.073987,-0.057727
223,0.195709,0.942022,-0.272556,-0.057663,0.018199,-0.417554
224,0.177063,0.949934,-0.257424,1.177307,0.4377609999999999,-0.588325
225,0.177771,0.950299,-0.255585,1.11532,0.534168,-0.413329
226,0.189315,0.947807,-0.2565449999999999,0.166551,0.156883,-0.217119
227,0.203654,0.942776,-0.263992,-0.018779,-0.486523,0.230651
228,0.221482,0.935298,-0.275965,-0.350755,-0.797603,0.8940370000000001
229,0.227307,0.940576,-0.252275,-0.691983,-0.209863,-0.081053
230,0.2113219999999999,0.951754,-0.222488,0.429318,1.423398,-0.470337
231,0.200535,0.954871,-0.219092,0.8274959999999999,1.565897,-0.0938809999999999
232,0.1973869999999999,0.954295,-0.2243929999999999,-0.335876,-0.312907,0.364011
233,0.189532,0.957566,-0.217115,-0.480075,-0.1554569999999999,0.374463
234,0.175887,0.964599,-0.19648,-0.433959,-0.131821,0.473458
235,0.153056,0.972369,-0.176253,0.395543,0.267209,0.399611
236,0.126998,0.97901,-0.159383,0.68358,0.283807,0.190389
237,0.1127089999999999,0.982873,-0.145769,0.697868,0.279944,0.176775
238,0.1020529999999999,0.986263,-0.129855,-0.098559,-0.017483,0.254687
239,0.0917549999999999,0.989992,-0.1071849999999999,-0.202046,-0.0066849999999999,0.131187
240,0.08205,0.993015,-0.084737,-0.135182,-0.023929,0.10021
241,0.075145,0.995133,-0.063687,0.121831,-0.037156,-0.041782
242,0.070556,0.996626,-0.041828,0.111649,-0.056349,-0.051785
243,0.067144,0.99752,-0.020923,0.141353,-0.080009,-0.07153
244,0.064062,0.997927,-0.00546,0.142847,-0.211031,-0.096347
245,0.060438,0.998158,0.004357,0.241259,-0.173619,-0.196603
246,0.057044,0.998332,0.008368,0.292123,-0.228954,-0.2077389999999999
247,0.056565,0.998375,0.006263,0.177368,-0.297386,-0.181816
248,0.05947,0.998224,-0.001816,0.080315,-0.265055,-0.161545
249,0.063845,0.997893,-0.011247,0.053587,-0.2345719999999999,-0.157744
250,0.068183,0.997464,-0.020233,-0.021919,-0.26286,-0.013855
251,0.071654,0.997014,-0.028657,-0.0495139999999999,-0.267201,-0.00975
252,0.0740789999999999,0.996629,-0.035161,0.031359,-0.15767,-0.117854
253,0.074741,0.99641,-0.03967,0.150082,-0.098552,-0.123554
254,0.0728429999999999,0.996435,-0.042464,0.252566,-0.099676,-0.0153669999999999
255,0.070893,0.99642,-0.045979,0.373031,-0.056067,0.028783
256,0.072426,0.995919,-0.053778,0.424935,-0.010171,-0.047525
257,0.082328,0.99383,-0.074274,0.393914,-0.085505,-0.416281
258,0.103583,0.988254,-0.1123329999999999,0.391458,0.151364,-0.493883
259,0.135879,0.977524,-0.161175,0.4848939999999999,0.6088100000000001,-0.271275
260,0.179166,0.959521,-0.217286,0.222644,0.768613,-0.172057
261,0.2193929999999999,0.93653,-0.273448,-0.13524,0.397973,0.544872
262,0.260317,0.911234,-0.319191,-0.429506,0.291723,0.356758
263,0.292279,0.89099,-0.347426,-0.3170739999999999,0.12819,0.317107
264,0.309986,0.878742,-0.362929,-0.151951,0.122524,0.337111
265,0.327119,0.871316,-0.3657849999999999,-0.110139,0.097511,0.232546
266,0.33779,0.869659,-0.359984,-0.199881,-0.107818,0.306304
267,0.341447,0.8733850000000001,-0.347288,-0.2384349999999999,-0.152591,0.275144
268,0.338996,0.883667,-0.322818,-0.282538,-0.273605,0.245029
269,0.3299539999999999,0.8996850000000001,-0.2858199999999999,-0.113356,-0.445751,-0.011772
270,0.3104429999999999,0.919441,-0.2413489999999999,-0.008655,-0.46305,-0.115295
271,0.277966,0.940868,-0.193641,0.156742,-0.449932,-0.138375
272,0.236611,0.960904,-0.143783,0.228019,-0.1255619999999999,-0.416886
273,0.196742,0.974735,-0.105734,0.184529,0.129239,-0.4480989999999999
274,0.168537,0.982621,-0.077753,0.202007,-0.293977,0.1458829999999999
275,0.161539,0.985236,-0.056658,0.321371,-0.730032,0.639406
276,0.170766,0.984679,-0.035211,-0.049489,-1.078902,-0.192984
277,0.175243,0.984305,-0.020663,-0.742168,-0.608665,-1.308545
278,0.168232,0.985271,-0.030536,-0.297657,0.151356,0.605823
279,0.160853,0.986959,-0.005582,0.038,2.26063,0.079282
280,0.155477,0.987815,0.006461,1.168116,1.328164,-1.46862
281,0.172998,0.984896,-0.006731,1.046911,-0.069827,0.155656
282,0.1971089999999999,0.980061,-0.024938,0.67014,-0.271565,0.254598
283,0.209279,0.977021,-0.0403279999999999,-0.167729,-0.102525,0.414016
284,0.2089389999999999,0.976838,-0.04612,-0.3084719999999999,0.3544,0.4494399999999999
285,0.196371,0.979726,-0.039615,-0.2430929999999999,0.52212,0.215686
286,0.18807,0.981587,-0.03333,0.311487,0.234584,-0.173671
287,0.189698,0.981533,-0.024509,0.239089,0.051822,-0.5205810000000001
288,0.198656,0.979854,-0.020404,0.149397,0.027455,-0.6673399999999999
289,0.208182,0.977504,-0.033749,-0.204001,0.087742,-0.616275
290,0.214451,0.974538,-0.065419,-0.008244,-0.1143849999999999,-0.421749
291,0.224707,0.968322,-0.108873,0.060922,-0.175338,-0.306685
292,0.246852,0.955683,-0.160399,-0.072642,-0.227396,0.113508
293,0.281131,0.93497,-0.216311,-0.2196989999999999,-0.097797,0.203417
294,0.318146,0.910999,-0.262407,-0.256714,-0.073826,0.2495139999999999
295,0.347615,0.8905370000000001,-0.293431,-0.1567579999999999,0.078426,0.559331
296,0.3628119999999999,0.8758229999999999,-0.318272,0.008175,0.190599,0.268818
297,0.371593,0.865641,-0.33553,-0.000606,0.200781,0.286077
298,0.3774099999999999,0.8609100000000001,-0.341159,-0.245635,0.283758,0.244404
299,0.380615,0.860866,-0.337694,-0.233459,0.050358,0.149644
300,0.378367,0.8685219999999999,-0.32016,-0.292033,-0.047218,0.083695
301,0.369782,0.8846799999999999,-0.2838969999999999,-0.032319,-0.156881,-0.075661
302,0.349353,0.907634,-0.232696,0.1590089999999999,-0.306957,-0.041321
303,0.31582,0.93253,-0.175043,0.2124079999999999,-0.33736,-0.0831659999999999
304,0.272622,0.954924,-0.117438,0.312675,-0.258742,-0.153772
305,0.236326,0.969532,-0.064429,0.5243399999999999,-0.234119,-0.048746
306,0.216906,0.975821,-0.026786,0.4988229999999999,-0.4278479999999999,-0.005059
307,0.210186,0.977647,-0.00467,0.3841429999999999,-0.997681,-0.198577
308,0.211469,0.977353,0.007462,-0.2082949999999999,-0.603238,-1.219804
309,0.213723,0.976863,-0.007312,-0.096246,-0.185741,-0.395352
310,0.2188909999999999,0.975745,-0.000372,0.050823,1.971612,0.813345
311,0.224563,0.974452,0.002857,-0.513,0.3316699999999999,-0.8286020000000001
312,0.233694,0.9723,0.0035759999999999,-0.522131,0.333822,-0.8293209999999999
313,0.2378739999999999,0.97128,0.004919,0.53155,0.4349399999999999,-0.138418
314,0.235702,0.971815,-0.0037359999999999,0.041337,0.124072,0.027982
315,0.2272679999999999,0.973582,-0.021922,0.080822,0.402028,0.067546
316,0.213323,0.976366,-0.034575,0.272288,0.204191,-0.338395
317,0.204592,0.977256,-0.0557289999999999,0.152586,0.0505,-0.5410119999999999
318,0.211255,0.97345,-0.088088,0.027972,0.040725,-0.492081
319,0.233448,0.963584,-0.130389,-0.144047,0.000726,-0.437085
320,0.264865,0.945822,-0.187781,-0.422779,-0.07575,0.219153
321,0.292138,0.923538,-0.24845,-0.412591,-0.2398829999999999,0.51879
322,0.3161219999999999,0.9000450000000001,-0.299969,-0.403524,-0.677221,0.598477
323,0.336425,0.8821370000000001,-0.3296199999999999,-0.2732989999999999,-0.321117,0.150802
324,0.3522349999999999,0.870458,-0.343843,-0.053895,0.025751,0.1851819999999999
325,0.367163,0.8630690000000001,-0.34684,0.04603,0.5424180000000001,0.5994649999999999
326,0.3723599999999999,0.862662,-0.342283,-0.1652829999999999,0.2151429999999999,0.4420449999999999
327,0.3695179999999999,0.868491,-0.330418,-0.1262309999999999,0.119241,0.304982
328,0.358715,0.882332,-0.304647,0.136433,-0.116676,-0.208308
329,0.3387,0.903217,-0.263583,0.300216,-0.184894,-0.2385679999999999
330,0.3114159999999999,0.927297,-0.207688,0.358917,-0.219808,-0.21086
331,0.280208,0.948231,-0.149454,0.397267,-0.258198,-0.161353
332,0.2540679999999999,0.962499,-0.095078,0.380026,-0.41657,-0.213577
333,0.2393,0.969335,-0.055848,0.1630589999999999,-0.6832020000000001,-0.078521
334,0.2354119999999999,0.970959,-0.042587,-0.080734,-0.772732,-0.037643
335,0.235902,0.970918,-0.040772,-0.481904,-0.710328,-1.130386
336,0.223566,0.97283,-0.0601159999999999,-0.483088,-0.472265,-0.741368
337,0.217658,0.97484,-0.04802,-0.01905,1.074965,0.7032470000000001
338,0.220028,0.975213,-0.023257,0.264957,1.628623,0.536349
339,0.239083,0.970888,-0.014434,0.7578050000000001,0.477155,-0.904069
340,0.255607,0.966721,-0.010417,0.456002,0.5087729999999999,0.043223
341,0.26654,0.963811,-0.004189,0.29509,0.0608929999999999,-0.149039
342,0.269788,0.962812,-0.014154,-0.215665,0.007983,-0.003653
343,0.2581449999999999,0.965868,-0.0213,-0.133664,0.5418229999999999,0.005981
344,0.237513,0.971008,-0.0269079999999999,0.0571799999999999,0.619736,-0.422509
345,0.22691,0.972779,-0.046978,0.099643,0.224212,-0.548817
346,0.2340949999999999,0.969479,-0.072821,-0.028849,-0.1143309999999999,-0.483789
347,0.255716,0.960883,-0.1063359999999999,-0.045694,0.0101409999999999,-0.6595489999999999
348,0.284512,0.945901,-0.155943,-0.2277949999999999,-0.026925,-0.033587
349,0.3130469999999999,0.925445,-0.213418,-0.266706,-0.29541,0.329858
350,0.339115,0.901485,-0.268925,-0.390171,-0.406963,0.378071
351,0.355879,0.881266,-0.31099,-0.410887,-0.5219520000000001,0.46573
352,0.366464,0.8672290000000001,-0.337065,-0.074899,-0.166286,0.424681
353,0.3735449999999999,0.859241,-0.34952,-0.228861,0.427228,0.591448
354,0.370671,0.8590059999999999,-0.353137,-0.3573659999999999,0.2262449999999999,0.452899
355,0.362904,0.864936,-0.346671,-0.302815,-0.003334,0.292975
356,0.3512,0.878926,-0.322711,0.0279959999999999,0.012584,-0.068845
357,0.330794,0.900524,-0.282181,0.048402,-0.009014,-0.109374
358,0.301401,0.926459,-0.2254429999999999,0.468726,-0.091529,-0.250739
359,0.268945,0.949288,-0.162833,0.444038,-0.202996,-0.17759
360,0.2382699999999999,0.965441,-0.105564,0.4247399999999999,-0.316897,-0.23933
361,0.217005,0.974706,-0.053373,0.340063,-0.585653,0.090711
362,0.206065,0.978396,-0.016461,0.216603,-0.873568,0.300107
363,0.2102639999999999,0.977602,-0.008694,0.017107,-0.908495,-1.277225
364,0.215943,0.975923,-0.030572,-0.355164,0.192763,-0.570426
365,0.214234,0.976143,-0.035232,-0.260529,0.68438,0.1275329999999999
366,0.2103409999999999,0.97746,-0.017914,-0.366469,1.299121,0.8573
367,0.217184,0.976017,-0.014657,0.380197,0.427563,-0.484031
368,0.230503,0.973008,-0.010795,0.569667,0.344451,-0.228051
369,0.2348849999999999,0.971984,-0.0082469999999999,0.74331,0.077073,-0.178902
370,0.233119,0.972262,-0.018847,0.100499,0.472578,0.041186
371,0.224182,0.974038,-0.0313779999999999,-0.0209199999999999,0.624106,-0.018869
372,0.212412,0.976206,-0.043542,-0.091532,0.456213,-0.269568
373,0.2100489999999999,0.975265,-0.068775,-0.140652,0.155014,-0.46452
374,0.225173,0.968959,-0.102022,0.0113379999999999,-0.049617,-0.398863
375,0.260941,0.954072,-0.147139,0.083389,-0.090226,-0.5896319999999999
376,0.302434,0.931832,-0.200543,-0.339452,-0.1069109999999999,0.207073
377,0.337205,0.906259,-0.254913,-0.392885,-0.315561,0.4794609999999999
378,0.36129,0.8824860000000001,-0.301138,-0.3785929999999999,-0.414758,0.550375
379,0.381802,0.862261,-0.332758,-0.195477,-0.676424,0.377848
380,0.397377,0.846527,-0.354231,-0.002449,0.213562,0.37631
381,0.4002469999999999,0.8417100000000001,-0.362383,-0.1425259999999999,0.617213,0.594881
382,0.3931389999999999,0.845196,-0.36205,-0.409862,0.393787,0.379293
383,0.381428,0.8540049999999999,-0.353811,-5e-05,0.124388,0.155005
384,0.365409,0.8719,-0.325978,0.042687,-0.038556,-0.085628
385,0.339481,0.899359,-0.2755,0.347439,-0.154791,-0.516447
386,0.304294,0.928729,-0.211805,0.518261,-0.139407,-0.411975
387,0.268917,0.952024,-0.146038,0.533573,0.0034659999999999,-0.163929
388,0.240042,0.966915,-0.086297,0.444528,-0.167766,0.043252
389,0.217302,0.975177,-0.042436,0.5433180000000001,-0.484821,0.141756
390,0.210011,0.977521,-0.018427,0.4556689999999999,-0.714216,0.2328739999999999
391,0.210575,0.977538,-0.008312,-0.419667,-1.077559,-0.820118
392,0.205065,0.978597,-0.016955,-0.407457,-0.3678639999999999,-0.554365
393,0.2041089999999999,0.978836,-0.014584,-0.356468,-0.0746,0.028942
394,0.203397,0.979079,0.005158,0.052737,1.981493,0.178009
395,0.214571,0.976655,0.009775,0.4467,0.736205,-0.63238
396,0.235155,0.971908,0.009441,0.339705,0.362245,-0.217754
397,0.2479699999999999,0.968685,0.012345,0.148545,-0.094265,-0.077821
398,0.249671,0.968322,0.002938,-0.020621,0.103974,0.049094
399,0.234507,0.972101,-0.004144,0.145925,0.640814,0.122415
400,0.21477,0.976639,-0.006418,0.197767,0.452117,-0.278982
401,0.202415,0.979107,-0.019241,-0.032493,0.161595,-0.264298
402,0.204445,0.978259,-0.034698,0.03431,-0.02518,-0.263871
403,0.224503,0.972778,-0.057396,0.328216,-0.160644,-0.8348459999999999
404,0.259586,0.95995,-0.10538,-0.002445,0.0111349999999999,-0.217176
405,0.297495,0.940427,-0.1645849999999999,-0.124827,-0.004391,-0.014415
406,0.329803,0.916192,-0.227631,-0.312316,-0.065698,0.216126
407,0.348761,0.892755,-0.285217,-0.5194310000000001,-0.619958,0.764724
408,0.367147,0.8710700000000001,-0.326245,-0.3747,-0.772727,0.840817
409,0.3820949999999999,0.852483,-0.356751,-0.167282,-0.100576,0.168366
410,0.377643,0.84501,-0.378602,-0.1932859999999999,0.540732,0.5416880000000001
411,0.358086,0.847864,-0.39102,-0.31028,0.339835,0.466093
412,0.339844,0.8556959999999999,-0.390238,-0.051697,-0.078566,0.1243079999999999
413,0.3262239999999999,0.871129,-0.3670239999999999,0.098763,-0.113408,-0.18838
414,0.309199,0.8952110000000001,-0.320919,0.185521,-0.120064,-0.348103
415,0.285445,0.923381,-0.256677,0.454042,-0.066188,-0.130163
416,0.25714,0.947738,-0.188852,0.4226689999999999,-0.1505119999999999,-0.15528
417,0.2299949999999999,0.964756,-0.127835,0.3144079999999999,-0.1927829999999999,-0.177982
418,0.208553,0.974683,-0.080577,0.370747,-0.21806,-0.01685
419,0.194393,0.979541,-0.0519899999999999,0.42838,-0.548541,0.2039369999999999
420,0.191713,0.980171,-0.050033,0.291976,-0.688896,0.2347719999999999
421,0.187755,0.980389,-0.0598169999999999,-0.8924059999999999,-0.700024,-1.533856
422,0.164569,0.982327,-0.089127,-0.689746,-0.048397,0.284821
423,0.155559,0.984677,-0.078769,-0.286998,0.791431,1.090793
424,0.1536799999999999,0.986066,-0.063628,0.918463,1.753436,-0.728348
425,0.173988,0.983012,-0.058375,1.396858,0.268376,-0.462102
426,0.195949,0.978415,-0.065587,1.35703,-0.262533,-0.185969
427,0.203199,0.975586,-0.083275,-0.005109,-0.101853,0.149117
428,0.193132,0.976497,-0.0956409999999999,-0.1019,0.387746,0.283676
429,0.166421,0.981002,-0.09966,-0.0277639999999999,0.581742,0.067235
430,0.136011,0.985581,-0.100616,0.164175,0.29631,0.185776
431,0.110821,0.989093,-0.096982,0.445804,0.061947,0.0473
432,0.0887,0.991709,-0.092943,0.4677729999999999,-0.094416,-0.127699
433,0.0714,0.993285,-0.090997,0.305859,0.020876,-0.306983
434,0.056582,0.9936,-0.097719,0.492536,-0.047754,-0.349592
435,0.0447829999999999,0.992292,-0.115515,0.674898,-0.226301,-0.278879
436,0.0388839999999999,0.989381,-0.14002,0.633464,-0.304002,-0.199778
437,0.036364,0.984901,-0.169237,0.397565,-0.384376,-0.00772
438,0.0405209999999999,0.978827,-0.200622,0.2182219999999999,-0.265769,0.25798
439,0.0547309999999999,0.971448,-0.230839,0.074495,0.184649,0.431538
440,0.077834,0.963199,-0.257262,0.278764,0.558682,0.382415
441,0.110443,0.955989,-0.271814,0.246155,0.565893,0.396966
442,0.151649,0.950329,-0.271795,-0.028785,0.472858,0.157202
443,0.195459,0.945468,-0.2605389999999999,0.111578,0.993359,0.001948
444,0.234535,0.941447,-0.242207,0.19265,1.035893,0.114049
445,0.2685909999999999,0.938568,-0.216661,0.318796,0.525528,0.095201
446,0.303141,0.934187,-0.188134,0.387396,0.2594619999999999,-0.12577
447,0.335495,0.926924,-0.168074,0.202041,0.275713,-0.105775
448,0.356462,0.920698,-0.158884,-0.155504,0.210528,0.134027
449,0.372117,0.916084,-0.149373,-0.262865,-0.065757,0.189809
450,0.383519,0.912505,-0.142268,-0.274266,-0.062179,0.182704
451,0.390453,0.910414,-0.136697,-0.30093,-0.266127,0.2446989999999999
452,0.390001,0.911215,-0.132588,-0.459154,-0.416556,0.335713
453,0.379676,0.915747,-0.131328,-0.553535,-0.4238189999999999,0.348674
454,0.360587,0.923588,-0.130211,-0.511741,-0.192937,-0.121529
455,0.3352719999999999,0.931769,-0.139258,-0.010138,-0.005469,-0.3587579999999999
456,0.315389,0.936057,-0.155952,0.26913,0.030129,-0.246926
457,0.311773,0.935735,-0.164899,0.5373180000000001,0.0747169999999999,-0.142795
458,0.3240659999999999,0.931815,-0.163391,0.195786,0.068368,-0.103729
459,0.334586,0.927458,-0.166934,-0.133292,0.001542,-0.016049
460,0.339182,0.92463,-0.173228,-0.354548,-0.4016349999999999,0.2052409999999999
461,0.340387,0.923995,-0.174249,-0.018549,-0.520126,0.5926140000000001
462,0.339057,0.928275,-0.152774,0.0557789999999999,0.002573,0.638584
463,0.329052,0.937079,-0.116623,0.468143,1.431283,-0.928192
464,0.318997,0.939849,-0.122142,0.546573,1.489778,-0.655095
465,0.317741,0.937106,-0.144454,0.368462,0.791593,0.152633
466,0.308747,0.93865,-0.153637,-0.870332,-0.4660859999999999,0.254589
467,0.28929,0.945944,-0.146612,-0.727431,-0.360434,0.5118010000000001
468,0.260717,0.955903,-0.13516,-0.572912,-0.3466349999999999,0.623731
469,0.2248909999999999,0.965278,-0.132873,0.200737,0.429268,0.565933
470,0.191876,0.972867,-0.1292579999999999,0.654514,0.644382,0.096421
471,0.173945,0.977289,-0.121012,-0.06489,0.020499,-0.1990559999999999
472,0.158906,0.98011,-0.118854,-0.275209,-0.049538,0.3286469999999999
473,0.152876,0.981514,-0.115119,-0.302351,-0.020653,0.38732
474,0.148367,0.984074,-0.097871,-0.291693,-0.003453,0.275194
475,0.1382779999999999,0.987488,-0.075766,0.0383579999999999,-0.019425,-0.019999
476,0.122272,0.990803,-0.057895,0.024426,-0.120656,0.031131
477,0.103464,0.993833,-0.039813,0.0432339999999999,-0.1236849999999999,0.013049
478,0.083822,0.996168,-0.024837,0.00413,-0.077986,-0.133382
479,0.065649,0.997724,-0.0152169999999999,0.172312,-0.108563,-0.025921
480,0.05151,0.998641,-0.007554,0.186451,-0.109481,-0.0335839999999999
481,0.0403899999999999,0.99918,0.000832,0.0388639999999999,-0.088399,0.047111
482,0.029863,0.999496,0.010517,0.008986,-0.053084,0.099163
483,0.01791,0.999603,0.021606,0.020938,-0.0531919999999999,0.088074
484,0.003696,0.999429,0.033506,0.103741,0.094566,-0.026273
485,-0.011614,0.998907,0.0452129999999999,0.155596,0.129847,-0.035371
486,-0.024646,0.998078,0.056811,0.163958,0.083465,-0.035662
487,-0.032972,0.997112,0.068379,0.048063,0.096593,-0.16663
488,-0.040445,0.9962,0.077092,0.2263119999999999,0.168656,-0.19518
489,-0.0493829999999999,0.995416,0.081875,0.308081,0.131736,-0.171551
490,-0.058682,0.994975,0.081092,0.4848439999999999,0.092305,-0.045966
491,-0.06636,0.994872,0.076298,0.509079,0.106233,0.071484
492,-0.069498,0.99529,0.067551,0.530725,0.261531,0.019836
493,-0.063553,0.996603,0.052322,0.606934,0.20025,-0.042343
494,-0.04568,0.99861,0.02621,0.54063,0.28586,-0.216243
495,-0.01858,0.999792,-0.008205,0.3457739999999999,0.270213,-0.257939
496,0.016186,0.998375,-0.054595,0.038821,0.120567,-0.022142
497,0.057338,0.992458,-0.108331,-0.026516,0.023274,0.1108789999999999
498,0.106031,0.982217,-0.1549289999999999,-0.045545,0.240119,0.239646
499,0.156221,0.969669,-0.187972,0.0884539999999999,0.394101,0.395858
500,0.200669,0.957793,-0.2058179999999999,0.0074,0.303331,0.412529
501,0.242144,0.945766,-0.21654,-0.014437,0.308033,0.358935
502,0.278027,0.933842,-0.2250239999999999,0.137988,0.228984,0.239337
503,0.311614,0.923115,-0.225282,0.10399,0.158291,0.2203989999999999
504,0.350049,0.909144,-0.225651,0.057986,0.163198,0.246632
505,0.385561,0.8921379999999999,-0.235433,-0.112215,0.162763,0.340932
506,0.4127229999999999,0.876131,-0.249098,-0.158527,0.142759,0.349944
507,0.431478,0.863192,-0.262151,-0.23911,0.056928,0.362523
508,0.443113,0.852701,-0.276673,-0.347654,-0.152811,0.459138
509,0.447801,0.8454889999999999,-0.290896,-0.4389659999999999,-0.1039109999999999,0.453554
510,0.44748,0.842123,-0.300978,-0.45897,-0.080221,0.4322649999999999
511,0.444392,0.84193,-0.3060489999999999,-0.49615,-0.044414,0.384479
512,0.437749,0.8449530000000001,-0.307289,-0.475118,-0.124067,0.3634409999999999
513,0.426558,0.8511719999999999,-0.3058599999999999,-0.458265,-0.133658,0.334669
514,0.41225,0.859982,-0.300794,-0.405124,-0.010831,0.06648
515,0.395569,0.870708,-0.292214,-0.253006,0.015202,-0.159126
516,0.376263,0.8798040000000001,-0.290461,0.055225,0.096255,-0.354559
517,0.36719,0.881489,-0.2968929999999999,0.959013,0.197841,-0.2006349999999999
518,0.369762,0.8767719999999999,-0.307481,0.1496019999999999,0.144957,0.001756
519,0.368682,0.8743340000000001,-0.315612,-0.0612169999999999,0.076701,0.074142
520,0.370923,0.873499,-0.315298,-0.173916,-0.189005,0.1917319999999999
521,0.3758039999999999,0.8734069999999999,-0.309722,-0.180278,-0.302957,0.487411
522,0.38193,0.874941,-0.297666,-0.186404,-0.304491,0.475355
523,0.385293,0.88461,-0.2627,0.04618,0.723697,0.090413
524,0.380177,0.894279,-0.236064,0.55125,1.432198,-1.13181
525,0.37758,0.8898010000000001,-0.256291,0.553847,1.436677,-1.111583
526,0.372532,0.88659,-0.274181,-0.918461,-0.265969,0.262401
527,0.359859,0.8908799999999999,-0.277183,-0.953105,-0.105343,0.538718
528,0.342647,0.902644,-0.26043,-0.935894,-0.1171059999999999,0.5219659999999999
529,0.317352,0.91688,-0.242103,-0.459503,0.050771,0.4776069999999999
530,0.287468,0.928779,-0.2339369999999999,0.599449,0.418572,0.177816
531,0.269781,0.934808,-0.2309739999999999,0.617136,0.4125439999999999,0.174852
532,0.256623,0.939231,-0.2280039999999999,-0.043931,0.020257,0.238136
533,0.245625,0.943542,-0.222244,-0.281209,0.061859,0.323486
534,0.235978,0.947979,-0.213652,-0.2295699999999999,0.002034,0.276228
535,0.228525,0.952519,-0.201197,-0.0855809999999999,-0.012669,0.190973
536,0.2225059999999999,0.957088,-0.185661,-0.022234,-0.013073,0.1217109999999999
537,0.2166489999999999,0.961368,-0.169797,-0.030019,-0.029712,0.051129
538,0.2099219999999999,0.965164,-0.156164,-0.023582,-0.0525049999999999,-0.000559
539,0.200855,0.968777,-0.145346,0.116574,-0.1325039999999999,0.033453
540,0.191643,0.971949,-0.136326,0.204155,-0.150217,-0.014339
541,0.185356,0.973885,-0.1311,0.1297839999999999,-0.2308889999999999,-0.120777
542,0.182418,0.974393,-0.131443,0.023194,-0.202665,-0.046963
543,0.182464,0.973467,-0.138078,-0.008575,-0.179582,-0.050079
544,0.184526,0.97157,-0.148316,-0.03148,-0.197721,0.011521
545,0.1875099999999999,0.969227,-0.1594829999999999,-0.110865,-0.137211,0.092253
546,0.190345,0.966984,-0.169427,-0.12699,-0.125554,0.077753
547,0.191667,0.965022,-0.178862,-0.068285,-0.104762,0.013121
548,0.192275,0.962859,-0.18955,-0.031631,-0.160384,0.129415
549,0.192734,0.960036,-0.202927,0.126754,-0.13977,0.158402
550,0.198126,0.955428,-0.218859,0.171823,-0.060897,0.100191
551,0.211508,0.947865,-0.2383539999999999,0.202433,0.00645,0.028622
552,0.232425,0.936135,-0.263867,0.258695,0.035377,-0.010578
553,0.258092,0.918698,-0.298961,0.324443,0.292331,0.001964
554,0.291066,0.894208,-0.340101,0.160365,0.49863,0.033949
555,0.329494,0.8628040000000001,-0.383404,0.056538,0.672184,0.101773
556,0.364088,0.8287399999999999,-0.425001,-0.33621,0.518641,0.394773
557,0.394822,0.798185,-0.4549859999999999,-0.315629,0.4993609999999999,0.307251
558,0.4179569999999999,0.7777689999999999,-0.469451,-0.319583,0.458696,0.294692
559,0.43937,0.765733,-0.469684,-0.144646,0.226485,0.119647
560,0.456053,0.7615,-0.460575,-0.10034,0.164159,0.0815159999999999
561,0.46651,0.7643989999999999,-0.445039,-0.103778,0.071859,0.106446
562,0.470513,0.773941,-0.423826,-0.31408,-0.035447,0.278486
563,0.467211,0.789269,-0.398453,-0.362658,-0.135369,0.227494
564,0.4552739999999999,0.807812,-0.3743829999999999,-0.364347,-0.232128,0.155755
565,0.432378,0.829628,-0.353217,-0.318425,-0.430382,0.077293
566,0.400907,0.854725,-0.329719,-0.165815,-0.5187729999999999,0.091529
567,0.365318,0.882333,-0.296693,-0.130226,-0.546381,0.058503
568,0.327637,0.908932,-0.257862,0.13797,-0.150402,-0.097942
569,0.292105,0.929099,-0.226815,0.5300239999999999,0.310372,0.027092
570,0.270169,0.940331,-0.206835,0.438617,-0.0941549999999999,0.034578
571,0.2616449999999999,0.945427,-0.194178,0.2088449999999999,-0.153465,-0.064672
572,0.259862,0.948978,-0.178626,-0.002568,-0.017078,-0.058312
573,0.261017,0.951385,-0.163497,-0.104202,-0.057739,-0.068803
574,0.264954,0.951789,-0.15457,-0.587571,-0.064154,-0.473024
575,0.262521,0.952339,-0.155326,-0.4802949999999999,-0.15667,0.19857
576,0.250237,0.955667,-0.155164,-0.46801,-0.159998,0.198407
577,0.24444,0.955806,-0.1633369999999999,0.5355439999999999,0.384252,0.716163
578,0.257799,0.951814,-0.1660869999999999,0.233091,0.359222,-0.516911
579,0.268476,0.948306,-0.169207,-0.086042,-0.011996,0.016742
580,0.273009,0.948621,-0.159936,-0.189726,0.276034,-0.069617
581,0.282138,0.945405,-0.163104,0.694806,0.350173,0.009585
582,0.298696,0.938189,-0.174866,0.155894,-0.198656,0.365754
583,0.307511,0.934087,-0.181421,-0.192902,0.23228,0.3478179999999999
584,0.303616,0.935811,-0.17908,-0.329709,0.407984,0.469226
585,0.293292,0.940238,-0.172995,-0.07947,0.34208,-0.105997
586,0.281537,0.943717,-0.1735809999999999,0.13074,0.136437,0.0556759999999999
587,0.272427,0.946838,-0.171102,0.132938,0.018158,0.071782
588,0.267856,0.948978,-0.166398,-0.039691,-0.03371,-0.081008
589,0.265073,0.950194,-0.163894,-0.275678,0.1223609999999999,-0.307817
590,0.262077,0.949402,-0.173048,0.0274589999999999,-0.0332029999999999,-0.124483
591,0.260719,0.946027,-0.19249,0.154717,-0.100904,-0.015106
592,0.2721659999999999,0.937385,-0.217323,0.1900069999999999,-0.1867599999999999,-0.297097
593,0.29857,0.920487,-0.252102,0.074614,-0.123749,-0.144474
594,0.3377409999999999,0.894333,-0.2934199999999999,0.012921,0.008789,-0.024634
595,0.383265,0.8594959999999999,-0.338187,-0.062952,0.361009,0.213187
596,0.421238,0.8219219999999999,-0.383404,-0.029392,0.409401,0.4777949999999999
597,0.442631,0.788629,-0.426777,-0.05695,0.323187,0.566563
598,0.450027,0.763265,-0.463571,-0.2246699999999999,-0.00675,0.556649
599,0.4505439999999999,0.7469100000000001,-0.489011,-0.5155310000000001,0.166694,0.373686
600,0.448855,0.740464,-0.500239,-0.4356109999999999,0.225128,0.317317
601,0.453463,0.739279,-0.49783,-0.217333,0.207209,0.249646
602,0.455771,0.747663,-0.48298,-0.2308719999999999,0.011385,0.236901
603,0.4544359999999999,0.766088,-0.454526,-0.2266679999999999,-0.109075,0.205533
604,0.4473939999999999,0.793482,-0.412579,-0.190268,-0.2492469999999999,0.108654
605,0.43045,0.8278139999999999,-0.359767,-0.154999,-0.333719,-0.017796
606,0.402217,0.8648319999999999,-0.300471,-0.060344,-0.397517,-0.091985
607,0.363411,0.899459,-0.242698,0.303566,-0.063704,-0.107369
608,0.324332,0.924436,-0.2005559999999999,0.525644,0.468814,0.19369
609,0.30063,0.937133,-0.177196,0.482207,0.226487,0.203808
610,0.292885,0.942359,-0.16178,0.106163,-0.407188,-0.3299809999999999
611,0.297129,0.942252,-0.154506,-0.218653,-0.505652,-0.00327
612,0.295646,0.943481,-0.149777,-0.684897,-0.7919,-0.280918
613,0.2798219999999999,0.946161,-0.162712,-0.850928,-0.259774,-0.378044
614,0.269092,0.946557,-0.177804,-0.323444,0.497687,0.986947
615,0.267783,0.949421,-0.163972,-0.054648,1.129742,0.6860970000000001
616,0.281346,0.9478,-0.150045,0.65005,0.394012,-0.559442
617,0.298521,0.943061,-0.14668,0.6179520000000001,0.2753219999999999,0.205564
618,0.317175,0.935838,-0.153625,0.555933,0.142989,0.238067
619,0.3291199999999999,0.929386,-0.167078,-0.156025,0.136639,0.197977
620,0.327895,0.928263,-0.175519,-0.500792,0.230428,0.3866239999999999
621,0.315222,0.9333,-0.171993,-0.435354,0.22382,0.2435719999999999
622,0.302023,0.938155,-0.169242,-0.222189,0.375536,-0.050897
623,0.291702,0.942083,-0.165479,0.0323339999999999,0.095774,-0.0311
624,0.286955,0.944236,-0.16146,0.037081,0.093621,-0.035119
625,0.28629,0.944672,-0.160089,-0.139042,0.0276639999999999,-0.306113
626,0.284796,0.943328,-0.170345,0.149927,-0.013122,-0.118245
627,0.2877929999999999,0.938178,-0.1923349999999999,0.2726929999999999,-0.095587,-0.109042
628,0.305867,0.925482,-0.223435,0.200679,-0.19924,-0.310561
629,0.33245,0.904547,-0.266959,0.1177599999999999,-0.212164,-0.127374
630,0.367571,0.8755629999999999,-0.313492,-0.052049,0.035341,0.021836
631,0.405508,0.8401430000000001,-0.360166,-0.015386,0.45687,0.308134
632,0.435322,0.803541,-0.405972,-0.049045,0.39995,0.5703550000000001
633,0.45141,0.771333,-0.448633,-0.057276,0.3160699999999999,0.694284
634,0.456118,0.7496010000000001,-0.479637,-0.462313,0.202089,0.410835
635,0.453323,0.738796,-0.498675,-0.360687,0.081944,0.19475
636,0.457538,0.732498,-0.504087,-0.184573,0.103501,0.1850099999999999
637,0.463651,0.735376,-0.494214,-0.183072,-0.014535,0.196882
638,0.468492,0.74742,-0.4710359999999999,-0.257677,-0.100783,0.224653
639,0.4698819999999999,0.767966,-0.435241,-0.296848,-0.18035,0.19638
640,0.464093,0.795125,-0.390373,-0.310163,-0.354878,0.082053
641,0.4458189999999999,0.8272450000000001,-0.341917,-0.192218,-0.344396,-0.008791
642,0.412284,0.862207,-0.294309,-0.067237,-0.345392,-0.042483
643,0.368318,0.895608,-0.249448,0.55812,0.37551,-0.028582
644,0.333279,0.919519,-0.208342,0.751316,0.519004,0.1213819999999999
645,0.317152,0.931583,-0.177664,0.514468,0.009854,-0.12301
646,0.31474,0.936109,-0.156953,-0.065106,-0.259336,-0.14276
647,0.316906,0.937497,-0.143757,-0.348065,-0.4140899999999999,0.199787
648,0.313111,0.940203,-0.134078,-0.467118,-0.600359,0.018203
649,0.298743,0.945121,-0.13227,-0.8437870000000001,-0.442924,-0.202432
650,0.279013,0.948942,-0.147162,-0.558264,0.170381,0.274329
651,0.268229,0.951342,-0.151651,0.044286,1.648725,0.184808
652,0.273557,0.951067,-0.143646,0.559512,0.297559,-0.061783
653,0.284136,0.94916,-0.135496,0.377592,0.461851,-0.106554
654,0.295564,0.946254,-0.1313119999999999,0.366164,0.464757,-0.110738
655,0.309588,0.940765,-0.138246,0.519666,0.0824889999999999,0.152849
656,0.31775,0.935664,-0.1535099999999999,-0.314759,0.256262,0.278251
657,0.315208,0.93521,-0.1613119999999999,-0.312218,0.256715,0.286053
658,0.304838,0.939434,-0.156633,-0.418242,0.2590369999999999,0.060609
659,0.291473,0.944182,-0.153492,-0.018982,0.2113199999999999,-0.051541
660,0.279813,0.948249,-0.150084,-0.0073219999999999,0.207254,-0.054949
661,0.273238,0.950296,-0.149251,0.081865,0.001731,-0.310526
662,0.272756,0.949436,-0.155473,0.179088,0.0306509999999999,-0.292723
663,0.277265,0.944855,-0.174269,0.2488119999999999,-0.014145,-0.21538
664,0.290898,0.934316,-0.205979,0.307979,-0.168737,-0.230438
665,0.316025,0.915766,-0.247988,6.1e-05,-0.2209719999999999,-0.171766
666,0.350574,0.88864,-0.295657,-0.099506,-0.131163,-0.099301
667,0.389532,0.8529459999999999,-0.347483,-0.146063,0.162618,0.255243
668,0.426778,0.813552,-0.394956,-0.17806,0.391739,0.486646
669,0.455356,0.776957,-0.434726,-0.1482119999999999,0.425299,0.547732
670,0.469268,0.748167,-0.469075,-0.137954,0.239565,0.535176
671,0.475114,0.7290979999999999,-0.492626,-0.301973,0.275999,0.323879
672,0.478575,0.718069,-0.505311,-0.36061,0.26185,0.33687
673,0.487162,0.713237,-0.503948,-0.375071,0.0825549999999999,0.3191489999999999
674,0.495655,0.717201,-0.4898439999999999,-0.308826,-0.031623,0.265448
675,0.4993069999999999,0.731642,-0.464101,-0.260247,-0.121992,0.236532
676,0.494731,0.757718,-0.4255609999999999,-0.18307,-0.307125,0.106317
677,0.478968,0.794187,-0.373969,-0.088846,-0.364607,-0.005563
678,0.449683,0.8366879999999999,-0.312626,0.0002529999999999,-0.405078,-0.08076
679,0.408826,0.8772770000000001,-0.25148,0.311344,0.067883,-0.048263
680,0.367615,0.90822,-0.199974,0.278976,0.821623,0.057244
681,0.336054,0.927189,-0.165481,0.094244,0.511029,0.048354
682,0.3133289999999999,0.938889,-0.142503,0.13357,-0.394318,-0.201247
683,0.308602,0.943645,-0.119558,-0.002495,-0.425807,0.0329649999999999
684,0.3124929999999999,0.943309,-0.111845,-0.165902,-0.535015,-0.118196
685,0.309384,0.944064,-0.114104,-0.952374,-0.25516,-0.923448
686,0.298605,0.943032,-0.146696,-0.276617,0.081443,0.643995
687,0.299827,0.942252,-0.149195,0.347848,1.257791,0.567209
688,0.314561,0.938938,-0.139435,0.730224,0.403698,-0.581695
689,0.333675,0.933006,-0.13474,0.0444839999999999,0.050896,0.142812
690,0.34686,0.928007,-0.135962,0.225543,0.325777,0.190024
691,0.358184,0.922593,-0.143255,0.245454,0.175689,0.09992
692,0.362571,0.91836,-0.158593,-0.158423,0.1416369999999999,0.073128
693,0.354819,0.920128,-0.165719,-0.285605,0.287865,0.225351
694,0.339455,0.925718,-0.166768,-0.1176069999999999,0.316577,0.027638
695,0.325287,0.931,-0.165597,0.01181,0.263916,0.0165039999999999
696,0.313608,0.935966,-0.1600359999999999,-0.044016,0.080498,0.005739
697,0.305341,0.940354,-0.1499839999999999,-0.04408,-0.113618,-0.1001539999999999
698,0.298256,0.943238,-0.146083,-0.037941,-6.1e-05,-0.1713299999999999
699,0.2911,0.943912,-0.155839,-0.0003129999999999,0.045163,-0.082763
700,0.288718,0.940977,-0.17663,0.099267,-0.153227,0.039285
701,0.301017,0.931577,-0.203833,0.2756119999999999,-0.256925,-0.169947
702,0.331658,0.913066,-0.237294,0.320243,-0.16775,-0.263835
703,0.371184,0.885021,-0.28099,0.074708,0.227788,-0.1186369999999999
704,0.408908,0.8512379999999999,-0.328912,0.0137449999999999,0.324909,0.24888
705,0.43965,0.815833,-0.37566,-0.088987,0.289453,0.4386029999999999
706,0.459557,0.782312,-0.420466,-0.271294,0.1457119999999999,0.544153
707,0.466435,0.759243,-0.453855,-0.509007,0.165195,0.4530619999999999
708,0.464762,0.748533,-0.47296,-0.536493,0.276476,0.355879
709,0.4659899999999999,0.744382,-0.4782729999999999,-0.3205429999999999,0.250903,0.171709
710,0.472921,0.7455,-0.469651,-0.220419,0.134017,0.093003
711,0.478758,0.755688,-0.446904,-0.226255,0.123829,0.070256
712,0.4801609999999999,0.774482,-0.4118479999999999,-0.228681,-0.006568,0.141402
713,0.473384,0.798383,-0.372139,-0.2680619999999999,-0.334684,0.112159
714,0.4553819999999999,0.825692,-0.332948,-0.232146,-0.4139489999999999,0.074709
715,0.422879,0.8569760000000001,-0.294552,-0.0318569999999999,-0.448681,0.0219539999999999
716,0.376096,0.8908370000000001,-0.254863,0.128451,-0.3235,0.011561
717,0.325137,0.920658,-0.216031,0.64996,0.613384,-0.091083
718,0.292647,0.937826,-0.186642,0.419435,-0.148168,-0.601032
719,0.281639,0.943038,-0.177069,0.159935,-0.261382,-0.446863
720,0.285333,0.942865,-0.172002,0.109992,-0.339136,-0.139156
721,0.296094,0.940046,-0.169226,-0.387403,-0.746549,0.032339
722,0.296085,0.940937,-0.164215,-0.8199649999999999,-0.617405,0.129349
723,0.283094,0.943423,-0.172644,-0.83505,-0.576281,0.183783
724,0.274302,0.944446,-0.181038,0.336385,1.7693139999999998,-0.357231
725,0.280569,0.945055,-0.167772,0.994242,1.611219,-0.514097
726,0.295823,0.942363,-0.156323,0.624786,0.2174579999999999,0.017376
727,0.306716,0.939808,-0.150605,0.3477639999999999,0.711712,-0.019149
728,0.314235,0.938982,-0.139875,0.376744,0.939833,0.102903
729,0.322788,0.936081,-0.139844,0.188778,0.540924,0.0019039999999999
730,0.323459,0.93461,-0.147897,-0.225543,0.320761,0.196618
731,0.315864,0.936823,-0.150295,-0.2651739999999999,0.249304,0.242748
732,0.301381,0.942048,-0.147345,-0.231084,0.242614,0.11193
733,0.286111,0.947292,-0.144129,-0.108789,0.33028,-0.12499
734,0.275685,0.950833,-0.141102,-0.034444,0.1140019999999999,-0.138439
735,0.2711199999999999,0.951867,-0.142964,0.039793,0.0108709999999999,-0.171245
736,0.275035,0.949321,-0.152125,0.0826,0.033223,-0.435353
737,0.28552,0.942353,-0.174484,0.0032979999999999,-0.050187,-0.340333
738,0.302521,0.929373,-0.211525,-0.034012,-0.067907,-0.293357
739,0.326503,0.908943,-0.25926,-0.213969,-0.160224,-0.023135
740,0.357595,0.88089,-0.310087,-0.262686,-0.010941,0.1275609999999999
741,0.387608,0.8481569999999999,-0.361092,-0.24239,0.0168789999999999,0.300911
742,0.409571,0.816818,-0.4062719999999999,-0.165476,0.046082,0.617698
743,0.422585,0.790215,-0.443824,-0.053429,0.151894,0.663383
744,0.429225,0.76956,-0.472802,-0.092997,0.253344,0.484551
745,0.430314,0.7545029999999999,-0.495533,-0.1484079999999999,0.235396,0.397175
746,0.4291979999999999,0.743796,-0.5124,-0.419387,0.105905,0.414927
747,0.428706,0.741764,-0.5157470000000001,-0.459346,0.029599,0.349838
748,0.4247,0.751674,-0.504591,-0.115847,-0.166454,0.171782
749,0.4160609999999999,0.776518,-0.473192,0.010712,-0.211912,0.0359209999999999
750,0.3965849999999999,0.8151510000000001,-0.422192,0.127875,-0.26794,-0.070346
751,0.366815,0.8565530000000001,-0.362987,0.2112949999999999,-0.380479,-0.05251
752,0.329125,0.894599,-0.302267,0.349692,-0.189155,-0.100382
753,0.291984,0.924551,-0.2448429999999999,0.479089,0.520854,-0.091705
754,0.267733,0.94122,-0.20596,0.151396,0.115313,-0.295886
755,0.254851,0.947616,-0.1925339999999999,0.309938,-0.480224,-0.113313
756,0.257133,0.944822,-0.202951,0.035317,-0.5163399999999999,-0.111075
757,0.252824,0.944356,-0.2104,-0.952348,-0.382222,-0.397312
758,0.23747,0.943977,-0.229155,-0.5522279999999999,0.482293,0.901381
759,0.233435,0.94311,-0.236744,-0.548193,0.48316,0.90897
760,0.243415,0.942685,-0.228233,0.7959069999999999,0.973102,-0.300789
761,0.258648,0.941103,-0.217768,0.359135,-0.094682,0.14567
762,0.267791,0.939347,-0.21427,0.2349099999999999,0.424041,0.0613159999999999
763,0.271036,0.936876,-0.220907,0.4327,0.6885359999999999,-0.186442
764,0.264442,0.936368,-0.230827,-0.1054609999999999,0.187716,0.386863
765,0.249894,0.939064,-0.236025,-0.121065,0.143089,0.328005
766,0.2285469999999999,0.943665,-0.23929,0.016738,0.165878,0.070863
767,0.205523,0.948729,-0.2401469999999999,0.229917,0.060396,0.153919
768,0.181636,0.953683,-0.23978,0.33495,0.063834,0.131793
769,0.1588369999999999,0.958039,-0.2385989999999999,0.251334,0.047393,0.008939
770,0.137891,0.961425,-0.238002,0.257205,0.019074,-0.087132
771,0.1168299999999999,0.963221,-0.241979,0.357673,0.00202,-0.150706
772,0.097426,0.962533,-0.253051,0.5286569999999999,-0.1982819999999999,-0.087418
773,0.083843,0.958418,-0.272768,0.4864239999999999,-0.271529,-0.0904669999999999
774,0.076395,0.950432,-0.301396,0.414541,-0.245644,-0.03065
775,0.0761039999999999,0.938903,-0.335658,0.314552,-0.300979,0.23936
776,0.092076,0.923206,-0.373108,0.41302,0.207623,0.334427
777,0.1208279999999999,0.905549,-0.40667,0.360572,0.355102,0.356605
778,0.156846,0.888762,-0.430696,-0.240098,0.7427229999999999,0.672517
779,0.196023,0.8750870000000001,-0.4424869999999999,-0.261026,0.768055,0.238401
780,0.235838,0.8674440000000001,-0.438086,-0.008726,0.866183,0.136984
781,0.274008,0.8627870000000001,-0.424872,0.621881,0.806372,0.436224
782,0.3193539999999999,0.860352,-0.3972469999999999,0.514432,0.5967100000000001,0.384399
783,0.36864,0.857958,-0.3577869999999999,0.4658479999999999,0.5711649999999999,0.131819
784,0.402833,0.8509209999999999,-0.337129,0.081847,0.430558,0.365221
785,0.417859,0.842635,-0.339644,-0.180554,0.2897349999999999,0.27983
786,0.426877,0.837091,-0.342129,-0.305142,0.201163,0.228909
787,0.433083,0.8353459999999999,-0.338577,-0.425881,-0.143466,0.417206
788,0.432492,0.837291,-0.334502,-0.4092369999999999,-0.177669,0.506789
789,0.424159,0.843148,-0.330435,-0.4486189999999999,-0.268945,0.490393
790,0.407165,0.8520559999999999,-0.32896,-0.655517,-0.301092,0.44955
791,0.383298,0.8635440000000001,-0.327676,-0.6928989999999999,-0.3176,0.340493
792,0.353948,0.876782,-0.325533,-0.608342,-0.276212,0.238344
793,0.320244,0.888128,-0.329652,-0.073708,-0.0112819999999999,-0.12654
794,0.285252,0.8963260000000001,-0.339453,0.488124,0.009008,-0.029795
795,0.263673,0.900783,-0.345057,0.90837,-0.033397,0.13499
796,0.264851,0.903828,-0.336076,0.427058,-0.076252,0.206025
797,0.268653,0.906581,-0.325475,0.150018,-0.049113,0.314703
798,0.270959,0.907162,-0.321926,0.045905,-0.056576,0.186001
799,0.273855,0.905878,-0.323088,0.229288,-0.356379,0.169447
800,0.279165,0.906595,-0.3164639999999999,0.480754,0.5794279999999999,0.847424
801,0.281478,0.916734,-0.283489,0.636628,1.242888,0.190227
802,0.2701,0.923737,-0.271574,0.387218,1.755462,-1.036913
803,0.261924,0.916053,-0.303712,-0.8675299999999999,-0.504844,0.647813
804,0.248686,0.908827,-0.334942,-0.924727,-0.6650229999999999,0.863643
805,0.228625,0.913731,-0.335893,-0.6527729999999999,-0.4709359999999999,0.8974469999999999
806,0.210852,0.924246,-0.318289,-0.527777,-0.185568,0.88085
807,0.184521,0.933643,-0.307017,-0.345669,0.184811,0.759166
808,0.143811,0.941,-0.306325,0.67882,0.773706,0.234654
809,0.1207109999999999,0.945227,-0.303269,0.323732,0.172296,0.156067
810,0.100569,0.949833,-0.296142,0.032427,-0.002049,0.399917
811,0.087861,0.953834,-0.28719,-0.167451,0.101891,0.4588359999999999
812,0.074613,0.960237,-0.269028,-0.1094339999999999,0.050216,0.1120599999999999
813,0.0564789999999999,0.967326,-0.247158,0.0176169999999999,0.008458,0.150036
814,0.03689,0.973562,-0.225417,0.066946,-0.14884,0.273574
815,0.015755,0.979134,-0.202595,0.013115,-0.169594,0.113148
816,-0.008131,0.983713,-0.179551,0.03285,-0.127115,0.076494
817,-0.03242,0.987244,-0.155865,0.144969,-0.037873,0.128445
818,-0.053732,0.989744,-0.132351,0.188025,-0.137906,0.078365
819,-0.070868,0.991332,-0.1106109999999999,0.205161,-0.139495,0.0566259999999999
820,-0.085643,0.992194,-0.090627,0.173564,-0.0330569999999999,0.08257
821,-0.10099,0.992078,-0.074689,0.238594,0.1086299999999999,0.079999
822,-0.116441,0.99124,-0.062291,0.250459,0.076707,0.087224
823,-0.131288,0.990041,-0.050788,0.270326,0.105388,0.126517
824,-0.144766,0.988657,-0.03996,0.281561,0.055884,0.134625
825,-0.156189,0.987285,-0.029493,0.30011,0.046666,0.089185
826,-0.166872,0.985793,-0.019008,0.529406,0.082139,-0.023503
827,-0.17782,0.984012,-0.009871,0.625269,0.109067,0.024398
828,-0.188821,0.982008,-0.0018809999999999,0.618386,0.094011,0.164067
829,-0.199147,0.979962,0.003365,0.470433,0.228671,0.069435
830,-0.205561,0.978639,0.002431,0.4873149999999999,0.2436199999999999,-0.024434
831,-0.2057159999999999,0.978592,-0.00592,0.555905,0.2223969999999999,-0.008027
832,-0.196741,0.980139,-0.024862,0.627054,0.224131,-0.1178839999999999
833,-0.177232,0.9827,-0.053733,0.35553,0.202771,-0.169106
834,-0.149005,0.984634,-0.0910509999999999,0.2084079999999999,0.199891,-0.078245
835,-0.112724,0.984109,-0.137183,0.110496,0.006598,0.07392
836,-0.06754,0.980895,-0.1824319999999999,0.086201,0.050386,0.165037
837,-0.0140259999999999,0.975892,-0.217795,0.069004,0.425521,0.362052
838,0.0319949999999999,0.971777,-0.2337159999999999,0.2278619999999999,0.271082,0.342771
839,0.072417,0.967904,-0.240654,0.260209,0.261817,0.306419
840,0.111577,0.962593,-0.246907,0.31927,0.240639,0.199772
841,0.155468,0.955402,-0.251065,0.256824,0.134915,0.154507
842,0.201265,0.945925,-0.254394,0.133879,0.196684,0.304092
843,0.239252,0.935082,-0.261491,0.005835,0.250694,0.369355
844,0.270061,0.924034,-0.270601,-0.100963,0.0716929999999999,0.3034989999999999
845,0.293933,0.914022,-0.279579,-0.213718,-0.078527,0.352013
846,0.311361,0.90581,-0.287333,-0.281851,-0.116518,0.354319
847,0.322878,0.8998229999999999,-0.2933699999999999,-0.336565,-0.228009,0.357122
848,0.329242,0.8965719999999999,-0.296238,-0.333331,-0.1943619999999999,0.305668
849,0.329771,0.89644,-0.2960489999999999,-0.3229039999999999,-0.1975869999999999,0.285856
850,0.32477,0.8989950000000001,-0.293821,-0.356005,-0.254723,0.261808
851,0.313817,0.904619,-0.288412,-0.34467,-0.273103,0.12029
852,0.297575,0.913253,-0.278237,-0.328428,-0.281738,0.110116
853,0.276746,0.923764,-0.264704,0.493716,-0.020734,-0.256735
854,0.257334,0.932485,-0.253472,1.006567,0.165461,-0.267555
855,0.2509909999999999,0.935664,-0.24806,1.142335,0.284521,-0.2786889999999999
856,0.252053,0.935714,-0.246788,0.188728,0.217667,-0.332435
857,0.247604,0.935376,-0.252508,-0.077652,0.164187,-0.125269
858,0.251261,0.931783,-0.262002,0.093099,-0.380346,0.316033
859,0.271619,0.928139,-0.2545139999999999,-0.4233369999999999,-0.498146,0.931256
860,0.277619,0.935553,-0.218322,-0.589707,0.633905,-0.388733
861,0.268667,0.939735,-0.21145,0.3201699999999999,0.834023,-0.478033
862,0.267117,0.940093,-0.211825,0.15517,0.385606,0.077304
863,0.25949,0.940978,-0.217303,-0.2540739999999999,-0.063552,0.423083
864,0.24563,0.94631,-0.210139,-0.296976,-0.0654049999999999,0.3246719999999999
865,0.227277,0.953399,-0.19842,-0.073362,-0.067489,0.421153
866,0.204466,0.960834,-0.187051,0.26053,0.130368,0.270547
867,0.185341,0.966604,-0.17698,0.281655,0.144343,0.05549
868,0.173773,0.970289,-0.168339,-0.040366,0.049928,0.088551
869,0.164366,0.973431,-0.159412,-0.157073,0.050266,0.18024
870,0.155079,0.976905,-0.146984,-0.154056,0.0319459999999999,0.1833
871,0.14617,0.980643,-0.130268,-0.057074,-0.034247,0.106052
872,0.136434,0.984376,-0.111293,0.114329,0.005492,0.051494
873,0.126578,0.987665,-0.092148,0.176873,0.009268,0.011124
874,0.116352,0.990364,-0.075076,0.177609,-0.063836,0.01604
875,0.105263,0.992571,-0.060982,0.1955329999999999,-0.102037,-0.034523
876,0.09291,0.994448,-0.049365,0.210801,-0.120242,-0.0566529999999999
877,0.081646,0.995862,-0.039859,0.23093,-0.160169,-0.031598
878,0.074458,0.996665,-0.033316,0.197164,-0.161124,-0.063394
879,0.069766,0.99712,-0.029667,0.199537,-0.150898,-0.119121
880,0.072934,0.996885,-0.029927,0.221286,-0.153212,-0.178188
881,0.073874,0.996838,-0.0291779999999999,0.2176449999999999,-0.202572,-0.185696
882,0.078713,0.996397,-0.0315089999999999,0.203498,-0.271315,-0.220979
883,0.0859299999999999,0.995644,-0.036121,0.1292029999999999,-0.297493,-0.141232
884,0.092763,0.994848,-0.0408269999999999,0.130793,-0.296011,-0.1108609999999999
885,0.097778,0.994105,-0.0467949999999999,0.143448,-0.274851,-0.110447
886,0.100219,0.993461,-0.054648,0.092316,-0.190894,0.010367
887,0.100351,0.99302,-0.0619409999999999,0.092886,-0.155327,0.096304
888,0.100116,0.992634,-0.068192,0.093121,-0.154941,0.102555
889,0.101374,0.992156,-0.073116,0.125142,-0.042769,0.12788
890,0.104072,0.991665,-0.075926,0.19201,0.004764,0.03514
891,0.10777,0.991232,-0.076426,0.205783,0.070414,-0.028967
892,0.111508,0.990635,-0.078775,0.228656,0.138089,-0.152793
893,0.117725,0.989174,-0.0875929999999999,0.276043,-0.035164,-0.190117
894,0.13034,0.985661,-0.107141,0.27742,-0.083577,-0.199744
895,0.152424,0.978479,-0.139079,0.3513449999999999,0.4870819999999999,-0.354405
896,0.187634,0.966144,-0.177076,0.1554289999999999,0.7467010000000001,-0.324022
897,0.233791,0.946911,-0.220677,-0.06477,0.622898,-0.041194
898,0.280015,0.922372,-0.2661199999999999,-0.235688,0.512443,0.1388309999999999
899,0.324953,0.898124,-0.29627,-0.053255,0.407784,0.049444
900,0.359989,0.877551,-0.316716,-0.088291,0.428357,0.06989
901,0.384167,0.862534,-0.329314,0.094669,0.085082,0.258818
902,0.398561,0.8541709999999999,-0.333975,-0.092455,-0.042266,0.17301
903,0.404117,0.8514290000000001,-0.3342989999999999,-0.318851,-0.138492,0.204752
904,0.404953,0.853474,-0.3280119999999999,-0.427018,-0.170018,0.224435
905,0.4013469999999999,0.8602059999999999,-0.314584,-0.4365189999999999,-0.260398,0.2166679999999999
906,0.392182,0.871209,-0.295273,-0.382676,-0.461449,0.158813
907,0.376529,0.885804,-0.2712469999999999,-0.316791,-0.573792,0.063529
908,0.351217,0.904359,-0.24244,-0.180028,-0.534746,0.0308769999999999
909,0.315851,0.925788,-0.207728,-0.155344,-0.52407,0.04101
910,0.271259,0.948152,-0.165595,0.0624049999999999,-0.018678,-0.124276
911,0.221853,0.967047,-0.124888,0.321024,0.52366,-0.047139
912,0.181244,0.977958,-0.10365,0.307388,0.281044,-0.038363
913,0.156764,0.983807,-0.086855,0.347341,-0.322232,-0.084516
914,0.150003,0.987151,-0.055012,0.099203,-0.381332,-0.0208539999999999
915,0.155465,0.98747,-0.026983,-0.12809,-0.411497,-0.5424899999999999
916,0.155357,0.987574,-0.023593,-0.922325,-0.236582,-0.411847
917,0.137344,0.989997,-0.0322089999999999,-0.328827,-0.053382,0.283598
918,0.122121,0.99126,-0.049835,0.670451,0.801586,0.399566
919,0.1262339999999999,0.990763,-0.049486,1.206423,0.636709,-0.280546
920,0.1466839999999999,0.988203,-0.043973,0.529235,0.095278,-0.50397
921,0.172522,0.984023,-0.0439209999999999,0.64869,0.6979989999999999,-0.079995
922,0.202591,0.977791,-0.053634,0.381775,0.134224,0.113952
923,0.22615,0.971659,-0.0687789999999999,-0.239303,0.077337,0.093574
924,0.2325699999999999,0.969567,-0.076457,-0.3541829999999999,0.06536,0.312862
925,0.219032,0.973121,-0.071101,0.037239,0.002984,-0.261083
926,0.2000559999999999,0.977468,-0.067291,0.252535,0.183146,-0.226486
927,0.187609,0.980237,-0.062706,0.5234810000000001,0.159457,0.03698
928,0.181807,0.981611,-0.05814,0.168169,-0.1103339999999999,-0.126919
929,0.179534,0.982444,-0.050647,-0.037368,0.10592,-0.4001429999999999
930,0.178207,0.982944,-0.0453649999999999,-0.084839,0.2109349999999999,-0.440933
931,0.180878,0.981997,-0.054402,0.260299,-0.06209,-0.310726
932,0.1927579999999999,0.978005,-0.079654,0.329489,-0.150811,-0.378826
933,0.219104,0.968691,-0.11673,0.294034,-0.197771,-0.378769
934,0.259026,0.951131,-0.16808,-0.098351,0.231334,-0.199504
935,0.311738,0.924105,-0.221012,-0.072465,0.49275,0.050434
936,0.3642829999999999,0.891337,-0.26984,-0.1126809999999999,0.484365,0.216007
937,0.404708,0.8588180000000001,-0.3140679999999999,-0.0567159999999999,0.06649,0.566036
938,0.4286189999999999,0.832882,-0.35013,-0.386779,0.185917,0.2382679999999999
939,0.443166,0.816421,-0.370213,-0.337865,0.229646,0.242436
940,0.4523029999999999,0.807248,-0.379169,-0.222032,0.0844289999999999,0.268085
941,0.456032,0.8055939999999999,-0.37822,-0.3695449999999999,-0.168753,0.259522
942,0.454259,0.8126260000000001,-0.365084,-0.367772,-0.175785,0.246386
943,0.445184,0.8283879999999999,-0.339973,-0.306115,-0.358722,0.140281
944,0.42746,0.8526940000000001,-0.300313,-0.075379,-0.485857,-0.075175
945,0.39881,0.8833479999999999,-0.246261,0.051844,-0.52089,-0.175477
946,0.356501,0.915748,-0.185229,0.198492,-0.48339,-0.261762
947,0.303533,0.944225,-0.127682,0.519724,0.375309,-0.348301
948,0.255611,0.962786,-0.087758,0.363789,0.292188,-0.2135119999999999
949,0.2280559999999999,0.971687,-0.0617399999999999,0.193819,-0.0270459999999999,-0.029813
950,0.220388,0.974583,-0.040168,0.124689,-0.72411,0.0616059999999999
951,0.225679,0.973765,-0.029094,-0.7985399999999999,-0.463221,-1.6688580000000002
952,0.219538,0.975156,-0.029499,-0.93725,-0.020902,-1.155774
953,0.205636,0.977406,-0.048849,0.086142,0.340312,1.020834
954,0.205165,0.977903,-0.040115,0.407063,0.73302,0.48265
955,0.217334,0.975638,-0.029872,1.434811,0.65481,-0.490742
956,0.2475139999999999,0.968326,-0.032812,0.189559,-0.4778479999999999,0.337744
957,0.2691409999999999,0.961802,-0.049955,-0.138587,-0.382594,0.261716
958,0.277004,0.958947,-0.060719,-0.331875,0.298103,0.507329
959,0.269858,0.961191,-0.0573059999999999,-0.277259,0.352163,0.186869
960,0.256778,0.965148,-0.0505139999999999,0.020291,0.389863,-0.056984
961,0.24625,0.968201,-0.0441,0.092541,0.206161,-0.14694
962,0.240351,0.970043,-0.035264,0.00324,0.177341,-0.291854
963,0.234834,0.971598,-0.029081,-0.09546,0.187047,-0.460696
964,0.2295239999999999,0.97275,-0.032744,-0.051713,-0.039385,-0.444719
965,0.227815,0.972317,-0.051924,0.31401,-0.10722,-0.486483
966,0.236025,0.967691,-0.0886769999999999,0.364561,-0.12951,-0.438453
967,0.257529,0.95619,-0.139199,0.1200339999999999,-0.234342,-0.20005
968,0.289559,0.935909,-0.200562,-0.152246,-0.1241869999999999,0.003297
969,0.327077,0.908528,-0.2599889999999999,-0.256032,0.0030629999999999,0.237117
970,0.359608,0.882292,-0.303709,-0.151722,0.002367,0.649626
971,0.383238,0.8597629999999999,-0.337539,0.116945,-0.081549,0.508529
972,0.393769,0.8403309999999999,-0.37254,0.099013,-0.072478,0.5145390000000001
973,0.395397,0.8282280000000001,-0.39711,-0.263317,0.219273,0.237503
974,0.389914,0.8236190000000001,-0.4118449999999999,-0.281699,0.03861,0.259821
975,0.389765,0.8245459999999999,-0.410127,-0.2717989999999999,-0.039741,0.17473
976,0.390807,0.834242,-0.388981,-0.3109119999999999,-0.15161,0.064274
977,0.39038,0.852909,-0.346622,-0.1992789999999999,-0.141605,-0.083646
978,0.378897,0.879884,-0.286769,-0.136649,-0.143297,-0.141347
979,0.352578,0.908637,-0.2237489999999999,0.0790169999999999,-0.350669,-0.146277
980,0.314793,0.934083,-0.168489,0.336345,-0.112275,-0.113005
981,0.276484,0.953157,-0.122648,0.489584,0.198454,-0.0970169999999999
982,0.246409,0.965203,-0.087524,0.448995,0.0611179999999999,-0.396943
983,0.232232,0.970195,-0.069174,0.255271,-0.5385850000000001,-0.234506
984,0.2298469999999999,0.97164,-0.055503,0.058162,-0.585928,0.0108709999999999
985,0.229233,0.972398,-0.043473,-0.5579529999999999,-0.7617649999999999,-0.130294
986,0.224796,0.973448,-0.04314,-0.268314,-0.201368,-0.416317
987,0.2241,0.97258,-0.0621419999999999,-0.0326329999999999,0.186584,0.143517
988,0.231178,0.971453,-0.053197,0.340111,0.959943,-0.640101
989,0.2398489999999999,0.969801,-0.0442,0.740512,0.433581,-0.1630599999999999
990,0.258257,0.964969,-0.046182,0.767103,0.135632,-0.141226
991,0.276925,0.959095,-0.058691,0.324882,-0.128849,0.0572419999999999
992,0.284504,0.956114,-0.069989,-0.029956,0.272951,0.177075
993,0.275552,0.958611,-0.071618,0.090155,0.551215,0.083459
994,0.258034,0.963808,-0.066979,0.199455,0.618467,-0.053901
995,0.242703,0.968064,-0.0627799999999999,0.21648,0.077789,-0.052333
996,0.231207,0.971026,-0.060386,0.127695,0.037107,-0.0538419999999999
997,0.223471,0.973069,-0.0564929999999999,-0.079291,0.004836,-0.4236859999999999
998,0.220773,0.97354,-0.0589299999999999,0.002998,0.019563,-0.5553739999999999
999,0.223021,0.971489,-0.080403,0.194673,-0.056511,-0.317561
1000,0.23694,0.964138,-0.119551,0.349333,-0.146206,-0.392183
1001,0.266881,0.948327,-0.171597,0.188487,-0.09945,-0.269977
1002,0.305012,0.924863,-0.2271389999999999,-0.172764,-0.026944,0.0545159999999999
1003,0.342311,0.897409,-0.2783469999999999,-0.368632,0.1111819999999999,0.5083880000000001
1004,0.3720489999999999,0.872297,-0.317291,-0.174463,-0.0511449999999999,0.572678
1005,0.38804,0.853139,-0.348676,-0.05671,-0.222951,0.537321
1006,0.396246,0.839457,-0.371884,-0.4706939999999999,0.293844,0.18652
1007,0.397635,0.8351780000000001,-0.379949,-0.2394929999999999,0.213651,0.213201
1008,0.397194,0.835717,-0.379222,-0.118096,0.107688,0.166682
1009,0.39425,0.8432350000000001,-0.3654,-0.11329,-0.135471,0.058515
1010,0.385974,0.859511,-0.335052,-0.039432,-0.147552,-0.0731049999999999
1011,0.366964,0.8839100000000001,-0.28989,-0.012609,-0.163436,-0.172848
1012,0.3336949999999999,0.91236,-0.237155,0.147384,-0.354865,-0.253156
1013,0.292537,0.938263,-0.184606,0.203923,-0.263123,-0.261042
1014,0.253191,0.958231,-0.132977,0.241926,-0.02157,-0.25394
1015,0.2267539999999999,0.970343,-0.08374,0.2999949999999999,-0.094443,-0.011628
1016,0.215579,0.975245,-0.04917,0.495435,-0.584529,-0.109842
1017,0.2178,0.975553,-0.029225,0.459003,-0.735639,0.035511
1018,0.2286409999999999,0.973253,-0.022266,-0.508655,-0.4493279999999999,-0.7365229999999999
1019,0.231828,0.972106,-0.035512,-0.232789,-0.21408,-0.075435
1020,0.2363179999999999,0.970035,-0.056396,0.022028,0.385372,0.4347069999999999
1021,0.24858,0.967256,-0.051182,0.335862,0.635893,-0.70187
1022,0.2647239999999999,0.96314,-0.047716,-0.1144859999999999,-0.0988059999999999,0.2151809999999999
1023,0.278633,0.95931,-0.045652,0.2056349999999999,0.181529,0.151915
1024,0.287495,0.957009,-0.038418,0.098324,0.379096,-0.137257
1025,0.285904,0.956871,-0.051499,0.101944,0.385963,0.0355529999999999
1026,0.2746989999999999,0.959586,-0.0610809999999999,0.164388,0.485635,0.01619
1027,0.260476,0.963187,-0.066477,-0.088281,0.3391659999999999,-0.11588
1028,0.247357,0.966356,-0.070473,-0.145261,0.2267289999999999,-0.320366
1029,0.241446,0.967305,-0.077589,-0.113746,0.129771,-0.46123
1030,0.24572,0.964897,-0.092693,0.179283,-0.207222,-0.4157
1031,0.262898,0.957149,-0.1214359999999999,0.204113,-0.147426,-0.537424
1032,0.287858,0.943306,-0.165252,0.078734,-0.082832,-0.198762
1033,0.314168,0.923427,-0.220405,-0.159123,-0.2127639999999999,0.229026
1034,0.342431,0.899057,-0.272828,-0.351358,-0.315728,0.589555
1035,0.367683,0.8768459999999999,-0.309753,-0.4151229999999999,-0.299622,0.603103
1036,0.384178,0.859722,-0.336576,-0.175728,-0.012584,0.545377
1037,0.391343,0.848532,-0.356148,-0.165025,0.202783,0.278084
1038,0.391551,0.845093,-0.364011,-0.1991369999999999,0.311508,0.192807
1039,0.388319,0.8471989999999999,-0.362573,-0.084562,0.152022,0.160165
1040,0.384802,0.8554139999999999,-0.346688,-0.115133,-0.084143,-0.050056
1041,0.377123,0.871876,-0.312422,-0.067385,-0.081425,-0.144639
1042,0.358887,0.8959799999999999,-0.2615679999999999,0.157791,-0.126388,-0.245191
1043,0.3281699999999999,0.921289,-0.208637,0.158479,-0.247628,-0.255246
1044,0.292958,0.942662,-0.15988,0.177028,-0.2455639999999999,-0.2473769999999999
1045,0.264875,0.958419,-0.1061619999999999,0.276095,0.1077579999999999,0.018806
1046,0.245533,0.967437,-0.06145,0.384975,-0.1816549999999999,-0.131574
1047,0.236087,0.971269,-0.02995,0.2138489999999999,-0.5446479999999999,-0.065127
1048,0.232911,0.972412,-0.012861,-0.225098,-0.7721399999999999,-0.333315
1049,0.2279,0.97366,-0.006656,-0.78837,-0.691403,-0.405011
1050,0.217049,0.975855,-0.024363,-0.073556,-0.1133059999999999,0.021357
1051,0.210195,0.976953,-0.037124,0.242335,1.342536,0.8543540000000001
1052,0.214831,0.976444,-0.02004,0.8357680000000001,1.643261,-1.484996
1053,0.235148,0.971935,-0.0066849999999999,0.8521629999999999,0.726093,-1.039077
1054,0.2624599999999999,0.964845,-0.0136099999999999,-0.052713,-0.22014,0.213469
1055,0.276913,0.960572,-0.0248509999999999,-0.2100179999999999,-0.059586,0.198679
1056,0.272806,0.96153,-0.032157,-0.118418,0.046466,0.272025
1057,0.253875,0.966711,-0.031833,0.150498,0.492822,0.06763
1058,0.234697,0.971664,-0.027979,0.171034,0.315659,-0.4755149999999999
1059,0.223527,0.974241,-0.029772,0.189071,0.250429,-0.386641
1060,0.217731,0.975508,-0.031228,0.049588,0.031862,-0.5341859999999999
1061,0.218858,0.97496,-0.039389,0.062788,-0.001754,-0.4925779999999999
1062,0.227367,0.971677,-0.064388,0.229633,-0.081113,-0.496098
1063,0.247074,0.963141,-0.106357,0.355144,-0.203772,-0.4104279999999999
1064,0.281298,0.945565,-0.163633,-0.078509,-0.1933369999999999,-0.117922
1065,0.317878,0.921022,-0.225102,-0.2414619999999999,-0.17537,0.063191
1066,0.347298,0.895967,-0.276813,-0.418037,-0.35341,0.577091
1067,0.369987,0.87474,-0.31295,-0.307167,-0.291885,0.637001
1068,0.3813539999999999,0.8612280000000001,-0.335938,-0.031332,-0.153342,0.513733
1069,0.386947,0.852483,-0.351486,-0.137909,0.496287,0.429886
1070,0.385296,0.851669,-0.355254,-0.232617,0.092179,0.331099
1071,0.3783,0.8555370000000001,-0.3534739999999999,-0.22562,0.08831,0.329319
1072,0.369219,0.866411,-0.336165,-0.1031369999999999,-0.023851,0.000792
1073,0.3543429999999999,0.8873409999999999,-0.295066,0.230938,-0.0165979999999999,-0.257912
1074,0.325907,0.916285,-0.232817,0.364904,-0.054011,-0.3220989999999999
1075,0.287275,0.942292,-0.171921,0.4243189999999999,-0.068222,-0.308533
1076,0.249203,0.961191,-0.118354,0.302296,-0.018365,-0.187676
1077,0.217468,0.973225,-0.074408,0.305054,-0.0980419999999999,-0.229791
1078,0.20023,0.978664,-0.046049,0.361415,-0.5190239999999999,-0.302004
1079,0.2005839999999999,0.978981,-0.036867,0.1990589999999999,-0.726158,0.115496
1080,0.206421,0.977728,-0.037879,-0.562912,-0.898749,-0.440301
1081,0.199355,0.979301,-0.034982,-0.934722,-0.8349530000000001,-0.300589
1082,0.187818,0.980805,-0.0523789999999999,-0.133863,0.030563,0.71455
1083,0.1885,0.981257,-0.0399949999999999,0.7737649999999999,1.781439,0.240175
1084,0.197565,0.980057,-0.021251,-0.083429,-0.364548,0.207134
1085,0.203149,0.979129,-0.005733,0.8946290000000001,1.026456,-0.387441
1086,0.205537,0.978617,0.0077329999999999,1.249282,1.248266,-0.4472779999999999
1087,0.210976,0.977483,-0.003418,-0.094979,-0.049092,0.010345
1088,0.208947,0.97775,-0.018498,-0.030679,0.5259739999999999,0.127949
1089,0.191667,0.981249,-0.020225,-0.0650039999999999,0.514997,0.058861
1090,0.1655589999999999,0.985985,-0.0205139999999999,-0.0616769999999999,0.1976089999999999,-0.545053
1091,0.150291,0.988149,-0.0311509999999999,0.384529,-0.1540119999999999,-0.5335770000000001
1092,0.151244,0.987041,-0.053578,0.530686,-0.297359,-0.49377
1093,0.169689,0.981066,-0.093336,0.340763,-0.118364,-0.364245
1094,0.195099,0.969269,-0.149832,-0.0071569999999999,-0.241166,0.045478
1095,0.2224219999999999,0.951944,-0.2105409999999999,-0.232981,-0.421045,0.454239
1096,0.250511,0.931375,-0.264164,-0.256218,-0.49215,0.675205
1097,0.2791639999999999,0.912606,-0.298688,-0.316517,-0.011651,0.387814
1098,0.299479,0.901114,-0.313533,-0.301692,0.256616,0.201061
1099,0.315844,0.89181,-0.3239039999999999,0.185377,0.356969,0.3867239999999999
1100,0.332917,0.8846940000000001,-0.326312,-0.162873,0.4402109999999999,0.084079
1101,0.345869,0.8823770000000001,-0.319032,-0.316862,0.369881,0.03177
1102,0.355108,0.8856649999999999,-0.299155,-0.167089,0.0913559999999999,-0.094598
1103,0.358508,0.8940389999999999,-0.268632,-0.061084,-0.068828,-0.151793
1104,0.354411,0.903641,-0.240465,-0.0426589999999999,-0.105102,-0.148115
1105,0.341196,0.913607,-0.221142,-0.085016,-0.18352,-0.129047
1106,0.320175,0.924698,-0.205957,-0.038604,-0.285584,-0.323783
1107,0.297328,0.935638,-0.190195,-0.015757,-0.2965239999999999,-0.339545
1108,0.272905,0.946015,-0.174859,0.293364,-0.1784059999999999,-0.362129
1109,0.249098,0.954514,-0.1638619999999999,0.490587,0.007339,-0.319033
1110,0.233494,0.959646,-0.156708,0.4734,0.0482579999999999,-0.451813
1111,0.230232,0.960338,-0.157296,0.3462909999999999,-0.110698,-0.685905
1112,0.2402139999999999,0.95716,-0.161675,-0.036265,0.191552,0.245415
1113,0.251598,0.954264,-0.1614809999999999,-0.047649,0.194448,0.245221
1114,0.246629,0.9544,-0.168202,-0.351396,0.127326,0.637181
1115,0.238576,0.956764,-0.166373,-0.370657,0.710014,0.499824
1116,0.232291,0.959971,-0.156504,-0.1049099999999999,0.8991600000000001,0.330561
1117,0.228596,0.963103,-0.142033,0.65588,0.530702,-0.1712
1118,0.224214,0.965016,-0.135898,0.035399,0.5680350000000001,0.043613
1119,0.21688,0.966447,-0.137621,-0.308555,0.598571,0.429125
1120,0.205242,0.969414,-0.134564,-0.6076159999999999,0.366523,0.608013
1121,0.1892039999999999,0.974846,-0.1177859999999999,0.000997,0.234871,-0.0279959999999999
1122,0.166261,0.981419,-0.095759,0.02394,0.228298,-0.050024
1123,0.142449,0.987012,-0.074232,0.208717,0.050036,0.106139
1124,0.118423,0.991653,-0.050934,0.18628,-0.170761,0.085419
1125,0.094277,0.995187,-0.026629,0.210426,-0.174295,0.061114
1126,0.070224,0.997525,-0.002718,0.120877,-0.2476159999999999,0.101427
1127,0.047159,0.998657,0.021339,0.029104,-0.267196,-0.040885
1128,0.0262089999999999,0.998672,0.044291,0.008306,-0.183304,-0.051432
1129,0.0056939999999999,0.997799,0.0660299999999999,0.071546,-0.043301,-0.115713
1130,-0.01651,0.996142,0.086159,0.083603,-0.007144,-0.241036
1131,-0.037854,0.994049,0.102124,0.110608,0.031143,-0.307415
1132,-0.056771,0.992304,0.110026,0.4639979999999999,0.111471,-0.3255409999999999
1133,-0.073227,0.991401,0.1084349999999999,0.745514,-0.035865,-0.26615
1134,-0.084064,0.99133,0.100961,0.827442,-0.1160549999999999,-0.212808
1135,-0.086826,0.992086,0.090681,0.8034859999999999,0.07545,-0.194746
1136,-0.080709,0.994295,0.069702,0.700231,0.4398479999999999,-0.346527
1137,-0.061386,0.997547,0.033568,0.720841,0.409557,-0.325667
1138,-0.028699,0.999502,-0.012924,0.479826,0.215158,-0.094696
1139,0.01601,0.997167,-0.073471,0.306011,0.597392,0.02713
1140,0.067552,0.98819,-0.137527,0.132414,0.667999,0.146728
1141,0.118699,0.974784,-0.18895,-0.119599,0.479668,0.5684520000000001
1142,0.16495,0.961306,-0.220631,0.085874,0.278196,0.413197
1143,0.205557,0.950108,-0.2345989999999999,0.30337,0.27531,0.295894
1144,0.24341,0.941086,-0.234744,0.4326149999999999,0.253082,0.155704
1145,0.280548,0.931424,-0.231814,0.40001,0.1375299999999999,0.264498
1146,0.318675,0.918821,-0.232832,0.241567,0.123599,0.388502
1147,0.354943,0.903777,-0.239163,-0.088219,0.175401,0.540067
1148,0.385332,0.8892559999999999,-0.246451,-0.105715,0.150554,0.519843
1149,0.408309,0.876833,-0.253858,-0.212508,0.0590799999999999,0.483305
1150,0.424681,0.8664299999999999,-0.2625659999999999,-0.388441,-0.063649,0.546898
1151,0.435216,0.860197,-0.265788,-0.421529,-0.195448,0.545421
1152,0.4376609999999999,0.858786,-0.266334,-0.483452,-0.190543,0.530098
1153,0.432871,0.862022,-0.263694,-0.5501050000000001,-0.15313,0.393943
1154,0.421234,0.8685139999999999,-0.261228,-0.679016,-0.089675,0.363706
1155,0.403825,0.87728,-0.259423,-0.730103,-0.021735,0.242013
1156,0.3824929999999999,0.887395,-0.257341,-0.621995,0.061107,0.109514
1157,0.3593949999999999,0.8984030000000001,-0.252395,-0.268788,0.263005,-0.226792
1158,0.338082,0.908584,-0.245298,-0.247475,0.252824,-0.2338889999999999
1159,0.324766,0.912174,-0.2499199999999999,0.685763,0.217098,-0.451725
1160,0.327446,0.90812,-0.260946,0.254448,0.034995,-0.0993899999999999
1161,0.336623,0.903257,-0.266097,0.147752,-0.0142949999999999,0.035872
1162,0.347838,0.8989520000000001,-0.2662489999999999,0.083375,-0.0487779999999999,0.182524
1163,0.356884,0.8969790000000001,-0.260877,0.328755,-0.4681619999999999,0.643705
1164,0.3665739999999999,0.8974690000000001,-0.245292,0.5056039999999999,-0.516274,0.900626
1165,0.376585,0.902635,-0.208394,0.443514,-0.405427,0.992299
1166,0.371593,0.911396,-0.176832,0.136723,1.444881,-1.095751
1167,0.35289,0.915521,-0.193093,-0.073425,1.146476,-0.621162
1168,0.339125,0.914604,-0.2201989999999999,-0.81671,0.256081,0.101242
1169,0.320965,0.918037,-0.232775,-0.8762479999999999,-0.401145,0.57773
1170,0.304454,0.927456,-0.217088,-0.8681139999999999,-0.374722,0.531617
1171,0.286114,0.938367,-0.193906,-0.7644770000000001,-0.338377,0.474393
1172,0.258131,0.949305,-0.179395,0.353686,0.471624,0.424008
1173,0.224242,0.959669,-0.169543,0.761872,0.455233,0.279819
1174,0.2073179999999999,0.964986,-0.160671,0.989597,0.238963,0.0393639999999999
1175,0.192621,0.968488,-0.157865,-0.286219,0.096178,0.26782
1176,0.183994,0.970665,-0.154756,-0.37923,0.06504,0.255448
1177,0.1742369999999999,0.974265,-0.14298,-0.31326,-0.027426,0.158102
1178,0.161867,0.978502,-0.127777,-0.148241,-0.005617,0.112869
1179,0.146306,0.982945,-0.111388,0.005855,-0.032292,0.077941
1180,0.129171,0.986913,-0.096494,0.082484,-0.079732,0.079679
1181,0.111831,0.990324,-0.082129,0.1094059999999999,-0.045012,0.079459
1182,0.093176,0.993206,-0.069671,0.143015,-0.0615039999999999,0.077468
1183,0.074949,0.995461,-0.058602,0.092714,-0.082283,0.069573
1184,0.058979,0.997181,-0.046306,0.014965,-0.007237,0.161296
1185,0.043968,0.998467,-0.033519,0.048119,0.004554,0.166545
1186,0.027617,0.999399,-0.020765,0.220842,0.063497,0.014341
1187,0.011948,0.999907,-0.0059619999999999,0.225677,0.0591289999999999,-0.018421
1188,-0.000419,0.999933,0.011274,0.197914,0.070425,-0.052305
1189,-0.009597,0.999616,0.025876,0.118895,0.068652,-0.111082
1190,-0.018309,0.999165,0.036427,0.285246,-0.0427899999999999,-0.109425
1191,-0.0276459999999999,0.998723,0.042212,0.407895,0.011104,-0.0753539999999999
1192,-0.034272,0.998492,0.042804,0.367127,0.2318849999999999,0.05853
1193,-0.033974,0.998703,0.037829,0.241448,0.307128,0.05322
1194,-0.0235949999999999,0.99938,0.025997,0.289219,0.266809,0.029164
1195,-0.000896,0.999995,0.001916,0.504939,0.4498189999999999,-0.2202239999999999
1196,0.033821,0.998796,-0.03544,0.076546,0.1491829999999999,-0.37348
1197,0.077753,0.992842,-0.0906309999999999,-0.117014,0.133852,-0.250906
1198,0.126814,0.979314,-0.157657,-0.343489,0.26652,0.198475
1199,0.178817,0.960293,-0.214141,-0.382339,0.4475439999999999,0.38069
1200,0.225847,0.940568,-0.253613,-0.29381,0.442229,0.431652
1201,0.265343,0.923166,-0.278123,0.05355,0.276739,0.3256699999999999
1202,0.302975,0.906749,-0.293272,0.087741,0.249257,0.185225
1203,0.3388,0.888403,-0.309759,0.107779,0.2387639999999999,0.2136739999999999
1204,0.374261,0.867806,-0.326861,0.058265,0.10894,0.2455929999999999
1205,0.405893,0.845676,-0.346524,-0.20054,0.1381339999999999,0.294766
1206,0.432601,0.823908,-0.3660989999999999,-0.325424,0.080999,0.342386
1207,0.449903,0.8054279999999999,-0.385835,-0.361189,-0.010995,0.366975
1208,0.457868,0.791285,-0.405242,-0.487257,-0.191569,0.3922719999999999
1209,0.460426,0.7817930000000001,-0.4204819999999999,-0.489814,-0.182077,0.407512
1210,0.458348,0.778988,-0.427893,-0.57018,-0.2952079999999999,0.384741
1211,0.4536199999999999,0.783108,-0.425403,-0.489463,-0.401425,0.373401
1212,0.4456229999999999,0.793837,-0.413811,-0.484579,-0.461684,0.355171
1213,0.433852,0.81021,-0.394119,-0.545058,-0.535826,0.255844
1214,0.416726,0.8314520000000001,-0.367455,-0.516656,-0.521501,0.17521
1215,0.393701,0.855131,-0.337264,-0.363581,-0.4598359999999999,0.100951
1216,0.365535,0.8771610000000001,-0.311399,0.0562029999999999,0.107977,0.041197
1217,0.331739,0.896957,-0.292257,0.4574149999999999,0.574158,0.080831
1218,0.3097,0.909344,-0.277804,0.401787,0.133487,0.020068
1219,0.301587,0.915968,-0.264657,0.19562,-0.237227,0.032433
1220,0.297902,0.922421,-0.245743,-0.073385,-0.265881,0.2038579999999999
1221,0.295796,0.928474,-0.22458,-0.356282,-0.218406,0.419526
1222,0.291114,0.935614,-0.199685,-0.456978,-0.2786619999999999,0.2863239999999999
1223,0.277488,0.94548,-0.170477,-0.240119,-0.178284,-0.374064
1224,0.2561239999999999,0.955031,-0.149368,-0.037023,0.163697,-0.405213
1225,0.241467,0.958043,-0.154406,0.01868,0.218714,0.46033
1226,0.239663,0.956607,-0.165707,-0.270303,0.3140989999999999,0.005734
1227,0.2389599999999999,0.955952,-0.1704369999999999,-0.251671,0.358821,0.253552
1228,0.242892,0.956426,-0.16201,0.795087,0.681895,-0.349663
1229,0.260754,0.953716,-0.149759,0.8772,0.178806,0.050683
1230,0.282188,0.947446,-0.150699,0.471596,-0.098539,0.318912
1231,0.2959719999999999,0.941981,-0.158327,-0.232786,0.067342,0.311327
1232,0.300671,0.93976,-0.1626119999999999,-0.359585,0.331221,0.548003
1233,0.291992,0.943703,-0.155434,-0.25203,0.418022,-0.017692
1234,0.272546,0.950397,-0.149859,0.157889,0.432125,-0.069684
1235,0.25544,0.956167,-0.143144,0.236366,0.0615029999999999,-0.083709
1236,0.246277,0.959273,-0.138336,0.19577,0.087815,-0.14389
1237,0.248603,0.958302,-0.1408849999999999,0.12745,0.057308,-0.614242
1238,0.2626739999999999,0.950863,-0.16388,0.067618,0.032307,-0.60649
1239,0.284674,0.934794,-0.212404,-0.074271,-0.19224,-0.41075
1240,0.313654,0.906347,-0.283112,-0.018503,0.033839,-0.133911
1241,0.3548969999999999,0.873325,-0.333687,-0.351525,0.112194,0.327065
1242,0.3897739999999999,0.840268,-0.3768579999999999,-0.4218939999999999,-0.060971,0.726025
1243,0.4225109999999999,0.808976,-0.408704,-0.09579,0.05516,0.6345649999999999
1244,0.443096,0.784486,-0.433871,0.045139,-0.0458839999999999,0.622638
1245,0.456072,0.766476,-0.452227,-0.046419,0.213337,0.66704
1246,0.460323,0.76185,-0.4557239999999999,-0.491573,0.076361,0.489202
1247,0.4612949999999999,0.765426,-0.448694,-0.343253,-0.034591,0.308008
1248,0.459888,0.7815270000000001,-0.421563,-0.225971,-0.075945,0.2232289999999999
1249,0.453977,0.808742,-0.373948,-0.087461,-0.081065,0.0677649999999999
1250,0.43295,0.843835,-0.317007,0.13068,-0.064507,-0.210871
1251,0.3956179999999999,0.880592,-0.260844,0.070492,-0.207817,-0.236425
1252,0.359241,0.909733,-0.208151,-0.037601,-0.226856,-0.267602
1253,0.326581,0.929849,-0.169473,-0.0307589999999999,0.136634,0.226663
1254,0.297073,0.943148,-0.149045,0.361023,-0.02733,0.227658
1255,0.289383,0.94715,-0.138417,0.710739,-0.300131,0.232365
1256,0.300135,0.944542,-0.133243,-0.649943,-0.804298,-0.957119
1257,0.2944219999999999,0.946646,-0.131041,-0.522282,-0.656515,-0.375184
1258,0.2884199999999999,0.945719,-0.149747,-0.000197,0.490942,0.772839
1259,0.294375,0.945177,-0.141346,0.990415,2.167464,0.193332
1260,0.311346,0.94156,-0.12854,-0.016943,0.247558,-0.469284
1261,0.325329,0.936949,-0.127599,-0.045086,0.143236,0.001531
1262,0.332892,0.933708,-0.1317809999999999,0.120675,0.463463,-0.043909
1263,0.329909,0.932307,-0.1481819999999999,-0.16313,0.338674,0.132603
1264,0.31961,0.933241,-0.164024,-0.0248259999999999,0.5598770000000001,-0.221917
1265,0.307667,0.934713,-0.177894,0.2340199999999999,0.277323,-0.310708
1266,0.304058,0.932169,-0.1964769999999999,0.0252419999999999,-0.038294,-0.338969
1267,0.313125,0.924256,-0.2183989999999999,-0.035858,-0.219926,-0.35083
1268,0.333813,0.908163,-0.252594,-0.2760579999999999,-0.2387139999999999,-0.144699
1269,0.359911,0.881217,-0.306459,-0.367998,-0.178153,0.1874859999999999
1270,0.386715,0.849095,-0.35984,-0.4354659999999999,-0.19782,0.403037
1271,0.402075,0.8224610000000001,-0.402355,-0.318655,-0.232816,0.606106
1272,0.415888,0.798426,-0.435374,-0.2240849999999999,-0.2427,0.739024
1273,0.439422,0.7767189999999999,-0.451234,-0.070053,0.713683,0.601671
1274,0.4551779999999999,0.763474,-0.458167,-0.316689,0.654754,0.481452
1275,0.45953,0.760001,-0.4595939999999999,-0.419033,0.144479,0.488662
1276,0.460711,0.765267,-0.449564,-0.288088,0.013556,0.280405
1277,0.457629,0.784431,-0.418616,-0.073337,0.016106,0.086386
1278,0.443877,0.81786,-0.366162,0.100877,-0.001972,-0.022068
1279,0.412761,0.859083,-0.302656,0.419301,-0.127943,-0.117449
1280,0.3678889999999999,0.8970299999999999,-0.2449309999999999,0.420792,-0.3613699999999999,-0.100421
1281,0.329729,0.923627,-0.195415,0.4446239999999999,-0.498853,-0.194173
1282,0.302969,0.939125,-0.162015,0.2455389999999999,-0.622185,0.014584
1283,0.290189,0.945079,-0.150371,0.160098,-0.720302,0.289394
1284,0.290512,0.944313,-0.154504,0.021546,-0.81353,-0.2393559999999999
1285,0.2886039999999999,0.942289,-0.169688,-0.365294,0.439775,-0.200719
1286,0.289197,0.941742,-0.171702,-0.130338,1.121826,0.8842270000000001
1287,0.301184,0.939805,-0.161401,0.2276699999999999,0.955474,0.549463
1288,0.317656,0.935915,-0.152162,0.190584,0.453947,0.003907
1289,0.3309829999999999,0.932388,-0.145254,0.317165,0.313828,-0.192346
1290,0.338633,0.929323,-0.147245,0.309514,0.316893,-0.190356
1291,0.330096,0.929407,-0.165028,-0.030047,0.437872,0.145207
1292,0.312194,0.93309,-0.178529,0.101228,0.4964439999999999,-0.363707
1293,0.295963,0.935577,-0.192603,0.117459,0.493957,-0.3496329999999999
1294,0.2958469999999999,0.930605,-0.215511,0.030523,-0.088228,-0.556843
1295,0.3169119999999999,0.91511,-0.249272,-0.390261,-0.1081329999999999,-0.304637
1296,0.349667,0.8874,-0.300417,-0.423016,-0.080423,-0.253492
1297,0.383175,0.852686,-0.355105,-0.60458,-0.232248,0.65195
1298,0.4116149999999999,0.818295,-0.401202,-0.412912,-0.722012,0.766955
1299,0.4306859999999999,0.79209,-0.432551,-0.253821,-0.672903,0.561335
1300,0.45492,0.776514,-0.435971,0.19837,0.2074489999999999,0.248792
1301,0.470821,0.7686029999999999,-0.4330989999999999,0.099156,0.943403,0.962793
1302,0.471071,0.77125,-0.428091,-0.463289,0.29569,0.607122
1303,0.4665,0.780267,-0.416602,-0.309747,-0.099694,0.396919
1304,0.4579229999999999,0.8022779999999999,-0.382953,-0.152884,0.056776,0.040408
1305,0.436031,0.8368200000000001,-0.331068,0.1932559999999999,0.010592,-0.1195089999999999
1306,0.3991909999999999,0.8752280000000001,-0.273163,0.539926,-0.134429,-0.105118
1307,0.35886,0.907205,-0.21953,0.555248,-0.399484,-0.162687
1308,0.328665,0.927548,-0.177849,0.22616,-0.76759,0.062721
1309,0.308699,0.938017,-0.157556,0.094591,-1.062636,0.267648
1310,0.298871,0.942153,-0.151722,-0.195508,-0.61241,-1.236889
1311,0.294743,0.940845,-0.167134,-0.176792,-0.058169,0.114522
1312,0.289826,0.945345,-0.149394,-0.013856,1.931547,0.773158
1313,0.284547,0.948819,-0.137006,0.03186,2.269427,-0.921618
1314,0.295431,0.945691,-0.1355849999999999,0.393411,0.461215,-0.317738
1315,0.312859,0.937743,-0.15084,-0.32653,0.057481,0.258826
1316,0.317311,0.933693,-0.1659119999999999,-0.26508,-0.228066,0.177752
1317,0.306145,0.934399,-0.182126,-0.2422409999999999,0.128956,0.233288
1318,0.287011,0.937165,-0.198349,0.385413,0.590179,-0.52864
1319,0.294722,0.927431,-0.230232,0.536149,-0.04851,-0.61393
1320,0.337273,0.8991020000000001,-0.279031,-0.0915,0.120582,-0.4625609999999999
1321,0.378,0.860727,-0.340974,-0.928918,0.059134,0.689377
1322,0.4135189999999999,0.822691,-0.390101,-0.839606,-0.380888,0.6929420000000001
1323,0.439928,0.795349,-0.4169899999999999,-0.796343,-0.582046,0.8982829999999999
1324,0.459129,0.7774310000000001,-0.429883,0.35154,-0.269313,0.268201
1325,0.472366,0.766263,-0.435556,0.176819,0.757571,0.682031
1326,0.473103,0.768274,-0.431192,-0.059315,0.869589,0.639169
1327,0.4543609999999999,0.778558,-0.4328979999999999,-0.274688,0.109946,0.285575
1328,0.4325489999999999,0.796854,-0.421809,-0.118417,0.037237,0.061076
1329,0.408194,0.8255389999999999,-0.3896929999999999,-0.040503,-0.0416329999999999,-0.092835
1330,0.378229,0.861416,-0.338973,0.422125,-0.0619929999999999,-0.168657
1331,0.34355,0.896776,-0.278861,0.584962,0.054412,-0.092996
1332,0.315044,0.922784,-0.22184,0.36266,-0.403604,0.1925589999999999
1333,0.298008,0.936652,-0.18404,0.363094,-0.550284,0.2802159999999999
1334,0.289584,0.942542,-0.166588,0.253659,-1.064597,-0.509193
1335,0.281172,0.944337,-0.1707779999999999,-0.692351,-0.563554,-0.617506
1336,0.2585389999999999,0.946485,-0.193185,-0.44726,0.759234,0.319787
1337,0.235919,0.952676,-0.191692,-0.416538,1.992102,-0.114629
1338,0.234051,0.951982,-0.197347,0.100132,1.055586,-0.4366859999999999
1339,0.2399659999999999,0.952873,-0.185593,-0.029654,-0.38073,0.35965
1340,0.2412099999999999,0.955592,-0.169287,0.8328559999999999,0.886175,-0.231607
1341,0.2439599999999999,0.956656,-0.159025,1.087446,0.261575,-0.31267
1342,0.2361329999999999,0.956362,-0.172073,0.04823,0.137327,0.107956
1343,0.2146489999999999,0.958349,-0.188386,0.04591,0.403559,0.2435469999999999
1344,0.187926,0.961149,-0.202171,-0.103667,0.3518699999999999,0.158104
1345,0.162384,0.963223,-0.214077,0.063201,0.023089,-0.084675
1346,0.140335,0.963775,-0.226806,0.572724,-0.075042,-0.202195
1347,0.124956,0.962576,-0.24048,0.665479,-0.22254,-0.180632
1348,0.118697,0.957818,-0.261711,0.570405,-0.344507,-0.1829609999999999
1349,0.118093,0.947943,-0.295728,0.4099069999999999,-0.335532,0.079709
1350,0.125001,0.933129,-0.337109,0.335189,-0.207482,0.379498
1351,0.144518,0.91624,-0.373653,0.342512,0.203221,0.5230520000000001
1352,0.173825,0.899699,-0.400405,-0.010785,0.707112,0.718352
1353,0.211253,0.885387,-0.414078,-0.4449869999999999,1.086614,0.6987
1354,0.251159,0.878533,-0.406321,-0.115844,0.869346,-0.003973
1355,0.292386,0.873749,-0.388678,0.383517,1.126098,0.4
1356,0.339341,0.869226,-0.359571,0.336562,1.130621,0.370893
1357,0.380723,0.864952,-0.326962,0.458632,0.523918,-0.011356
1358,0.407364,0.857292,-0.314805,0.2259219999999999,0.386162,0.257386
1359,0.423484,0.849775,-0.3139119999999999,-0.056845,0.357241,0.313759
1360,0.429943,0.846592,-0.313731,-0.555385,0.077785,0.384486
1361,0.432899,0.845023,-0.313896,-0.565619,-0.0822519999999999,0.452492
1362,0.4297109999999999,0.8459030000000001,-0.315901,-0.543297,-0.175432,0.489271
1363,0.4208409999999999,0.851369,-0.3131469999999999,-0.538563,-0.353169,0.351126
1364,0.404558,0.860851,-0.30865,-0.62845,-0.466564,0.366954
1365,0.376769,0.873591,-0.308028,-0.647704,-0.470316,0.242553
1366,0.339506,0.8855200000000001,-0.317155,-0.213682,-0.292975,-0.1410819999999999
1367,0.297513,0.89354,-0.336258,0.6757989999999999,-0.015137,0.154815
1368,0.268491,0.8988290000000001,-0.346435,1.044742,0.12113,0.404449
1369,0.257996,0.903684,-0.3417469999999999,0.445694,0.188342,-0.018101
1370,0.252627,0.904802,-0.342796,-0.092562,0.102323,-0.129814
1371,0.2462489999999999,0.903192,-0.35157,-0.347232,-0.271356,0.327049
1372,0.243312,0.90171,-0.3573719999999999,-0.136791,-0.590919,0.985409
1373,0.246215,0.907201,-0.341118,-0.301451,-0.0181479999999999,0.891381
1374,0.236959,0.923125,-0.3028,0.442134,1.768175,-0.960887
1375,0.228353,0.923895,-0.307035,0.177348,0.6333409999999999,0.274442
1376,0.228923,0.917663,-0.324787,-0.541285,-0.282851,0.688312
1377,0.217489,0.916042,-0.336991,-0.874243,-0.540996,0.424058
1378,0.200284,0.922755,-0.32925,-0.693632,-0.380687,0.7830159999999999
1379,0.172549,0.93457,-0.311132,-0.393038,-0.043426,0.6859029999999999
1380,0.125401,0.945089,-0.301791,0.349284,0.852366,0.327136
1381,0.0798,0.950453,-0.3004449999999999,0.809619,0.657716,0.085037
1382,0.044581,0.953791,-0.297139,0.224233,-0.1615849999999999,0.466801
1383,0.017943,0.958222,-0.285455,0.086778,-0.153077,0.650048
1384,0.004958,0.964429,-0.264287,-0.150161,-0.07266,0.356023
1385,-0.007988,0.970995,-0.238959,0.038964,0.025633,0.16004
1386,-0.02638,0.976406,-0.2143139999999999,0.297589,-0.035168,0.148412
1387,-0.046652,0.980264,-0.192097,0.287619,-0.087564,0.007497
1388,-0.06749,0.982606,-0.172988,0.166946,-0.1163039999999999,-0.050752
1389,-0.0874559999999999,0.983552,-0.158022,0.066719,-0.051545,0.016863
1390,-0.106173,0.98344,-0.146856,0.1095759999999999,-0.0751,0.154318
1391,-0.1232289999999999,0.982935,-0.1365549999999999,0.081816,-0.101725,0.216923
1392,-0.139461,0.982076,-0.126774,0.060939,-0.079,0.19286
1393,-0.1565869999999999,0.980872,-0.1156089999999999,0.11406,-0.035743,0.190789
1394,-0.175473,0.97908,-0.102989,0.406995,0.147767,0.1751319999999999
1395,-0.193528,0.976952,-0.090034,0.488297,0.191994,0.096488
1396,-0.207621,0.975292,-0.075457,0.547419,0.2045789999999999,0.008592
1397,-0.216776,0.974245,-0.062034,0.535242,0.2246989999999999,-0.321527
1398,-0.223584,0.973173,-0.05421,0.54205,0.225771,-0.32935
1399,-0.229746,0.971765,-0.0537039999999999,0.786814,0.0584929999999999,-0.062904
1400,-0.232587,0.970325,-0.066092,0.710492,0.322141,-0.117089
1401,-0.2228949999999999,0.970045,-0.09657,0.7037,0.253527,0.001782
1402,-0.1998839999999999,0.970313,-0.136142,0.557489,0.157586,0.141589
1403,-0.168238,0.9686,-0.183043,0.384333,0.28761,0.186965
1404,-0.126571,0.964176,-0.2331079999999999,0.255569,0.191341,0.342757
1405,-0.071652,0.959349,-0.272967,0.158002,0.607362,0.559466
1406,-0.012198,0.954213,-0.298873,0.169654,0.6749069999999999,0.4652239999999999
1407,0.039393,0.949229,-0.312102,0.284582,0.461705,0.378325
1408,0.078276,0.944212,-0.319893,0.36928,0.257768,0.466484
1409,0.112918,0.939102,-0.324549,0.351056,0.240814,0.4872229999999999
1410,0.149644,0.933663,-0.325386,0.320861,0.21598,0.5224989999999999
1411,0.191297,0.927599,-0.320876,0.118396,0.323713,0.4360949999999999
1412,0.23359,0.91946,-0.316265,-0.018655,0.2888219999999999,0.5292319999999999
1413,0.267411,0.909985,-0.3168809999999999,-0.1188819999999999,0.2223239999999999,0.564516
1414,0.292302,0.903486,-0.313478,-0.214132,-0.0745059999999999,0.559435
1415,0.308107,0.900365,-0.30726,-0.251787,-0.217488,0.572198
1416,0.315231,0.900547,-0.299401,-0.254195,-0.220798,0.551873
1417,0.312066,0.904871,-0.289515,-0.413354,-0.2401219999999999,0.54928
1418,0.299808,0.913291,-0.2756989999999999,-0.537799,-0.169746,0.4774199999999999
1419,0.2807989999999999,0.925474,-0.254254,-0.592169,-0.136061,0.399701
1420,0.259393,0.939298,-0.224567,-0.637322,0.01485,0.058384
1421,0.233327,0.952579,-0.1953109999999999,-0.0010119999999999,0.306698,-0.562654
1422,0.203422,0.962056,-0.181828,0.393762,0.303569,-0.580028
1423,0.185866,0.964892,-0.185555,0.6148239999999999,0.191846,-0.3723059999999999
1424,0.186478,0.964824,-0.185298,0.3138579999999999,-0.353023,0.564341
1425,0.1981619999999999,0.964628,-0.173837,0.344394,-0.4953439999999999,0.8892909999999999
1426,0.2170699999999999,0.963333,-0.157688,0.068682,-0.616256,0.908969
1427,0.228935,0.964852,-0.129014,-0.174767,-0.049355,0.531679
1428,0.226769,0.968791,-0.100077,0.706398,1.338735,-0.824987
1429,0.216313,0.971466,-0.097254,0.370129,0.8078770000000001,-0.528768
1430,0.203709,0.972746,-0.110744,-0.5629930000000001,-0.067777,0.276363
1431,0.186656,0.975801,-0.113878,-0.939555,-0.391206,0.5376449999999999
1432,0.173816,0.979827,-0.098602,-0.861941,-0.258636,0.409179
1433,0.157392,0.983829,-0.085463,-0.431958,0.180249,0.2011099999999999
1434,0.135656,0.987786,-0.076625,0.403681,0.315619,-0.0147139999999999
1435,0.120995,0.990507,-0.065209,0.969749,-0.127103,-0.022742
1436,0.117891,0.991602,-0.0531279999999999,0.266996,-0.054255,0.117963
1437,0.11725,0.992081,-0.044978,0.0096879999999999,0.001464,0.15536
1438,0.1176059999999999,0.99254,-0.0320639999999999,-0.054755,-0.084475,0.012716
1439,0.115881,0.993118,-0.016876,-0.022299,-0.073241,-0.183518
1440,0.111706,0.993738,-0.001704,0.165179,-0.033243,-0.252721
1441,0.106727,0.994231,0.010498,0.048699,-0.136778,-0.146805
1442,0.0987799999999999,0.994958,0.017241,0.101797,-0.229913,-0.109724
1443,0.088594,0.995905,0.017921,0.143035,-0.2351469999999999,-0.071616
1444,0.078226,0.996796,0.01659,0.235663,-0.184479,-0.145756
1445,0.070518,0.99737,0.016662,0.192834,-0.15452,-0.135711
1446,0.066451,0.997683,0.014426,0.175736,-0.122531,-0.111289
1447,0.065797,0.997785,0.0096099999999999,0.232314,-0.067594,-0.16612
1448,0.072275,0.99738,-0.002361,0.488562,-0.193959,-0.535374
1449,0.091917,0.995189,-0.03386,0.415789,-0.251873,-0.494872
1450,0.1289269999999999,0.987686,-0.0886059999999999,0.3588659999999999,-0.214478,-0.492296
1451,0.178272,0.971603,-0.155578,-0.213001,-0.055297,0.013961
1452,0.231812,0.947244,-0.221333,-0.449601,-0.136972,0.843189
1453,0.287201,0.917632,-0.274708,-0.378631,0.085069,0.128025
1454,0.330383,0.891366,-0.310339,0.247757,0.194419,0.205389
1455,0.352234,0.870658,-0.343341,0.29335,0.299661,0.428546
1456,0.370121,0.855194,-0.362836,-0.6697270000000001,0.520752,0.309903
1457,0.379116,0.849562,-0.366759,-0.672603,0.2023329999999999,0.1910089999999999
1458,0.3856739999999999,0.8501280000000001,-0.358517,-0.5110859999999999,0.111953,0.136242
1459,0.3865679999999999,0.860591,-0.33158,-0.049776,-0.245952,0.090522
1460,0.376267,0.88107,-0.286592,0.136581,-0.321866,-0.037169
1461,0.347506,0.908509,-0.23205,0.192274,-0.380082,-0.0700279999999999
1462,0.301717,0.93715,-0.175253,0.1960859999999999,-0.6089479999999999,0.0218569999999999
1463,0.248268,0.961484,-0.1179279999999999,0.28756,-0.649061,-0.048576
1464,0.202413,0.977655,-0.056713,0.384166,-0.657968,-0.140415
1465,0.171094,0.985112,-0.01664,0.438739,-0.468251,0.246544
1466,0.160983,0.986954,-0.001157,0.659299,-0.4376069999999999,-0.155322
1467,0.175775,0.984337,-0.013437,0.587501,0.140785,-1.30007
1468,0.188374,0.982013,-0.012716,-0.406605,1.728436,-0.223932
1469,0.1975,0.980287,-0.0052299999999999,-0.231482,-0.148988,0.442958
1470,0.214444,0.976691,-0.00924,-0.201596,0.380075,-0.187309
1471,0.227258,0.973829,-0.002574,0.180731,0.702929,-0.193349
1472,0.2299119999999999,0.9732,0.004297,0.434684,0.0539759999999999,-0.12562
1473,0.231048,0.972926,-0.005376,0.194581,0.703023,-0.368312
1474,0.234509,0.971688,-0.028717,0.190006,0.4386819999999999,-0.805085
1475,0.250317,0.96555,-0.071079,0.062778,0.172603,-0.7194020000000001
1476,0.282215,0.949995,-0.133644,-0.304203,0.12813,-0.442009
1477,0.316392,0.925528,-0.2080659999999999,-0.875566,-0.174033,0.3554199999999999
1478,0.339735,0.8988709999999999,-0.276785,-0.760954,-0.533972,0.527014
1479,0.351504,0.880027,-0.319368,-0.660876,-0.697715,0.6351640000000001
1480,0.37137,0.8700899999999999,-0.324078,0.140165,-0.871341,0.583218
1481,0.394016,0.864183,-0.312948,0.447979,0.306273,0.545676
1482,0.391578,0.8714569999999999,-0.295342,0.172433,0.6304649999999999,0.8522270000000001
1483,0.37473,0.8849799999999999,-0.276381,-0.202275,-0.327759,0.548979
1484,0.350238,0.90384,-0.245773,-0.1095609999999999,-0.261079,0.2263949999999999
1485,0.315183,0.928805,-0.194882,0.064028,-0.287402,0.0320709999999999
1486,0.265203,0.95527,-0.13086,0.456522,0.13227,-0.608047
1487,0.221536,0.972273,-0.074866,1.11666,0.099382,-0.567285
1488,0.209069,0.977022,-0.041423,1.005485,-0.351641,-0.061482
1489,0.227277,0.972826,-0.044185,0.137515,-0.916918,-0.83405
1490,0.238034,0.969094,-0.064758,-1.200452,-0.177804,-0.891358
1491,0.228338,0.972207,-0.0516919999999999,-1.033041,0.412879,0.069423
1492,0.22064,0.974663,-0.03669,-0.4134199999999999,1.36486,-0.333153
1493,0.229769,0.972498,-0.038092,2.15138,1.61495,-0.6494840000000001
1494,0.259226,0.964817,-0.043899,1.416906,0.098156,0.071746
1495,0.271883,0.960906,-0.052296,-0.213824,-0.484618,0.026143
1496,0.266406,0.962368,-0.053598,0.045179,0.596867,0.1449369999999999
1497,0.2452659999999999,0.968048,-0.052196,0.215443,1.006638,-0.463902
1498,0.232411,0.970255,-0.067721,0.4695539999999999,-0.042201,-0.4764529999999999
1499,0.244744,0.964823,-0.095983,0.11309,-0.0929059999999999,-0.942958
1500,0.27389,0.952561,-0.132699,-0.311671,0.119781,-0.5344760000000001
1501,0.309781,0.932965,-0.183327,-0.603925,0.056476,0.117348
1502,0.347145,0.908642,-0.232069,-0.6395489999999999,-0.066601,0.275831
1503,0.377325,0.8839049999999999,-0.276288,-0.56481,-0.223886,0.461743
1504,0.397498,0.8629979999999999,-0.311813,-0.290686,-0.824851,0.564437
1505,0.412341,0.850001,-0.327827,0.180646,-0.036463,0.355842
1506,0.41808,0.846044,-0.330783,0.090526,0.586558,0.532931
1507,0.405819,0.8549540000000001,-0.323053,-0.6289779999999999,0.404446,0.507165
1508,0.384774,0.868324,-0.312986,-0.141442,0.037499,0.253874
1509,0.364652,0.887964,-0.28026,-0.08978,-0.001642,0.050997
1510,0.338515,0.91381,-0.2244,0.135957,-0.221336,-0.171078
1511,0.300114,0.941074,-0.155907,0.451702,-0.136905,-0.569435
1512,0.257113,0.961108,-0.100799,0.664259,-0.337786,-0.570267
1513,0.2285829999999999,0.971413,-0.064045,0.809763,-0.884682,0.1710549999999999
1514,0.225991,0.972665,-0.053345,1.015708,-1.1778959999999998,0.21553
1515,0.247888,0.966767,-0.0625179999999999,-0.161371,-0.689087,-1.032163
1516,0.255757,0.964432,-0.066738,-0.478047,0.21022,-0.078678
1517,0.257331,0.964133,-0.06498,-0.393684,1.139367,1.256203
1518,0.2635949999999999,0.96285,-0.0585799999999999,0.221344,1.973109,-1.353926
1519,0.27714,0.959277,-0.054558,0.4655359999999999,0.420881,-0.1736069999999999
1520,0.295609,0.953628,-0.0566039999999999,0.157592,0.1726079999999999,0.1168609999999999
1521,0.3013369999999999,0.951657,-0.059487,0.085244,-0.4081849999999999,-0.005011
1522,0.293005,0.953801,-0.0663769999999999,-0.0479189999999999,0.270992,-0.131179
1523,0.274556,0.958562,-0.075972,0.302302,0.604853,-0.485903
1524,0.271047,0.957134,-0.1020929999999999,0.401117,0.512166,-0.588214
1525,0.293175,0.945397,-0.142364,0.148338,0.01461,-0.611192
1526,0.327708,0.924351,-0.195393,-0.295039,0.059139,-0.104
1527,0.362929,0.8979090000000001,-0.249074,-0.540435,0.0621899999999999,0.212758
1528,0.392326,0.8720700000000001,-0.2925239999999999,-0.487693,-0.333679,0.678419
1529,0.415749,0.8508389999999999,-0.32128,-0.272057,-0.472894,0.482382
1530,0.429539,0.8364879999999999,-0.340264,0.148769,0.13864,0.168938
1531,0.435493,0.8298049999999999,-0.348947,-0.117165,0.7732829999999999,0.410562
1532,0.429465,0.830543,-0.354618,-0.250297,0.072381,0.359745
1533,0.4168189999999999,0.8360290000000001,-0.356809,-0.262797,-0.047409,0.306012
1534,0.400336,0.8488629999999999,-0.345194,-0.1881779999999999,-0.0709549999999999,0.174204
1535,0.376248,0.8693270000000001,-0.320476,0.113117,-0.280994,-0.214161
1536,0.345823,0.895913,-0.278823,0.240359,-0.376336,-0.250672
1537,0.308801,0.924182,-0.22478,0.385214,-0.423342,-0.304365
1538,0.268502,0.948153,-0.170022,0.6764899999999999,-0.041217,-0.130973
1539,0.242386,0.962434,-0.1223279999999999,0.5823520000000001,-0.138735,-0.162416
1540,0.231046,0.968463,-0.093236,0.233417,-0.680819,0.270909
1541,0.228964,0.970471,-0.075871,-0.229727,-1.105572,-0.171458
1542,0.225273,0.971993,-0.066901,-0.708549,-0.741677,-0.872094
1543,0.21609,0.973032,-0.080671,-0.34695,0.6483359999999999,0.275388
1544,0.212836,0.975104,-0.0621909999999999,0.3720179999999999,2.087381,0.148617
1545,0.221884,0.973775,-0.050241,1.107446,1.554286,-0.67005
1546,0.253393,0.966416,-0.0427339999999999,0.251825,-0.133957,-0.316931
1547,0.276106,0.960115,-0.04402,-0.228423,-0.0454269999999999,0.148009
1548,0.27774,0.959586,-0.045269,-0.1841269999999999,-0.092078,0.304821
1549,0.256425,0.965801,-0.038316,0.126006,0.7096600000000001,-0.114729
1550,0.2199239999999999,0.975088,-0.02881,0.6940470000000001,0.755625,-0.4087659999999999
1551,0.194666,0.980463,-0.0281079999999999,0.761709,0.231283,-0.296629
1552,0.18363,0.982559,-0.0291829999999999,0.222162,-0.1236869999999999,-0.697822
1553,0.185032,0.982131,-0.034285,0.250866,-0.199309,-0.760133
1554,0.2041069999999999,0.977091,-0.06023,0.291667,-0.073877,-0.6936770000000001
1555,0.234213,0.966165,-0.107994,-0.244772,-0.127573,0.00196
1556,0.261981,0.951046,-0.163925,-0.3780239999999999,-0.2469599999999999,0.1977539999999999
1557,0.281167,0.935494,-0.213988,-0.43525,-0.420952,0.335875
1558,0.292297,0.92217,-0.253296,-0.3320619999999999,-0.6133930000000001,0.410827
1559,0.300221,0.911606,-0.280779,0.113384,0.169189,0.35074
1560,0.313548,0.902551,-0.295099,-0.022029,1.083869,0.158106
1561,0.31351,0.900206,-0.30222,-0.005358,0.369677,0.049885
1562,0.3170409999999999,0.8992870000000001,-0.30127,-0.167001,0.054998,-0.080505
1563,0.3244039999999999,0.902134,-0.284451,-0.19121,-0.108524,-0.131367
1564,0.326472,0.909971,-0.255666,-0.2106579999999999,-0.408307,-0.034404
1565,0.3206699999999999,0.919656,-0.226713,-0.140479,-0.494225,-0.064776
1566,0.305911,0.930064,-0.203453,-0.150821,-0.494029,-0.135674
1567,0.279116,0.94244,-0.184108,0.051496,-0.379101,-0.5465899999999999
1568,0.2418159999999999,0.955758,-0.167469,0.568044,0.141959,-1.321758
1569,0.204597,0.965778,-0.1594,0.927239,0.430341,-1.398339
1570,0.184632,0.969376,-0.161911,1.151519,0.5023489999999999,-1.171661
1571,0.188224,0.969353,-0.157867,-0.166999,0.121895,-0.25235
1572,0.209815,0.965031,-0.157122,-0.18859,0.126217,-0.2530949999999999
1573,0.2270869999999999,0.95819,-0.174065,0.393503,-0.7759229999999999,0.784508
1574,0.2340449999999999,0.961986,-0.140717,-0.246634,0.698018,0.418091
1575,0.2270039999999999,0.967885,-0.10799,-0.6518550000000001,1.771205,-0.167767
1576,0.2226139999999999,0.9693,-0.10438,-0.696125,0.4694359999999999,0.603693
1577,0.216795,0.971573,-0.095077,-0.790266,0.232742,0.8876649999999999
1578,0.201212,0.975991,-0.083361,-0.933344,-0.0702909999999999,0.8561120000000001
1579,0.177993,0.982785,-0.049463,-0.547057,0.453296,0.469659
1580,0.150862,0.988544,-0.003899,0.164171,0.443463,0.254693
1581,0.1295589999999999,0.990799,0.03906,0.2278469999999999,0.200195,0.182894
1582,0.1113619999999999,0.990805,0.076797,0.072827,-0.003531,0.201157
1583,0.090645,0.989643,0.1112799999999999,-0.032921,-0.1244849999999999,0.069461
1584,0.063348,0.987926,0.141354,0.044455,-0.145351,-0.037152
1585,0.0327579999999999,0.985162,0.168448,0.2430139999999999,-0.242227,-0.138601
1586,0.008086,0.981637,0.190565,0.267656,-0.348916,-0.14726
1587,-0.012033,0.978456,0.206083,0.205621,-0.345918,-0.221448
1588,-0.029336,0.975558,0.217755,0.121896,-0.055011,-0.302304
1589,-0.047035,0.973198,0.22509,0.204536,-0.018013,-0.268776
1590,-0.06855,0.971127,0.228483,0.237862,-0.02908,-0.273619
1591,-0.09362,0.968717,0.229816,0.31916,0.16199,-0.343173
1592,-0.122103,0.965837,0.228565,0.566042,0.267714,-0.431507
1593,-0.152126,0.963114,0.2219469999999999,0.777721,0.2863969999999999,-0.380456
1594,-0.174503,0.961795,0.210929,1.346332,-0.005313,-0.173316
1595,-0.178495,0.962499,0.204272,1.546034,-0.060263,-0.407565
1596,-0.1726369999999999,0.966658,0.189106,1.506301,0.211198,-0.466434
1597,-0.162751,0.974247,0.156039,0.67006,0.36163,-0.153811
1598,-0.136963,0.984139,0.1127089999999999,0.6108859999999999,0.050926,-0.494301
1599,-0.089169,0.993364,0.07259,0.449917,-0.085252,-0.47173
1600,-0.021736,0.999455,0.024685,0.030541,0.735484,0.035038
1601,0.049179,0.998718,-0.0117069999999999,-0.336746,1.256699,0.514347
1602,0.10876,0.993409,-0.036092,-0.36845,1.315322,0.001348
1603,0.165002,0.984757,-0.054959,-0.077432,0.757659,-0.626452
1604,0.2148139999999999,0.973634,-0.076721,-0.06981,0.45201,-0.2635659999999999
1605,0.258206,0.96128,-0.096252,-0.017986,0.265924,0.138
1606,0.3073369999999999,0.94578,-0.105057,0.039556,-0.034251,0.1148839999999999
1607,0.359902,0.925097,-0.121077,-0.460671,-0.272296,0.148466
1608,0.400433,0.902829,-0.156676,-0.3282739999999999,-0.188275,0.06314
1609,0.428147,0.886433,-0.175843,-0.183885,-0.255985,0.066636
1610,0.447817,0.8726139999999999,-0.194934,-0.319246,-0.448984,0.2452119999999999
1611,0.4596229999999999,0.860943,-0.217987,-0.419904,-0.4423479999999999,0.367401
1612,0.4653029999999999,0.85146,-0.241876,-0.4582229999999999,-0.387486,0.388101
1613,0.460175,0.847728,-0.263799,-0.660447,-0.50175,0.4704489999999999
1614,0.4478789999999999,0.8500270000000001,-0.277223,-0.71796,-0.676321,0.424272
1615,0.429721,0.8599540000000001,-0.275341,-0.774234,-0.838882,0.3603929999999999
1616,0.400956,0.8796870000000001,-0.255692,-0.200745,-0.42026,-0.388488
1617,0.36203,0.901761,-0.236123,0.161941,0.006182,-0.608268
1618,0.326912,0.916954,-0.228729,0.96389,0.895241,-0.700897
1619,0.340532,0.912962,-0.224791,0.397734,-0.005186,-0.954881
1620,0.3634179999999999,0.903155,-0.228541,0.031052,-0.615344,-0.74645
1621,0.380176,0.894733,-0.234335,-0.462268,-0.5851930000000001,0.37789
1622,0.383196,0.899329,-0.210621,-0.4833699999999999,0.326959,1.136113
1623,0.361125,0.912709,-0.191164,-0.724513,0.674678,-0.54167
1624,0.367575,0.906053,-0.209644,0.191904,1.135039,-0.340862
1625,0.36035,0.910524,-0.202701,-0.6119060000000001,-0.272798,0.4625579999999999
1626,0.334477,0.92393,-0.185666,-0.6162920000000001,-0.13769,0.69122
1627,0.301438,0.941373,-0.151476,-0.6822819999999999,0.0286279999999999,0.704256
1628,0.264862,0.956577,-0.1216599999999999,-0.011963,0.377255,0.286669
1629,0.2309369999999999,0.967755,-0.100547,0.3346909999999999,0.518405,0.214317
1630,0.202324,0.976383,-0.075721,0.234154,-0.0487089999999999,0.178672
1631,0.179734,0.982461,-0.049569,-0.146256,-0.137811,0.1799089999999999
1632,0.16255,0.986495,-0.01991,-0.356413,-0.127028,0.152158
1633,0.145422,0.989317,0.009775,-0.349081,-0.169706,0.117209
1634,0.125688,0.991226,0.040797,-0.1645829999999999,-0.1529839999999999,0.007696
1635,0.1024829999999999,0.99217,0.071314,-0.046193,-0.163572,-0.077982
1636,0.07892,0.992129,0.097176,0.1807089999999999,-0.099032,-0.140404
1637,0.056385,0.991526,0.116992,0.14677,-0.163676,-0.1434359999999999
1638,0.037418,0.990665,0.131048,0.140942,-0.20238,-0.115149
1639,0.019722,0.989746,0.141432,0.1605,-0.136597,-0.056227
1640,0.00116,0.988426,0.151666,0.2057949999999999,-0.033394,-0.094537
1641,-0.018059,0.986628,0.161957,0.28225,-0.001352,-0.062851
1642,-0.040585,0.984199,0.172325,0.285809,-0.002829,-0.0902169999999999
1643,-0.066685,0.980906,0.182661,0.293584,0.089864,-0.116194
1644,-0.094565,0.976645,0.1929,0.339499,0.183664,-0.1650839999999999
1645,-0.119575,0.971969,0.202406,0.407508,0.177018,-0.2058239999999999
1646,-0.1418,0.968263,0.205787,0.5304409999999999,0.151716,-0.085487
1647,-0.161314,0.965463,0.204569,0.6582319999999999,0.1681119999999999,-0.081309
1648,-0.173758,0.963124,0.2054,0.84426,0.279719,-0.23192
1649,-0.181863,0.963404,0.196894,0.549844,0.255407,-0.233882
1650,-0.182609,0.968157,0.171217,0.586815,0.25955,-0.186857
1651,-0.166467,0.976267,0.138496,0.7106100000000001,0.095037,-0.353309
1652,-0.126874,0.986774,0.100844,0.373319,0.047588,-0.525572
1653,-0.069904,0.995909,0.057177,0.212055,0.211809,-0.347903
1654,-0.004716,0.999947,0.008603,-0.339461,0.8201510000000001,-0.142484
1655,0.055353,0.998141,-0.025336,-0.722467,0.92149,0.34841
1656,0.107102,0.992948,-0.050763,-0.5855560000000001,0.749866,0.204663
1657,0.157449,0.984795,-0.073358,0.1232369999999999,0.419029,-0.503486
1658,0.2082449999999999,0.973273,-0.0967809999999999,0.127265,0.144891,-0.097707
1659,0.255667,0.958588,-0.12544,-0.159903,0.149367,0.186124
1660,0.296003,0.944748,-0.140802,-0.055082,0.145217,0.345651
1661,0.332822,0.93199,-0.143588,-0.2616699999999999,-0.087339,-0.098492
1662,0.3622599999999999,0.918203,-0.1602,-0.228867,-0.11495,-0.008013
1663,0.388321,0.903312,-0.182282,-0.4558569999999999,-0.232368,0.164688
1664,0.410074,0.888819,-0.204531,-0.516275,-0.257411,0.303789
1665,0.4257149999999999,0.877517,-0.220737,-0.5557810000000001,-0.283752,0.333545
1666,0.43554,0.870469,-0.229309,-0.6297229999999999,-0.414369,0.322784
1667,0.437643,0.868504,-0.232731,-0.60288,-0.464131,0.33997
1668,0.434255,0.870765,-0.23062,-0.648001,-0.6085729999999999,0.307753
1669,0.425408,0.878077,-0.219096,-0.703469,-0.6537270000000001,0.268916
1670,0.4088449999999999,0.891808,-0.193696,-0.621202,-0.500908,0.085557
1671,0.383339,0.908945,-0.163901,-0.248375,-0.173731,-0.454614
1672,0.350571,0.92446,-0.14989,0.570557,0.6957180000000001,-0.734158
1673,0.341019,0.928959,-0.143999,1.807769,1.309826,-0.6305069999999999
1674,0.366652,0.919425,-0.142193,0.628603,0.163247,-0.894016
1675,0.3880989999999999,0.910043,-0.145584,-0.019081,-0.321878,-0.596863
1676,0.403921,0.904214,-0.138702,-0.422552,-0.2400449999999999,0.491393
1677,0.410847,0.904399,-0.115151,-0.852467,0.270146,0.637246
1678,0.397528,0.914046,-0.0805299999999999,-0.706076,1.685289,-1.3771719999999998
1679,0.391991,0.915589,-0.089624,0.8972700000000001,0.954116,0.6067140000000001
1680,0.416788,0.904563,-0.089705,-0.751612,-0.464759,0.144453
1681,0.42233,0.902445,-0.084994,-1.039426,-0.377664,0.324557
1682,0.418296,0.906843,-0.051551,-1.035468,-0.339094,0.647071
1683,0.406386,0.913681,-0.005448,-1.011718,-0.16275,0.5675520000000001
1684,0.3884309999999999,0.92106,0.02758,-0.603718,1.094381,0.223518
1685,0.365225,0.929241,0.0558,-0.057685,0.684758,0.003069
1686,0.3417219999999999,0.935864,0.085877,0.0203229999999999,0.340335,0.041916
1687,0.321411,0.939396,0.119249,-0.5332180000000001,0.012325,0.268461
1688,0.302859,0.941452,0.1481039999999999,-0.532611,-0.106552,0.497938
1689,0.28225,0.943148,0.175492,-0.2625659999999999,-0.091524,0.49887
1690,0.258646,0.94507,0.199838,-0.0020239999999999,-0.014497,0.418768
1691,0.234478,0.946558,0.2214449999999999,0.230884,-0.079233,0.479498
1692,0.210916,0.94703,0.2421559999999999,0.315833,-0.1340869999999999,0.375108
1693,0.183282,0.946935,0.26403,0.112449,-0.164556,0.1354
1694,0.154576,0.947687,0.279258,0.200023,-0.069269,0.046181
1695,0.122966,0.950934,0.283891,0.358204,-0.131964,0.00392
1696,0.092024,0.953582,0.2867099999999999,0.487642,-0.158935,0.004092
1697,0.065867,0.95528,0.288257,0.741384,-0.246509,-0.090213
1698,0.038755,0.956584,0.28885,0.6536890000000001,-0.28091,-0.119203
1699,0.010718,0.957325,0.288799,0.5869840000000001,-0.276828,-0.126384
1700,-0.014731,0.956155,0.292475,0.511603,0.191001,-0.118555
1701,-0.042553,0.952617,0.301164,0.539425,0.194539,-0.127244
1702,-0.07255,0.947819,0.310428,0.550776,0.212871,-0.388629
1703,-0.098873,0.943283,0.316909,0.67915,0.291672,-0.377425
1704,-0.117408,0.939312,0.322334,0.675056,0.3457989999999999,-0.379447
1705,-0.131673,0.935794,0.32702,0.587224,0.312482,-0.496148
1706,-0.141312,0.936624,0.320555,0.568833,0.327628,-0.244856
1707,-0.149178,0.941087,0.3034659999999999,0.563653,0.350585,-0.292099
1708,-0.1506569999999999,0.949784,0.27423,0.518241,0.192016,-0.466827
1709,-0.136155,0.964411,0.226634,0.252534,0.103994,-0.728374
1710,-0.100558,0.980759,0.1673059999999999,0.06142,0.026489,-0.502099
1711,-0.046751,0.994221,0.096594,-0.095126,0.429943,-0.123205
1712,0.015816,0.999765,0.014559,-0.368218,0.800848,-0.091662
1713,0.073332,0.996269,-0.045433,-0.552794,0.8536459999999999,0.471398
1714,0.123227,0.98857,-0.086826,0.058719,0.740556,0.147312
1715,0.176483,0.976989,-0.11975,0.351776,0.571214,-0.603685
1716,0.2306949999999999,0.960772,-0.15392,0.018862,0.357023,-0.264324
1717,0.283451,0.941914,-0.1801289999999999,-0.3307989999999999,0.139217,0.159865
1718,0.3286489999999999,0.922517,-0.202351,-0.144003,-0.064958,0.210377
1719,0.360572,0.904314,-0.228469,-0.0943669999999999,-0.2862719999999999,0.2154829999999999
1720,0.38431,0.88734,-0.254808,-0.1952839999999999,-0.324398,0.214891
1721,0.403432,0.8701530000000001,-0.282967,-0.447957,-0.392522,0.3704
1722,0.421376,0.849468,-0.317554,-0.432591,-0.347713,0.421131
1723,0.42786,0.8346379999999999,-0.346857,-0.289188,-0.334623,0.364053
1724,0.427095,0.827659,-0.364095,-0.387269,-0.424583,0.340382
1725,0.421465,0.826269,-0.373688,-0.414095,-0.425039,0.374435
1726,0.4133949999999999,0.8296600000000001,-0.375184,-0.390263,-0.624781,0.27855
1727,0.402446,0.837644,-0.369304,-0.28625,-0.676755,0.163066
1728,0.386478,0.851217,-0.355048,-0.2238349999999999,-0.46105,-0.089944
1729,0.363223,0.8700829999999999,-0.333196,0.300458,0.018268,-0.498622
1730,0.340553,0.8877520000000001,-0.309701,1.294411,0.716222,-0.3458469999999999
1731,0.339089,0.8956540000000001,-0.287778,1.536476,1.08396,-0.621401
1732,0.3437989999999999,0.892819,-0.290982,0.549755,0.163013,-0.8695860000000001
1733,0.345121,0.887732,-0.304659,-0.140974,-0.32038,-0.47125
1734,0.347206,0.8859309999999999,-0.307519,-0.5805279999999999,-0.400061,0.0070129999999999
1735,0.34741,0.889252,-0.297544,-0.405088,-0.010849,0.978117
1736,0.3411679999999999,0.903992,-0.257677,-0.048215,0.225708,0.991517
1737,0.328169,0.917639,-0.224137,0.508364,1.292322,-0.6444850000000001
1738,0.343236,0.908355,-0.238903,0.049998,0.474916,-0.537953
1739,0.342756,0.909097,-0.236757,-0.8459450000000001,-0.578485,-0.005354
1740,0.322635,0.918871,-0.227104,-0.841342,-0.388933,0.29882
1741,0.291794,0.935575,-0.198867,-0.827118,-0.123884,0.826217
1742,0.259183,0.949317,-0.177807,-0.367154,0.266855,0.572277
1743,0.223097,0.96013,-0.168438,0.297853,0.622252,0.413097
1744,0.194464,0.969195,-0.151123,0.72941,0.198728,0.0270839999999999
1745,0.176589,0.975982,-0.12755,-0.238525,-0.062148,0.244829
1746,0.159721,0.980874,-0.1112119999999999,-0.273933,-0.02395,0.282537
1747,0.142248,0.985247,-0.0951159999999999,-0.280538,-0.05057,0.286172
1748,0.123146,0.989421,-0.076639,0.179222,-0.136485,0.215204
1749,0.103447,0.993129,-0.054632,0.28788,-0.102016,0.142904
1750,0.083536,0.995947,-0.0332019999999999,0.352453,-0.0948389999999999,0.065688
1751,0.065527,0.99772,-0.015888,0.084757,-0.122735,-0.116467
1752,0.049217,0.99877,-0.005173,0.055656,-0.122,-0.073425
1753,0.032975,0.999447,0.002964,0.061415,-0.113873,-0.0456279999999999
1754,0.0161539999999999,0.999823,0.009134,0.3403219999999999,-0.083716,0.007849
1755,-0.001584,0.999896,0.0139889999999999,0.37167,-0.107364,-0.00639
1756,-0.019896,0.999627,0.018446,0.34297,-0.114678,-0.035276
1757,-0.039112,0.99897,0.022775,0.338184,-0.017601,0.057654
1758,-0.060548,0.997747,0.028702,0.367906,0.006571,0.059326
1759,-0.084072,0.99575,0.037472,0.398434,0.0557029999999999,0.011982
