,gravity.x,gravity.y,gravity.z,userAcceleration.x,userAcceleration.y,userAcceleration.z
0,0.287608,0.871632,-0.396908,0.3680469999999999,0.8176220000000001,-0.077808
1,0.295822,0.8639979999999999,-0.407423,0.325471,0.4113159999999999,-0.055757
2,0.299053,0.863391,-0.406351,0.1421089999999999,-0.089251,-0.066839
3,0.295048,0.8686889999999999,-0.397899,0.080563,-0.158545,-0.055333
4,0.289876,0.876401,-0.384565,-0.073994,-0.144986,-0.057924
5,0.28665,0.8845040000000001,-0.368078,-0.137632,-0.122602,0.025411
6,0.284228,0.8921180000000001,-0.351193,-0.148669,-0.231901,0.1158569999999999
7,0.280469,0.9001319999999999,-0.333311,-0.197263,-0.377473,0.201261
8,0.272205,0.910688,-0.310722,-0.166966,-0.649457,0.255119
9,0.262106,0.923033,-0.281616,-0.137075,-0.6742229999999999,0.167282
10,0.2534099999999999,0.9342,-0.251098,-0.124641,-0.272426,0.051467
11,0.2488909999999999,0.942121,-0.224627,-0.073903,-0.235639,-0.0045899999999999
12,0.247689,0.94715,-0.203843,0.027381,-0.215171,-0.041976
13,0.25071,0.94926,-0.189855,0.035697,-0.167949,0.003774
14,0.259,0.949071,-0.179386,-0.003751,-0.1199079999999999,0.017002
15,0.268941,0.948113,-0.169551,-0.100896,0.314384,0.011287
16,0.275368,0.945844,-0.171892,-0.101021,0.642428,0.064318
17,0.276411,0.942493,-0.187879,-0.038145,0.952969,0.292631
18,0.272882,0.940656,-0.201735,0.009161,0.0367,0.3452739999999999
19,0.272602,0.941249,-0.1993349999999999,0.15263,-0.099986,-0.004584
20,0.278804,0.939331,-0.199802,0.2222179999999999,0.383347,-0.050411
21,0.282064,0.935386,-0.213278,0.5596869999999999,0.661904,0.063407
22,0.276814,0.93549,-0.219608,0.403392,0.160961,-0.141568
23,0.274995,0.935721,-0.220906,0.192565,0.156717,-0.121807
24,0.279909,0.934618,-0.2193949999999999,0.198866,0.294615,0.031223
25,0.291166,0.932899,-0.211931,0.147249,0.111443,0.08655
26,0.300067,0.933021,-0.1985569999999999,0.042523,-0.035332,0.153803
27,0.301757,0.93543,-0.184138,0.024461,-0.111731,0.224177
28,0.300202,0.938584,-0.170093,-0.037293,-0.162248,0.245213
29,0.297579,0.941435,-0.1585599999999999,-0.082048,-0.152555,0.205618
30,0.294819,0.943492,-0.151316,-0.1722,-0.209377,0.085627
31,0.290979,0.944679,-0.151349,-0.176034,-0.328712,0.003889
32,0.286146,0.944999,-0.158398,-0.075513,-0.475639,0.074643
33,0.28092,0.94466,-0.169393,-0.009695,-0.531254,0.060094
34,0.276471,0.943792,-0.181145,0.1176329999999999,-0.542959,0.110069
35,0.27388,0.942258,-0.192699,0.171478,-0.4419979999999999,0.08453
36,0.272384,0.939933,-0.205732,0.172837,-0.41326,0.090758
37,0.269795,0.937638,-0.219176,0.1777,-0.316026,0.186033
38,0.265719,0.935158,-0.234235,0.034299,-0.02755,0.228223
39,0.26576,0.929986,-0.253951,-0.0668309999999999,0.336524,0.226989
40,0.275372,0.920863,-0.275999,-0.1608089999999999,0.564275,0.136564
41,0.292126,0.907913,-0.300581,-0.126248,0.74266,-0.117647
42,0.3068599999999999,0.893551,-0.327716,0.0375,0.755787,-0.160169
43,0.315835,0.882808,-0.347694,0.236396,0.600758,-0.178567
44,0.320111,0.875418,-0.362169,0.329853,0.6052649999999999,-0.144102
45,0.324798,0.8685579999999999,-0.374309,0.354889,0.780414,-0.092564
46,0.327309,0.8652549999999999,-0.379733,0.1046059999999999,0.545115,-0.083799
47,0.323347,0.868201,-0.376388,0.031847,0.242334,-0.0435339999999999
48,0.314636,0.875339,-0.367124,-0.129975,-0.0181759999999999,0.025876
49,0.305566,0.884244,-0.353179,-0.1713039999999999,-0.263974,0.120055
50,0.29782,0.894482,-0.333466,-0.169478,-0.501583,0.093338
51,0.291304,0.905125,-0.309653,-0.169371,-0.550633,0.080389
52,0.285072,0.915202,-0.284836,-0.169426,-0.6672779999999999,0.060395
53,0.277563,0.924606,-0.260876,-0.149587,-0.605498,0.093227
54,0.268938,0.93291,-0.239467,-0.120592,-0.5513640000000001,0.089046
55,0.262415,0.939002,-0.222278,-0.059229,-0.410361,0.090747
56,0.258931,0.943101,-0.208586,-0.034184,-0.386109,0.089873
57,0.256686,0.946508,-0.19552,-0.077563,-0.285161,0.068735
58,0.256036,0.949159,-0.1831279999999999,-0.226083,0.12741,0.104835
59,0.259307,0.950082,-0.173486,-0.188995,0.129646,0.087991
60,0.267678,0.948687,-0.168325,-0.175027,0.141767,0.00414
61,0.275333,0.944557,-0.178874,-0.165775,0.706901,0.230785
62,0.2768469999999999,0.940781,-0.195653,-0.135916,0.960907,0.48998
63,0.274182,0.940656,-0.199958,0.125079,1.010882,0.114005
64,0.276181,0.937198,-0.213017,0.4581939999999999,0.801876,0.109044
65,0.284323,0.932074,-0.22448,0.504617,-0.210929,-0.138435
66,0.286504,0.929243,-0.2332769999999999,0.2897139999999999,-0.035566,-0.101577
67,0.285702,0.928587,-0.236846,0.190083,0.162173,0.018874
68,0.284963,0.930528,-0.2300179999999999,0.0947679999999999,0.27986,0.093803
69,0.282375,0.934338,-0.217419,0.140813,0.334873,0.165738
70,0.28184,0.938288,-0.200438,0.207753,0.055211,0.133788
71,0.283802,0.941708,-0.1806569999999999,0.1328079999999999,-0.079312,0.074394
72,0.285814,0.944285,-0.163187,0.056914,-0.245265,0.054331
73,0.281765,0.947862,-0.148862,-0.016735,-0.130754,0.0276459999999999
74,0.273458,0.951913,-0.138121,-0.009252,-0.215554,0.0473769999999999
75,0.265142,0.955215,-0.131374,-0.0004019999999999,-0.307723,0.094356
76,0.25937,0.957366,-0.127164,0.0092459999999999,-0.442504,0.123868
77,0.2555429999999999,0.958584,-0.1257339999999999,-0.035695,-0.568386,0.071886
78,0.252898,0.958725,-0.129935,-0.099547,-0.628967,0.0358949999999999
79,0.250826,0.957708,-0.140983,-0.097338,-0.5977680000000001,0.00724
80,0.247798,0.956171,-0.15597,0.002171,-0.45106,0.0148259999999999
81,0.244202,0.954163,-0.173013,0.17511,-0.24884,-0.050421
82,0.240832,0.951758,-0.190135,0.330961,-0.130041,0.075145
83,0.2387099999999999,0.948955,-0.206146,0.170897,-0.206401,0.314666
84,0.238128,0.944622,-0.2257849999999999,0.054719,-0.071957,0.350969
85,0.240825,0.93776,-0.250209,-0.145473,0.357223,0.335047
86,0.24961,0.928019,-0.276533,-0.184013,0.5329189999999999,0.074873
87,0.2609579999999999,0.915671,-0.305685,-0.031237,0.756876,-0.247614
88,0.268968,0.90313,-0.334676,0.057311,0.601921,-0.164347
89,0.274802,0.8931,-0.356161,0.121545,0.685955,-0.215769
90,0.280982,0.8837200000000001,-0.374278,0.480355,0.7769550000000001,-0.087865
91,0.283301,0.878401,-0.3849,0.234888,0.4155439999999999,0.029019
92,0.279535,0.8805879999999999,-0.382651,0.099692,-0.173312,-0.0846799999999999
93,0.270186,0.8878510000000001,-0.372446,-0.028105,-0.129489,-0.070242
94,0.262021,0.894998,-0.360996,-0.199155,-0.082346,0.063587
95,0.256889,0.902231,-0.346386,-0.2387159999999999,-0.283136,0.176311
96,0.2529949999999999,0.910676,-0.326586,-0.223805,-0.391099,0.177171
97,0.248465,0.920599,-0.30126,-0.160239,-0.539068,0.114676
98,0.240155,0.932215,-0.270731,-0.1129119999999999,-0.776515,0.021586
99,0.226789,0.943938,-0.239878,-0.120573,-0.687743,-0.006093
100,0.214221,0.952794,-0.215146,-0.04198,-0.100789,0.002652
101,0.209948,0.957232,-0.1990579999999999,0.063841,0.053648,0.026725
102,0.2156199999999999,0.958228,-0.18789,0.015856,-0.095251,-0.021202
103,0.223683,0.958231,-0.178194,-0.121419,0.006841,0.044771
104,0.230458,0.956679,-0.1779,-0.082097,0.393449,0.175077
105,0.235004,0.953287,-0.18977,-0.140369,0.744422,0.320065
106,0.23855,0.950728,-0.198,-0.11416,-0.091384,0.33835
107,0.236698,0.950262,-0.2024119999999999,-0.122852,0.0572909999999999,0.06722
108,0.2284929999999999,0.945175,-0.2333039999999999,0.403007,1.774002,0.420712
109,0.220288,0.944057,-0.245409,0.6292909999999999,-0.2269699999999999,-0.296567
110,0.2217869999999999,0.940574,-0.257152,0.161071,-0.039542,-0.058598
111,0.2317159999999999,0.936932,-0.261652,0.175251,0.025348,-0.011893
112,0.24335,0.936012,-0.254279,0.1228609999999999,0.189461,0.038794
113,0.247196,0.939194,-0.238337,0.336147,0.243927,0.07545
114,0.245009,0.944733,-0.217821,0.330706,0.137985,0.053591
115,0.237914,0.950554,-0.199595,0.1551529999999999,-0.073693,0.100657
116,0.22649,0.957026,-0.1811019999999999,0.0758929999999999,-0.132182,0.039348
117,0.213191,0.963283,-0.163185,-0.049418,-0.19186,-0.058311
118,0.198676,0.968323,-0.1512369999999999,-0.037711,-0.242432,-0.006142
119,0.184508,0.972432,-0.142573,0.0560779999999999,-0.357518,0.050989
120,0.172443,0.975977,-0.133138,0.096859,-0.479792,0.112539
121,0.163614,0.978661,-0.12428,0.058279,-0.521844,0.165738
122,0.158323,0.980081,-0.11987,0.022143,-0.537728,0.1218539999999999
123,0.153439,0.980759,-0.120672,0.090946,-0.4937439999999999,0.079061
124,0.148872,0.980574,-0.127691,0.286721,-0.359251,0.126043
125,0.1459099999999999,0.979647,-0.137823,0.385065,-0.322009,0.057363
126,0.145601,0.977956,-0.149652,0.355925,-0.365194,0.157144
127,0.147806,0.975351,-0.16382,0.209112,-0.34849,0.178911
128,0.154256,0.970765,-0.183889,-0.0047659999999999,0.280304,0.0594539999999999
129,0.166657,0.963496,-0.20951,0.006331,0.52094,0.04058
130,0.184593,0.952771,-0.241135,0.155709,1.058734,-0.084701
131,0.2051329999999999,0.940428,-0.271127,0.352636,1.034151,-0.17739
132,0.217243,0.932027,-0.290045,0.196163,0.933894,-0.15275
133,0.219379,0.926776,-0.304884,0.001233,0.198697,0.023359
134,0.212426,0.924931,-0.315235,0.183158,-0.224461,0.07146
135,0.204529,0.925795,-0.3179099999999999,0.1111299999999999,-0.107573,0.053201
136,0.197818,0.929307,-0.311851,0.03761,0.067733,-0.011955
137,0.18925,0.93455,-0.301321,-0.010966,-0.071101,0.122213
138,0.181229,0.939512,-0.290632,-0.007798,-0.17819,0.164747
139,0.173732,0.945102,-0.276757,-0.07252,-0.410708,0.212502
140,0.164154,0.952607,-0.256101,-0.191056,-0.602692,0.1323369999999999
141,0.151444,0.961115,-0.230901,-0.160233,-0.645472,0.08225
142,0.138929,0.968777,-0.205336,-0.167356,-0.610607,0.01158
143,0.130984,0.974011,-0.184767,-0.120547,-0.290616,-0.035448
144,0.127478,0.977183,-0.169868,-0.0333,-0.099269,-0.025109
145,0.127466,0.979447,-0.156299,0.073996,0.258911,-0.123792
146,0.130411,0.980638,-0.146065,-0.016076,0.41284,-0.277199
147,0.136535,0.980344,-0.142398,-0.000778,0.166949,-0.400663
148,0.1461309999999999,0.978609,-0.144787,0.0536679999999999,0.087614,-0.315327
149,0.15287,0.974826,-0.162292,0.073219,0.239652,-0.035279
150,0.15331,0.969055,-0.193447,0.2886309999999999,0.476517,0.244732
151,0.147616,0.962929,-0.225766,0.479612,0.693275,0.3759429999999999
152,0.136656,0.959349,-0.246919,0.463213,0.239275,0.296083
153,0.130144,0.959317,-0.250537,0.351179,0.075428,0.1066309999999999
154,0.134168,0.958684,-0.250835,0.170626,0.283305,0.0872
155,0.144727,0.957096,-0.251029,0.068362,0.019909,0.238898
156,0.150798,0.959373,-0.23845,0.044988,0.171807,0.257981
157,0.15283,0.964376,-0.215906,0.1190809999999999,0.471995,0.24264
158,0.158184,0.969261,-0.1884289999999999,0.238865,0.2998889999999999,0.16609
159,0.165482,0.972717,-0.162573,0.197967,-0.059723,0.121039
160,0.165726,0.976412,-0.138371,0.120208,-0.183398,0.162251
161,0.156856,0.981117,-0.1131269999999999,0.044255,-0.315621,0.136809
162,0.143694,0.98568,-0.088208,-0.008165,-0.375054,0.076245
163,0.12573,0.989836,-0.06641,0.076648,-0.359358,0.120029
164,0.106136,0.993326,-0.045069,0.148335,-0.383356,0.080713
165,0.087943,0.995812,-0.024862,0.142602,-0.336479,0.006063
166,0.0712179999999999,0.997427,-0.007801,0.029307,-0.219656,-0.084439
167,0.05497,0.998471,0.005188,0.089348,-0.0795559999999999,-0.009323
168,0.036835,0.999241,0.012381,0.32103,-0.067951,0.004206
169,0.020451,0.999585,0.020092,0.480785,-0.068616,-0.141018
170,0.008342,0.999579,0.027632,0.509648,0.102899,-0.138548
171,-0.000586,0.999367,0.03547,0.543769,0.157494,-0.0949179999999999
172,-0.005667,0.999024,0.043718,0.615438,0.361282,-0.000276
173,-0.004413,0.998778,0.049144,0.689457,0.28296,0.19521
174,0.000657,0.998773,0.049438,0.6197189999999999,0.29624,0.252808
175,0.010626,0.999091,0.041193,0.22999,0.197274,0.164815
176,0.020365,0.999527,0.022915,0.07311,0.199219,0.298344
177,0.025466,0.999664,-0.0040479999999999,0.123643,0.169998,0.362385
178,0.030256,0.999081,-0.030249,0.177401,0.159687,0.319403
179,0.036514,0.997886,-0.053697,0.205887,0.198021,0.191972
180,0.042607,0.996116,-0.077019,0.229992,0.37069,0.156639
181,0.04634,0.993947,-0.099576,0.301804,0.306651,0.182309
182,0.045121,0.991916,-0.118577,0.2983389999999999,0.192303,0.238236
183,0.041305,0.990466,-0.131398,0.197052,0.097455,0.255833
184,0.039534,0.989443,-0.139405,0.146028,0.043485,0.250382
185,0.041809,0.988651,-0.144279,0.173172,-0.0997649999999999,0.184623
186,0.044139,0.988401,-0.145293,0.17188,-0.153013,0.153304
187,0.043348,0.98859,-0.144243,0.237002,-0.250781,0.129243
188,0.03908,0.989032,-0.142418,0.153913,-0.345828,0.222527
189,0.032973,0.989738,-0.139015,0.135698,-0.3951179999999999,0.244362
190,0.027868,0.990551,-0.134266,0.088557,-0.395854,0.28281
191,0.023249,0.991472,-0.1282029999999999,0.069524,-0.362505,0.256865
192,0.019225,0.99245,-0.1211049999999999,0.066072,-0.328739,0.212444
193,0.016649,0.993592,-0.1117609999999999,0.009214,-0.2357949999999999,0.084143
194,0.015745,0.994962,-0.098975,0.04999,-0.202649,-0.010812
195,0.0140139999999999,0.996159,-0.086393,0.102213,-0.1491289999999999,-0.054629
196,0.009281,0.996856,-0.078654,0.278118,0.094606,-0.155599
197,0.004527,0.996783,-0.079981,0.383443,0.194684,-0.164617
198,0.005102,0.995834,-0.091012,0.428354,0.181519,-0.22454
199,0.013475,0.994709,-0.101819,0.432875,0.1552089999999999,-0.4156069999999999
200,0.032694,0.993653,-0.107608,0.5031180000000001,-0.138871,-0.181302
201,0.057324,0.991151,-0.119702,0.478046,-0.06804,0.127622
202,0.075311,0.987748,-0.1366619999999999,0.306448,0.655105,0.475087
203,0.0915899999999999,0.984625,-0.148723,0.088326,1.341943,0.606975
204,0.098297,0.985136,-0.140855,-0.265427,0.329836,0.159058
205,0.089366,0.988356,-0.123128,-0.246851,-0.617186,0.001851
206,0.074247,0.989468,-0.1242359999999999,-0.093321,-0.632642,0.02545
207,0.067857,0.988161,-0.1375819999999999,0.355742,-0.220476,0.314523
208,0.072114,0.987043,-0.143323,0.569656,0.30234,0.349301
209,0.083588,0.987928,-0.130407,0.479446,0.499926,0.272985
210,0.093411,0.990048,-0.105238,0.010151,0.1690559999999999,-0.00345
211,0.099073,0.991588,-0.083259,0.194475,0.076848,0.095634
212,0.101709,0.992605,-0.066216,0.19477,0.027155,0.101647
213,0.106303,0.993135,-0.048759,0.178533,-0.0576179999999999,0.096244
214,0.112377,0.993203,-0.030219,-0.015286,-0.314767,0.093909
215,0.116368,0.993148,-0.0104359999999999,-0.059529,-0.274536,0.085707
216,0.11638,0.993154,0.009774,0.034637,-0.126241,0.002433
217,0.113195,0.993182,0.0277649999999999,0.135981,-0.183993,-0.021188
218,0.1077809999999999,0.993206,0.043812,0.139152,-0.294139,-0.045811
219,0.101881,0.993002,0.059661,0.114672,-0.26937,-0.061797
220,0.096482,0.992434,0.075892,0.094421,-0.1903099999999999,-0.0859019999999999
221,0.0898279999999999,0.991892,0.089853,0.190568,-0.108363,-0.100473
222,0.0837649999999999,0.991396,0.100547,0.354284,-0.101213,-0.123481
223,0.082808,0.990733,0.107626,0.377855,-0.0912419999999999,-0.1658079999999999
224,0.08687,0.990183,0.109468,0.303496,0.040441,-0.1128859999999999
225,0.094066,0.990092,0.104217,0.246129,0.016133,-0.003952
226,0.104896,0.990219,0.091951,0.2291949999999999,-0.067185,0.148772
227,0.1212869999999999,0.990049,0.071314,0.229314,0.070559,0.102972
228,0.14029,0.989217,0.0419649999999999,0.04515,0.214228,0.1075869999999999
229,0.159442,0.987184,0.006344,-0.1155119999999999,0.339019,0.0882299999999999
230,0.169956,0.984979,-0.0304009999999999,-0.046848,0.5925199999999999,0.056753
231,0.174166,0.982437,-0.06691,0.151685,0.556488,0.051285
232,0.176348,0.979222,-0.100095,0.5059939999999999,0.408046,0.010129
233,0.181954,0.974973,-0.127729,0.371772,0.393435,-0.021777
234,0.190353,0.97146,-0.141515,0.20546,0.288657,-0.032069
235,0.197101,0.969376,-0.146479,-0.047779,0.2056579999999999,-0.034765
236,0.200795,0.968213,-0.149132,-0.102314,0.053287,0.013725
237,0.202706,0.967567,-0.15073,-0.08677,-0.114692,0.040165
238,0.202906,0.967073,-0.153602,-0.015314,-0.4853229999999999,0.140906
239,0.20205,0.96692,-0.1556789999999999,-0.044564,-0.560563,0.148813
240,0.200595,0.967648,-0.153017,-0.137286,-0.702923,0.133486
241,0.199214,0.969048,-0.145792,-0.223354,-0.700859,0.105402
242,0.200014,0.970468,-0.1348369999999999,-0.214007,-0.6727390000000001,0.107051
243,0.201153,0.97208,-0.1208,-0.195187,-0.642414,0.049908
244,0.201926,0.973675,-0.105728,-0.19924,-0.495174,0.002365
245,0.202219,0.975103,-0.090968,-0.150202,-0.434179,-0.019002
246,0.204933,0.975785,-0.076421,-0.100823,-0.39354,-0.044032
247,0.210675,0.975447,-0.064147,-0.041928,-0.181547,-0.156373
248,0.2175099999999999,0.974477,-0.0554809999999999,-0.012493,0.087825,-0.14534
249,0.225367,0.972949,-0.050744,0.019934,0.134961,-0.121742
250,0.236035,0.970638,-0.046317,-0.041943,0.14182,-0.039773
251,0.24785,0.968099,-0.036735,-0.088457,0.044978,-0.052025
252,0.2575699999999999,0.965945,-0.02454,-0.1157089999999999,0.108014,-0.011531
253,0.259815,0.96525,-0.027992,-0.071125,0.944601,0.066612
254,0.258282,0.964952,-0.046406,0.008701,0.8302299999999999,0.165578
255,0.252721,0.965549,-0.0619799999999999,-0.233922,0.115185,0.33885
256,0.2476239999999999,0.966067,-0.073426,0.173671,0.647687,0.1129309999999999
257,0.2476269999999999,0.965107,-0.085119,0.553398,0.689389,-0.09852
258,0.248833,0.964696,-0.086244,0.544471,0.239192,-0.348494
259,0.2510679999999999,0.963905,-0.088583,0.136581,-0.087806,-0.177759
260,0.254867,0.963138,-0.086046,0.0511939999999999,-0.033206,-0.151747
261,0.257401,0.963018,-0.079596,0.176025,0.054331,-0.064828
262,0.2558,0.964316,-0.068227,0.261107,0.191049,-0.05395
263,0.251432,0.966329,-0.054624,0.2068199999999999,-0.152944,-0.0594809999999999
264,0.249349,0.967591,-0.039839,0.217844,-0.130936,-0.073671
265,0.2489869999999999,0.968135,-0.02673,0.071738,-0.127849,-0.097843
266,0.2476989999999999,0.968687,-0.016872,-0.2197599999999999,-0.381758,-0.101323
267,0.243304,0.969883,-0.011115,-0.217532,-0.435093,-0.08738
268,0.236571,0.97154,-0.011764,-0.123107,-0.444196,-0.034332
269,0.229543,0.973144,-0.017164,-0.052312,-0.496826,-0.039049
270,0.2218949999999999,0.974755,-0.024687,0.043898,-0.433938,-0.059161
271,0.215082,0.975995,-0.034167,0.092612,-0.289029,-0.056272
272,0.209823,0.976652,-0.046049,0.09929,-0.2046339999999999,0.019743
273,0.206755,0.97658,-0.0594909999999999,0.087541,-0.230242,0.008725
274,0.2060469999999999,0.975613,-0.075636,0.063286,-0.297146,0.1103339999999999
275,0.207278,0.973577,-0.095809,-0.115756,-0.283636,0.2069239999999999
276,0.210726,0.970108,-0.1203369999999999,-0.183382,-0.1667789999999999,0.152472
277,0.2169199999999999,0.964651,-0.149633,-0.2234199999999999,0.1004429999999999,-0.015879
278,0.227277,0.955969,-0.185646,-0.093793,0.669901,-0.206611
279,0.24047,0.943132,-0.229506,0.036782,0.938292,-0.171434
280,0.255142,0.93058,-0.262527,0.358276,0.906487,-0.136429
281,0.265637,0.922728,-0.2792969999999999,0.177921,0.731157,-0.284699
282,0.276447,0.918401,-0.283042,0.107174,0.529993,-0.217904
283,0.288907,0.917224,-0.274282,0.061755,-0.074496,-0.16868
284,0.298149,0.919204,-0.257233,0.022911,-0.26596,-0.1930079999999999
285,0.300888,0.923391,-0.238355,-0.038544,-0.311986,-0.158191
286,0.297207,0.928902,-0.220919,-0.167782,-0.522378,0.034746
287,0.290099,0.935442,-0.201961,-0.212096,-0.6266189999999999,0.092876
288,0.2822199999999999,0.94255,-0.17874,-0.218957,-0.71292,0.076277
289,0.273896,0.949809,-0.151132,-0.251634,-0.6135510000000001,-0.000357
290,0.26588,0.956303,-0.121609,-0.255885,-0.538792,-0.063343
291,0.260341,0.960738,-0.095927,-0.2575179999999999,-0.344481,-0.143178
292,0.260084,0.96243,-0.077982,-0.108121,0.035816,-0.127554
293,0.265721,0.961872,-0.0647269999999999,-0.0070849999999999,0.084637,-0.12111
294,0.275711,0.959838,-0.051871,-0.016586,0.037995,-0.113138
295,0.287528,0.9569,-0.0408269999999999,-0.077338,0.223642,-0.1207029999999999
296,0.298006,0.953624,-0.0423199999999999,-0.051881,0.390538,-0.058525
297,0.30498,0.950892,-0.052808,-0.069247,0.701574,0.196485
298,0.30286,0.951487,-0.054275,-0.076236,0.318029,-0.018189
299,0.296573,0.95266,-0.066936,0.339932,1.358131,0.2241929999999999
300,0.29151,0.953139,-0.0809049999999999,0.705392,0.306505,0.000567
301,0.292725,0.952763,-0.080945,0.324494,-0.232365,-0.383959
302,0.298703,0.950479,-0.085815,-0.047101,-0.01603,-0.2310489999999999
303,0.311289,0.945859,-0.091908,-0.16514,0.0360129999999999,-0.177562
304,0.3231199999999999,0.94177,-0.093058,-0.047882,0.189394,-0.071157
305,0.327213,0.941008,-0.08622,0.089551,0.138765,0.0148849999999999
306,0.323015,0.943562,-0.073142,0.172072,-0.053959,0.041816
307,0.317687,0.94647,-0.0571669999999999,0.2285469999999999,-0.086744,0.036522
308,0.314469,0.948402,-0.0405,-0.051026,-0.139656,-0.05032
309,0.311513,0.949839,-0.027617,-0.153813,-0.152751,-0.082277
310,0.305061,0.952065,-0.022518,-0.319023,-0.2089929999999999,-0.039769
311,0.29586,0.954956,-0.022887,-0.330986,-0.318329,-0.069154
312,0.285244,0.958074,-0.026999,-0.1988329999999999,-0.47701,-0.0261779999999999
313,0.273987,0.961105,-0.034725,-0.074021,-0.6306149999999999,-0.043369
314,0.2635639999999999,0.963587,-0.0450879999999999,0.115632,-0.610681,-0.089037
315,0.2560199999999999,0.964899,-0.058484,0.264503,-0.4097689999999999,-0.1163059999999999
316,0.252824,0.964673,-0.074047,0.297026,-0.244077,-0.014698
317,0.253548,0.963268,-0.088461,0.065269,-0.096889,0.058294
318,0.2581719999999999,0.960444,-0.104369,-0.001549,0.0202539999999999,0.101287
319,0.268208,0.955121,-0.125723,-0.109654,0.395175,0.087271
320,0.284134,0.947159,-0.148848,-0.055771,0.552231,-0.0751049999999999
321,0.298268,0.93853,-0.173764,0.016307,0.609428,-0.211017
322,0.305053,0.931631,-0.197496,0.0530559999999999,0.595332,-0.314391
323,0.306942,0.926998,-0.2155409999999999,0.178745,0.639713,-0.183248
324,0.308578,0.923367,-0.228407,0.289124,0.63956,-0.161592
325,0.311084,0.920868,-0.235001,0.0734529999999999,0.396789,-0.1272579999999999
326,0.311819,0.921553,-0.231313,0.027812,0.071412,-0.14268
327,0.308705,0.925458,-0.219604,-0.080922,-0.208463,-0.1190339999999999
328,0.303111,0.930836,-0.204122,-0.276896,-0.401066,-0.0067239999999999
329,0.297786,0.936495,-0.185198,-0.290294,-0.450258,-0.009214
330,0.2941539999999999,0.941803,-0.162719,-0.2656199999999999,-0.521744,0.028732
331,0.292192,0.946423,-0.137495,-0.213426,-0.659008,0.011442
332,0.2883,0.951063,-0.111173,-0.220307,-0.629011,-0.0333279999999999
333,0.28205,0.955517,-0.08621,-0.2153989999999999,-0.4314229999999999,-0.042132
334,0.276283,0.958886,-0.064814,-0.136818,-0.320001,-0.054129
335,0.273465,0.96076,-0.046403,-0.1207859999999999,-0.155325,-0.090971
336,0.274935,0.960948,-0.031382,-0.129183,-0.060848,-0.1280869999999999
337,0.28207,0.95918,-0.020168,-0.164074,0.114185,-0.17722
338,0.292508,0.956186,-0.011984,-0.172819,0.2533019999999999,-0.198344
339,0.30269,0.95298,-0.014269,-0.137681,0.4173199999999999,-0.131666
340,0.307508,0.951124,-0.028248,-0.069608,0.945604,0.25974
341,0.305427,0.951317,-0.041301,0.044549,0.4022139999999999,0.285671
342,0.299923,0.952979,-0.0432769999999999,0.086582,0.170785,0.07468
343,0.297713,0.953034,-0.055576,0.385393,0.584426,-0.096875
344,0.297892,0.952089,-0.069146,0.3633929999999999,0.195921,-0.143698
345,0.29773,0.951702,-0.074937,0.285583,0.072437,-0.2470389999999999
346,0.300551,0.950623,-0.0773399999999999,-0.03517,0.024124,-0.137809
347,0.305736,0.949102,-0.075675,0.050893,0.023844,-0.111703
348,0.310244,0.948145,-0.069035,0.103468,-0.002344,-0.0990559999999999
349,0.3118829999999999,0.948287,-0.0589559999999999,0.143241,-0.06253,-0.045765
350,0.3119909999999999,0.948897,-0.047458,0.093481,-0.099745,-0.004971
351,0.31142,0.949638,-0.034649,0.021115,-0.093635,-0.0219
352,0.310736,0.950141,-0.0258839999999999,-0.143423,-0.10717,-0.027019
353,0.307133,0.951396,-0.022585,-0.260715,-0.320888,-0.069517
354,0.3010239999999999,0.953295,-0.024641,-0.2432239999999999,-0.45177,-0.078371
355,0.2928949999999999,0.955688,-0.0294779999999999,-0.155337,-0.628387,-0.01436
356,0.286084,0.957507,-0.0365,-0.040784,-0.547457,-0.057021
357,0.281341,0.958476,-0.046536,0.051362,-0.409877,-0.031879
358,0.278643,0.958468,-0.060757,0.187238,-0.195346,0.008526
359,0.276462,0.957996,-0.076209,0.238903,-0.170322,0.126532
360,0.276453,0.956527,-0.092864,0.026083,-0.278228,0.124358
361,0.279086,0.953487,-0.113876,-0.171069,-0.126003,0.081664
362,0.2859219999999999,0.947746,-0.141496,-0.177127,0.296334,-0.061111
363,0.298702,0.938588,-0.172697,0.0387,0.610988,-0.163225
364,0.3125719999999999,0.92744,-0.2053,0.24358,0.8756450000000001,-0.332221
365,0.321484,0.918004,-0.23219,0.075351,0.924419,-0.329242
366,0.327803,0.91093,-0.2504929999999999,0.045641,0.967961,-0.247355
367,0.332152,0.90618,-0.26174,0.046892,0.383127,-0.112421
368,0.333044,0.905653,-0.26243,0.075693,-0.230345,-0.159338
369,0.325714,0.91104,-0.252804,0.037399,-0.359298,-0.16869
370,0.31383,0.918932,-0.23889,-0.077471,-0.393374,-0.129839
371,0.302286,0.926769,-0.2229699999999999,-0.134485,-0.3004719999999999,0.00158
372,0.294274,0.933662,-0.2041339999999999,-0.226067,-0.241325,0.038454
373,0.292157,0.938277,-0.185134,-0.247555,-0.280684,0.093932
374,0.290384,0.942542,-0.165181,-0.2365199999999999,-0.343085,0.073765
375,0.287066,0.947395,-0.141523,-0.2180349999999999,-0.439171,0.037214
376,0.283341,0.952022,-0.115605,-0.243302,-0.6822159999999999,-0.0684309999999999
377,0.280523,0.955436,-0.0918809999999999,-0.260702,-0.555609,-0.10279
378,0.279748,0.957288,-0.073027,-0.229546,-0.425733,-0.1195079999999999
379,0.282867,0.957344,-0.058914,-0.082,-0.0259019999999999,-0.142105
380,0.290655,0.955614,-0.048107,-0.061285,0.006148,-0.12209
381,0.298545,0.953598,-0.038912,-0.1126009999999999,0.093566,-0.128584
382,0.3055449999999999,0.951169,-0.04374,-0.193881,0.7224,0.069635
383,0.310534,0.948635,-0.060449,-0.301012,0.8382299999999999,0.362085
384,0.310409,0.947473,-0.077034,-0.2469179999999999,0.6939,0.333763
385,0.304715,0.94736,-0.09824,0.643451,0.648602,-0.0638389999999999
386,0.305763,0.94622,-0.105688,0.734108,0.004723,-0.52656
387,0.306779,0.944479,-0.117639,0.457351,-0.1197109999999999,-0.447989
388,0.311084,0.941994,-0.125966,0.055509,0.146507,-0.177958
389,0.317168,0.940088,-0.125029,0.0573889999999999,0.323248,-0.06032
390,0.320113,0.940561,-0.1134309999999999,0.087312,0.267584,-0.043246
391,0.322083,0.941895,-0.095338,0.261031,-0.01706,-0.051009
392,0.3265409999999999,0.942126,-0.075915,0.153836,-0.135729,-0.0498329999999999
393,0.330833,0.941906,-0.057919,0.078606,-0.185452,-0.05991
394,0.328417,0.943535,-0.043312,-0.2087119999999999,-0.223336,-0.032143
395,0.322053,0.946125,-0.0335009999999999,-0.22458,-0.2161449999999999,-0.066215
396,0.3159949999999999,0.948212,-0.032169,-0.156586,-0.159485,-0.138043
397,0.309819,0.950097,-0.036345,-0.063146,-0.4596189999999999,-0.013841
398,0.302749,0.952185,-0.040988,-0.03186,-0.497443,0.006976
399,0.296201,0.953958,-0.047144,-0.008405,-0.491693,-0.017278
400,0.2918159999999999,0.954795,-0.056616,-0.019614,-0.449027,-0.079096
401,0.288801,0.954847,-0.0696799999999999,0.0829179999999999,-0.348356,-0.097541
402,0.286731,0.954254,-0.08473,0.133877,-0.305145,-0.034594
403,0.2862719999999999,0.952887,-0.100241,0.1039099999999999,-0.2871309999999999,0.059332
404,0.289401,0.94983,-0.118594,0.046887,-0.018525,0.118075
405,0.298451,0.943928,-0.141145,-0.023304,0.529415,0.092882
406,0.313747,0.935321,-0.1635,-0.11349,0.686581,-0.054121
407,0.325511,0.926847,-0.1870619999999999,-0.070719,0.482897,-0.204326
408,0.327169,0.921476,-0.2093719999999999,0.024791,0.390978,-0.264139
409,0.326563,0.917304,-0.227827,0.0972799999999999,0.787042,-0.336428
410,0.331787,0.912113,-0.240752,0.226608,0.6442829999999999,-0.27997
411,0.337155,0.907255,-0.251418,0.095081,0.4407529999999999,-0.201066
412,0.336042,0.906157,-0.256808,0.0567649999999999,0.274675,-0.2302989999999999
413,0.32911,0.909363,-0.25444,-0.042932,0.165023,-0.121994
414,0.322214,0.914115,-0.246101,-0.138452,0.005944,-0.023003
415,0.316152,0.919629,-0.233075,-0.19042,-0.218137,0.0601159999999999
416,0.308591,0.92647,-0.215453,-0.256955,-0.402574,0.092879
417,0.300037,0.933994,-0.1939779999999999,-0.254245,-0.4659149999999999,0.085793
418,0.292033,0.941413,-0.168678,-0.265269,-0.54676,0.058296
419,0.284805,0.948301,-0.140016,-0.197051,-0.684172,-0.043624
420,0.277957,0.954245,-0.110229,-0.172458,-0.6712100000000001,-0.102906
421,0.272223,0.958641,-0.083035,-0.152289,-0.555657,-0.186328
422,0.270203,0.960794,-0.06212,-0.102174,-0.416116,-0.218932
423,0.274138,0.960441,-0.048934,-0.047942,-0.256187,-0.189317
424,0.282494,0.95847,-0.03905,-0.06234,-0.100347,-0.132733
425,0.291507,0.956105,-0.029663,-0.122867,0.030879,-0.139252
426,0.2995489999999999,0.953791,-0.023403,-0.192387,0.166144,-0.159413
427,0.3068,0.951186,-0.033358,-0.132804,0.585801,-0.029966
428,0.311447,0.948797,-0.05272,0.017655,0.915598,0.377626
429,0.310204,0.948667,-0.061626,0.0371019999999999,0.265719,0.252971
430,0.307772,0.94854,-0.074441,0.233579,0.8872450000000001,0.0198449999999999
431,0.31059,0.94672,-0.085136,0.606845,0.616146,-0.011986
432,0.315877,0.944318,-0.092084,0.455333,0.185992,-0.1610599999999999
433,0.321327,0.941824,-0.098539,0.035668,0.169473,-0.207812
434,0.327117,0.939947,-0.097403,0.033066,0.1902869999999999,-0.025812
435,0.330558,0.93962,-0.088541,0.117547,0.158891,-0.0098319999999999
436,0.3306969999999999,0.940753,-0.074948,0.107948,-0.147692,0.051144
437,0.328878,0.942502,-0.059355,0.06573,-0.198224,0.045881
438,0.325144,0.94461,-0.044588,0.034308,-0.172759,0.044893
439,0.320569,0.946656,-0.0327579999999999,-0.151196,-0.171952,-0.019458
440,0.315338,0.948586,-0.027229,-0.191238,-0.17469,-0.034142
441,0.309357,0.950544,-0.027545,-0.225144,-0.2467469999999999,-0.05711
442,0.302269,0.952681,-0.032031,-0.170418,-0.428038,-0.076032
443,0.2947849999999999,0.954734,-0.03973,-0.150101,-0.477134,-0.087818
444,0.287906,0.956385,-0.049303,-0.070774,-0.5163369999999999,-0.0734539999999999
445,0.282097,0.957481,-0.060385,0.102379,-0.499839,-0.05961
446,0.2777409999999999,0.957964,-0.071824,0.182265,-0.4464439999999999,-0.051604
447,0.275955,0.957507,-0.08381,0.1915589999999999,-0.38695,-0.047614
448,0.277076,0.955997,-0.096399,0.069878,-0.202579,0.028299
449,0.2802199999999999,0.953693,-0.10927,0.030739,-0.132374,0.069841
450,0.285457,0.95011,-0.125694,0.0129129999999999,-0.0463019999999999,0.077858
451,0.295089,0.943964,-0.147815,-0.069488,0.464606,0.018192
452,0.309948,0.934928,-0.172732,0.054508,0.670709,-0.227338
453,0.321726,0.925568,-0.199526,0.18894,0.733978,-0.389906
454,0.325797,0.918871,-0.2225489999999999,0.097925,0.83647,-0.365616
455,0.329846,0.913832,-0.2368699999999999,0.175372,0.825472,-0.1827619999999999
456,0.336679,0.909461,-0.2439739999999999,0.039755,0.471414,-0.139693
457,0.3387739999999999,0.908744,-0.243746,0.013109,0.13305,-0.1418589999999999
458,0.332482,0.91282,-0.237089,-0.087838,-0.275552,-0.094912
459,0.320776,0.919554,-0.226978,-0.130911,-0.290541,-0.071759
460,0.308592,0.926944,-0.213403,-0.180937,-0.286609,-0.0132199999999999
461,0.298701,0.934192,-0.1950849999999999,-0.221888,-0.24303,0.004396
462,0.292111,0.940529,-0.1734099999999999,-0.227307,-0.221993,-0.009177
463,0.286363,0.946358,-0.1496569999999999,-0.195191,-0.336663,-0.024644
464,0.278343,0.95252,-0.123388,-0.1529309999999999,-0.408071,-0.0579169999999999
465,0.269429,0.958189,-0.096305,-0.0966539999999999,-0.495634,-0.0947809999999999
466,0.263786,0.961832,-0.072728,-0.063362,-0.399912,-0.126109
467,0.26177,0.963537,-0.055374,-0.064703,-0.352087,-0.18068
468,0.262992,0.963796,-0.043886,-0.135933,-0.3018389999999999,-0.133665
469,0.26759,0.962895,-0.034953,-0.193997,-0.279973,-0.12827
470,0.273694,0.961476,-0.025454,-0.187025,-0.006047,-0.064816
471,0.276399,0.960778,-0.02241,-0.163652,0.0937419999999999,-0.06896
472,0.274793,0.960847,-0.035413,-0.1876799999999999,1.03662,0.123776
473,0.264816,0.963007,-0.049831,-0.332351,0.4417319999999999,0.34338
474,0.248717,0.966216,-0.067521,-0.047499,0.920319,0.385209
475,0.238046,0.968016,-0.079191,0.7120270000000001,0.928819,0.173277
476,0.2467599999999999,0.96533,-0.085091,0.5666100000000001,-0.132368,-0.437125
477,0.261314,0.960669,-0.093932,0.152352,-0.132727,-0.205583
478,0.274947,0.957332,-0.0889539999999999,0.045763,0.093434,-0.212071
479,0.282155,0.956414,-0.075196,0.0435129999999999,0.132499,0.008531
480,0.279449,0.95875,-0.051972,0.166321,0.213507,0.02115
481,0.2746369999999999,0.96123,-0.0246009999999999,0.270789,-0.071643,-0.058376
482,0.268233,0.963351,-7.900000000000001e-05,0.269228,-0.079989,-0.0805179999999999
483,0.259399,0.965509,0.02232,0.047867,-0.227685,-0.075649
484,0.246315,0.968268,0.04219,-0.0614549999999999,-0.222372,-0.204772
485,0.231444,0.971239,0.055879,-0.048659,-0.168718,-0.228334
486,0.218506,0.973752,0.063674,-0.0208129999999999,-0.157407,-0.199721
487,0.208225,0.975487,0.071127,0.069469,-0.463387,-0.098028
488,0.200829,0.976527,0.07781,0.118461,-0.5778300000000001,-0.1032609999999999
489,0.197382,0.977117,0.079221,0.133703,-0.562688,-0.144315
490,0.19499,0.97818,0.071659,0.183108,-0.3602599999999999,-0.193211
491,0.1916119999999999,0.979961,0.054359,0.2671739999999999,-0.223765,-0.108848
492,0.187451,0.98166,0.034634,0.257038,-0.247544,-0.097653
493,0.18577,0.98249,0.013981,0.092322,-0.413292,0.036099
494,0.189161,0.981908,-0.008259,-0.046965,-0.439565,0.133793
495,0.199577,0.979167,-0.037341,-0.13015,-0.322261,0.13338
496,0.216701,0.973377,-0.074644,-0.2626449999999999,0.0989039999999999,-0.0161
497,0.2381469999999999,0.96474,-0.1120579999999999,-0.168978,0.4676329999999999,-0.116702
498,0.260784,0.953726,-0.149643,-0.090694,0.667413,-0.1045079999999999
499,0.27926,0.942831,-0.181876,0.214194,0.2093,-0.107751
500,0.286679,0.93476,-0.2098429999999999,0.198153,0.086496,-0.2112389999999999
501,0.291329,0.928347,-0.230853,0.137321,0.115598,-0.220059
502,0.299819,0.921909,-0.245329,-0.037795,0.159832,-0.219957
503,0.3109929999999999,0.916189,-0.252736,-0.059909,-0.012106,-0.19128
504,0.317844,0.913521,-0.253869,-0.105717,-0.055687,-0.178306
505,0.317153,0.915032,-0.2492469999999999,0.008653,0.003364,-0.145071
506,0.311592,0.920418,-0.236082,0.052223,-0.079445,-0.150622
507,0.30506,0.928273,-0.2127,0.041894,-0.109349,-0.1973339999999999
508,0.298811,0.936494,-0.183534,0.0272689999999999,-0.056718,-0.36885
509,0.2883949999999999,0.944656,-0.156354,-0.032215,-0.002045,-0.4657779999999999
510,0.273623,0.952279,-0.135238,-0.066134,-0.05587,-0.36818
511,0.259745,0.958364,-0.118594,0.0286769999999999,0.17718,-0.157697
512,0.2545469999999999,0.961481,-0.1037,-0.0680539999999999,0.23728,-0.319319
513,0.255988,0.962169,-0.093238,-0.139746,0.041173,-0.286248
514,0.260976,0.960874,-0.092766,-0.039739,-0.2356079999999999,0.0404589999999999
515,0.265026,0.956403,-0.122668,-0.06213,0.056674,0.084735
516,0.257984,0.945418,-0.199052,0.18832,2.1870130000000003,0.380159
517,0.239682,0.944444,-0.224879,0.384509,1.261809,1.077647
518,0.2382929999999999,0.946538,-0.2174289999999999,0.093342,-0.72231,-0.422464
519,0.261915,0.9371,-0.230735,0.136248,-0.388394,0.036185
520,0.283985,0.929626,-0.234823,0.227978,0.119736,0.034414
521,0.294465,0.927058,-0.2320469999999999,0.014769,0.8241620000000001,0.525932
522,0.284634,0.936086,-0.2066849999999999,-0.219829,0.43278,0.322713
523,0.268048,0.948231,-0.170295,-0.225872,0.0438949999999999,0.036155
524,0.261084,0.955467,-0.137514,0.177576,0.011101,-0.055373
525,0.262829,0.958727,-0.108424,0.215518,-0.264467,-0.097188
526,0.260152,0.962133,-0.081318,0.121058,-0.614904,-0.0394399999999999
527,0.2468219999999999,0.967475,-0.055346,-0.014949,-0.331656,0.041826
528,0.23317,0.971932,-0.031167,-0.007187,-0.289559,0.089654
529,0.220825,0.97528,-0.007562,-0.00299,-0.319304,0.084894
530,0.209537,0.977693,0.01418,-0.0306269999999999,-0.305605,0.035746
531,0.197515,0.979801,0.031136,-0.143621,-0.079074,-0.128045
532,0.181942,0.982356,0.043196,0.002735,0.015645,-0.017256
533,0.16483,0.984892,0.053019,0.2423199999999999,-0.069303,-0.065211
534,0.152989,0.986188,0.0634049999999999,0.3150739999999999,-0.037411,-0.15978
535,0.148359,0.986227,0.073057,0.338945,0.072504,-0.1738869999999999
536,0.146864,0.985933,0.079749,0.420855,0.076323,-0.086005
537,0.146816,0.985506,0.084939,0.479114,0.1608099999999999,-0.111199
538,0.150389,0.984947,0.085171,0.267289,0.347877,0.131
539,0.157907,0.984395,0.077615,0.212454,0.383067,0.180609
540,0.166946,0.984244,0.05819,0.14151,0.421396,0.2281099999999999
541,0.175296,0.984092,0.028766,-0.028369,0.178155,0.273694
542,0.181055,0.983442,-0.0073069999999999,-0.011576,0.281954,0.242292
543,0.187466,0.981391,-0.0415,-0.019696,0.331017,0.252361
544,0.195753,0.978179,-0.0695799999999999,0.040193,0.171129,0.094894
545,0.2024369999999999,0.974646,-0.0952799999999999,0.154451,0.126397,0.01035
546,0.204175,0.971433,-0.12093,0.1796589999999999,0.174441,0.029438
547,0.202368,0.968605,-0.1443809999999999,0.228983,0.226311,0.087985
548,0.198325,0.966181,-0.164792,0.160043,0.212576,0.158643
549,0.1931369999999999,0.96422,-0.181584,0.089761,0.212721,0.196523
550,0.191673,0.962411,-0.192412,0.04908,0.137656,0.252746
551,0.190636,0.961548,-0.197685,-0.065514,-0.162079,0.2045819999999999
552,0.190071,0.960651,-0.20253,-0.0865399999999999,-0.2157929999999999,0.203049
553,0.188569,0.959902,-0.207428,-0.122971,-0.345674,0.255569
554,0.183771,0.960062,-0.2109599999999999,-0.079065,-0.508784,0.337135
555,0.174319,0.961659,-0.2117079999999999,-0.050341,-0.537251,0.363091
556,0.162245,0.964543,-0.208154,-0.034269,-0.509313,0.366174
557,0.152839,0.967613,-0.200901,-0.045844,-0.404594,0.263783
558,0.149044,0.970453,-0.189745,-0.0872,-0.233896,0.174898
559,0.1486869999999999,0.973113,-0.175893,-0.095099,-0.159102,0.0866909999999999
560,0.147204,0.975352,-0.1643609999999999,-0.045734,0.010793,0.018258
561,0.1415819999999999,0.976888,-0.160126,0.044194,0.243144,-0.040863
562,0.135719,0.977284,-0.162763,0.059685,0.334728,-0.044893
563,0.135287,0.975895,-0.171237,0.125257,0.319103,-0.141766
564,0.141363,0.973401,-0.180287,0.152018,0.18082,-0.378261
565,0.154075,0.969752,-0.189309,0.2495969999999999,-0.035044,-0.29499
566,0.165492,0.964462,-0.2059679999999999,0.438878,0.074082,0.0174
567,0.172402,0.960103,-0.2201739999999999,0.396873,0.2938489999999999,0.150091
568,0.1794319999999999,0.958177,-0.222929,0.107769,0.599409,0.327711
569,0.183566,0.958277,-0.219103,-0.0602899999999999,0.560552,0.303255
570,0.182868,0.958795,-0.217411,-0.154548,0.282171,0.282841
571,0.1713039999999999,0.960537,-0.219135,-0.15719,-0.3070489999999999,0.309467
572,0.155289,0.961691,-0.225904,0.068008,-0.360052,0.3728
573,0.141818,0.963734,-0.226054,0.232282,-0.05634,0.346415
574,0.13329,0.967415,-0.215263,0.326823,0.318443,0.238914
575,0.132424,0.971558,-0.196305,0.2782969999999999,0.395233,0.125763
576,0.1355839999999999,0.974907,-0.176549,0.150091,0.188926,0.045842
577,0.140147,0.977154,-0.159764,0.131307,-0.120572,0.138448
578,0.1422119999999999,0.979331,-0.143815,0.092193,-0.187522,0.154573
579,0.1436599999999999,0.981699,-0.124998,0.067736,-0.209711,0.146757
580,0.144165,0.98414,-0.103349,-0.023468,-0.258691,0.1687779999999999
581,0.140983,0.986688,-0.081032,-0.027442,-0.124231,0.1035089999999999
582,0.1345329999999999,0.989011,-0.061276,-0.01907,-0.094174,0.057339
583,0.126073,0.99096,-0.045823,0.050166,-0.2002799999999999,0.072435
584,0.117754,0.992496,-0.032871,0.0877049999999999,-0.282413,0.101536
585,0.1111369999999999,0.993598,-0.020209,0.098092,-0.29151,0.096244
586,0.10507,0.994447,-0.0054909999999999,0.113603,-0.1572589999999999,0.0222449999999999
587,0.097612,0.99517,0.01017,0.181624,0.03402,-0.044929
588,0.088647,0.995757,0.024565,0.201086,0.069794,-0.047697
589,0.0809039999999999,0.996051,0.036479,0.241728,-0.036579,0.007329
590,0.075012,0.996234,0.0434079999999999,0.407684,-0.012638,0.0578799999999999
591,0.073568,0.996089,0.048886,0.463542,0.068044,0.0141479999999999
592,0.0780059999999999,0.99555,0.05281,0.312695,0.126825,0.01622
593,0.08572,0.994917,0.052796,0.351979,0.2126489999999999,-0.044785
594,0.099003,0.993962,0.047262,0.317165,0.180874,0.107539
595,0.116567,0.992654,0.032309,0.247004,0.1434079999999999,0.258692
596,0.136998,0.990557,0.004842,-0.027989,0.148146,0.289561
597,0.15783,0.986849,-0.034832,-0.093331,0.2218909999999999,0.285076
598,0.173624,0.981706,-0.0781169999999999,-0.025705,0.417433,0.396156
599,0.185661,0.975915,-0.11452,0.021263,0.3754949999999999,0.286303
600,0.198124,0.969359,-0.145205,0.129375,0.3715219999999999,0.249926
601,0.207061,0.962807,-0.173565,0.15558,0.426415,0.220196
602,0.213238,0.956526,-0.198957,0.100711,0.419176,0.194029
603,0.21777,0.95062,-0.221117,-0.107144,0.260531,0.140917
604,0.221236,0.944335,-0.243477,-0.033629,0.164902,0.23362
605,0.220555,0.939363,-0.262582,-0.029072,0.122542,0.23974
606,0.215586,0.935475,-0.28001,0.005239,0.220592,0.110928
607,0.210562,0.932443,-0.293614,0.125619,-0.056024,0.2226449999999999
608,0.20642,0.929951,-0.304266,0.113602,-0.420658,0.2712
609,0.202247,0.928982,-0.309975,-0.005653,-0.6328550000000001,0.271919
610,0.19616,0.930267,-0.310033,-0.103768,-0.6835479999999999,0.262594
611,0.188875,0.933065,-0.306125,-0.2049119999999999,-0.69248,0.280964
612,0.182372,0.93645,-0.299663,-0.237456,-0.715259,0.298778
613,0.178746,0.940194,-0.289967,-0.240163,-0.692285,0.302556
614,0.178508,0.944465,-0.275893,-0.217784,-0.597999,0.265349
615,0.180455,0.948707,-0.259592,-0.1776319999999999,-0.5211859999999999,0.206339
616,0.183164,0.951828,-0.2459059999999999,-0.161528,-0.348084,0.1030069999999999
617,0.186883,0.953371,-0.236971,-0.052652,-0.022767,0.0166639999999999
618,0.194636,0.953075,-0.231864,-0.020579,0.028141,0.0194
619,0.207138,0.951645,-0.226852,0.075913,-0.047226,0.076858
620,0.22213,0.950464,-0.217423,0.074257,-0.049295,0.072586
621,0.235988,0.950437,-0.202421,0.029454,0.024905,0.0662669999999999
622,0.243471,0.951493,-0.188088,-0.022494,0.959441,0.168465
623,0.24136,0.950609,-0.195148,0.0782809999999999,1.265028,0.336017
624,0.232262,0.948383,-0.215914,0.085975,1.267651,0.503817
625,0.220113,0.949119,-0.225209,0.06312,-0.190574,0.330189
626,0.2199849999999999,0.949444,-0.223962,0.09813,-0.239666,0.117319
627,0.22973,0.944638,-0.234261,0.1564849999999999,0.4369689999999999,-0.090995
628,0.23656,0.941874,-0.238555,0.405728,0.115652,-0.064912
629,0.242077,0.941367,-0.234992,0.074085,-0.000754,-0.0077909999999999
630,0.250638,0.939671,-0.2327969999999999,0.03464,-0.054188,0.068932
631,0.259831,0.939117,-0.2248139999999999,0.021938,-0.0997919999999999,0.1096099999999999
632,0.266031,0.940788,-0.210096,0.0902309999999999,-0.0946419999999999,0.084516
633,0.2661449999999999,0.944394,-0.193083,0.2172989999999999,0.008228,0.096007
634,0.261056,0.948866,-0.177475,0.1360849999999999,0.040499,0.083618
635,0.2539119999999999,0.953318,-0.163427,0.00117,-0.04217,0.054921
636,0.249148,0.956304,-0.152976,-0.096819,-0.1894279999999999,0.07682
637,0.244691,0.958069,-0.149079,-0.16739,-0.436509,0.0299529999999999
638,0.241787,0.958572,-0.150576,-0.115246,-0.584,0.017275
639,0.238528,0.958256,-0.157623,-0.054965,-0.673405,0.00769
640,0.235396,0.957348,-0.16754,0.055803,-0.565487,0.082229
641,0.233071,0.955597,-0.180299,0.186683,-0.338196,0.026719
642,0.2308909999999999,0.952737,-0.197426,0.26029,-0.199685,0.122918
643,0.229136,0.949417,-0.214711,0.1993609999999999,-0.071548,0.276371
644,0.228548,0.945206,-0.233125,0.010298,0.108047,0.3259289999999999
645,0.233895,0.937905,-0.2561719999999999,-0.077477,0.431984,0.262565
646,0.244594,0.927396,-0.283032,0.06461,0.6757989999999999,0.0227169999999999
647,0.255504,0.915245,-0.311514,0.119313,0.8467950000000001,-0.234857
648,0.262286,0.903458,-0.339065,0.032483,0.806823,-0.187119
649,0.266975,0.8937219999999999,-0.36053,0.134805,0.6602640000000001,-0.13889
650,0.268935,0.886648,-0.3762,0.292253,0.505778,-0.0616049999999999
651,0.270773,0.883473,-0.382302,0.119806,0.212688,0.0264209999999999
652,0.268946,0.8866350000000001,-0.376222,0.030172,-0.063591,0.055955
653,0.262277,0.894653,-0.361668,-0.170785,-0.331832,0.1097
654,0.253197,0.904328,-0.343626,-0.186882,-0.4164279999999999,0.133024
655,0.24431,0.914186,-0.323377,-0.198228,-0.5723739999999999,0.16609
656,0.23671,0.923713,-0.301194,-0.2269139999999999,-0.673179,0.163041
657,0.229773,0.932889,-0.277343,-0.199224,-0.774228,0.136428
658,0.221358,0.942229,-0.251399,-0.162184,-0.708388,0.071787
659,0.212839,0.950657,-0.225713,-0.094568,-0.404026,0.006841
660,0.2092929999999999,0.956176,-0.204744,-0.049167,-0.097975,-0.0292339999999999
661,0.212028,0.958608,-0.190028,-0.081244,-0.029775,0.031794
662,0.218815,0.959515,-0.177333,-0.221088,-0.084377,0.043101
663,0.226226,0.960093,-0.16443,-0.25508,0.094884,0.009996
664,0.231301,0.959108,-0.163113,-0.277062,0.5873550000000001,0.16116
665,0.235605,0.955678,-0.176538,0.042883,0.971584,0.382761
666,0.234421,0.953036,-0.191742,0.179032,0.552076,0.459045
667,0.2353239999999999,0.951111,-0.200018,0.4535189999999999,0.58815,0.00263
668,0.245384,0.945796,-0.212728,0.450798,0.300741,-0.050288
669,0.251499,0.943058,-0.217683,0.2585719999999999,-0.076511,-0.129393
670,0.248919,0.943755,-0.217626,0.079206,-0.006545,-0.038905
671,0.249292,0.944925,-0.212049,0.026816,0.159826,0.061277
672,0.256314,0.945332,-0.2016089999999999,0.0795169999999999,0.204403,0.081813
673,0.266381,0.945237,-0.188584,0.169516,-0.048096,0.151566
674,0.274898,0.945268,-0.175769,0.135365,-0.120225,0.176867
675,0.278961,0.946379,-0.162921,0.077744,-0.19203,0.1897
676,0.276657,0.948766,-0.152642,-0.123169,-0.2992599999999999,0.108864
677,0.271157,0.951108,-0.147861,-0.146218,-0.336362,0.0549049999999999
678,0.265345,0.952504,-0.149413,-0.160975,-0.363331,0.028868
679,0.260779,0.952771,-0.15562,-0.1005,-0.48457,0.006481
680,0.258015,0.951959,-0.164917,-0.073277,-0.4994439999999999,-0.0282589999999999
681,0.256544,0.94993,-0.178361,-0.0187659999999999,-0.48501,-0.041503
682,0.255992,0.946863,-0.194716,0.238438,-0.257013,0.089614
683,0.256576,0.943157,-0.211231,0.293641,-0.188717,0.136722
684,0.257431,0.939476,-0.226075,0.3009179999999999,-0.189476,0.168519
685,0.257396,0.936155,-0.2394909999999999,0.223516,-0.000578,0.163105
686,0.257436,0.931602,-0.2565929999999999,0.073771,0.2893,0.17975
687,0.261719,0.9243,-0.277792,0.017334,0.421266,0.114218
688,0.271121,0.914522,-0.300229,0.080534,0.491026,-0.208941
689,0.281,0.902155,-0.327339,0.160055,0.774404,-0.30674
690,0.287746,0.8895350000000001,-0.354861,0.21468,0.943031,-0.242429
691,0.289917,0.882232,-0.37096,0.185318,0.855668,-0.075772
692,0.2867969999999999,0.881,-0.376276,0.049033,0.36308,-0.059683
693,0.281325,0.883685,-0.374103,0.113587,-0.204058,0.101413
694,0.279292,0.8886209999999999,-0.363791,-0.055949,-0.226054,0.0105659999999999
695,0.274625,0.89675,-0.347011,-0.155454,-0.36048,0.050793
696,0.266458,0.906206,-0.32831,-0.184991,-0.4176649999999999,0.1441059999999999
697,0.257581,0.915308,-0.309611,-0.200727,-0.485087,0.2013039999999999
698,0.249867,0.923636,-0.290618,-0.217579,-0.5584020000000001,0.202926
699,0.242056,0.932139,-0.2693,-0.204306,-0.562846,0.196821
700,0.234546,0.9407,-0.245088,-0.188052,-0.4503279999999999,0.150483
701,0.229767,0.947564,-0.222095,-0.129821,-0.378625,0.074421
702,0.229962,0.951825,-0.202835,-0.075513,-0.301435,-0.033416
703,0.234681,0.953604,-0.188572,-0.065125,-0.1116849999999999,-0.1094619999999999
704,0.243528,0.953293,-0.17867,-0.079786,0.052444,-0.069194
705,0.254181,0.95216,-0.169646,-0.0106349999999999,0.082233,-0.000932
706,0.262471,0.951447,-0.160793,-0.059025,0.150604,0.014843
707,0.263156,0.951228,-0.160967,-0.113559,0.7402850000000001,0.057481
708,0.260001,0.950478,-0.17026,-0.044181,1.08651,0.253924
709,0.252869,0.949998,-0.183186,0.3069909999999999,0.830535,0.384236
710,0.250406,0.950158,-0.185723,0.514425,0.282767,0.006462
711,0.255077,0.949516,-0.182623,0.464177,0.309013,-0.107706
712,0.261296,0.947929,-0.182073,0.22993,0.204353,-0.085566
713,0.2680619999999999,0.946444,-0.179949,-0.04388,-0.047671,-0.037534
714,0.273801,0.945876,-0.174207,-0.011334,0.051469,0.041486
715,0.277761,0.94668,-0.163221,0.069727,0.135717,0.152631
716,0.2806349999999999,0.948399,-0.147575,0.083729,-0.0219919999999999,0.165382
717,0.28108,0.950544,-0.132121,0.060458,-0.13046,0.155467
718,0.277818,0.95289,-0.121708,-0.034151,-0.239358,0.121647
719,0.2721119999999999,0.955292,-0.115614,-0.081972,-0.288331,0.073637
720,0.266837,0.956773,-0.115668,-0.101035,-0.35756,-0.009149
721,0.262751,0.956916,-0.123568,-0.0499519999999999,-0.4826109999999999,-0.010846
722,0.259242,0.955867,-0.13823,-0.014536,-0.515483,0.043626
723,0.2561219999999999,0.954172,-0.154766,-0.005298,-0.526025,0.104748
724,0.2534079999999999,0.951957,-0.171923,0.083338,-0.357871,0.024065
725,0.250845,0.949258,-0.189686,0.160807,-0.265954,0.1186869999999999
726,0.248083,0.946767,-0.20514,0.208765,-0.099462,0.171144
727,0.2483659999999999,0.943711,-0.218444,0.088762,-0.152314,0.2414239999999999
728,0.249228,0.93979,-0.233826,-0.056388,0.0797409999999999,0.19754
729,0.249707,0.934298,-0.254418,-0.032971,0.375868,0.16047
730,0.254603,0.925643,-0.279922,0.03687,0.515336,0.017486
731,0.263554,0.913522,-0.309859,0.005428,0.60543,-0.130662
732,0.272504,0.9005110000000001,-0.338846,0.06061,0.4575979999999999,-0.134756
733,0.275652,0.891826,-0.358689,0.206907,0.619527,-0.275344
734,0.271991,0.8878860000000001,-0.3710449999999999,0.347623,1.015877,-0.202655
735,0.268759,0.886975,-0.375551,0.227091,0.670459,-0.104369
736,0.267984,0.888901,-0.371529,0.024436,0.251953,-0.06327
737,0.26519,0.8952549999999999,-0.358033,-0.045845,-0.177207,-0.07286
738,0.256426,0.905082,-0.3392159999999999,-0.05501,-0.319404,0.001966
739,0.244975,0.915308,-0.319676,-0.074641,-0.392862,0.088139
740,0.2341469999999999,0.924814,-0.2998159999999999,-0.13147,-0.408151,0.145626
741,0.227138,0.933621,-0.277046,-0.154522,-0.442288,0.186546
742,0.221728,0.942344,-0.250636,-0.13367,-0.563819,0.154674
743,0.215612,0.950534,-0.2235869999999999,-0.152975,-0.547183,0.139923
744,0.209417,0.957297,-0.1993,-0.167883,-0.551017,0.142232
745,0.205598,0.962299,-0.178054,-0.157838,-0.497776,0.135345
746,0.2077889999999999,0.965007,-0.15993,-0.100245,-0.3468429999999999,0.001926
747,0.215029,0.965658,-0.145813,-0.086504,-0.308614,-0.054398
748,0.22374,0.965148,-0.135731,-0.072434,-0.218017,-0.071697
749,0.2344909999999999,0.963652,-0.127995,-0.059885,-0.09767,-0.07687
750,0.247348,0.961381,-0.1206609999999999,-0.075961,-0.073747,-0.0996
751,0.25856,0.958819,-0.117501,-0.0361019999999999,0.229505,-0.097389
752,0.261765,0.95659,-0.128095,0.064209,1.129882,0.127194
753,0.258619,0.954916,-0.145753,-0.006468,1.382486,0.434312
754,0.249516,0.955003,-0.160324,0.312786,0.177031,0.211608
755,0.244498,0.955775,-0.163428,0.4862149999999999,0.0737049999999999,0.01229
756,0.247586,0.954741,-0.164817,0.455005,0.033632,0.0305089999999999
757,0.256588,0.952804,-0.162234,0.255589,0.091691,-0.083463
758,0.266685,0.950773,-0.157807,-0.0951149999999999,0.273074,-0.068923
759,0.27366,0.949182,-0.155422,-0.103647,0.296439,0.031902
760,0.275627,0.949603,-0.149253,0.062386,0.23512,0.127097
761,0.274647,0.951436,-0.139033,0.108425,-0.126729,0.104746
762,0.27138,0.953689,-0.129697,0.159788,-0.1620329999999999,0.1067029999999999
763,0.267479,0.955886,-0.121364,0.044213,-0.338561,0.100307
764,0.264717,0.957362,-0.115647,0.046975,-0.340037,0.09459
765,0.261946,0.957962,-0.116978,-0.030119,-0.426011,-0.057034
766,0.257429,0.958318,-0.123888,-0.0286839999999999,-0.492162,-0.002928
767,0.250704,0.958676,-0.134458,-0.082064,-0.510251,-0.030306
768,0.244425,0.958002,-0.1499309999999999,-0.002573,-0.476404,0.02603
769,0.239217,0.955892,-0.170404,0.182139,-0.333882,0.195535
770,0.235998,0.9523,-0.193445,0.243921,-0.275115,0.304529
771,0.236138,0.946766,-0.218778,-0.031365,0.033458,0.20297
772,0.242176,0.937451,-0.250057,-0.157672,0.32088,0.096172
773,0.253114,0.924737,-0.28423,-0.209596,0.4528109999999999,0.056035
774,0.264601,0.910791,-0.316921,0.0749679999999999,0.5239020000000001,-0.093236
775,0.271125,0.8996700000000001,-0.3421659999999999,0.185525,0.472156,-0.097333
776,0.2701449999999999,0.892926,-0.360136,0.159436,0.488818,-0.078646
777,0.268376,0.888906,-0.371233,0.098216,0.4100899999999999,-0.006773
778,0.268363,0.8882469999999999,-0.372816,-0.014396,0.356596,0.0647409999999999
779,0.27025,0.891725,-0.363021,-0.095186,-0.095476,0.02304
780,0.272025,0.898214,-0.3452639999999999,-0.062751,-0.222509,-0.0124319999999999
781,0.273838,0.904897,-0.325833,-0.079624,-0.372533,0.0410279999999999
782,0.275025,0.911203,-0.306695,-0.116548,-0.4788449999999999,0.072183
783,0.273644,0.91806,-0.28684,-0.137184,-0.527145,0.077963
784,0.26957,0.925839,-0.264849,-0.127648,-0.457196,0.016085
785,0.263427,0.933637,-0.242733,-0.103957,0.012484,-0.031574
786,0.258384,0.939977,-0.222873,-0.092521,0.190669,-0.029263
787,0.256605,0.944715,-0.204102,-0.082518,0.008639,-0.024277
788,0.259214,0.947388,-0.187763,-0.069486,0.1531829999999999,-0.042874
789,0.265556,0.946364,-0.184025,-0.022575,0.278123,-0.008846
790,0.272467,0.942485,-0.1935859999999999,0.015527,0.5031180000000001,0.2115449999999999
791,0.275353,0.939352,-0.204425,0.067832,0.618479,0.439075
792,0.271291,0.940605,-0.204093,0.134639,0.453438,0.297264
793,0.268558,0.942288,-0.199904,0.301327,0.245716,0.09207
794,0.272519,0.941421,-0.198623,0.201159,0.022584,0.030273
795,0.280858,0.939289,-0.197091,-0.061558,-0.1175119999999999,-0.022346
796,0.288997,0.937243,-0.1950569999999999,-0.10757,0.2365239999999999,0.002369
797,0.292471,0.936418,-0.193839,0.1738839999999999,0.615264,0.0922159999999999
798,0.291682,0.938141,-0.186558,0.277593,0.133529,0.081028
799,0.290027,0.94034,-0.177862,0.28114,-0.09656,0.100958
800,0.288137,0.942749,-0.1679,0.155802,-0.28833,0.142861
801,0.285138,0.945669,-0.156195,-0.000532,-0.314657,0.1112269999999999
802,0.280314,0.948725,-0.146069,-0.0926,-0.176203,0.071698
803,0.274167,0.951278,-0.141044,-0.072644,-0.0546559999999999,0.120674
804,0.267842,0.953008,-0.141516,-0.071186,-0.12647,0.1159579999999999
805,0.261184,0.954116,-0.146412,-0.059753,-0.312713,0.07468
806,0.254821,0.954476,-0.155026,-0.008804,-0.434334,0.026455
807,0.2496,0.954,-0.166054,0.052006,-0.401403,0.07148
808,0.24663,0.952348,-0.17944,0.190229,-0.349747,0.094891
809,0.246115,0.949687,-0.193681,0.26484,-0.275615,-0.075103
810,0.245781,0.946871,-0.207409,0.35215,-0.156588,-0.0732
811,0.24298,0.944713,-0.220157,0.275163,-0.1882589999999999,0.038776
812,0.238085,0.94254,-0.234362,0.006559,-0.053151,0.182101
813,0.233296,0.93865,-0.253972,-0.119389,0.190669,0.217107
814,0.23006,0.932707,-0.277707,-0.118641,0.327059,0.094495
815,0.230372,0.924556,-0.303508,-0.077571,0.400685,0.004573
816,0.231842,0.914976,-0.330243,-0.019104,0.592867,-0.082049
817,0.23275,0.906887,-0.35125,0.094322,0.4694859999999999,-0.042992
818,0.233473,0.900954,-0.365739,0.163881,0.637071,0.020692
819,0.2378429999999999,0.896975,-0.372639,0.091824,0.459211,0.043187
820,0.241736,0.897015,-0.370028,-0.110266,-0.0917019999999999,0.046587
821,0.238675,0.901634,-0.360671,-0.069654,-0.255104,0.067794
822,0.2292989999999999,0.908872,-0.348377,-0.054754,-0.302732,0.089969
823,0.218377,0.916879,-0.334122,-0.074472,-0.397073,0.166428
824,0.208218,0.92474,-0.31858,-0.09393,-0.436154,0.135154
825,0.20102,0.932311,-0.300632,-0.103242,-0.439025,0.0939059999999999
826,0.197619,0.939553,-0.279604,-0.075763,-0.176125,-0.070112
827,0.19588,0.94583,-0.258898,-0.063556,-0.035781,-0.1060619999999999
828,0.194576,0.950604,-0.241832,-0.05711,0.026294,-0.0658919999999999
829,0.198829,0.952976,-0.228681,-0.1037049999999999,0.026409,-0.02843
830,0.208652,0.953682,-0.2166719999999999,-0.130207,-0.067177,-0.022754
831,0.2217239999999999,0.953454,-0.20434,-0.120391,-0.086312,-0.019537
832,0.233786,0.952404,-0.195602,-0.000541,0.076175,0.06604
833,0.2403739999999999,0.950873,-0.195069,0.157804,0.505426,0.20543
834,0.2414329999999999,0.949723,-0.199316,0.1665869999999999,0.566512,0.276494
835,0.236598,0.949692,-0.205173,0.162679,0.518737,0.262424
836,0.230282,0.94992,-0.211218,0.413944,0.629472,0.039755
837,0.2311679999999999,0.948942,-0.214617,0.525347,0.379885,-0.1047039999999999
838,0.23626,0.948209,-0.2123,0.276725,0.093875,-0.097499
839,0.240642,0.948416,-0.2063699999999999,0.139958,0.011286,0.018687
840,0.2459469999999999,0.949184,-0.196342,0.156092,0.206578,0.085395
841,0.249109,0.951081,-0.182698,0.152441,0.211776,0.168798
842,0.249019,0.954384,-0.164713,0.104573,0.01757,0.164774
843,0.244476,0.958171,-0.14876,0.1240839999999999,-0.035991,0.185747
844,0.237175,0.9619,-0.135962,0.075295,-0.131959,0.133643
845,0.229028,0.964971,-0.12793,0.013647,-0.2405449999999999,0.02089
846,0.2200679999999999,0.967123,-0.127407,-0.002905,-0.313192,-0.065586
847,0.210504,0.968644,-0.131929,0.015707,-0.411866,-0.048201
848,0.201222,0.969723,-0.13833,0.078731,-0.497235,-0.009925
849,0.192928,0.97029,-0.1459609999999999,0.116368,-0.578871,0.030208
850,0.185463,0.970544,-0.153739,0.133904,-0.62095,-0.0291829999999999
851,0.178585,0.970546,-0.161665,0.182713,-0.542751,-0.0004599999999999
852,0.171882,0.970573,-0.168622,0.200539,-0.493903,0.021939
853,0.16543,0.971014,-0.172492,0.159552,-0.386022,0.09986
854,0.1595619999999999,0.971537,-0.175057,0.11563,-0.258417,0.196953
855,0.152344,0.971862,-0.179625,0.0879669999999999,-0.080916,0.17903
856,0.145202,0.970822,-0.190814,-0.024963,0.600223,0.173876
857,0.143499,0.967214,-0.209511,0.034006,0.717997,0.178749
858,0.149318,0.960796,-0.233592,0.046376,0.7345470000000001,-0.0129139999999999
859,0.158458,0.952814,-0.258895,0.1745799999999999,0.715704,-0.176011
860,0.166543,0.945779,-0.278848,0.283393,0.718299,-0.0565559999999999
861,0.171466,0.94162,-0.289728,0.3080719999999999,0.519303,-0.078803
862,0.173992,0.9404,-0.292173,0.202518,0.3445269999999999,-0.057803
863,0.175284,0.941833,-0.286735,0.136071,0.2812969999999999,-0.025215
864,0.1776859999999999,0.944721,-0.275535,-0.020566,-0.154804,0.084266
865,0.176793,0.948932,-0.26127,-0.113316,-0.341068,0.150903
866,0.170382,0.954073,-0.246383,-0.124743,-0.418566,0.157256
867,0.160833,0.959565,-0.2309929999999999,-0.066701,-0.599076,0.13239
868,0.151533,0.965131,-0.2134199999999999,-0.08557,-0.5924510000000001,0.1161599999999999
869,0.144153,0.970149,-0.194988,-0.0975679999999999,-0.567728,0.127651
870,0.139368,0.9745,-0.1758279999999999,-0.09318,-0.572141,0.1094369999999999
871,0.136327,0.978503,-0.154711,-0.041158,-0.372256,0.0700549999999999
872,0.1321,0.982295,-0.132798,-0.080494,-0.078593,-0.046356
873,0.126104,0.985369,-0.1146,-0.134344,0.074323,-0.109643
874,0.1205789999999999,0.987186,-0.104459,-0.0509839999999999,0.192898,-0.225512
875,0.118626,0.987469,-0.104026,0.118465,-0.024807,-0.287697
876,0.122821,0.98639,-0.109258,0.140408,-0.069597,-0.305048
877,0.13228,0.984029,-0.119071,0.128646,0.2224219999999999,-0.097177
878,0.14018,0.979138,-0.147063,0.232028,0.8161649999999999,0.07936
879,0.142038,0.973113,-0.18129,0.366034,1.195496,0.316941
880,0.132673,0.970843,-0.199631,0.1701069999999999,0.319334,0.135849
881,0.123519,0.968693,-0.215332,0.453721,0.282574,0.261216
882,0.12755,0.966209,-0.223969,0.5647409999999999,0.409066,0.170517
883,0.134599,0.966974,-0.216414,0.320098,0.302802,-0.1164109999999999
884,0.136941,0.967848,-0.210966,0.143653,0.30179,0.084623
885,0.135239,0.969223,-0.2056889999999999,0.148162,0.133698,0.231675
886,0.132774,0.972906,-0.189246,0.193215,0.053445,0.22454
887,0.131912,0.977869,-0.16236,0.225953,-0.110758,0.135016
888,0.127263,0.983036,-0.13204,0.142405,-0.245243,0.132193
889,0.118102,0.987743,-0.102007,0.024094,-0.330058,0.165682
890,0.106834,0.991534,-0.073723,-0.060813,-0.336108,0.136269
891,0.093569,0.994449,-0.0480149999999999,-0.070314,-0.285891,0.104152
892,0.078543,0.996594,-0.0249,-0.0345829999999999,-0.300259,0.065672
893,0.063674,0.99795,-0.005525,-0.015593,-0.353693,0.009935
894,0.049363,0.998717,0.010828,-0.012269,-0.329756,-0.043649
895,0.034355,0.999089,0.025103,0.100151,-0.201283,0.0301649999999999
896,0.020245,0.99915,0.03576,0.298923,-0.088002,-0.0277339999999999
897,0.009683,0.998939,0.044887,0.495367,0.048378,-0.147899
898,0.002588,0.99857,0.053292,0.624869,0.192989,-0.207726
899,-0.003668,0.998053,0.06217,0.621359,0.34469,-0.107031
900,-0.006696,0.997616,0.068603,0.623976,0.41634,-0.0007019999999999
901,-0.001787,0.997366,0.072429,0.5914470000000001,0.407007,0.174794
902,0.009899,0.997502,0.069856,0.4746899999999999,0.39799,0.239226
903,0.025679,0.997888,0.059573,0.300554,0.339606,0.220319
904,0.040511,0.998358,0.0403629999999999,-0.173552,0.1632019999999999,0.113781
905,0.050903,0.998639,0.01084,-0.214691,0.176623,0.181101
906,0.057102,0.998054,-0.024842,-0.104251,0.230233,0.262314
907,0.061446,0.99632,-0.059674,0.276475,0.252109,0.183697
908,0.06472,0.993746,-0.090945,0.512443,0.221373,0.12247
909,0.064305,0.991253,-0.115205,0.506907,0.193485,0.127992
910,0.063216,0.989253,-0.131805,0.241639,0.096028,0.113113
911,0.06461,0.987402,-0.1444069999999999,0.193172,-0.0244199999999999,0.12335
912,0.068342,0.98562,-0.1545109999999999,0.184176,-0.048166,0.169388
913,0.0709149999999999,0.98454,-0.160133,0.124474,-0.214871,0.129218
914,0.067295,0.984352,-0.162826,0.147915,-0.319542,0.172516
915,0.059696,0.984392,-0.165528,0.150784,-0.336702,0.2119909999999999
916,0.0510269999999999,0.984474,-0.167924,0.1030869999999999,-0.347267,0.292085
917,0.044129,0.984789,-0.1680309999999999,0.05313,-0.389208,0.326188
918,0.039241,0.985686,-0.163934,0.019948,-0.403136,0.323038
919,0.036775,0.986957,-0.156698,-0.011399,-0.297962,0.234563
920,0.036905,0.988193,-0.148675,-0.052149,-0.233188,0.17553
921,0.0394589999999999,0.989402,-0.139706,-0.050568,-0.227134,0.15675
922,0.043331,0.990463,-0.130751,0.026646,-0.029495,-0.004488
923,0.045287,0.991461,-0.12225,0.150117,0.076761,-0.117497
924,0.044244,0.992233,-0.116219,0.223227,0.1150819999999999,-0.180748
925,0.042238,0.992238,-0.116916,0.409544,0.1628369999999999,-0.290356
926,0.043755,0.991125,-0.125488,0.447166,0.034922,-0.2738489999999999
927,0.0517139999999999,0.989626,-0.134002,0.441756,-0.01755,-0.2322239999999999
928,0.0656559999999999,0.98864,-0.135171,0.395129,-0.195915,-0.044898
929,0.073837,0.987762,-0.137346,0.241898,0.194672,0.170366
930,0.0782289999999999,0.987087,-0.139752,0.108524,0.624012,0.401882
931,0.077753,0.987289,-0.138586,-0.020105,1.105042,0.351538
932,0.065363,0.988552,-0.135955,-0.114939,0.429036,0.239929
933,0.047936,0.990082,-0.132024,-0.024895,-0.388779,0.163609
934,0.032335,0.990258,-0.135399,0.148634,-0.473108,0.166894
935,0.024886,0.989605,-0.141612,0.364396,-0.33015,0.2259469999999999
936,0.025782,0.990067,-0.138179,0.524786,0.074371,0.143566
937,0.032555,0.991642,-0.124805,0.561012,0.281933,0.074252
938,0.041366,0.99373,-0.103825,0.346146,0.087416,0.047108
939,0.049276,0.995499,-0.08089,0.164072,-0.040223,0.061832
940,0.0540419999999999,0.996747,-0.05971,0.069341,-0.077176,0.0979179999999999
941,0.056944,0.997588,-0.039576,0.026644,-0.113921,0.129328
942,0.061625,0.997906,-0.01938,-0.010768,-0.199322,0.12964
943,0.064438,0.997916,0.001276,0.026947,-0.160361,0.100424
944,0.063185,0.997765,0.021516,0.102251,-0.071373,0.018843
945,0.05939,0.99749,0.038421,0.164701,-0.1062849999999999,-0.024276
946,0.05497,0.997214,0.050316,0.180213,-0.212546,-0.015648
947,0.051111,0.9969,0.0597279999999999,0.100928,-0.256132,-0.0085799999999999
948,0.047517,0.996448,0.069449,0.10202,-0.216205,-0.020865
949,0.043292,0.995845,0.080045,0.101163,-0.0641279999999999,-0.121183
950,0.038775,0.995102,0.090875,0.115217,-0.025238,-0.167001
951,0.033862,0.994493,0.099132,0.210904,0.05136,-0.13969
952,0.027691,0.994153,0.104316,0.440952,-0.027967,-0.102836
953,0.02386,0.993434,0.111841,0.4551439999999999,-0.0271709999999999,-0.133539
954,0.023202,0.992243,0.122084,0.376975,0.020849,-0.163847
955,0.023803,0.990867,0.132684,0.31595,0.071099,-0.163491
956,0.025151,0.989809,0.140124,0.354854,0.135588,-0.156832
957,0.029999,0.98971,0.139869,0.296707,0.188726,-0.150566
958,0.039309,0.990805,0.129418,0.247007,0.163828,0.199653
959,0.053323,0.992629,0.1087829999999999,0.22335,0.180162,0.247602
960,0.07408,0.993841,0.082346,0.1707779999999999,0.1602869999999999,0.2277739999999999
961,0.097823,0.993823,0.052307,0.003434,0.2380489999999999,0.159683
962,0.117345,0.992821,0.0229669999999999,0.025416,0.283821,0.130216
963,0.133288,0.991068,-0.003218,0.0926179999999999,0.285635,0.0967539999999999
964,0.147235,0.988695,-0.028218,0.141339,0.348967,0.083669
965,0.159374,0.985847,-0.051933,0.079533,0.270211,0.071297
966,0.1721609999999999,0.982273,-0.0741,0.120182,0.182491,0.036411
967,0.183921,0.978588,-0.092356,0.041299,0.099186,0.019312
968,0.18957,0.975691,-0.109918,0.052389,0.159685,0.032174
969,0.192018,0.973206,-0.126458,0.059294,0.071792,0.125146
970,0.195815,0.97077,-0.138763,0.031907,-0.051534,0.111694
971,0.203226,0.968173,-0.146052,-0.036372,-0.26633,0.044398
972,0.20935,0.966104,-0.151023,-0.076416,-0.437509,0.019141
973,0.210138,0.965045,-0.156596,-0.1042109999999999,-0.44768,0.062175
974,0.206738,0.96498,-0.161443,-0.137158,-0.467574,0.132177
975,0.204542,0.965349,-0.1620339999999999,-0.151869,-0.529161,0.127366
976,0.204813,0.966316,-0.1558109999999999,-0.190958,-0.59809,0.139148
977,0.207168,0.967759,-0.143228,-0.172241,-0.6370100000000001,0.083215
978,0.2105699999999999,0.969422,-0.1259829999999999,-0.151259,-0.659013,0.046332
979,0.214613,0.970757,-0.10753,-0.097486,-0.697091,-0.0325149999999999
980,0.219079,0.971411,-0.091409,-0.086388,-0.596854,-0.09104
981,0.223692,0.971399,-0.079596,-0.057646,-0.341456,-0.108179
982,0.228831,0.970771,-0.07232,0.010793,0.0485,-0.086906
983,0.2359489999999999,0.969498,-0.066271,0.0967529999999999,0.2929989999999999,-0.032866
984,0.246551,0.967443,-0.057076,0.062653,0.12585,-0.091911
985,0.257737,0.965194,-0.044299,0.009155,-0.022659,-0.093503
986,0.2670949999999999,0.963179,-0.0305959999999999,-0.078955,0.13997,0.012561
987,0.270698,0.962258,-0.027783,-0.104149,0.5316390000000001,0.053326
988,0.268385,0.962454,-0.040514,0.014955,0.842676,0.283892
989,0.256826,0.965023,-0.05255,-0.024679,1.1720780000000002,0.433577
990,0.238452,0.968522,-0.071383,0.201245,1.002028,0.401873
991,0.2258679999999999,0.971066,-0.0774919999999999,0.348961,0.173939,0.063119
992,0.22715,0.970899,-0.07581,0.16288,0.0064569999999999,-0.182918
993,0.240515,0.96798,-0.071801,-0.006811,-0.002557,-0.292854
994,0.25679,0.963784,-0.071888,-0.140273,-0.05407,-0.227673
995,0.264957,0.961394,-0.0742169999999999,-0.078815,-0.047347,0.033507
996,0.2626239999999999,0.962516,-0.067669,0.0572149999999999,-0.0261,0.06091
997,0.256157,0.965278,-0.051091,0.143348,-0.128959,-0.042537
998,0.250857,0.967454,-0.033051,0.17442,-0.125153,-0.096877
999,0.250505,0.967925,-0.018851,0.237471,-0.2792659999999999,-0.139368
1000,0.2545409999999999,0.966998,-0.010533,0.0967919999999999,-0.4311859999999999,-0.080959
1001,0.26021,0.965536,-0.004453,-0.025774,-0.493062,-0.0578789999999999
1002,0.2635,0.964652,-0.001813,-0.251903,-0.596137,-0.1365839999999999
1003,0.263112,0.964741,-0.0058439999999999,-0.1054119999999999,-0.4474229999999999,-0.101226
1004,0.260345,0.965388,-0.015343,0.12909,-0.226435,0.029518
1005,0.255629,0.966333,-0.0290139999999999,0.195146,-0.147119,0.0891179999999999
1006,0.252244,0.966555,-0.046192,0.024809,-0.169054,0.110355
1007,0.253026,0.965064,-0.067953,-0.140874,-0.021858,0.100866
1008,0.26015,0.960695,-0.096827,-0.196109,0.251646,0.0382329999999999
1009,0.273658,0.952651,-0.132502,-0.010551,0.4137119999999999,-0.100896
1010,0.28902,0.942452,-0.168051,0.064862,0.461356,-0.160212
1011,0.296252,0.934362,-0.19797,0.247495,0.716623,-0.391278
1012,0.296112,0.929211,-0.221079,0.300644,0.859043,-0.252234
1013,0.30234,0.923041,-0.237861,0.067289,0.704691,-0.171807
1014,0.312953,0.917476,-0.2455389999999999,-0.079646,0.386769,-0.035223
1015,0.3235119999999999,0.915255,-0.240083,-0.15771,-0.137072,-0.0637799999999999
1016,0.331265,0.916459,-0.224405,-0.198789,-0.29477,-0.088477
1017,0.333137,0.920138,-0.205805,-0.1595069999999999,-0.5374180000000001,-0.075323
1018,0.329558,0.925496,-0.1866529999999999,-0.192992,-0.560872,-0.025719
1019,0.32391,0.931174,-0.167297,-0.202816,-0.624228,-0.017929
1020,0.318804,0.93604,-0.14894,-0.245165,-0.731252,-0.001924
1021,0.312471,0.941051,-0.129518,-0.242601,-0.531215,-0.005095
1022,0.304645,0.946357,-0.107654,-0.217518,-0.399421,-0.053769
1023,0.298917,0.95018,-0.088298,-0.101651,0.127792,-0.103917
1024,0.297188,0.95219,-0.0707309999999999,-0.111748,0.0727889999999999,-0.07998
1025,0.299693,0.952526,-0.053549,-0.134745,0.018299,-0.195734
1026,0.305636,0.951251,-0.041199,-0.110705,0.085477,-0.203399
1027,0.31313,0.948732,-0.04297,-0.113591,0.505842,-0.011336
1028,0.317567,0.946615,-0.055324,-0.04294,0.904001,0.215725
1029,0.315855,0.946738,-0.062551,-0.099409,0.772256,0.303533
1030,0.308614,0.948717,-0.068435,0.314372,0.5676859999999999,0.080367
1031,0.305317,0.949305,-0.074778,0.566204,0.277074,-0.1159109999999999
1032,0.305815,0.948512,-0.082421,0.495729,0.13915,-0.203849
1033,0.310388,0.94641,-0.089207,-0.063883,-0.046263,-0.375789
1034,0.316137,0.943997,-0.094435,-0.208165,0.0704679999999999,-0.171098
1035,0.317842,0.943479,-0.093886,-0.067644,0.200946,-0.1041119999999999
1036,0.315894,0.944902,-0.085794,0.217432,0.052305,0.027551
1037,0.31216,0.94721,-0.073072,0.200078,-0.287527,0.044172
1038,0.3100699999999999,0.94887,-0.059095,0.153248,-0.30794,0.037825
1039,0.310012,0.949479,-0.0487019999999999,0.005128,-0.313447,0.008342
1040,0.309111,0.950056,-0.042824,-0.141036,-0.230878,-0.127998
1041,0.304946,0.951347,-0.044018,-0.102202,-0.155433,-0.1381109999999999
1042,0.298766,0.953143,-0.04741,-0.096571,-0.2248099999999999,-0.1421349999999999
1043,0.292896,0.954778,-0.050999,-0.049519,-0.321111,-0.097469
1044,0.288437,0.95574,-0.057913,0.0249479999999999,-0.364142,-0.048395
1045,0.285912,0.955855,-0.067716,0.0994029999999999,-0.297209,-0.043338
1046,0.284194,0.955354,-0.080755,0.142625,-0.171907,-0.0874279999999999
1047,0.282563,0.954363,-0.096637,0.105376,-0.103853,0.018054
1048,0.2813239999999999,0.952655,-0.115302,-0.01782,-0.0330079999999999,0.0736909999999999
1049,0.281091,0.949678,-0.138165,-0.109704,0.170927,0.113201
1050,0.283835,0.944702,-0.164213,-0.039129,0.378708,0.033247
1051,0.289357,0.937935,-0.191158,-0.043294,0.513313,-0.123723
1052,0.295218,0.93065,-0.216167,-0.078452,0.530592,-0.197347
1053,0.299653,0.924998,-0.23362,0.029876,0.575246,-0.08828
1054,0.303095,0.921454,-0.242997,0.186132,0.481943,-0.079696
1055,0.307194,0.919712,-0.244444,0.055415,0.2710079999999999,-0.067934
1056,0.312743,0.91956,-0.237892,-0.043975,0.1046859999999999,-0.071922
1057,0.3185489999999999,0.921043,-0.2240469999999999,-0.15415,-0.088249,-0.1162089999999999
1058,0.322364,0.923516,-0.2078239999999999,-0.205528,-0.250451,-0.07486
1059,0.321915,0.927175,-0.191592,-0.222123,-0.422612,0.0153689999999999
1060,0.317106,0.932533,-0.172673,-0.167509,-0.68003,0.035771
1061,0.30964,0.938902,-0.150255,-0.132318,-0.721067,-0.009123
1062,0.301879,0.945012,-0.12574,-0.125716,-0.620412,-0.107826
1063,0.295329,0.949766,-0.1035079999999999,-0.1493789999999999,-0.298948,-0.14022
1064,0.293359,0.952008,-0.087233,-0.1343619999999999,-0.11424,-0.170656
1065,0.296956,0.951866,-0.075879,-0.140157,-0.0312879999999999,-0.176013
1066,0.302428,0.95086,-0.066272,-0.105865,-0.064797,-0.169095
1067,0.308798,0.949472,-0.055997,-0.070471,-0.060113,-0.1953609999999999
1068,0.3154949999999999,0.947335,-0.054845,-0.130131,0.498283,-0.062358
1069,0.322765,0.944233,-0.065081,0.006795,0.668988,0.2539389999999999
1070,0.325965,0.942526,-0.073341,0.047524,0.487085,0.209831
1071,0.324073,0.942942,-0.0763269999999999,0.172875,0.455099,0.059878
1072,0.324471,0.941976,-0.085952,0.585517,0.745783,0.0583789999999999
1073,0.325454,0.941137,-0.091264,0.3281719999999999,0.022501,-0.14598
1074,0.328426,0.939905,-0.093292,0.171284,0.011953,-0.239228
1075,0.33596,0.937085,-0.094817,-0.237831,0.069064,-0.254868
1076,0.344557,0.933927,-0.095127,-0.091246,0.126681,-0.054669
1077,0.34792,0.933365,-0.088146,0.010692,0.1068109999999999,0.010036
1078,0.345898,0.935307,-0.0744539999999999,0.1421849999999999,-0.136571,0.036551
1079,0.342289,0.93766,-0.060157,0.136349,-0.171837,0.061653
1080,0.341077,0.938844,-0.0471829999999999,0.086627,-0.2061469999999999,0.036654
1081,0.34079,0.939304,-0.039477,-0.198319,-0.2479579999999999,-0.14311
1082,0.33819,0.940202,-0.040445,-0.30395,-0.330354,-0.09455
1083,0.331595,0.942327,-0.04531,-0.212653,-0.383641,-0.076241
1084,0.324126,0.944645,-0.050746,-0.081831,-0.426625,-0.044148
1085,0.318379,0.946233,-0.057147,0.144558,-0.280858,-0.1019559999999999
1086,0.315034,0.946705,-0.067008,0.224425,-0.226002,-0.076043
1087,0.3134369999999999,0.946232,-0.079943,0.269983,-0.262791,-0.007871
1088,0.313273,0.944902,-0.094919,0.135214,-0.2937329999999999,0.031473
1089,0.3146489999999999,0.942378,-0.113618,0.041125,-0.086756,0.094438
1090,0.319051,0.937803,-0.136827,-0.076467,0.214923,0.084566
1091,0.32776,0.93034,-0.164405,-0.097948,0.497135,-0.017937
1092,0.338869,0.920595,-0.194065,-0.09569,0.677,-0.1713829999999999
1093,0.347753,0.911077,-0.22135,-0.104223,0.626063,-0.2184239999999999
1094,0.350497,0.905399,-0.2395699999999999,-0.0264009999999999,0.4909479999999999,-0.2465909999999999
1095,0.349121,0.90261,-0.251792,0.217346,0.62098,-0.175927
1096,0.349666,0.9006700000000001,-0.257909,0.08022,0.4721939999999999,-0.187831
1097,0.34997,0.9006780000000001,-0.257467,0.009115,0.074404,-0.245875
1098,0.343013,0.905299,-0.25053,-0.049312,-0.245387,-0.2226449999999999
1099,0.331335,0.912659,-0.2392889999999999,-0.162314,-0.316834,-0.13359
1100,0.321763,0.919795,-0.224577,-0.167298,-0.316279,-0.015276
1101,0.316894,0.925401,-0.207844,-0.178955,-0.306062,0.000493
1102,0.313894,0.930437,-0.189069,-0.20281,-0.39258,0.001691
1103,0.309875,0.935763,-0.168269,-0.199951,-0.398516,-0.021336
1104,0.303094,0.941689,-0.146098,-0.194894,-0.45916,-0.041402
1105,0.297321,0.946716,-0.123765,-0.194721,-0.462676,-0.073149
1106,0.2953119999999999,0.949732,-0.103866,-0.1313099999999999,-0.27299,-0.1272589999999999
1107,0.298023,0.950492,-0.087951,-0.160191,-0.13166,-0.172562
1108,0.30534,0.949231,-0.075603,-0.2085679999999999,-0.112165,-0.128819
1109,0.314631,0.946981,-0.064988,-0.20843,-0.116124,-0.122466
1110,0.320965,0.944917,-0.064047,-0.218212,0.49771,0.049093
1111,0.324598,0.942703,-0.077043,-0.086149,0.979569,0.336091
1112,0.3233789999999999,0.942003,-0.0897,-0.075775,0.1855,0.228296
1113,0.322702,0.942221,-0.089847,0.1177579999999999,0.584604,-0.135846
1114,0.327153,0.939699,-0.099627,0.544505,1.265425,0.0208919999999999
1115,0.3306159999999999,0.937939,-0.1046609999999999,0.354184,0.030338,-0.130416
1116,0.331925,0.937312,-0.106118,0.080673,-0.0792799999999999,-0.190391
1117,0.336376,0.935766,-0.105744,-0.059414,-0.078222,-0.169372
1118,0.344392,0.933358,-0.101126,0.01863,0.173469,-0.071572
1119,0.3501,0.932223,-0.091541,0.041837,0.13394,0.025044
1120,0.349084,0.93386,-0.077674,0.1039799999999999,0.011788,0.004417
1121,0.343238,0.937109,-0.0632559999999999,0.134316,-0.170798,0.0074239999999999
1122,0.337645,0.939873,-0.0512009999999999,0.0852059999999999,-0.188332,-0.020409
1123,0.334825,0.941257,-0.043747,-0.138154,-0.330509,-0.1537319999999999
1124,0.331201,0.94258,-0.042839,-0.165491,-0.335357,-0.1102829999999999
1125,0.324812,0.944692,-0.045183,-0.157546,-0.317601,-0.059722
1126,0.3169659999999999,0.947177,-0.048742,-0.070216,-0.280978,-0.117914
1127,0.308849,0.949515,-0.054947,0.062245,-0.255073,-0.081833
1128,0.300317,0.951707,-0.063644,0.127219,-0.233827,-0.04387
1129,0.292647,0.953329,-0.074214,0.183504,-0.236838,0.0080209999999999
1130,0.287659,0.953672,-0.088026,0.1423029999999999,-0.262953,-0.07596
1131,0.28529,0.952688,-0.104795,0.14751,-0.10314,-0.118242
1132,0.284856,0.950381,-0.124981,0.125377,0.082532,0.062053
1133,0.288598,0.945646,-0.149844,-0.094979,0.29201,0.089511
1134,0.295425,0.938314,-0.179663,-0.117157,0.412211,0.058401
1135,0.303062,0.929655,-0.209483,-0.106667,0.4994979999999999,-0.105581
1136,0.308799,0.921846,-0.2341619999999999,-0.085945,0.4970989999999999,-0.240096
1137,0.312613,0.916511,-0.24954,-0.016837,0.529351,-0.132235
1138,0.318258,0.912537,-0.256862,0.137553,0.542999,-0.180425
1139,0.326803,0.908818,-0.259304,0.032313,0.043712,-0.116032
1140,0.33513,0.907284,-0.2539929999999999,-0.014985,-0.147702,-0.13474
1141,0.337106,0.909639,-0.242707,-0.05935,-0.3239599999999999,-0.1626119999999999
1142,0.334679,0.913979,-0.229394,-0.10772,-0.3932719999999999,-0.051337
1143,0.331514,0.919361,-0.211807,-0.150743,-0.4149359999999999,-0.019867
1144,0.329165,0.924806,-0.190716,-0.230761,-0.388582,-0.0320019999999999
1145,0.325703,0.930111,-0.169704,-0.245869,-0.479473,-0.012684
1146,0.319073,0.935811,-0.149792,-0.2065699999999999,-0.368703,-8e-05
1147,0.310249,0.94169,-0.1302029999999999,-0.1640849999999999,-0.29548,-0.032288
1148,0.302645,0.946725,-0.11002,-0.166979,-0.119638,-0.037395
1149,0.300469,0.949545,-0.089836,-0.169747,-0.095175,-0.068687
1150,0.303244,0.950116,-0.072867,-0.163138,-0.054959,-0.184701
1151,0.307896,0.949541,-0.059649,-0.146275,-0.013643,-0.1986359999999999
1152,0.313274,0.948477,-0.047303,-0.159557,-0.025473,-0.170959
1153,0.31418,0.948495,-0.040443,-0.135027,0.860786,0.076667
1154,0.310903,0.949419,-0.0439279999999999,-0.13175,0.8598610000000001,0.080153
1155,0.305243,0.950933,-0.0504019999999999,-0.127814,0.709788,0.216311
1156,0.300753,0.95166,-0.062284,0.077695,0.359726,0.151426
1157,0.300625,0.950703,-0.0760049999999999,0.36504,0.461467,0.04059
1158,0.303356,0.9492,-0.083562,0.584461,0.09885,-0.331874
1159,0.310082,0.946574,-0.088522,0.215079,-0.162409,-0.339457
1160,0.31947,0.942791,-0.095251,-0.109082,-0.143871,-0.153269
1161,0.328289,0.939755,-0.095263,-0.062602,0.107455,-0.112165
1162,0.333079,0.938408,-0.0918539999999999,0.060598,0.171318,0.081539
1163,0.331922,0.93969,-0.082458,0.150057,0.057869,-0.024735
1164,0.3283,0.941808,-0.072143,0.19204,-0.0415699999999999,-0.033845
1165,0.325992,0.943213,-0.063774,0.136212,-0.104971,0.019493
1166,0.325507,0.943848,-0.056438,-0.005256,-0.183548,-0.027837
1167,0.324033,0.944614,-0.05191,-0.131803,-0.2384219999999999,-0.145752
1168,0.31898,0.946265,-0.053134,-0.119822,-0.23429,-0.148694
1169,0.311293,0.94853,-0.058098,-0.051542,-0.265288,-0.089775
1170,0.303282,0.950789,-0.063319,-0.02313,-0.335264,-0.0951279999999999
1171,0.2964469999999999,0.952405,-0.070936,0.046036,-0.321744,-0.0784779999999999
1172,0.290728,0.953277,-0.082026,0.1295599999999999,-0.198241,-0.118352
1173,0.284902,0.953772,-0.095584,0.194804,-0.0793519999999999,-0.044187
1174,0.278796,0.954104,-0.1093,0.121442,-0.167879,0.06688
1175,0.273919,0.953752,-0.123742,-0.093163,-0.2174849999999999,0.124642
1176,0.272675,0.951558,-0.142037,-0.1552589999999999,-0.155278,0.09185
1177,0.275929,0.946701,-0.166161,-0.2128179999999999,0.0884399999999999,0.053719
1178,0.285256,0.938525,-0.194391,-0.084511,0.56828,-0.212484
1179,0.298163,0.926832,-0.228188,-0.075567,0.700304,-0.198249
1180,0.30993,0.915663,-0.255918,0.126776,0.4700939999999999,-0.164507
1181,0.316603,0.908594,-0.272413,0.176042,0.706961,-0.16292
1182,0.323474,0.903654,-0.28065,0.1610079999999999,0.519259,-0.121114
1183,0.330201,0.901576,-0.279496,-0.06125,0.173009,-0.047973
1184,0.334615,0.903301,-0.268458,-0.084203,-0.221294,-0.146795
1185,0.333615,0.908004,-0.253413,-0.055082,-0.410141,-0.195943
1186,0.327936,0.913754,-0.239794,-0.112864,-0.4191399999999999,-0.083479
1187,0.3219849999999999,0.919307,-0.2262489999999999,-0.130472,-0.350551,0.016182
1188,0.319856,0.923958,-0.20972,-0.154497,-0.355934,0.009418
1189,0.31919,0.928387,-0.190271,-0.199271,-0.420681,-0.029867
1190,0.313981,0.934359,-0.168454,-0.232255,-0.341647,-0.05289
1191,0.303982,0.94144,-0.1458539999999999,-0.241619,-0.2590969999999999,-0.088201
1192,0.294683,0.947666,-0.122793,-0.196432,-0.155415,-0.09582
1193,0.292894,0.950891,-0.1000289999999999,-0.168032,0.016775,-0.179344
1194,0.298775,0.950886,-0.080842,-0.154229,-0.003941,-0.183348
1195,0.3080449999999999,0.948987,-0.067219,-0.134965,-0.076413,-0.16798
1196,0.315211,0.946867,-0.063815,-0.118891,0.151796,-0.018354
1197,0.318282,0.945526,-0.068294,-0.026411,0.668197,0.2250469999999999
1198,0.316711,0.94592,-0.070121,0.053086,0.492022,0.076514
1199,0.312191,0.947685,-0.066465,0.156971,0.4897689999999999,-0.02434
1200,0.310791,0.947957,-0.069096,0.255234,0.455791,-0.060634
1201,0.314984,0.946337,-0.072245,0.368106,0.3235449999999999,-0.080084
1202,0.319037,0.945141,-0.070079,0.287255,0.295033,-0.132069
1203,0.323912,0.94378,-0.065937,0.0815299999999999,0.188468,-0.1881519999999999
1204,0.329544,0.942032,-0.062967,-0.004349,0.109497,-0.069327
1205,0.33438,0.940587,-0.058938,-0.019195,0.095882,-0.022788
1206,0.3377429999999999,0.939852,-0.050952,-0.042134,0.001448,0.049273
1207,0.336707,0.940715,-0.04087,0.031839,-0.179195,0.030372
1208,0.332084,0.942716,-0.031518,0.003564,-0.217863,0.006967
1209,0.325321,0.945316,-0.023015,-0.021168,-0.244404,-0.010921
1210,0.317402,0.948123,-0.01747,-0.082951,-0.3542349999999999,-0.106523
1211,0.308761,0.950991,-0.016366,-0.0647269999999999,-0.402102,-0.13317
1212,0.298979,0.954083,-0.01795,-0.026732,-0.435727,-0.130946
1213,0.289491,0.956948,-0.02075,0.002639,-0.379769,-0.122424
1214,0.282009,0.959049,-0.0261029999999999,0.027989,-0.333347,-0.121404
1215,0.276315,0.960381,-0.036114,0.080619,-0.273323,-0.090687
1216,0.270763,0.961373,-0.049351,0.197377,-0.173898,-0.084468
1217,0.265082,0.962132,-0.0634049999999999,0.196801,-0.21497,-0.100215
1218,0.260295,0.962391,-0.077691,0.163442,-0.238331,-0.12075
1219,0.256693,0.961955,-0.093471,0.023046,-0.186092,-0.0602759999999999
1220,0.255708,0.960118,-0.113014,-0.031892,-0.043309,-0.037605
1221,0.260307,0.95557,-0.1382519999999999,0.028221,0.421124,0.044746
1222,0.269486,0.948715,-0.165242,0.1081839999999999,0.617829,-0.121699
1223,0.2765849999999999,0.941521,-0.192421,0.059612,0.563209,-0.187203
1224,0.278357,0.936783,-0.211997,-0.00727,0.491699,-0.18438
1225,0.279542,0.933386,-0.2250219999999999,-0.0300149999999999,0.601282,-0.1819
1226,0.2844239999999999,0.929437,-0.2350269999999999,0.077744,0.630866,-0.1129039999999999
1227,0.292695,0.926098,-0.238036,0.00949,0.3583719999999999,-0.129807
1228,0.300304,0.925157,-0.232143,-0.049557,0.041594,-0.154744
1229,0.302559,0.926985,-0.221688,-0.060052,-0.138731,-0.107154
1230,0.300153,0.93073,-0.2088989999999999,-0.05,-0.299153,-0.00271
1231,0.295122,0.935869,-0.192462,-0.086397,-0.412431,0.054812
1232,0.288445,0.941829,-0.172472,-0.141702,-0.5163369999999999,0.06238
1233,0.280144,0.948386,-0.148566,-0.204658,-0.568137,0.027319
1234,0.268814,0.955468,-0.121689,-0.2168429999999999,-0.595162,0.005035
1235,0.256524,0.961918,-0.094324,-0.229378,-0.50478,-0.0422569999999999
1236,0.247365,0.966325,-0.070814,-0.203908,-0.396287,-0.128084
1237,0.241848,0.968833,-0.053472,-0.146954,-0.25579,-0.175532
1238,0.2393969999999999,0.970053,-0.040898,-0.127764,-0.089942,-0.1915079999999999
1239,0.241135,0.969968,-0.031684,-0.115006,-0.111691,-0.169015
1240,0.248111,0.968446,-0.023244,-0.1024809999999999,-0.1789869999999999,-0.163401
1241,0.2586719999999999,0.965831,-0.015727,-0.183217,0.280645,-0.102971
1242,0.266868,0.963453,-0.022958,-0.159095,0.565188,-0.04151
1243,0.265336,0.963591,-0.0328209999999999,0.026885,1.047548,0.173751
1244,0.256544,0.965715,-0.03959,0.040743,0.3995039999999999,0.151788
1245,0.2529659999999999,0.966287,-0.0478079999999999,0.348306,0.322974,0.118075
1246,0.259778,0.964277,-0.0517139999999999,0.528766,0.349871,-0.189024
1247,0.267336,0.962147,-0.05285,0.312071,0.106518,-0.220984
1248,0.271401,0.960927,-0.0543019999999999,0.07212,-0.051168,-0.095677
1249,0.27668,0.9595,-0.052872,-0.074852,-0.067243,-0.078278
1250,0.282907,0.957828,-0.050169,-0.0817809999999999,-0.050373,-0.075869
1251,0.2867909999999999,0.956837,-0.046912,-0.016802,-0.133763,-0.049585
1252,0.286486,0.957104,-0.043189,0.035993,-0.255337,-0.012612
1253,0.282223,0.958571,-0.038469,0.09592,-0.27664,-0.0373519999999999
1254,0.274947,0.96094,-0.0314,0.1014419999999999,-0.3104119999999999,-0.099063
1255,0.265941,0.96369,-0.023767,0.149754,-0.30364,-0.149695
1256,0.25414,0.967014,-0.016862,0.226985,-0.274204,-0.2304679999999999
1257,0.239607,0.970782,-0.012578,0.292696,-0.283114,-0.284969
1258,0.225703,0.97417,-0.006203,0.43987,-0.325351,-0.2690349999999999
1259,0.214471,0.97672,0.002427,0.487022,-0.2994739999999999,-0.27646
1260,0.204325,0.978867,0.007579,0.538305,-0.23169,-0.253017
1261,0.194544,0.980831,0.010433,0.405172,-0.0633659999999999,-0.028377
1262,0.184499,0.982769,0.0105469999999999,0.158794,-0.045254,0.171521
1263,0.177032,0.984198,-0.0004509999999999,0.00737,0.209146,0.159447
1264,0.17806,0.983692,-0.025146,-0.362401,0.505826,0.22644
1265,0.183033,0.981387,-0.0580039999999999,-0.2705579999999999,0.575116,0.2484489999999999
1266,0.189392,0.977686,-0.0908149999999999,-0.133606,0.5455220000000001,0.214213
1267,0.1976369999999999,0.973025,-0.118948,0.257716,0.7463350000000001,0.112692
1268,0.204287,0.968153,-0.144688,0.449583,0.739046,0.04607
1269,0.209607,0.964428,-0.16103,0.213275,0.519825,-0.014339
1270,0.218435,0.960619,-0.171714,0.156932,0.554136,0.0026609999999999
1271,0.229696,0.956818,-0.178121,0.127802,0.418213,-0.021068
1272,0.237413,0.95472,-0.179258,0.015471,0.189247,-0.057574
1273,0.2368559999999999,0.954819,-0.179465,-0.017572,0.048874,-0.034723
1274,0.229446,0.956257,-0.181426,0.000657,-0.104267,0.072494
1275,0.218931,0.958553,-0.182298,0.0308089999999999,-0.309002,0.174532
1276,0.20875,0.961465,-0.178875,-0.005885,-0.418969,0.214596
1277,0.200599,0.964727,-0.17044,-0.1079779999999999,-0.450277,0.210876
1278,0.193412,0.968076,-0.159403,-0.1845619999999999,-0.446194,0.13595
1279,0.185781,0.971491,-0.1472359999999999,-0.197744,-0.464197,0.063022
1280,0.177417,0.974865,-0.13472,-0.204501,-0.503139,-0.0181729999999999
1281,0.16981,0.977669,-0.1237549999999999,-0.134226,-0.394387,-0.104425
1282,0.163108,0.979311,-0.119724,0.002251,-0.234224,-0.100781
1283,0.158166,0.979351,-0.125869,0.167533,-0.015926,-0.153718
1284,0.157149,0.978077,-0.136592,0.266282,0.1386069999999999,-0.225407
1285,0.161477,0.97594,-0.146469,0.254417,0.204068,-0.302948
1286,0.171466,0.97316,-0.153449,0.2439239999999999,0.160416,-0.307229
1287,0.185318,0.969482,-0.160464,0.2096869999999999,0.031632,-0.19357
1288,0.1970319999999999,0.963866,-0.179245,0.174626,0.440141,0.052765
1289,0.210042,0.956698,-0.201495,0.085643,1.109022,0.32474
1290,0.218353,0.953168,-0.2092389999999999,-0.062012,0.918307,0.454295
1291,0.220181,0.953965,-0.203616,-0.313001,-0.189637,0.172565
1292,0.213502,0.954603,-0.207695,-0.206086,-0.4862649999999999,0.166878
1293,0.203438,0.953748,-0.221281,0.007469,-0.272123,0.25012
1294,0.19443,0.953818,-0.2289489999999999,0.272657,-0.0358029999999999,0.346548
1295,0.188134,0.956088,-0.2247,0.3986889999999999,0.357434,0.241439
1296,0.18736,0.959757,-0.209168,0.284655,0.4102229999999999,0.174378
1297,0.189395,0.963611,-0.188606,0.131177,0.190717,0.042717
1298,0.190239,0.967226,-0.16814,0.137825,-0.0422079999999999,0.090808
1299,0.188658,0.9711,-0.14615,0.100862,-0.068421,0.1038369999999999
1300,0.187602,0.974564,-0.122545,0.032292,-0.180649,0.085954
1301,0.1865609999999999,0.977471,-0.098646,-0.035254,-0.209497,0.081373
1302,0.184757,0.979972,-0.074205,-0.012317,-0.158408,0.069627
1303,0.180924,0.982249,-0.0494,0.057602,-0.172724,0.008918
1304,0.173478,0.984437,-0.027844,0.108566,-0.321397,0.023419
1305,0.1634789999999999,0.986475,-0.011336,0.123539,-0.345972,0.043288
1306,0.152578,0.98828,0.002815,0.030253,-0.223387,0.060432
1307,0.141131,0.98985,0.016263,0.028379,-0.167401,0.049045
1308,0.128989,0.991195,0.029636,0.024743,-0.10736,0.034176
1309,0.117362,0.992113,0.043848,0.025506,-0.008806,-0.08085
1310,0.106623,0.992768,0.055024,0.09934,0.018127,-0.025544
1311,0.098333,0.993111,0.063607,0.325083,0.075111,-0.036736
1312,0.094828,0.992996,0.070362,0.283377,0.175049,-0.063252
1313,0.094056,0.992766,0.07451,0.255614,0.172441,-0.074388
1314,0.094034,0.992629,0.076352,0.422827,0.337327,-0.057217
1315,0.099323,0.992219,0.0749679999999999,0.393185,0.262405,0.1020799999999999
1316,0.110547,0.99172,0.065231,0.454501,0.190241,0.212342
1317,0.126379,0.991047,0.042879,0.313731,0.167431,0.2233409999999999
1318,0.143336,0.989622,0.0093099999999999,0.054174,0.1789869999999999,0.235884
1319,0.154268,0.987657,-0.026811,0.005323,0.233778,0.290513
1320,0.1613109999999999,0.9852,-0.057832,0.042913,0.286116,0.311433
1321,0.169202,0.981935,-0.084614,0.156176,0.179823,0.193806
1322,0.175815,0.977998,-0.112224,0.176342,0.249556,0.186687
1323,0.1798539999999999,0.973911,-0.1383319999999999,0.151796,0.292431,0.247768
1324,0.1814,0.970428,-0.159216,0.05177,0.176163,0.270437
1325,0.180097,0.967776,-0.175956,-0.042692,0.088391,0.280082
1326,0.178377,0.965191,-0.191245,-0.044161,0.11655,0.287085
1327,0.177303,0.962485,-0.20536,-0.038631,0.075616,0.285637
1328,0.1775119999999999,0.959824,-0.217288,-0.0535799999999999,-0.0301519999999999,0.25629
1329,0.177702,0.957741,-0.2261429999999999,-0.049681,-0.182046,0.22718
1330,0.175903,0.956547,-0.2325159999999999,-0.049194,-0.229237,0.242663
1331,0.171071,0.956674,-0.23558,-0.0199169999999999,-0.344415,0.320236
1332,0.164324,0.958361,-0.2335159999999999,-0.0197919999999999,-0.3799,0.334041
1333,0.156585,0.961373,-0.2263389999999999,-0.071151,-0.404885,0.283986
1334,0.148975,0.965189,-0.21495,-0.11385,-0.317789,0.150482
1335,0.142003,0.969117,-0.201577,-0.106206,-0.30333,0.108376
1336,0.135819,0.972511,-0.189107,-0.096757,-0.182869,-0.00355
1337,0.128611,0.974939,-0.181495,-0.019328,-0.082605,-0.045449
1338,0.121959,0.975413,-0.183527,0.0937549999999999,0.146581,-0.050054
1339,0.120168,0.973969,-0.192171,0.1404369999999999,0.2409659999999999,-0.024275
1340,0.125621,0.971615,-0.200426,0.160909,0.0864299999999999,-0.13452
1341,0.138287,0.968358,-0.2077159999999999,0.170642,0.018168,-0.166262
1342,0.154335,0.962426,-0.2233929999999999,0.2210619999999999,0.087821,-0.043133
1343,0.169527,0.955599,-0.240995,0.260908,0.271925,0.211088
1344,0.184313,0.949448,-0.2540989999999999,0.0736059999999999,0.607559,0.4398289999999999
1345,0.193141,0.946173,-0.259694,0.121678,0.740686,0.392797
1346,0.192066,0.947355,-0.256159,-0.055882,-0.053282,0.246653
1347,0.176689,0.948963,-0.261225,-0.041893,-0.3256409999999999,0.205546
1348,0.162022,0.949878,-0.267337,0.079524,-0.2435639999999999,0.3750949999999999
1349,0.155921,0.951675,-0.26456,0.129434,0.07045,0.338855
1350,0.161082,0.954119,-0.252384,0.147161,0.258939,0.30289
1351,0.17278,0.956622,-0.23454,0.136561,0.311337,0.097256
1352,0.186358,0.957262,-0.22115,0.152631,0.033873,0.0678909999999999
1353,0.19779,0.956678,-0.213623,0.115977,-0.084195,0.09613
1354,0.20476,0.956952,-0.20568,-0.007525,-0.332547,0.243217
1355,0.20785,0.958879,-0.193227,-0.06402,-0.357485,0.224568
1356,0.2071889999999999,0.961531,-0.18033,-0.1118059999999999,-0.234403,0.1434339999999999
1357,0.204398,0.963438,-0.173194,-0.012564,-0.181074,0.053885
1358,0.2011079999999999,0.963914,-0.174392,0.016863,-0.199189,0.054488
1359,0.199795,0.962975,-0.180966,0.05637,-0.280632,0.1431849999999999
1360,0.201422,0.961154,-0.188675,0.030695,-0.488513,0.0806429999999999
1361,0.203557,0.959224,-0.196064,0.030132,-0.520915,0.041615
1362,0.2040529999999999,0.957245,-0.2050139999999999,0.02898,-0.531159,0.030728
1363,0.202783,0.955301,-0.2150949999999999,0.064383,-0.383127,0.1154859999999999
1364,0.200755,0.953422,-0.225102,0.103307,-0.292381,0.193501
1365,0.199413,0.951471,-0.234361,0.174625,-0.196786,0.208528
1366,0.198722,0.949544,-0.242617,0.16755,-0.0873159999999999,0.093463
1367,0.197645,0.947652,-0.250756,0.1726859999999999,0.004832,0.251061
1368,0.196909,0.944527,-0.262837,0.103689,0.167396,0.323583
1369,0.199605,0.938392,-0.282073,-0.025487,0.33207,0.287246
1370,0.205901,0.929388,-0.306317,-0.0273279999999999,0.515985,0.195981
1371,0.214746,0.917703,-0.334207,-0.057794,0.513617,-0.0032719999999999
1372,0.22358,0.905101,-0.361653,-0.047189,0.5381819999999999,-0.036541
1373,0.23174,0.8949360000000001,-0.381281,0.07458,0.568855,0.0395149999999999
1374,0.2374099999999999,0.888553,-0.392555,0.258348,0.528149,-0.018486
1375,0.242026,0.885811,-0.395921,0.141366,0.407707,-0.041671
1376,0.2510469999999999,0.885597,-0.390746,0.097708,0.059624,0.101501
1377,0.261836,0.8893909999999999,-0.374721,-0.0757549999999999,-0.230104,0.049037
1378,0.264207,0.8970600000000001,-0.354213,-0.092271,-0.438976,0.027568
1379,0.258481,0.906096,-0.334913,-0.108442,-0.538481,0.118452
1380,0.247694,0.916096,-0.315284,-0.1176589999999999,-0.630955,0.17768
1381,0.2365989999999999,0.926394,-0.2929199999999999,-0.131374,-0.656802,0.1487089999999999
1382,0.227898,0.936361,-0.2669809999999999,-0.146233,-0.398092,0.053724
1383,0.222111,0.944716,-0.2411739999999999,-0.181584,-0.048964,-0.025672
1384,0.220751,0.950145,-0.220182,-0.139009,0.214467,-0.0122849999999999
1385,0.22363,0.953338,-0.202785,-0.013074,0.0053869999999999,-0.02274
1386,0.230376,0.954964,-0.186966,-0.017561,-0.085854,-0.066513
1387,0.240511,0.954873,-0.174235,0.00337,-0.090783,-0.0588429999999999
1388,0.252039,0.952793,-0.169254,-0.025889,0.231884,-0.0558279999999999
1389,0.260385,0.94892,-0.178144,-0.013803,0.5882649999999999,0.0872169999999999
1390,0.263252,0.945822,-0.190012,0.06469,0.904062,0.214182
1391,0.258509,0.945866,-0.196208,0.197652,0.345882,0.2484239999999999
1392,0.256456,0.946067,-0.197925,0.380583,0.151498,0.232898
1393,0.2660349999999999,0.944854,-0.1909529999999999,0.316652,-0.1060319999999999,0.072697
1394,0.27393,0.942698,-0.190445,0.062862,0.352636,0.032302
1395,0.275565,0.941696,-0.193023,0.045403,0.506134,0.157363
1396,0.27221,0.94335,-0.1896779999999999,0.085105,0.361673,0.1371869999999999
1397,0.2740039999999999,0.943573,-0.185953,0.132628,0.206482,0.132654
1398,0.279998,0.942556,-0.182143,0.129716,0.088358,0.154418
1399,0.285383,0.941616,-0.178612,-0.1004309999999999,-0.339169,0.170464
1400,0.28557,0.942137,-0.175541,-0.122484,-0.376951,0.153782
1401,0.280445,0.944481,-0.171154,-0.094547,-0.374473,0.071927
1402,0.272403,0.947504,-0.16739,0.016553,-0.187937,0.010393
1403,0.264587,0.949596,-0.16807,0.0522929999999999,-0.1411859999999999,0.004359
1404,0.258559,0.950277,-0.173518,0.0800029999999999,-0.159643,0.064509
1405,0.254478,0.950019,-0.180811,0.0530169999999999,-0.355231,0.053812
1406,0.253956,0.948396,-0.189839,0.111919,-0.4364939999999999,0.046192
1407,0.257556,0.945224,-0.20051,0.162244,-0.427081,-0.000906
1408,0.262473,0.941379,-0.2118989999999999,0.315073,-0.1517369999999999,0.0137639999999999
1409,0.264631,0.938323,-0.222507,0.313845,0.047838,0.151706
1410,0.264746,0.935529,-0.233844,0.152917,0.084185,0.2290219999999999
1411,0.265801,0.930873,-0.250627,-0.039147,0.250447,0.162004
1412,0.2705909999999999,0.92305,-0.273402,-0.027351,0.5209199999999999,0.1395819999999999
1413,0.279721,0.911847,-0.3004679999999999,0.0302,0.597247,-0.032418
1414,0.289977,0.89822,-0.330308,-0.055495,0.502384,-0.167175
1415,0.297491,0.8861110000000001,-0.355381,-0.116644,0.304013,-0.1285359999999999
1416,0.2938909999999999,0.878733,-0.3760949999999999,0.033456,0.416677,-0.070987
1417,0.291413,0.873326,-0.390348,0.208526,0.5760609999999999,-0.0044729999999999
1418,0.291444,0.872617,-0.391908,0.011108,0.454776,-0.044448
1419,0.29119,0.876554,-0.383214,-0.027259,0.050204,-0.036021
1420,0.288886,0.8832129999999999,-0.369419,-0.07334,-0.25182,-0.010967
1421,0.282294,0.8906719999999999,-0.356378,-0.175314,-0.472367,0.1271
1422,0.270792,0.899249,-0.343533,-0.182856,-0.5029020000000001,0.15411
1423,0.2581219999999999,0.908702,-0.328063,-0.194081,-0.545619,0.205382
1424,0.249231,0.917961,-0.30858,-0.17695,-0.529198,0.164842
1425,0.2444599999999999,0.926886,-0.2848,-0.168532,-0.483039,0.116923
1426,0.241109,0.934966,-0.260184,-0.173833,-0.396956,0.007422
1427,0.238375,0.94131,-0.238963,-0.13492,-0.304286,-0.08489
1428,0.237994,0.945256,-0.2232489999999999,-0.072207,-0.141698,-0.095385
1429,0.243195,0.946499,-0.2120969999999999,0.009857,0.03545,-0.040039
1430,0.254467,0.945833,-0.2015839999999999,0.037159,-0.002168,-0.039032
1431,0.266239,0.945236,-0.188771,0.053921,-0.009262,-0.082759
1432,0.269211,0.946105,-0.180002,-0.016968,0.181901,-0.108832
1433,0.2667989999999999,0.946038,-0.183902,-0.1341089999999999,0.909065,0.189045
1434,0.259967,0.946937,-0.188989,-0.10532,0.649468,0.251321
1435,0.250515,0.947712,-0.197671,0.020923,0.472256,0.274331
1436,0.248182,0.946786,-0.204919,0.361941,0.292564,0.172586
1437,0.257104,0.943704,-0.208109,0.4653229999999999,0.322211,0.017679
1438,0.268356,0.940012,-0.2106,0.404114,0.516195,-0.071474
1439,0.27463,0.937516,-0.2136179999999999,-0.071291,0.09645,0.002879
1440,0.279914,0.93512,-0.21723,-0.067756,0.1162869999999999,0.050207
1441,0.284609,0.934148,-0.215303,0.090529,-0.092565,0.125474
1442,0.2873449999999999,0.935431,-0.205893,0.0928269999999999,-0.154791,0.1055359999999999
1443,0.287579,0.938018,-0.193415,0.081898,-0.206573,0.110469
1444,0.285337,0.941257,-0.180572,0.012865,-0.220203,0.106872
1445,0.282546,0.944157,-0.169483,-0.036208,-0.206105,0.0554539999999999
1446,0.278963,0.946093,-0.164553,-0.116502,-0.193239,0.0261709999999999
1447,0.273072,0.947382,-0.167,-0.034897,-0.22088,0.012337
1448,0.266767,0.948345,-0.1716589999999999,-0.007398,-0.253826,0.034085
1449,0.2620639999999999,0.948675,-0.176994,0.011145,-0.380651,0.047188
1450,0.259029,0.948002,-0.184894,0.076954,-0.464313,0.075931
1451,0.255982,0.946554,-0.196209,0.141586,-0.406957,0.08424
1452,0.251963,0.945002,-0.208506,0.228994,-0.243693,0.0554299999999999
1453,0.2465949999999999,0.944071,-0.218884,0.186495,-0.108606,0.158154
1454,0.241612,0.942883,-0.229314,0.152843,-0.087139,0.206166
1455,0.239119,0.939684,-0.244551,0.093126,-0.009875,0.232817
1456,0.242504,0.932385,-0.268032,0.029972,0.551319,0.234066
1457,0.25172,0.921655,-0.295263,-0.013225,0.605491,0.086034
1458,0.2609869999999999,0.909894,-0.322443,-0.096207,0.592669,-0.090795
1459,0.267798,0.8987299999999999,-0.3472159999999999,-0.137549,0.667188,-0.12869
1460,0.27234,0.8898280000000001,-0.3661,0.055998,0.710148,-0.0768929999999999
1461,0.275678,0.883985,-0.377576,0.265002,0.464236,-0.010287
1462,0.280894,0.881144,-0.380362,0.165777,0.126577,0.003851
1463,0.282308,0.882625,-0.375854,0.0579779999999999,-0.120556,0.001113
1464,0.277288,0.8878440000000001,-0.367199,-0.040837,-0.162243,0.050381
1465,0.270796,0.894342,-0.356109,-0.145842,-0.267038,0.1493519999999999
1466,0.265148,0.901371,-0.3423719999999999,-0.2165949999999999,-0.393512,0.174693
1467,0.259761,0.909091,-0.325681,-0.232417,-0.53577,0.193143
1468,0.253612,0.917638,-0.305961,-0.2257949999999999,-0.6421100000000001,0.218223
1469,0.246721,0.926848,-0.282971,-0.1766829999999999,-0.713133,0.152005
1470,0.239751,0.935618,-0.25909,-0.160176,-0.541179,0.049769
1471,0.235449,0.942221,-0.2382699999999999,-0.161856,-0.295813,-0.0294
1472,0.23681,0.945362,-0.224057,-0.096276,-0.0333279999999999,-0.011355
1473,0.243684,0.945768,-0.214777,-0.0616009999999999,0.022646,-0.006201
1474,0.25237,0.945206,-0.207082,-0.054571,-0.020615,-0.02035
1475,0.262002,0.944532,-0.197997,-0.037027,-0.088728,-0.055665
1476,0.270482,0.944408,-0.186873,-0.034886,0.063221,-0.058855
1477,0.273838,0.943225,-0.187958,-0.037387,0.56918,0.0706789999999999
1478,0.2716369999999999,0.942132,-0.196438,0.023147,0.764517,0.2478139999999999
1479,0.265094,0.942319,-0.204326,0.065854,0.516162,0.213482
1480,0.26356,0.940033,-0.216479,0.280858,0.5862430000000001,0.196292
1481,0.275399,0.93496,-0.223593,0.673041,0.452064,0.033286
1482,0.283914,0.931675,-0.226636,0.261038,0.097835,-0.1937279999999999
1483,0.28974,0.929214,-0.2293489999999999,0.0193419999999999,0.112702,-0.105291
1484,0.2956789999999999,0.927626,-0.228196,0.021536,0.197206,0.040986
1485,0.3004739999999999,0.927812,-0.2210659999999999,0.081866,0.189315,0.1010399999999999
1486,0.302683,0.930037,-0.208334,0.162664,-0.009169,0.164191
1487,0.301937,0.933714,-0.192356,0.131153,-0.194075,0.189564
1488,0.3001,0.937637,-0.175398,0.070353,-0.1980589999999999,0.16754
1489,0.296459,0.941149,-0.162294,-0.104565,-0.165941,0.0964059999999999
1490,0.2906849999999999,0.943927,-0.156499,-0.134038,-0.159046,0.073735
1491,0.283043,0.946205,-0.156748,-0.166481,-0.171868,0.049677
1492,0.274489,0.948095,-0.160496,-0.082061,-0.266653,0.0067329999999999
1493,0.266207,0.949559,-0.16571,-0.0448779999999999,-0.323888,0.012054
1494,0.258711,0.950309,-0.173116,0.020952,-0.402427,0.024236
1495,0.253372,0.950108,-0.181895,0.094833,-0.430088,0.040537
1496,0.250981,0.948704,-0.192244,0.120799,-0.3987159999999999,0.019362
1497,0.250601,0.946366,-0.203905,0.19494,-0.264741,0.06534
1498,0.250036,0.943804,-0.216112,0.179346,-0.1173569999999999,0.13637
1499,0.248295,0.941209,-0.2290469999999999,0.144252,-0.1084,0.167875
1500,0.2466469999999999,0.937358,-0.245994,0.030224,-0.040462,0.2182079999999999
1501,0.249109,0.930122,-0.269827,-0.048776,0.502236,0.179739
1502,0.257369,0.91927,-0.297813,0.039369,0.679301,0.076789
1503,0.266308,0.906357,-0.328003,0.05196,0.694915,-0.0228419999999999
1504,0.2720309999999999,0.894473,-0.354835,0.000995,0.616941,-0.1107869999999999
1505,0.275198,0.8860680000000001,-0.373015,0.040491,0.5412239999999999,-0.08156
1506,0.277758,0.880698,-0.383683,0.174345,0.430643,-0.052474
1507,0.28073,0.8779549999999999,-0.387783,0.131105,0.389516,-0.089024
1508,0.281548,0.878415,-0.386146,0.024436,0.187839,-0.049309
1509,0.279611,0.882051,-0.379203,-0.048974,0.0093829999999999,-0.001305
1510,0.2762239999999999,0.887343,-0.369206,-0.101175,-0.175093,0.112477
1511,0.271735,0.894077,-0.356057,-0.1139589999999999,-0.368381,0.185174
1512,0.2656239999999999,0.902434,-0.339185,-0.137496,-0.5261680000000001,0.201444
1513,0.258557,0.911921,-0.318652,-0.164593,-0.661539,0.200458
1514,0.250394,0.922232,-0.294584,-0.1551799999999999,-0.675132,0.172514
1515,0.2413159999999999,0.932225,-0.269655,-0.178862,-0.524968,0.105897
1516,0.234715,0.939797,-0.248357,-0.178044,-0.375512,0.014088
1517,0.232027,0.944377,-0.233033,-0.151094,-0.235118,-0.0160669999999999
1518,0.233957,0.946719,-0.221305,-0.098368,-0.125476,0.005378
1519,0.23984,0.947852,-0.209862,-0.073199,-0.117072,-0.030663
1520,0.2491219999999999,0.94763,-0.199812,-0.079032,-0.059569,-0.032442
1521,0.26134,0.945943,-0.192049,-0.021136,0.016124,0.002153
1522,0.270673,0.944892,-0.184129,-0.068723,0.061867,0.019197
1523,0.268948,0.945549,-0.183283,-0.074719,0.4843979999999999,0.038935
1524,0.258953,0.946393,-0.1930609999999999,-0.064724,0.483554,0.048713
1525,0.245578,0.947786,-0.203427,-0.130206,0.507491,0.381268
1526,0.240155,0.947574,-0.210756,0.252398,0.393338,0.311052
1527,0.251003,0.944036,-0.213969,0.645253,0.4565689999999999,-0.126165
1528,0.267822,0.937907,-0.220431,0.487274,0.387136,-0.3417949999999999
1529,0.274884,0.934826,-0.2247829999999999,0.10657,0.225239,-0.1185859999999999
1530,0.278598,0.934704,-0.22068,0.1309789999999999,0.358692,-0.006554
1531,0.279945,0.937538,-0.206498,0.155648,0.243584,0.060609
1532,0.2778219999999999,0.942278,-0.186855,0.234782,0.065458,0.084606
1533,0.276422,0.946841,-0.1645319999999999,0.288306,-0.091647,0.090726
1534,0.274257,0.951014,-0.142625,0.093983,-0.184642,0.1066599999999999
1535,0.268349,0.955533,-0.122202,-0.002342,-0.208569,0.082178
1536,0.2590469999999999,0.960229,-0.104125,-0.198134,-0.226815,0.049575
1537,0.2493699999999999,0.964121,-0.090952,-0.141948,-0.1857849999999999,0.024652
1538,0.241059,0.966804,-0.084654,-0.076982,-0.18325,0.03253
1539,0.234853,0.968464,-0.083108,0.013834,-0.330418,0.04873
1540,0.231895,0.969004,-0.085099,0.000573,-0.473856,0.065583
1541,0.231527,0.968458,-0.092039,-0.026906,-0.564909,-0.061587
1542,0.229725,0.967337,-0.107114,0.031902,-0.487906,-0.1231559999999999
1543,0.226077,0.965613,-0.128331,0.176221,-0.389182,0.003514
1544,0.220828,0.964578,-0.144265,0.320997,-0.224298,0.048272
1545,0.217748,0.963434,-0.156106,0.274256,-0.308237,0.060449
1546,0.2161,0.96181,-0.16796,0.18954,-0.365451,-0.000359
1547,0.213288,0.960065,-0.181032,0.166534,-0.308347,-0.012129
1548,0.209358,0.95781,-0.196872,0.095848,0.158676,0.151813
1549,0.206442,0.953302,-0.220421,0.114176,0.794241,0.239983
1550,0.207726,0.947649,-0.24249,0.023688,0.6397079999999999,0.073392
1551,0.208848,0.941601,-0.264121,-0.064164,0.5129130000000001,-0.093148
1552,0.20789,0.934993,-0.287333,0.022243,0.4866229999999999,-0.05628
1553,0.208581,0.929251,-0.3049219999999999,0.257392,0.81045,-0.0354709999999999
1554,0.214075,0.924084,-0.316592,0.280936,0.772403,-0.046536
1555,0.2215389999999999,0.920801,-0.320992,0.188098,0.679663,-0.100044
1556,0.226036,0.920263,-0.319397,0.086189,0.474894,-0.107498
1557,0.227028,0.92133,-0.315596,0.047447,0.232006,-0.016268
1558,0.225156,0.923928,-0.309276,0.014377,-0.059365,0.108089
1559,0.220229,0.928491,-0.298987,-0.042937,-0.345727,0.166144
1560,0.211613,0.934289,-0.286902,-0.116063,-0.5287109999999999,0.190864
1561,0.200027,0.940544,-0.27451,-0.147842,-0.626228,0.201649
1562,0.187492,0.947233,-0.259974,-0.169944,-0.7031229999999999,0.175669
1563,0.1763839999999999,0.954238,-0.241471,-0.208,-0.715758,0.135651
1564,0.168629,0.961002,-0.219155,-0.199284,-0.756275,0.115975
1565,0.163692,0.96725,-0.193962,-0.129589,-0.666026,0.001854
1566,0.159428,0.972776,-0.1681609999999999,-0.086949,-0.6220829999999999,-0.054068
1567,0.153623,0.977108,-0.147138,-0.043073,-0.372753,-0.0792409999999999
1568,0.145741,0.980402,-0.132517,-0.01656,0.2443449999999999,-0.019842
1569,0.140791,0.982475,-0.122109,0.04593,0.401147,-0.118522
1570,0.1400549999999999,0.983062,-0.118164,0.063467,0.479691,-0.196442
1571,0.142714,0.982518,-0.119498,0.014315,0.14503,-0.338235
1572,0.1491569999999999,0.978741,-0.140738,-0.005252,0.432407,-0.04223
1573,0.156002,0.969741,-0.187765,0.225132,0.936127,0.100103
1574,0.155674,0.962496,-0.2221679999999999,0.467876,1.009474,0.511413
1575,0.149834,0.960809,-0.233212,0.165474,-0.119775,0.037243
1576,0.152769,0.95642,-0.248826,0.219958,0.186128,0.08275
1577,0.160027,0.954399,-0.252003,0.788673,0.782799,0.1267589999999999
1578,0.158058,0.956026,-0.24703,0.279839,0.422667,0.013632
1579,0.149403,0.959274,-0.239715,0.1084099999999999,0.273544,0.183867
1580,0.144843,0.963529,-0.224996,0.118722,0.272296,0.183858
1581,0.147313,0.968215,-0.202113,0.3365889999999999,0.149446,0.145915
1582,0.151873,0.973137,-0.172999,0.14221,-0.172112,0.151713
1583,0.150544,0.978466,-0.141181,0.143539,-0.17744,0.119895
1584,0.141588,0.98373,-0.110536,-0.028307,-0.25349,0.131075
1585,0.129616,0.987902,-0.085083,-0.056191,-0.317187,0.108383
1586,0.116374,0.991088,-0.064749,-0.028529,-0.344573,0.107718
1587,0.102899,0.993637,-0.045694,0.01995,-0.404892,0.091913
1588,0.089938,0.995552,-0.027892,0.106839,-0.456489,0.043822
1589,0.076847,0.996958,-0.0126819999999999,0.131054,-0.434809,0.0282459999999999
1590,0.063804,0.997958,0.000283,0.152108,-0.33066,0.012809
1591,0.052471,0.998551,0.011553,0.125583,-0.1193849999999999,-0.13225
1592,0.042703,0.998876,0.020334,0.226355,0.035319,-0.138696
1593,0.0340209999999999,0.999022,0.028078,0.3205469999999999,0.06508,-0.146777
1594,0.0261449999999999,0.999031,0.035278,0.545311,0.191109,-0.2018579999999999
1595,0.018969,0.998901,0.042759,0.441876,0.184754,-0.17487
1596,0.012443,0.998623,0.050872,0.425134,0.200825,-0.104674
1597,0.011108,0.998315,0.056866,0.494675,0.415122,0.0404389999999999
1598,0.016279,0.998277,0.056283,0.500033,0.344252,0.126121
1599,0.025287,0.998591,0.04654,0.5259520000000001,0.223058,0.186599
1600,0.036402,0.998926,0.028497,0.258032,0.148489,0.19654
1601,0.04386,0.999033,0.000625,0.050699,0.1080839999999999,0.2157599999999999
1602,0.045155,0.998443,-0.032601,0.028011,0.141968,0.292031
1603,0.04431,0.996986,-0.0636159999999999,0.167391,0.211373,0.3035
1604,0.046046,0.994669,-0.092226,0.283223,0.226355,0.190416
1605,0.048435,0.991641,-0.119559,0.385998,0.309812,0.14762
1606,0.048713,0.988775,-0.141216,0.420571,0.2635139999999999,0.159634
1607,0.0459759999999999,0.986584,-0.156619,0.320708,0.174015,0.183978
1608,0.0424509999999999,0.984847,-0.168127,0.222503,0.144289,0.23345
1609,0.040418,0.983357,-0.177109,0.158297,0.102825,0.226532
1610,0.040308,0.982167,-0.183618,0.160712,-0.07198,0.246973
1611,0.039054,0.981851,-0.185569,0.142557,-0.190194,0.236503
1612,0.034888,0.98196,-0.185822,0.129983,-0.26884,0.214615
1613,0.028399,0.982182,-0.18575,0.085126,-0.361501,0.273534
1614,0.02131,0.982876,-0.183009,0.080939,-0.400647,0.304607
1615,0.015767,0.984143,-0.176651,0.059001,-0.423932,0.286255
1616,0.013153,0.985622,-0.168431,-0.011658,-0.3903,0.221043
1617,0.013236,0.98705,-0.159842,0.00657,-0.376073,0.17092
1618,0.014777,0.988588,-0.149892,0.0274139999999999,-0.343767,0.125188
1619,0.016464,0.990349,-0.137588,0.0587009999999999,-0.300804,0.072799
1620,0.016286,0.992216,-0.123428,0.117076,-0.164686,-0.042267
1621,0.012725,0.993678,-0.111508,0.203904,0.085866,-0.128329
1622,0.007329,0.994274,-0.106568,0.264934,0.273548,-0.197036
1623,0.005246,0.993718,-0.111752,0.365619,0.280192,-0.2227199999999999
1624,0.010218,0.992672,-0.120371,0.400518,0.129581,-0.4366819999999999
1625,0.021513,0.991122,-0.131176,0.3998739999999999,0.179807,-0.327961
1626,0.039282,0.987789,-0.1507359999999999,0.504725,0.256413,-0.10288
1627,0.058043,0.984011,-0.168364,0.439759,0.52191,0.409147
1628,0.077011,0.982597,-0.169008,0.304352,0.500709,0.429521
1629,0.090524,0.983348,-0.157557,0.043128,0.164937,0.286692
1630,0.091116,0.984736,-0.148274,-0.1277829999999999,-0.290491,0.138234
1631,0.080305,0.985229,-0.15122,-0.05815,-0.253844,0.173986
1632,0.068786,0.985068,-0.157805,0.118805,-0.163718,0.297378
1633,0.06211,0.986007,-0.1546799999999999,0.4704819999999999,0.29094,0.352723
1634,0.065553,0.98855,-0.13588,0.4327539999999999,0.369131,0.276062
1635,0.072494,0.991382,-0.109078,0.273286,0.281002,0.018151
1636,0.075783,0.993221,-0.088102,0.316734,0.042683,0.126493
1637,0.078327,0.994577,-0.06836,0.31419,0.0413269999999999,0.106752
1638,0.080815,0.995752,-0.0440459999999999,0.13647,-0.236902,0.132791
1639,0.080665,0.996596,-0.0167949999999999,-0.00103,-0.269637,0.1153059999999999
1640,0.078408,0.99687,0.009687,-0.037209,-0.228514,0.0766169999999999
1641,0.073722,0.996735,0.032799,-0.021552,-0.232865,0.009956
1642,0.066012,0.996511,0.050989,0.05966,-0.26943,-0.014887
1643,0.057784,0.996212,0.064925,0.123002,-0.29446,0.006516
1644,0.051248,0.995689,0.077269,0.11434,-0.286811,-0.023482
1645,0.046724,0.994915,0.089179,0.080916,-0.265515,-0.059546
1646,0.04294,0.994007,0.100487,0.11389,-0.18491,-0.081947
1647,0.039023,0.992975,0.111667,0.138849,-0.134546,-0.116169
1648,0.034062,0.992097,0.120728,0.291301,0.069548,-0.1629799999999999
1649,0.0286699999999999,0.991277,0.128607,0.407334,0.1042579999999999,-0.180746
1650,0.025723,0.990304,0.136481,0.444614,0.101645,-0.1633369999999999
1651,0.026361,0.989167,0.144379,0.3212489999999999,0.102279,-0.156357
1652,0.029873,0.988324,0.149378,0.327656,0.17142,-0.121531
1653,0.038948,0.988164,0.148344,0.349998,0.222728,-0.132459
1654,0.0536059999999999,0.988767,0.139488,0.4097729999999999,0.0977809999999999,0.037179
1655,0.075234,0.989843,0.120585,0.269905,0.097086,0.147496
1656,0.10288,0.990332,0.092998,0.10174,0.036585,0.151662
1657,0.1272569999999999,0.990126,0.058702,-0.025679,0.130845,0.1884289999999999
1658,0.145483,0.989067,0.023915,0.081171,0.23423,0.2162739999999999
1659,0.161591,0.986834,-0.006177,0.106369,0.241025,0.222638
1660,0.176852,0.983647,-0.033954,0.078564,0.218806,0.170154
1661,0.191346,0.979673,-0.060166,0.102645,0.423404,0.1175539999999999
1662,0.203353,0.975504,-0.083859,0.0474259999999999,0.40618,0.10368
1663,0.211747,0.971343,-0.107931,-0.010087,0.335481,0.109243
1664,0.216455,0.967398,-0.131453,-0.011606,0.283807,0.130324
1665,0.219599,0.963668,-0.152031,0.06458,0.245881,0.127144
1666,0.224351,0.959474,-0.170494,0.0927409999999999,0.219557,0.1014019999999999
1667,0.231273,0.954607,-0.187701,0.1118359999999999,0.01988,0.101214
1668,0.237481,0.950467,-0.200521,0.022224,-0.236096,0.096593
1669,0.2390719999999999,0.948139,-0.209453,-0.072919,-0.386463,0.127239
1670,0.235215,0.948172,-0.21363,-0.175126,-0.4993189999999999,0.208197
1671,0.229227,0.950339,-0.210486,-0.2431429999999999,-0.612875,0.217887
1672,0.225019,0.953413,-0.200905,-0.2720309999999999,-0.645201,0.199592
1673,0.224708,0.956533,-0.185858,-0.281776,-0.635839,0.157416
1674,0.226625,0.959591,-0.16679,-0.261766,-0.579739,0.0906179999999999
1675,0.229658,0.96226,-0.145964,-0.2003,-0.60815,0.0152419999999999
1676,0.2333219999999999,0.963978,-0.127672,-0.188675,-0.5553020000000001,-0.025496
1677,0.23767,0.964654,-0.113795,-0.102522,-0.467447,-0.076757
1678,0.243181,0.964343,-0.104395,0.050322,-0.275394,-0.093344
1679,0.251195,0.96302,-0.097402,0.074519,-0.195747,-0.071727
1680,0.262659,0.960789,-0.0888159999999999,0.096991,-0.109227,-0.0399529999999999
1681,0.27431,0.958691,-0.075233,-0.001269,-0.094189,-0.114281
1682,0.281315,0.95798,-0.055942,-0.060108,-0.1640049999999999,-0.15965
1683,0.281646,0.95876,-0.038061,-0.2168119999999999,0.200801,-0.144557
1684,0.278906,0.959241,-0.045401,-0.236364,1.420275,0.158987
1685,0.272169,0.95985,-0.067871,-0.162794,0.978962,0.379623
1686,0.264241,0.960559,-0.086587,-0.086812,0.496197,0.366707
1687,0.266005,0.958736,-0.1003,0.673143,0.148838,-0.163051
1688,0.276578,0.955878,-0.098978,0.66257,0.151697,-0.164373
1689,0.282225,0.954284,-0.098412,0.229601,-0.099548,-0.2353739999999999
1690,0.289245,0.952513,-0.095139,0.0032049999999999,-0.050688,-0.19989
1691,0.29563,0.951188,-0.088538,-0.0658779999999999,0.2475889999999999,-0.13128
1692,0.297618,0.951352,-0.079664,0.095662,0.437564,0.047361
1693,0.297064,0.952761,-0.063191,0.207483,0.1456579999999999,-0.0224259999999999
1694,0.297723,0.953512,-0.046571,0.219917,-0.084219,-0.061125
1695,0.298737,0.95376,-0.033049,0.079483,-0.221963,-0.024385
1696,0.297053,0.954583,-0.022909,-0.170024,-0.29786,-0.0074099999999999
1697,0.293723,0.955719,-0.0179439999999999,-0.304892,-0.351989,-0.0128479999999999
1698,0.289337,0.957048,-0.018352,-0.2746889999999999,-0.4719399999999999,-0.033817
1699,0.283756,0.958607,-0.02339,-0.144626,-0.613438,-0.044756
1700,0.27814,0.96006,-0.0302649999999999,-0.087588,-0.7240979999999999,-0.1184009999999999
1701,0.272723,0.961275,-0.0395779999999999,-0.106768,-0.717745,-0.191898
1702,0.267573,0.962023,-0.0539539999999999,0.0304459999999999,-0.472261,-0.116838
1703,0.264005,0.961801,-0.072349,0.274279,-0.1231319999999999,0.072715
1704,0.263784,0.960377,-0.089937,0.242121,-0.004353,0.258928
1705,0.269528,0.956633,-0.110463,0.01984,0.101808,0.202961
1706,0.280794,0.949309,-0.141288,-0.082827,0.34923,0.087501
1707,0.29568,0.938699,-0.177235,-0.00059,0.690817,-0.145336
1708,0.306881,0.927322,-0.214227,-0.074978,0.733399,-0.2864739999999999
1709,0.310967,0.918199,-0.2453699999999999,-0.075127,0.620574,-0.326606
1710,0.3144099999999999,0.910606,-0.268214,0.155546,0.925881,-0.278188
1711,0.320383,0.905085,-0.27959,0.298865,0.747838,-0.180569
1712,0.327221,0.903579,-0.276526,0.051944,0.216188,-0.079614
1713,0.329835,0.906988,-0.261872,-0.010346,-0.1424619999999999,-0.105651
1714,0.327403,0.913526,-0.2413989999999999,-0.084605,-0.394528,-0.130168
1715,0.323325,0.920606,-0.218954,-0.17739,-0.4728819999999999,-0.073557
1716,0.320126,0.926725,-0.196712,-0.186688,-0.574308,-0.020375
1717,0.317473,0.931342,-0.178346,-0.243346,-0.660407,0.01294
1718,0.309336,0.937439,-0.159729,-0.250391,-0.7839510000000001,0.009491
1719,0.2963699999999999,0.945318,-0.1361369999999999,-0.225477,-0.690466,-0.0619669999999999
1720,0.282371,0.952769,-0.111774,-0.145225,-0.237177,-0.145169
1721,0.274103,0.957281,-0.092061,-0.105265,-0.0026449999999999,-0.196269
1722,0.274019,0.958536,-0.078205,-0.018694,0.04035,-0.122097
1723,0.281047,0.957413,-0.066081,-0.015132,-0.0385589999999999,-0.164388
1724,0.293209,0.95432,-0.057399,-0.07922,0.062861,-0.166951
1725,0.303657,0.950541,-0.065244,-0.167121,0.8009229999999999,0.098951
1726,0.305053,0.94909,-0.0785169999999999,-0.250091,0.7702399999999999,0.221187
1727,0.29193,0.952362,-0.088195,-0.2369679999999999,0.766968,0.230865
1728,0.281566,0.95469,-0.096337,0.487599,0.370673,0.062096
1729,0.2872369999999999,0.952722,-0.099047,0.674662,0.279731,-0.199277
1730,0.299703,0.948708,-0.100624,0.261744,0.191047,-0.343544
1731,0.307894,0.9459,-0.102311,0.095045,0.186851,-0.228957
1732,0.31084,0.945592,-0.096061,0.023938,0.24409,-0.0538559999999999
1733,0.311346,0.946778,-0.081661,0.09286,0.162826,-0.013096
1734,0.311675,0.948074,-0.06331,0.136796,0.057984,-0.027953
1735,0.311981,0.949047,-0.044382,0.075653,-0.199673,0.008311
1736,0.310296,0.950258,-0.0268339999999999,0.019004,-0.232423,0.005289
1737,0.305512,0.952101,-0.012629,-0.208467,-0.275618,0.02508
1738,0.298946,0.954263,-0.002578,-0.298976,-0.279291,-0.012025
1739,0.29266,0.95621,0.002296,-0.2368429999999999,-0.361423,-0.087288
1740,0.287021,0.95792,0.001219,-0.185565,-0.401844,-0.107816
1741,0.282012,0.959388,-0.006078,-0.098968,-0.482246,-0.035517
1742,0.278147,0.960393,-0.016546,-0.005533,-0.617955,-0.1018309999999999
1743,0.275513,0.960824,-0.03007,0.084183,-0.589608,-0.243948
1744,0.274899,0.960343,-0.046553,0.207828,-0.398407,-0.152056
1745,0.276198,0.959169,-0.060854,0.27614,-0.169649,0.046465
1746,0.2791679999999999,0.957453,-0.073094,0.161079,-0.253779,0.060536
1747,0.281195,0.955794,-0.085914,0.069833,-0.188994,0.060707
1748,0.283989,0.953183,-0.1038569999999999,-0.050438,0.080417,0.121146
1749,0.292255,0.947405,-0.130409,-0.095599,0.559233,0.084815
1750,0.306089,0.938178,-0.161634,0.067813,0.887215,-0.017595
1751,0.319958,0.927145,-0.194997,0.043002,0.8751770000000001,-0.334621
1752,0.329994,0.916037,-0.22798,-0.063927,0.8840110000000001,-0.346285
1753,0.337329,0.907453,-0.250467,0.014371,0.6365529999999999,-0.223273
1754,0.343044,0.901982,-0.262192,0.249927,0.296565,-0.131348
1755,0.348354,0.899199,-0.264739,0.09203,0.224306,-0.174104
1756,0.347022,0.900336,-0.2626159999999999,0.007043,0.071649,-0.146121
1757,0.3411679999999999,0.904295,-0.256615,-0.0881769999999999,0.0143449999999999,-0.082131
1758,0.334703,0.909489,-0.246577,-0.210252,-0.108341,-0.01566
1759,0.328914,0.915392,-0.232096,-0.257777,-0.332705,0.026056
1760,0.323704,0.921745,-0.2135369999999999,-0.236958,-0.533119,0.03864
1761,0.316548,0.928649,-0.193398,-0.223958,-0.660522,0.02787
1762,0.306401,0.93628,-0.171737,-0.187962,-0.80011,0.007201
1763,0.296087,0.943549,-0.148472,-0.177999,-0.815466,-0.03268
1764,0.289834,0.948672,-0.126545,-0.192804,-0.395785,-0.103237
1765,0.289101,0.951094,-0.108793,-0.135491,-0.186629,-0.159365
1766,0.293078,0.951256,-0.0959769999999999,-0.110659,-0.135232,-0.151871
1767,0.300273,0.950229,-0.083047,-0.112269,-0.147647,-0.110144
1768,0.308613,0.948824,-0.066982,-0.161854,-0.025255,-0.171483
1769,0.31626,0.947324,-0.050512,-0.154395,0.0311,-0.211969
1770,0.319607,0.946109,-0.052189,-0.249096,0.439572,-0.138118
1771,0.318682,0.945134,-0.0718309999999999,-0.146334,1.22813,0.328698
1772,0.308461,0.947583,-0.083271,-0.124821,0.665149,0.2903179999999999
1773,0.300984,0.949214,-0.091636,0.1021379999999999,0.359334,0.130043
1774,0.308376,0.946199,-0.0980149999999999,0.556843,0.377959,-0.100395
1775,0.3209599999999999,0.94159,-0.1019159999999999,0.321969,0.294173,-0.349729
1776,0.326913,0.938741,-0.109029,0.144553,0.259471,-0.299983
1777,0.327102,0.938436,-0.111073,0.0723429999999999,0.3089699999999999,-0.178219
1778,0.326508,0.939231,-0.1059789999999999,0.276611,0.338509,-0.1203849999999999
1779,0.326798,0.940395,-0.0941,0.329773,0.238362,-0.093293
1780,0.329024,0.941106,-0.07782,0.2292489999999999,-0.08782,-0.018234
1781,0.332005,0.94144,-0.058792,0.055476,-0.14455,0.001602
1782,0.330503,0.942912,-0.04097,-0.114728,-0.112972,-0.000916
1783,0.324448,0.945489,-0.027891,-0.252686,-0.1403589999999999,-0.018037
1784,0.31661,0.948332,-0.020453,-0.2801869999999999,-0.192564,-0.005471
1785,0.3085239999999999,0.95105,-0.017629,-0.198813,-0.259308,-0.046794
1786,0.299723,0.953829,-0.019258,-0.114466,-0.37253,-0.094634
1787,0.290948,0.956402,-0.025281,-0.043054,-0.469143,-0.043048
1788,0.283555,0.958331,-0.034546,-0.02469,-0.4833399999999999,-0.085388
1789,0.277979,0.959506,-0.045504,-0.015421,-0.474628,-0.148923
1790,0.273823,0.960017,-0.05816,0.0359149999999999,-0.429622,-0.112494
1791,0.270598,0.960066,-0.0710269999999999,0.161622,-0.3754099999999999,-0.060382
1792,0.268526,0.959714,-0.082688,0.281721,-0.27136,-0.075072
1793,0.268448,0.958742,-0.093512,0.266403,-0.129793,-0.049661
1794,0.269029,0.957485,-0.104123,0.168532,-0.121319,0.069089
