,gravity.x,gravity.y,gravity.z,userAcceleration.x,userAcceleration.y,userAcceleration.z
0,0.358217,0.922289,-0.145072,-0.004915,-0.259905,0.05387
1,0.357754,0.921486,-0.151188,-0.189526,-0.3819659999999999,-0.138149
2,0.350428,0.922083,-0.16415,-0.068399,-0.374644,-0.149068
3,0.3398239999999999,0.922555,-0.18274,0.065724,-0.391778,-0.041763
4,0.3325849999999999,0.920409,-0.205469,0.057109,-0.5835560000000001,0.048288
5,0.32882,0.916252,-0.228786,-0.013559,-0.643425,0.19952
6,0.32698,0.911573,-0.249205,-0.150848,-0.5685399999999999,0.4139239999999999
7,0.324035,0.906868,-0.2694,-0.317428,-0.0958779999999999,0.2717199999999999
8,0.321443,0.899173,-0.2968969999999999,-0.3537,0.904294,0.040351
9,0.325265,0.885559,-0.331622,0.008719,1.189346,0.390017
10,0.3321909999999999,0.874043,-0.35452,0.077126,0.386165,-0.0007509999999999
11,0.334068,0.86825,-0.36678,0.39547,0.304983,-0.174861
12,0.33735,0.8607600000000001,-0.3811469999999999,0.492606,1.027377,-0.240893
13,0.347724,0.852326,-0.39066,0.051537,0.925888,-0.264522
14,0.36052,0.849002,-0.386275,-0.202226,0.088193,-0.199663
15,0.369042,0.8498700000000001,-0.376185,-0.136224,-0.578966,-0.152746
16,0.372671,0.85372,-0.363683,0.018137,-0.433462,-0.00172
17,0.373496,0.8601040000000001,-0.347431,0.1168299999999999,-0.171871,-0.0017059999999999
18,0.373474,0.8687290000000001,-0.325288,0.01915,-0.104111,-0.085815
19,0.368654,0.879344,-0.301387,-0.084993,-0.182582,-0.1037039999999999
20,0.358986,0.8905040000000001,-0.279493,-0.116692,-0.347749,-0.054033
21,0.347582,0.900481,-0.261352,-0.170946,-0.472152,0.034347
22,0.337941,0.90793,-0.247878,-0.276402,-0.510942,0.098159
23,0.3332,0.913013,-0.235307,-0.298898,-0.169269,0.085161
24,0.332169,0.916789,-0.221686,-0.3472449999999999,0.0289959999999999,0.0925049999999999
25,0.330255,0.919834,-0.2117079999999999,-0.4648529999999999,0.333065,0.113914
26,0.3307239999999999,0.920945,-0.206071,-0.350194,-0.469025,0.230454
27,0.332322,0.92208,-0.198276,-0.361161,-0.5899270000000001,0.286197
28,0.333029,0.923481,-0.190413,-0.251531,-0.706883,0.057188
29,0.334404,0.923661,-0.1871,-0.03759,-0.466096,0.254071
30,0.341358,0.919791,-0.193498,0.50668,0.195748,0.2276929999999999
31,0.346357,0.91713,-0.197214,0.987109,1.07637,-0.05628
32,0.345879,0.91957,-0.186389,-0.046867,0.661652,0.106739
33,0.342651,0.920641,-0.187065,0.013718,1.230146,0.181374
34,0.340356,0.919802,-0.195204,0.351859,0.5127079999999999,-0.314058
35,0.342756,0.918509,-0.1970839999999999,0.407794,-0.4197909999999999,-0.134184
36,0.347325,0.916956,-0.196316,0.351527,-0.4879239999999999,-0.093998
37,0.353982,0.916103,-0.188239,0.336478,0.074696,-0.1153039999999999
38,0.357256,0.917076,-0.176979,0.311461,0.687157,0.006478
39,0.354488,0.92002,-0.166982,0.304006,0.452355,0.038274
40,0.353186,0.922673,-0.154648,0.1074,-0.053227,0.0140539999999999
41,0.351785,0.923988,-0.149915,-0.2703489999999999,-0.289574,0.098782
42,0.347581,0.924019,-0.159243,-0.317475,-0.293068,0.138522
43,0.341058,0.922544,-0.180482,-0.139398,-0.673002,0.211854
44,0.333948,0.919372,-0.207889,-0.197718,-0.7943560000000001,0.205096
45,0.334517,0.911821,-0.2380429999999999,-0.295973,-0.916735,0.219717
46,0.346807,0.8977629999999999,-0.271532,-0.368078,-0.844556,0.010516
47,0.3638,0.878648,-0.309213,-0.248871,-0.193177,-0.060202
48,0.378026,0.8567969999999999,-0.3506869999999999,-0.056508,0.478377,0.127725
49,0.3854059999999999,0.8335469999999999,-0.395789,0.867539,1.199351,-0.022653
50,0.389577,0.825249,-0.408878,0.313091,0.671439,0.08324
51,0.394869,0.823625,-0.407072,-0.227633,0.098372,-0.376452
52,0.397798,0.8232790000000001,-0.404914,-0.1080329999999999,0.011682,-0.133965
53,0.39678,0.824422,-0.4035849999999999,-0.13645,0.582942,-0.057856
54,0.399879,0.82204,-0.405382,0.155617,0.379086,0.042161
55,0.402972,0.823197,-0.399934,-0.088473,0.102248,0.125886
56,0.406348,0.83037,-0.381253,-0.150549,-0.052812,0.0297519999999999
57,0.410327,0.842283,-0.34954,-0.1796289999999999,-0.042509,-0.106439
58,0.412984,0.8538629999999999,-0.316776,-0.044393,-0.219296,-0.256726
59,0.40988,0.86344,-0.294031,0.000154,-0.381003,-0.36405
60,0.402776,0.8712610000000001,-0.280463,-0.090322,-0.430252,-0.052911
61,0.396204,0.8782639999999999,-0.267692,-0.4652189999999999,-0.120726,0.098411
62,0.384717,0.8884280000000001,-0.250344,-0.49368,-0.011047,0.14982
63,0.37243,0.8996940000000001,-0.227661,-0.470361,0.014124,0.179993
64,0.369133,0.905329,-0.210006,-0.324502,-0.4224489999999999,0.366836
65,0.372101,0.906814,-0.19802,-0.1976619999999999,-0.641891,0.3074409999999999
66,0.377349,0.907217,-0.185866,-0.016815,-0.530112,0.354567
67,0.388422,0.904108,-0.178041,0.6306970000000001,0.519278,0.244065
68,0.399405,0.899655,-0.17629,0.581781,1.90665,-0.097803
69,0.395625,0.899093,-0.187335,0.585561,1.907212,-0.086759
70,0.368126,0.907458,-0.202447,-0.089272,1.091672,-0.411002
71,0.358689,0.910949,-0.203707,0.33969,-1.235107,-0.280149
72,0.362982,0.908624,-0.206469,0.522104,-1.186685,-0.004042
73,0.375351,0.903774,-0.205639,0.578751,-0.318218,0.152797
74,0.385928,0.902215,-0.192485,0.112454,1.4029459999999998,0.274501
75,0.384824,0.907297,-0.169422,-0.160825,1.168218,0.136646
76,0.388957,0.910423,-0.140796,-0.377101,-0.112312,-0.080167
77,0.386929,0.912944,-0.129614,-0.375713,-0.621578,0.1592319999999999
78,0.379874,0.916706,-0.123801,-0.3543159999999999,-0.512592,0.125739
79,0.37226,0.920703,-0.1170819999999999,-0.1958069999999999,-0.375553,0.025636
80,0.367171,0.923222,-0.113254,0.19365,-0.1889539999999999,-0.079159
81,0.3658619999999999,0.923927,-0.1117339999999999,0.226591,-0.264762,-0.133719
82,0.367352,0.922525,-0.118241,0.315769,-0.3160949999999999,-0.109787
83,0.367405,0.921033,-0.129199,0.2198449999999999,-0.339414,-0.141629
84,0.361684,0.920868,-0.145492,0.205562,-0.325302,-0.031022
85,0.353002,0.920658,-0.1666109999999999,0.04867,-0.377232,0.16565
86,0.34397,0.919981,-0.187888,-0.186224,-0.3532389999999999,0.260169
87,0.3362219999999999,0.918337,-0.208792,-0.301142,-0.266847,0.251776
88,0.33023,0.914643,-0.233153,-0.405867,0.711761,-0.024065
89,0.327115,0.908357,-0.2605139999999999,-0.190808,0.908492,0.151017
90,0.329319,0.898365,-0.290644,0.1459609999999999,0.8777590000000001,0.269144
91,0.334887,0.888655,-0.313252,0.496305,0.468538,-0.091075
92,0.33893,0.88228,-0.3266409999999999,0.357359,0.457976,-0.010929
93,0.346893,0.8755280000000001,-0.336304,0.2408449999999999,0.897955,-0.293975
94,0.3578969999999999,0.869058,-0.341516,-0.076892,0.223273,-0.190374
95,0.365921,0.8652139999999999,-0.342771,-0.055985,-0.0468089999999999,-0.09006
96,0.364915,0.866783,-0.339868,0.027984,-0.318977,0.112191
97,0.356652,0.8732770000000001,-0.331922,-0.077646,-0.399003,0.17317
98,0.346681,0.8829809999999999,-0.316451,-0.219652,-0.379029,0.128127
99,0.33812,0.892956,-0.297134,-0.30922,-0.4033469999999999,0.116791
100,0.329842,0.902381,-0.277303,-0.266701,-0.486167,0.236364
101,0.321218,0.911307,-0.257529,-0.253729,-0.491126,0.157813
102,0.315188,0.918811,-0.2375409999999999,-0.255312,-0.505664,0.069359
103,0.310803,0.924589,-0.220269,-0.349072,-0.339567,-0.006767
104,0.30523,0.928816,-0.210044,-0.349572,-0.089323,-0.040643
105,0.301992,0.930597,-0.206817,-0.322713,-0.036355,-0.0620429999999999
106,0.308429,0.929188,-0.203624,-0.125049,-0.433842,0.017574
107,0.321362,0.926289,-0.196719,-0.19035,-0.49007,0.102847
108,0.3360869999999999,0.922659,-0.189018,-0.189572,-0.4410159999999999,0.0723029999999999
109,0.342699,0.920652,-0.186922,0.088179,-0.060575,0.2474989999999999
110,0.3381989999999999,0.920395,-0.196152,0.7740600000000001,1.196975,0.362259
111,0.332732,0.921795,-0.1989119999999999,0.7795270000000001,1.195575,0.365019
112,0.335569,0.923989,-0.183358,0.225817,0.322166,-0.193733
113,0.342512,0.922177,-0.179602,0.369615,0.70917,-0.074762
114,0.3457929999999999,0.920607,-0.181362,0.225084,0.752977,-0.134434
115,0.342623,0.922455,-0.177956,0.217084,0.249466,-0.085075
116,0.341646,0.924423,-0.169417,0.204832,0.029449,0.002547
117,0.3442139999999999,0.926153,-0.154077,0.36007,0.047693,-0.048407
118,0.347943,0.927929,-0.1336619999999999,0.286014,0.0637399999999999,-0.159871
119,0.349928,0.929578,-0.115827,0.173021,0.015505,-0.187014
120,0.348925,0.931107,-0.106177,0.108397,-0.003738,-0.14956
121,0.345375,0.932783,-0.103021,0.074502,-0.131544,-0.049963
122,0.33984,0.93505,-0.100854,0.086994,-0.373481,-0.040381
123,0.332916,0.937607,-0.10021,0.086426,-0.55014,0.0585539999999999
124,0.325494,0.939843,-0.1035859999999999,-0.052011,-0.584588,0.051157
125,0.317213,0.941632,-0.1126349999999999,-0.193724,-0.513867,0.071132
126,0.308148,0.942479,-0.129459,-0.129208,-0.5071760000000001,0.2088809999999999
127,0.298831,0.942151,-0.151769,-0.170764,-0.6166659999999999,0.283788
128,0.291426,0.940586,-0.174218,-0.32295,-0.6640659999999999,0.131829
129,0.285311,0.938244,-0.19565,-0.279391,-0.540447,0.157472
130,0.283788,0.933783,-0.21794,0.21081,1.203653,-0.09929
131,0.291561,0.922754,-0.2519929999999999,0.5285380000000001,1.26798,-0.036642
132,0.305148,0.909745,-0.281484,0.442762,0.659514,-0.224925
133,0.314505,0.903736,-0.290401,0.454874,0.676602,-0.425724
134,0.3245889999999999,0.897183,-0.299483,0.444789,0.6831550000000001,-0.416643
135,0.333251,0.8909809999999999,-0.308354,0.2398539999999999,0.565287,-0.277706
136,0.332656,0.8906229999999999,-0.310027,0.026032,0.206713,-0.185884
137,0.32688,0.8944770000000001,-0.305034,-0.00614,0.027062,-0.139683
138,0.317762,0.900829,-0.295837,0.017993,-0.315182,0.0052179999999999
139,0.30739,0.908934,-0.2816659999999999,-0.086824,-0.2372719999999999,0.025547
140,0.297607,0.917271,-0.264629,-0.1201619999999999,-0.272602,0.09341
141,0.287084,0.925889,-0.245551,-0.149343,-0.44272,0.109123
142,0.275255,0.934787,-0.22448,-0.143374,-0.513217,0.083382
143,0.26316,0.943196,-0.202758,-0.133017,-0.528096,-0.002168
144,0.254742,0.94929,-0.184221,-0.100338,-0.543573,-0.071409
145,0.249421,0.953206,-0.170789,-0.119142,-0.433842,0.023282
146,0.244786,0.955796,-0.162833,-0.193028,-0.185075,0.0001899999999999
147,0.239534,0.957345,-0.161537,-0.328188,0.159415,-0.064338
148,0.2399099999999999,0.956353,-0.166774,-0.292049,0.002036,-0.1396069999999999
149,0.2436699999999999,0.953909,-0.17511,-0.165179,-0.500067,-0.170273
150,0.250069,0.950198,-0.185935,-0.149667,-0.67589,0.283026
151,0.25503,0.944598,-0.206585,0.225546,0.73477,0.174313
152,0.252738,0.935872,-0.245461,0.616251,1.465083,0.6143569999999999
153,0.247853,0.926997,-0.281477,1.384044,1.886693,0.776807
154,0.247227,0.927464,-0.280488,0.047039,0.360195,0.15062
155,0.252822,0.929006,-0.270207,0.043137,0.912226,-0.166622
156,0.260449,0.923013,-0.2831909999999999,0.035511,0.918219,-0.153638
157,0.259365,0.92187,-0.2878699999999999,0.666188,0.424352,0.0275389999999999
158,0.265369,0.923558,-0.2767739999999999,0.567181,-0.1150559999999999,-0.115255
159,0.270399,0.928152,-0.255735,0.4514479999999999,-0.155478,-0.01494
160,0.266051,0.935889,-0.230893,0.235535,-0.166769,0.124372
161,0.262237,0.943402,-0.202992,0.085801,-0.004636,0.152501
162,0.262842,0.949108,-0.1734609999999999,-0.20553,-0.08514,0.124785
163,0.264113,0.953341,-0.146175,-0.311141,-0.27376,0.0687059999999999
164,0.260827,0.957364,-0.124105,-0.231332,-0.496717,0.102407
165,0.250386,0.96201,-0.108732,-0.091786,-0.7179760000000001,0.111265
166,0.235073,0.967301,-0.095125,0.060062,-0.653565,0.029023
167,0.217414,0.972803,-0.079779,0.25448,-0.254327,0.010855
168,0.203028,0.976989,-0.065193,0.21758,-0.038741,-0.082756
169,0.194165,0.97927,-0.05752,0.057575,0.023736,-0.194662
170,0.183645,0.981321,-0.0571049999999999,0.402003,0.04471,-0.2535179999999999
171,0.171744,0.983203,-0.061596,0.679651,-0.035953,-0.229663
172,0.158816,0.98506,-0.066426,0.931516,-0.1436599999999999,-0.235668
173,0.147905,0.98673,-0.066834,0.494139,-0.020666,0.121918
174,0.144325,0.987329,-0.065816,0.32653,0.07862,0.191579
175,0.147019,0.986512,-0.0718309999999999,0.179031,0.055511,0.306221
176,0.151858,0.984745,-0.0848309999999999,0.541517,0.309948,0.385704
177,0.157419,0.981387,-0.1099079999999999,0.595831,0.48184,0.37477
178,0.166501,0.976226,-0.13871,0.154498,0.455491,0.26281
179,0.181375,0.970013,-0.161736,-0.023843,0.350925,0.2322929999999999
180,0.195045,0.964465,-0.178174,-0.175285,0.265179,0.095121
181,0.201421,0.960188,-0.193522,0.2907969999999999,0.195711,0.0898539999999999
182,0.199672,0.956512,-0.212598,0.414967,0.123413,0.110273
183,0.195381,0.953187,-0.230748,0.486992,0.083587,0.130925
184,0.191413,0.950055,-0.2464579999999999,0.275567,-0.004879,0.163115
185,0.190608,0.946913,-0.258861,0.0894669999999999,-0.006742,0.205867
186,0.193101,0.943726,-0.268474,0.054366,-0.126251,0.250056
187,0.193465,0.94238,-0.272903,0.1330579999999999,-0.242917,0.332443
188,0.18843,0.944456,-0.269223,0.071916,-0.381102,0.367306
189,0.17784,0.948292,-0.262868,-0.101546,-0.353916,0.300039
190,0.165867,0.950603,-0.262349,-0.144444,-0.153972,0.2315719999999999
191,0.156986,0.951834,-0.263345,-0.096622,-0.199576,0.2319119999999999
192,0.151724,0.953644,-0.259858,-0.07131,-0.225739,0.137299
193,0.150293,0.956198,-0.25116,-0.0053799999999999,-0.186773,0.0107739999999999
194,0.151344,0.958357,-0.242138,0.119209,-0.097791,-0.104099
195,0.151749,0.960303,-0.234036,0.203765,-0.056052,-0.052341
196,0.151339,0.961748,-0.2282969999999999,0.192075,-0.074679,-0.092321
197,0.152191,0.963285,-0.2211389999999999,0.140961,-0.0417149999999999,-0.137503
198,0.1558369999999999,0.964137,-0.2147949999999999,0.1155099999999999,-0.009364,-0.226978
199,0.161192,0.963753,-0.212556,0.267717,-0.088783,-0.178481
200,0.167043,0.962173,-0.215178,0.159144,-0.1386869999999999,-0.27176
201,0.176251,0.959611,-0.219238,0.1980319999999999,0.084212,-0.045975
202,0.189225,0.953421,-0.2348719999999999,0.406875,0.5188689999999999,0.083718
203,0.202853,0.947519,-0.2470659999999999,0.112516,0.241034,0.326794
204,0.215848,0.94585,-0.242407,-0.041242,0.401501,0.311224
205,0.222734,0.94638,-0.2339619999999999,0.19702,0.190522,-0.008989
206,0.213353,0.949678,-0.229294,0.416591,-0.451219,0.316025
207,0.204769,0.950231,-0.23476,0.465427,-0.371267,0.385685
208,0.211996,0.948589,-0.234986,0.357798,0.027744,0.55298
209,0.2247,0.949712,-0.218033,0.269776,0.50326,0.28595
210,0.2319929999999999,0.954324,-0.188222,-0.023878,0.388038,-0.0601149999999999
211,0.234519,0.958234,-0.163615,0.1380549999999999,0.033542,0.179805
212,0.2365969999999999,0.960168,-0.148594,0.152273,-0.072183,0.299824
213,0.2394099999999999,0.961498,-0.134854,0.040971,0.018055,0.130963
214,0.237206,0.964116,-0.119141,-0.015359,0.0208539999999999,-0.051711
215,0.229973,0.96749,-0.105147,0.173012,-0.204428,-0.1067369999999999
216,0.2255059999999999,0.969686,-0.094,0.224095,-0.3230949999999999,-0.0539039999999999
217,0.226938,0.970395,-0.0825419999999999,0.158896,-0.538144,0.08831
218,0.230699,0.970641,-0.06792,0.134856,-0.304977,0.022113
219,0.232071,0.97129,-0.0521299999999999,0.115128,-0.145073,-0.031382
220,0.231884,0.971873,-0.040891,0.045689,0.035802,-0.114916
221,0.2320539999999999,0.971952,-0.037956,0.119951,-0.095166,-0.1665569999999999
222,0.230496,0.972192,-0.041161,0.198933,-0.123315,-0.129127
223,0.2269429999999999,0.972855,-0.045057,0.385026,-0.018937,-0.016176
224,0.222719,0.973592,-0.049947,0.35829,-0.093771,0.071508
225,0.218135,0.974163,-0.058351,0.251668,-0.143352,0.101853
226,0.212201,0.974719,-0.0698179999999999,0.200839,0.2217989999999999,0.419
227,0.206455,0.974478,-0.088028,0.151272,0.434884,0.5378729999999999
228,0.2045529999999999,0.971442,-0.120169,-0.242135,0.323678,0.22605
229,0.210116,0.96596,-0.150847,-0.032061,0.191159,0.148741
230,0.217278,0.959855,-0.177345,0.134284,0.3371719999999999,-0.012978
231,0.226631,0.953211,-0.200026,0.424355,0.394842,-0.1003889999999999
232,0.234198,0.94676,-0.220863,0.384302,-0.022505,-0.114311
233,0.239992,0.941419,-0.236895,0.205519,-0.039701,-0.052976
234,0.245025,0.93713,-0.248465,0.141099,0.010822,-0.049829
235,0.24975,0.933472,-0.257374,0.02439,0.230484,-0.013256
236,0.2554599999999999,0.9306,-0.262125,-0.0120819999999999,0.107898,0.03985
237,0.2646489999999999,0.927901,-0.262576,-0.004105,-0.05902,0.095828
238,0.274572,0.925885,-0.2594869999999999,0.056132,-0.490795,0.18919
239,0.281366,0.926006,-0.251657,0.002112,-0.509075,0.185114
240,0.28141,0.928733,-0.241348,-0.253913,-0.30564,0.091644
241,0.279832,0.931971,-0.230454,-0.157136,-0.324869,0.078262
242,0.2782969999999999,0.934784,-0.220713,-0.078346,-0.323639,0.061701
243,0.277212,0.936846,-0.213207,-0.04331,-0.351519,-0.005406
244,0.27723,0.938733,-0.204716,-0.009041,-0.440762,-0.037792
245,0.277434,0.940957,-0.193944,-0.039168,-0.4693229999999999,-0.04626
246,0.276736,0.94346,-0.18244,-0.017383,-0.480035,-0.0585269999999999
247,0.276508,0.94613,-0.168416,-0.0646549999999999,-0.5464720000000001,-0.0454209999999999
248,0.277878,0.948205,-0.153862,-0.225998,-0.5241939999999999,-0.004508
249,0.281802,0.948842,-0.142372,-0.337665,-0.433629,0.102104
250,0.286085,0.948972,-0.132627,-0.297651,-0.208982,0.157422
251,0.28851,0.949469,-0.123502,-0.247098,-0.043738,0.126477
252,0.296747,0.947652,-0.1178119999999999,-0.0556269999999999,-0.0893289999999999,0.29753
253,0.311845,0.943305,-0.113622,0.072112,-0.1592319999999999,0.182714
254,0.326778,0.938598,-0.110596,0.33408,0.113923,0.20012
255,0.338098,0.934377,-0.112301,0.836478,0.717707,-0.045704
256,0.338538,0.934717,-0.1080599999999999,0.213113,0.811666,-0.013003
257,0.33593,0.936619,-0.099385,-0.220711,0.768764,-0.079326
258,0.332051,0.936093,-0.1159869999999999,0.366542,1.648852,0.363439
259,0.331228,0.934662,-0.129137,0.580729,0.122848,-0.434172
260,0.337434,0.931902,-0.132963,0.451323,-0.061037,-0.172167
261,0.345641,0.928217,-0.137573,0.391496,-0.079447,-0.253617
262,0.350724,0.927414,-0.129909,0.27365,-0.159409,-0.342778
263,0.349454,0.929534,-0.1176,0.0819889999999999,-0.032775,-0.056579
264,0.343167,0.933942,-0.099841,0.0135979999999999,-0.224515,0.117617
265,0.336153,0.938708,-0.076205,-0.062197,-0.24274,0.05266
266,0.331351,0.942007,-0.0529809999999999,-0.186835,-0.034003,-0.004667
267,0.325482,0.944603,-0.042017,-0.274426,-0.090813,-0.021032
268,0.314096,0.948256,-0.046183,-0.1139319999999999,-0.335661,0.126017
269,0.2994239999999999,0.952599,-0.053658,0.082977,-0.518257,0.1144029999999999
270,0.287558,0.955579,-0.064482,0.057748,-0.542752,0.028685
271,0.280073,0.956187,-0.085115,-0.008237,-0.518367,-0.142958
272,0.274011,0.955477,-0.109364,-0.119364,-0.668658,0.177967
273,0.270995,0.953426,-0.132367,-0.2250199999999999,-0.726345,0.2141239999999999
274,0.271921,0.949329,-0.157524,-0.289591,-0.389362,0.1497119999999999
275,0.281524,0.939478,-0.195212,0.270478,1.458533,0.016714
276,0.293383,0.928272,-0.2285179999999999,0.273909,1.506772,-0.022428
277,0.302092,0.92265,-0.239666,-0.065764,0.5481600000000001,-0.236591
278,0.317243,0.915651,-0.246825,0.413699,0.25273,-0.06476
279,0.338145,0.904461,-0.259982,0.587911,0.256336,-0.140897
280,0.350543,0.8985190000000001,-0.264133,-0.034686,0.251551,-0.312405
281,0.356651,0.897698,-0.258693,-0.166725,0.18531,-0.3361409999999999
282,0.359953,0.8995280000000001,-0.24752,-0.24893,0.000679,-0.23513
283,0.360164,0.902003,-0.238023,0.091236,-0.282557,-0.03102
284,0.358668,0.906045,-0.2245469999999999,0.049596,-0.287912,-0.043199
285,0.35738,0.911488,-0.203596,-0.002003,-0.289921,-0.0729549999999999
286,0.355356,0.917842,-0.176834,-0.140528,-0.350154,-0.155533
287,0.351547,0.924046,-0.150117,-0.201415,-0.412388,-0.06732
288,0.345423,0.928874,-0.133627,-0.291315,-0.462718,-0.012064
289,0.339042,0.932544,-0.124063,-0.486626,-0.6245149999999999,0.125055
290,0.336599,0.935291,-0.109139,-0.278555,-0.72823,-0.017387
291,0.34342,0.934958,-0.088858,-0.185461,-0.911612,-0.107293
292,0.359038,0.930313,-0.074767,-0.348814,-0.734008,-0.0257279999999999
293,0.377411,0.922963,-0.07537,-0.25824,-0.4512069999999999,0.233573
294,0.385188,0.917158,-0.102132,0.618169,1.033296,0.0590409999999999
295,0.377727,0.916876,-0.128999,1.344044,2.776468,0.266816
296,0.373978,0.921147,-0.10775,-0.187668,0.4377399999999999,-0.465904
297,0.378717,0.919035,-0.109219,-0.4102409999999999,-0.054564,-0.238834
298,0.383156,0.914524,-0.12969,1.206596,0.767544,-0.70872
299,0.370334,0.919055,-0.1348059999999999,0.59747,0.276609,-0.025488
300,0.367956,0.920893,-0.12863,0.350076,0.07781,0.034179
301,0.374882,0.919443,-0.118614,0.0590169999999999,0.01554,-0.168373
302,0.379619,0.917909,-0.115377,0.174427,0.082427,-0.257746
303,0.379994,0.917401,-0.118155,0.100582,-0.045285,-0.187631
304,0.378929,0.91683,-0.1257599999999999,-0.0068579999999999,-0.391989,-0.079135
305,0.3764429999999999,0.915552,-0.141547,-0.116128,-0.685297,0.204978
306,0.368719,0.916043,-0.157775,-0.22788,-0.734921,0.351135
307,0.357013,0.918801,-0.1683049999999999,-0.203418,-0.6765680000000001,0.207688
308,0.3472989999999999,0.920114,-0.180981,-0.227106,-0.6492859999999999,0.151028
309,0.341717,0.91828,-0.199931,-0.232342,-0.706885,0.0803929999999999
310,0.338623,0.913259,-0.226438,-0.293106,-0.485387,0.1092809999999999
311,0.342455,0.903738,-0.256836,-0.1104599999999999,1.176813,0.088165
312,0.3583449999999999,0.886834,-0.291714,0.498405,1.689505,0.115383
313,0.369513,0.8779680000000001,-0.304329,0.049539,0.660988,-0.050438
314,0.378361,0.873094,-0.3074639999999999,0.2237199999999999,0.443328,-0.149125
315,0.392889,0.8643370000000001,-0.313916,0.3986909999999999,0.651135,-0.271686
316,0.405696,0.8572770000000001,-0.316972,0.065053,0.906899,-0.324187
317,0.411837,0.8554129999999999,-0.314075,-0.110293,-0.262243,-0.242443
318,0.414318,0.8575969999999999,-0.304718,-0.144588,-0.5514600000000001,-0.2444
319,0.4183489999999999,0.861772,-0.286908,-0.081817,-0.361071,-0.119388
320,0.4215,0.867108,-0.265416,0.087136,-0.124279,-0.110698
321,0.417904,0.8753340000000001,-0.243166,-0.040097,-0.0635049999999999,-0.151777
322,0.408363,0.885975,-0.2197059999999999,-0.066902,-0.202519,-0.124242
323,0.393331,0.8982530000000001,-0.195997,-0.081624,-0.28665,-0.128329
324,0.3755159999999999,0.910032,-0.175533,-0.313229,-0.523466,-0.075764
325,0.355763,0.920687,-0.160468,-0.372212,-0.476137,-0.000634
326,0.339864,0.928441,-0.149904,-0.33643,-0.212575,0.135454
327,0.335226,0.931139,-0.143477,-0.291738,0.003538,0.091032
328,0.3442179999999999,0.928598,-0.138562,-0.192958,-0.160898,-0.013019
329,0.35874,0.924189,-0.131,-0.187857,-0.2308909999999999,0.047474
330,0.372661,0.919601,-0.124246,-0.3198809999999999,-0.185623,-0.160254
331,0.378508,0.917501,-0.1220779999999999,0.0556809999999999,-0.256292,0.207863
332,0.376484,0.916994,-0.131769,0.3091239999999999,-0.062578,0.2692969999999999
333,0.376849,0.913936,-0.150621,0.633679,0.3870889999999999,0.181047
334,0.384561,0.911691,-0.144613,0.4001369999999999,0.4351109999999999,-0.036463
335,0.395126,0.910325,-0.123143,0.107925,0.652786,-0.104243
336,0.402647,0.906343,-0.128054,0.16559,0.822325,0.054858
337,0.400409,0.90628,-0.135312,0.173978,0.629242,-0.107898
338,0.394437,0.909477,-0.131346,0.094913,0.0641559999999999,-0.00728
339,0.393753,0.910872,-0.123495,0.151901,-0.124724,-0.030482
340,0.398068,0.910297,-0.1135,0.075977,-0.048755,-0.1080119999999999
341,0.401524,0.909891,-0.104192,0.023967,0.001272,-0.115642
342,0.399206,0.911835,-0.095763,0.009791,-0.017273,-0.082994
343,0.395275,0.914232,-0.0889679999999999,0.198673,0.040846,-0.123267
344,0.393294,0.915675,-0.082694,0.1099869999999999,-0.165385,-0.16076
345,0.392631,0.916338,-0.0783919999999999,-0.000724,-0.227739,-0.2097099999999999
346,0.387529,0.918203,-0.081867,-0.037569,-0.300436,-0.176587
347,0.377865,0.921433,-0.09032,0.026081,-0.356919,-0.156277
348,0.366386,0.925343,-0.097371,0.116647,-0.336232,-0.09341
349,0.35635,0.928622,-0.103222,0.045429,-0.302371,-0.063359
350,0.347433,0.931031,-0.1115829999999999,-0.000662,-0.265946,0.020778
351,0.3366119999999999,0.933354,-0.124589,-0.1156339999999999,-0.418675,0.173189
352,0.324331,0.935942,-0.137122,-0.1406609999999999,-0.6087020000000001,0.34925
353,0.314867,0.937447,-0.148429,-0.354189,-0.429299,0.208
354,0.311824,0.935674,-0.165106,-0.39352,-0.098348,0.026556
355,0.320301,0.927343,-0.193449,-0.2962079999999999,0.759059,-0.204821
356,0.337766,0.912594,-0.230361,0.375735,0.789981,-0.069184
357,0.351941,0.901116,-0.253195,0.328311,0.517798,-0.073114
358,0.360105,0.895134,-0.262756,0.33858,0.328529,-0.100464
359,0.369571,0.890352,-0.265841,0.269055,0.14105,-0.2191139999999999
360,0.379472,0.8864290000000001,-0.265,0.0697919999999999,0.2743219999999999,-0.2973929999999999
361,0.386254,0.884059,-0.263112,-0.060937,0.2545969999999999,-0.278041
362,0.389536,0.8840629999999999,-0.258215,-0.123652,-0.216079,-0.087015
363,0.388357,0.8867719999999999,-0.25059,-0.086798,-0.336571,-0.060049
364,0.384279,0.892581,-0.235816,-0.139894,-0.248599,-0.0623559999999999
365,0.381185,0.8989809999999999,-0.215666,-0.060857,-0.255167,-0.1049829999999999
366,0.376037,0.905761,-0.195379,-0.097213,-0.2516469999999999,-0.098567
367,0.369093,0.912888,-0.174314,-0.26364,-0.244598,-0.042422
368,0.360657,0.919939,-0.153677,-0.307953,-0.201967,0.091025
369,0.349496,0.926661,-0.1383069999999999,-0.338265,-0.113063,0.1668099999999999
370,0.337059,0.933105,-0.1252319999999999,-0.391319,-0.1739349999999999,0.130816
371,0.331029,0.937282,-0.109078,-0.097799,-0.7306779999999999,-0.072837
372,0.33105,0.939139,-0.091651,-0.082271,-0.908575,-0.116097
373,0.340053,0.936773,-0.082428,-0.229488,-0.756155,0.049561
374,0.355674,0.930872,-0.083364,-0.072532,-0.42811,0.089742
375,0.3689199999999999,0.923977,-0.100694,0.084968,-0.005337,0.281953
376,0.3684429999999999,0.922047,-0.118552,0.861431,1.829418,0.243948
377,0.362043,0.926746,-0.100212,-0.081525,0.29205,-0.262535
378,0.369419,0.923922,-0.099358,-0.101399,0.035611,0.048531
379,0.378662,0.9184,-0.114591,0.763748,1.009624,-0.493014
380,0.368651,0.922211,-0.116618,0.33191,0.356125,-0.177037
381,0.362718,0.924678,-0.1156809999999999,0.143981,0.055714,-0.133373
382,0.363466,0.925253,-0.108513,0.125136,-0.092947,-0.192955
383,0.364736,0.926101,-0.096333,0.281977,0.115052,-0.373028
384,0.362489,0.927783,-0.088296,0.286925,0.05644,-0.37728
385,0.359384,0.929282,-0.085174,0.100257,-0.246726,-0.097825
386,0.3582369999999999,0.929871,-0.083561,0.027902,-0.42891,0.0183289999999999
387,0.357043,0.930236,-0.084595,-0.089435,-0.408004,0.195542
388,0.351068,0.932237,-0.087532,-0.191568,-0.373002,0.120765
389,0.342805,0.934375,-0.096972,-0.080537,-0.365543,0.093295
390,0.334598,0.93496,-0.117773,-0.086276,-0.417382,0.130208
391,0.327856,0.93437,-0.139426,-0.202734,-0.734755,0.146201
392,0.325117,0.932207,-0.158956,-0.338057,-0.344255,0.156072
393,0.327829,0.926617,-0.184085,-0.285105,0.094028,0.043094
394,0.33452,0.916946,-0.217454,0.131529,1.188935,-0.031249
395,0.338686,0.908907,-0.24323,0.319776,0.991927,0.038975
396,0.346377,0.904008,-0.250546,-0.1217829999999999,0.45143,-0.128299
397,0.357806,0.897962,-0.256163,0.059751,0.236132,-0.113954
398,0.367975,0.8935040000000001,-0.257343,0.253668,0.02741,-0.174511
399,0.373932,0.8922559999999999,-0.253051,0.041732,0.060824,-0.398652
400,0.380715,0.890408,-0.249419,0.079277,0.315021,-0.381684
401,0.3854849999999999,0.8895489999999999,-0.245119,0.063871,0.176033,-0.10066
402,0.385639,0.8922610000000001,-0.2348039999999999,0.022228,0.129483,-0.067396
403,0.382764,0.8982760000000001,-0.215805,0.009127,0.10354,-0.030273
404,0.375651,0.906514,-0.192606,-0.134181,-0.2560929999999999,0.0547429999999999
405,0.3653409999999999,0.915572,-0.168024,-0.2057949999999999,-0.4229569999999999,-0.023962
406,0.3562099999999999,0.922804,-0.146713,-0.345376,-0.787062,-0.002991
407,0.3518239999999999,0.927195,-0.128476,-0.5946520000000001,-1.112757,-0.132617
408,0.354333,0.928702,-0.1092559999999999,-0.5733729999999999,-1.135337,-0.150357
409,0.361464,0.92746,-0.095595,-0.204405,-1.079453,-0.100664
410,0.371623,0.923537,-0.094614,-0.2100929999999999,-1.045165,0.0502569999999999
411,0.382809,0.9188,-0.096121,-0.346844,-0.505684,0.226309
412,0.387121,0.916275,-0.1027309999999999,0.402628,1.081558,0.332146
413,0.393959,0.911027,-0.1216619999999999,1.28611,2.008177,-0.023952
414,0.402104,0.909156,-0.108279,1.143795,1.083505,-0.225751
415,0.405776,0.909096,-0.094153,-0.823317,-0.1880119999999999,0.090109
416,0.410385,0.905504,-0.107807,0.160554,1.548765,-0.671795
417,0.399326,0.907971,-0.126899,1.072598,1.582141,-1.0429620000000002
418,0.385425,0.913006,-0.133578,0.6533479999999999,-0.404996,-0.125241
419,0.389081,0.910595,-0.139317,0.606524,-0.508297,0.093937
420,0.398202,0.906013,-0.143359,0.37992,-0.160987,0.089846
421,0.3993219999999999,0.905039,-0.14636,-0.05429,0.13445,-0.1678339999999999
422,0.393961,0.905978,-0.154833,-0.383554,-0.094363,0.166842
423,0.3840949999999999,0.907979,-0.167394,-0.450425,-0.343801,0.186604
424,0.374705,0.908645,-0.184221,-0.428218,-0.591094,0.191866
425,0.36258,0.908807,-0.2063559999999999,-0.184296,-0.007943,0.124401
426,0.351632,0.906621,-0.233176,-0.092263,0.319392,0.090781
427,0.346036,0.901639,-0.259393,0.327777,0.924136,0.105584
428,0.348485,0.896927,-0.2721389999999999,0.242198,0.609604,-0.12372
429,0.360112,0.8911819999999999,-0.2758489999999999,0.245693,0.609901,-0.223052
430,0.3763289999999999,0.883236,-0.279731,0.2636239999999999,0.763401,-0.3408739999999999
431,0.388115,0.877303,-0.282287,0.127617,0.4142619999999999,-0.314332
432,0.394159,0.873447,-0.2858469999999999,0.115576,0.0803649999999999,-0.182812
433,0.3977969999999999,0.872325,-0.284229,0.087143,-0.4920449999999999,0.157306
434,0.396462,0.8767229999999999,-0.272312,-0.306207,-0.231917,0.173221
435,0.391303,0.8841389999999999,-0.255261,-0.301048,-0.239333,0.15617
436,0.382412,0.893647,-0.234808,-0.407177,-0.24144,0.01737
437,0.372353,0.903129,-0.213747,-0.3759389999999999,-0.417488,0.0141319999999999
438,0.363557,0.911113,-0.194105,-0.324265,-0.705669,-0.000949
439,0.35541,0.917862,-0.1766059999999999,-0.335985,-0.849152,0.032059
440,0.349562,0.923356,-0.158734,-0.397123,-0.6949770000000001,0.037625
441,0.343213,0.928308,-0.142917,-0.3947719999999999,-0.188073,0.047336
442,0.341381,0.92996,-0.1364109999999999,-0.303585,0.091097,-0.016849
443,0.351929,0.926581,-0.132544,0.013016,-0.427069,0.089484
444,0.365875,0.922286,-0.124493,-0.014496,-0.8957809999999999,0.12283
445,0.378813,0.918396,-0.114124,-0.236967,-0.907775,-0.0542259999999999
446,0.387884,0.915233,-0.108946,-0.404058,-0.391704,0.006453
447,0.394801,0.911382,-0.116143,0.3476,0.5944159999999999,0.217232
448,0.401397,0.905837,-0.135328,1.921051,1.830323,-0.244387
449,0.402651,0.90756,-0.119085,-0.291246,0.396899,-0.095621
450,0.402677,0.90953,-0.102854,-0.5273869999999999,0.258011,-0.006246
451,0.402219,0.9081,-0.116398,-0.06825,1.482144,0.212132
452,0.394377,0.910371,-0.125164,0.455843,0.294723,-0.331363
453,0.392995,0.910633,-0.127581,0.336955,-0.143299,-0.154417
454,0.397374,0.909368,-0.122951,0.133448,-0.243032,-0.023793
455,0.400368,0.90973,-0.109863,0.074836,-0.059175,-0.06488
456,0.395729,0.912113,-0.106872,-0.224739,0.038235,-0.118714
457,0.38937,0.914026,-0.11367,-0.068218,-0.300989,-0.08735
458,0.3844349999999999,0.915277,-0.12021,0.00146,-0.446955,-0.118666
459,0.382641,0.914697,-0.129961,-0.015713,-0.644662,-0.093443
460,0.379406,0.914461,-0.140665,-0.004605,-0.737276,0.224771
461,0.374942,0.915154,-0.147939,-0.133426,-0.614846,0.217183
462,0.370834,0.915728,-0.154593,-0.149581,-0.487764,0.2656159999999999
463,0.366719,0.915491,-0.165432,-0.219518,-0.389276,0.127697
464,0.362302,0.914812,-0.1784099999999999,-0.288099,-0.249773,0.175938
465,0.360273,0.911811,-0.196924,-0.338712,-0.113868,0.096246
466,0.365623,0.903378,-0.224061,-0.198311,0.804996,0.001984
467,0.377637,0.890325,-0.254342,0.169894,0.74322,-0.0649629999999999
468,0.38399,0.883441,-0.268443,0.139707,0.45123,-0.133382
469,0.387192,0.879008,-0.2782199999999999,0.454605,0.5567989999999999,-0.488564
470,0.393882,0.8706209999999999,-0.294712,0.4242329999999999,1.216232,-0.451381
471,0.3986449999999999,0.8662489999999999,-0.301124,0.2381349999999999,1.193032,-0.428338
472,0.397001,0.867712,-0.299075,-0.120375,0.110392,-0.444242
473,0.392839,0.871297,-0.294106,-0.117143,-0.133077,-0.278053
474,0.383134,0.8789680000000001,-0.283905,-0.114381,-0.077073,-0.247726
475,0.368397,0.8900610000000001,-0.26843,-0.086017,-0.162598,-0.090686
476,0.35076,0.902382,-0.2503039999999999,-0.007345,-0.299477,-0.016984
477,0.330056,0.914952,-0.232174,-0.008828,-0.400151,0.007686
478,0.30812,0.927856,-0.210055,-0.146865,-0.420989,0.035571
479,0.290272,0.939102,-0.183865,-0.219487,-0.324707,-0.0568269999999999
480,0.278236,0.946916,-0.160968,-0.25692,-0.290071,-0.167066
481,0.2730619999999999,0.951211,-0.143562,-0.252417,-0.316476,-0.190193
482,0.272046,0.953438,-0.130082,-0.273725,-0.306282,-0.2116989999999999
483,0.273283,0.954598,-0.1184619999999999,-0.277861,-0.2068719999999999,-0.2475659999999999
484,0.274386,0.955157,-0.1111809999999999,-0.289522,0.002912,-0.29577
485,0.272888,0.955814,-0.109205,-0.317902,0.236904,-0.283312
486,0.269279,0.956803,-0.1095049999999999,-0.216362,0.119278,-0.287498
487,0.266946,0.957292,-0.110928,-0.082284,-0.2676409999999999,-0.365955
488,0.267788,0.956683,-0.114107,-0.003246,-0.66904,-0.329817
489,0.269558,0.955469,-0.119964,0.0474589999999999,-0.787119,-0.179673
490,0.2687199999999999,0.954491,-0.129271,-0.0409519999999999,-0.669976,0.4553359999999999
491,0.266389,0.952219,-0.149303,-0.050629,0.008505,0.505305
492,0.258398,0.94926,-0.179195,0.579996,1.809193,0.931331
493,0.256967,0.947871,-0.188371,0.955633,1.122182,0.466142
494,0.270928,0.944351,-0.1864819999999999,0.335853,-0.09111,-0.057751
495,0.292299,0.935824,-0.196902,0.505034,-0.0289029999999999,0.012515
496,0.307592,0.928968,-0.205871,0.506678,0.829989,-0.1244359999999999
497,0.3101489999999999,0.92923,-0.200786,0.657243,0.685546,-0.235936
498,0.3104949999999999,0.932105,-0.186409,0.593176,0.429147,-0.262733
499,0.31355,0.934746,-0.167065,0.441317,0.149467,-0.220325
500,0.313338,0.938773,-0.143175,0.099107,-0.024024,-0.128661
501,0.308691,0.943977,-0.1165819999999999,0.045221,-0.108482,-0.094692
502,0.305021,0.947944,-0.091309,-0.048139,-0.259086,0.086823
503,0.3008409999999999,0.951319,-0.066786,-0.1834859999999999,-0.396906,0.168226
504,0.291192,0.955724,-0.0420899999999999,-0.149468,-0.3466079999999999,0.097113
505,0.278595,0.960007,-0.027272,-0.057083,-0.311707,-0.005855
506,0.266921,0.963464,-0.02149,0.006135,-0.668908,-0.047846
507,0.256558,0.966396,-0.0151199999999999,0.033725,-0.676708,-0.034684
508,0.2465119999999999,0.969086,-0.008764,0.103144,-0.137879,-0.2483159999999999
509,0.238389,0.971139,-0.005677,0.2063429999999999,0.090995,-0.284759
510,0.232602,0.972522,-0.0084,0.531559,0.1182069999999999,-0.224541
511,0.227983,0.973561,-0.0132129999999999,0.324187,-0.158208,-0.243195
512,0.216744,0.976065,-0.017098,0.278129,-0.162024,-0.09777
513,0.2031099999999999,0.978932,-0.020271,0.289352,-0.052479,0.0282819999999999
514,0.194779,0.980413,-0.028713,0.1121819999999999,0.02331,0.207562
515,0.194174,0.979922,-0.044976,0.099085,-0.0013449999999999,0.207223
516,0.199876,0.97712,-0.072523,0.493011,0.536933,0.406767
517,0.209565,0.971415,-0.111399,0.430175,0.609059,0.26623
518,0.227399,0.963352,-0.142189,0.200061,0.3633989999999999,0.037513
519,0.246238,0.955307,-0.163498,0.143273,0.261429,-0.18515
520,0.25881,0.948077,-0.18478,0.224665,0.352383,-0.027836
521,0.2640659999999999,0.941775,-0.2081059999999999,0.404117,0.227628,0.038611
522,0.265621,0.937279,-0.225683,0.349994,0.051186,0.086263
523,0.26494,0.934569,-0.237417,0.118177,-0.070631,0.090352
524,0.266106,0.932352,-0.244715,-0.020699,-0.172678,0.096506
525,0.270031,0.929871,-0.249805,-0.135876,-0.293106,0.135684
526,0.272502,0.927889,-0.254449,-0.074123,-0.3170489999999999,0.209664
527,0.272317,0.927032,-0.257749,0.069953,-0.229766,0.240721
528,0.269893,0.926796,-0.261125,0.075063,-0.124794,0.20157
529,0.265163,0.927621,-0.263034,0.0159039999999999,-0.191415,0.216311
530,0.2585719999999999,0.92991,-0.261509,-0.051525,-0.241525,0.16666
531,0.252617,0.932717,-0.2573,-0.058677,-0.227959,0.111014
532,0.248276,0.935775,-0.250325,-0.004425,-0.181976,0.035497
533,0.244019,0.93972,-0.239499,0.0603789999999999,-0.226067,-0.092884
534,0.239118,0.944106,-0.2268599999999999,0.10477,-0.244979,-0.158364
535,0.233401,0.948145,-0.215692,0.222776,-0.201685,-0.173666
536,0.2280719999999999,0.950981,-0.2087969999999999,0.29323,-0.0336529999999999,-0.215
537,0.2259789999999999,0.951771,-0.2074679999999999,0.302829,0.025921,-0.197073
538,0.2309429999999999,0.949732,-0.211312,0.263579,0.1580869999999999,-0.186911
539,0.240488,0.945562,-0.219215,0.198416,0.245523,-0.168923
540,0.252151,0.93849,-0.235871,0.350388,0.5190600000000001,0.003068
541,0.268063,0.930788,-0.248503,0.373523,0.222883,0.123549
542,0.287065,0.926274,-0.244108,-0.044786,-0.099125,0.2843449999999999
543,0.295047,0.925495,-0.237454,-0.030474,-0.156315,0.142895
544,0.286803,0.929002,-0.233832,0.357911,-0.259522,0.257163
545,0.277098,0.931935,-0.233864,0.508745,-0.023899,0.442681
546,0.2782969999999999,0.934431,-0.222185,0.424554,0.114397,0.410967
547,0.286622,0.937154,-0.198914,0.156127,0.324428,0.2455139999999999
548,0.295131,0.939317,-0.174806,0.281346,0.224394,0.263811
549,0.296244,0.942875,-0.152321,0.271688,0.1731069999999999,0.294136
550,0.291783,0.94783,-0.128277,0.036174,0.166489,0.190441
551,0.28433,0.952757,-0.106698,-0.034604,0.108645,0.077371
552,0.277123,0.956555,-0.090431,-0.115594,-0.102261,-0.037408
553,0.272942,0.958915,-0.077182,-0.0167159999999999,-0.353645,0.010089
554,0.2746139999999999,0.959599,-0.0610649999999999,-0.0521559999999999,-0.523671,0.095367
555,0.278275,0.959596,-0.041363,-0.07666,-0.570466,0.0910909999999999
556,0.277947,0.960378,-0.019783,0.071983,-0.296117,0.005944
557,0.274578,0.961549,-1.5e-05,0.143422,-0.1670849999999999,0.045883
558,0.270419,0.962529,0.0194979999999999,0.106915,-0.114171,0.054629
559,0.263121,0.964004,0.037852,-0.196913,0.092088,-0.010478
560,0.250697,0.966635,0.052309,-0.177745,0.2558539999999999,-0.129839
561,0.2363489999999999,0.969911,0.0581309999999999,0.02978,0.314192,-0.198482
562,0.225223,0.972462,0.059658,0.665295,0.0875659999999999,-0.271969
563,0.220401,0.97356,0.059773,0.787076,-0.026874,-0.273457
564,0.2224409999999999,0.973079,0.060041,0.7364970000000001,-0.067302,-0.262937
565,0.23153,0.971031,0.0588299999999999,0.485954,-0.074638,-0.0469129999999999
566,0.245408,0.968006,0.052038,0.180587,-0.113178,-0.038839
567,0.260698,0.964582,0.039812,0.157683,-0.079603,0.111845
568,0.275707,0.96109,0.01615,0.4629859999999999,0.157303,0.3068329999999999
569,0.290839,0.95657,-0.018859,0.306527,0.431201,0.328414
570,0.305769,0.950826,-0.049061,-0.026305,0.54742,0.31493
571,0.317584,0.945237,-0.075095,-0.279101,0.625747,0.175864
572,0.323821,0.94059,-0.101998,-0.33081,0.473793,0.117013
573,0.326181,0.936425,-0.129182,-0.034158,0.212119,0.13202
574,0.328584,0.931969,-0.153106,0.15544,0.023125,0.107207
575,0.331898,0.92745,-0.172203,0.162121,-0.060126,0.056297
576,0.333459,0.92381,-0.18803,0.033042,-0.1386079999999999,0.0252949999999999
577,0.332483,0.921079,-0.202592,-0.095835,-0.131254,0.078385
578,0.329365,0.919039,-0.216477,-0.201725,-0.327608,0.238083
579,0.324557,0.918287,-0.226688,-0.190539,-0.421781,0.224735
580,0.3185989999999999,0.919278,-0.23108,-0.2409469999999999,-0.5598420000000001,0.185517
581,0.312481,0.921189,-0.231823,-0.242153,-0.455247,0.1131559999999999
582,0.307757,0.922851,-0.231532,-0.177508,-0.263748,-0.0743
583,0.303926,0.92387,-0.232528,-0.0855269999999999,-0.1395839999999999,-0.201706
584,0.300771,0.923646,-0.23747,-0.023962,-0.029267,-0.131838
585,0.297352,0.923857,-0.240927,0.01051,0.006288,-0.140344
586,0.291714,0.925116,-0.242982,0.069858,0.1768279999999999,-0.088607
587,0.286542,0.926423,-0.244151,0.007144,0.314955,-0.1396079999999999
588,0.291355,0.925354,-0.242505,-0.01514,0.166962,-0.12186
589,0.30445,0.921186,-0.242285,-0.09748,0.050768,0.013266
590,0.320688,0.914752,-0.245691,-0.118814,0.158093,0.163644
591,0.331887,0.909868,-0.248932,-0.083642,0.224226,0.191773
592,0.327609,0.908468,-0.25949,0.082441,0.674006,0.444396
593,0.315377,0.911258,-0.264809,0.6391680000000001,0.411512,0.194786
594,0.310265,0.914351,-0.2601429999999999,0.616614,-0.119795,0.141612
595,0.317107,0.913594,-0.25449,0.150804,-0.465856,0.169957
596,0.329386,0.911759,-0.245307,-0.0296579999999999,-0.3195199999999999,0.1477119999999999
597,0.3340909999999999,0.912808,-0.234819,0.226105,0.200763,-0.034071
598,0.325411,0.919587,-0.220098,0.442121,0.40573,0.111073
599,0.324371,0.923899,-0.202903,0.326279,-0.035257,0.140464
600,0.3347719999999999,0.923984,-0.184816,0.033651,-0.310702,0.165697
601,0.342776,0.925018,-0.163771,-0.1001,-0.315857,0.094435
602,0.340369,0.929831,-0.139775,-0.106269,-0.250799,0.038793
603,0.3331989999999999,0.934811,-0.1228,0.033729,-0.026761,-0.006625
604,0.33095,0.936823,-0.113169,0.113096,-0.226451,0.170573
605,0.334077,0.937036,-0.101633,0.079634,-0.242532,0.165293
606,0.337055,0.937445,-0.086965,0.054119,-0.163657,0.1203819999999999
607,0.336331,0.938649,-0.076106,-0.039669,0.191813,-0.054036
608,0.335537,0.938877,-0.076797,0.068012,0.131695,-0.118424
609,0.336763,0.937715,-0.085177,0.131316,0.029006,-0.106901
610,0.338398,0.936123,-0.095572,0.263592,-0.078701,0.042197
611,0.3388469999999999,0.934524,-0.1087279999999999,0.218953,-0.178496,0.2102909999999999
612,0.334968,0.93329,-0.129385,0.1623,-0.1960609999999999,0.274542
613,0.322896,0.932897,-0.159426,-0.177464,-0.179037,0.321825
614,0.307668,0.931272,-0.195063,-0.238546,0.372485,0.331629
615,0.298507,0.925966,-0.231209,-0.142669,0.6195510000000001,0.267876
616,0.303836,0.917531,-0.256513,0.1986359999999999,0.373469,-0.004717
617,0.315108,0.907538,-0.277597,0.25821,0.148797,-0.138907
618,0.322228,0.8987719999999999,-0.297249,0.222251,0.101823,-0.054389
619,0.329734,0.8899370000000001,-0.315067,0.2359099999999999,0.197267,0.004413
620,0.339034,0.880876,-0.330294,0.063691,0.271056,0.079851
621,0.348198,0.873857,-0.339283,-0.0325089999999999,0.143996,0.097675
622,0.355354,0.8700549999999999,-0.341627,-0.038886,-0.038375,0.126463
623,0.361158,0.868762,-0.338818,0.021929,-0.212863,0.1529049999999999
624,0.365726,0.869613,-0.331659,0.017697,-0.370529,0.2128699999999999
625,0.368419,0.8729469999999999,-0.319705,-0.143245,-0.492789,0.204028
626,0.36735,0.878431,-0.305604,-0.365885,-0.45503,0.2081309999999999
627,0.3652559999999999,0.8835120000000001,-0.293212,-0.356528,-0.310636,0.158431
628,0.361658,0.888819,-0.281396,-0.339472,-0.384683,0.091363
629,0.3579179999999999,0.8946879999999999,-0.2672219999999999,-0.23661,-0.517323,0.0616409999999999
630,0.3558449999999999,0.8999809999999999,-0.251769,-0.163218,-0.499224,0.057174
631,0.35579,0.904079,-0.2367119999999999,-0.192552,-0.467372,-0.02992
632,0.3563449999999999,0.906895,-0.224803,-0.279929,-0.3942,0.082179
633,0.358199,0.907746,-0.21833,-0.302962,-0.172425,0.167931
634,0.3653639999999999,0.907398,-0.207641,-0.193214,0.140789,0.166458
635,0.379006,0.905704,-0.189817,-0.261529,-0.276646,0.098203
636,0.389009,0.904287,-0.17582,-0.290284,-0.286032,0.09449
637,0.394781,0.901838,-0.175536,-0.080694,-0.1909,0.054962
638,0.395183,0.8984530000000001,-0.1912819999999999,0.8087810000000001,0.485046,0.235898
639,0.391248,0.8963620000000001,-0.208418,0.802874,1.028489,0.364775
640,0.393783,0.8980940000000001,-0.195802,0.092499,1.240166,0.1542059999999999
641,0.3931,0.896984,-0.2021619999999999,0.141644,1.736332,0.228956
642,0.393083,0.897792,-0.198575,0.021559,-0.462734,-0.548755
643,0.391549,0.8960450000000001,-0.2092119999999999,0.188361,-0.7527189999999999,-0.021806
644,0.391608,0.8930819999999999,-0.221415,0.381662,-0.306382,0.124491
645,0.389961,0.8956729999999999,-0.213721,0.274391,0.82178,-0.025063
646,0.380781,0.901776,-0.204408,0.024447,0.769672,-0.097411
647,0.378032,0.905245,-0.193907,0.1264539999999999,0.185621,-0.113024
648,0.382494,0.904341,-0.189318,0.158369,-0.737746,-0.206907
649,0.39035,0.900424,-0.191936,0.029374,-0.59296,0.02409
650,0.392496,0.898976,-0.194331,0.011999,-0.490407,0.045634
651,0.379761,0.90336,-0.199247,0.274475,0.182166,0.293959
652,0.363123,0.909013,-0.204483,0.08753,-0.0878,0.135346
653,0.352879,0.911379,-0.211758,-0.010853,-0.23334,0.150799
654,0.348219,0.91029,-0.2238139999999999,-0.382246,-0.648404,0.134016
655,0.343627,0.908031,-0.2395389999999999,-0.401931,-0.797542,0.281836
656,0.337384,0.90404,-0.262416,-0.365231,-0.494677,0.37704
657,0.335372,0.896483,-0.289521,-0.243194,0.35634,0.120713
658,0.339905,0.882943,-0.323816,0.108825,1.270683,0.295388
659,0.350378,0.8707379999999999,-0.345009,-0.088903,0.798924,0.062401
660,0.365706,0.86393,-0.346215,-0.24449,0.367408,0.004586
661,0.382634,0.854582,-0.351086,0.2406719999999999,0.1535349999999999,-0.006809
662,0.396252,0.845413,-0.358111,0.143299,0.29451,-0.137663
663,0.402377,0.843441,-0.355923,-0.032717,0.185642,-0.060307
664,0.407882,0.844802,-0.346298,-0.149032,-0.08084,-0.034562
665,0.4119359999999999,0.8487389999999999,-0.331558,-0.187052,0.1186069999999999,-0.054397
666,0.4121189999999999,0.85357,-0.318679,-0.088846,0.219886,-0.085435
667,0.41093,0.859877,-0.3028639999999999,0.057499,0.192796,-0.164299
668,0.406807,0.868367,-0.283595,0.132743,0.136852,-0.356634
669,0.402422,0.876811,-0.263132,0.082335,-0.049281,-0.276877
670,0.3982,0.884287,-0.24383,-0.036902,-0.111902,-0.158652
671,0.393786,0.8912909999999999,-0.224746,-0.227465,-0.088755,-0.0596159999999999
672,0.386135,0.898099,-0.210463,-0.380764,-0.1082119999999999,0.066909
673,0.381804,0.902884,-0.197491,-0.239425,-0.6592319999999999,0.207364
674,0.380958,0.906855,-0.18017,-0.365027,-1.239741,0.228434
675,0.385476,0.908575,-0.1608609999999999,-0.430199,-1.128698,0.194628
676,0.3992969999999999,0.904706,-0.148472,-0.4425409999999999,-0.802854,0.013294
677,0.413469,0.897156,-0.155339,-0.3417679999999999,-0.453034,0.198475
678,0.419451,0.89064,-0.175491,0.377515,0.46701,0.270553
679,0.426158,0.885634,-0.184438,1.293721,1.820664,0.110875
680,0.431072,0.8866350000000001,-0.167421,0.025043,0.587638,0.066759
681,0.434198,0.8850530000000001,-0.167715,-0.36471,0.594485,0.166067
682,0.4283909999999999,0.886135,-0.176695,0.4319149999999999,0.501484,-0.6545270000000001
683,0.410314,0.892026,-0.189497,0.487788,-0.073895,-0.407748
684,0.405573,0.890957,-0.204164,0.813818,-0.081005,-0.143813
685,0.412793,0.8855040000000001,-0.213215,0.563739,-0.064902,0.117314
686,0.416992,0.881842,-0.220113,0.083817,0.048822,0.182347
687,0.411855,0.881501,-0.230888,-0.354817,-0.116272,0.177208
688,0.402682,0.88085,-0.248853,-0.500842,-0.253409,0.039548
689,0.396024,0.877908,-0.2691119999999999,-0.42111,-0.491463,0.107338
690,0.3912,0.871735,-0.294991,-0.194744,-0.5134890000000001,0.239159
691,0.387494,0.86313,-0.323782,-0.083142,-0.305711,0.319235
692,0.39069,0.852316,-0.347706,0.173992,0.7968689999999999,0.021107
693,0.402762,0.8407889999999999,-0.361714,0.205866,1.042451,0.040471
694,0.414919,0.833728,-0.3643099999999999,0.082197,0.3776219999999999,-0.010934
695,0.4259409999999999,0.828227,-0.364137,0.136498,0.246694,-0.0022719999999999
696,0.430672,0.826045,-0.363527,0.154869,0.285543,-0.057783
697,0.432886,0.8278110000000001,-0.356819,0.024619,0.354013,-0.131569
698,0.434634,0.832299,-0.344024,-0.003162,0.190529,-0.131196
699,0.4339189999999999,0.838648,-0.329186,-0.062627,-0.016596,-0.173118
700,0.427726,0.847269,-0.314905,0.001107,-0.049158,0.00448
701,0.416563,0.858085,-0.30024,2e-06,-0.068046,0.04313
702,0.404852,0.869409,-0.283197,-0.195456,-0.072305,0.044397
703,0.3946949999999999,0.8799100000000001,-0.2644829999999999,-0.304897,-0.0211909999999999,0.043292
704,0.386449,0.889222,-0.244781,-0.345022,-0.065553,-0.054749
705,0.378105,0.8977950000000001,-0.225779,-0.328545,-0.055235,-0.091528
706,0.368271,0.905143,-0.2122909999999999,-0.043381,-0.372062,0.173702
707,0.365713,0.908219,-0.20339,-0.056723,-0.632965,0.255896
708,0.3719719999999999,0.907287,-0.196068,-0.146203,-0.8624719999999999,0.232705
709,0.383735,0.90482,-0.184452,-0.355568,-1.215352,0.025409
710,0.398323,0.90154,-0.168934,-0.500999,-1.024724,0.005253
711,0.409382,0.897932,-0.161548,-0.569096,-0.914793,-0.09837
712,0.412988,0.895068,-0.168134,-0.074975,0.103467,0.283383
713,0.4190819999999999,0.889177,-0.1836,1.059647,1.371672,0.05152
714,0.427342,0.88556,-0.182035,1.338481,1.561309,0.1827369999999999
715,0.431859,0.8863780000000001,-0.166751,-0.425878,0.246938,0.202029
716,0.43007,0.8853989999999999,-0.176303,-0.183076,0.898063,0.300143
717,0.41725,0.8866950000000001,-0.199122,1.0564129999999998,1.2436,-1.031468
718,0.4052199999999999,0.888719,-0.21436,0.641365,-0.229845,-0.242747
719,0.406418,0.885482,-0.2252159999999999,0.352829,-0.466934,-0.072972
720,0.414671,0.8810049999999999,-0.227715,0.327226,-0.115319,0.073312
721,0.410522,0.8813690000000001,-0.233746,0.118744,0.160929,-0.019504
722,0.397926,0.883318,-0.247755,-0.04058,0.046645,0.059446
723,0.383206,0.886285,-0.260058,-0.120068,-0.1663599999999999,0.200838
724,0.371598,0.8881450000000001,-0.270356,-0.2023319999999999,-0.482001,0.218857
725,0.365877,0.886957,-0.281815,-0.291094,-0.4895569999999999,0.38324
726,0.361507,0.884877,-0.293741,-0.338863,-0.038213,0.301645
727,0.357869,0.8812959999999999,-0.308587,-0.151082,0.544409,0.210213
728,0.356626,0.875999,-0.32469,0.172915,0.688592,0.163954
729,0.358348,0.8722790000000001,-0.332709,0.068669,0.444524,0.069037
730,0.365815,0.867606,-0.336778,0.093689,0.441339,0.019761
731,0.375606,0.8612559999999999,-0.342254,0.066166,0.5552630000000001,-0.005173
732,0.380952,0.8581610000000001,-0.344114,-0.0134139999999999,0.388146,-0.118624
733,0.381704,0.859756,-0.339266,-0.125341,0.091981,-0.133711
734,0.382638,0.862656,-0.330744,0.014915,-0.284562,-0.038962
735,0.385443,0.86519,-0.320717,0.095133,-0.308778,0.010414
736,0.387682,0.8688959999999999,-0.307735,0.072782,-0.063674,0.020977
737,0.390289,0.873941,-0.289622,-0.04834,0.22219,-0.045599
738,0.387874,0.8817780000000001,-0.2683239999999999,-0.065639,0.231014,-0.085878
739,0.380209,0.891241,-0.2471989999999999,-0.113379,-0.054434,-0.088616
740,0.368718,0.900999,-0.2285239999999999,-0.169454,-0.156691,-0.013847
741,0.358969,0.908862,-0.212339,-0.516501,-0.264132,0.066175
742,0.355423,0.91312,-0.199653,-0.623352,-0.405018,0.112693
743,0.3572369999999999,0.914835,-0.188237,-0.436262,-0.675333,0.185033
744,0.356854,0.917105,-0.177618,-0.07858,-1.097784,-0.079386
745,0.36079,0.91764,-0.1665559999999999,-0.0370589999999999,-1.386863,-0.138376
746,0.372059,0.914888,-0.156607,-0.4138229999999999,-1.115358,0.018607
747,0.384737,0.910302,-0.152647,-0.602876,-0.854348,0.295561
748,0.390525,0.906421,-0.160828,0.1318599999999999,0.629254,0.342514
749,0.38738,0.902638,-0.187498,1.675181,3.556651,0.2103409999999999
750,0.391384,0.903493,-0.174625,0.383931,0.568751,-0.140163
751,0.408503,0.897123,-0.168139,-0.314234,-0.532621,0.463656
752,0.419804,0.891349,-0.170985,-0.16016,0.100899,-0.611577
753,0.404578,0.895611,-0.184857,0.075112,0.196384,-0.808673
754,0.383623,0.901541,-0.2000809999999999,0.424956,0.215081,0.2056199999999999
755,0.378571,0.903593,-0.200451,0.331527,0.168856,0.249493
756,0.374246,0.90483,-0.202977,0.336188,0.160096,0.296788
757,0.362471,0.906145,-0.21793,-0.1100599999999999,-0.064546,0.011097
758,0.349298,0.904482,-0.2447079999999999,-0.330926,-0.3844619999999999,-0.039182
759,0.3453699999999999,0.897806,-0.273206,-0.3890099999999999,-0.609781,0.066221
760,0.348526,0.886482,-0.304399,-0.370148,-0.6082989999999999,0.097108
761,0.354627,0.870186,-0.342047,0.425677,1.367882,-0.107401
762,0.352442,0.856714,-0.376573,0.6646029999999999,1.4968780000000002,0.182542
763,0.35275,0.854251,-0.381844,0.086673,0.6287050000000001,-0.114738
764,0.367032,0.8512219999999999,-0.375085,0.032427,0.365514,-0.140677
765,0.38421,0.8439700000000001,-0.374272,0.189506,0.351755,-0.135738
766,0.39133,0.841799,-0.371775,-0.100451,0.451872,-0.170675
767,0.3921679999999999,0.843377,-0.367287,-0.090807,-0.284707,0.0485769999999999
768,0.388442,0.8493780000000001,-0.357282,-0.082533,-0.405866,0.0587139999999999
769,0.381246,0.859331,-0.340854,-0.134328,-0.494326,0.047092
770,0.37021,0.871426,-0.321779,-0.1565109999999999,-0.469372,0.160478
771,0.359808,0.882864,-0.301774,-0.20101,-0.4218659999999999,0.171449
772,0.354269,0.8908799999999999,-0.28426,-0.30068,-0.402508,0.193989
773,0.355798,0.8959969999999999,-0.265659,-0.377054,-0.368592,0.047656
774,0.35766,0.900651,-0.246748,-0.385019,-0.377747,-0.01198
775,0.351827,0.905917,-0.235603,-0.277792,-0.204165,-0.039223
776,0.345382,0.910106,-0.2289,-0.0818779999999999,-0.055949,0.126681
777,0.3512139999999999,0.909301,-0.22315,-0.097079,-0.189239,0.048788
778,0.367715,0.904524,-0.215864,-0.178582,-0.4467,-0.048753
779,0.3867219999999999,0.8976799999999999,-0.211167,-0.27431,-0.1638089999999999,-0.089049
780,0.398183,0.891317,-0.216751,-0.312413,0.062007,-0.121154
781,0.396395,0.888768,-0.230084,0.084547,0.542567,0.1414
782,0.394584,0.8868659999999999,-0.240311,0.977639,0.6313529999999999,0.409531
783,0.399582,0.887439,-0.229702,0.68161,0.24635,0.194378
784,0.407719,0.8875930000000001,-0.214292,0.13055,0.94627,-0.115664
785,0.415847,0.882467,-0.2197739999999999,0.42125,1.258326,-0.160689
786,0.414555,0.88166,-0.225383,0.586391,0.7741020000000001,0.010966
787,0.415413,0.883589,-0.216054,0.196343,-0.038664,0.1246839999999999
788,0.420743,0.8844920000000001,-0.201558,0.1199829999999999,-0.27205,0.124669
789,0.427579,0.885108,-0.183676,0.0513179999999999,0.0567559999999999,-0.015543
790,0.430666,0.886575,-0.168784,0.131758,0.329795,-0.207879
791,0.424174,0.891548,-0.1587299999999999,0.107107,0.182229,-0.123969
792,0.41716,0.8964260000000001,-0.149577,0.0111849999999999,-0.104678,-0.079152
793,0.411977,0.900284,-0.140498,-0.037847,-0.347259,-0.046727
794,0.40495,0.903823,-0.138183,-0.081998,-0.4849239999999999,0.057128
795,0.3941659999999999,0.908244,-0.140364,-0.127748,-0.508616,0.08911
796,0.38485,0.911575,-0.144558,-0.070778,-0.361892,0.005719
797,0.378413,0.912724,-0.153995,0.033987,-0.326619,0.055637
798,0.371479,0.912555,-0.170948,0.02026,-0.428897,0.077732
799,0.363018,0.912659,-0.187745,-0.102444,-0.586182,0.099442
800,0.355267,0.91223,-0.203958,-0.097851,-0.61473,0.210092
801,0.3502929999999999,0.908615,-0.227356,-0.268368,-0.320343,0.2242739999999999
802,0.348157,0.90152,-0.256956,-0.303739,0.339966,-0.000307
803,0.352778,0.889753,-0.289598,-0.241054,1.179446,0.096192
804,0.362579,0.877864,-0.312845,0.234314,0.700383,0.0350889999999999
805,0.368702,0.870497,-0.325997,0.331585,0.3303239999999999,-0.0595309999999999
806,0.375656,0.863079,-0.337576,0.455109,0.7887,-0.2389619999999999
807,0.386542,0.8551200000000001,-0.345451,0.1282589999999999,1.109205,-0.283165
808,0.398047,0.850291,-0.344305,-0.239676,0.83341,-0.169627
809,0.402569,0.8509120000000001,-0.337444,-0.046581,-0.147146,-0.035054
810,0.401893,0.855556,-0.326321,0.062157,-0.314587,0.003857
811,0.3965349999999999,0.8650209999999999,-0.307374,0.128566,-0.475388,0.049927
812,0.386703,0.8777510000000001,-0.28283,-0.11441,-0.329442,-0.035194
813,0.375083,0.890108,-0.258843,-0.181892,-0.346391,-0.079932
814,0.362234,0.901682,-0.2360809999999999,-0.228811,-0.427134,0.024259
815,0.352586,0.910338,-0.216669,-0.344988,-0.519285,0.094416
816,0.344808,0.916235,-0.203955,-0.446417,-0.638983,0.093848
817,0.336505,0.921709,-0.192856,-0.396487,-0.569902,0.16568
818,0.334578,0.925242,-0.178779,-0.17494,-0.276407,0.073478
819,0.346448,0.923152,-0.166551,-0.224698,-0.813045,-0.1461319999999999
820,0.362064,0.918595,-0.158327,-0.297352,-0.946091,0.0289779999999999
821,0.380971,0.911589,-0.154408,-0.186543,-0.393858,0.346532
822,0.391506,0.904706,-0.167945,0.129872,0.331409,0.250648
823,0.380005,0.907169,-0.180601,1.5595709999999998,2.208386,-0.039278
824,0.379807,0.910989,-0.160691,-0.357697,0.041618,-0.132949
825,0.3981139999999999,0.902923,-0.161898,-0.133221,0.473847,0.090303
826,0.4051619999999999,0.897752,-0.172802,1.365422,2.414901,-0.368183
827,0.382557,0.907047,-0.17576,0.305233,-0.05431,-0.149542
828,0.37674,0.907699,-0.184732,0.162338,-0.339706,-0.0535799999999999
829,0.3809929999999999,0.907252,-0.178087,0.386723,0.416494,-0.3370039999999999
830,0.378917,0.910632,-0.164759,0.388798,0.413113,-0.350332
831,0.373633,0.913612,-0.160271,0.210778,-0.014244,-0.245201
832,0.366311,0.916218,-0.1622819999999999,0.0736309999999999,-0.5841569999999999,0.25742
833,0.358331,0.919192,-0.1632819999999999,-0.055245,-0.668078,0.384275
834,0.345156,0.924345,-0.162571,-0.363085,-0.560621,0.388462
835,0.326879,0.930582,-0.164748,-0.4498189999999999,-0.622767,0.15547
836,0.312627,0.933547,-0.1753,-0.350407,-0.686172,0.174201
837,0.3000219999999999,0.934131,-0.193293,-0.283054,-0.802661,0.210215
838,0.291687,0.933945,-0.206499,-0.136291,-0.926438,0.297045
839,0.289966,0.931424,-0.219878,-0.252094,-0.434155,0.089903
840,0.298555,0.923259,-0.241734,-0.106568,0.657032,-0.116497
841,0.318559,0.906574,-0.276807,0.873137,1.794125,-0.092013
842,0.3289,0.897559,-0.293586,0.362064,0.854532,-0.154961
843,0.335113,0.8945219999999999,-0.295819,0.288529,0.7515350000000001,-0.343906
844,0.342557,0.890345,-0.299865,0.417117,0.6743060000000001,-0.294083
845,0.345761,0.8876719999999999,-0.304084,0.1484869999999999,0.473976,-0.2346889999999999
846,0.341968,0.888625,-0.305584,0.0016899999999999,0.0803379999999999,-0.150653
847,0.335161,0.893133,-0.299932,-0.016618,-0.244146,-0.106135
848,0.325976,0.901277,-0.285338,-0.05971,-0.382875,-0.009447
849,0.317343,0.910505,-0.26505,-0.1211,-0.280546,0.039235
850,0.308534,0.920145,-0.2410739999999999,-0.056169,-0.381891,-0.00737
851,0.298018,0.92947,-0.2173639999999999,-0.055525,-0.388759,-0.0426459999999999
852,0.287697,0.937437,-0.196003,-0.098412,-0.347334,-0.090969
853,0.27856,0.943487,-0.179475,-0.222117,-0.354986,-0.092055
854,0.272066,0.947649,-0.167076,-0.192171,-0.40114,0.128334
855,0.268555,0.950406,-0.15678,-0.154495,-0.372601,0.097088
856,0.268947,0.951618,-0.14854,-0.144206,-0.151981,-0.0815169999999999
857,0.274829,0.949516,-0.151197,-0.202624,-0.031501,-0.2894
858,0.281311,0.944529,-0.169418,-0.185013,-0.079737,-0.068222
859,0.2932389999999999,0.937332,-0.188129,-0.1056319999999999,-0.474701,0.199436
860,0.307219,0.930208,-0.200758,-0.31935,-0.708086,0.497846
861,0.306578,0.926842,-0.216676,-0.392134,-0.233269,0.481996
862,0.295191,0.920846,-0.254718,-0.043894,1.020774,0.486179
863,0.297939,0.912083,-0.281625,1.258793,1.493541,0.355859
864,0.310535,0.908263,-0.280361,0.940548,0.974748,0.047115
865,0.319116,0.905031,-0.281177,1.037116,1.010436,0.030552
866,0.317512,0.906861,-0.277064,0.4105149999999999,0.517592,-0.15238
867,0.313871,0.911285,-0.266497,0.519716,0.392594,-0.026594
868,0.316288,0.916652,-0.244309,0.5585289999999999,0.166631,0.067871
869,0.315226,0.924533,-0.214115,0.051229,0.374951,0.338565
870,0.304988,0.934824,-0.181826,-0.058909,0.430594,0.287677
871,0.294104,0.943264,-0.154041,-0.065954,0.093632,0.095126
872,0.293392,0.946716,-0.132746,0.010578,-0.150772,0.055674
873,0.293042,0.948881,-0.11714,-0.162427,-0.4547859999999999,0.034056
874,0.287636,0.951922,-0.105268,-0.145027,-0.678942,-0.013888
875,0.277915,0.955681,-0.096997,-0.002982,-0.8143229999999999,0.051099
876,0.268813,0.959214,-0.087287,0.073624,-0.79448,0.080482
877,0.261829,0.962457,-0.071358,0.12753,-0.4722229999999999,-0.038734
878,0.252745,0.965978,-0.054547,0.071245,-0.082067,0.007702
879,0.240245,0.96979,-0.041944,0.080373,0.102018,0.029004
880,0.2245329999999999,0.973828,-0.034821,0.145905,0.344302,0.082383
881,0.205999,0.977829,-0.037182,0.428645,0.103393,-0.198535
882,0.187161,0.981324,-0.044077,0.5218079999999999,-0.061372,-0.329428
883,0.176247,0.983119,-0.048811,0.5938939999999999,-0.022944,-0.176103
884,0.178649,0.982375,-0.054699,0.499863,-0.060119,0.016155
885,0.188176,0.979912,-0.065817,0.409877,-0.1139599999999999,0.033956
886,0.197174,0.97714,-0.079302,0.370422,-0.011778,0.35602
887,0.203489,0.97396,-0.09982,0.2535429999999999,0.184258,0.409955
888,0.209977,0.969498,-0.126313,0.222671,0.28772,0.313446
889,0.219919,0.963339,-0.153575,0.115469,0.4629609999999999,0.126689
890,0.234256,0.95522,-0.180697,-0.000324,0.3745989999999999,0.130663
891,0.2495889999999999,0.945913,-0.2071869999999999,0.135314,0.28628,0.118533
892,0.26279,0.936581,-0.2318,0.313183,0.316455,0.082432
893,0.26945,0.92929,-0.2525679999999999,0.3019,0.188843,0.093694
894,0.26884,0.924312,-0.270827,0.253636,0.008168,0.183272
895,0.264244,0.920435,-0.28801,0.201683,-0.116694,0.244477
896,0.25851,0.917443,-0.302404,0.15479,-0.18853,0.304555
897,0.252756,0.915409,-0.313237,0.10552,-0.2569,0.360616
898,0.2453949999999999,0.915082,-0.319972,0.075315,-0.272687,0.378352
899,0.236406,0.917086,-0.321002,-0.011186,-0.237459,0.390598
900,0.227368,0.919429,-0.320828,-0.085111,-0.152141,0.353909
901,0.2179559999999999,0.921339,-0.321878,-0.125915,-0.102187,0.317926
902,0.210223,0.923543,-0.320704,-0.131366,-0.10436,0.317179
903,0.2063019999999999,0.926087,-0.315876,-0.056186,-0.085572,0.210086
904,0.203615,0.929538,-0.307369,0.045637,-0.113345,0.009914
905,0.198577,0.934068,-0.296749,0.174958,-0.112229,-0.069325
906,0.1921,0.939302,-0.284226,0.307107,-0.086549,-0.128967
907,0.187394,0.943699,-0.272561,0.284697,-0.053944,-0.154868
908,0.186978,0.94638,-0.263398,0.188525,0.027055,-0.169127
909,0.18891,0.947687,-0.257247,0.216822,0.076422,-0.182573
910,0.191952,0.947801,-0.254563,0.243992,0.004455,-0.129104
911,0.1970839999999999,0.948058,-0.249636,0.128661,-0.148039,-0.2333199999999999
912,0.207461,0.94737,-0.243769,0.101987,-0.199872,-0.1881
913,0.220069,0.943362,-0.248217,0.237664,-0.068438,0.201693
914,0.229142,0.938971,-0.256519,0.291809,0.4687439999999999,0.369205
915,0.231255,0.941615,-0.244653,0.093467,0.391057,0.405923
916,0.224787,0.946183,-0.2327699999999999,-0.110422,0.375015,0.298124
917,0.21275,0.948191,-0.235891,0.409122,-0.10116,0.27236
918,0.204144,0.949751,-0.2372139999999999,0.514545,-0.398756,0.326219
919,0.208369,0.950249,-0.231477,0.3850909999999999,-0.338234,0.301316
920,0.221703,0.951037,-0.21529,0.289986,-0.196703,0.212421
921,0.229403,0.953071,-0.19749,0.139417,0.259668,0.025616
922,0.226282,0.957288,-0.1799079999999999,0.105429,0.35483,0.071311
923,0.225476,0.960902,-0.160619,0.187091,0.163564,0.125722
924,0.230053,0.96241,-0.144269,0.222431,-0.187797,0.145688
925,0.2353969999999999,0.963518,-0.127242,0.020707,-0.249987,0.040435
926,0.236336,0.965878,-0.105793,0.0046,-0.19624,0.0144389999999999
927,0.233757,0.968724,-0.083064,0.02285,-0.154942,-0.023091
928,0.233682,0.97015,-0.064558,0.1073829999999999,-0.09425,0.042753
929,0.236894,0.970228,-0.050049,0.11444,-0.1988049999999999,0.086395
930,0.2405219999999999,0.96996,-0.03594,0.140932,-0.290837,0.086904
931,0.24283,0.96983,-0.020669,0.158155,-0.24841,0.036446
932,0.243723,0.969822,-0.002789,0.169927,-0.131825,-0.03931
933,0.24375,0.969669,0.017063,0.124338,-0.101383,-0.066288
934,0.243026,0.969351,0.035504,0.080201,-0.084494,-0.045239
935,0.23963,0.969565,0.049851,0.109598,0.149896,-0.037689
936,0.23398,0.970459,0.0585309999999999,0.266554,0.281479,-0.134413
937,0.227771,0.971771,0.0611909999999999,0.471677,0.181641,-0.209353
938,0.224329,0.972633,0.060196,0.568182,0.004311,-0.210159
939,0.22491,0.972644,0.0578039999999999,0.651555,-0.027835,-0.116474
940,0.2272199999999999,0.972353,0.05351,0.540312,0.069746,-0.057446
941,0.232143,0.97154,0.046725,0.195759,0.06415,0.026197
942,0.237591,0.970654,0.0366579999999999,0.023624,-0.057477,0.194589
943,0.241943,0.970059,0.020338,0.0406959999999999,-0.0488399999999999,0.389742
944,0.2478159999999999,0.968741,-0.009703,-0.044874,0.1163119999999999,0.287352
945,0.255893,0.965673,-0.044294,-0.038394,0.339701,0.146116
946,0.265428,0.961165,-0.0753559999999999,-0.0400709999999999,0.414217,0.152657
947,0.274375,0.95586,-0.104969,0.21998,0.3497429999999999,0.004184
948,0.280505,0.951115,-0.129101,0.2902349999999999,0.123425,0.090069
949,0.288275,0.946232,-0.146671,0.190989,0.025738,0.0920909999999999
950,0.291821,0.943079,-0.159413,0.078891,-0.044245,-0.018749
951,0.286956,0.942486,-0.171311,-0.054992,-0.0016129999999999,-0.072646
952,0.281964,0.941358,-0.1852369999999999,-0.04237,0.170154,-0.006917
953,0.284992,0.937724,-0.1985569999999999,-0.080326,-0.14207,0.081065
954,0.296247,0.931684,-0.210175,-0.033781,-0.229826,0.126938
955,0.309743,0.926017,-0.215692,0.018321,-0.382377,0.162134
956,0.3193809999999999,0.923378,-0.212934,-0.072845,-0.440834,0.144178
957,0.321053,0.924356,-0.206066,-0.205117,-0.375726,0.084163
958,0.319262,0.926228,-0.2003619999999999,-0.194689,-0.244236,0.049666
959,0.316581,0.928058,-0.196101,-0.047202,-0.281848,0.163981
960,0.31408,0.930253,-0.189616,-0.02691,-0.278199,0.1368049999999999
961,0.312996,0.932642,-0.179396,-0.087837,-0.26063,0.00804
962,0.313708,0.934757,-0.166693,-0.187198,-0.359012,-0.09405
963,0.313672,0.936784,-0.15497,-0.204145,-0.405641,-0.099471
964,0.310629,0.939115,-0.146773,-0.170004,-0.506528,-0.061387
965,0.307262,0.941484,-0.138448,-0.166652,-0.50789,-0.1267339999999999
966,0.3065,0.943099,-0.128804,-0.155163,-0.446563,-0.01945
967,0.310286,0.943037,-0.1198859999999999,-0.033552,-0.109099,0.057233
968,0.316341,0.942188,-0.110357,0.017827,0.086086,0.055441
969,0.326428,0.939943,-0.0996,-0.095898,-0.1758289999999999,-0.000528
970,0.335357,0.938223,-0.085098,-0.215881,-0.651327,0.110641
971,0.340311,0.937466,-0.072888,-0.233927,-0.515271,0.2255219999999999
972,0.341093,0.937209,-0.072542,-0.113799,-0.031691,0.134141
973,0.33869,0.935826,-0.097395,0.802363,1.404658,-0.045718
974,0.336625,0.935194,-0.10983,1.189727,1.218675,0.148969
975,0.347923,0.933581,-0.0856929999999999,-0.099495,0.156263,-0.260773
976,0.365575,0.926641,-0.087516,0.095561,0.712046,-0.041604
977,0.369325,0.923662,-0.102052,0.606139,0.670118,-0.497588
978,0.359242,0.927392,-0.104201,0.409404,0.006248,-0.154649
979,0.359018,0.927391,-0.104978,0.28443,-0.4261399999999999,0.205548
980,0.365186,0.926221,-0.09339,-0.019772,-0.47511,0.145453
981,0.371026,0.925507,-0.075782,-0.071283,0.005294,-0.1290369999999999
982,0.370565,0.926158,-0.069851,-0.092122,0.067234,-0.276127
983,0.367735,0.92671,-0.07711,0.0665,-0.352232,-0.121071
984,0.36664,0.926188,-0.087859,0.080427,-0.4511819999999999,-0.060426
985,0.363587,0.926202,-0.099614,0.008163,-0.463006,0.027333
986,0.354808,0.928228,-0.111677,-0.038646,-0.414541,-0.011706
987,0.34552,0.929855,-0.1263119999999999,0.0186,-0.411728,0.051147
988,0.3376909999999999,0.930304,-0.143072,0.06096,-0.4698699999999999,0.193945
989,0.332267,0.929313,-0.161081,-0.256538,-0.096488,0.270425
990,0.333258,0.92443,-0.185309,-0.346503,0.245385,0.201682
991,0.342442,0.914488,-0.2154469999999999,-0.328144,1.0520040000000002,0.049843
992,0.353242,0.903726,-0.241811,0.149535,0.940512,-0.035167
993,0.3615239999999999,0.8961549999999999,-0.257255,0.237246,0.383264,-0.157433
994,0.369602,0.8900790000000001,-0.2666969999999999,0.335872,0.186795,-0.0733299999999999
995,0.376787,0.8853040000000001,-0.272475,0.176756,0.254131,-0.1082619999999999
996,0.381757,0.882654,-0.274149,-0.025998,0.458837,-0.176398
997,0.387215,0.8812979999999999,-0.270837,-0.11924,0.32645,-0.176443
998,0.392594,0.88076,-0.264773,-0.194901,0.13427,-0.161649
999,0.39419,0.882582,-0.2561969999999999,-0.06045,-0.041533,-0.060194
1000,0.391311,0.887601,-0.242925,0.0576179999999999,-0.091688,-0.045924
1001,0.386101,0.8947120000000001,-0.224475,0.066185,-0.137068,-0.135358
1002,0.378131,0.90289,-0.204398,0.0283779999999999,-0.123166,-0.151772
1003,0.368292,0.910811,-0.1864309999999999,-0.051123,-0.115019,-0.0740059999999999
1004,0.358436,0.917961,-0.16983,-0.18148,-0.137535,0.004699
1005,0.349435,0.924205,-0.153979,-0.264444,-0.172878,0.036944
1006,0.343128,0.928962,-0.13879,-0.432026,-0.281501,0.0036729999999999
1007,0.341283,0.931687,-0.124314,-0.412541,-0.661301,-0.019134
1008,0.344628,0.931714,-0.11449,-0.265694,-0.993467,-0.044918
1009,0.351667,0.929509,-0.110951,-0.103621,-1.26296,-0.070064
1010,0.363425,0.925777,-0.104051,-0.084739,-1.276134,-0.072798
1011,0.373755,0.922635,-0.094968,-0.3330909999999999,-0.71095,0.055143
1012,0.379575,0.918959,-0.106796,0.1113619999999999,0.365648,0.337326
1013,0.377081,0.91739,-0.12718,0.8514200000000001,1.376082,-0.0815289999999999
1014,0.381438,0.917534,-0.112276,1.144502,1.77134,0.0488139999999999
1015,0.388758,0.916405,-0.095062,-0.4683479999999999,-0.492745,-0.109315
1016,0.397144,0.911345,-0.108141,-0.484089,-0.256728,0.234011
1017,0.388505,0.913323,-0.1219619999999999,0.475402,1.565849,-0.888491
1018,0.364464,0.922359,-0.128016,0.813194,-0.0711929999999999,-0.101888
1019,0.36117,0.921839,-0.14049,0.490835,-0.5316420000000001,0.074999
1020,0.364816,0.917975,-0.155566,0.3709929999999999,-0.493826,0.0701929999999999
1021,0.3654989999999999,0.914887,-0.171352,0.159098,0.022124,-0.225361
1022,0.363288,0.911325,-0.193596,-0.21305,-0.19552,-0.0995559999999999
1023,0.357772,0.908106,-0.217521,-0.408675,-0.728495,0.32775
1024,0.353333,0.904667,-0.23813,-0.435349,-0.357579,0.303117
1025,0.350135,0.898274,-0.2654849999999999,-0.314109,0.264171,0.2138489999999999
1026,0.350338,0.887684,-0.298756,-0.100063,0.8399620000000001,0.158085
1027,0.358722,0.877318,-0.318759,0.1789359999999999,1.245881,-0.046598
1028,0.378542,0.8671969999999999,-0.323498,0.0572639999999999,0.239691,-0.126911
1029,0.393061,0.8593860000000001,-0.327011,0.184301,0.07375,-0.155442
1030,0.395158,0.8595799999999999,-0.3239579999999999,-0.072679,0.134515,-0.164354
1031,0.395842,0.8641049999999999,-0.310817,-0.048277,0.078979,-0.217
1032,0.397511,0.869552,-0.292983,-0.018727,0.047913,-0.288163
1033,0.396692,0.8762979999999999,-0.273336,-0.003168,0.042785,-0.298426
1034,0.392813,0.882785,-0.257609,-0.012869,0.012906,-0.092809
1035,0.385375,0.8899469999999999,-0.243834,-0.0680679999999999,-0.0599289999999999,-0.056444
1036,0.375461,0.898343,-0.2279949999999999,-0.11977,-0.130093,-0.0269029999999999
1037,0.363696,0.907339,-0.210792,-0.1026789999999999,-0.19657,-0.051842
1038,0.349996,0.917095,-0.190818,-0.1222579999999999,-0.235607,-0.099007
1039,0.336075,0.926145,-0.171117,-0.182327,-0.040494,-0.025554
1040,0.326297,0.932415,-0.155252,-0.274539,0.2030829999999999,0.009714
1041,0.3261159999999999,0.934027,-0.145646,-0.30721,0.040491,0.196763
1042,0.329633,0.933434,-0.141471,-0.108868,-0.656883,0.143103
1043,0.33413,0.932976,-0.133724,-0.198251,-0.969033,0.14201
1044,0.342552,0.932054,-0.1179099999999999,-0.317253,-1.078019,-0.042796
1045,0.354113,0.92959,-0.102148,-0.450839,-1.160181,-0.259531
1046,0.3613699999999999,0.926982,-0.100422,-0.451412,-0.767848,0.226703
1047,0.364376,0.924528,-0.111564,-0.2560989999999999,-0.646513,0.393608
1048,0.369347,0.92007,-0.130478,0.890098,0.938237,-0.034942
1049,0.381519,0.916002,-0.1239079999999999,0.7464109999999999,0.931578,-0.175439
1050,0.394696,0.913074,-0.10238,-0.174084,0.235486,-0.448356
1051,0.406389,0.907019,-0.1101579999999999,-0.671068,0.019586,-0.022533
1052,0.404805,0.906563,-0.119362,-0.1537369999999999,0.705712,-0.662788
1053,0.379157,0.916032,-0.130751,1.068505,1.267287,-0.762758
1054,0.364403,0.92082,-0.138826,0.649651,-0.121626,0.243486
1055,0.365091,0.920322,-0.140309,0.288809,-0.308323,0.257344
1056,0.361665,0.920308,-0.149009,-0.0542309999999999,0.126399,-0.216988
1057,0.354867,0.918547,-0.1741089999999999,-0.262933,-0.044355,-0.212319
1058,0.343967,0.917314,-0.200489,-0.29169,-0.368745,-0.081799
1059,0.336128,0.916123,-0.2184289999999999,-0.273857,-1.039215,0.336776
1060,0.334429,0.910233,-0.244146,-0.26198,-0.8013319999999999,0.263586
1061,0.334544,0.901384,-0.274887,-0.1075839999999999,0.454985,-0.049743
1062,0.336173,0.8920020000000001,-0.302153,0.553567,1.562145,0.255309
1063,0.348786,0.8851600000000001,-0.307923,0.220855,0.8384879999999999,-0.0634909999999999
1064,0.364486,0.8803719999999999,-0.303432,-0.002502,0.360518,-0.118488
1065,0.3684659999999999,0.8792209999999999,-0.301961,0.217547,-0.103799,-0.145289
1066,0.3694409999999999,0.881143,-0.295087,-0.038524,0.559469,-0.171924
1067,0.380712,0.880245,-0.283203,0.070048,0.436009,-0.283172
1068,0.390084,0.879711,-0.27188,0.171943,0.0500069999999999,-0.198778
1069,0.391766,0.8831479999999999,-0.257961,0.1110109999999999,-0.215225,-0.166233
1070,0.388369,0.8894540000000001,-0.240866,-0.048449,-0.288425,-0.1208279999999999
1071,0.38199,0.8974059999999999,-0.220725,-0.1698319999999999,-0.4198979999999999,-0.006723
1072,0.3725,0.906835,-0.197149,-0.275134,-0.569982,0.068335
1073,0.3620239999999999,0.915931,-0.17315,-0.287317,-0.605354,0.087792
1074,0.352281,0.923532,-0.151522,-0.388978,-0.460977,0.103335
1075,0.340974,0.930516,-0.133594,-0.34488,-0.074147,0.04288
1076,0.327527,0.937572,-0.116849,-0.240003,0.3109929999999999,0.05293
1077,0.318834,0.941832,-0.106149,-0.107377,-0.196928,-0.105978
1078,0.324687,0.94032,-0.101713,-0.095988,-0.457654,0.005568
1079,0.340035,0.935212,-0.098605,-0.153115,-0.423585,-0.049299
1080,0.360523,0.927943,-0.094413,-0.2241699999999999,-0.319636,-0.057885
1081,0.377103,0.921257,-0.095119,-0.104551,0.09243,-0.026204
1082,0.378868,0.920044,-0.099734,0.224663,0.452271,-0.043729
1083,0.369299,0.922707,-0.11045,0.52659,0.4874489999999999,0.027641
1084,0.3697789999999999,0.920918,-0.123053,0.7031729999999999,0.185817,0.074728
1085,0.383388,0.916006,-0.117965,0.276906,0.2487889999999999,0.021591
1086,0.3991949999999999,0.911072,-0.1027599999999999,0.103918,0.441482,-0.2159199999999999
1087,0.40844,0.906652,-0.105489,0.478325,1.314875,-0.227061
1088,0.407333,0.905452,-0.1191849999999999,0.5256810000000001,0.7441300000000001,0.089705
1089,0.40658,0.906042,-0.1172599999999999,-0.078348,-0.240438,0.018307
1090,0.407548,0.90678,-0.107813,-0.1474619999999999,-0.38824,0.061045
1091,0.408946,0.907326,-0.097415,-0.050212,-0.135414,0.026294
1092,0.40685,0.909331,-0.086926,-0.110875,0.027131,-0.065693
1093,0.400653,0.912645,-0.080765,-0.07091,0.079024,-0.079132
1094,0.39453,0.915561,-0.07785,0.068514,-0.215824,-0.119477
1095,0.389824,0.917631,-0.077179,0.050118,-0.42993,-0.098251
1096,0.387422,0.918157,-0.08282,0.01483,-0.5761,-0.152868
1097,0.385035,0.918342,-0.091449,0.004034,-0.487892,-0.0826539999999999
1098,0.381219,0.918526,-0.104647,0.047279,-0.395317,-0.172193
1099,0.375006,0.919435,-0.1182329999999999,0.137552,-0.336656,-0.0263899999999999
1100,0.367518,0.920736,-0.130933,-0.00233,-0.4359189999999999,0.186276
1101,0.360739,0.921449,-0.144113,-0.072607,-0.421678,0.2585389999999999
1102,0.3552599999999999,0.92092,-0.160209,-0.270025,-0.16976,0.247794
1103,0.352502,0.918573,-0.1787089999999999,-0.356881,0.522406,-0.061938
1104,0.353376,0.913208,-0.202851,-0.2375159999999999,0.804291,-0.042495
1105,0.357835,0.904593,-0.2315989999999999,0.424117,0.398843,-0.214476
1106,0.36633,0.894301,-0.256907,0.456424,0.420335,-0.189504
1107,0.372101,0.8871319999999999,-0.272968,0.474197,0.5192859999999999,-0.150998
1108,0.379274,0.880447,-0.284495,0.126143,0.954834,-0.230397
1109,0.3895,0.874152,-0.29004,-0.050648,0.918131,-0.1548759999999999
1110,0.398851,0.870657,-0.287834,-0.2953659999999999,0.344431,-0.035439
1111,0.402239,0.870207,-0.28446,-0.140566,-0.375166,0.059057
1112,0.3996699999999999,0.8726799999999999,-0.280478,-0.0638389999999999,-0.4929189999999999,0.113883
1113,0.392888,0.878685,-0.271155,-0.171727,-0.51252,0.058386
1114,0.386867,0.8860379999999999,-0.255427,-0.154628,-0.484946,-0.067083
1115,0.381349,0.8934290000000001,-0.237341,-0.101625,-0.473613,-0.141413
1116,0.372552,0.902064,-0.2178449999999999,-0.158136,-0.34846,-0.143819
1117,0.362794,0.910625,-0.197773,-0.28653,-0.222347,-0.16
1118,0.356475,0.916234,-0.182789,-0.380507,-0.111226,-0.139827
1119,0.352175,0.919661,-0.1736859999999999,-0.341128,0.051424,-0.036626
1120,0.344384,0.923806,-0.167191,-0.125543,0.081352,0.0607299999999999
1121,0.339538,0.927093,-0.158688,0.051163,-0.260101,0.104031
1122,0.340959,0.928326,-0.148078,-0.063035,-0.512249,-0.017281
1123,0.350235,0.9264,-0.138159,-0.22348,-0.45121,-0.042017
1124,0.362622,0.92255,-0.131818,-0.214353,-0.268115,-0.096881
1125,0.372372,0.918432,-0.133379,0.036502,0.0655,0.112016
1126,0.373104,0.916689,-0.14298,0.6847270000000001,0.714414,0.1675
1127,0.372653,0.915812,-0.1496289999999999,0.641019,0.2062429999999999,0.1686869999999999
1128,0.376472,0.915725,-0.140309,-0.0205449999999999,0.041398,0.089101
1129,0.386159,0.913385,-0.1287589999999999,0.195857,0.7188479999999999,-0.116908
1130,0.393708,0.909223,-0.135189,0.763946,0.6871510000000001,-0.331944
1131,0.390252,0.910344,-0.137649,0.368964,0.075206,-0.327164
1132,0.389667,0.910546,-0.137968,0.050595,-0.489175,-0.1162589999999999
1133,0.396107,0.907998,-0.13641,0.203365,0.001578,-0.166645
1134,0.4007,0.907717,-0.124329,0.284954,0.276319,-0.206023
1135,0.392898,0.913007,-0.109622,0.219101,0.553393,-0.110364
1136,0.381909,0.919059,-0.097176,0.079013,-0.096428,-0.0781169999999999
1137,0.374262,0.923151,-0.087682,-0.045572,-0.379343,-0.036693
1138,0.370329,0.925724,-0.076535,-0.152342,-0.438999,-0.046405
1139,0.364439,0.928494,-0.07105,-0.15547,-0.433637,-0.006968
1140,0.354976,0.932113,-0.071582,-0.095363,-0.333968,0.0648519999999999
1141,0.346005,0.935548,-0.070682,-0.017835,-0.3961199999999999,0.10947
1142,0.3390309999999999,0.938124,-0.070335,0.087116,-0.365279,0.118599
1143,0.332524,0.939892,-0.077444,0.108974,-0.334484,0.103018
1144,0.325501,0.940818,-0.094222,0.097915,-0.28028,0.077849
1145,0.318086,0.940468,-0.119622,-0.018846,-0.478233,-0.0577769999999999
1146,0.313084,0.938871,-0.143068,-0.079105,-0.483137,0.0913409999999999
1147,0.314136,0.93482,-0.1655319999999999,-0.339816,-0.067296,-0.017787
1148,0.320558,0.927336,-0.1930319999999999,-0.227815,0.449007,-0.010353
1149,0.331352,0.915422,-0.228429,0.289986,1.1170790000000002,0.012318
1150,0.336355,0.90857,-0.247664,0.085337,0.5242760000000001,-0.173402
1151,0.343668,0.904048,-0.254092,0.05657,0.488805,-0.165647
1152,0.362294,0.893827,-0.264176,0.20988,0.65256,-0.279418
1153,0.378417,0.8845139999999999,-0.272779,0.055985,0.558632,-0.320727
1154,0.386717,0.88049,-0.274153,0.021058,0.311694,-0.306413
1155,0.392814,0.879432,-0.268831,0.094003,-0.249229,-0.211867
1156,0.39421,0.8817299999999999,-0.259081,0.016221,-0.1738289999999999,-0.0451639999999999
1157,0.390244,0.887625,-0.244546,-0.005524,-0.025214,-0.046042
1158,0.385526,0.8941479999999999,-0.227685,-0.126844,-0.019667,-0.0600809999999999
1159,0.379697,0.901058,-0.209515,-0.158338,-0.107982,-0.030521
1160,0.373048,0.908401,-0.188711,-0.210313,-0.239471,-0.041773
1161,0.3639969999999999,0.91693,-0.163447,-0.369185,-0.302886,0.0049229999999999
1162,0.352456,0.925742,-0.136913,-0.4543689999999999,-0.221655,0.205455
1163,0.340361,0.933005,-0.116719,-0.376555,-0.188269,0.240972
1164,0.337178,0.93578,-0.102931,0.015056,-0.833744,-0.017278
1165,0.3402139999999999,0.936086,-0.089247,0.0384329999999999,-1.248448,-0.23076
1166,0.35061,0.933331,-0.077023,-0.121118,-1.529461,-0.1637
1167,0.369126,0.926796,-0.068995,-0.487702,-1.197915,0.0500279999999999
1168,0.394398,0.916822,-0.062076,-0.476963,-0.016004,0.008136
1169,0.411834,0.90855,-0.069969,0.041368,0.8404729999999999,0.18145
1170,0.4130399999999999,0.90503,-0.101422,0.997086,1.97615,-0.332004
1171,0.4197,0.901616,-0.104442,0.472726,0.36793,0.183421
1172,0.422314,0.902857,-0.080416,-0.7897609999999999,-0.311183,0.154894
1173,0.42589,0.901573,-0.075838,-0.8318040000000001,0.6940689999999999,-0.283491
1174,0.4129489999999999,0.90585,-0.094218,1.019393,1.715854,-0.963369
1175,0.379209,0.9188,-0.1094359999999999,1.178011,0.176339,0.031586
1176,0.3748849999999999,0.919699,-0.116551,0.6004109999999999,-0.554083,0.018223
1177,0.387941,0.913308,-0.1238539999999999,0.2903739999999999,-0.247094,-0.277955
1178,0.393228,0.909305,-0.1360309999999999,-0.112879,-0.1260869999999999,-0.192613
1179,0.391409,0.907165,-0.15434,-0.194113,-0.357741,0.039731
1180,0.3849349999999999,0.906364,-0.174065,-0.238832,-0.7605970000000001,0.272347
1181,0.378351,0.906837,-0.1856539999999999,-0.4414149999999999,-0.974617,0.322846
1182,0.3729429999999999,0.906579,-0.19748,-0.35036,-0.155328,0.246857
1183,0.370513,0.902766,-0.218414,-0.155868,0.53867,-0.00731
1184,0.371184,0.895583,-0.2452079999999999,0.2270829999999999,0.975435,0.1617579999999999
1185,0.375377,0.889393,-0.260857,0.19608,0.266094,0.0802539999999999
1186,0.382084,0.8853040000000001,-0.264996,0.0350759999999999,0.0275529999999999,0.016858
1187,0.384608,0.882357,-0.271103,0.153356,0.286146,0.025635
1188,0.382755,0.882173,-0.274304,0.026425,0.6511979999999999,-0.127994
1189,0.383117,0.8830709999999999,-0.270887,-0.171417,0.7782600000000001,-0.323213
1190,0.3870159999999999,0.883973,-0.262265,-0.050758,0.26657,-0.350376
1191,0.389742,0.886152,-0.250616,0.1667,-0.2218139999999999,-0.230783
1192,0.387573,0.891392,-0.234902,0.1597599999999999,-0.248158,-0.15847
1193,0.384573,0.8973049999999999,-0.216604,0.1313109999999999,-0.146497,-0.083537
1194,0.380181,0.904051,-0.1952549999999999,-0.018151,-0.105543,-0.135983
1195,0.371575,0.912467,-0.171188,-0.346139,-0.048118,0.020019
1196,0.356661,0.92219,-0.149425,-0.4031389999999999,-0.054178,0.083491
1197,0.3377159999999999,0.932,-0.131499,-0.431741,-0.1107269999999999,0.2525929999999999
1198,0.324162,0.938953,-0.115131,-0.306202,-0.701144,0.018665
1199,0.321418,0.941422,-0.101892,-0.157096,-1.0533,-0.021216
1200,0.3247219999999999,0.941103,-0.094061,-0.160919,-1.179857,-0.096719
1201,0.332769,0.938908,-0.087657,-0.196828,-1.237522,0.027004
1202,0.3433219999999999,0.935682,-0.081213,-0.315795,-0.976881,-0.022516
1203,0.351189,0.932499,-0.084134,-0.388176,-0.472782,0.105817
1204,0.343671,0.93236,-0.1120849999999999,1.470492,2.575514,0.157404
1205,0.337627,0.932924,-0.125014,0.419575,0.223082,-0.280107
1206,0.345556,0.932685,-0.103229,-0.147482,-0.604499,-0.442563
1207,0.365239,0.925593,-0.09922,-0.134724,-0.013179,-0.061745
1208,0.37644,0.920056,-0.1084339999999999,0.606791,0.561542,-1.066477
1209,0.363842,0.924114,-0.116621,1.215092,1.186802,-0.834169
1210,0.348491,0.930266,-0.114575,0.952336,-0.129592,-0.328021
1211,0.34319,0.933674,-0.102186,0.645092,-0.389957,-0.235613
1212,0.336147,0.937163,-0.093262,0.380085,-0.226836,-0.142959
1213,0.327214,0.940627,-0.090099,0.070765,0.302735,-0.240376
1214,0.314974,0.944903,-0.088973,0.128431,0.013028,-0.040666
1215,0.3003679999999999,0.949791,-0.087427,0.1431599999999999,-0.178673,0.037057
1216,0.28338,0.955006,-0.087328,-0.205316,-0.3457679999999999,0.200671
1217,0.267911,0.958885,-0.093439,-0.324063,-0.584358,0.215967
1218,0.257612,0.96051,-0.104995,-0.370191,-0.529633,0.2398829999999999
1219,0.252428,0.959959,-0.1213549999999999,-0.387102,-0.067885,0.187776
1220,0.256126,0.955418,-0.146783,0.042412,0.7076979999999999,0.229867
1221,0.268053,0.945987,-0.182283,0.914716,0.835828,0.136507
1222,0.274256,0.939794,-0.203818,0.394399,0.424433,0.118461
1223,0.281183,0.936364,-0.2100699999999999,0.207388,0.438559,-0.063307
1224,0.293391,0.93088,-0.2176139999999999,0.096426,0.524671,-0.135993
1225,0.30754,0.923973,-0.2272989999999999,0.1488809999999999,0.335365,-0.1833
1226,0.319474,0.916529,-0.24059,0.322708,0.137228,-0.027049
1227,0.324144,0.912447,-0.249686,0.148665,-0.0006889999999999,0.1085569999999999
1228,0.323272,0.912084,-0.252131,-0.02417,-0.029516,0.158305
1229,0.321065,0.913268,-0.250662,-0.179113,-0.077758,0.161001
1230,0.319556,0.915103,-0.245852,-0.203024,-0.190631,0.15761
1231,0.319027,0.917392,-0.237878,-0.045772,-0.32294,0.151025
1232,0.318155,0.919955,-0.228978,-0.017435,-0.395404,0.070073
1233,0.315323,0.923067,-0.220203,-0.073945,-0.2346059999999999,-0.003522
1234,0.312714,0.926402,-0.209666,-0.062943,-0.191905,-0.119467
1235,0.309077,0.93009,-0.19843,-0.093562,-0.19573,-0.237559
1236,0.3040739999999999,0.933736,-0.1888,-0.063581,-0.21047,-0.195721
1237,0.297071,0.937047,-0.183469,-0.003782,-0.126882,-0.177294
1238,0.290113,0.939676,-0.181144,0.024935,0.174124,-0.0828179999999999
1239,0.2833429999999999,0.941263,-0.183604,-0.025713,0.337652,-0.153158
1240,0.28083,0.940971,-0.188887,0.029473,0.455605,-0.208132
1241,0.282515,0.938867,-0.196681,0.093171,0.46134,-0.135594
1242,0.28658,0.934754,-0.209948,0.070262,0.139877,0.045275
1243,0.2913739999999999,0.931318,-0.2184489999999999,0.170174,0.074969,0.181294
1244,0.288959,0.929728,-0.22821,0.418454,-0.046641,0.212265
1245,0.282982,0.930099,-0.234112,0.684593,-0.376236,0.375942
1246,0.279004,0.932147,-0.2307179999999999,0.388735,-0.090594,0.371282
1247,0.281688,0.93419,-0.21889,0.160924,0.249419,0.394626
1248,0.281101,0.937967,-0.202906,-0.024982,0.361105,0.354532
1249,0.271013,0.944795,-0.184076,-0.121889,0.338622,0.313699
1250,0.263472,0.950158,-0.166589,0.0258339999999999,0.139396,0.261773
1251,0.2675929999999999,0.951515,-0.151595,0.0681,-0.0387189999999999,0.190627
1252,0.275039,0.951762,-0.135906,0.069169,-0.126414,0.070187
1253,0.280001,0.952686,-0.1181359999999999,0.077726,-0.186313,-0.0032479999999999
1254,0.2807929999999999,0.954542,-0.09986,0.158294,-0.252393,-0.096994
1255,0.279881,0.956476,-0.082379,0.100383,-0.303659,-0.0398279999999999
1256,0.280558,0.957544,-0.0660549999999999,0.048575,-0.34945,-0.008407
1257,0.281686,0.958201,-0.049681,-0.010735,-0.360804,0.062788
1258,0.279887,0.95946,-0.032618,0.0313769999999999,-0.178607,0.044291
1259,0.276079,0.961002,-0.0147669999999999,0.070601,-0.037846,-0.018116
1260,0.273181,0.96194,0.002297,0.082486,-0.056774,-0.0588309999999999
1261,0.270302,0.962646,0.01455,0.204994,-0.135177,-0.0380029999999999
1262,0.265387,0.963818,0.024214,0.230051,-0.052761,-0.056074
1263,0.258495,0.965374,0.034573,0.241475,0.1517069999999999,-0.112469
1264,0.251267,0.966948,0.042871,0.310287,0.255159,-0.146097
1265,0.245386,0.968286,0.046571,0.426901,0.215003,-0.200288
1266,0.239592,0.969854,0.044038,0.606386,0.181773,-0.2204449999999999
1267,0.231403,0.972039,0.039393,0.6318020000000001,0.06272,-0.19874
1268,0.222323,0.974247,0.037074,0.5495270000000001,-0.017674,-0.111414
1269,0.216962,0.975573,0.033824,0.330188,-0.006762,0.069158
1270,0.215659,0.976118,0.025388,0.068841,-0.182966,0.1172359999999999
1271,0.216243,0.976263,0.01045,-0.038905,-0.257391,0.28258
1272,0.217804,0.975911,-0.01094,0.092987,-0.140828,0.372131
1273,0.223433,0.973724,-0.043607,0.550554,0.271103,0.35684
1274,0.232957,0.969045,-0.081526,0.410674,0.524516,0.172941
1275,0.249226,0.962143,-0.110151,0.237834,0.5021979999999999,0.1079079999999999
1276,0.26341,0.955181,-0.134944,-0.033841,0.269214,-0.074071
1277,0.271502,0.949424,-0.157635,0.043348,0.107904,0.051861
1278,0.27445,0.94434,-0.181291,0.173442,-0.038991,0.1289539999999999
1279,0.275146,0.939938,-0.20194,0.223542,-0.113644,0.1055349999999999
1280,0.276867,0.935184,-0.220784,0.188572,-0.069965,0.086293
1281,0.281907,0.928849,-0.2402889999999999,0.132919,0.036743,0.1567619999999999
1282,0.289108,0.922126,-0.2570429999999999,0.028977,-0.05619,0.252648
1283,0.293425,0.917506,-0.268433,-0.012725,-0.176402,0.288086
1284,0.292942,0.915887,-0.274424,-0.027027,-0.2656949999999999,0.253138
1285,0.288366,0.916336,-0.277752,-0.061575,-0.221694,0.20715
1286,0.282614,0.916683,-0.282478,-0.149192,-0.021251,0.147422
1287,0.277744,0.917364,-0.285086,-0.1135289999999999,-0.1038569999999999,0.173819
1288,0.273312,0.919733,-0.2817159999999999,-0.069012,-0.193521,0.1758809999999999
1289,0.270124,0.923632,-0.271862,0.000705,-0.318362,0.019879
1290,0.26814,0.927397,-0.260783,-0.004026,-0.204618,-0.095312
1291,0.268152,0.929715,-0.25238,0.011694,-0.158505,-0.130509
1292,0.268063,0.930569,-0.249308,0.083728,-0.111752,-0.191
1293,0.267009,0.931504,-0.246936,0.196232,-0.139451,-0.210309
1294,0.263863,0.932969,-0.244778,0.294914,-0.036317,-0.176395
1295,0.263769,0.932895,-0.24516,0.299509,0.0436519999999999,-0.199969
1296,0.274594,0.929432,-0.2464239999999999,0.127353,0.297237,0.153406
1297,0.28883,0.920891,-0.261742,0.128956,0.781517,0.175697
1298,0.302579,0.91311,-0.273219,0.042102,0.642249,0.203975
1299,0.310987,0.913462,-0.262387,-0.254453,0.391531,0.101788
1300,0.311134,0.914278,-0.259353,-0.114021,-0.236742,0.2152239999999999
1301,0.304498,0.9124,-0.273458,0.495612,-0.517273,0.371588
1302,0.2968469999999999,0.910429,-0.288052,0.642011,-0.426588,0.3784909999999999
1303,0.296229,0.91122,-0.286178,0.54215,0.412205,0.5700529999999999
1304,0.303458,0.915626,-0.263656,-0.144279,0.6023029999999999,0.206482
1305,0.313467,0.919822,-0.235876,-0.4391239999999999,0.521997,-0.001887
1306,0.320383,0.921912,-0.2177219999999999,0.111593,0.057885,0.239527
1307,0.325941,0.923038,-0.204287,0.075899,-0.067875,0.3007829999999999
1308,0.33451,0.922721,-0.191466,-0.067939,-0.1239079999999999,0.147079
1309,0.342242,0.922972,-0.175959,-0.113605,-0.129958,0.080606
1310,0.342567,0.926192,-0.157433,-0.064903,-0.113295,-0.0085519999999999
1311,0.33803,0.930277,-0.1424359999999999,-0.010973,-0.100901,0.055247
1312,0.336532,0.932213,-0.133014,-0.0026089999999999,-0.129753,0.0334649999999999
1313,0.339989,0.93166,-0.128002,0.033287,-0.2387429999999999,-0.0345959999999999
1314,0.343227,0.930706,-0.126289,0.090825,-0.265682,-0.021813
1315,0.342886,0.930705,-0.127216,0.0749,-0.291377,-0.091778
1316,0.339832,0.931407,-0.130238,-0.0412019999999999,-0.449718,-0.073924
1317,0.337464,0.931765,-0.133788,-0.083313,-0.622042,0.017547
1318,0.336099,0.931409,-0.139578,-0.009744,-0.584241,0.055288
1319,0.332787,0.931714,-0.1453539999999999,0.235282,0.1137869999999999,-0.071656
1320,0.324613,0.933835,-0.150152,0.258242,0.2268099999999999,2.1e-05
1321,0.31687,0.935556,-0.155868,0.212686,-0.002603,0.077927
1322,0.310523,0.936404,-0.163369,0.127084,-0.279361,0.150566
1323,0.299235,0.938439,-0.172503,0.1092279999999999,-0.251611,0.147356
1324,0.285653,0.940667,-0.183073,-0.027551,-0.216057,0.164198
1325,0.274389,0.94134,-0.1963609999999999,-0.095235,-0.35734,0.20869
1326,0.2696989999999999,0.939359,-0.211743,-0.304215,-0.282545,0.291882
1327,0.271549,0.934231,-0.231176,-0.3862489999999999,0.16251,0.123953
1328,0.281702,0.923243,-0.2612219999999999,0.110266,0.944006,0.110663
1329,0.293385,0.909127,-0.29561,0.568203,0.841987,0.144761
1330,0.30065,0.901395,-0.311558,0.225306,0.383578,-0.01112
1331,0.310185,0.8966370000000001,-0.315911,0.058178,-0.037537,-0.05532
1332,0.3270619999999999,0.88771,-0.323996,0.015619,0.029068,-0.078669
1333,0.33837,0.879389,-0.334894,-0.133017,0.332113,-0.084586
1334,0.346328,0.8726149999999999,-0.3443449999999999,0.006776,0.452809,-0.093262
1335,0.356139,0.867419,-0.347452,0.033112,0.405256,-0.05361
1336,0.367231,0.8641709999999999,-0.34398,0.139757,0.109339,-0.00064
1337,0.372355,0.8660950000000001,-0.333472,0.092412,-0.217871,0.0874549999999999
1338,0.371563,0.87315,-0.315471,-0.031613,-0.116863,0.055523
1339,0.370884,0.880117,-0.296329,-0.103413,0.005595,-0.040158
1340,0.369286,0.887136,-0.276746,-0.144692,-0.025152,-0.0142849999999999
1341,0.367799,0.895144,-0.251817,-0.233201,-0.1672529999999999,-0.022292
1342,0.366822,0.903063,-0.223356,-0.426407,-0.449144,0.1748019999999999
1343,0.366075,0.908696,-0.200571,-0.618043,-0.501973,0.164972
1344,0.366469,0.912591,-0.18123,-0.63626,-0.525842,0.109345
1345,0.366742,0.915769,-0.1638069999999999,-0.196453,-0.653898,-0.02435
1346,0.362132,0.920218,-0.148404,-0.0337019999999999,-0.708212,-0.077502
1347,0.363986,0.920914,-0.139265,0.218167,-0.977463,-0.111224
1348,0.3815679999999999,0.914503,-0.134363,-0.165931,-0.911757,-0.039282
1349,0.399539,0.906753,-0.134654,-0.258319,-0.613891,0.379634
1350,0.41292,0.898674,-0.147805,0.009153,-0.063896,0.4656149999999999
1351,0.415317,0.894012,-0.167983,1.232342,2.440582,0.275725
1352,0.416045,0.89665,-0.151293,-0.08995,0.564227,-0.429411
1353,0.4155149999999999,0.897904,-0.1451849999999999,-0.622943,0.085769,-0.203768
1354,0.4136359999999999,0.896757,-0.15715,0.5404800000000001,1.217836,-0.904633
1355,0.3864829999999999,0.906974,-0.167315,1.145607,0.521233,-0.2304969999999999
1356,0.364415,0.914272,-0.176844,0.6798350000000001,-0.419185,0.228144
1357,0.36996,0.910149,-0.186345,0.259663,-0.405068,0.074544
1358,0.374202,0.906522,-0.195338,0.047047,-0.00253,0.062495
1359,0.369981,0.903623,-0.215746,-0.2831889999999999,-0.18025,0.088182
1360,0.356163,0.902684,-0.241409,-0.578666,-0.5892069999999999,0.287888
1361,0.342282,0.902987,-0.259667,-0.645382,-0.640063,0.2195659999999999
1362,0.337488,0.898804,-0.279683,-0.40043,-0.003525,0.123463
1363,0.337589,0.8878590000000001,-0.312588,0.225704,0.786519,0.197659
1364,0.332125,0.879079,-0.341885,0.768842,1.017879,0.188687
1365,0.3304559999999999,0.87685,-0.349149,0.03754,0.7100489999999999,-0.0478079999999999
1366,0.341434,0.874602,-0.34419,-0.126209,0.1718,-0.069446
1367,0.35266,0.87164,-0.340363,-0.077499,0.052677,-0.046417
1368,0.3537619999999999,0.8728940000000001,-0.335977,-0.082842,0.208817,0.012536
1369,0.3522389999999999,0.876287,-0.328664,-0.052999,0.116389,-0.003077
1370,0.35358,0.880657,-0.31527,-0.085544,0.193638,-0.084907
1371,0.355713,0.885758,-0.298113,-0.098129,0.21202,-0.103682
1372,0.3527679999999999,0.892481,-0.281073,-0.062012,0.0508329999999999,-0.006997
1373,0.347152,0.9006209999999999,-0.261412,-0.014831,-0.159395,0.042937
1374,0.3432,0.908546,-0.23817,-0.121841,-0.313164,0.095027
1375,0.34193,0.914219,-0.217382,-0.299679,-0.268573,0.265554
1376,0.342877,0.917382,-0.202019,-0.427518,-0.195168,0.095162
1377,0.345884,0.919455,-0.186901,-0.4031349999999999,-0.6241979999999999,-0.042011
1378,0.349108,0.921317,-0.171067,-0.22571,-1.067191,-0.1519
1379,0.353215,0.922665,-0.154574,-0.045705,-1.4862030000000002,-0.0615659999999999
1380,0.363541,0.920312,-0.144316,-0.088181,-1.510767,0.096205
1381,0.3805199999999999,0.914444,-0.1377,-0.426846,-0.997314,0.2992599999999999
1382,0.395539,0.907741,-0.139712,-0.477631,-0.167812,0.227343
1383,0.397492,0.902883,-0.163604,0.85411,2.328241,-0.4448859999999999
1384,0.396207,0.901347,-0.17481,0.562854,0.972661,-0.09376
1385,0.406758,0.897862,-0.168393,-0.064183,0.178218,0.077634
1386,0.417827,0.8936719999999999,-0.163509,-0.172588,-0.5453140000000001,0.019512
1387,0.407198,0.8960549999999999,-0.176749,0.5207649999999999,0.656099,-0.5790350000000001
1388,0.377311,0.904318,-0.1995289999999999,1.019113,0.881128,-0.041148
1389,0.360873,0.909271,-0.2072739999999999,0.699567,0.207382,0.012388
1390,0.363721,0.908425,-0.206,0.343981,-0.47857,0.17449
1391,0.370064,0.904326,-0.212631,-0.161492,-0.4183489999999999,0.291229
1392,0.370863,0.90018,-0.228259,-0.4888439999999999,-0.264987,0.336002
1393,0.364203,0.8974030000000001,-0.248982,-0.4758979999999999,-0.2148769999999999,0.231434
1394,0.3533139999999999,0.896497,-0.267265,-0.452252,-0.2031069999999999,-0.068658
1395,0.344917,0.8928309999999999,-0.289575,-0.35128,0.1257849999999999,0.0540559999999999
1396,0.340869,0.883386,-0.321569,0.335965,0.609259,0.237326
1397,0.342186,0.871259,-0.351835,0.689643,0.7807189999999999,-0.023805
1398,0.348684,0.864317,-0.3624179999999999,0.336557,0.646211,-0.024103
1399,0.360006,0.862108,-0.356562,0.013941,0.248702,-0.170476
1400,0.374571,0.858143,-0.351081,-0.000624,0.252667,-0.175957
1401,0.3846719999999999,0.85249,-0.353919,-0.084379,0.305301,-0.0178919999999999
1402,0.392004,0.848311,-0.355909,-0.060736,-0.1237019999999999,0.095961
1403,0.39611,0.849383,-0.348734,-0.1158059999999999,-0.348559,0.101313
1404,0.39555,0.856519,-0.331488,-0.159115,-0.429807,0.1164309999999999
1405,0.390007,0.866662,-0.311063,-0.269813,-0.475411,0.132245
1406,0.3819849999999999,0.8768520000000001,-0.291865,-0.395642,-0.449697,0.2301119999999999
1407,0.37653,0.8845200000000001,-0.275348,-0.3987469999999999,-0.355284,0.192829
1408,0.3758289999999999,0.890244,-0.257264,-0.387151,-0.258225,0.152604
1409,0.378237,0.895582,-0.234167,-0.335314,-0.018843,0.0504509999999999
1410,0.376467,0.901532,-0.213251,-0.131579,0.385897,-0.153906
1411,0.37522,0.9055,-0.198099,0.1246579999999999,0.048663,-0.163397
1412,0.378156,0.906444,-0.187938,0.016863,-0.529048,0.017009
1413,0.387052,0.904386,-0.179551,-0.068082,-0.868849,0.1117099999999999
1414,0.400429,0.901655,-0.163206,-0.228935,-0.774702,0.20413
1415,0.4152899999999999,0.8973899999999999,-0.148948,-0.358466,-0.302114,0.114677
1416,0.425539,0.893134,-0.145561,-0.146532,0.443368,0.117241
1417,0.425171,0.8906780000000001,-0.160879,0.6636810000000001,1.454811,0.255773
1418,0.4283189999999999,0.886963,-0.172628,0.276134,0.308548,-0.110743
1419,0.435116,0.885001,-0.165551,-0.259945,0.020806,-0.093818
1420,0.4445189999999999,0.881376,-0.159815,-0.564361,0.138873,-0.098547
1421,0.448866,0.876714,-0.172784,0.304095,0.8445540000000001,-0.460212
1422,0.437133,0.879202,-0.189425,1.317231,1.183008,0.053713
1423,0.432911,0.8819040000000001,-0.186538,0.363583,0.147546,-0.0251319999999999
1424,0.437801,0.88235,-0.172481,-0.257702,-0.321498,0.052074
1425,0.442723,0.88251,-0.1585329999999999,-0.230397,-0.108295,-0.055899
1426,0.441034,0.88536,-0.146924,-0.149667,-0.046081,-0.0286279999999999
1427,0.432666,0.89013,-0.142927,0.008511,-0.08471,0.034559
1428,0.423184,0.894884,-0.141621,0.170138,-0.169191,0.056187
1429,0.4163,0.898832,-0.136947,-4e-05,-0.4656649999999999,0.031646
1430,0.411087,0.901787,-0.133216,-0.166351,-0.477836,-0.0263149999999999
1431,0.406251,0.904313,-0.130902,-0.19272,-0.431047,-0.032855
1432,0.398844,0.907004,-0.134999,-0.130228,-0.235618,-0.014125
1433,0.388713,0.909705,-0.14594,-0.012325,-0.239676,0.1645859999999999
1434,0.3784349999999999,0.911779,-0.159393,0.035048,-0.2962849999999999,0.265304
1435,0.369068,0.913097,-0.173216,-0.119999,-0.457057,0.266127
1436,0.3613639999999999,0.912653,-0.190899,-0.398092,-0.310724,0.134594
1437,0.357231,0.908767,-0.2156199999999999,-0.4691079999999999,-0.016524,0.0592629999999999
1438,0.359975,0.899265,-0.2484039999999999,0.004344,1.238903,0.139044
1439,0.368567,0.8863540000000001,-0.28018,0.635782,0.7069380000000001,-0.138781
1440,0.374855,0.878659,-0.295649,0.447136,0.593417,-0.160497
1441,0.377298,0.874698,-0.304166,0.261389,0.396512,-0.088702
1442,0.384519,0.8701180000000001,-0.308232,-0.023679,0.409225,-0.156398
1443,0.391626,0.866959,-0.308185,-0.198664,0.479247,-0.2086599999999999
1444,0.399016,0.864072,-0.306812,-0.15248,0.149631,-0.198376
1445,0.404093,0.862924,-0.303377,0.030462,-0.150995,0.022295
1446,0.402692,0.866283,-0.295568,0.109805,-0.173839,0.124578
1447,0.3976,0.873726,-0.280149,0.042875,-0.1023029999999999,0.085661
1448,0.392653,0.8818889999999999,-0.260888,-0.080183,-0.138847,-0.01995
1449,0.384978,0.890756,-0.241477,-0.269836,-0.180978,0.009604
1450,0.375559,0.899917,-0.221516,-0.4463899999999999,-0.256805,0.040882
1451,0.367348,0.908009,-0.201343,-0.494285,-0.369084,0.0595889999999999
1452,0.362929,0.913738,-0.18256,-0.468077,-0.4168199999999999,0.007114
1453,0.361496,0.917436,-0.1661109999999999,-0.247757,-0.733171,0.082965
1454,0.359009,0.919957,-0.157328,-0.129807,-0.984639,0.087763
1455,0.359401,0.920894,-0.150812,-0.126369,-1.285854,-0.012869
1456,0.367235,0.919687,-0.138828,-0.294878,-1.132578,0.010898
1457,0.379475,0.91629,-0.127952,-0.427708,-0.609206,-0.036584
1458,0.388707,0.910828,-0.138774,0.039866,0.415435,0.521892
1459,0.388965,0.905731,-0.168283,1.698666,1.953507,-0.193732
1460,0.394762,0.903743,-0.165445,-0.0338,0.03925,-0.538168
1461,0.407125,0.901007,-0.149651,-0.442251,0.0318079999999999,-0.5497350000000001
1462,0.4224,0.890167,-0.170712,0.22265,1.30304,-0.233936
1463,0.409028,0.894085,-0.182398,0.5860890000000001,-0.0524409999999999,-0.175665
1464,0.385799,0.904531,-0.181505,0.557179,-0.307485,-0.150175
1465,0.377601,0.906903,-0.18683,0.448205,-0.367719,-0.08827
1466,0.37755,0.906487,-0.188943,0.412504,-0.067879,-0.124747
1467,0.372565,0.907144,-0.195569,0.259027,0.0120299999999999,-0.059832
1468,0.363104,0.907928,-0.209247,-0.03771,-0.320663,0.195301
1469,0.349705,0.910136,-0.222086,-0.387409,-0.442302,0.527399
1470,0.333348,0.913456,-0.233327,-0.503484,-0.425541,0.446293
1471,0.320848,0.913712,-0.249303,-0.454561,-0.1648099999999999,0.118688
1472,0.314078,0.90958,-0.272002,-0.250693,0.394543,0.115401
1473,0.316216,0.9005479999999999,-0.298309,0.244788,0.657878,0.153381
1474,0.326709,0.8905350000000001,-0.316508,0.313702,0.4299149999999999,-0.1209609999999999
1475,0.337999,0.882165,-0.327887,0.210035,0.32775,-0.158227
1476,0.344875,0.87574,-0.337801,0.336323,0.463203,-0.181273
1477,0.344139,0.873576,-0.344098,0.023537,0.467229,-0.253681
1478,0.343251,0.8730610000000001,-0.346284,-0.030812,0.288301,-0.217498
1479,0.344007,0.8727520000000001,-0.346312,-0.009001,0.044911,-0.12015
1480,0.341879,0.875292,-0.341983,0.162317,-0.512926,0.033542
1481,0.333768,0.8823479999999999,-0.331707,-0.0547299999999999,-0.32383,0.12637
1482,0.323654,0.8903,-0.320285,-0.179031,-0.2134199999999999,0.142733
1483,0.315164,0.8975209999999999,-0.308374,-0.221246,-0.271499,0.137171
1484,0.305372,0.905509,-0.294562,-0.221753,-0.354225,0.189155
1485,0.296636,0.913704,-0.277701,-0.187581,-0.382087,0.1187049999999999
1486,0.289769,0.921069,-0.260057,-0.199665,-0.34209,0.024294
1487,0.28344,0.926808,-0.246278,-0.25222,-0.298054,-0.040205
1488,0.276333,0.930746,-0.239404,-0.2084619999999999,-0.246817,-0.0437069999999999
1489,0.270985,0.933112,-0.236289,-0.0608559999999999,-0.2339389999999999,-0.007592
1490,0.2707,0.934623,-0.2305739999999999,-0.076837,-0.182716,-0.147066
1491,0.277711,0.933934,-0.22496,-0.173478,-0.123891,-0.323655
1492,0.290603,0.92946,-0.2271929999999999,-0.144637,-0.2448139999999999,-0.316692
1493,0.3018369999999999,0.92255,-0.24033,-0.211627,-0.332936,0.153278
1494,0.3058909999999999,0.916063,-0.259273,-0.075316,0.096449,0.415188
1495,0.300036,0.910849,-0.283369,0.6622140000000001,0.858499,0.365736
1496,0.296072,0.901252,-0.31631,1.055933,0.277596,0.5823470000000001
1497,0.312027,0.896281,-0.315096,0.28215,0.190419,0.1902329999999999
1498,0.334048,0.8961870000000001,-0.291934,-0.135089,0.7408060000000001,-0.404034
1499,0.34237,0.888704,-0.304885,0.566642,1.218673,-0.165574
1500,0.333171,0.8912899999999999,-0.307515,0.8881889999999999,0.667075,0.227315
1501,0.332573,0.8965299999999999,-0.292566,0.461174,0.111069,0.235727
1502,0.337013,0.903747,-0.26387,0.173302,0.035523,0.150604
1503,0.343553,0.909584,-0.233645,0.154677,0.423713,0.097247
1504,0.345782,0.914528,-0.2098429999999999,-0.046542,0.3105239999999999,0.155415
1505,0.345642,0.919488,-0.187171,-0.133423,-0.187158,0.232169
1506,0.344737,0.924633,-0.16177,-0.162028,-0.300518,0.1657829999999999
1507,0.337871,0.930647,-0.140346,-0.175274,-0.491896,0.159694
1508,0.3247489999999999,0.938092,-0.120324,-0.151516,-0.617016,0.108956
1509,0.308102,0.946262,-0.098061,-0.091412,-0.5340159999999999,0.104118
1510,0.290921,0.95356,-0.077726,-0.07063,-0.2716449999999999,-0.047915
1511,0.277256,0.958889,-0.060112,-0.059208,-0.207531,-0.061867
1512,0.266737,0.962371,-0.0514419999999999,0.108537,-0.171493,-0.115428
1513,0.258449,0.964813,-0.047881,0.303578,0.0607,-0.267259
1514,0.25176,0.966567,-0.048129,0.538462,0.1008,-0.366803
1515,0.244325,0.968317,-0.051181,0.646467,-0.0241949999999999,-0.404599
1516,0.235125,0.970563,-0.051739,0.754713,-0.021344,-0.362675
1517,0.2284699999999999,0.972228,-0.050266,0.478256,0.238389,0.114444
1518,0.227225,0.972387,-0.052765,0.301583,0.071589,0.171479
1519,0.229032,0.97168,-0.0577409999999999,0.094882,-0.074326,0.439195
1520,0.233064,0.969764,-0.072048,0.089507,-0.026085,0.444195
1521,0.2382409999999999,0.966072,-0.099504,0.20669,0.290154,0.299775
1522,0.2422099999999999,0.960503,-0.1368339999999999,0.193078,0.480567,0.234734
1523,0.251077,0.952119,-0.174323,0.186087,0.465209,0.1874
1524,0.261711,0.943517,-0.2030809999999999,0.314048,0.1274819999999999,-0.0307139999999999
1525,0.2653,0.937326,-0.2258239999999999,0.398702,0.122504,0.00709
1526,0.265196,0.93184,-0.247603,0.372285,0.036742,0.111327
1527,0.258972,0.928685,-0.265407,0.339432,-0.013798,0.142193
1528,0.2482599999999999,0.927535,-0.279303,0.155411,-0.073378,0.076804
1529,0.2368989999999999,0.926328,-0.292848,0.079965,-0.07385,0.1531539999999999
1530,0.226571,0.925253,-0.3042,0.076621,-0.199591,0.284363
1531,0.219081,0.92539,-0.309228,0.175527,-0.321478,0.366876
1532,0.2140699999999999,0.926284,-0.310061,0.203548,-0.330901,0.338351
1533,0.207386,0.928063,-0.309282,-0.0452,-0.188241,0.21364
1534,0.196525,0.930049,-0.310407,-0.143089,-0.009593,0.19949
1535,0.1865359999999999,0.932062,-0.310531,-0.099637,-0.09083,0.228546
1536,0.178775,0.933828,-0.309791,-0.023578,-0.203145,0.205711
1537,0.174061,0.93536,-0.307846,-0.036625,-0.122357,0.12497
1538,0.171999,0.937077,-0.3037559999999999,-0.039644,-0.088932,0.042831
1539,0.16904,0.939935,-0.2965,0.004285,-0.083459,-0.114175
1540,0.161955,0.944286,-0.286458,0.108339,-0.183574,-0.091304
1541,0.154816,0.9476,-0.279375,0.306427,-0.213469,-0.140471
1542,0.150779,0.94929,-0.2758219999999999,0.369591,-0.164271,-0.131847
1543,0.151829,0.94871,-0.277237,0.40298,0.000692,-0.249908
1544,0.159088,0.946886,-0.279396,0.311874,0.233733,-0.260383
1545,0.173153,0.942628,-0.285368,0.339649,0.2580409999999999,-0.104448
1546,0.189453,0.937414,-0.292107,0.336502,0.101999,0.14135
1547,0.203093,0.93579,-0.288123,-0.083937,0.509523,0.39466
1548,0.204327,0.937514,-0.28157,0.249561,0.925187,0.294021
1549,0.188042,0.943552,-0.272604,0.547035,0.086431,0.171988
1550,0.175359,0.946425,-0.271093,0.5676220000000001,-0.620452,0.373373
1551,0.183029,0.946063,-0.267261,0.580353,-0.261966,0.5246770000000001
1552,0.197009,0.948052,-0.2496949999999999,0.433683,0.354713,0.336503
1553,0.1995819999999999,0.955475,-0.2172469999999999,0.1164119999999999,0.501846,0.1674119999999999
1554,0.197578,0.9632,-0.182124,-0.075111,0.345776,0.180491
1555,0.207501,0.965723,-0.155821,0.115176,0.078482,0.243544
1556,0.220298,0.966128,-0.134245,-0.005928,-0.047534,0.131773
1557,0.2250619999999999,0.967847,-0.112141,0.007131,-0.167767,-0.069423
1558,0.2234199999999999,0.970091,-0.094673,0.1054529999999999,-0.237333,-0.144874
1559,0.222398,0.971613,-0.080389,0.2139579999999999,-0.367869,0.006125
1560,0.225704,0.971898,-0.066523,0.194828,-0.4171649999999999,0.017115
1561,0.231836,0.971241,-0.0538159999999999,0.126181,-0.49796,0.057738
1562,0.237918,0.970403,-0.040811,0.133405,-0.431188,0.043191
1563,0.242765,0.969717,-0.025831,0.163668,-0.239126,-0.039813
1564,0.245334,0.969349,-0.011187,0.104215,-0.017994,-0.081571
1565,0.245629,0.969338,0.000774,0.013755,-0.083337,-0.072628
1566,0.2422949999999999,0.970137,0.0088519999999999,0.094619,0.090273,-0.0610669999999999
1567,0.236938,0.971423,0.0121739999999999,0.28917,0.223279,-0.083936
1568,0.232512,0.972493,0.012087,0.4353649999999999,0.055598,-0.076159
1569,0.2299139999999999,0.973145,0.008845,0.554128,-0.065995,-0.042719
1570,0.230707,0.972993,0.003071,0.615576,-0.001756,-0.00089
1571,0.2357949999999999,0.971749,-0.007373,0.200316,-0.1023029999999999,0.194934
1572,0.245231,0.969189,-0.022034,0.05314,-0.138699,0.414764
1573,0.257232,0.965203,-0.046563,0.023759,0.540596,0.252084
1574,0.268865,0.95933,-0.085739,-0.0001419999999999,0.6963550000000001,0.153869
1575,0.27858,0.952593,-0.1221329999999999,0.005859,0.760161,0.17119
1576,0.290003,0.94502,-0.150971,0.270925,0.308413,-0.0708159999999999
1577,0.299238,0.938296,-0.17325,0.238192,0.093152,-0.016218
1578,0.309465,0.930993,-0.193502,0.218993,0.065131,0.0048579999999999
1579,0.315828,0.924208,-0.2145989999999999,0.031508,-0.002913,-0.026993
1580,0.313955,0.920423,-0.232842,-0.0335139999999999,0.079669,0.003747
1581,0.3079949999999999,0.918166,-0.2491449999999999,0.040287,0.172273,0.024413
1582,0.308289,0.915094,-0.259853,0.0317529999999999,0.008429,0.137508
1583,0.314895,0.910926,-0.266494,0.020493,-0.1557069999999999,0.154418
1584,0.321867,0.907413,-0.270123,0.032,-0.3954809999999999,0.151578
1585,0.324735,0.907218,-0.267331,-0.13783,-0.51641,0.15614
1586,0.321636,0.909958,-0.261706,-0.285733,-0.3554989999999999,0.108752
1587,0.317403,0.912869,-0.256687,-0.196049,-0.313199,0.118488
1588,0.314363,0.914813,-0.253488,-0.1138319999999999,-0.321048,0.115061
1589,0.313837,0.915765,-0.250687,-0.092004,-0.294442,0.089707
1590,0.315893,0.916279,-0.2461829999999999,-0.070425,-0.287724,0.010893
1591,0.314768,0.918355,-0.239805,-0.090083,-0.274663,-0.070559
1592,0.309243,0.922883,-0.229386,-0.043343,-0.388489,-0.0306089999999999
1593,0.301712,0.928117,-0.218011,-0.012222,-0.444841,0.018106
1594,0.295782,0.932141,-0.208774,-0.171209,-0.234127,0.017902
1595,0.292132,0.934389,-0.203802,-0.2313869999999999,0.040205,0.02738
1596,0.2953409999999999,0.933668,-0.202478,-0.221596,0.195528,-0.038794
1597,0.3047539999999999,0.930964,-0.200975,-0.111821,-0.062769,-0.059966
1598,0.313328,0.929281,-0.195507,-0.051838,-0.171895,-0.010182
1599,0.323598,0.92779,-0.185605,-0.067036,-0.242335,0.008389
1600,0.334005,0.926221,-0.174683,-0.1062829999999999,-0.290677,0.032532
1601,0.33837,0.925517,-0.169948,-0.171179,-0.29803,0.020412
1602,0.3325929999999999,0.926617,-0.175275,0.012714,-0.153302,0.281842
1603,0.326995,0.927266,-0.182241,0.533647,0.4467569999999999,0.506215
1604,0.3342489999999999,0.925066,-0.180249,0.503275,0.775663,-0.139041
1605,0.35056,0.921745,-0.16569,0.0953779999999999,0.7193229999999999,-0.299673
1606,0.3593429999999999,0.917212,-0.1719119999999999,0.334169,0.331079,-0.250558
1607,0.359501,0.914882,-0.1836,0.123714,-0.0801809999999999,-0.399332
1608,0.360543,0.91312,-0.190211,0.143973,-0.298496,-0.369771
1609,0.366882,0.90952,-0.195269,0.4536739999999999,-0.267034,-0.0285629999999999
1610,0.374429,0.909295,-0.181504,0.17742,-0.313119,0.025117
1611,0.380555,0.911275,-0.1572069999999999,-0.015733,-0.155309,0.090832
1612,0.384451,0.913055,-0.135963,-0.1531269999999999,0.087785,0.067436
1613,0.381909,0.916308,-0.120338,-0.110302,0.317273,0.0557169999999999
1614,0.373935,0.92094,-0.1095339999999999,-0.044513,-0.000697,-0.174142
1615,0.366643,0.924464,-0.104377,-0.107152,-0.6036630000000001,-0.24151
1616,0.358359,0.927089,-0.109731,-0.0394959999999999,-0.8491770000000001,0.029317
1617,0.351084,0.928746,-0.1188579999999999,0.180837,-0.782185,0.051857
1618,0.345368,0.93085,-0.119144,0.202682,-0.5228149999999999,0.092639
1619,0.339953,0.93267,-0.120477,0.047223,-0.238059,0.015131
1620,0.334117,0.933815,-0.127713,-0.00262,-0.1237569999999999,0.0073209999999999
1621,0.32652,0.935517,-0.134721,0.038333,-0.1856539999999999,0.182176
1622,0.319355,0.936549,-0.14438,-0.0515169999999999,-0.4224189999999999,0.253862
1623,0.3156469999999999,0.934549,-0.164143,-0.3306469999999999,-0.204401,0.0844309999999999
1624,0.321057,0.928583,-0.186051,-0.37869,0.60639,-0.067947
1625,0.339528,0.915007,-0.2178179999999999,0.109142,1.408892,-0.110139
1626,0.356647,0.8989290000000001,-0.254348,0.469509,1.396771,-0.139603
1627,0.363725,0.8912629999999999,-0.270775,0.41812,0.23418,-0.20063
1628,0.369703,0.887393,-0.275348,0.2147389999999999,0.252163,-0.263364
1629,0.376875,0.882141,-0.282411,-0.1830119999999999,0.6690520000000001,-0.27043
1630,0.3830949999999999,0.876977,-0.290023,-0.2082139999999999,0.222373,-0.089509
1631,0.389623,0.873994,-0.290331,-0.100607,0.000884,-0.03134
1632,0.395177,0.8733629999999999,-0.284668,0.092647,-0.398098,0.010925
1633,0.39636,0.876236,-0.273993,0.124774,-0.5640569999999999,0.10105
1634,0.391019,0.883509,-0.257834,-0.172925,-0.446955,0.082342
1635,0.384608,0.8911540000000001,-0.240591,-0.3241989999999999,-0.367274,0.036398
1636,0.37851,0.8980459999999999,-0.224065,-0.390579,-0.356389,0.058446
1637,0.371565,0.904766,-0.208082,-0.34715,-0.419109,0.019788
1638,0.362292,0.912327,-0.190691,-0.3147,-0.505009,-0.054304
1639,0.353529,0.919301,-0.1728029999999999,-0.308058,-0.524816,-0.045627
1640,0.347903,0.923927,-0.158996,-0.297228,-0.2772449999999999,0.0172879999999999
1641,0.344188,0.92713,-0.14806,-0.171733,0.167871,0.0076799999999999
1642,0.345769,0.927601,-0.141267,-0.110555,0.031993,-0.141616
1643,0.355401,0.924432,-0.1381,-0.0989159999999999,-0.456201,-0.075447
1644,0.367998,0.919946,-0.1350319999999999,-0.270586,-0.587579,0.10041
1645,0.379569,0.915601,-0.132509,-0.2025819999999999,-0.2972079999999999,0.122652
1646,0.385632,0.911776,-0.141099,0.401645,0.478529,0.117067
1647,0.386248,0.910506,-0.147474,0.835478,0.953554,0.1121809999999999
1648,0.384927,0.911947,-0.141918,0.4816649999999999,0.924357,-0.185352
1649,0.389596,0.911752,-0.129919,-0.294015,-0.1113059999999999,-0.372492
1650,0.402034,0.906311,-0.130092,-0.223003,0.093918,-0.291692
1651,0.411616,0.90054,-0.139841,0.801824,0.541736,0.109369
1652,0.4136859999999999,0.899791,-0.138548,0.799754,0.542485,0.108076
1653,0.4139609999999999,0.902137,-0.1214079999999999,-0.036993,-0.110145,0.001078
1654,0.415697,0.903228,-0.1064359999999999,-0.412035,-0.281311,0.01171
1655,0.416135,0.904453,-0.093545,-0.3456849999999999,-0.174839,-0.036826
1656,0.411427,0.907572,-0.083633,-0.2395679999999999,-0.09028,-0.106796
1657,0.404227,0.911088,-0.080454,0.097497,-0.310807,0.00535
1658,0.399632,0.91327,-0.0786429999999999,0.034496,-0.463808,-0.025529
1659,0.39609,0.914898,-0.0776429999999999,-0.045641,-0.531597,-0.052652
1660,0.391525,0.916715,-0.079344,0.0490569999999999,-0.500242,-0.133654
1661,0.385253,0.918726,-0.08646,0.149659,-0.438914,-0.157421
1662,0.378271,0.920476,-0.097925,0.190928,-0.2908219999999999,-0.124349
1663,0.370622,0.922163,-0.110496,0.167296,-0.287519,0.0738289999999999
1664,0.361921,0.924148,-0.12214,0.136325,-0.295425,0.153039
1665,0.351788,0.926158,-0.135765,-0.19061,-0.240153,0.079964
1666,0.344017,0.926853,-0.150174,-0.413811,0.218182,-0.028369
1667,0.343802,0.923819,-0.168273,-0.3142,1.0324950000000002,-0.078431
1668,0.352489,0.914334,-0.199256,0.057454,1.248157,0.09246
1669,0.357976,0.906925,-0.222036,0.527369,0.527233,-0.127771
1670,0.360354,0.903223,-0.233008,0.428541,0.306478,-0.194146
1671,0.366614,0.8987370000000001,-0.240472,-0.001105,0.77561,-0.231208
1672,0.380017,0.8909969999999999,-0.248342,-0.362576,0.651728,-0.161356
1673,0.390873,0.885016,-0.252836,-0.394489,0.14718,-0.070711
1674,0.394135,0.883632,-0.252613,-0.080307,-0.279461,0.061344
1675,0.393987,0.8849290000000001,-0.248267,0.180858,-0.481426,0.111639
1676,0.390946,0.889345,-0.23704,0.102432,-0.389223,0.00355
1677,0.387314,0.895056,-0.220959,-0.09256,-0.235587,-0.087695
1678,0.383524,0.900351,-0.2055159999999999,-0.208948,-0.25878,-0.049641
1679,0.377144,0.906396,-0.1901779999999999,-0.224601,-0.303552,0.02401
1680,0.367567,0.913853,-0.1724099999999999,-0.242414,-0.33292,0.01027
1681,0.357038,0.921418,-0.153194,-0.311399,-0.319932,-0.046436
1682,0.3467429999999999,0.928284,-0.134218,-0.378496,-0.10318,-0.02928
1683,0.333578,0.935024,-0.120043,-0.300619,0.2579079999999999,0.03467
1684,0.324129,0.939482,-0.11076,-0.3024159999999999,0.225496,-0.013508
1685,0.326804,0.939338,-0.1039079999999999,-0.154136,-0.640189,0.047343
1686,0.337848,0.936224,-0.096416,-0.082538,-0.946982,-0.117665
1687,0.352489,0.932203,-0.081865,-0.139935,-0.982084,-0.154875
1688,0.363607,0.928694,-0.07259,-0.1228539999999999,-0.513945,-0.172192
1689,0.373628,0.924236,-0.0783799999999999,0.154952,-0.036556,0.022105
1690,0.375476,0.921123,-0.10249,1.191892,1.298039,-0.173267
1691,0.38029,0.917971,-0.112532,1.203054,0.8345309999999999,0.263259
1692,0.391873,0.915307,-0.092746,-0.181424,0.2549349999999999,0.04703
1693,0.401545,0.912219,-0.08106,-0.400447,0.301877,0.173894
1694,0.400018,0.912168,-0.088818,-0.375833,0.900699,-0.164569
1695,0.38361,0.91774,-0.102715,0.406338,0.731903,-0.213371
1696,0.369407,0.922673,-0.110304,0.190637,-0.119237,-0.217744
1697,0.3633639999999999,0.925033,-0.110607,0.2906579999999999,-0.306884,-0.132252
1698,0.3632599999999999,0.92561,-0.106025,0.3376679999999999,-0.429547,-0.131814
1699,0.365095,0.925759,-0.098133,0.037203,-0.33799,-0.1877859999999999
1700,0.367848,0.924911,-0.095817,0.045116,-0.223251,-0.133065
1701,0.367261,0.92508,-0.096438,0.166934,0.0530389999999999,0.007037
1702,0.358957,0.928414,-0.095659,0.027213,-0.137872,0.036241
1703,0.345827,0.932833,-0.100897,0.0655039999999999,-0.191012,0.132803
1704,0.33239,0.936247,-0.1136339999999999,0.005058,-0.341429,0.267748
1705,0.322403,0.93747,-0.131003,-0.232651,-0.549195,0.098853
1706,0.318027,0.936243,-0.1492119999999999,-0.283252,-0.57548,0.078671
1707,0.317615,0.932482,-0.171923,-0.357028,-0.445528,0.1206079999999999
1708,0.320822,0.925304,-0.202106,-0.2053739999999999,0.6532789999999999,-0.167767
1709,0.328389,0.913376,-0.240557,0.548564,0.924652,0.069964
1710,0.335835,0.902659,-0.269045,0.586529,0.53893,-0.088774
1711,0.342952,0.8974719999999999,-0.277294,0.248402,0.369267,-0.068211
1712,0.35519,0.892293,-0.278598,0.266316,0.5261640000000001,-0.141065
1713,0.370233,0.887067,-0.275688,0.048224,0.804752,-0.357582
1714,0.379631,0.884316,-0.271715,-0.046501,0.213493,-0.241179
1715,0.383216,0.8845700000000001,-0.265789,-0.014305,-0.151096,-0.156071
1716,0.380478,0.889142,-0.254217,0.050949,-0.702572,-0.055246
1717,0.375306,0.8962479999999999,-0.2363179999999999,-0.148622,-0.475487,-0.01858
1718,0.3745969999999999,0.901197,-0.217906,-0.144113,-0.447522,-0.056584
1719,0.370754,0.906445,-0.2021369999999999,-0.220516,-0.282467,0.081546
1720,0.359781,0.914582,-0.184543,-0.2922909999999999,-0.00966,0.078983
1721,0.34358,0.925391,-0.159878,-0.309431,0.321221,0.078473
1722,0.326111,0.935272,-0.1373859999999999,-0.346359,0.319062,0.075786
1723,0.319295,0.939703,-0.122332,-0.354696,-0.2282159999999999,0.102144
1724,0.324244,0.939008,-0.11439,-0.268732,-0.716321,0.082453
1725,0.3301949999999999,0.937913,-0.106046,-0.180399,-1.096162,-0.064502
1726,0.33662,0.936824,-0.094878,-0.160946,-1.2739969999999998,-0.1197829999999999
1727,0.345447,0.934316,-0.0876,-0.222492,-0.588445,-0.028336
1728,0.363407,0.926726,-0.09522,-0.1116369999999999,-0.228957,-0.056224
1729,0.37894,0.916741,-0.126272,0.218609,0.64408,0.072012
1730,0.3845949999999999,0.91222,-0.14106,1.333148,1.40765,0.005531
1731,0.386329,0.914728,-0.118223,-0.324638,-0.282861,0.047423
1732,0.396457,0.911075,-0.112777,-0.580585,-0.342837,0.2122949999999999
1733,0.40665,0.904535,-0.128088,0.532101,1.463065,-0.7024630000000001
1734,0.387373,0.910914,-0.141893,1.163714,1.889867,-0.567397
1735,0.377579,0.914817,-0.143173,0.122391,-0.158546,-0.00264
1736,0.381863,0.913252,-0.1418,0.2846869999999999,-0.50572,-0.247925
1737,0.383983,0.912409,-0.141499,0.101872,-0.4370819999999999,-0.275127
1738,0.379065,0.912549,-0.15336,-0.022284,-0.311262,-0.12908
1739,0.372475,0.912817,-0.167284,-0.017083,-0.366888,0.113908
1740,0.362108,0.915697,-0.174167,-0.145692,-0.2990739999999999,0.150348
1741,0.346652,0.920418,-0.180612,-0.253757,-0.503181,0.315179
1742,0.32995,0.924422,-0.19114,-0.268457,-0.6119829999999999,0.333138
1743,0.320294,0.924721,-0.205578,-0.363126,-0.7011029999999999,0.23724
1744,0.3230719999999999,0.918655,-0.2272829999999999,-0.292371,0.158203,-0.1212579999999999
1745,0.339602,0.903615,-0.260982,-0.1542079999999999,0.6589,-0.019063
1746,0.361792,0.884856,-0.293428,1.050333,1.258958,-0.283141
1747,0.37308,0.8781610000000001,-0.299346,0.2257199999999999,0.35629,-0.353669
1748,0.383601,0.873142,-0.300727,0.314077,0.47839,-0.255196
1749,0.388295,0.8694649999999999,-0.305321,0.090968,0.748043,-0.308403
1750,0.392414,0.867524,-0.305576,-0.053501,0.146071,-0.178342
1751,0.3946949999999999,0.8678969999999999,-0.301553,-0.076503,-0.121254,-0.189505
1752,0.394386,0.871136,-0.292482,-0.104713,-0.3037829999999999,-0.089903
1753,0.387853,0.8793209999999999,-0.276275,-0.151158,-0.295352,0.001769
1754,0.376628,0.890106,-0.256561,-0.146129,-0.297928,0.017685
1755,0.364615,0.900402,-0.237261,-0.1397769999999999,-0.344951,0.0566429999999999
1756,0.352653,0.910046,-0.217742,-0.149345,-0.37814,0.055846
1757,0.342419,0.918366,-0.198274,-0.188412,-0.373627,0.07245
1758,0.335284,0.92483,-0.179533,-0.266009,-0.358576,0.026792
1759,0.329219,0.930045,-0.1630599999999999,-0.4105029999999999,-0.248969,0.007619
1760,0.321273,0.935242,-0.148533,-0.463012,-0.0424649999999999,0.047505
1761,0.311677,0.94042,-0.13573,-0.2863469999999999,0.08288,-0.110135
1762,0.307598,0.943257,-0.124917,-0.092053,-0.3655739999999999,-0.0606149999999999
1763,0.310165,0.943231,-0.118601,-0.091278,-0.518915,-0.105734
1764,0.320209,0.940775,-0.111188,-0.186558,-0.689523,-0.0622429999999999
1765,0.334959,0.936861,-0.100234,-0.216047,-0.608675,0.064407
1766,0.34848,0.932511,-0.094536,-0.161347,-0.177644,0.154534
1767,0.3543739999999999,0.929464,-0.102321,0.089001,0.33668,-0.02866
1768,0.352305,0.929309,-0.110547,1.042867,0.967603,0.182385
1769,0.363963,0.926565,-0.094667,0.243993,-0.527486,-0.288909
1770,0.385111,0.920016,-0.07219,0.083349,-0.633456,-0.234893
1771,0.404708,0.910837,-0.080864,1.071427,2.568457,-0.651192
