,gravity.x,gravity.y,gravity.z,userAcceleration.x,userAcceleration.y,userAcceleration.z
0,-0.158069,0.986991,-0.029199,0.567829,-0.103217,-0.462287
1,-0.156377,0.986574,-0.0470019999999999,0.555547,-0.160448,-0.514323
2,-0.147717,0.986584,-0.069435,0.30595,-0.332761,-0.218132
3,-0.141464,0.984972,-0.0990409999999999,0.305359,-0.343737,-0.158772
4,-0.139507,0.981385,-0.131959,0.241497,-0.124222,-0.2735579999999999
5,-0.142839,0.975566,-0.16691,0.236482,0.007664,0.052408
6,-0.156747,0.966113,-0.205054,0.355508,-0.158069,0.302984
7,-0.177243,0.951215,-0.252523,0.246198,-0.0933809999999999,0.018834
8,-0.189129,0.934016,-0.3030469999999999,0.183148,0.5634359999999999,-0.0109489999999999
9,-0.196856,0.91107,-0.362206,0.153705,1.026461,0.217995
10,-0.2151539999999999,0.879657,-0.424153,0.11115,1.170377,0.28629
11,-0.241996,0.846785,-0.473695,0.141394,0.975145,1.110826
12,-0.244809,0.8206829999999999,-0.516278,0.183133,0.65028,1.390347
13,-0.2156809999999999,0.8141109999999999,-0.539166,-0.212298,0.618613,0.899228
14,-0.1638119999999999,0.823434,-0.543246,-0.070197,0.798331,0.019687
15,-0.113899,0.8227059999999999,-0.5569350000000001,-0.106744,0.8206959999999999,-0.092036
16,-0.108275,0.8116,-0.574088,-0.6625840000000001,0.096801,0.503287
17,-0.1198099999999999,0.8002630000000001,-0.587554,-0.543474,-0.443116,0.674773
18,-0.126326,0.798188,-0.58901,-0.370378,-0.496201,0.665167
19,-0.134501,0.804148,-0.579009,-0.23644,-0.466715,0.642837
20,-0.151481,0.811528,-0.564333,0.0028,-0.379231,0.607378
21,-0.167455,0.819141,-0.5486,0.036153,-0.3916199999999999,0.5168159999999999
22,-0.180317,0.828635,-0.529949,0.049595,-0.357596,0.422038
23,-0.193236,0.8395090000000001,-0.5078189999999999,-0.044969,-0.463837,0.236503
24,-0.206903,0.8494809999999999,-0.485353,-0.0502079999999999,-0.4957979999999999,0.162294
25,-0.223179,0.857381,-0.4637699999999999,0.067661,-0.4246729999999999,0.06663
26,-0.24291,0.864049,-0.440917,0.216603,-0.106573,0.00505
27,-0.261478,0.8717799999999999,-0.4142729999999999,0.3905369999999999,0.28244,-0.181354
28,-0.268233,0.879142,-0.393897,0.4733569999999999,0.651147,-0.5909810000000001
29,-0.2650639999999999,0.881926,-0.389798,0.465229,0.7519399999999999,-0.908069
30,-0.263776,0.8813040000000001,-0.392072,0.171842,0.394499,-0.540912
31,-0.25915,0.878446,-0.401457,0.01855,-0.098783,0.033308
32,-0.257263,0.8729020000000001,-0.414552,0.000778,-0.200248,0.045823
33,-0.2549369999999999,0.8696729999999999,-0.422695,-0.052619,-0.263716,-0.086063
34,-0.2515,0.8715639999999999,-0.420855,-1.007182,1.354098,-1.586927
35,-0.266058,0.8677809999999999,-0.4197189999999999,-1.142038,1.72603,-1.101002
36,-0.29457,0.87074,-0.3937449999999999,0.010848,0.4367859999999999,3.01612
37,-0.281832,0.873816,-0.3962469999999999,-0.0624669999999999,0.178141,0.885368
38,-0.269577,0.8841389999999999,-0.381604,0.07315,0.015565,0.8512850000000001
39,-0.253423,0.8914700000000001,-0.3755699999999999,0.144506,0.673288,1.081747
40,-0.251837,0.894383,-0.369665,0.174612,0.726772,0.7151689999999999
41,-0.273563,0.898334,-0.343734,0.362537,0.5253869999999999,0.659881
42,-0.304604,0.903087,-0.302727,0.8917010000000001,0.5132180000000001,0.452385
43,-0.333171,0.908053,-0.25383,0.818858,0.234342,0.299408
44,-0.341563,0.915444,-0.212813,0.4408979999999999,0.065345,0.378478
45,-0.329807,0.927764,-0.17457,0.204013,0.01407,0.419
46,-0.307793,0.942428,-0.130709,9.9e-05,-0.196761,0.346377
47,-0.278949,0.956946,-0.080205,-0.143689,-0.342444,0.334599
48,-0.254498,0.966726,-0.025742,-0.217807,-0.376425,0.173722
49,-0.249244,0.968022,0.028301,-0.408853,-0.286626,-0.381374
50,-0.268902,0.961127,0.062584,-0.406223,-0.182974,-0.369667
51,-0.292007,0.95395,0.068571,-0.091889,0.314758,-0.54315
52,-0.310799,0.947351,0.076946,0.214501,0.267859,-0.0156509999999999
53,-0.326937,0.941319,0.083787,0.259157,0.228771,0.1294539999999999
54,-0.333805,0.939261,0.079696,0.341954,0.278466,0.011796
55,-0.337568,0.937576,0.083593,0.425612,0.276382,-0.149892
56,-0.3405,0.933604,0.1115,0.940995,0.38683,-0.32372
57,-0.349429,0.929593,0.11724,0.949923,0.390841,-0.329459
58,-0.361037,0.927495,0.0969309999999999,0.45555,0.3050489999999999,-0.212715
59,-0.369969,0.924897,0.087626,0.345677,0.784362,-0.336176
60,-0.385302,0.920778,0.060825,0.6269399999999999,0.742583,-0.307285
61,-0.401173,0.915949,0.009379,0.770421,0.75321,-0.207224
62,-0.413805,0.908982,-0.050087,0.675234,0.466125,-0.119423
63,-0.422625,0.899334,-0.112151,0.634524,0.150669,0.075332
64,-0.434845,0.8833059999999999,-0.1751329999999999,0.5541689999999999,0.396723,0.539116
65,-0.4390699999999999,0.8674229999999999,-0.234067,0.691954,0.725228,1.10777
66,-0.435583,0.8512780000000001,-0.292549,0.541403,0.819544,1.2055280000000002
67,-0.422724,0.835858,-0.350197,0.309855,0.729007,0.964073
68,-0.401999,0.8278190000000001,-0.391287,0.389823,0.631486,0.468512
69,-0.390179,0.833377,-0.391455,0.720669,0.545514,0.48641
70,-0.379212,0.839586,-0.388957,0.99054,0.426833,0.546748
71,-0.363004,0.839015,-0.405308,0.80145,0.405873,0.759312
72,-0.356602,0.834485,-0.420076,0.579807,0.2145719999999999,1.085069
73,-0.353192,0.829334,-0.432959,0.308606,0.081829,1.057882
74,-0.350932,0.82604,-0.4410189999999999,0.1981,0.052195,0.917338
75,-0.363044,0.821902,-0.438943,-0.035088,-0.111696,0.925606
76,-0.387583,0.815267,-0.4302479999999999,-0.025213,-0.40125,1.16035
77,-0.408028,0.812828,-0.4157119999999999,-0.028343,-0.415672,1.114656
78,-0.421187,0.816254,-0.395379,-0.025529,-0.3411409999999999,1.053765
79,-0.42767,0.824593,-0.370322,-0.157306,-0.498512,0.833899
80,-0.428403,0.8373309999999999,-0.339619,-0.207827,-0.48528,0.605823
81,-0.4255029999999999,0.8553069999999999,-0.295617,-0.252415,-0.284522,0.3745969999999999
82,-0.423562,0.875635,-0.232055,-0.296714,0.197851,0.00946
83,-0.421712,0.890393,-0.171318,-0.239436,1.503848,-1.520836
84,-0.415434,0.892215,-0.177081,-0.085314,1.809582,-2.506162
85,-0.400182,0.892134,-0.209627,0.992025,0.603807,-1.266111
86,-0.365326,0.907777,-0.206082,1.464264,-0.323274,-1.073489
87,-0.349313,0.92064,-0.174342,2.113198,-0.402924,0.823267
88,-0.347428,0.925783,-0.149031,0.954926,-0.252718,2.549345
89,-0.359551,0.918895,-0.162315,0.078484,0.123021,1.654869
90,-0.398729,0.896726,-0.192067,-1.326063,1.088977,-0.536738
91,-0.4362359999999999,0.885417,-0.160394,-0.087202,-0.1970319999999999,0.8318260000000001
92,-0.458454,0.879231,-0.129478,0.2827949999999999,-0.457402,0.831139
93,-0.482633,0.869506,-0.104958,0.441221,-0.594359,0.8643719999999999
94,-0.48858,0.8697370000000001,-0.069557,0.630167,-0.365556,0.864784
95,-0.476905,0.8786879999999999,-0.021425,0.6953189999999999,0.5751689999999999,0.8963180000000001
96,-0.472697,0.881125,0.012894,0.763346,0.891336,0.684951
97,-0.4669359999999999,0.883883,0.026685,0.752626,0.369184,0.102939
98,-0.445209,0.893288,0.061769,0.468646,-0.147499,-0.38492
99,-0.408807,0.901244,0.143613,0.105417,-0.2168719999999999,-0.085386
100,-0.373098,0.898374,0.231753,-0.16833,-0.001936,-0.40665
101,-0.3648969999999999,0.88864,0.2777699999999999,-0.336869,-0.138854,-0.26625
102,-0.377286,0.8761709999999999,0.299948,-0.336169,-0.104244,-0.13616
103,-0.388235,0.862489,0.324614,-0.3346659999999999,-0.011491,-0.081496
104,-0.39799,0.8487790000000001,0.348089,0.44514,0.262305,-0.486486
105,-0.402309,0.838775,0.366867,0.556758,0.304581,-0.583526
106,-0.398393,0.834825,0.379918,0.636201,0.329924,-0.586858
107,-0.397966,0.832132,0.386221,0.840792,0.340888,-0.532065
108,-0.402598,0.8261870000000001,0.394102,0.834666,0.432801,-0.466063
109,-0.404035,0.8191579999999999,0.407089,0.759488,0.432123,-0.40715
110,-0.39889,0.815861,0.41862,0.544642,0.2650869999999999,-0.305674
111,-0.391215,0.816566,0.4244479999999999,0.2063699999999999,0.23304,-0.432001
112,-0.388389,0.818313,0.42368,0.057503,0.20514,-0.515614
113,-0.3969519999999999,0.8205629999999999,0.411209,0.542017,0.685968,-0.427979
114,-0.407888,0.824815,0.391527,0.724935,0.8762190000000001,-0.396883
115,-0.40902,0.8376379999999999,0.362012,0.868965,1.0544209999999998,-0.426541
116,-0.396476,0.8599,0.321507,0.812934,0.6389560000000001,-0.36002
117,-0.369451,0.887907,0.274072,0.561071,0.344362,-0.312127
118,-0.340873,0.91409,0.2196239999999999,0.176338,0.159137,-0.210117
119,-0.31575,0.934476,0.164457,0.025757,0.3467739999999999,0.389666
120,-0.3038909999999999,0.946295,0.110297,-0.03525,0.592492,0.758965
121,-0.308896,0.949922,0.047156,-0.202182,0.586242,0.824197
122,-0.317092,0.948104,-0.0233169999999999,-0.185716,0.315476,0.521181
123,-0.308609,0.947853,-0.07955,0.042831,0.098458,-0.038431
124,-0.293928,0.951842,-0.087152,0.424635,0.170152,-0.227194
125,-0.266877,0.9572,-0.111968,0.610108,0.233183,0.383178
126,-0.239992,0.957863,-0.1577859999999999,0.314867,0.05497,0.530116
127,-0.210166,0.957482,-0.197619,-0.148401,-0.261254,0.5094479999999999
128,-0.182366,0.956656,-0.227039,-0.242515,-0.338949,0.4627409999999999
129,-0.167502,0.95364,-0.250015,-0.107415,-0.458676,0.4232479999999999
130,-0.15844,0.952001,-0.261889,0.002343,-0.7376149999999999,0.436343
131,-0.152438,0.953368,-0.260474,-0.10513,-0.7931199999999999,0.412268
132,-0.150439,0.958013,-0.244077,-0.226621,-0.860265,0.347836
133,-0.157065,0.963738,-0.215716,-0.089257,-0.8977129999999999,0.29227
134,-0.1718589999999999,0.969172,-0.176537,0.0055229999999999,-0.833536,0.287331
135,-0.196016,0.971966,-0.129821,-0.063414,-0.445172,0.065658
136,-0.227357,0.970625,-0.078674,-0.101866,-0.028593,-0.1915589999999999
137,-0.248067,0.968306,-0.028985,-0.081203,0.111437,-0.326652
138,-0.2515719999999999,0.967811,0.006811,-0.122115,0.432076,-0.399619
139,-0.254236,0.967033,0.014312,0.0832919999999999,0.215538,-0.579009
140,-0.258584,0.965595,0.027464,0.206765,0.1113859999999999,-0.579588
141,-0.258805,0.963839,0.063465,0.434708,-0.118822,-0.374958
142,-0.250084,0.962133,0.108405,0.391732,-0.324865,0.371103
143,-0.2335969999999999,0.962765,0.136046,0.338059,-0.198467,0.379091
144,-0.218808,0.964848,0.145544,0.244886,0.161571,0.11799
145,-0.218763,0.962102,0.162774,0.3145429999999999,0.452342,-0.109582
146,-0.224372,0.955512,0.191433,0.164633,1.304025,-0.673351
147,-0.233158,0.951806,0.199233,0.056874,1.238273,-0.41368
148,-0.22568,0.951603,0.208596,-0.132154,1.917202,-0.79548
149,-0.213515,0.952394,0.217599,-0.205904,0.058348,-0.278359
150,-0.201614,0.959002,0.199146,-0.224289,-0.4316279999999999,-0.012485
151,-0.18974,0.964796,0.182098,-0.18787,-0.809355,-0.046341
152,-0.183292,0.9685,0.168535,-0.261364,-0.579554,-0.050646
153,-0.190819,0.967536,0.165694,-0.5139239999999999,0.147607,-0.637191
154,-0.210314,0.961957,0.174352,0.343538,0.1529869999999999,-0.945668
155,-0.232202,0.960288,0.154665,0.622827,0.06379,-0.938418
156,-0.241432,0.96219,0.126069,0.713173,0.083342,-0.7037359999999999
157,-0.237611,0.967663,0.084624,-0.21678,-0.156155,-0.985152
158,-0.233334,0.97203,0.026576,-0.406788,-0.500625,-0.390971
159,-0.226092,0.973162,-0.042801,-0.06175,-0.3582329999999999,-0.128631
160,-0.217604,0.969274,-0.114679,0.5259229999999999,0.0532179999999999,0.396051
161,-0.2104469999999999,0.960271,-0.183267,1.367094,0.5141399999999999,0.6431819999999999
162,-0.193373,0.95193,-0.237551,1.1062610000000002,0.561192,0.903246
163,-0.151239,0.94764,-0.2812469999999999,0.215677,0.346763,0.746609
164,-0.1011919999999999,0.944549,-0.312384,-0.403462,0.194917,-0.149241
165,-0.067709,0.9422,-0.328131,-0.879343,0.611038,-0.224039
166,-0.037669,0.94653,-0.320403,-0.6120800000000001,0.252247,-0.313783
167,-0.024141,0.956345,-0.291233,-0.277388,-0.379609,-0.026226
168,-0.029082,0.968226,-0.248371,0.067977,-0.694788,0.091816
169,-0.051944,0.977823,-0.202875,0.264408,-0.72764,0.064996
170,-0.094301,0.982813,-0.158684,0.290391,-0.660837,-0.005622
171,-0.148851,0.982383,-0.112964,0.0665,-0.290916,-0.003857
172,-0.194696,0.979043,-0.059683,-0.037375,0.486914,0.056173
173,-0.216661,0.976229,0.0053799999999999,-0.00421,0.538221,-0.077737
174,-0.2186409999999999,0.972411,0.081278,-0.249331,0.40297,-0.743754
175,-0.215152,0.967964,0.129411,-0.157621,0.227073,-1.324678
176,-0.195135,0.966595,0.166161,0.27712,-0.47546,-0.526879
177,-0.171007,0.964409,0.201652,0.203722,-0.710274,-0.313682
178,-0.158969,0.964679,0.2100389999999999,0.0440399999999999,-0.954028,0.327834
179,-0.149854,0.967897,0.201767,-0.172854,-0.3481309999999999,0.035263
180,-0.151919,0.966926,0.204857,-0.392713,0.14608,-0.3271409999999999
181,-0.16619,0.956416,0.240084,-0.2318349999999999,0.73969,0.098981
182,-0.178915,0.949854,0.2564329999999999,-0.017557,1.175771,-0.3492369999999999
183,-0.200521,0.950862,0.235889,0.426626,3.431432,-2.506686
184,-0.211761,0.952957,0.2168449999999999,0.335845,-0.82463,0.599439
185,-0.182492,0.95672,0.226659,0.461163,-1.02656,0.258632
186,-0.162859,0.964214,0.209188,0.4538439999999999,-0.857768,0.070491
187,-0.1605609999999999,0.973738,0.161384,0.4743729999999999,0.531434,-0.762366
188,-0.173283,0.97547,0.135733,0.941121,1.20994,-1.368247
189,-0.178923,0.975945,0.124538,0.625456,0.485771,-1.859737
190,-0.165689,0.983087,0.07797,-0.218863,0.065238,-1.12074
191,-0.14332,0.989653,0.00616,-0.631827,-0.113967,-0.094158
192,-0.116224,0.990834,-0.068798,-0.399858,-0.375203,0.517544
193,-0.098023,0.984519,-0.145286,0.0180509999999999,-0.5165770000000001,0.911903
194,-0.094695,0.974573,-0.20306,0.775267,-0.564646,1.0524870000000002
195,-0.080509,0.970209,-0.228488,0.7738229999999999,-0.4398899999999999,0.698901
196,-0.053959,0.968539,-0.242931,0.037754,0.848097,0.019909
197,-0.043362,0.965914,-0.255194,-0.527363,0.5611550000000001,0.1494049999999999
198,-0.043022,0.962939,-0.266254,-0.470101,0.1036349999999999,0.1750519999999999
199,-0.044394,0.966637,-0.252261,-0.4354949999999999,-0.0938799999999999,0.1695279999999999
200,-0.053321,0.975754,-0.2122619999999999,-0.205758,-0.193695,0.00163
201,-0.075026,0.984574,-0.158048,0.068922,-0.11406,-0.226687
202,-0.1078339999999999,0.988949,-0.101708,0.115098,-0.0522269999999999,-0.2213969999999999
203,-0.142431,0.988851,-0.043342,0.065725,0.05572,-0.037286
204,-0.171914,0.984961,0.016975,0.111763,0.316949,-0.304252
205,-0.190644,0.978167,0.082672,0.227235,0.258466,-0.450928
206,-0.197383,0.968964,0.148795,0.239146,0.029449,-0.365638
207,-0.194049,0.961318,0.195455,0.2052639999999999,-0.150374,-0.338751
208,-0.185969,0.957482,0.220531,-0.047048,-0.550744,-0.563746
209,-0.1847369999999999,0.955927,0.228181,-0.148133,-0.586923,-1.836336
210,-0.1869299999999999,0.956874,0.22235,0.297007,-0.588558,-0.045043
211,-0.194021,0.954537,0.226286,0.147756,-0.6846399999999999,0.946398
212,-0.206354,0.955504,0.210763,0.17132,-0.133513,0.609259
213,-0.234806,0.952938,0.191745,-0.051571,0.936817,0.2169
214,-0.255288,0.945806,0.200676,0.066079,1.63917,-0.8528969999999999
215,-0.241704,0.928447,0.282057,1.160008,3.196126,-1.979933
216,-0.253104,0.939971,0.228875,-0.064599,-0.087478,-0.201745
217,-0.2353239999999999,0.950387,0.203418,0.051394,-0.8155600000000001,-0.119647
218,-0.20895,0.958961,0.191638,0.183559,-0.892128,0.135724
219,-0.197772,0.967091,0.16004,0.14545,-0.4714859999999999,0.125788
220,-0.206596,0.96806,0.142022,-0.178978,0.39365,-0.364052
221,-0.216383,0.963501,0.157595,0.346479,0.536652,-0.365054
222,-0.220707,0.964238,0.146717,0.8724559999999999,0.204525,-0.834324
223,-0.2132099999999999,0.970498,0.112543,0.578979,0.557425,-1.5841459999999998
224,-0.183336,0.981067,0.06235,0.152376,0.5136390000000001,-1.4997120000000002
225,-0.148593,0.988814,-0.0126319999999999,-0.147519,0.385271,-0.282916
226,-0.121395,0.987392,-0.101558,0.2249409999999999,0.191625,0.927394
227,-0.102813,0.978486,-0.17885,0.35054,0.186156,1.344561
228,-0.080569,0.968788,-0.234421,0.295489,-0.316185,0.5090939999999999
229,-0.048991,0.957017,-0.285854,-0.181753,0.164855,-0.089649
230,-0.012856,0.94555,-0.325214,-0.241722,0.392737,0.054706
231,0.015534,0.938033,-0.3461909999999999,-0.742097,-0.145995,0.339996
232,0.040535,0.93662,-0.347986,-0.649468,-0.37444,0.125971
233,0.051412,0.942823,-0.329296,-0.552373,-0.4018989999999999,0.06747
234,0.041178,0.956617,-0.288413,-0.029276,-0.330335,-0.0626
235,0.004839,0.973062,-0.230477,0.294112,-0.364404,-0.142143
236,-0.05262,0.984814,-0.165422,0.282463,-0.165417,0.016008
237,-0.119719,0.987454,-0.102932,0.102568,0.136692,0.1608089999999999
238,-0.17269,0.983629,-0.051422,0.235129,0.107253,0.1998589999999999
239,-0.208265,0.97806,0.003906,0.291609,0.173323,0.124634
240,-0.2379489999999999,0.968902,0.067826,0.26073,0.233598,-0.068742
241,-0.2480679999999999,0.958926,0.137521,0.148001,0.138715,-0.264718
242,-0.2364639999999999,0.950251,0.202725,-0.007829,0.002096,-0.496121
243,-0.223786,0.946093,0.234129,0.432954,-0.395022,-1.320677
244,-0.223711,0.942775,0.2472219999999999,0.295396,-0.622447,0.094041
245,-0.2282429999999999,0.944415,0.236589,-0.035063,-0.412066,0.365233
246,-0.239942,0.945173,0.221507,-0.12604,0.577487,-0.261501
247,-0.255013,0.936934,0.238983,0.245522,1.82715,-1.104522
248,-0.260548,0.93606,0.23642,0.090122,2.405157,-1.54509
249,-0.26675,0.944273,0.192827,0.2852739999999999,0.302645,-0.402406
250,-0.260381,0.95305,0.154553,0.0093739999999999,-0.617265,0.728839
251,-0.2576199999999999,0.958519,0.121914,0.195944,-0.8207770000000001,0.358738
252,-0.252153,0.962945,0.095635,0.393388,-0.716882,0.337883
253,-0.247551,0.964486,0.092056,0.59832,-0.36915,0.182221
254,-0.246711,0.963149,0.1070869999999999,1.175834,0.811235,-0.702851
255,-0.235236,0.968349,0.083392,1.221152,0.660435,-1.286167
256,-0.204689,0.977569,0.04951,0.572258,0.51503,-2.382258
257,-0.159674,0.987109,-0.010511,-0.182748,0.4281279999999999,-0.182345
258,-0.11285,0.990017,-0.084392,-0.33176,0.12778,0.22784
259,-0.07792,0.984714,-0.155755,0.028191,-0.072131,1.223046
260,-0.053727,0.975986,-0.211085,0.35672,-0.250217,1.172007
261,-0.027486,0.965649,-0.258377,0.113699,-0.371548,0.372711
262,-0.006726,0.957417,-0.288617,-0.507572,0.095729,0.075711
263,0.002796,0.953494,-0.3013889999999999,-0.7492409999999999,0.086881,0.338132
264,0.004091,0.953199,-0.302303,-0.501588,-0.30789,0.401104
265,-0.005794,0.959757,-0.28076,-0.371922,-0.449442,0.404402
266,-0.023422,0.972395,-0.232146,-0.019242,-0.194609,0.023757
267,-0.050204,0.983859,-0.171735,0.228289,0.006055,-0.110324
268,-0.087349,0.989956,-0.111127,0.282296,0.348804,-0.285495
269,-0.130927,0.989619,-0.059189,0.378364,0.374532,-0.342452
270,-0.173226,0.984877,0.000212,0.599587,0.205614,-0.351439
271,-0.203678,0.976324,0.072776,0.504154,-0.0138,-0.248496
272,-0.217406,0.967015,0.132686,0.269499,-0.145299,-0.481808
273,-0.224653,0.963467,0.145777,0.075209,-0.289013,-1.064051
274,-0.227357,0.9632,0.143327,0.210527,-0.129613,0.3832239999999999
275,-0.2333309999999999,0.962564,0.137896,-0.158744,0.25675,0.49185
276,-0.247986,0.957439,0.1476569999999999,-0.548615,1.117756,0.015658
277,-0.248731,0.946353,0.206248,-0.548129,2.301404,-1.216853
278,-0.25719,0.94139,0.218234,-0.258679,2.632264,-2.543933
279,-0.267565,0.949167,0.165771,0.018785,-0.8475590000000001,0.738678
280,-0.265134,0.956048,0.125165,0.412229,-0.8611540000000001,0.57767
281,-0.262498,0.960566,0.091647,0.491716,-0.772654,0.324308
282,-0.265787,0.961196,0.0738279999999999,0.8332309999999999,-0.1156,-0.395972
283,-0.276761,0.955856,0.0986549999999999,0.812512,0.645966,-0.103904
284,-0.276891,0.952897,0.1237279999999999,0.6669970000000001,0.173965,-0.1487369999999999
285,-0.27557,0.952771,0.12759,0.527722,0.040744,-0.363323
286,-0.2767429999999999,0.953354,0.120499,-0.112143,-0.143677,-1.1731120000000002
287,-0.271958,0.957578,0.095252,-0.0883169999999999,0.227648,-0.975669
288,-0.258876,0.963874,0.062615,0.0675149999999999,0.367166,-0.529503
289,-0.247286,0.968927,0.004595,0.6967949999999999,0.212409,-0.409334
290,-0.233156,0.970216,-0.0656559999999999,0.8233959999999999,0.6237779999999999,-0.6281
291,-0.2175969999999999,0.965907,-0.140243,0.404578,0.937811,0.134201
292,-0.20655,0.954663,-0.214353,0.102104,0.907825,1.118543
293,-0.200393,0.938341,-0.281695,-0.459763,-0.113741,0.805422
294,-0.1874809999999999,0.924973,-0.330559,-0.755253,-0.69365,0.4100109999999999
295,-0.180317,0.913816,-0.3638949999999999,-0.7575649999999999,-0.701246,0.164646
296,-0.183412,0.906555,-0.380146,-0.183791,0.072448,0.288838
297,-0.180619,0.907237,-0.379858,-0.066482,-0.289835,0.3548489999999999
298,-0.176975,0.915777,-0.360591,0.0281259999999999,-0.375753,0.3180949999999999
299,-0.181281,0.929105,-0.322328,0.3393469999999999,-0.2034119999999999,0.263139
300,-0.193048,0.943912,-0.267871,0.3946469999999999,-0.051105,0.039462
301,-0.215071,0.95535,-0.202589,0.36807,0.048663,-0.0255
302,-0.240378,0.961923,-0.130051,0.424627,0.108634,-0.0735929999999999
303,-0.258226,0.964714,-0.051348,0.488878,0.033257,-0.035825
304,-0.263333,0.964319,0.027086,0.491559,-0.05987,-0.173708
305,-0.2585969999999999,0.961219,0.095782,0.360846,-0.14292,-0.384585
306,-0.242467,0.958997,0.146706,0.39855,-0.0082519999999999,-1.156609
307,-0.220759,0.962636,0.156799,0.332331,-0.443166,-1.280547
308,-0.2074639999999999,0.96769,0.14326,-0.171671,-1.229928,-0.401576
309,-0.2005809999999999,0.967986,0.150862,-0.3739429999999999,-1.263655,0.351442
310,-0.187682,0.964398,0.18628,-0.410859,-0.6489229999999999,0.502242
311,-0.186531,0.959308,0.2119489999999999,-0.712029,2.277691,0.150448
312,-0.2098719999999999,0.95066,0.2284429999999999,0.0544309999999999,1.414757,-1.0847209999999998
313,-0.189825,0.946377,0.26139,0.450368,2.658009,-1.800148
314,-0.1986359999999999,0.952639,0.230239,-0.117389,1.122709,-0.301772
315,-0.209668,0.959058,0.190354,0.0286829999999999,-0.5631689999999999,0.5977319999999999
316,-0.204667,0.964296,0.168024,0.37613,-0.564959,0.370611
317,-0.2011089999999999,0.967352,0.154189,0.631132,-0.283636,0.3285679999999999
318,-0.203067,0.967007,0.153784,0.724826,0.031574,-0.390341
319,-0.205851,0.958687,0.196297,0.623957,0.326561,-0.945458
320,-0.206565,0.956177,0.207471,0.3029699999999999,0.1217039999999999,-1.006711
321,-0.201712,0.959319,0.197502,-0.180643,-0.108718,-0.589866
322,-0.199211,0.959646,0.19845,-0.096626,-0.2948659999999999,-0.527536
323,-0.208483,0.960896,0.182213,0.087039,-0.2070969999999999,-0.463524
324,-0.2242239999999999,0.963754,0.144535,0.157619,0.388786,-0.685245
325,-0.236001,0.967865,0.086773,0.387857,0.942368,-0.758587
326,-0.236208,0.971456,0.021623,0.3306139999999999,0.500452,0.199172
327,-0.222596,0.974033,-0.041235,0.229829,0.29533,0.866431
328,-0.1958599999999999,0.975126,-0.103722,0.358992,0.158022,0.38015
329,-0.161394,0.977039,-0.139063,0.235979,0.169263,0.129313
330,-0.117564,0.979425,-0.164002,-0.044805,0.944205,-0.6381680000000001
331,-0.06991,0.979223,-0.190332,-0.340552,0.561121,-0.309836
332,-0.038783,0.977649,-0.206613,-0.4443859999999999,-0.006443,0.096613
333,-0.02485,0.977056,-0.211509,-0.208594,-0.211721,0.341178
334,-0.0239629999999999,0.977502,-0.209542,0.082312,-0.4858479999999999,0.3338239999999999
335,-0.030833,0.979533,-0.198888,0.005152,-0.6225069999999999,0.439931
336,-0.034753,0.983091,-0.179763,-0.099677,-0.6058479999999999,0.42958
337,-0.039292,0.986603,-0.1583099999999999,-0.2161239999999999,-0.594513,0.254929
338,-0.044435,0.990309,-0.131544,-0.236326,-0.641493,0.102186
339,-0.046006,0.993983,-0.099352,-0.219069,-0.580104,-0.121122
340,-0.047497,0.996705,-0.065676,-0.233036,-0.489457,-0.50131
341,-0.055027,0.997933,-0.03303,-0.212216,-0.03492,-0.637609
342,-0.066106,0.997801,0.0035409999999999,-0.058421,0.209215,-0.722871
343,-0.0643649999999999,0.997144,0.039356,0.139316,0.520754,-1.020909
344,-0.0557029999999999,0.997954,0.031212,0.020272,0.455843,-1.411186
345,-0.049154,0.998656,0.016064,0.015585,-0.044356,-0.460949
346,-0.040956,0.999149,-0.003407,-0.0726,-0.138203,-0.4311029999999999
347,-0.033046,0.99907,-0.027487,-0.55547,-0.434846,-1.229105
348,-0.024952,0.999044,-0.035744,-0.832058,-0.302709,-0.226646
349,-0.030786,0.999463,-0.01073,-0.520895,0.099094,2.235812
350,-0.063809,0.997913,0.009309,-0.678805,0.553311,0.905837
351,-0.094554,0.994457,0.045866,-0.283285,-0.055965,0.6534439999999999
352,-0.1078,0.991822,0.068231,0.0574,0.201049,0.831931
353,-0.119031,0.990127,0.073945,-0.106616,0.991944,0.524154
354,-0.1248079999999999,0.988095,0.0898809999999999,-0.039025,1.229327,0.1699
355,-0.13146,0.981602,0.138428,0.511984,0.463863,-0.140381
356,-0.136474,0.97026,0.19989,0.642822,0.266342,-0.09961
357,-0.147058,0.962267,0.2289139999999999,0.573298,0.049268,-0.0876789999999999
358,-0.145793,0.956553,0.25246,0.338512,0.083593,-0.042957
359,-0.127005,0.946982,0.295093,0.2022769999999999,0.0552,-0.022601
360,-0.1016659999999999,0.933276,0.344448,-0.005497,-0.017291,0.085773
361,-0.086794,0.916724,0.3899579999999999,-0.188887,-0.256034,-0.016225
362,-0.096468,0.8966729999999999,0.432035,-0.215712,-0.300665,-0.267759
363,-0.1138349999999999,0.8701709999999999,0.4794029999999999,-0.400401,-0.152535,-1.434069
364,-0.085813,0.8465879999999999,0.5252680000000001,-0.128893,0.241882,-1.558059
365,-0.046675,0.846551,0.5302399999999999,-0.058748,0.296637,-0.738812
366,-0.045504,0.840614,0.539702,0.14812,0.199272,-0.718978
367,-0.073636,0.829092,0.554225,0.290067,0.335779,-0.762447
368,-0.105024,0.8259280000000001,0.553891,0.395338,0.429977,-0.85545
369,-0.12649,0.8317549999999999,0.540524,0.380808,0.310289,-1.112057
370,-0.139703,0.8425790000000001,0.520121,0.4096609999999999,0.619442,-1.057383
371,-0.14676,0.8618979999999999,0.485361,0.516205,0.8728739999999999,-0.537806
372,-0.155428,0.894543,0.419068,0.4993609999999999,0.941196,-0.455567
373,-0.147981,0.931178,0.333158,0.365587,0.872655,-0.210691
374,-0.124767,0.962138,0.242303,0.277798,0.800375,0.215461
375,-0.094913,0.983142,0.1562359999999999,0.168048,1.051053,0.6955560000000001
376,-0.065221,0.99438,0.083324,-0.148845,1.082906,0.651402
377,-0.0431589999999999,0.998953,0.014824,-0.185555,0.7907810000000001,0.525505
378,-0.0231229999999999,0.998861,-0.041618,0.001151,0.316828,0.372521
379,-0.00619,0.996769,-0.080019,0.320888,0.1002919999999999,0.475146
380,0.0067379999999999,0.994264,-0.106701,0.670157,0.097381,0.596661
381,0.021387,0.991672,-0.126967,0.814368,0.097302,0.4624319999999999
382,0.062104,0.985781,-0.156108,0.475722,0.163023,0.531428
383,0.102619,0.977221,-0.185739,0.218304,0.13519,0.785212
384,0.120126,0.965037,-0.232949,0.055625,-0.094538,1.082604
385,0.12418,0.950461,-0.284947,-0.1220589999999999,-0.3719389999999999,1.088033
386,0.118743,0.938415,-0.324453,-0.338576,-0.551711,1.062887
387,0.102742,0.929614,-0.353913,-0.410649,-0.531604,1.115265
388,0.084631,0.924518,-0.371614,-0.528998,-0.4108,1.135713
389,0.069391,0.924197,-0.3755489999999999,-0.702569,-0.390582,0.948349
390,0.059661,0.928195,-0.36727,-0.791945,-0.431399,0.8660030000000001
391,0.058798,0.937442,-0.343128,-0.840887,-0.5370520000000001,0.759128
392,0.066073,0.953042,-0.295528,-1.03528,-0.326607,0.492931
393,0.069884,0.970293,-0.2316,-0.950789,0.706542,-0.810804
394,0.069316,0.975568,-0.208451,-0.277827,1.152865,-1.634887
395,0.076706,0.973274,-0.216436,0.002884,0.525216,-1.6633240000000002
396,0.089067,0.967408,-0.237019,0.5416850000000001,0.362242,-1.172282
397,0.114571,0.967615,-0.22491,1.167915,-0.118067,-0.132664
398,0.119627,0.973893,-0.192904,1.04387,0.275833,1.7349259999999995
399,0.102246,0.980774,-0.166182,-0.242719,0.5957939999999999,1.393157
400,0.086983,0.980296,-0.177324,-1.172859,0.36498,-1.745268
401,0.077458,0.969068,-0.234303,-0.7898149999999999,-0.523084,0.261631
402,0.065699,0.968358,-0.24074,-0.417551,-0.743627,0.942049
403,0.049234,0.970351,-0.236612,0.038321,-0.693785,1.060632
404,0.028783,0.974739,-0.221461,0.0865269999999999,-0.557976,1.123011
405,0.017676,0.981611,-0.190042,0.250192,0.227816,1.084222
406,-0.000567,0.984493,-0.175391,0.337908,0.944477,0.609824
407,-0.028131,0.983055,-0.181108,0.291528,0.553764,0.363268
408,-0.038743,0.985526,-0.1650049999999999,0.03183,-0.217627,-0.240162
409,-0.025497,0.995005,-0.096446,-0.282441,-0.2285559999999999,0.1884569999999999
410,-0.003671,0.99908,-0.042585,-0.356147,-0.225932,0.276411
411,0.016566,0.99976,-0.013878,-0.351496,-0.264927,0.200341
412,0.031897,0.999374,0.0148479999999999,-0.372748,-0.276199,0.195067
413,0.037051,0.998055,0.049996,-0.396991,-0.23893,0.246802
414,0.031776,0.995713,0.086789,-0.333259,0.0561059999999999,0.097339
415,0.0186509999999999,0.993194,0.114906,-0.009862,0.168396,-0.2060469999999999
416,0.005188,0.990751,0.135542,0.15834,0.211062,-0.313917
417,-0.002008,0.988689,0.149914,0.312037,0.236484,-0.327236
418,-0.00314,0.986177,0.16562,0.154843,0.151686,-0.418122
419,0.00248,0.983099,0.183014,-0.1069109999999999,0.170663,-0.279831
420,0.005883,0.982745,0.184828,-0.191124,0.146863,-0.26364
421,0.002315,0.985086,0.172004,-0.353252,0.2771369999999999,-0.4972149999999999
422,-0.008345,0.989352,0.145253,0.066466,0.680814,-0.460606
423,-0.02785,0.99493,0.09656,0.387271,0.904774,-0.40404
424,-0.044023,0.998782,0.022001,0.577471,0.999799,-0.299452
425,-0.049831,0.996803,-0.062361,0.198849,0.078347,0.06851
426,-0.053334,0.98774,-0.146676,0.046254,0.106849,0.402352
427,-0.059308,0.970578,-0.2333469999999999,-0.103794,0.279651,1.13003
428,-0.05932,0.949087,-0.309363,-0.220358,0.770319,1.18415
429,-0.0522169999999999,0.926343,-0.373034,-0.354719,0.922839,1.21564
430,-0.035367,0.902946,-0.428288,-0.405597,0.329201,0.698078
431,-0.0022559999999999,0.8854040000000001,-0.46481,0.199598,0.166415,0.256375
432,0.017962,0.878294,-0.477776,0.386137,0.204287,0.4477779999999999
433,0.036278,0.864352,-0.501571,0.358482,0.205915,0.652054
434,0.053895,0.841292,-0.537882,-0.216096,-0.09085,0.894739
435,0.0745919999999999,0.818211,-0.5700529999999999,-0.390372,-0.157124,0.8341069999999999
436,0.093277,0.799868,-0.592879,-0.497406,-0.165179,0.765379
437,0.082687,0.781384,-0.618544,-0.137771,-0.2317929999999999,0.8377209999999999
438,0.060541,0.767177,-0.638568,-0.2391449999999999,-0.5667840000000001,0.8586450000000001
439,0.044201,0.761037,-0.6471979999999999,-0.297207,-0.635365,0.864361
440,0.035122,0.763504,-0.644844,-0.445706,-0.663162,0.7717510000000001
441,0.030126,0.773509,-0.633065,-0.380056,-0.701427,0.7935270000000001
442,0.026104,0.7920159999999999,-0.609938,-0.31158,-0.6309899999999999,0.767302
443,0.02002,0.817974,-0.574902,-0.319214,-0.441082,0.644162
444,0.0044399999999999,0.8488600000000001,-0.528593,-0.230011,-0.227156,0.569395
445,-0.0143639999999999,0.880237,-0.474309,-0.176096,0.5040399999999999,0.2334949999999999
446,-0.016471,0.902689,-0.4299699999999999,-0.176308,0.7074189999999999,0.068046
447,0.009489,0.913803,-0.406037,-0.075804,0.757904,-0.283126
448,0.03283,0.925164,-0.378133,0.08158,0.366141,-0.1869
449,0.03668,0.937644,-0.345643,0.160158,0.209451,-0.177764
450,0.029773,0.950179,-0.310264,0.297498,0.0726639999999999,-0.186348
451,0.0287079999999999,0.963144,-0.267432,0.367486,-0.039865,0.23928
452,0.042461,0.971611,-0.232719,0.170628,-0.264046,0.424415
453,0.0582559999999999,0.974723,-0.215662,-0.074538,-0.130958,0.657053
454,0.061125,0.975767,-0.210076,-0.395933,-0.00044,0.603371
455,0.043035,0.97734,-0.207225,-0.3336389999999999,-0.194839,0.171824
456,0.014056,0.979283,-0.201978,-0.139682,-0.227635,0.074048
457,-0.017781,0.982163,-0.187155,-0.495189,2.035048,-0.3953489999999999
458,-0.033936,0.980287,-0.194614,-0.522552,4.795959,-1.4794889999999998
459,-0.008672,0.978855,-0.204345,-0.242747,-0.326984,1.223495
460,0.021711,0.977212,-0.211126,-0.196149,-0.699426,0.890921
461,0.039238,0.97032,-0.238598,-0.203896,-0.774687,0.990658
462,0.054961,0.96462,-0.25783,-0.407058,-0.4578149999999999,1.18915
463,0.055858,0.96561,-0.2539,-0.54948,0.035259,0.745812
464,0.03951,0.970619,-0.23733,-0.313741,0.131416,0.322245
465,0.008487,0.977748,-0.209583,-0.155979,0.111104,0.140308
466,-0.031589,0.988112,-0.150417,0.628437,0.602617,-1.5779459999999998
467,-0.029343,0.989487,-0.14157,0.08841,0.034866,-0.953661
468,-0.010784,0.987828,-0.155138,-0.271504,-0.348317,-0.07884
469,-0.009127,0.986647,-0.162577,-0.2069679999999999,-0.392943,-0.030919
470,-0.0093969999999999,0.983552,-0.180344,-0.124194,-0.445405,-0.1683339999999999
471,0.001219,0.979301,-0.202376,0.165484,-0.103248,-0.326036
472,0.034797,0.972397,-0.2307,0.233071,0.044586,-0.435987
473,0.076138,0.952574,-0.294612,0.116215,0.476137,-0.314351
474,0.093541,0.913743,-0.395366,0.249888,0.575194,0.366588
475,0.092415,0.86485,-0.493443,0.153907,0.6489590000000001,0.636738
476,0.075422,0.816474,-0.57243,0.54323,0.4444359999999999,1.873532
477,0.100247,0.786271,-0.609691,0.016697,0.292586,0.936504
478,0.147387,0.762343,-0.630162,-0.7193930000000001,0.3023079999999999,0.214528
479,0.159956,0.739082,-0.6543439999999999,-0.6466350000000001,0.180717,0.880815
480,0.161839,0.726589,-0.667737,-0.68018,-0.141872,0.930035
481,0.175749,0.732229,-0.657988,-0.798445,-0.211019,0.701033
482,0.192894,0.7582409999999999,-0.622782,-0.772088,-0.0511939999999999,0.656351
483,0.202984,0.8028609999999999,-0.5605399999999999,-0.4267229999999999,-0.084584,0.568581
484,0.1930319999999999,0.854951,-0.481446,-0.204491,-0.113725,0.278748
485,0.163457,0.902276,-0.398963,-0.266011,0.136283,0.080344
486,0.123093,0.937463,-0.325579,-0.197633,0.265113,0.104098
487,0.083527,0.958411,-0.272877,0.267547,0.169977,-0.199856
488,0.048424,0.970318,-0.236909,0.335426,0.101764,-0.399688
489,0.036289,0.972667,-0.229326,0.226605,-0.27,-1.040663
490,0.033558,0.975551,-0.217171,0.268703,-0.798076,-0.0837789999999999
491,0.0252669999999999,0.978214,-0.206028,0.17325,-0.6687810000000001,0.622685
492,0.0143639999999999,0.976848,-0.213426,0.030786,0.031041,0.908463
493,0.008311,0.975123,-0.221485,-0.297083,1.639959,-0.3717
494,0.004721,0.980292,-0.197468,-0.389075,0.819192,0.023228
495,0.0093969999999999,0.980996,-0.193774,-1.162015,3.835929,-1.965238
496,0.019478,0.975608,-0.218629,-0.173485,-0.8917149999999999,1.089738
497,0.020165,0.967754,-0.251069,0.139106,-0.996242,0.724518
498,0.020265,0.959525,-0.280875,0.195326,-0.896918,0.667625
499,0.01878,0.953418,-0.30105,0.2253,-0.118533,0.759379
500,0.006336,0.954779,-0.2972329999999999,0.185925,0.492334,0.480033
501,0.022397,0.962384,-0.2707489999999999,0.7164189999999999,0.266208,-1.131152
502,0.075976,0.963164,-0.25794,-0.3725159999999999,-0.047438,-0.48115
503,0.099823,0.95808,-0.268527,-0.396362,-0.042355,-0.470563
504,0.1185339999999999,0.942699,-0.311863,-0.519245,-0.272884,-0.141156
505,0.149244,0.918561,-0.366009,0.239504,0.294635,-0.03397
506,0.177384,0.886339,-0.427703,0.4988859999999999,0.567747,0.311034
507,0.186696,0.849635,-0.493212,0.8543959999999999,0.743657,1.207262
508,0.1935859999999999,0.814593,-0.546769,-0.05525,0.294736,1.327897
509,0.216371,0.786192,-0.57886,-0.838686,-0.143523,0.450976
510,0.2376849999999999,0.767253,-0.59567,-1.213256,0.1071059999999999,0.460233
511,0.246581,0.7558560000000001,-0.606527,-0.989669,0.515903,0.482396
512,0.267345,0.758584,-0.594198,-0.789181,0.236625,0.352041
513,0.287356,0.7779739999999999,-0.558728,-0.6562520000000001,0.058544,0.4418
514,0.294939,0.809279,-0.508007,-0.424227,-0.070845,0.359493
515,0.2781639999999999,0.844058,-0.4584569999999999,-0.2282219999999999,-0.060107,0.074103
516,0.239407,0.8761950000000001,-0.41828,-0.173702,0.055415,-0.011193
517,0.187393,0.905681,-0.380285,-0.122849,0.2344099999999999,0.206456
518,0.135918,0.931022,-0.3386949999999999,-0.013451,0.2249989999999999,0.1497
519,0.090563,0.951167,-0.295076,-0.00812,0.0075879999999999,-0.044371
520,0.060063,0.965825,-0.2521199999999999,0.014797,0.140666,0.027754
521,0.04247,0.975153,-0.2173989999999999,0.058711,0.106878,0.058219
522,0.038845,0.980765,-0.1912599999999999,0.280857,-0.162833,-0.356836
523,0.053421,0.983601,-0.172231,0.343628,-0.471257,-0.246409
524,0.063237,0.985007,-0.16047,0.024684,-0.8706729999999999,0.341652
525,0.057415,0.984252,-0.167156,-0.192363,-0.719863,0.389278
526,0.043684,0.985653,-0.163001,-0.429563,0.541355,-0.377527
527,0.022427,0.988836,-0.147272,-0.051114,0.6451979999999999,0.483683
528,-0.001307,0.985139,-0.17172,-0.088445,0.974517,0.2913949999999999
529,-0.014477,0.986842,-0.161002,0.025372,1.979818,-0.8219700000000001
530,-0.00021,0.988751,-0.149532,-0.007343,0.307331,0.132656
531,0.01419,0.986351,-0.1640059999999999,0.05742,-0.4177939999999999,0.222615
532,0.01629,0.983461,-0.180356,0.102713,-0.550187,0.065763
533,0.011944,0.976127,-0.2168469999999999,-0.000653,-0.359138,-0.003718
534,0.005959,0.972456,-0.2329889999999999,-0.130242,0.643175,-0.132657
535,0.018919,0.970452,-0.240532,0.408144,0.412391,-0.635627
536,0.060429,0.962798,-0.263359,0.322384,0.212296,-1.098274
537,0.099335,0.944091,-0.314348,-0.444946,0.4815979999999999,-0.062666
538,0.116092,0.912671,-0.391849,-0.223529,0.2495909999999999,0.959918
539,0.128912,0.8735809999999999,-0.469287,0.008738,0.199218,1.255618
540,0.134883,0.8398450000000001,-0.525795,0.299565,-0.068437,1.342537
541,0.1519569999999999,0.816411,-0.557114,-0.02482,-0.051748,0.581391
542,0.18237,0.799864,-0.571797,-0.555036,0.406007,0.151174
543,0.196164,0.787449,-0.584327,-1.025174,0.562786,0.7889470000000001
544,0.1975559999999999,0.7792319999999999,-0.59478,-0.894807,0.003452,0.871117
545,0.204319,0.783698,-0.586572,-0.6643720000000001,-0.113089,0.692025
546,0.207996,0.802992,-0.558511,-0.581897,-0.136351,0.658578
547,0.20543,0.8323309999999999,-0.514798,-0.455049,-0.048197,0.504361
548,0.189069,0.8653559999999999,-0.464117,-0.42291,0.008256,0.38677
549,0.1529049999999999,0.8971530000000001,-0.414401,-0.184918,0.358492,0.091677
550,0.102575,0.925418,-0.36479,0.031672,0.411008,-0.033266
551,0.051229,0.949736,-0.308817,0.199198,0.436083,-0.256308
552,0.0258779999999999,0.963475,-0.266528,0.55481,-0.035755,-0.675367
553,0.025936,0.971704,-0.234752,0.422871,-0.4339989999999999,-0.258808
554,0.02578,0.976173,-0.215434,0.083077,-1.116111,0.654734
555,0.0209099999999999,0.976492,-0.214511,0.046107,-1.201727,0.706851
556,0.015977,0.975806,-0.218029,-0.074037,-1.025717,0.617352
557,0.009436,0.976592,-0.214869,-0.309179,0.940675,0.030604
558,-0.0191919999999999,0.982522,-0.1851269999999999,-0.179508,2.189582,-0.413018
559,-0.036237,0.985796,-0.163955,-0.097201,-0.146639,0.284973
560,-0.020509,0.982791,-0.183553,-0.535766,0.710431,0.102834
561,-0.009001,0.985618,-0.168721,-0.622926,2.028359,-0.960674
562,0.013868,0.985472,-0.16924,-0.227903,-0.25923,0.629598
563,0.020336,0.981277,-0.191501,0.1903119999999999,-0.378875,0.369708
564,0.008783,0.976474,-0.215432,0.283973,-0.307651,0.2621699999999999
565,-0.007001,0.969997,-0.242995,0.230145,-0.126354,0.0239699999999999
566,-0.000543,0.968505,-0.248976,0.277521,0.421083,-0.097521
567,0.026061,0.965599,-0.258709,0.308976,-0.010017,-0.7556039999999999
568,0.063765,0.954835,-0.290199,-0.066191,0.286361,-0.881157
569,0.096507,0.932604,-0.347748,-0.4694779999999999,0.689207,0.315735
570,0.114616,0.8970239999999999,-0.426853,-0.285423,0.433634,0.754139
571,0.118315,0.857715,-0.50032,0.171175,0.17587,1.626709
572,0.134384,0.829297,-0.542403,0.1811829999999999,0.125995,1.396301
573,0.182441,0.809198,-0.558488,-0.355597,0.057379,0.113145
574,0.214939,0.791087,-0.572693,-0.468891,0.5391739999999999,0.333374
575,0.215628,0.773818,-0.595571,-0.780508,0.362946,0.802816
576,0.225167,0.768993,-0.5982850000000001,-0.740258,0.038868,0.718875
577,0.2316889999999999,0.781473,-0.5793229999999999,-0.586807,-0.141855,0.6556930000000001
578,0.2308889999999999,0.806713,-0.543966,-0.4665609999999999,-0.114406,0.667456
579,0.2211,0.841065,-0.493677,-0.411866,-0.026795,0.611963
580,0.197293,0.8749899999999999,-0.442111,-0.370694,-0.023839,0.50957
581,0.165435,0.905125,-0.391627,-0.247085,-0.002934,0.22018
582,0.128484,0.933264,-0.335413,-0.034963,0.206537,0.045725
583,0.0845139999999999,0.957313,-0.276406,0.1805,0.169594,-0.0308449999999999
584,0.043953,0.974473,-0.2201389999999999,0.355736,-0.169129,-0.500808
585,0.032094,0.979735,-0.197686,0.429454,-0.1943349999999999,-0.7388680000000001
586,0.0371019999999999,0.98261,-0.181909,0.563118,-0.383748,-0.949851
587,0.041364,0.986606,-0.157756,0.069094,-0.724247,0.4374649999999999
588,0.038499,0.985221,-0.166875,0.033675,-0.708457,0.998983
589,0.027672,0.980763,-0.193205,-0.259759,0.07629,0.907484
590,0.0163889999999999,0.978781,-0.204231,-0.517167,1.505274,0.320274
591,0.001088,0.985596,-0.1690809999999999,-0.2437639999999999,0.132354,-0.241059
592,-0.001566,0.991793,-0.127804,-0.642538,2.196165,-1.454899
593,0.0200879999999999,0.986599,-0.161889,-0.506004,0.702747,-0.088736
594,0.029566,0.984116,-0.175018,0.030844,-0.650483,0.621093
595,0.02387,0.981384,-0.19054,0.405359,-0.652496,0.4696079999999999
596,0.015805,0.975103,-0.221164,0.42435,-0.355642,0.294376
597,0.025546,0.972115,-0.23309,0.374783,0.835426,-0.251957
598,0.060874,0.972046,-0.22674,0.459908,0.2788239999999999,-0.901708
599,0.104295,0.961339,-0.254835,0.051101,0.167659,-1.395648
600,0.1288119999999999,0.940211,-0.315281,-0.637158,0.31635,0.029347
601,0.14452,0.906955,-0.39565,-0.2273599999999999,0.252316,0.697087
602,0.146957,0.8713069999999999,-0.468211,0.1290589999999999,0.123124,1.438303
603,0.136607,0.8404,-0.524462,0.2397659999999999,0.009164,1.538485
604,0.133211,0.818218,-0.559257,0.039564,0.166416,0.576439
605,0.152741,0.805678,-0.572318,-0.665437,0.510301,0.331519
606,0.16303,0.795467,-0.583651,-0.907995,0.4882859999999999,0.565234
607,0.161959,0.789305,-0.592252,-0.5699029999999999,-0.106291,0.826001
608,0.158894,0.79656,-0.5833010000000001,-0.4793439999999999,-0.127584,0.747761
609,0.152998,0.817066,-0.555867,-0.456404,-0.133015,0.6707960000000001
610,0.137956,0.8471350000000001,-0.513152,-0.377305,0.195071,0.383818
611,0.101881,0.8788799999999999,-0.46603,-0.188078,0.532238,0.050197
612,0.048001,0.90827,-0.415614,0.074664,0.227732,-0.181829
613,-0.007115,0.933432,-0.358673,0.2962079999999999,0.174982,-0.134461
614,-0.054372,0.953129,-0.297622,0.387334,0.105998,-0.174179
615,-0.080233,0.966348,-0.244386,0.441561,-0.1197599999999999,-0.242598
616,-0.088095,0.971832,-0.2185679999999999,0.367742,-0.49504,-0.480391
617,-0.093832,0.973609,-0.2080139999999999,0.193075,-0.963386,0.16976
618,-0.103129,0.9749,-0.197288,0.166301,-1.108949,0.658302
619,-0.110798,0.97294,-0.202733,0.08675,-1.1858,0.969381
620,-0.11069,0.971127,-0.211303,-0.388455,0.427096,0.565246
621,-0.119538,0.976785,-0.1777369999999999,-0.484359,2.239264,-0.541516
622,-0.139243,0.981924,-0.128157,0.117515,0.074396,-0.716326
623,-0.135968,0.978479,-0.155175,-0.040073,-0.605631,0.311089
624,-0.1181099999999999,0.981359,-0.151565,-0.070214,0.091044,0.26213
625,-0.12447,0.984619,-0.122555,0.25005,1.653595,-0.695163
626,-0.12558,0.982638,-0.1365289999999999,0.55481,-0.103381,-0.301612
627,-0.133331,0.978809,-0.155387,0.530105,-0.445804,-0.1203549999999999
628,-0.146491,0.973316,-0.176592,0.47663,0.273311,-0.5822430000000001
629,-0.1384109999999999,0.967064,-0.213587,0.204558,0.6314930000000001,-0.470724
630,-0.1335339999999999,0.956584,-0.259048,0.041295,0.1158339999999999,-0.472306
631,-0.138963,0.935837,-0.323866,-0.072921,0.141113,-0.1566789999999999
632,-0.15324,0.905473,-0.395761,-0.030293,0.29756,0.202723
633,-0.165674,0.869192,-0.4658859999999999,0.360406,0.301691,1.159169
634,-0.170729,0.839093,-0.516496,0.724699,0.514224,1.443254
635,-0.165825,0.830043,-0.532471,0.314598,0.6448109999999999,0.7651819999999999
636,-0.121057,0.822823,-0.555248,-0.049094,0.939689,-0.251301
637,-0.106292,0.804553,-0.584287,-0.172898,0.788617,-0.017429
638,-0.116336,0.788142,-0.604395,-0.596234,0.035497,0.900476
639,-0.119591,0.78105,-0.6129060000000001,-0.3675,-0.113188,0.8318690000000001
640,-0.123259,0.781452,-0.6116659999999999,-0.2098409999999999,-0.36182,0.824541
641,-0.125839,0.790129,-0.599879,-0.1272579999999999,-0.398955,0.774226
642,-0.129281,0.803647,-0.580888,-0.0372529999999999,-0.368253,0.680666
643,-0.1333359999999999,0.820091,-0.556477,-0.099299,-0.375205,0.4765819999999999
644,-0.141149,0.841033,-0.522238,-0.177073,-0.323898,0.301108
645,-0.154673,0.863293,-0.48041,-0.104254,0.298832,-0.6712319999999999
646,-0.179377,0.88492,-0.429805,0.667979,0.4677409999999999,-0.409031
647,-0.201442,0.899341,-0.388069,0.6900430000000001,0.45332,-0.450768
648,-0.2051349999999999,0.9005299999999999,-0.383348,0.55865,0.686247,-1.300001
649,-0.2028589999999999,0.8950459999999999,-0.397154,0.145242,0.004795,-0.232927
650,-0.203489,0.8897370000000001,-0.408597,0.117414,-0.197614,-0.02309
651,-0.213075,0.880812,-0.4228,0.099367,-0.339018,-1.060263
652,-0.234197,0.873748,-0.426271,-0.274608,0.8403930000000001,2.539994
653,-0.235917,0.870924,-0.431076,-0.579559,1.118914,1.2769780000000002
654,-0.242168,0.87959,-0.409473,-0.277424,0.319019,1.580523
655,-0.231442,0.880884,-0.412879,0.010006,0.950171,0.924903
656,-0.215455,0.8795120000000001,-0.4242979999999999,0.060487,0.794728,0.7128260000000001
657,-0.222307,0.8841559999999999,-0.4109,0.169618,0.604629,0.5381739999999999
658,-0.246723,0.8940440000000001,-0.373903,0.186878,0.715498,0.823961
659,-0.267286,0.901097,-0.341428,0.239912,0.639003,0.8020149999999999
660,-0.277388,0.908691,-0.3119719999999999,0.335845,0.2509,0.6313840000000001
661,-0.277014,0.920543,-0.275415,0.241919,0.1743819999999999,0.482462
662,-0.268357,0.935511,-0.2297679999999999,0.13617,0.162496,0.377747
663,-0.256031,0.949339,-0.182189,-0.002896,-0.036405,0.194991
664,-0.243881,0.960082,-0.136941,-0.069535,-0.210753,0.084298
665,-0.237112,0.966743,-0.095783,-0.086329,-0.287787,0.234394
666,-0.2345539999999999,0.970365,-0.057996,-0.008503,-0.324994,0.304746
667,-0.237903,0.970991,-0.02376,0.107196,-0.39073,0.081682
668,-0.248419,0.968581,0.011208,0.290869,-0.191451,-0.402413
669,-0.26384,0.963611,0.0427639999999999,0.410446,0.055615,-0.49885
670,-0.278369,0.95839,0.063137,0.352267,0.177581,-0.087841
671,-0.289434,0.953584,0.083018,0.309927,0.359634,-0.086451
672,-0.2952599999999999,0.949165,0.1090599999999999,0.296602,0.417641,-0.421941
673,-0.298853,0.946237,0.123732,0.148477,0.300727,-0.494155
674,-0.3074139999999999,0.94526,0.109398,0.208338,0.292396,-0.255836
675,-0.31901,0.943529,0.089286,0.2998909999999999,0.263685,-0.135429
676,-0.3330059999999999,0.940125,0.072527,0.454984,0.411285,-0.100832
677,-0.349139,0.935744,0.049736,0.7873859999999999,0.805254,-0.0756
678,-0.36757,0.929827,0.017397,1.024033,0.855131,-0.141817
679,-0.382193,0.923857,-0.0201289999999999,0.930243,0.511278,-0.371641
680,-0.38923,0.918613,-0.068106,0.787714,0.341976,-0.116891
681,-0.3926,0.910135,-0.13232,0.631019,0.221304,0.388759
682,-0.3829079999999999,0.902183,-0.19859,0.376194,0.704537,0.8610190000000001
683,-0.361684,0.896911,-0.254414,0.288335,0.805024,0.974049
684,-0.342224,0.891133,-0.297921,0.127883,0.621959,0.983849
685,-0.330475,0.8831709999999999,-0.332847,0.1852869999999999,0.3049389999999999,0.842735
686,-0.3209639999999999,0.875828,-0.3604159999999999,0.278178,0.223827,0.779926
687,-0.317075,0.8708879999999999,-0.375513,0.7101109999999999,0.140266,0.780939
688,-0.3194,0.871919,-0.3711239999999999,1.235187,0.138121,0.764037
689,-0.293102,0.881229,-0.370836,1.268322,0.158856,0.889589
690,-0.2454219999999999,0.890066,-0.384114,0.8415520000000001,0.336848,0.828541
691,-0.222869,0.895595,-0.385008,0.651442,0.359608,1.125257
692,-0.223279,0.89505,-0.3860369999999999,0.4193699999999999,0.20958,0.998373
693,-0.2299409999999999,0.8923260000000001,-0.388425,0.170768,-0.010292,0.858197
694,-0.2461429999999999,0.889007,-0.3861,-0.000714,-0.092925,0.8982610000000001
695,-0.269553,0.886316,-0.376533,-0.004037,-0.05932,0.974876
696,-0.293721,0.885575,-0.359829,-0.029094,-0.023804,1.006176
697,-0.313255,0.887376,-0.338271,-0.140603,-0.039506,1.002715
698,-0.325316,0.892126,-0.313484,-0.379259,-0.1721859999999999,0.870613
699,-0.330615,0.899774,-0.284767,-0.453504,-0.360955,0.582451
700,-0.330146,0.910201,-0.250058,-0.387475,-0.556197,0.274029
701,-0.32543,0.922133,-0.20918,-0.289408,-0.538573,0.139142
702,-0.31948,0.932999,-0.165634,-0.165765,-0.472077,-0.102479
703,-0.316852,0.941004,-0.118768,0.193545,0.499075,-0.993842
704,-0.31589,0.942776,-0.106653,0.94382,1.869663,-3.266455
705,-0.297158,0.947336,-0.119335,2.175775,0.621192,-0.821019
706,-0.264992,0.960747,-0.082063,1.051018,0.095757,1.383515
707,-0.265661,0.961279,-0.073183,-0.132106,0.675547,1.285066
708,-0.285101,0.953066,-0.101839,-0.632212,0.7292310000000001,0.795427
709,-0.299526,0.940164,-0.162375,-1.567188,0.215079,-2.416803
710,-0.313285,0.937953,-0.148614,-0.069344,-0.866908,1.256326
711,-0.328494,0.93227,-0.151509,0.4397,-0.911594,1.085042
712,-0.34429,0.928169,-0.141266,0.499884,-0.6254649999999999,0.979202
713,-0.348997,0.932058,-0.0972529999999999,0.550367,0.7414649999999999,1.25129
714,-0.365635,0.928442,-0.065535,0.663563,1.172464,1.009459
715,-0.390243,0.919279,-0.051248,0.608322,0.545626,0.407815
716,-0.398202,0.917135,-0.016936,0.518533,0.0263,-0.260194
717,-0.3809619999999999,0.922049,0.068426,0.313167,-0.229132,-0.254461
718,-0.346953,0.923686,0.162523,0.012374,-0.091884,-0.045411
719,-0.32151,0.92404,0.2068019999999999,-0.115166,-0.118696,-0.0936429999999999
720,-0.3059119999999999,0.92331,0.2321679999999999,-0.147122,-0.173646,-0.125754
721,-0.299,0.917384,0.262663,-0.173214,-0.155924,-0.16136
722,-0.301564,0.906936,0.294128,0.05927,-0.090011,-0.06787
723,-0.312171,0.89528,0.317816,0.132316,-0.020219,-0.074408
724,-0.322986,0.8837700000000001,0.338548,0.235264,0.13747,-0.18033
725,-0.325876,0.8693870000000001,0.371422,0.4349159999999999,0.278699,-0.616646
726,-0.314534,0.850193,0.422166,0.631077,0.374707,-0.939729
727,-0.3013369999999999,0.839658,0.451833,0.426856,0.200869,-0.5397390000000001
728,-0.298061,0.8377889999999999,0.457441,0.310772,0.16952,-0.408613
729,-0.301456,0.837527,0.455691,0.076419,0.309613,-0.3386409999999999
730,-0.308471,0.838,0.450093,0.129378,0.272352,-0.400304
731,-0.314214,0.841517,0.439432,0.3154349999999999,0.3452969999999999,-0.359277
732,-0.317164,0.845965,0.428639,0.5003770000000001,0.492322,-0.370274
733,-0.318231,0.853613,0.412379,0.792046,0.8638399999999999,-0.4733989999999999
734,-0.314695,0.8689879999999999,0.381849,0.884916,1.070007,-0.5465220000000001
735,-0.304519,0.8894340000000001,0.340819,0.561416,0.748017,-0.738448
736,-0.284398,0.914042,0.289186,0.217382,0.278661,-0.571458
737,-0.264963,0.937304,0.226363,0.149179,0.201749,0.022539
738,-0.253388,0.954445,0.157529,0.037415,0.3674699999999999,0.53554
739,-0.248353,0.964357,0.091228,-0.021743,0.470839,0.810582
740,-0.25049,0.967777,0.0254819999999999,-0.191115,0.333126,0.793244
741,-0.253904,0.966003,-0.048567,-0.084062,0.053894,0.42375
742,-0.2432489999999999,0.964525,-0.102522,0.26069,0.057173,0.0032939999999999
743,-0.2261929999999999,0.96935,-0.095844,0.750683,0.19102,-0.07832
744,-0.19727,0.973456,-0.116007,0.219136,0.190531,0.221507
745,-0.170414,0.972466,-0.158929,-0.010342,0.03263,0.395944
746,-0.150679,0.968901,-0.1962559999999999,-0.119874,-0.20262,0.592954
747,-0.136371,0.96445,-0.226338,-0.125608,-0.348087,0.474477
748,-0.130422,0.959525,-0.249584,-0.070018,-0.418189,0.428203
749,-0.1290329999999999,0.955398,-0.2656239999999999,-0.093485,-0.5530390000000001,0.3663619999999999
750,-0.128914,0.954118,-0.270244,-0.109871,-0.636857,0.350017
751,-0.130405,0.956607,-0.260556,-0.0996669999999999,-0.6282369999999999,0.30412
752,-0.135171,0.961789,-0.238078,-0.03942,-0.683774,0.230159
753,-0.145317,0.967908,-0.205007,-0.004097,-0.6966979999999999,0.143544
754,-0.1628349999999999,0.973223,-0.162205,-0.037818,-0.600665,0.050449
755,-0.1861799999999999,0.976754,-0.106192,-3.9e-05,-0.294809,-0.047677
756,-0.203026,0.978333,-0.040422,0.218376,-0.169891,-0.105468
757,-0.200855,0.979518,0.013704,0.471851,-0.03857,-0.341921
758,-0.191546,0.980778,0.037044,0.498431,0.110089,-0.60606
759,-0.1937859999999999,0.979544,0.054102,0.354706,0.082025,-0.550715
760,-0.196053,0.977475,0.078055,0.345482,0.1461059999999999,-0.440528
761,-0.196523,0.974792,0.105575,0.250662,0.068879,-0.452377
762,-0.194352,0.971674,0.134401,0.06537,0.081259,-0.545611
763,-0.188806,0.969067,0.158895,-0.126471,0.189197,-0.718298
764,-0.183981,0.966231,0.180375,-0.260721,0.959764,0.237273
765,-0.186369,0.961086,0.203878,-0.265353,0.859608,0.567866
766,-0.188675,0.959467,0.209312,-0.089905,-0.045374,0.304848
767,-0.192192,0.959368,0.2065449999999999,-0.034584,-0.239352,-0.17177
768,-0.194822,0.959037,0.205616,-0.082613,0.102959,-0.547779
769,-0.1963869999999999,0.959665,0.20115,0.298407,1.329794,-0.379754
770,-0.196553,0.962238,0.1882859999999999,0.2894489999999999,1.123898,-0.146477
771,-0.190799,0.964195,0.184144,0.023273,0.581596,0.35498
772,-0.187517,0.965082,0.182868,0.0721909999999999,-0.143289,0.241723
773,-0.190269,0.964776,0.181632,0.088798,-0.355569,0.4386529999999999
774,-0.196175,0.962663,0.186497,0.112831,-0.3134929999999999,0.4958609999999999
775,-0.207191,0.957689,0.199722,0.1565619999999999,0.0582559999999999,0.024353
776,-0.217227,0.950782,0.220936,0.200472,0.206369,-1.094853
777,-0.212457,0.934395,0.285926,0.305566,0.122307,-1.521201
778,-0.2104849999999999,0.928288,0.306534,0.194448,-0.082036,-0.689606
779,-0.2260739999999999,0.929702,0.2907409999999999,0.20372,-0.0063159999999999,-0.566941
780,-0.2322789999999999,0.927197,0.293834,0.205775,-0.0621,-0.499904
781,-0.234615,0.925799,0.296373,0.241695,-0.288501,-0.52556
782,-0.240701,0.92704,0.287482,0.200616,-0.342903,-0.5919260000000001
783,-0.246864,0.93048,0.270651,-0.00863,-0.296889,-0.464132
784,-0.248454,0.934344,0.255456,0.207042,-0.134478,-0.244332
785,-0.250103,0.940294,0.230829,0.40385,-0.085298,-0.368112
786,-0.2510969999999999,0.947561,0.197649,0.4967939999999999,-0.024435,-0.450716
787,-0.250178,0.956157,0.152189,0.6470279999999999,0.222966,-0.8335549999999999
788,-0.239684,0.966432,0.092456,0.61357,0.480879,-1.024845
789,-0.218326,0.975493,0.027093,0.393741,0.678483,-0.701318
790,-0.194304,0.979623,-0.050722,0.168852,0.8828950000000001,0.167284
791,-0.175342,0.976498,-0.125283,0.136569,0.7214079999999999,0.520303
792,-0.153192,0.970796,-0.184599,0.163491,0.363691,0.969068
793,-0.1202319999999999,0.967497,-0.22245,0.1698839999999999,0.219759,-0.026787
794,-0.074587,0.965999,-0.247536,0.1228359999999999,0.4499859999999999,-0.183891
795,-0.040315,0.962167,-0.269444,-0.330398,0.388098,0.16721
796,-0.020281,0.95797,-0.286138,-0.74893,-0.133324,0.2838489999999999
797,-0.0041909999999999,0.957985,-0.286774,-0.591634,-0.506554,0.218903
798,0.00119,0.963716,-0.266911,-0.467102,-0.633196,0.257969
799,-0.0060149999999999,0.972946,-0.2309369999999999,-0.187573,-0.595626,0.307826
800,-0.025606,0.982563,-0.184133,-0.158796,-0.54166,0.298254
801,-0.053694,0.989797,-0.131947,-0.2124489999999999,-0.354833,0.186085
802,-0.091427,0.992957,-0.07528,-0.1784089999999999,-0.136298,-0.010368
803,-0.132071,0.991124,-0.0148139999999999,-0.024286,0.266948,-0.067203
804,-0.1610079999999999,0.985744,0.048723,0.29051,0.252446,-0.063463
805,-0.178352,0.97784,0.109569,0.555901,0.161213,-0.881725
806,-0.187146,0.970455,0.152249,0.6092350000000001,0.019597,-1.201367
807,-0.182267,0.965032,0.188353,0.697038,-0.2201739999999999,-1.113555
808,-0.1693859999999999,0.960835,0.219293,0.769927,-0.7409399999999999,-0.614953
809,-0.165199,0.959893,0.2264949999999999,0.528053,-0.895958,-0.671166
810,-0.1585619999999999,0.962893,0.218358,-0.108345,0.122816,0.150691
811,-0.162695,0.962701,0.216153,-0.304544,0.969336,0.304553
812,-0.166804,0.95988,0.22537,-0.304143,0.852086,-0.242613
813,-0.161167,0.954413,0.251208,0.045673,1.539621,-1.15761
814,-0.166599,0.959466,0.227276,0.351948,1.923606,-1.53233
815,-0.164951,0.969161,0.183043,-0.195202,-0.489989,0.626603
816,-0.147525,0.976518,0.156959,0.0027949999999999,-0.7138680000000001,0.398751
817,-0.140208,0.981271,0.132041,0.052013,-0.656305,0.3794639999999999
818,-0.148256,0.98164,0.1199539999999999,-0.003081,-0.379346,0.368877
819,-0.158209,0.97811,0.135118,0.076529,0.037866,0.078704
820,-0.164829,0.974636,0.151333,1.312748,0.8370549999999999,-1.81303
821,-0.160973,0.978443,0.129317,0.190926,0.312282,-1.7435439999999998
822,-0.143899,0.98464,0.098811,-0.278099,0.175623,-0.792094
823,-0.12934,0.990811,0.039403,-0.151116,-0.092068,-0.4931689999999999
824,-0.108726,0.993849,-0.020763,0.253242,0.105699,-0.215214
825,-0.089379,0.991715,-0.092206,0.518502,0.177597,0.1948369999999999
826,-0.067414,0.986178,-0.151321,0.852326,0.560499,0.7447050000000001
827,-0.040286,0.979578,-0.196959,0.611957,0.5172939999999999,0.887389
828,-0.009944,0.972591,-0.232289,-0.193441,0.099126,0.752416
829,0.02302,0.966713,-0.254806,-0.914835,-0.093925,0.129074
830,0.041411,0.962661,-0.267504,-1.16725,-0.019592,-0.036237
831,0.053486,0.964398,-0.258972,-0.494893,-0.19714,0.113357
832,0.05413,0.972879,-0.2248679999999999,-0.1582869999999999,-0.243891,0.048293
833,0.036245,0.984528,-0.1714089999999999,-0.038579,-0.218689,0.048118
834,0.000553,0.993722,-0.111826,0.089229,-0.078683,0.052286
835,-0.044563,0.996814,-0.066068,0.145347,0.176953,-0.170428
836,-0.088227,0.995722,-0.027225,0.251969,0.187383,-0.231534
837,-0.127867,0.991549,0.021659,0.38365,-0.043871,-0.270881
838,-0.161646,0.983402,0.082324,0.333063,-0.065662,-0.320651
839,-0.178048,0.972573,0.149623,0.360025,0.1514049999999999,-0.304728
840,-0.179416,0.96337,0.199284,0.3528929999999999,0.283701,-0.598424
841,-0.179515,0.959849,0.215522,0.341746,0.003499,-1.06417
842,-0.1817619999999999,0.96036,0.211321,0.41838,-0.578829,-0.989672
843,-0.183263,0.959105,0.215677,0.299627,-0.8988940000000001,0.076193
844,-0.182142,0.960431,0.210671,0.094297,-0.920773,0.438774
845,-0.18414,0.961752,0.202757,-0.1920349999999999,0.203256,0.3019429999999999
846,-0.19383,0.956501,0.217993,-0.2539389999999999,0.988232,-0.187384
847,-0.189762,0.952355,0.2387369999999999,0.5048560000000001,0.4206,-1.181349
848,-0.180652,0.955001,0.235209,-0.083798,0.382264,0.189978
849,-0.181297,0.955349,0.2332929999999999,-0.137124,3.126576,-1.838518
850,-0.186527,0.958593,0.215158,-0.2190369999999999,-0.187017,0.479117
851,-0.18136,0.96413,0.193769,0.216653,-0.702412,0.136248
852,-0.165762,0.967031,0.1932849999999999,0.2622739999999999,-0.603857,0.210722
853,-0.167316,0.966205,0.1960589999999999,0.166889,-0.066272,0.026933
854,-0.190253,0.966119,0.174367,0.7032689999999999,0.393028,-1.338383
855,-0.1958089999999999,0.96883,0.151698,0.8584379999999999,0.273388,-1.39413
856,-0.18207,0.97645,0.115678,0.3911159999999999,0.258841,-1.797563
857,-0.157975,0.985752,0.057645,-0.227065,0.043651,-0.496885
858,-0.130825,0.991255,-0.016916,-0.285008,0.055697,-0.277365
859,-0.1022049999999999,0.990277,-0.094302,0.128374,0.080661,0.071887
860,-0.079875,0.982924,-0.16574,0.640422,0.0503399999999999,1.217025
861,-0.049851,0.975309,-0.215119,0.8237620000000001,0.109423,1.124695
862,-0.01927,0.968492,-0.248279,-0.0284589999999999,0.330581,-0.067487
863,-0.00589,0.960119,-0.279512,-0.690354,0.387873,-0.1458269999999999
864,-0.007034,0.953271,-0.302017,-0.774582,0.118964,0.474854
865,-0.012338,0.951949,-0.305992,-0.570929,-0.278594,0.433631
866,-0.02608,0.958231,-0.284786,-0.379346,-0.562174,0.405895
867,-0.048033,0.968989,-0.2423699999999999,-0.2363449999999999,-0.4527229999999999,0.2591239999999999
868,-0.0830149999999999,0.977983,-0.191432,-0.034066,-0.1667799999999999,-0.005818
869,-0.124813,0.98231,-0.139561,0.232601,-0.004832,-0.029293
870,-0.158269,0.983972,-0.082079,0.353123,0.013556,0.096132
871,-0.182134,0.983216,-0.0099849999999999,0.381612,0.368179,-0.124796
872,-0.199683,0.976721,0.078282,0.296531,0.291163,-0.6450239999999999
873,-0.204566,0.965982,0.158161,0.337455,0.194449,-0.769016
874,-0.201291,0.957682,0.205693,0.47273,-0.032297,-0.951085
875,-0.198868,0.953721,0.2254989999999999,0.610657,-0.4477239999999999,-0.913319
876,-0.195955,0.954648,0.224121,0.3764969999999999,-0.625684,-0.533554
877,-0.1850359999999999,0.960187,0.209248,-0.17112,-0.259015,0.4813189999999999
878,-0.1924799999999999,0.960269,0.20203,-0.271281,0.151425,0.110119
879,-0.1966099999999999,0.955291,0.22078,-0.479995,0.599961,-0.22432
880,-0.191894,0.951176,0.241706,0.434386,1.738521,-1.612235
881,-0.194793,0.958912,0.2062159999999999,0.8860620000000001,2.682476,-2.8276
882,-0.187435,0.968901,0.161497,-0.297321,-0.099516,0.4518
883,-0.172079,0.975084,0.1399359999999999,0.076651,-0.536791,0.4312609999999999
884,-0.171573,0.978902,0.110893,0.209461,-0.541112,0.385414
885,-0.186451,0.978208,0.091267,0.269154,-0.252179,0.288829
886,-0.195739,0.972504,0.126114,0.799941,0.742095,-0.753677
887,-0.193376,0.97357,0.1214529999999999,0.60956,0.236315,-1.044152
888,-0.181339,0.978851,0.094607,0.282993,0.0570679999999999,-1.478045
889,-0.158645,0.986328,0.044425,0.256805,0.363846,-1.097419
890,-0.1327549999999999,0.990896,-0.022052,0.335239,0.523691,-0.318783
891,-0.1126349999999999,0.988619,-0.099656,0.361125,0.384321,0.213272
892,-0.1001929999999999,0.979937,-0.172259,0.575168,0.118345,1.06615
893,-0.0876,0.970615,-0.2240989999999999,0.544189,-0.086582,1.340615
894,-0.063911,0.962601,-0.263255,-0.195397,-0.2314,0.596431
895,-0.044478,0.953414,-0.298349,-0.697817,0.057267,0.059244
896,-0.029192,0.94709,-0.319621,-0.67578,0.368462,0.398357
897,-0.011062,0.945937,-0.324146,-0.624283,-0.129348,0.293842
898,0.003584,0.95076,-0.3098909999999999,-0.4725319999999999,-0.35469,0.218781
899,0.005614,0.960917,-0.276759,-0.1190789999999999,-0.205882,0.246104
900,-0.009462,0.973665,-0.227762,-0.031615,-0.115587,0.187662
901,-0.043628,0.984149,-0.1718579999999999,-0.0314,0.099118,0.025923
902,-0.086809,0.989351,-0.116772,0.021211,0.317519,-0.221179
903,-0.1241029999999999,0.990577,-0.0578049999999999,0.161762,0.148385,-0.363032
904,-0.154026,0.988004,0.010472,0.293964,0.023211,-0.283512
905,-0.175125,0.98154,0.076773,0.332504,-0.0948519999999999,-0.351202
906,-0.183319,0.974322,0.13067,0.3242489999999999,0.100934,-0.5382020000000001
907,-0.175715,0.969497,0.1708309999999999,0.2988989999999999,0.182115,-0.755685
908,-0.160596,0.969564,0.1847619999999999,0.301557,-0.292745,-1.222894
909,-0.152197,0.967749,0.200702,0.244101,-0.888891,-0.230868
910,-0.152151,0.969011,0.194552,-0.134272,-1.181673,0.507459
911,-0.152641,0.970617,0.185972,-0.226845,-0.933889,0.145143
912,-0.159571,0.964474,0.210495,-0.395621,0.819385,-0.562485
913,-0.173198,0.959036,0.224131,0.181422,1.866358,-0.8179109999999999
914,-0.176806,0.961045,0.212404,0.629382,1.187835,-0.60016
915,-0.174896,0.964631,0.197184,0.5227350000000001,2.320922,-1.426798
916,-0.1655299999999999,0.972491,0.163841,-0.165037,0.2605719999999999,0.476967
917,-0.1544869999999999,0.978891,0.1337539999999999,0.041816,-0.635568,0.29575
918,-0.147644,0.981749,0.119806,0.114715,-0.621367,0.3765159999999999
919,-0.159111,0.980251,0.117364,0.087471,-0.040096,0.261481
920,-0.175444,0.975736,0.130922,0.104949,0.130816,0.042967
921,-0.1839589999999999,0.96926,0.163326,0.86029,0.533974,-1.467358
922,-0.178358,0.974022,0.13947,-0.10164,0.073646,-1.150502
923,-0.163314,0.978351,0.127046,-0.246979,-0.194019,-0.491624
924,-0.154882,0.983952,0.088505,-0.184977,-0.2837719999999999,-0.469059
925,-0.1438549999999999,0.988876,0.0376149999999999,0.3614449999999999,0.0562909999999999,-0.733218
926,-0.117492,0.992715,-0.0263899999999999,0.574859,0.461371,-0.703712
927,-0.085698,0.991322,-0.099614,0.7104239999999999,0.7606930000000001,-0.220942
928,-0.057313,0.983581,-0.1710839999999999,0.370424,0.318176,0.755282
929,-0.025075,0.972985,-0.229478,0.134999,0.151329,0.6041880000000001
930,0.00155,0.962008,-0.272996,-0.0425959999999999,0.023237,0.271516
931,0.018323,0.952738,-0.303222,-0.5448270000000001,0.568533,0.075561
932,0.037959,0.946675,-0.31993,-0.599772,0.2898969999999999,-0.076967
933,0.0499519999999999,0.944413,-0.324927,-0.622035,0.006285,-0.031625
934,0.053988,0.947524,-0.315078,-0.446704,-0.4695569999999999,0.080245
935,0.048053,0.956519,-0.287667,-0.191455,-0.5293640000000001,0.158395
936,0.030331,0.967814,-0.249811,-0.023754,-0.405466,0.121545
937,-0.002162,0.976653,-0.2147869999999999,0.002101,0.238878,0.065937
938,-0.045611,0.982785,-0.179,-0.075986,-0.080335,0.032729
939,-0.08788,0.986786,-0.136079,0.007955,-0.315323,0.076982
940,-0.11949,0.989124,-0.085691,0.182265,-0.435672,0.172071
941,-0.14486,0.988952,-0.031237,0.185205,-0.45201,0.096072
942,-0.1682,0.985385,0.0266509999999999,0.208056,-0.073291,-0.100077
943,-0.185473,0.978272,0.092561,0.289995,0.468551,-0.016816
944,-0.1902599999999999,0.969657,0.1534579999999999,0.511702,0.987908,-0.529465
945,-0.184332,0.970213,0.157137,0.836935,0.226351,-2.0161
946,-0.170668,0.970404,0.170797,0.302291,-0.8353790000000001,-0.631322
947,-0.157278,0.971345,0.178147,-0.1045329999999999,-1.263367,0.5829310000000001
948,-0.1527869999999999,0.973603,0.169521,-0.148208,-1.233124,0.266927
949,-0.148202,0.970186,0.191724,-0.4637979999999999,-1.300661,-0.925946
950,-0.120716,0.961381,0.247298,0.006229,-0.259736,0.12639
951,-0.141501,0.960846,0.2381889999999999,0.289267,2.82788,-0.151626
952,-0.165263,0.956719,0.239496,0.612452,0.652686,-0.711908
953,-0.164569,0.955736,0.24386,0.234012,1.329115,-0.285989
954,-0.170088,0.958316,0.2295239999999999,0.328078,2.201474,-2.367357
955,-0.170182,0.967731,0.185784,-0.218932,-0.616276,0.8825149999999999
956,-0.169243,0.973086,0.1563369999999999,0.02137,-0.803363,0.267583
957,-0.170366,0.976353,0.133011,0.122194,-0.738957,0.192246
958,-0.179108,0.975047,0.131096,0.2155,-0.394435,0.078239
959,-0.186842,0.969126,0.160832,0.985121,0.580908,-1.222676
960,-0.187776,0.970888,0.148662,0.71959,0.35562,-0.926341
961,-0.181949,0.97598,0.1197569999999999,0.187442,0.134234,-0.8449459999999999
962,-0.172335,0.982261,0.073818,-0.0266089999999999,0.174493,-0.956615
963,-0.156369,0.987691,0.000574,0.029904,0.160334,-0.7493989999999999
964,-0.1370579999999999,0.987667,-0.075596,0.296421,0.37305,0.004658
965,-0.121293,0.982274,-0.142874,0.343049,0.309611,0.466788
966,-0.108648,0.974258,-0.197498,0.7359220000000001,-0.035019,0.939686
967,-0.089769,0.966831,-0.2391,0.359682,-0.160969,0.294672
968,-0.073866,0.960214,-0.2693,-0.324388,0.2727719999999999,0.091306
969,-0.061886,0.954818,-0.290659,-0.690891,0.346604,0.224833
970,-0.047414,0.95309,-0.298933,-0.4214739999999999,-0.1139329999999999,0.183058
971,-0.028096,0.958104,-0.285021,-0.072596,-0.325841,0.043291
972,-0.0167849999999999,0.968492,-0.2484559999999999,0.15773,-0.393434,0.076414
973,-0.022353,0.980096,-0.197234,0.071029,-0.090905,0.1196119999999999
974,-0.047623,0.98902,-0.1398569999999999,-0.001389,0.002374,0.06222
975,-0.083004,0.993527,-0.077466,-0.0529059999999999,0.041461,-0.006137
976,-0.121446,0.992557,-0.008208,-0.0647409999999999,0.18977,-0.097612
977,-0.161683,0.984714,0.064661,0.134858,0.2862969999999999,-0.242731
978,-0.19315,0.971966,0.134012,0.282902,0.2737159999999999,-0.4323979999999999
979,-0.208482,0.958079,0.1964769999999999,0.549791,0.148733,-0.747548
980,-0.208143,0.950795,0.229451,0.524748,-0.315343,-0.98293
981,-0.2001079999999999,0.947992,0.247484,0.4456989999999999,-0.609232,-1.002321
982,-0.194216,0.942318,0.272575,0.329729,-1.0677,0.001
983,-0.193097,0.93968,0.282305,0.207867,-1.192564,0.147123
984,-0.196044,0.935278,0.29462,0.123412,-1.189887,0.174206
985,-0.202276,0.924899,0.321909,-0.102549,1.196408,0.211035
986,-0.208747,0.913442,0.3493239999999999,-0.23893,2.932979,-1.032171
987,-0.179489,0.907737,0.379176,0.087128,0.4168479999999999,-0.739283
988,-0.187489,0.910562,0.368378,0.333485,-0.4600149999999999,-0.044281
989,-0.213761,0.908632,0.3587079999999999,-0.095763,1.625487,-0.3235369999999999
990,-0.216319,0.898366,0.382259,-0.029469,0.993037,-1.095043
991,-0.222605,0.8908219999999999,0.3960579999999999,0.6377510000000001,0.146593,-0.549195
992,-0.249027,0.882907,0.398043,0.8454010000000001,0.057721,-0.079623
993,-0.257739,0.8716870000000001,0.416785,1.204257,0.0536059999999999,-0.185294
994,-0.2555159999999999,0.8547629999999999,0.451738,1.457329,0.378559,-0.863298
995,-0.251332,0.8526030000000001,0.458124,0.183232,0.078534,-0.980722
996,-0.2398989999999999,0.8633200000000001,0.4439619999999999,-0.216003,0.1547609999999999,-0.8673629999999999
997,-0.247327,0.874986,0.41618,-0.657153,0.185469,-1.319317
998,-0.248745,0.8955620000000001,0.36888,0.5170399999999999,0.5800850000000001,-0.7162930000000001
999,-0.2436179999999999,0.91832,0.311957,0.667492,0.44046,-0.374121
1000,-0.222491,0.94289,0.247862,0.739444,0.610317,0.313677
1001,-0.189841,0.965687,0.17717,0.701499,1.461864,0.399368
1002,-0.149477,0.983282,0.103898,0.611406,1.7270450000000002,0.318603
1003,-0.110519,0.992514,0.051808,0.41275,1.522913,0.168743
1004,-0.08012,0.99642,0.0266649999999999,0.132946,0.860025,0.059578
1005,-0.0435399999999999,0.99904,0.00251,-0.001565,0.769988,0.104775
1006,-0.000473,0.999636,-0.026677,0.060348,0.609999,0.551702
1007,0.026205,0.996902,-0.074053,0.001016,0.2147219999999999,0.882692
1008,0.046542,0.992326,-0.114492,0.01309,0.091399,0.787801
1009,0.068915,0.988056,-0.1377779999999999,0.04896,-0.330036,0.514273
1010,0.080301,0.984863,-0.153566,-0.115992,-0.74942,0.652986
1011,0.079843,0.983372,-0.16307,-0.203683,-0.92638,0.706558
1012,0.0725519999999999,0.983585,-0.16518,-0.318005,-1.08678,0.722935
1013,0.063247,0.986056,-0.15388,-0.352829,-1.089969,0.647197
1014,0.051914,0.99037,-0.1282869999999999,-0.41985,-1.037108,0.6348020000000001
1015,0.0423889999999999,0.995037,-0.089944,-0.903854,-0.169338,-0.351218
1016,0.0304529999999999,0.997024,-0.070714,-0.855878,1.2221229999999998,-2.150478
1017,0.0215169999999999,0.994446,-0.102951,-0.572496,0.96791,-1.89534
1018,0.021346,0.991982,-0.124502,-0.02249,0.008643,-0.4839569999999999
1019,0.020368,0.986732,-0.16103,-0.0207949999999999,0.070397,-0.60902
1020,0.027491,0.978674,-0.203536,-0.085917,0.006357,-1.365418
1021,0.0396829999999999,0.980308,-0.19341,1.4153950000000002,-0.7701180000000001,3.569844
1022,0.062212,0.980828,-0.184642,-0.101061,-0.16494,1.7498740000000002
1023,0.073603,0.983092,-0.167627,-0.618388,0.522951,1.166192
1024,0.05036,0.992173,-0.1142,-0.632742,1.131011,-0.250592
1025,0.0561659999999999,0.991811,-0.1146369999999999,-0.0135789999999999,0.546458,0.706434
1026,0.0492839999999999,0.9903,-0.129855,0.02225,0.0817519999999999,0.601474
1027,0.039945,0.989706,-0.137374,0.222491,0.322412,0.669844
1028,0.03401,0.990884,-0.130301,0.380678,0.530295,0.783194
1029,0.029618,0.993782,-0.107268,0.407943,0.445809,0.760375
1030,0.0309319999999999,0.996649,-0.075629,0.041563,-0.0620789999999999,0.334342
1031,0.047031,0.99841,-0.030825,-0.072269,-0.105802,0.165407
1032,0.073519,0.996812,0.0307399999999999,-0.274981,-0.026155,-0.068673
1033,0.098327,0.990349,0.097592,-0.642334,-0.052483,-0.583875
1034,0.108581,0.985479,0.1304789999999999,-0.722198,-0.176396,-0.272248
1035,0.11141,0.981934,0.152888,-0.355078,-0.22049,-0.1960849999999999
1036,0.103346,0.977484,0.183917,-0.030897,-0.17002,-0.158572
1037,0.092892,0.971107,0.219779,0.114093,-0.030159,-0.139289
1038,0.087047,0.961711,0.259839,0.080159,0.041585,-0.276075
1039,0.081324,0.951106,0.297932,-0.010187,-0.102916,-0.252033
1040,0.071854,0.94349,0.3234869999999999,-0.047272,-0.0843889999999999,-0.169068
1041,0.062351,0.937443,0.342478,-0.076526,0.185161,-0.14718
1042,0.057457,0.932168,0.357406,-0.005013,0.321753,-0.2565909999999999
1043,0.0644909999999999,0.925428,0.373366,0.126321,0.347353,-0.567351
1044,0.082474,0.913116,0.3992429999999999,0.097046,0.478546,-1.634396
1045,0.079591,0.913653,0.398599,-0.112321,0.284391,-0.770364
1046,0.054488,0.921087,0.385496,0.010133,0.379984,-0.084425
1047,0.030835,0.930019,0.366185,0.072406,0.610157,-0.070973
1048,0.020009,0.94162,0.336049,0.366649,0.8400719999999999,-0.295202
1049,0.016815,0.956461,0.29134,0.979615,0.732641,-0.942082
1050,0.014745,0.973727,0.227198,1.0138200000000002,0.579267,-0.798701
1051,0.017461,0.988942,0.147208,0.62028,0.160548,-0.077704
1052,0.0258639999999999,0.997849,0.060101,0.519454,0.123947,0.28429
1053,0.038399,0.998907,-0.026366,0.260201,0.3945869999999999,1.038512
1054,0.050773,0.992822,-0.108223,-0.04235,0.8155279999999999,1.135109
1055,0.0639,0.980847,-0.183967,-0.130031,0.962986,1.128715
1056,0.0763,0.967208,-0.242229,-0.118277,0.802033,0.651195
1057,0.080812,0.957172,-0.277992,0.193129,0.227627,0.2419349999999999
1058,0.074345,0.952759,-0.29447,0.318356,0.171707,0.4822149999999999
1059,0.080542,0.943339,-0.321892,0.439325,0.009771,0.76165
1060,0.104198,0.926286,-0.362115,0.350376,0.115813,0.7898029999999999
1061,0.12293,0.91048,-0.394847,0.1551,0.060299,0.878123
1062,0.128189,0.894932,-0.427382,0.04509,0.032665,0.93167
1063,0.118722,0.880387,-0.459146,-0.268258,-0.083619,1.036783
1064,0.091777,0.86882,-0.486539,-0.315242,-0.160355,1.106717
1065,0.059035,0.860426,-0.506135,-0.366988,-0.246962,1.161226
1066,0.030092,0.856124,-0.515886,-0.5201439999999999,-0.318282,1.038744
1067,0.003478,0.855507,-0.517771,-0.5715319999999999,-0.462502,0.960169
1068,-0.015627,0.8610209999999999,-0.508321,-0.6645939999999999,-0.5717909999999999,0.828572
1069,-0.024172,0.874653,-0.484138,-0.6631600000000001,-0.428379,0.672767
1070,-0.027438,0.894763,-0.445687,-0.678067,0.0066349999999999,0.1965869999999999
1071,-0.0269319999999999,0.908093,-0.41789,-0.368576,0.8011659999999999,-0.4809739999999999
1072,-0.018133,0.90879,-0.4168489999999999,-0.4209229999999999,0.592599,-1.260367
1073,-0.008759,0.902041,-0.431551,0.11145,0.61952,-1.067655
1074,0.015377,0.89175,-0.452258,0.5827979999999999,0.279362,-1.025037
1075,0.025948,0.898086,-0.4390449999999999,1.0476299999999998,0.555253,-0.180676
1076,0.01879,0.916184,-0.400306,0.192071,0.2582239999999999,2.087134
1077,0.040638,0.908301,-0.416328,-0.395084,0.374627,1.399436
1078,0.041103,0.8925290000000001,-0.449103,-1.36523,-0.072888,-1.243814
1079,-0.001202,0.901379,-0.4330199999999999,-0.910571,-0.528362,0.8884799999999999
1080,-0.015884,0.912732,-0.408238,-0.386368,-0.303846,1.275181
1081,-0.011765,0.923218,-0.384084,-0.282317,-0.16687,1.023107
1082,-0.0058,0.937509,-0.3478969999999999,-0.070768,0.174887,0.8220940000000001
1083,-0.00667,0.952845,-0.303367,0.074053,0.265448,0.7733220000000001
1084,-0.020481,0.964089,-0.264765,0.35265,0.428031,0.780467
1085,-0.04237,0.970133,-0.238819,0.600995,0.300009,0.388737
1086,-0.059292,0.974091,-0.218216,0.658032,0.177352,0.035935
1087,-0.06091,0.9792,-0.1935079999999999,0.220303,-0.001966,-0.123707
1088,-0.049869,0.98407,-0.170606,-0.008938,-0.045654,0.2705059999999999
1089,-0.032743,0.987379,-0.154913,-0.097475,-0.083372,0.268392
1090,-0.011281,0.990614,-0.136176,-0.234232,-0.223158,0.140525
1091,0.008062,0.992959,-0.118128,-0.490713,0.023292,-0.6552180000000001
1092,0.024893,0.992069,-0.123155,-0.239829,0.129697,-0.942428
1093,0.037778,0.986964,-0.156404,0.183917,0.253423,-1.1180709999999998
1094,0.049319,0.980257,-0.191449,0.2938969999999999,-0.27997,-0.35149
1095,0.0660029999999999,0.973578,-0.218584,0.02558,-0.415304,0.376253
1096,0.078567,0.966394,-0.244741,-0.2218159999999999,-0.683054,0.754141
1097,0.085336,0.960703,-0.2641159999999999,-0.227746,-0.643442,0.639727
1098,0.0785309999999999,0.960166,-0.268151,-0.304209,-0.399451,0.409386
1099,0.064356,0.962831,-0.262307,-0.06724,0.2466269999999999,-1.016974
1100,0.062195,0.961023,-0.269364,-0.059251,0.161643,0.2043319999999999
1101,0.083006,0.958945,-0.271155,0.038271,0.005044,0.259726
1102,0.107068,0.953241,-0.282591,0.37038,0.252279,-0.655977
1103,0.131931,0.940286,-0.313764,0.429059,0.339606,-0.406298
1104,0.156038,0.920494,-0.358238,0.437284,0.510994,-0.150505
1105,0.163547,0.884832,-0.436253,0.34567,1.218042,-0.101787
1106,0.154369,0.841305,-0.518044,0.237767,1.185306,0.5500109999999999
1107,0.147207,0.7985909999999999,-0.583589,-0.047369,0.76986,1.6102
1108,0.149491,0.762822,-0.6290859999999999,-0.347885,0.046931,1.013989
1109,0.179491,0.736612,-0.652059,-0.8344600000000001,0.345969,0.169302
1110,0.203597,0.720912,-0.662442,-0.74179,0.741963,0.257413
1111,0.212302,0.712623,-0.6686489999999999,-0.583259,0.223763,0.606958
1112,0.212061,0.715013,-0.6661699999999999,-0.614298,-0.191301,0.692934
1113,0.208677,0.732441,-0.648058,-0.562742,-0.28458,0.7231920000000001
1114,0.205563,0.761679,-0.614479,-0.286312,-0.266257,0.784553
1115,0.1979,0.79688,-0.5708,-0.358194,-0.040593,0.718306
1116,0.181555,0.834426,-0.520351,-0.414358,-0.018721,0.567592
1117,0.152051,0.8716219999999999,-0.465992,-0.331357,0.419683,0.116047
1118,0.111351,0.90465,-0.411342,-0.139076,0.29228,0.154902
1119,0.071309,0.930904,-0.358224,0.113551,0.192723,0.1640859999999999
1120,0.038643,0.947953,-0.3160429999999999,0.291359,0.178695,-0.349698
1121,0.03128,0.957176,-0.2877949999999999,0.404602,-0.041283,-0.278413
1122,0.047713,0.961991,-0.268862,0.274094,-0.434266,-0.236326
1123,0.067836,0.965577,-0.2510989999999999,-0.006434,-0.901383,-0.041855
1124,0.080549,0.967853,-0.238248,-0.299238,-1.216404,0.213544
1125,0.086097,0.96952,-0.229366,-0.366828,-1.125465,-0.152837
1126,0.067881,0.977894,-0.19775,-0.387293,0.454692,0.071865
1127,0.020608,0.982467,-0.185267,-0.26455,1.992234,1.095622
1128,0.001814,0.980056,-0.198687,0.533189,0.705201,-0.387128
1129,0.01188,0.981461,-0.191267,0.3034429999999999,2.32698,-1.334001
1130,0.043743,0.980296,-0.192602,0.111546,2.813725,-1.467234
1131,0.086466,0.972869,-0.2145679999999999,-0.5793550000000001,-0.335509,1.083846
1132,0.111121,0.966132,-0.232875,-0.259009,-0.805183,0.4721479999999999
1133,0.115683,0.959116,-0.258271,-0.350256,-0.369853,0.42421
1134,0.096041,0.956364,-0.275924,-0.5268579999999999,-0.287221,-0.1287849999999999
1135,0.064025,0.958525,-0.277709,0.045137,0.31711,-0.931535
1136,0.070244,0.95432,-0.290398,0.4208449999999999,0.1459,0.090798
1137,0.09826,0.947418,-0.304525,0.498267,0.1937559999999999,-0.4762979999999999
1138,0.128067,0.931149,-0.341398,-0.2283329999999999,0.114093,-0.758273
1139,0.139421,0.906178,-0.3992429999999999,-0.4155899999999999,0.280131,0.093167
1140,0.144518,0.874534,-0.462923,-0.0901049999999999,0.377312,0.336825
1141,0.135406,0.838858,-0.527234,0.6733399999999999,0.323617,1.219983
1142,0.124617,0.804333,-0.580959,0.681276,0.221226,1.30267
1143,0.127115,0.7752439999999999,-0.618735,-0.142939,0.210336,0.717612
1144,0.153472,0.756019,-0.636299,-0.816711,0.794686,0.320427
1145,0.182145,0.741739,-0.6454770000000001,-1.036104,1.0224209999999998,0.304596
1146,0.2078219999999999,0.735572,-0.644778,-0.98216,0.02961,0.43265
1147,0.2349989999999999,0.7439819999999999,-0.625508,-0.677962,-0.300775,0.586263
1148,0.24908,0.76673,-0.591674,-0.381832,-0.41056,0.649413
1149,0.2452489999999999,0.8003060000000001,-0.547135,-0.236475,-0.2340829999999999,0.610001
1150,0.226013,0.8384360000000001,-0.4959199999999999,-0.374176,0.0543559999999999,0.561243
1151,0.192714,0.877376,-0.439391,-0.430584,0.359639,0.329711
1152,0.152995,0.906362,-0.393818,-0.053462,0.289134,0.188907
1153,0.109543,0.931929,-0.345686,0.512054,0.0371709999999999,0.133208
1154,0.0609059999999999,0.956114,-0.286579,0.6046060000000001,-0.003721,0.012333
1155,0.031898,0.974395,-0.222543,0.621041,0.138336,-0.243536
1156,0.043691,0.980415,-0.192005,0.781215,-0.135933,-1.119549
1157,0.069321,0.981012,-0.181107,0.8242950000000001,-0.610162,-0.693893
1158,0.09501,0.978432,-0.183393,0.512717,-0.874901,-0.2359949999999999
1159,0.113068,0.972017,-0.205886,-0.562348,-0.8644569999999999,0.982055
1160,0.1208369999999999,0.968617,-0.217185,-0.943042,0.8936719999999999,0.182334
1161,0.0789639999999999,0.975788,-0.203941,-1.205337,1.937847,-0.252327
1162,0.0428459999999999,0.975487,-0.215821,-0.042678,0.161445,-0.203598
1163,0.032,0.968397,-0.247334,0.137037,2.586581,-1.219737
1164,0.04071,0.964559,-0.260689,-0.32521,0.974635,0.947823
1165,0.06276,0.959926,-0.2731159999999999,-0.031907,-0.4824479999999999,0.976638
1166,0.0678769999999999,0.954646,-0.289886,0.102777,-0.42837,0.674499
1167,0.056972,0.950283,-0.306114,0.10941,-0.190319,0.634285
1168,0.037761,0.953062,-0.3003949999999999,0.049855,0.500063,-0.554768
1169,0.0569169999999999,0.956933,-0.284659,0.439452,0.29174,-0.675455
1170,0.094876,0.952723,-0.28863,0.2791929999999999,0.151159,-0.734533
1171,0.123231,0.940128,-0.317747,-0.267945,0.140972,-0.606889
1172,0.139312,0.916597,-0.374745,-0.552459,0.3367449999999999,-0.474132
1173,0.158335,0.8849090000000001,-0.4380159999999999,-0.729762,0.503579,0.14259
1174,0.1751869999999999,0.8509450000000001,-0.495172,-0.16829,0.267311,0.8751610000000001
1175,0.173061,0.812241,-0.557053,0.387348,-0.005753,1.4784700000000002
1176,0.182103,0.7793329999999999,-0.599561,0.339961,-0.092596,0.956815
1177,0.2054349999999999,0.758975,-0.617857,-0.02471,0.30209,0.116514
1178,0.206015,0.745256,-0.63415,-0.52822,0.474654,0.668879
1179,0.203515,0.73928,-0.6419050000000001,-0.66105,0.481439,0.8752120000000001
1180,0.201631,0.7456119999999999,-0.6351399999999999,-0.597596,-0.134055,0.7195060000000001
1181,0.204955,0.7663939999999999,-0.608792,-0.544204,-0.336646,0.70419
1182,0.209726,0.799542,-0.562797,-0.404688,-0.2528809999999999,0.646629
1183,0.203944,0.8369780000000001,-0.5078060000000001,-0.290355,0.066358,0.4022
1184,0.182121,0.8736200000000001,-0.451233,-0.076988,0.3547889999999999,0.102051
1185,0.146326,0.907398,-0.393966,-0.045908,0.275906,0.020782
1186,0.108009,0.93489,-0.33809,0.008263,0.193833,-0.109465
1187,0.069991,0.954777,-0.288948,0.089722,0.161434,-0.237938
1188,0.040016,0.966693,-0.252768,0.366249,0.012768,-0.614755
1189,0.035505,0.970069,-0.2401989999999999,0.576647,-0.423072,-0.531087
1190,0.03593,0.972184,-0.231423,0.591252,-0.609452,-0.342475
1191,0.032825,0.973373,-0.226841,0.1128349999999999,-1.120696,0.7219270000000001
1192,0.031552,0.969148,-0.2444309999999999,-0.059857,-0.3487409999999999,0.82901
1193,0.031851,0.966145,-0.256004,-0.461722,1.3710440000000002,0.151619
1194,0.014162,0.974614,-0.223419,-0.444445,1.733974,-0.154572
1195,-0.0075379999999999,0.976425,-0.2156989999999999,-0.370437,0.685471,-1.19931
1196,-0.015423,0.9648,-0.2625099999999999,-0.619663,0.982923,-0.447283
1197,-0.002861,0.9603,-0.278934,-0.353753,0.002392,1.350986
1198,0.0211729999999999,0.95323,-0.301485,0.1111359999999999,-0.514555,0.5945600000000001
1199,0.032565,0.946214,-0.321882,0.284497,-0.2424639999999999,0.034391
1200,0.0228319999999999,0.950446,-0.310032,0.5044810000000001,0.458413,-0.465984
1201,0.043785,0.947237,-0.317515,0.6118399999999999,0.4201029999999999,-0.184652
1202,0.073951,0.937824,-0.339127,0.336389,0.317241,-0.6104430000000001
1203,0.092745,0.916062,-0.390154,-0.263857,0.5198659999999999,-0.321302
1204,0.1081039999999999,0.884741,-0.453364,-0.228786,0.599146,0.415156
1205,0.121549,0.8508049999999999,-0.511224,-0.13226,0.19279,0.879907
1206,0.1297839999999999,0.826591,-0.547629,-0.155129,-0.082496,1.454383
1207,0.139439,0.8120149999999999,-0.566729,-0.139409,-0.008137,0.8646870000000001
1208,0.141067,0.7992100000000001,-0.5842579999999999,-0.2053829999999999,0.470641,0.56787
1209,0.131306,0.789064,-0.600109,-0.259419,0.529692,0.866604
1210,0.128152,0.7901560000000001,-0.599353,-0.3512659999999999,0.292378,0.797275
1211,0.124641,0.804435,-0.580812,-0.531944,-0.1220319999999999,0.627321
1212,0.121388,0.8302950000000001,-0.543937,-0.506139,-0.234775,0.581337
1213,0.118681,0.8616,-0.49351,-0.35211,-0.219266,0.4852399999999999
1214,0.102085,0.8903709999999999,-0.443633,-0.15633,-0.053305,0.308287
1215,0.070208,0.915944,-0.395105,-0.036135,0.025371,0.119684
1216,0.027663,0.941042,-0.337142,0.112901,0.035414,-0.002885
1217,-0.01958,0.96001,-0.279261,0.484042,-0.222766,-0.811377
1218,-0.0415079999999999,0.963485,-0.264503,0.54279,-0.2948,-0.802864
1219,-0.053212,0.967423,-0.247486,0.256978,-0.969651,0.313877
1220,-0.064601,0.970868,-0.2307159999999999,0.086222,-1.273999,1.038516
1221,-0.066823,0.968399,-0.2402639999999999,0.094731,-0.97168,0.8840020000000001
1222,-0.0718309999999999,0.967073,-0.244131,-0.445717,1.272384,-0.351893
1223,-0.121368,0.979339,-0.161721,-0.640564,0.476197,-0.989402
1224,-0.154355,0.972742,-0.173022,-0.418033,-0.166971,-0.0017829999999999
1225,-0.1421329999999999,0.971814,-0.188055,0.146268,0.288348,-0.799036
1226,-0.119124,0.974293,-0.191187,0.405303,0.449627,0.749079
1227,-0.10294,0.973335,-0.204969,0.5120279999999999,0.051018,0.500242
1228,-0.093122,0.96731,-0.235861,1.09535,-0.164056,-0.944879
1229,-0.098118,0.960684,-0.259711,0.2154739999999999,0.217905,-0.026513
1230,-0.109544,0.950424,-0.291008,0.111741,0.187699,-0.1852339999999999
1231,-0.129099,0.930613,-0.342468,-0.133123,0.419241,-0.208252
1232,-0.147976,0.903317,-0.402633,0.033688,0.6294890000000001,0.099578
1233,-0.173009,0.8696139999999999,-0.4624189999999999,0.349538,0.5365439999999999,0.925402
1234,-0.2039619999999999,0.838501,-0.5052810000000001,0.682188,0.162063,1.081346
1235,-0.2076199999999999,0.82311,-0.528562,0.527704,0.183634,0.683057
1236,-0.170205,0.817024,-0.550905,0.3256159999999999,1.163018,-0.04318
1237,-0.155836,0.802944,-0.575318,-0.381808,0.489094,0.655091
1238,-0.171057,0.7844270000000001,-0.596162,-0.449426,0.228589,0.7639779999999999
1239,-0.183686,0.7716770000000001,-0.608908,-0.539871,-0.027506,0.751807
1240,-0.177849,0.770145,-0.6125689999999999,-0.417778,-0.364307,0.72582
1241,-0.172338,0.774963,-0.608052,-0.106547,-0.441055,0.7288100000000001
1242,-0.182883,0.781435,-0.59658,0.196952,-0.349413,0.704979
1243,-0.205613,0.790339,-0.577133,0.285279,-0.316004,0.681747
1244,-0.217729,0.807643,-0.5479970000000001,0.1590589999999999,-0.254207,0.586785
1245,-0.215588,0.829349,-0.515458,0.031887,-0.2369409999999999,0.096604
1246,-0.206704,0.8535450000000001,-0.478256,0.051812,0.063981,-0.4405979999999999
1247,-0.203983,0.881191,-0.4264819999999999,0.157871,0.312779,-0.459154
1248,-0.2205219999999999,0.903247,-0.368113,0.335757,0.467542,-0.510977
1249,-0.229061,0.9095,-0.34689,0.626796,0.83139,-1.404408
1250,-0.2386239999999999,0.903234,-0.356679,0.235863,0.190715,-0.477717
1251,-0.249798,0.898127,-0.361885,0.159939,-0.434199,-0.167244
1252,-0.263718,0.8905620000000001,-0.370602,-0.183823,-0.64755,-0.6449010000000001
1253,-0.290674,0.888157,-0.3559199999999999,-0.577109,2.101605,2.67988
1254,-0.313349,0.88725,-0.338515,-0.1405549999999999,0.904193,1.6218549999999998
1255,-0.3281679999999999,0.891236,-0.3130429999999999,0.8070649999999999,-0.541078,1.339746
1256,-0.325362,0.8928940000000001,-0.311242,0.4565729999999999,0.430821,1.300317
1257,-0.2959179999999999,0.8959469999999999,-0.331217,0.221013,1.296741,1.085475
1258,-0.2786099999999999,0.898976,-0.337952,-0.011444,1.164974,0.430329
1259,-0.278394,0.90947,-0.308795,0.281477,0.336258,0.778613
1260,-0.282196,0.922769,-0.262401,0.381592,0.321997,0.783717
1261,-0.2851849999999999,0.935191,-0.209951,0.4996319999999999,0.267934,0.7258819999999999
1262,-0.283308,0.945543,-0.160236,0.486738,0.1204809999999999,0.4412109999999999
1263,-0.27247,0.955509,-0.112924,0.435968,0.153881,0.323632
1264,-0.2492619999999999,0.966625,-0.059108,0.263545,0.137455,0.128398
1265,-0.219396,0.975613,0.00583,-0.03776,-0.11694,0.049285
1266,-0.193317,0.979039,0.064041,-0.105969,-0.220509,0.00705
1267,-0.17396,0.979694,0.099633,-0.075521,-0.415729,-0.125527
1268,-0.164325,0.9792,0.118967,-0.231305,-0.4924449999999999,-0.5574279999999999
1269,-0.169132,0.977519,0.125854,-0.132488,-0.302806,-0.385467
1270,-0.181492,0.97409,0.134899,0.134342,0.101288,-0.13615
1271,-0.196629,0.968879,0.150333,0.249608,0.325189,-0.028706
1272,-0.2109599999999999,0.962972,0.1678349999999999,0.300423,0.286006,-0.099323
1273,-0.219736,0.957165,0.188517,0.61326,0.342106,-0.696376
1274,-0.22565,0.95054,0.213408,0.772311,0.372595,-0.8981610000000001
1275,-0.235749,0.949988,0.204774,0.502732,0.308496,-0.401643
1276,-0.2463,0.953484,0.173754,0.318581,0.205253,-0.157626
1277,-0.258466,0.953674,0.153911,0.431455,0.562012,-0.4409899999999999
1278,-0.275225,0.952037,0.133656,0.558886,0.80489,-0.715581
1279,-0.295275,0.952143,0.078894,0.8485739999999999,0.77384,-0.4621189999999999
1280,-0.315652,0.948839,0.0075049999999999,0.740197,0.5912,-0.204969
1281,-0.3326199999999999,0.941082,-0.060972,0.7131890000000001,0.592716,0.215391
1282,-0.337956,0.931258,-0.136146,0.66219,0.812578,0.991081
1283,-0.332314,0.919274,-0.210938,0.425118,1.031196,1.078659
1284,-0.328676,0.904365,-0.2721929999999999,0.357149,0.976403,1.146338
1285,-0.3267739999999999,0.8923479999999999,-0.3113309999999999,0.6392439999999999,0.410844,0.901816
1286,-0.337764,0.888465,-0.310707,0.967097,0.2418,1.054756
1287,-0.353862,0.887391,-0.295486,1.019343,0.1268,0.949783
1288,-0.352951,0.888287,-0.293878,1.243698,0.062183,0.511911
1289,-0.311013,0.896117,-0.316603,1.126565,0.203401,0.714491
1290,-0.270983,0.90776,-0.320207,1.023593,0.266541,0.718659
1291,-0.26353,0.913593,-0.309666,0.647624,0.049252,0.896702
1292,-0.27753,0.912077,-0.301803,0.4307439999999999,-0.055159,0.971038
1293,-0.301188,0.908024,-0.291155,0.277522,-0.103916,1.010408
1294,-0.328078,0.904689,-0.271835,0.169051,-0.142818,1.22528
1295,-0.3473489999999999,0.903694,-0.250354,-0.011858,-0.171532,1.130497
1296,-0.358871,0.905524,-0.22634,-0.251923,-0.131644,0.964758
1297,-0.364039,0.90874,-0.204105,-0.482931,-0.169513,0.770374
1298,-0.361496,0.913838,-0.184968,-0.611267,-0.316563,0.3724989999999999
1299,-0.351302,0.921467,-0.165763,-0.47342,-0.309467,0.0614539999999999
1300,-0.337491,0.929278,-0.150111,-0.297381,-0.110293,-0.397756
1301,-0.326284,0.934346,-0.143274,0.1060849999999999,0.243694,-1.038183
1302,-0.314627,0.938078,-0.144948,0.226202,0.345354,-1.487834
1303,-0.309567,0.939261,-0.148151,1.038235,0.186655,-1.524578
1304,-0.276121,0.951282,-0.137152,2.022795,-0.149951,-0.8586520000000001
1305,-0.252919,0.960992,-0.111877,1.691075,0.117819,1.666839
1306,-0.272705,0.957455,-0.094346,-0.136704,0.88335,1.360764
1307,-0.322979,0.93279,-0.159931,-0.804325,-0.026647,-0.439068
1308,-0.3639679999999999,0.920124,-0.144533,-0.586746,-0.594059,0.865419
1309,-0.36129,0.924607,-0.120671,0.066124,-0.808137,0.761937
1310,-0.354566,0.930197,-0.094903,0.503965,-0.602835,0.7196279999999999
1311,-0.351283,0.934905,-0.050427,0.448985,-0.200255,0.656766
1312,-0.34888,0.937157,0.0028179999999999,0.4512819999999999,0.628104,0.736699
1313,-0.371257,0.927893,0.034252,0.79188,1.012278,0.34557
1314,-0.397707,0.915736,0.056976,0.849184,0.66892,0.137344
1315,-0.407158,0.907628,0.102096,0.684975,-0.101827,-0.515808
1316,-0.3910599999999999,0.903959,0.172972,0.507713,-0.098463,-0.1640609999999999
1317,-0.361884,0.904123,0.227135,0.3701239999999999,-0.104379,0.030906
1318,-0.334898,0.907751,0.252628,0.157667,-0.096715,0.046185
1319,-0.316709,0.908949,0.271101,0.128538,-0.032561,-0.111814
1320,-0.305173,0.902961,0.3025219999999999,0.0641299999999999,-0.009712,-0.1542369999999999
1321,-0.302699,0.8902620000000001,0.340289,-0.2145119999999999,0.163205,-0.556948
1322,-0.3008969999999999,0.878391,0.371322,-0.219184,0.1149559999999999,-0.47644
1323,-0.301882,0.8682629999999999,0.3936699999999999,-0.129255,0.084588,-0.416146
1324,-0.305728,0.8559700000000001,0.416934,0.443424,0.142779,-0.3100469999999999
1325,-0.3033659999999999,0.84396,0.442367,0.5719810000000001,0.201954,-0.46701
1326,-0.289957,0.83062,0.475376,0.651636,0.279456,-0.68079
1327,-0.275896,0.8175819999999999,0.5053989999999999,0.165621,0.4005579999999999,-0.814131
1328,-0.274348,0.822377,0.498414,-0.105779,0.435771,-0.968477
1329,-0.284906,0.8355370000000001,0.469781,-0.137671,0.481052,-1.051339
1330,-0.2957849999999999,0.8538899999999999,0.428218,0.631326,0.931236,-0.561549
1331,-0.305559,0.876765,0.371356,0.8271649999999999,1.0259,-0.419238
1332,-0.304412,0.902674,0.304141,1.081847,0.947805,-0.32854
1333,-0.289888,0.927492,0.236036,0.614641,0.499601,0.659868
1334,-0.265423,0.948907,0.1706329999999999,0.507595,0.46366,0.937491
1335,-0.248082,0.9633,0.102469,0.044988,1.055667,0.710886
1336,-0.245209,0.968881,0.033669,-0.154556,0.657111,0.4326239999999999
1337,-0.244058,0.969454,-0.024253,-0.010825,0.100584,-0.586511
1338,-0.211692,0.976082,-0.049418,0.27442,0.101432,-0.386678
1339,-0.174742,0.981731,-0.075247,0.413572,-0.00526,0.40592
1340,-0.153521,0.982263,-0.107626,0.27936,-0.124246,0.705526
1341,-0.140348,0.978736,-0.14957,0.21713,-0.143058,0.6973600000000001
1342,-0.123072,0.974612,-0.187023,0.264491,-0.234668,0.497127
1343,-0.1026849999999999,0.971976,-0.211451,0.227701,-0.294761,0.585673
1344,-0.092508,0.969342,-0.2276239999999999,-0.034811,-0.571545,0.622689
1345,-0.092788,0.966287,-0.240153,-0.13144,-0.735803,0.526805
1346,-0.096748,0.964978,-0.243827,-0.1033859999999999,-0.810711,0.435859
1347,-0.103904,0.965839,-0.237384,-0.171929,-0.940128,0.530079
1348,-0.10832,0.97043,-0.2156969999999999,-0.213411,-0.942766,0.5185529999999999
1349,-0.109575,0.978484,-0.1748019999999999,-0.147307,-0.692076,0.343228
1350,-0.114868,0.986871,-0.113507,-0.081879,-0.151788,0.163983
1351,-0.1339769999999999,0.990028,-0.043438,-0.2226969999999999,0.780801,-0.644169
1352,-0.14966,0.988648,-0.012994,-0.004545,0.065414,-0.51847
1353,-0.147444,0.989018,-0.0097489999999999,0.078748,-0.09972,-0.274965
1354,-0.145342,0.989368,0.004215,0.199267,-0.207904,-0.205311
1355,-0.144991,0.989011,0.0287279999999999,0.288363,-0.2227599999999999,-0.176906
1356,-0.143263,0.98754,0.065038,0.251188,-0.17678,-0.095983
1357,-0.135222,0.985153,0.1057299999999999,0.182936,0.023163,0.027509
1358,-0.1233619999999999,0.983156,0.134815,0.11439,0.047957,-0.122638
1359,-0.114648,0.981047,0.1561789999999999,0.075738,0.133165,-0.1943099999999999
1360,-0.106183,0.97674,0.1862579999999999,-0.215106,1.294347,0.008856
1361,-0.102173,0.968742,0.226026,-0.264099,0.648324,-0.914411
1362,-0.078363,0.965295,0.249104,-0.071433,-0.010506,-0.31577
1363,-0.066632,0.968086,0.2415719999999999,-0.14432,0.430489,-0.206706
1364,-0.077852,0.970935,0.226301,0.213182,1.240277,-0.756422
1365,-0.083598,0.974038,0.210355,0.126246,0.496238,-0.116315
1366,-0.084862,0.976485,0.198151,0.0411,-0.120513,0.265823
1367,-0.085089,0.978952,0.185475,0.198477,-0.0285589999999999,0.416377
1368,-0.087163,0.980586,0.175621,0.15035,-0.048961,0.510734
1369,-0.093262,0.978794,0.182356,0.12468,0.046582,0.614305
1370,-0.09492,0.973594,0.207591,0.104335,0.050241,0.094883
1371,-0.09322,0.96461,0.246628,0.064121,0.079854,-0.174667
1372,-0.087036,0.951865,0.29388,0.232483,0.150018,-0.998927
1373,-0.081081,0.932572,0.3517409999999999,0.163235,0.2199699999999999,-1.442592
1374,-0.097332,0.922447,0.373637,0.063183,-0.121772,-0.8297680000000001
1375,-0.108645,0.920519,0.37527,0.07149,-0.21744,-0.760249
1376,-0.113926,0.919486,0.376234,0.080509,-0.270041,-0.966307
1377,-0.1277839999999999,0.927503,0.351276,0.012092,-0.319486,-0.907535
1378,-0.145444,0.937153,0.317137,0.011075,-0.167744,-0.160795
1379,-0.15169,0.941404,0.301222,0.260744,-0.2431469999999999,0.043687
1380,-0.1522369999999999,0.944672,0.290526,0.472855,-0.19751,-0.070738
1381,-0.153008,0.94843,0.277588,0.6635979999999999,-0.065846,-0.272873
1382,-0.160879,0.956945,0.241581,0.66503,0.274287,-0.952122
1383,-0.160245,0.968279,0.191687,0.242063,0.277815,-1.519278
1384,-0.150912,0.97992,0.130271,-0.012922,0.603897,-0.80799
1385,-0.13876,0.989017,0.050787,0.014294,1.089337,-0.380697
1386,-0.130184,0.990822,-0.036248,0.173992,1.118752,-0.0274269999999999
1387,-0.127746,0.985147,-0.114701,0.410339,0.525091,1.102708
1388,-0.125421,0.976638,-0.174465,0.395548,0.4244699999999999,1.185543
1389,-0.095175,0.972452,-0.212769,-0.3473449999999999,0.542349,-0.076187
1390,-0.0372529999999999,0.972511,-0.229839,-0.495187,-0.148796,0.05479
1391,0.005739,0.970645,-0.240429,-0.55533,-0.405765,0.309338
1392,0.021792,0.968811,-0.246823,-0.593997,-0.6653439999999999,0.372601
1393,0.023589,0.97173,-0.234895,-0.440063,-0.4908649999999999,0.417406
1394,0.012006,0.979214,-0.202454,-0.126325,-0.184216,0.3453219999999999
1395,-0.011113,0.988095,-0.153416,-0.118267,-0.16708,0.2964969999999999
1396,-0.041415,0.994158,-0.09963,-0.111616,-0.137239,0.039098
1397,-0.072291,0.996267,-0.047073,0.022303,-0.1872309999999999,-0.181672
1398,-0.09606,0.995329,0.009098,0.258764,-0.15048,-0.301212
1399,-0.112748,0.991288,0.067999,0.407532,-0.014558,-0.199179
1400,-0.120895,0.984709,0.125384,0.23825,0.110628,-0.317813
1401,-0.117407,0.977009,0.177925,0.207404,0.168438,-0.707771
1402,-0.1057369999999999,0.971329,0.2128989999999999,0.5098659999999999,-0.459611,-1.161675
1403,-0.090658,0.970871,0.2217599999999999,0.517737,-0.918259,-1.029667
1404,-0.079841,0.970225,0.2286409999999999,0.063437,-1.072489,-0.136371
1405,-0.073912,0.967246,0.2428159999999999,-0.02907,-0.469474,0.394437
1406,-0.0839169999999999,0.966664,0.241877,-0.416724,1.535472,-0.173029
1407,-0.110442,0.96483,0.2385199999999999,-0.365953,1.770735,-0.7646430000000001
1408,-0.096582,0.957327,0.272366,0.609903,1.985254,-2.299008
1409,-0.093169,0.967003,0.237091,-0.315949,-0.117943,0.443131
1410,-0.0902289999999999,0.976308,0.19664,-0.163922,-0.346548,0.582825
1411,-0.074603,0.982952,0.168004,0.043903,-0.573284,0.270412
1412,-0.073432,0.987266,0.141065,0.032447,-0.264808,0.195452
1413,-0.085792,0.987256,0.133987,0.038322,-0.196027,0.045044
1414,-0.094333,0.981789,0.164858,0.934452,0.520408,-1.711947
1415,-0.099196,0.981686,0.162603,0.523818,0.279408,-1.103796
1416,-0.091759,0.986297,0.137059,-0.045693,0.5375979999999999,-1.334385
1417,-0.079069,0.99393,0.076421,-0.542834,0.302274,-0.7201890000000001
1418,-0.066938,0.997721,-0.007798,-0.517413,0.190343,-0.087752
1419,-0.0547289999999999,0.99411,-0.0934909999999999,0.01881,0.122376,0.684327
1420,-0.05282,0.985861,-0.158992,0.527628,-0.0686399999999999,0.661738
1421,-0.049121,0.97738,-0.2056849999999999,0.4947229999999999,-0.0173889999999999,0.30885
1422,-0.027198,0.972219,-0.2324679999999999,0.094138,0.382456,0.236527
1423,-0.022858,0.966474,-0.25573,-0.702408,0.231219,0.729668
1424,-0.012835,0.964137,-0.26508,-0.740568,-0.133922,0.61797
1425,0.004034,0.968159,-0.250288,-0.636465,-0.353565,0.497755
1426,0.014915,0.976619,-0.214442,-0.337303,-0.543345,0.3922989999999999
1427,0.009876,0.986405,-0.164008,-0.1572609999999999,-0.362489,0.285438
1428,-0.014134,0.99431,-0.105544,-0.077983,-0.221437,0.1746049999999999
1429,-0.0521919999999999,0.997488,-0.047787,0.2289949999999999,0.047556,-0.1569549999999999
1430,-0.0912159999999999,0.995638,0.019323,0.461791,0.279539,-0.310857
1431,-0.119743,0.987202,0.105271,0.573188,0.335796,-0.493226
1432,-0.128885,0.973738,0.187647,1.036463,0.214998,-2.104425
1433,-0.122573,0.972963,0.195722,1.044357,-0.107958,-2.325162
1434,-0.1115039999999999,0.972082,0.206425,0.379296,-1.107122,0.423854
1435,-0.107348,0.973023,0.2041849999999999,0.26903,-1.383362,0.7801140000000001
1436,-0.1093609999999999,0.979116,0.171349,0.028322,-0.305181,0.4312359999999999
1437,-0.112093,0.980893,0.15897,-0.807829,3.112979,-0.5821270000000001
1438,-0.105206,0.966241,0.235153,-0.366184,0.760642,-1.751541
1439,-0.069487,0.964142,0.256104,-0.4928149999999999,1.284622,-0.664597
1440,-0.08162,0.973033,0.215714,-0.457793,0.246282,0.257369
1441,-0.080206,0.974022,0.211746,0.076864,-0.4047159999999999,0.281265
1442,-0.07539,0.976356,0.202567,0.4178739999999999,-0.242653,-0.02854
1443,-0.07884,0.979977,0.182808,0.6697069999999999,0.031436,-0.549614
1444,-0.095576,0.981219,0.167525,0.695551,0.326704,-1.175566
1445,-0.100982,0.982711,0.155145,0.365753,0.221665,-1.260782
1446,-0.092172,0.988283,0.121617,0.03422,0.138594,-1.460026
1447,-0.078612,0.995044,0.060799,-0.523699,0.1922569999999999,-0.658028
1448,-0.060562,0.997975,-0.019205,-0.348587,0.286495,-0.086828
1449,-0.046914,0.993923,-0.099536,0.212915,-0.035259,0.981677
1450,-0.03885,0.984633,-0.170236,0.5713199999999999,-0.159514,1.008341
1451,-0.024737,0.976284,-0.215058,0.426562,0.1082809999999999,0.095887
1452,0.00112,0.971216,-0.238179,0.214944,0.279653,-0.0883289999999999
1453,0.009977,0.966236,-0.257449,-0.4026619999999999,0.4258689999999999,0.444568
1454,0.01443,0.964137,-0.264996,-0.677455,-0.068935,0.4646109999999999
1455,0.020935,0.96814,-0.249516,-0.593979,-0.257752,0.362492
1456,0.021297,0.977506,-0.209808,-0.382457,-0.428907,0.286087
1457,0.009023,0.988096,-0.153541,-0.117711,-0.1551799999999999,0.1916119999999999
1458,-0.017091,0.9958,-0.089889,-0.048293,-0.054165,0.111007
1459,-0.0527659999999999,0.99832,-0.0237,0.143281,0.36725,-0.310391
1460,-0.090314,0.994747,0.048068,0.281934,0.491322,-0.4187189999999999
1461,-0.117943,0.984826,0.127264,0.529198,0.446723,-0.690543
1462,-0.1301,0.971686,0.197204,0.676685,-0.030905,-1.251586
1463,-0.1252589999999999,0.967216,0.2208889999999999,0.581909,-0.480064,-1.173663
1464,-0.115701,0.963446,0.2416039999999999,0.605538,-0.668204,-0.855358
1465,-0.103752,0.95794,0.2675329999999999,0.162055,-1.303582,0.530365
1466,-0.095358,0.959251,0.265954,0.128989,-1.333854,0.5487890000000001
1467,-0.098332,0.963941,0.247256,0.123113,-1.257108,0.5070020000000001
1468,-0.117839,0.965812,0.230884,-0.411427,2.653115,-0.523975
1469,-0.140945,0.955691,0.258409,-0.295426,1.08769,-0.4589399999999999
1470,-0.0982789999999999,0.927003,0.361929,0.218106,0.0664059999999999,-1.175162
1471,-0.053975,0.922625,0.381884,-0.03802,3.077833,-1.841631
1472,-0.093641,0.928881,0.358325,-0.291933,0.031477,-0.038196
1473,-0.1042329999999999,0.932579,0.345568,-0.0791169999999999,-0.459556,0.4622479999999999
1474,-0.101799,0.935,0.339702,0.353203,-0.6676810000000001,0.041402
1475,-0.090957,0.936327,0.339122,0.5007010000000001,-0.377749,-0.041988
1476,-0.072124,0.93024,0.359773,0.827541,0.048642,-0.289568
1477,-0.073943,0.917524,0.390727,0.64398,0.431551,-1.0184879999999998
1478,-0.112466,0.922246,0.369863,-0.392173,0.29101,-3.543386
1479,-0.123194,0.937899,0.3242739999999999,-0.6294609999999999,-0.10364,-0.876719
1480,-0.1006669999999999,0.953657,0.283532,-0.035472,0.018877,0.122306
1481,-0.1043299999999999,0.970159,0.2188449999999999,0.043066,0.203196,-0.246173
1482,-0.1175809999999999,0.982062,0.147364,0.41293,0.256875,0.0670679999999999
1483,-0.124242,0.98864,0.08451,0.7929729999999999,0.238639,0.507165
1484,-0.121541,0.991748,0.04063,0.83167,0.4150819999999999,0.180501
1485,-0.099419,0.995038,-0.001994,0.6912159999999999,0.467685,-0.292272
1486,-0.064926,0.996771,-0.047115,-0.2122659999999999,0.518304,-0.535725
1487,-0.030378,0.995544,-0.0892049999999999,-0.505007,0.373428,-0.025342
1488,-0.0066939999999999,0.991652,-0.1287299999999999,-0.745793,-0.009703,0.121527
1489,0.009751,0.987114,-0.159691,-0.479279,-0.351005,0.163216
1490,0.013647,0.983836,-0.178521,-0.128958,-0.694041,0.229012
1491,0.00879,0.983398,-0.181219,-0.031602,-0.713684,0.282278
1492,0.003107,0.985268,-0.170954,0.068746,-0.5770350000000001,0.304758
1493,-0.000666,0.98844,-0.151573,0.022715,-0.5408390000000001,0.058311
1494,-0.002426,0.992237,-0.124292,-0.012802,-0.618488,-0.092825
1495,-0.002408,0.995699,-0.092552,-0.151797,-0.805559,-0.733391
1496,0.001205,0.998601,-0.052739,0.2361909999999999,-0.3966719999999999,-0.901973
1497,0.0064769999999999,0.999947,0.007059,0.26223,-0.26426,-0.717829
1498,0.011401,0.997893,0.06376,-0.0042899999999999,0.373902,-0.985299
1499,0.013887,0.994394,0.104753,-0.021654,-0.073007,-0.654436
1500,0.012871,0.990456,0.137176,0.013267,-0.379815,-0.411438
1501,0.006292,0.988875,0.14857,0.037775,-0.723647,-0.79713
1502,-0.007204,0.991209,0.1320569999999999,-0.386152,0.117998,1.817024
1503,-0.027947,0.992335,0.120323,-0.751777,1.690191,1.671242
1504,-0.046075,0.99196,0.117814,-1.525871,1.8571,0.768432
1505,-0.04258,0.988345,0.146109,-0.743965,1.962583,-0.00852
1506,-0.037501,0.979252,0.1991099999999999,0.111125,0.45782,-1.425123
1507,-0.0220509999999999,0.977593,0.20931,0.216189,-0.470925,0.548854
1508,-0.03941,0.974017,0.222989,0.3578449999999999,-0.070757,0.577808
1509,-0.055563,0.970795,0.233356,0.457343,0.067932,0.552487
1510,-0.06062,0.967244,0.2464739999999999,0.536633,0.7873180000000001,0.108842
1511,-0.065579,0.956425,0.284494,0.484799,1.021572,-0.508157
1512,-0.079619,0.933935,0.348442,0.127623,0.817973,-0.459556
1513,-0.1064869999999999,0.914357,0.390635,-0.082295,0.6957810000000001,-1.357523
1514,-0.13425,0.898565,0.417781,0.4023469999999999,0.529704,-0.8601340000000001
1515,-0.148556,0.881243,0.448692,0.535092,0.322248,-0.8295819999999999
1516,-0.1748559999999999,0.857715,0.483459,0.804358,-0.099811,-1.411834
1517,-0.200725,0.843548,0.498116,0.823268,-0.003628,-1.011498
1518,-0.215605,0.83926,0.499139,0.756636,-0.096432,-0.93081
1519,-0.2234679999999999,0.843225,0.488893,0.359607,-0.475976,-1.010713
1520,-0.218275,0.8553120000000001,0.469872,0.237486,-0.425548,-0.655862
1521,-0.209815,0.8726459999999999,0.440964,0.143562,-0.51765,-0.38855
1522,-0.203979,0.8916930000000001,0.4040539999999999,0.154098,-0.32637,0.075179
1523,-0.186596,0.914154,0.359844,0.480251,0.3961949999999999,0.265873
1524,-0.146786,0.936987,0.317006,0.386517,1.053293,0.303157
1525,-0.085647,0.95969,0.267663,-0.2334909999999999,1.846538,-0.275094
1526,-0.0258189999999999,0.974991,0.2207039999999999,-0.464599,1.226639,-0.247133
1527,0.012988,0.98592,0.166669,-0.6380640000000001,1.328655,-0.046521
1528,0.033799,0.993211,0.111243,-1.054749,1.012968,0.177774
1529,0.049881,0.997135,0.056748,-0.591766,-0.15749,-0.06485
1530,0.07674,0.996907,0.016566,-0.121417,-0.151326,-0.030879
1531,0.087869,0.996125,-0.000842,0.377936,0.0367269999999999,0.145572
1532,0.094385,0.995326,-0.020145,0.481512,0.154927,0.197101
1533,0.088264,0.994569,-0.055057,0.324044,0.020049,0.278918
1534,0.080124,0.992467,-0.092621,-0.053207,-0.645314,0.4825899999999999
1535,0.070524,0.989369,-0.127143,-0.108625,-0.918141,0.51641
1536,0.0612429999999999,0.986648,-0.1508779999999999,-0.209711,-1.2491,0.553344
1537,0.052064,0.985571,-0.161026,-0.22516,-1.413092,0.45636
1538,0.0418329999999999,0.98712,-0.154385,-0.119958,-1.143812,0.2807429999999999
1539,0.032246,0.989972,-0.137496,0.014033,-0.959592,0.235762
1540,0.027598,0.993304,-0.112134,0.019796,-0.434375,-0.109805
1541,0.029868,0.996239,-0.08127,-0.1417,0.7331310000000001,-0.8697950000000001
1542,0.029263,0.998029,-0.055415,-0.201962,1.62601,-1.553517
1543,0.029157,0.996894,-0.073085,0.521686,0.7750630000000001,-1.418034
1544,0.0343129999999999,0.993019,-0.1128049999999999,-0.074337,-0.369225,-0.398944
1545,0.036196,0.990441,-0.133064,-0.283938,-0.554711,-0.058815
1546,0.039096,0.990735,-0.130024,-0.518191,-0.409207,0.12122
1547,0.04452,0.991921,-0.118751,-0.481272,0.633247,0.243522
1548,0.050798,0.994189,-0.094863,-0.40526,1.384717,0.294082
1549,0.052679,0.996453,-0.06555,-0.721426,0.674323,-0.3993239999999999
1550,0.0604899999999999,0.99558,-0.071778,-0.450916,-0.78127,1.232789
1551,0.066921,0.995397,-0.068539,-0.547786,-0.7758229999999999,0.923108
1552,0.065052,0.997343,-0.032643,-0.265827,-0.712019,0.8390850000000001
1553,0.045674,0.998566,0.027743,-0.147068,-0.3952179999999999,0.615034
1554,0.009041,0.995397,0.095353,-0.114739,-0.11672,0.461104
1555,-0.033045,0.984906,0.169873,-0.168966,0.8625360000000001,0.368304
1556,-0.048359,0.969211,0.241412,0.3875619999999999,0.887677,0.483411
1557,-0.0454,0.956845,0.28701,0.607152,0.6215390000000001,0.383767
1558,-0.042709,0.950678,0.307204,1.011978,-0.077677,-0.3396139999999999
1559,-0.049535,0.945053,0.323126,0.734883,-0.146118,-0.6584369999999999
1560,-0.0617389999999999,0.930241,0.361701,0.4463819999999999,-0.2269179999999999,-0.454321
1561,-0.056524,0.912059,0.406131,0.251943,-0.225505,-0.230213
1562,-0.036194,0.8986370000000001,0.437184,0.08377,-0.169526,-0.219182
1563,-0.0295329999999999,0.886524,0.461725,0.037131,-0.125141,-0.247446
1564,-0.0500899999999999,0.870935,0.488827,-0.02306,0.199943,-0.418072
1565,-0.089289,0.848972,0.520828,-0.079367,0.284298,-0.525909
1566,-0.119618,0.8262209999999999,0.550489,-0.096813,0.279477,-0.591673
1567,-0.133856,0.8149430000000001,0.563859,0.157659,0.178465,-0.822053
1568,-0.146239,0.809106,0.569164,0.348601,0.225775,-0.648647
1569,-0.1602839999999999,0.799822,0.57843,0.436896,0.321303,-0.5213770000000001
1570,-0.172599,0.794862,0.581713,0.5803590000000001,0.4258409999999999,-0.347491
1571,-0.182917,0.793039,0.581048,0.6317550000000001,0.460959,-0.3345579999999999
1572,-0.194025,0.79066,0.5806859999999999,0.747736,0.545354,-0.490705
1573,-0.202795,0.787101,0.582521,0.6986899999999999,0.457207,-0.713609
1574,-0.209353,0.786837,0.580553,0.304278,0.584394,-1.089312
1575,-0.2114849999999999,0.80229,0.5582010000000001,0.2241199999999999,0.732775,-1.096928
1576,-0.19448,0.8324969999999999,0.51876,-0.176004,0.6592020000000001,-1.103965
1577,-0.178482,0.872532,0.454773,-0.222687,0.658428,-0.955627
1578,-0.1664,0.913583,0.371031,0.1038849999999999,0.767844,0.292452
1579,-0.138013,0.948183,0.286161,0.106076,0.671095,0.867632
1580,-0.1031339999999999,0.972947,0.206705,-0.273789,0.80957,0.7296199999999999
1581,-0.089298,0.986836,0.134793,-0.581662,1.061916,0.300068
1582,-0.1046619999999999,0.991122,0.081932,-1.2541790000000002,0.577466,-0.689217
1583,-0.086051,0.994172,0.064861,-0.606088,0.098479,0.156712
1584,-0.064917,0.997743,0.016856,-0.2245579999999999,-0.177385,0.372243
1585,-0.078042,0.995068,-0.061151,0.314981,-0.592572,0.406885
1586,-0.090441,0.988772,-0.118918,0.574969,-0.358493,0.302435
1587,-0.095897,0.98126,-0.1671089999999999,0.636256,-0.367139,0.271327
1588,-0.102447,0.970517,-0.218159,0.460601,-0.350614,0.3165929999999999
1589,-0.103991,0.959876,-0.260416,0.155016,-0.430152,0.494455
1590,-0.114017,0.94986,-0.291134,0.137454,-0.527421,0.597012
1591,-0.126915,0.942782,-0.308299,-0.0877,-0.7215600000000001,0.686443
1592,-0.138603,0.941251,-0.3079429999999999,-0.131462,-0.75868,0.6736810000000001
1593,-0.145385,0.94465,-0.294098,0.000625,-0.733834,0.5222479999999999
1594,-0.143591,0.95239,-0.268938,0.228339,-0.6201300000000001,0.225023
1595,-0.126437,0.964766,-0.230723,0.228442,-0.574019,0.01504
1596,-0.0948669999999999,0.977284,-0.189495,-0.2185949999999999,0.664439,-1.654621
1597,-0.049224,0.984473,-0.168473,-0.843827,1.856943,-2.6721790000000003
1598,-0.033109,0.985334,-0.167373,-0.796237,0.423129,-0.749818
1599,-0.033373,0.987534,-0.153806,-0.5564560000000001,-0.116791,-0.69443
1600,-0.035456,0.987745,-0.151967,-0.505834,-0.675413,0.06072
1601,-0.047486,0.988739,-0.1418849999999999,-0.368331,-0.11406,0.450586
1602,-0.063526,0.992475,-0.1046359999999999,0.8177220000000001,1.283068,1.069587
1603,-0.054636,0.994564,-0.088595,-0.296606,1.215351,-1.948042
1604,-0.037283,0.99648,-0.075033,0.0884,-0.204121,1.005117
1605,-0.0363089999999999,0.996792,-0.071269,-0.016334,-0.518566,1.282115
1606,-0.035217,0.997492,-0.061334,-0.132706,-0.628443,0.5582520000000001
1607,-0.036133,0.99878,-0.0335279999999999,-0.004074,-0.463883,0.310291
1608,-0.048457,0.998632,0.019398,-0.000432,-0.230963,0.28793
1609,-0.071552,0.993226,0.091501,-0.204266,0.483519,0.601355
1610,-0.084803,0.983447,0.160091,-0.090261,0.505642,0.4443399999999999
1611,-0.084909,0.974511,0.2076239999999999,0.052988,0.4352479999999999,0.24219
1612,-0.0908139999999999,0.969003,0.229731,0.262994,-0.006081,-0.045252
1613,-0.100839,0.966271,0.2369409999999999,0.340203,-0.125268,-0.1244079999999999
1614,-0.100521,0.964777,0.243086,0.464779,-0.322137,-0.171736
1615,-0.083376,0.959991,0.267309,0.575076,-0.19284,0.079569
1616,-0.064026,0.951497,0.300904,0.641877,0.034953,0.103546
1617,-0.066611,0.944483,0.321719,0.4558779999999999,0.062841,0.010587
1618,-0.07748,0.939808,0.332787,0.421062,0.1040609999999999,-0.100808
1619,-0.095498,0.934397,0.343179,0.436272,0.044272,-0.275766
1620,-0.123629,0.926246,0.356053,0.481051,-0.028418,-0.345234
1621,-0.150229,0.917185,0.369042,0.53884,-0.10792,-0.36335
1622,-0.1706329999999999,0.907701,0.383343,0.329279,0.097945,-0.355938
1623,-0.179926,0.8979799999999999,0.401554,0.2254429999999999,0.162475,-0.4754069999999999
1624,-0.178896,0.884625,0.430608,0.119372,0.315357,-0.6472680000000001
1625,-0.174729,0.8634879999999999,0.473122,0.499222,0.229651,-0.8224870000000001
1626,-0.193792,0.85195,0.4864279999999999,0.585623,0.312051,-0.738793
1627,-0.219921,0.8552709999999999,0.469183,0.5320090000000001,0.309264,-0.5963189999999999
1628,-0.224779,0.85835,0.4611909999999999,0.467225,0.4160939999999999,-0.415674
1629,-0.2236449999999999,0.858403,0.4616439999999999,0.4163779999999999,0.404796,-0.5246930000000001
1630,-0.2269719999999999,0.8586159999999999,0.4596189999999999,0.33592,0.450771,-0.899072
1631,-0.241025,0.8720620000000001,0.425913,0.311322,0.695473,-0.903513
1632,-0.236767,0.8977430000000001,0.3714659999999999,0.207637,0.641167,-0.745871
1633,-0.2277969999999999,0.925968,0.301134,0.0434709999999999,0.475171,-0.6128399999999999
1634,-0.228476,0.950901,0.208752,0.433997,0.6532859999999999,0.732456
1635,-0.21643,0.968978,0.119291,0.388885,0.672501,0.995897
1636,-0.1951119999999999,0.980053,0.0376769999999999,-0.057848,1.100269,0.683392
1637,-0.183699,0.982349,-0.035193,-0.2153179999999999,1.174893,0.500693
1638,-0.189613,0.978321,-0.083235,-0.597114,0.845882,-0.494158
1639,-0.189245,0.978079,-0.086839,-0.789667,0.174433,0.204058
1640,-0.190695,0.972723,-0.132056,-0.603769,-0.018973,0.720847
1641,-0.194024,0.958605,-0.208389,-0.058128,-0.332873,0.662903
1642,-0.1982539999999999,0.944376,-0.262384,0.488796,-0.378336,0.523401
1643,-0.212862,0.927514,-0.307252,0.702395,-0.340172,0.442125
1644,-0.22988,0.906347,-0.354524,0.740897,-0.265599,0.4653029999999999
1645,-0.234226,0.8894209999999999,-0.3925119999999999,0.521137,-0.370683,0.455302
1646,-0.241163,0.876093,-0.4174899999999999,0.156492,-0.659281,0.5930880000000001
1647,-0.25401,0.867083,-0.428535,0.1270869999999999,-0.6728390000000001,0.649223
1648,-0.271891,0.864431,-0.422885,0.231501,-0.737462,0.742007
1649,-0.2883409999999999,0.8680760000000001,-0.404104,0.268001,-0.76868,0.559423
1650,-0.299257,0.8775639999999999,-0.374596,0.305193,-0.801103,0.422692
1651,-0.297659,0.894475,-0.333631,0.420508,-0.473012,0.003629
1652,-0.274129,0.917832,-0.287112,0.110052,0.310058,-1.153088
1653,-0.2362449999999999,0.935551,-0.2625429999999999,-0.673988,2.224941,-2.5247040000000003
1654,-0.22601,0.934923,-0.2735579999999999,-0.140781,1.022047,-0.534043
1655,-0.229302,0.937261,-0.262601,-0.17997,-0.183415,-0.467196
1656,-0.236259,0.935535,-0.262586,-0.4266439999999999,-0.377521,-0.231371
1657,-0.254281,0.936202,-0.242614,-0.288352,0.4505159999999999,0.550842
1658,-0.271015,0.936706,-0.2216469999999999,0.460514,0.941041,0.7222729999999999
1659,-0.259775,0.938714,-0.226556,-0.219977,0.4738989999999999,-0.284675
1660,-0.255265,0.94232,-0.21649,0.17949,-0.200865,0.6080760000000001
1661,-0.263432,0.944206,-0.19767,0.177174,-0.415901,0.8640059999999999
1662,-0.266744,0.947429,-0.176696,0.181478,-0.31129,0.7782279999999999
1663,-0.266352,0.952105,-0.1501579999999999,0.263072,-0.148577,0.645367
1664,-0.268472,0.956678,-0.112624,0.331475,0.103029,0.625045
1665,-0.271775,0.960406,-0.061261,0.419892,0.249173,0.599698
1666,-0.281283,0.959502,-0.015146,0.581942,0.521897,0.436593
1667,-0.295116,0.955211,0.0217389999999999,0.724758,0.082951,0.164846
1668,-0.29898,0.952641,0.055495,0.761596,-0.062596,0.029069
1669,-0.292527,0.954373,0.059951,0.647095,-0.05708,-0.298415
1670,-0.2841639999999999,0.956544,0.065333,0.42015,-0.084428,-0.276606
1671,-0.271802,0.957678,0.094706,0.3576789999999999,-0.107565,-0.208247
1672,-0.256696,0.95857,0.12347,0.2852139999999999,-0.143598,-0.0724139999999999
1673,-0.246865,0.958793,0.140593,0.2201469999999999,-0.0308449999999999,-0.042936
1674,-0.246637,0.957448,0.149855,0.220545,0.045543,-0.092863
1675,-0.254571,0.953714,0.160053,0.2143489999999999,0.081854,-0.1261789999999999
1676,-0.264413,0.948109,0.176545,0.363183,0.082546,-0.309754
1677,-0.274791,0.939698,0.203599,0.527309,0.263198,-0.5123449999999999
1678,-0.284409,0.929103,0.236377,0.606843,0.135167,-0.619846
1679,-0.291517,0.921366,0.257094,0.560483,0.139349,-0.549041
1680,-0.299888,0.915157,0.26935,0.533591,0.207249,-0.438433
1681,-0.308323,0.910927,0.274126,0.346637,0.333046,-0.299166
1682,-0.312119,0.909959,0.273042,0.1335299999999999,0.42987,-0.393205
1683,-0.313342,0.910505,0.269801,0.039416,0.461031,-0.537776
1684,-0.324441,0.914876,0.240285,0.4810569999999999,0.74554,-0.744054
1685,-0.344175,0.92117,0.181616,0.70207,0.86629,-0.735892
1686,-0.363639,0.925151,0.108898,0.8410559999999999,0.8671620000000001,-0.6714899999999999
1687,-0.379148,0.924875,0.029157,1.25665,0.740912,0.466113
1688,-0.386457,0.921622,-0.035513,1.230924,0.80285,1.015982
1689,-0.385035,0.918804,-0.086855,0.945902,0.931782,0.98926
1690,-0.375335,0.9155,-0.144843,0.353195,0.755444,0.836311
1691,-0.359553,0.909159,-0.2101179999999999,0.285044,0.650351,0.769933
1692,-0.328864,0.908538,-0.25769,0.165122,0.174561,0.492188
1693,-0.284686,0.923424,-0.257369,0.5045350000000001,0.215034,0.113417
1694,-0.249335,0.928389,-0.275544,0.411292,0.171968,0.289475
1695,-0.2441489999999999,0.918132,-0.312126,0.346016,0.016881,0.477775
1696,-0.257328,0.906142,-0.3356889999999999,0.61797,-0.13626,0.7535970000000001
1697,-0.263936,0.89666,-0.355438,0.605993,-0.066185,0.705871
1698,-0.266732,0.8900290000000001,-0.369729,0.550607,-0.014679,0.716119
1699,-0.277944,0.884242,-0.375314,0.255361,-0.272487,0.927316
1700,-0.291969,0.8813629999999999,-0.3714179999999999,0.0305709999999999,-0.443924,0.8778879999999999
1701,-0.303033,0.8835370000000001,-0.357117,-0.113929,-0.595542,0.810852
1702,-0.310552,0.8905059999999999,-0.332498,-0.079997,-0.669269,0.736001
1703,-0.313477,0.901511,-0.2983429999999999,-0.057525,-0.68833,0.578982
1704,-0.311844,0.915092,-0.25565,-0.125595,-0.631767,0.427708
1705,-0.307712,0.930026,-0.200906,-0.143353,-0.249911,0.279459
1706,-0.305012,0.943103,-0.132373,-0.076031,0.791791,-0.588208
1707,-0.304823,0.948715,-0.083782,0.197173,2.08783,-2.50864
1708,-0.3039449999999999,0.948448,-0.089784,0.5069170000000001,0.8722,-1.1755520000000002
1709,-0.297984,0.949344,-0.09975,0.332988,-0.034655,-0.648388
1710,-0.284913,0.952163,-0.1104869999999999,0.138428,-0.2219539999999999,-0.687059
1711,-0.282731,0.954198,-0.097812,0.415529,-0.208394,1.433261
1712,-0.292835,0.953505,-0.071224,0.564427,-0.221236,1.832103
1713,-0.298381,0.951033,-0.080645,0.079631,0.100466,0.736757
1714,-0.287972,0.952367,-0.100333,-0.080497,0.048365,0.37493
1715,-0.2710909999999999,0.956918,-0.103997,-0.067914,0.433158,0.288826
1716,-0.267173,0.960394,-0.0791169999999999,0.0305399999999999,0.836298,0.330627
1717,-0.282411,0.958663,-0.03474,0.230103,0.07219,0.181117
1718,-0.298124,0.954377,0.016838,0.6285689999999999,0.053359,-0.606117
1719,-0.308401,0.948502,0.072325,0.694326,0.178466,-0.515333
1720,-0.3079989999999999,0.945449,0.106121,0.60431,0.339342,-0.107097
1721,-0.290954,0.948071,0.128468,0.332382,0.09859,0.142345
1722,-0.260341,0.952771,0.156355,0.264705,-0.0286839999999999,0.156649
1723,-0.2285,0.955651,0.185782,0.1252589999999999,-0.210733,0.058984
1724,-0.20323,0.955877,0.212119,-0.10274,-0.265462,-0.467139
1725,-0.186308,0.952669,0.240226,-0.261736,-0.208178,-0.724967
1726,-0.179849,0.949701,0.256357,-0.257911,0.021368,-0.606531
1727,-0.176521,0.952115,0.249629,-0.0291519999999999,0.312808,-0.558818
1728,-0.179329,0.956285,0.2309909999999999,-0.018409,0.195692,-0.5969270000000001
1729,-0.1860119999999999,0.957869,0.218824,0.0567549999999999,-0.21852,-0.314726
1730,-0.1971109999999999,0.956672,0.2142949999999999,0.2113469999999999,-0.331383,-0.264237
1731,-0.210981,0.956776,0.200159,0.286207,-0.256596,-0.550242
1732,-0.223689,0.958115,0.178817,0.173518,0.010009,-0.4414359999999999
1733,-0.234354,0.957901,0.1658339999999999,0.275339,0.016586,-0.290194
1734,-0.242684,0.9578,0.154014,0.23568,-0.25228,0.1092619999999999
1735,-0.2475139999999999,0.958321,0.142671,0.2072159999999999,-0.221428,-0.002306
1736,-0.251393,0.958452,0.134792,0.242162,-0.2227489999999999,-0.028347
1737,-0.255503,0.958255,0.128308,0.349726,-0.203494,-0.140164
1738,-0.257853,0.959425,0.114077,0.726648,0.06592,-0.487368
1739,-0.259198,0.961691,0.089244,0.642484,0.071024,-0.567195
1740,-0.256105,0.964839,0.059096,0.517504,0.206181,-0.869613
1741,-0.249361,0.968353,0.010405,0.509798,0.473114,-0.806761
1742,-0.2370719999999999,0.969939,-0.0548899999999999,0.533855,1.10428,-0.7266199999999999
1743,-0.2224159999999999,0.966494,-0.128131,0.366795,1.134107,-0.332929
1744,-0.214617,0.956032,-0.199852,0.501985,0.692665,0.8344959999999999
1745,-0.208969,0.943515,-0.257117,0.4404909999999999,0.325315,1.1951969999999998
1746,-0.194129,0.933127,-0.302632,0.40351,0.1386349999999999,0.896076
1747,-0.169683,0.92371,-0.343459,-0.358454,0.498195,-0.800447
1748,-0.14001,0.916783,-0.374038,-0.697225,0.8383139999999999,-0.726029
1749,-0.1212829999999999,0.911316,-0.393434,-0.65452,0.5435479999999999,0.293214
1750,-0.106001,0.908534,-0.404138,-0.012835,-0.235362,0.1042869999999999
1751,-0.096358,0.90911,-0.405256,0.182586,-0.269705,0.082716
1752,-0.09746,0.912933,-0.396298,0.373202,-0.31961,0.2348449999999999
1753,-0.108287,0.918438,-0.380451,0.222926,-0.5124479999999999,0.468784
