,Attitude Roll,Attitude Pitch,Attitude Azimuth,Gravity X,Gravity Y,Gravity Z,Rotation Rate X,Rotation Rate Y,Rotation Rate Z,User Acceleration X,User Acceleration Z,User Acceleration Y
221,0.7080785874426652,0.019513620027950714,0.6113535665741768,-0.03502841716372955,0.3553929330207406,-0.6973319463917564,0.00992506109666786,0.7080707898595829,-0.004006477824327171,0.23633496178063831,0.0037554228384400184,-0.02917009080254735
222,0.7080785874426652,0.019513620027950714,0.6113535665741768,-0.03502841716372955,0.3553929330207406,-0.6973319463917564,0.00992506109666786,0.7080707898595829,-0.004006477824327171,0.23633496178063831,0.0037554228384400184,-0.02917009080254735
223,0.7080785874426652,0.019513620027950714,0.6113535665741768,-0.03502841716372955,0.3553929330207406,-0.6973319463917564,0.00992506109666786,0.7080707898595829,-0.004006477824327171,0.23633496178063831,0.0037554228384400184,-0.02917009080254735
224,0.7080785874426652,0.019513620027950714,0.6113535665741768,-0.03502841716372955,0.3553929330207406,-0.6973319463917564,0.00992506109666786,0.7080707898595829,-0.004006477824327171,0.23633496178063831,0.0037554228384400184,-0.02917009080254735
225,0.7080785874426652,0.019513620027950714,0.6113535665741768,-0.03502841716372955,0.3553929330207406,-0.6973319463917564,0.00992506109666786,0.7080707898595829,-0.004006477824327171,0.23633496178063831,0.0037554228384400184,-0.02917009080254735
226,0.7080785874426652,0.019513620027950714,0.6113535665741768,-0.03502841716372955,0.3553929330207406,-0.6973319463917564,0.00992506109666786,0.7080707898595829,-0.004006477824327171,0.23633496178063831,0.0037554228384400184,-0.02917009080254735
227,0.7129943395788731,-0.0588083396140678,0.6115482482654939,0.10563475621786349,0.3526305673798354,-0.6979231570070595,0.00871071523537693,0.57724789790499,-0.007870049455616005,0.13996802085927765,-0.015535817220098575,-0.0420335107018878
228,0.7129943395788731,-0.0588083396140678,0.6115482482654939,0.10563475621786349,0.3526305673798354,-0.6979231570070595,0.00871071523537693,0.57724789790499,-0.007870049455616005,0.13996802085927765,-0.015535817220098575,-0.0420335107018878
229,0.7129943395788731,-0.0588083396140678,0.6115482482654939,0.10563475621786349,0.3526305673798354,-0.6979231570070595,0.00871071523537693,0.57724789790499,-0.007870049455616005,0.13996802085927765,-0.015535817220098575,-0.0420335107018878
230,0.7129943395788731,-0.0588083396140678,0.6115482482654939,0.10563475621786349,0.3526305673798354,-0.6979231570070595,0.00871071523537693,0.57724789790499,-0.007870049455616005,0.13996802085927765,-0.015535817220098575,-0.0420335107018878
231,0.7129943395788731,-0.0588083396140678,0.6115482482654939,0.10563475621786349,0.3526305673798354,-0.6979231570070595,0.00871071523537693,0.57724789790499,-0.007870049455616005,0.13996802085927765,-0.015535817220098575,-0.0420335107018878
232,0.7129943395788731,-0.0588083396140678,0.6115482482654939,0.10563475621786349,0.3526305673798354,-0.6979231570070595,0.00871071523537693,0.57724789790499,-0.007870049455616005,0.13996802085927765,-0.015535817220098575,-0.0420335107018878
233,0.7178527127267316,-0.1378629634915032,0.6115953645584762,0.2481755809119285,0.3498051528253156,-0.6984912828265317,0.007634503583503883,0.4623039016384665,-0.010416842333662631,0.15221088936275037,0.009570228248907612,-0.024679839984553305
234,0.7178527127267316,-0.1378629634915032,0.6115953645584762,0.2481755809119285,0.3498051528253156,-0.6984912828265317,0.007634503583503883,0.4623039016384665,-0.010416842333662631,0.15221088936275037,0.009570228248907612,-0.024679839984553305
235,0.7178527127267316,-0.1378629634915032,0.6115953645584762,0.2481755809119285,0.3498051528253156,-0.6984912828265317,0.007634503583503883,0.4623039016384665,-0.010416842333662631,0.15221088936275037,0.009570228248907612,-0.024679839984553305
236,0.7178527127267316,-0.1378629634915032,0.6115953645584762,0.2481755809119285,0.3498051528253156,-0.6984912828265317,0.007634503583503883,0.4623039016384665,-0.010416842333662631,0.15221088936275037,0.009570228248907612,-0.024679839984553305
237,0.7178527127267316,-0.1378629634915032,0.6115953645584762,0.2481755809119285,0.3498051528253156,-0.6984912828265317,0.007634503583503883,0.4623039016384665,-0.010416842333662631,0.15221088936275037,0.009570228248907612,-0.024679839984553305
238,0.7178527127267316,-0.1378629634915032,0.6115953645584762,0.2481755809119285,0.3498051528253156,-0.6984912828265317,0.007634503583503883,0.4623039016384665,-0.010416842333662631,0.15221088936275037,0.009570228248907612,-0.024679839984553305
239,0.7219990198756586,-0.2052033655079384,0.610227976491989,0.3699508600852439,0.3466502879191315,-0.6991046788300359,0.007024237857473194,0.36513475704035747,-0.012152132026014171,0.03370093401444086,0.0014646613744659798,-0.03032625823767312
240,0.7219990198756586,-0.2052033655079384,0.610227976491989,0.3699508600852439,0.3466502879191315,-0.6991046788300359,0.007024237857473194,0.36513475704035747,-0.012152132026014171,0.03370093401444086,0.0014646613744659798,-0.03032625823767312
241,0.7219990198756586,-0.2052033655079384,0.610227976491989,0.3699508600852439,0.3466502879191315,-0.6991046788300359,0.007024237857473194,0.36513475704035747,-0.012152132026014171,0.03370093401444086,0.0014646613744659798,-0.03032625823767312
242,0.7219990198756586,-0.2052033655079384,0.610227976491989,0.3699508600852439,0.3466502879191315,-0.6991046788300359,0.007024237857473194,0.36513475704035747,-0.012152132026014171,0.03370093401444086,0.0014646613744659798,-0.03032625823767312
243,0.7219990198756586,-0.2052033655079384,0.610227976491989,0.3699508600852439,0.3466502879191315,-0.6991046788300359,0.007024237857473194,0.36513475704035747,-0.012152132026014171,0.03370093401444086,0.0014646613744659798,-0.03032625823767312
244,0.7219990198756586,-0.2052033655079384,0.610227976491989,0.3699508600852439,0.3466502879191315,-0.6991046788300359,0.007024237857473194,0.36513475704035747,-0.012152132026014171,0.03370093401444086,0.0014646613744659798,-0.03032625823767312
245,0.7219990198756586,-0.2052033655079384,0.610227976491989,0.3699508600852439,0.3466502879191315,-0.6991046788300359,0.007024237857473194,0.36513475704035747,-0.012152132026014171,0.03370093401444086,0.0014646613744659798,-0.03032625823767312
246,0.7219990198756586,-0.2052033655079384,0.610227976491989,0.4900736290692273,0.3434420051390557,-0.699700761236667,0.007108768067652809,0.2892954344443459,-0.013121853751647457,0.012548355461545084,0.0033112639788890307,-0.020821268044954478
247,0.7219990198756586,-0.2052033655079384,0.610227976491989,0.4900736290692273,0.3434420051390557,-0.699700761236667,0.007108768067652809,0.2892954344443459,-0.013121853751647457,0.012548355461545084,0.0033112639788890307,-0.020821268044954478
248,0.7219990198756586,-0.2052033655079384,0.610227976491989,0.4900736290692273,0.3434420051390557,-0.699700761236667,0.007108768067652809,0.2892954344443459,-0.013121853751647457,0.012548355461545084,0.0033112639788890307,-0.020821268044954478
249,0.7219990198756586,-0.2052033655079384,0.610227976491989,0.4900736290692273,0.3434420051390557,-0.699700761236667,0.007108768067652809,0.2892954344443459,-0.013121853751647457,0.012548355461545084,0.0033112639788890307,-0.020821268044954478
250,0.7219990198756586,-0.2052033655079384,0.610227976491989,0.4900736290692273,0.3434420051390557,-0.699700761236667,0.007108768067652809,0.2892954344443459,-0.013121853751647457,0.012548355461545084,0.0033112639788890307,-0.020821268044954478
251,0.7219990198756586,-0.2052033655079384,0.610227976491989,0.4900736290692273,0.3434420051390557,-0.699700761236667,0.007108768067652809,0.2892954344443459,-0.013121853751647457,0.012548355461545084,0.0033112639788890307,-0.020821268044954478
252,0.7293240307511509,-0.32638701771993733,0.6069974175504284,0.5904386906567809,0.3402447407270439,-0.7002838771833022,0.007737589016740714,0.2347859190095794,-0.014331451781459276,0.007435312816591631,0.010676197185499591,-0.010263068701671148
253,0.7293240307511509,-0.32638701771993733,0.6069974175504284,0.5904386906567809,0.3402447407270439,-0.7002838771833022,0.007737589016740714,0.2347859190095794,-0.014331451781459276,0.007435312816591631,0.010676197185499591,-0.010263068701671148
254,0.7293240307511509,-0.32638701771993733,0.6069974175504284,0.5904386906567809,0.3402447407270439,-0.7002838771833022,0.007737589016740714,0.2347859190095794,-0.014331451781459276,0.007435312816591631,0.010676197185499591,-0.010263068701671148
255,0.7293240307511509,-0.32638701771993733,0.6069974175504284,0.5904386906567809,0.3402447407270439,-0.7002838771833022,0.007737589016740714,0.2347859190095794,-0.014331451781459276,0.007435312816591631,0.010676197185499591,-0.010263068701671148
256,0.7293240307511509,-0.32638701771993733,0.6069974175504284,0.5904386906567809,0.3402447407270439,-0.7002838771833022,0.007737589016740714,0.2347859190095794,-0.014331451781459276,0.007435312816591631,0.010676197185499591,-0.010263068701671148
257,0.7293240307511509,-0.32638701771993733,0.6069974175504284,0.5904386906567809,0.3402447407270439,-0.7002838771833022,0.007737589016740714,0.2347859190095794,-0.014331451781459276,0.007435312816591631,0.010676197185499591,-0.010263068701671148
258,0.7293240307511509,-0.32638701771993733,0.6069974175504284,0.6606878292363613,0.3382413354128741,-0.7006303739726717,0.008426199555837335,0.19323228952122745,-0.017587672403945653,-0.053331877507938164,0.0050790427647625916,-0.03428527610265759
259,0.7293240307511509,-0.32638701771993733,0.6069974175504284,0.6606878292363613,0.3382413354128741,-0.7006303739726717,0.008426199555837335,0.19323228952122745,-0.017587672403945653,-0.053331877507938164,0.0050790427647625916,-0.03428527610265759
260,0.7293240307511509,-0.32638701771993733,0.6069974175504284,0.6606878292363613,0.3382413354128741,-0.7006303739726717,0.008426199555837335,0.19323228952122745,-0.017587672403945653,-0.053331877507938164,0.0050790427647625916,-0.03428527610265759
261,0.7293240307511509,-0.32638701771993733,0.6069974175504284,0.6606878292363613,0.3382413354128741,-0.7006303739726717,0.008426199555837335,0.19323228952122745,-0.017587672403945653,-0.053331877507938164,0.0050790427647625916,-0.03428527610265759
262,0.7293240307511509,-0.32638701771993733,0.6069974175504284,0.6606878292363613,0.3382413354128741,-0.7006303739726717,0.008426199555837335,0.19323228952122745,-0.017587672403945653,-0.053331877507938164,0.0050790427647625916,-0.03428527610265759
263,0.7293240307511509,-0.32638701771993733,0.6069974175504284,0.6606878292363613,0.3382413354128741,-0.7006303739726717,0.008426199555837335,0.19323228952122745,-0.017587672403945653,-0.053331877507938164,0.0050790427647625916,-0.03428527610265759
264,0.7333064355774447,-0.39142710236404027,0.6017523370290998,0.7101471892393181,0.33665815299975704,-0.7009037189414863,0.008698344441149565,0.16123757135893366,-0.022793543878003916,-0.017762501408221592,0.007037459819086877,-0.017213890186944483
265,0.7333064355774447,-0.39142710236404027,0.6017523370290998,0.7101471892393181,0.33665815299975704,-0.7009037189414863,0.008698344441149565,0.16123757135893366,-0.022793543878003916,-0.017762501408221592,0.007037459819086877,-0.017213890186944483
266,0.7333064355774447,-0.39142710236404027,0.6017523370290998,0.7101471892393181,0.33665815299975704,-0.7009037189414863,0.008698344441149565,0.16123757135893366,-0.022793543878003916,-0.017762501408221592,0.007037459819086877,-0.017213890186944483
267,0.7333064355774447,-0.39142710236404027,0.6017523370290998,0.7101471892393181,0.33665815299975704,-0.7009037189414863,0.008698344441149565,0.16123757135893366,-0.022793543878003916,-0.017762501408221592,0.007037459819086877,-0.017213890186944483
268,0.7333064355774447,-0.39142710236404027,0.6017523370290998,0.7101471892393181,0.33665815299975704,-0.7009037189414863,0.008698344441149565,0.16123757135893366,-0.022793543878003916,-0.017762501408221592,0.007037459819086877,-0.017213890186944483
269,0.7333064355774447,-0.39142710236404027,0.6017523370290998,0.7101471892393181,0.33665815299975704,-0.7009037189414863,0.008698344441149565,0.16123757135893366,-0.022793543878003916,-0.017762501408221592,0.007037459819086877,-0.017213890186944483
270,0.7333064355774447,-0.39142710236404027,0.6017523370290998,0.7237109457491014,0.3358835880955658,-0.7010473243597064,0.00842207563500027,0.1443317183750937,-0.027453306491908188,-0.05664142867918084,0.01526436194219318,-0.012473249638638375
271,0.7333064355774447,-0.39142710236404027,0.6017523370290998,0.7237109457491014,0.3358835880955658,-0.7010473243597064,0.00842207563500027,0.1443317183750937,-0.027453306491908188,-0.05664142867918084,0.01526436194219318,-0.012473249638638375
272,0.7333064355774447,-0.39142710236404027,0.6017523370290998,0.7237109457491014,0.3358835880955658,-0.7010473243597064,0.00842207563500027,0.1443317183750937,-0.027453306491908188,-0.05664142867918084,0.01526436194219318,-0.012473249638638375
273,0.7333064355774447,-0.39142710236404027,0.6017523370290998,0.7237109457491014,0.3358835880955658,-0.7010473243597064,0.00842207563500027,0.1443317183750937,-0.027453306491908188,-0.05664142867918084,0.01526436194219318,-0.012473249638638375
274,0.7333064355774447,-0.39142710236404027,0.6017523370290998,0.7237109457491014,0.3358835880955658,-0.7010473243597064,0.00842207563500027,0.1443317183750937,-0.027453306491908188,-0.05664142867918084,0.01526436194219318,-0.012473249638638375
275,0.7333064355774447,-0.39142710236404027,0.6017523370290998,0.7237109457491014,0.3358835880955658,-0.7010473243597064,0.00842207563500027,0.1443317183750937,-0.027453306491908188,-0.05664142867918084,0.01526436194219318,-0.012473249638638375
276,0.7333064355774447,-0.39142710236404027,0.6017523370290998,0.7316955045400171,0.3357790569180018,-0.7010597661652517,0.007820056782359882,0.14172474458264858,-0.02928046374580902,-0.059724544810571996,0.006409083684308906,-0.01979203530022793
277,0.7333064355774447,-0.39142710236404027,0.6017523370290998,0.7316955045400171,0.3357790569180018,-0.7010597661652517,0.007820056782359882,0.14172474458264858,-0.02928046374580902,-0.059724544810571996,0.006409083684308906,-0.01979203530022793
278,0.7333064355774447,-0.39142710236404027,0.6017523370290998,0.7316955045400171,0.3357790569180018,-0.7010597661652517,0.007820056782359882,0.14172474458264858,-0.02928046374580902,-0.059724544810571996,0.006409083684308906,-0.01979203530022793
279,0.7333064355774447,-0.39142710236404027,0.6017523370290998,0.7316955045400171,0.3357790569180018,-0.7010597661652517,0.007820056782359882,0.14172474458264858,-0.02928046374580902,-0.059724544810571996,0.006409083684308906,-0.01979203530022793
280,0.7333064355774447,-0.39142710236404027,0.6017523370290998,0.7316955045400171,0.3357790569180018,-0.7010597661652517,0.007820056782359882,0.14172474458264858,-0.02928046374580902,-0.059724544810571996,0.006409083684308906,-0.01979203530022793
281,0.7333064355774447,-0.39142710236404027,0.6017523370290998,0.7316955045400171,0.3357790569180018,-0.7010597661652517,0.007820056782359882,0.14172474458264858,-0.02928046374580902,-0.059724544810571996,0.006409083684308906,-0.01979203530022793
282,0.7333064355774447,-0.39142710236404027,0.6017523370290998,0.7156762605807614,0.3360891763970794,-0.7010141212280409,0.007207729773709342,0.1423567422768071,-0.028540412841651864,-0.019897468355191787,0.0018209183809927384,-0.017174826414699612
283,0.7333064355774447,-0.39142710236404027,0.6017523370290998,0.7156762605807614,0.3360891763970794,-0.7010141212280409,0.007207729773709342,0.1423567422768071,-0.028540412841651864,-0.019897468355191787,0.0018209183809927384,-0.017174826414699612
284,0.7333064355774447,-0.39142710236404027,0.6017523370290998,0.7156762605807614,0.3360891763970794,-0.7010141212280409,0.007207729773709342,0.1423567422768071,-0.028540412841651864,-0.019897468355191787,0.0018209183809927384,-0.017174826414699612
285,0.7333064355774447,-0.39142710236404027,0.6017523370290998,0.7156762605807614,0.3360891763970794,-0.7010141212280409,0.007207729773709342,0.1423567422768071,-0.028540412841651864,-0.019897468355191787,0.0018209183809927384,-0.017174826414699612
286,0.7333064355774447,-0.39142710236404027,0.6017523370290998,0.7156762605807614,0.3360891763970794,-0.7010141212280409,0.007207729773709342,0.1423567422768071,-0.028540412841651864,-0.019897468355191787,0.0018209183809927384,-0.017174826414699612
287,0.7333064355774447,-0.39142710236404027,0.6017523370290998,0.7156762605807614,0.3360891763970794,-0.7010141212280409,0.007207729773709342,0.1423567422768071,-0.028540412841651864,-0.019897468355191787,0.0018209183809927384,-0.017174826414699612
288,0.7333064355774447,-0.39142710236404027,0.6017523370290998,0.6968506900167923,0.33679382453909174,-0.7008902278270397,0.006733537168133449,0.13919677606729292,-0.027131767629482044,-0.046269720346424896,0.004772382942958202,-0.014255157668670986
289,0.7333064355774447,-0.39142710236404027,0.6017523370290998,0.6968506900167923,0.33679382453909174,-0.7008902278270397,0.006733537168133449,0.13919677606729292,-0.027131767629482044,-0.046269720346424896,0.004772382942958202,-0.014255157668670986
290,0.7333064355774447,-0.39142710236404027,0.6017523370290998,0.6968506900167923,0.33679382453909174,-0.7008902278270397,0.006733537168133449,0.13919677606729292,-0.027131767629482044,-0.046269720346424896,0.004772382942958202,-0.014255157668670986
291,0.7333064355774447,-0.39142710236404027,0.6017523370290998,0.6968506900167923,0.33679382453909174,-0.7008902278270397,0.006733537168133449,0.13919677606729292,-0.027131767629482044,-0.046269720346424896,0.004772382942958202,-0.014255157668670986
292,0.7333064355774447,-0.39142710236404027,0.6017523370290998,0.6968506900167923,0.33679382453909174,-0.7008902278270397,0.006733537168133449,0.13919677606729292,-0.027131767629482044,-0.046269720346424896,0.004772382942958202,-0.014255157668670986
293,0.7333064355774447,-0.39142710236404027,0.6017523370290998,0.6968506900167923,0.33679382453909174,-0.7008902278270397,0.006733537168133449,0.13919677606729292,-0.027131767629482044,-0.046269720346424896,0.004772382942958202,-0.014255157668670986
294,0.7333064355774447,-0.39142710236404027,0.6017523370290998,0.6808235541097297,0.3367876102253658,-0.7009086282081322,0.0011648648146058965,0.17751143406904124,0.007767974014360675,-0.023260343969052594,0.01261136501499793,-0.019616883571070002
295,0.7333064355774447,-0.39142710236404027,0.6017523370290998,0.6808235541097297,0.3367876102253658,-0.7009086282081322,0.0011648648146058965,0.17751143406904124,0.007767974014360675,-0.023260343969052594,0.01261136501499793,-0.019616883571070002
296,0.7333064355774447,-0.39142710236404027,0.6017523370290998,0.6808235541097297,0.3367876102253658,-0.7009086282081322,0.0011648648146058965,0.17751143406904124,0.007767974014360675,-0.023260343969052594,0.01261136501499793,-0.019616883571070002
297,0.7333064355774447,-0.39142710236404027,0.6017523370290998,0.6808235541097297,0.3367876102253658,-0.7009086282081322,0.0011648648146058965,0.17751143406904124,0.007767974014360675,-0.023260343969052594,0.01261136501499793,-0.019616883571070002
298,0.7333064355774447,-0.39142710236404027,0.6017523370290998,0.6808235541097297,0.3367876102253658,-0.7009086282081322,0.0011648648146058965,0.17751143406904124,0.007767974014360675,-0.023260343969052594,0.01261136501499793,-0.019616883571070002
299,0.7333064355774447,-0.39142710236404027,0.6017523370290998,0.6808235541097297,0.3367876102253658,-0.7009086282081322,0.0011648648146058965,0.17751143406904124,0.007767974014360675,-0.023260343969052594,0.01261136501499793,-0.019616883571070002
300,0.7333064355774447,-0.39142710236404027,0.6017523370290998,0.6666311482358852,0.33672407975976504,-0.7009364723693371,0.008481865805979285,0.23755090335620335,0.013606713895363007,0.007450963991934843,0.016032894383728156,-0.01089432041294977
301,0.7333064355774447,-0.39142710236404027,0.6017523370290998,0.6666311482358852,0.33672407975976504,-0.7009364723693371,0.008481865805979285,0.23755090335620335,0.013606713895363007,0.007450963991934843,0.016032894383728156,-0.01089432041294977
302,0.7333064355774447,-0.39142710236404027,0.6017523370290998,0.6666311482358852,0.33672407975976504,-0.7009364723693371,0.008481865805979285,0.23755090335620335,0.013606713895363007,0.007450963991934843,0.016032894383728156,-0.01089432041294977
303,0.7333064355774447,-0.39142710236404027,0.6017523370290998,0.6666311482358852,0.33672407975976504,-0.7009364723693371,0.008481865805979285,0.23755090335620335,0.013606713895363007,0.007450963991934843,0.016032894383728156,-0.01089432041294977
304,0.7333064355774447,-0.39142710236404027,0.6017523370290998,0.6666311482358852,0.33672407975976504,-0.7009364723693371,0.008481865805979285,0.23755090335620335,0.013606713895363007,0.007450963991934843,0.016032894383728156,-0.01089432041294977
305,0.7333064355774447,-0.39142710236404027,0.6017523370290998,0.6666311482358852,0.33672407975976504,-0.7009364723693371,0.008481865805979285,0.23755090335620335,0.013606713895363007,0.007450963991934843,0.016032894383728156,-0.01089432041294977
306,0.7333064355774447,-0.39142710236404027,0.6017523370290998,0.6610050309541198,0.3365857367534596,-0.7009706498592685,-0.005875866983304664,0.2514547784234295,0.009727830348634963,-0.040838815916370404,-0.003872329920371079,-0.019221681325772285
307,0.7333064355774447,-0.39142710236404027,0.6017523370290998,0.6610050309541198,0.3365857367534596,-0.7009706498592685,-0.005875866983304664,0.2514547784234295,0.009727830348634963,-0.040838815916370404,-0.003872329920371079,-0.019221681325772285
308,0.7333064355774447,-0.39142710236404027,0.6017523370290998,0.6610050309541198,0.3365857367534596,-0.7009706498592685,-0.005875866983304664,0.2514547784234295,0.009727830348634963,-0.040838815916370404,-0.003872329920371079,-0.019221681325772285
309,0.7333064355774447,-0.39142710236404027,0.6017523370290998,0.6610050309541198,0.3365857367534596,-0.7009706498592685,-0.005875866983304664,0.2514547784234295,0.009727830348634963,-0.040838815916370404,-0.003872329920371079,-0.019221681325772285
310,0.7333064355774447,-0.39142710236404027,0.6017523370290998,0.6610050309541198,0.3365857367534596,-0.7009706498592685,-0.005875866983304664,0.2514547784234295,0.009727830348634963,-0.040838815916370404,-0.003872329920371079,-0.019221681325772285
311,0.7333064355774447,-0.39142710236404027,0.6017523370290998,0.6610050309541198,0.3365857367534596,-0.7009706498592685,-0.005875866983304664,0.2514547784234295,0.009727830348634963,-0.040838815916370404,-0.003872329920371079,-0.019221681325772285
312,0.7333064355774447,-0.39142710236404027,0.6017523370290998,0.6499924204888397,0.3365023136046217,-0.7009989811996064,0.002152422722775796,-0.14606970090339041,0.003914609639556936,-0.05761236239788385,0.008444332186211365,-0.011534935891651225
313,0.7333064355774447,-0.39142710236404027,0.6017523370290998,0.6499924204888397,0.3365023136046217,-0.7009989811996064,0.002152422722775796,-0.14606970090339041,0.003914609639556936,-0.05761236239788385,0.008444332186211365,-0.011534935891651225
314,0.7333064355774447,-0.39142710236404027,0.6017523370290998,0.6499924204888397,0.3365023136046217,-0.7009989811996064,0.002152422722775796,-0.14606970090339041,0.003914609639556936,-0.05761236239788385,0.008444332186211365,-0.011534935891651225
315,0.7333064355774447,-0.39142710236404027,0.6017523370290998,0.6499924204888397,0.3365023136046217,-0.7009989811996064,0.002152422722775796,-0.14606970090339041,0.003914609639556936,-0.05761236239788385,0.008444332186211365,-0.011534935891651225
316,0.7333064355774447,-0.39142710236404027,0.6017523370290998,0.6499924204888397,0.3365023136046217,-0.7009989811996064,0.002152422722775796,-0.14606970090339041,0.003914609639556936,-0.05761236239788385,0.008444332186211365,-0.011534935891651225
317,0.7333064355774447,-0.39142710236404027,0.6017523370290998,0.6499924204888397,0.3365023136046217,-0.7009989811996064,0.002152422722775796,-0.14606970090339041,0.003914609639556936,-0.05761236239788385,0.008444332186211365,-0.011534935891651225
318,0.7333064355774447,-0.39142710236404027,0.6017523370290998,0.6442427839893824,0.33628116658774615,-0.7010500975332317,-0.0056264000799461185,0.0974851360247621,-0.0014903077704174368,-0.01754555769873591,0.02194335259595349,-0.0025038116495081472
319,0.7333064355774447,-0.39142710236404027,0.6017523370290998,0.6442427839893824,0.33628116658774615,-0.7010500975332317,-0.0056264000799461185,0.0974851360247621,-0.0014903077704174368,-0.01754555769873591,0.02194335259595349,-0.0025038116495081472
320,0.7333064355774447,-0.39142710236404027,0.6017523370290998,0.6442427839893824,0.33628116658774615,-0.7010500975332317,-0.0056264000799461185,0.0974851360247621,-0.0014903077704174368,-0.01754555769873591,0.02194335259595349,-0.0025038116495081472
321,0.7333064355774447,-0.39142710236404027,0.6017523370290998,0.6442427839893824,0.33628116658774615,-0.7010500975332317,-0.0056264000799461185,0.0974851360247621,-0.0014903077704174368,-0.01754555769873591,0.02194335259595349,-0.0025038116495081472
322,0.7333064355774447,-0.39142710236404027,0.6017523370290998,0.6442427839893824,0.33628116658774615,-0.7010500975332317,-0.0056264000799461185,0.0974851360247621,-0.0014903077704174368,-0.01754555769873591,0.02194335259595349,-0.0025038116495081472
323,0.7333064355774447,-0.39142710236404027,0.6017523370290998,0.6442427839893824,0.33628116658774615,-0.7010500975332317,-0.0056264000799461185,0.0974851360247621,-0.0014903077704174368,-0.01754555769873591,0.02194335259595349,-0.0025038116495081472
324,0.7333064355774447,-0.39142710236404027,0.6017523370290998,0.639295351475641,0.3360574742246582,-0.7011008391136779,0.00879936839810978,-0.14338372925428203,0.0038482603870106445,-0.08712333109045914,0.012095025554975351,-0.006365004501575441
325,0.7333064355774447,-0.39142710236404027,0.6017523370290998,0.639295351475641,0.3360574742246582,-0.7011008391136779,0.00879936839810978,-0.14338372925428203,0.0038482603870106445,-0.08712333109045914,0.012095025554975351,-0.006365004501575441
326,0.7333064355774447,-0.39142710236404027,0.6017523370290998,0.639295351475641,0.3360574742246582,-0.7011008391136779,0.00879936839810978,-0.14338372925428203,0.0038482603870106445,-0.08712333109045914,0.012095025554975351,-0.006365004501575441
327,0.7333064355774447,-0.39142710236404027,0.6017523370290998,0.639295351475641,0.3360574742246582,-0.7011008391136779,0.00879936839810978,-0.14338372925428203,0.0038482603870106445,-0.08712333109045914,0.012095025554975351,-0.006365004501575441
328,0.7333064355774447,-0.39142710236404027,0.6017523370290998,0.639295351475641,0.3360574742246582,-0.7011008391136779,0.00879936839810978,-0.14338372925428203,0.0038482603870106445,-0.08712333109045914,0.012095025554975351,-0.006365004501575441
329,0.7333064355774447,-0.39142710236404027,0.6017523370290998,0.639295351475641,0.3360574742246582,-0.7011008391136779,0.00879936839810978,-0.14338372925428203,0.0038482603870106445,-0.08712333109045914,0.012095025554975351,-0.006365004501575441
330,0.7333064355774447,-0.39142710236404027,0.6017523370290998,0.6358725659507412,0.33576269561599636,-0.7011646221047559,-0.007304630197146022,-0.27539155937711973,0.02144103792931114,-0.026929083023818644,0.012292528264216736,-0.0025636401474042284
331,0.7333064355774447,-0.39142710236404027,0.6017523370290998,0.6358725659507412,0.33576269561599636,-0.7011646221047559,-0.007304630197146022,-0.27539155937711973,0.02144103792931114,-0.026929083023818644,0.012292528264216736,-0.0025636401474042284
332,0.7333064355774447,-0.39142710236404027,0.6017523370290998,0.6358725659507412,0.33576269561599636,-0.7011646221047559,-0.007304630197146022,-0.27539155937711973,0.02144103792931114,-0.026929083023818644,0.012292528264216736,-0.0025636401474042284
333,0.7333064355774447,-0.39142710236404027,0.6017523370290998,0.6358725659507412,0.33576269561599636,-0.7011646221047559,-0.007304630197146022,-0.27539155937711973,0.02144103792931114,-0.026929083023818644,0.012292528264216736,-0.0025636401474042284
334,0.7333064355774447,-0.39142710236404027,0.6017523370290998,0.6358725659507412,0.33576269561599636,-0.7011646221047559,-0.007304630197146022,-0.27539155937711973,0.02144103792931114,-0.026929083023818644,0.012292528264216736,-0.0025636401474042284
335,0.7333064355774447,-0.39142710236404027,0.6017523370290998,0.6358725659507412,0.33576269561599636,-0.7011646221047559,-0.007304630197146022,-0.27539155937711973,0.02144103792931114,-0.026929083023818644,0.012292528264216736,-0.0025636401474042284
336,0.7333064355774447,-0.39142710236404027,0.6017523370290998,0.6307475304962973,0.33562411183369784,-0.7011979751376932,0.00046594592584235856,0.3599998221529829,-0.002393679188822828,-0.024950130735098483,0.005725575424008858,-0.016264392368125796
337,0.7333064355774447,-0.39142710236404027,0.6017523370290998,0.6307475304962973,0.33562411183369784,-0.7011979751376932,0.00046594592584235856,0.3599998221529829,-0.002393679188822828,-0.024950130735098483,0.005725575424008858,-0.016264392368125796
338,0.7333064355774447,-0.39142710236404027,0.6017523370290998,0.6307475304962973,0.33562411183369784,-0.7011979751376932,0.00046594592584235856,0.3599998221529829,-0.002393679188822828,-0.024950130735098483,0.005725575424008858,-0.016264392368125796
339,0.7333064355774447,-0.39142710236404027,0.6017523370290998,0.6307475304962973,0.33562411183369784,-0.7011979751376932,0.00046594592584235856,0.3599998221529829,-0.002393679188822828,-0.024950130735098483,0.005725575424008858,-0.016264392368125796
340,0.7333064355774447,-0.39142710236404027,0.6017523370290998,0.6307475304962973,0.33562411183369784,-0.7011979751376932,0.00046594592584235856,0.3599998221529829,-0.002393679188822828,-0.024950130735098483,0.005725575424008858,-0.016264392368125796
341,0.7333064355774447,-0.39142710236404027,0.6017523370290998,0.6307475304962973,0.33562411183369784,-0.7011979751376932,0.00046594592584235856,0.3599998221529829,-0.002393679188822828,-0.024950130735098483,0.005725575424008858,-0.016264392368125796
342,0.7333064355774447,-0.39142710236404027,0.6017523370290998,0.6249266845196549,0.33527651155836524,-0.7012746496381312,-0.008024166172556926,0.23154696236382807,-0.013775138876805067,-0.005881740468639832,0.013745232429206583,-0.004836164583713795
343,0.7333064355774447,-0.39142710236404027,0.6017523370290998,0.6249266845196549,0.33527651155836524,-0.7012746496381312,-0.008024166172556926,0.23154696236382807,-0.013775138876805067,-0.005881740468639832,0.013745232429206583,-0.004836164583713795
344,0.7333064355774447,-0.39142710236404027,0.6017523370290998,0.6249266845196549,0.33527651155836524,-0.7012746496381312,-0.008024166172556926,0.23154696236382807,-0.013775138876805067,-0.005881740468639832,0.013745232429206583,-0.004836164583713795
345,0.7333064355774447,-0.39142710236404027,0.6017523370290998,0.6249266845196549,0.33527651155836524,-0.7012746496381312,-0.008024166172556926,0.23154696236382807,-0.013775138876805067,-0.005881740468639832,0.013745232429206583,-0.004836164583713795
346,0.7333064355774447,-0.39142710236404027,0.6017523370290998,0.6249266845196549,0.33527651155836524,-0.7012746496381312,-0.008024166172556926,0.23154696236382807,-0.013775138876805067,-0.005881740468639832,0.013745232429206583,-0.004836164583713795
347,0.7333064355774447,-0.39142710236404027,0.6017523370290998,0.6249266845196549,0.33527651155836524,-0.7012746496381312,-0.008024166172556926,0.23154696236382807,-0.013775138876805067,-0.005881740468639832,0.013745232429206583,-0.004836164583713795
348,0.7333064355774447,-0.39142710236404027,0.6017523370290998,0.6241645998305713,0.3350372948764858,-0.7013242669590403,-0.0006618081521639551,-0.36039481143629926,-0.018169505247565332,-0.030818601260775166,0.011675443757597584,-0.005442637959959101
349,0.7333064355774447,-0.39142710236404027,0.6017523370290998,0.6241645998305713,0.3350372948764858,-0.7013242669590403,-0.0006618081521639551,-0.36039481143629926,-0.018169505247565332,-0.030818601260775166,0.011675443757597584,-0.005442637959959101
350,0.7333064355774447,-0.39142710236404027,0.6017523370290998,0.6241645998305713,0.3350372948764858,-0.7013242669590403,-0.0006618081521639551,-0.36039481143629926,-0.018169505247565332,-0.030818601260775166,0.011675443757597584,-0.005442637959959101
351,0.7333064355774447,-0.39142710236404027,0.6017523370290998,0.6241645998305713,0.3350372948764858,-0.7013242669590403,-0.0006618081521639551,-0.36039481143629926,-0.018169505247565332,-0.030818601260775166,0.011675443757597584,-0.005442637959959101
352,0.7333064355774447,-0.39142710236404027,0.6017523370290998,0.6241645998305713,0.3350372948764858,-0.7013242669590403,-0.0006618081521639551,-0.36039481143629926,-0.018169505247565332,-0.030818601260775166,0.011675443757597584,-0.005442637959959101
353,0.7333064355774447,-0.39142710236404027,0.6017523370290998,0.6241645998305713,0.3350372948764858,-0.7013242669590403,-0.0006618081521639551,-0.36039481143629926,-0.018169505247565332,-0.030818601260775166,0.011675443757597584,-0.005442637959959101
354,0.7333064355774447,-0.39142710236404027,0.6017523370290998,0.6208331516612687,0.33478946758647316,-0.7013780065649191,-0.0018411049467886847,-0.18201440094396193,-0.023135497061639965,0.0041092883245425335,0.008506771061293985,-0.00495748026501591
355,0.7333064355774447,-0.39142710236404027,0.6017523370290998,0.6208331516612687,0.33478946758647316,-0.7013780065649191,-0.0018411049467886847,-0.18201440094396193,-0.023135497061639965,0.0041092883245425335,0.008506771061293985,-0.00495748026501591
356,0.7333064355774447,-0.39142710236404027,0.6017523370290998,0.6208331516612687,0.33478946758647316,-0.7013780065649191,-0.0018411049467886847,-0.18201440094396193,-0.023135497061639965,0.0041092883245425335,0.008506771061293985,-0.00495748026501591
357,0.7333064355774447,-0.39142710236404027,0.6017523370290998,0.6208331516612687,0.33478946758647316,-0.7013780065649191,-0.0018411049467886847,-0.18201440094396193,-0.023135497061639965,0.0041092883245425335,0.008506771061293985,-0.00495748026501591
358,0.7333064355774447,-0.39142710236404027,0.6017523370290998,0.6208331516612687,0.33478946758647316,-0.7013780065649191,-0.0018411049467886847,-0.18201440094396193,-0.023135497061639965,0.0041092883245425335,0.008506771061293985,-0.00495748026501591
359,0.7333064355774447,-0.39142710236404027,0.6017523370290998,0.6208331516612687,0.33478946758647316,-0.7013780065649191,-0.0018411049467886847,-0.18201440094396193,-0.023135497061639965,0.0041092883245425335,0.008506771061293985,-0.00495748026501591
360,0.7333064355774447,-0.39142710236404027,0.6017523370290998,0.6179787683253859,0.3345795797136547,-0.70142365150213,-0.002867835358319933,0.054430517578103216,0.02307935492175855,0.0010062793830174156,0.016430112712616782,-0.010995247231625434
361,0.7333064355774447,-0.39142710236404027,0.6017523370290998,0.6179787683253859,0.3345795797136547,-0.70142365150213,-0.002867835358319933,0.054430517578103216,0.02307935492175855,0.0010062793830174156,0.016430112712616782,-0.010995247231625434
362,0.7333064355774447,-0.39142710236404027,0.6017523370290998,0.6179787683253859,0.3345795797136547,-0.70142365150213,-0.002867835358319933,0.054430517578103216,0.02307935492175855,0.0010062793830174156,0.016430112712616782,-0.010995247231625434
363,0.7333064355774447,-0.39142710236404027,0.6017523370290998,0.6179787683253859,0.3345795797136547,-0.70142365150213,-0.002867835358319933,0.054430517578103216,0.02307935492175855,0.0010062793830174156,0.016430112712616782,-0.010995247231625434
364,0.7333064355774447,-0.39142710236404027,0.6017523370290998,0.6179787683253859,0.3345795797136547,-0.70142365150213,-0.002867835358319933,0.054430517578103216,0.02307935492175855,0.0010062793830174156,0.016430112712616782,-0.010995247231625434
365,0.7333064355774447,-0.39142710236404027,0.6017523370290998,0.6179787683253859,0.3345795797136547,-0.70142365150213,-0.002867835358319933,0.054430517578103216,0.02307935492175855,0.0010062793830174156,0.016430112712616782,-0.010995247231625434
366,0.7333064355774447,-0.39142710236404027,0.6017523370290998,0.6155551443308915,0.33441840885010127,-0.7014587283996911,-0.000647376230242152,0.2606187004661713,0.021670707791985815,-0.006468239554580036,0.012091925521676247,-0.010679728387954508
367,0.7333064355774447,-0.39142710236404027,0.6017523370290998,0.6155551443308915,0.33441840885010127,-0.7014587283996911,-0.000647376230242152,0.2606187004661713,0.021670707791985815,-0.006468239554580036,0.012091925521676247,-0.010679728387954508
368,0.7333064355774447,-0.39142710236404027,0.6017523370290998,0.6155551443308915,0.33441840885010127,-0.7014587283996911,-0.000647376230242152,0.2606187004661713,0.021670707791985815,-0.006468239554580036,0.012091925521676247,-0.010679728387954508
369,0.7333064355774447,-0.39142710236404027,0.6017523370290998,0.6155551443308915,0.33441840885010127,-0.7014587283996911,-0.000647376230242152,0.2606187004661713,0.021670707791985815,-0.006468239554580036,0.012091925521676247,-0.010679728387954508
370,0.7333064355774447,-0.39142710236404027,0.6017523370290998,0.6155551443308915,0.33441840885010127,-0.7014587283996911,-0.000647376230242152,0.2606187004661713,0.021670707791985815,-0.006468239554580036,0.012091925521676247,-0.010679728387954508
371,0.7333064355774447,-0.39142710236404027,0.6017523370290998,0.6155551443308915,0.33441840885010127,-0.7014587283996911,-0.000647376230242152,0.2606187004661713,0.021670707791985815,-0.006468239554580036,0.012091925521676247,-0.010679728387954508
372,0.7298833935411342,-0.340096855650235,0.6183657696685556,0.6133991870042325,0.33431365982759115,-0.701482187948701,-0.0004164649566200327,0.3127582282580564,0.00452196127158034,0.002774622652059771,0.006605921563839021,-0.0018764673283244975
373,0.7298833935411342,-0.340096855650235,0.6183657696685556,0.6133991870042325,0.33431365982759115,-0.701482187948701,-0.0004164649566200327,0.3127582282580564,0.00452196127158034,0.002774622652059771,0.006605921563839021,-0.0018764673283244975
374,0.7298833935411342,-0.340096855650235,0.6183657696685556,0.6133991870042325,0.33431365982759115,-0.701482187948701,-0.0004164649566200327,0.3127582282580564,0.00452196127158034,0.002774622652059771,0.006605921563839021,-0.0018764673283244975
375,0.7298833935411342,-0.340096855650235,0.6183657696685556,0.6133991870042325,0.33431365982759115,-0.701482187948701,-0.0004164649566200327,0.3127582282580564,0.00452196127158034,0.002774622652059771,0.006605921563839021,-0.0018764673283244975
376,0.7298833935411342,-0.340096855650235,0.6183657696685556,0.6133991870042325,0.33431365982759115,-0.701482187948701,-0.0004164649566200327,0.3127582282580564,0.00452196127158034,0.002774622652059771,0.006605921563839021,-0.0018764673283244975
377,0.7298833935411342,-0.340096855650235,0.6183657696685556,0.6133991870042325,0.33431365982759115,-0.701482187948701,-0.0004164649566200327,0.3127582282580564,0.00452196127158034,0.002774622652059771,0.006605921563839021,-0.0018764673283244975
378,0.7298833935411342,-0.340096855650235,0.6183657696685556,0.6107029382882373,0.33419127682996935,-0.701509619881409,0.0066180817152963175,-0.22664899136473868,0.01582176003127744,0.024841659741872423,0.014473024862196218,-0.0091603070646353
379,0.7298833935411342,-0.340096855650235,0.6183657696685556,0.6107029382882373,0.33419127682996935,-0.701509619881409,0.0066180817152963175,-0.22664899136473868,0.01582176003127744,0.024841659741872423,0.014473024862196218,-0.0091603070646353
380,0.7298833935411342,-0.340096855650235,0.6183657696685556,0.6107029382882373,0.33419127682996935,-0.701509619881409,0.0066180817152963175,-0.22664899136473868,0.01582176003127744,0.024841659741872423,0.014473024862196218,-0.0091603070646353
381,0.7298833935411342,-0.340096855650235,0.6183657696685556,0.6107029382882373,0.33419127682996935,-0.701509619881409,0.0066180817152963175,-0.22664899136473868,0.01582176003127744,0.024841659741872423,0.014473024862196218,-0.0091603070646353
382,0.7298833935411342,-0.340096855650235,0.6183657696685556,0.6107029382882373,0.33419127682996935,-0.701509619881409,0.0066180817152963175,-0.22664899136473868,0.01582176003127744,0.024841659741872423,0.014473024862196218,-0.0091603070646353
383,0.7298833935411342,-0.340096855650235,0.6183657696685556,0.6107029382882373,0.33419127682996935,-0.701509619881409,0.0066180817152963175,-0.22664899136473868,0.01582176003127744,0.024841659741872423,0.014473024862196218,-0.0091603070646353
384,0.7298833935411342,-0.340096855650235,0.6183657696685556,0.6088491493147825,0.33408266392604663,-0.7015335291342337,0.003061635817879763,0.32002618690002715,0.02194631335303805,0.021352291065263634,0.015658702986483496,-0.01324679357891473
385,0.7298833935411342,-0.340096855650235,0.6183657696685556,0.6088491493147825,0.33408266392604663,-0.7015335291342337,0.003061635817879763,0.32002618690002715,0.02194631335303805,0.021352291065263634,0.015658702986483496,-0.01324679357891473
386,0.7298833935411342,-0.340096855650235,0.6183657696685556,0.6088491493147825,0.33408266392604663,-0.7015335291342337,0.003061635817879763,0.32002618690002715,0.02194631335303805,0.021352291065263634,0.015658702986483496,-0.01324679357891473
387,0.7298833935411342,-0.340096855650235,0.6183657696685556,0.6088491493147825,0.33408266392604663,-0.7015335291342337,0.003061635817879763,0.32002618690002715,0.02194631335303805,0.021352291065263634,0.015658702986483496,-0.01324679357891473
388,0.7298833935411342,-0.340096855650235,0.6183657696685556,0.6088491493147825,0.33408266392604663,-0.7015335291342337,0.003061635817879763,0.32002618690002715,0.02194631335303805,0.021352291065263634,0.015658702986483496,-0.01324679357891473
389,0.7298833935411342,-0.340096855650235,0.6183657696685556,0.6088491493147825,0.33408266392604663,-0.7015335291342337,0.003061635817879763,0.32002618690002715,0.02194631335303805,0.021352291065263634,0.015658702986483496,-0.01324679357891473
390,0.7298833935411342,-0.340096855650235,0.6183657696685556,0.6084558937830007,0.3339900798239485,-0.7015526415463664,-0.0037667397164434517,-0.27649756647253637,0.003536928924889811,0.013093775704378828,0.002377334705269006,-0.00984121827435346
391,0.7298833935411342,-0.340096855650235,0.6183657696685556,0.6084558937830007,0.3339900798239485,-0.7015526415463664,-0.0037667397164434517,-0.27649756647253637,0.003536928924889811,0.013093775704378828,0.002377334705269006,-0.00984121827435346
392,0.7298833935411342,-0.340096855650235,0.6183657696685556,0.6084558937830007,0.3339900798239485,-0.7015526415463664,-0.0037667397164434517,-0.27649756647253637,0.003536928924889811,0.013093775704378828,0.002377334705269006,-0.00984121827435346
393,0.7298833935411342,-0.340096855650235,0.6183657696685556,0.6084558937830007,0.3339900798239485,-0.7015526415463664,-0.0037667397164434517,-0.27649756647253637,0.003536928924889811,0.013093775704378828,0.002377334705269006,-0.00984121827435346
394,0.7298833935411342,-0.340096855650235,0.6183657696685556,0.6084558937830007,0.3339900798239485,-0.7015526415463664,-0.0037667397164434517,-0.27649756647253637,0.003536928924889811,0.013093775704378828,0.002377334705269006,-0.00984121827435346
395,0.7298833935411342,-0.340096855650235,0.6183657696685556,0.6084558937830007,0.3339900798239485,-0.7015526415463664,-0.0037667397164434517,-0.27649756647253637,0.003536928924889811,0.013093775704378828,0.002377334705269006,-0.00984121827435346
396,0.7298833935411342,-0.340096855650235,0.6183657696685556,0.6079662291251288,0.33385312414598406,-0.7015810478373401,-0.0005195503511255109,-0.2624356734307052,0.012320557486856959,-0.049794928982600635,0.018029395999662634,-0.014946986961624376
397,0.7298833935411342,-0.340096855650235,0.6183657696685556,0.6079662291251288,0.33385312414598406,-0.7015810478373401,-0.0005195503511255109,-0.2624356734307052,0.012320557486856959,-0.049794928982600635,0.018029395999662634,-0.014946986961624376
398,0.7298833935411342,-0.340096855650235,0.6183657696685556,0.6079662291251288,0.33385312414598406,-0.7015810478373401,-0.0005195503511255109,-0.2624356734307052,0.012320557486856959,-0.049794928982600635,0.018029395999662634,-0.014946986961624376
399,0.7298833935411342,-0.340096855650235,0.6183657696685556,0.6079662291251288,0.33385312414598406,-0.7015810478373401,-0.0005195503511255109,-0.2624356734307052,0.012320557486856959,-0.049794928982600635,0.018029395999662634,-0.014946986961624376
400,0.7298833935411342,-0.340096855650235,0.6183657696685556,0.6079662291251288,0.33385312414598406,-0.7015810478373401,-0.0005195503511255109,-0.2624356734307052,0.012320557486856959,-0.049794928982600635,0.018029395999662634,-0.014946986961624376
401,0.7298833935411342,-0.340096855650235,0.6183657696685556,0.6079662291251288,0.33385312414598406,-0.7015810478373401,-0.0005195503511255109,-0.2624356734307052,0.012320557486856959,-0.049794928982600635,0.018029395999662634,-0.014946986961624376
402,0.7298833935411342,-0.340096855650235,0.6183657696685556,0.6085665629992202,0.3337166958820997,-0.7016081050168691,0.007723156552579965,-0.15799860729275617,0.015775826729903526,0.03828214167466522,0.009219507230873837,0.015413788140583471
403,0.7298833935411342,-0.340096855650235,0.6183657696685556,0.6085665629992202,0.3337166958820997,-0.7016081050168691,0.007723156552579965,-0.15799860729275617,0.015775826729903526,0.03828214167466522,0.009219507230873837,0.015413788140583471
404,0.7298833935411342,-0.340096855650235,0.6183657696685556,0.6085665629992202,0.3337166958820997,-0.7016081050168691,0.007723156552579965,-0.15799860729275617,0.015775826729903526,0.03828214167466522,0.009219507230873837,0.015413788140583471
405,0.7298833935411342,-0.340096855650235,0.6183657696685556,0.6085665629992202,0.3337166958820997,-0.7016081050168691,0.007723156552579965,-0.15799860729275617,0.015775826729903526,0.03828214167466522,0.009219507230873837,0.015413788140583471
406,0.7298833935411342,-0.340096855650235,0.6183657696685556,0.6085665629992202,0.3337166958820997,-0.7016081050168691,0.007723156552579965,-0.15799860729275617,0.015775826729903526,0.03828214167466522,0.009219507230873837,0.015413788140583471
407,0.7298833935411342,-0.340096855650235,0.6183657696685556,0.6085665629992202,0.3337166958820997,-0.7016081050168691,0.007723156552579965,-0.15799860729275617,0.015775826729903526,0.03828214167466522,0.009219507230873837,0.015413788140583471
408,0.7298833935411342,-0.340096855650235,0.6183657696685556,0.6081781972910073,0.3336052968559714,-0.701631114862064,0.0058325709464197815,0.11004602526743408,0.0005767286640662946,0.008995820374622852,0.019296332758896244,-0.024134801166486784
409,0.7298833935411342,-0.340096855650235,0.6183657696685556,0.6081781972910073,0.3336052968559714,-0.701631114862064,0.0058325709464197815,0.11004602526743408,0.0005767286640662946,0.008995820374622852,0.019296332758896244,-0.024134801166486784
410,0.7298833935411342,-0.340096855650235,0.6183657696685556,0.6081781972910073,0.3336052968559714,-0.701631114862064,0.0058325709464197815,0.11004602526743408,0.0005767286640662946,0.008995820374622852,0.019296332758896244,-0.024134801166486784
411,0.7298833935411342,-0.340096855650235,0.6183657696685556,0.6081781972910073,0.3336052968559714,-0.701631114862064,0.0058325709464197815,0.11004602526743408,0.0005767286640662946,0.008995820374622852,0.019296332758896244,-0.024134801166486784
412,0.7298833935411342,-0.340096855650235,0.6183657696685556,0.6081781972910073,0.3336052968559714,-0.701631114862064,0.0058325709464197815,0.11004602526743408,0.0005767286640662946,0.008995820374622852,0.019296332758896244,-0.024134801166486784
413,0.7298833935411342,-0.340096855650235,0.6183657696685556,0.6081781972910073,0.3336052968559714,-0.701631114862064,0.0058325709464197815,0.11004602526743408,0.0005767286640662946,0.008995820374622852,0.019296332758896244,-0.024134801166486784
414,0.7298833935411342,-0.340096855650235,0.6183657696685556,0.6087539910737916,0.3335012930924875,-0.701651726286913,0.0005030566430762645,-0.24055286643196488,0.021298130010430183,0.0003631169514111452,0.014913198615389523,-0.03252937484340235
415,0.7298833935411342,-0.340096855650235,0.6183657696685556,0.6087539910737916,0.3335012930924875,-0.701651726286913,0.0005030566430762645,-0.24055286643196488,0.021298130010430183,0.0003631169514111452,0.014913198615389523,-0.03252937484340235
416,0.7298833935411342,-0.340096855650235,0.6183657696685556,0.6087539910737916,0.3335012930924875,-0.701651726286913,0.0005030566430762645,-0.24055286643196488,0.021298130010430183,0.0003631169514111452,0.014913198615389523,-0.03252937484340235
417,0.7298833935411342,-0.340096855650235,0.6183657696685556,0.6087539910737916,0.3335012930924875,-0.701651726286913,0.0005030566430762645,-0.24055286643196488,0.021298130010430183,0.0003631169514111452,0.014913198615389523,-0.03252937484340235
418,0.7298833935411342,-0.340096855650235,0.6183657696685556,0.6087539910737916,0.3335012930924875,-0.701651726286913,0.0005030566430762645,-0.24055286643196488,0.021298130010430183,0.0003631169514111452,0.014913198615389523,-0.03252937484340235
419,0.7298833935411342,-0.340096855650235,0.6183657696685556,0.6087539910737916,0.3335012930924875,-0.701651726286913,0.0005030566430762645,-0.24055286643196488,0.021298130010430183,0.0003631169514111452,0.014913198615389523,-0.03252937484340235
420,0.7298833935411342,-0.340096855650235,0.6183657696685556,0.609449073808296,0.3333898138076949,-0.7016737617738423,0.0007690169252675534,0.3262671288828185,0.0030112382211515457,0.03794137560444972,0.009422765420349472,-0.00651655634848769
421,0.7298833935411342,-0.340096855650235,0.6183657696685556,0.609449073808296,0.3333898138076949,-0.7016737617738423,0.0007690169252675534,0.3262671288828185,0.0030112382211515457,0.03794137560444972,0.009422765420349472,-0.00651655634848769
422,0.7298833935411342,-0.340096855650235,0.6183657696685556,0.609449073808296,0.3333898138076949,-0.7016737617738423,0.0007690169252675534,0.3262671288828185,0.0030112382211515457,0.03794137560444972,0.009422765420349472,-0.00651655634848769
423,0.7298833935411342,-0.340096855650235,0.6183657696685556,0.609449073808296,0.3333898138076949,-0.7016737617738423,0.0007690169252675534,0.3262671288828185,0.0030112382211515457,0.03794137560444972,0.009422765420349472,-0.00651655634848769
424,0.7298833935411342,-0.340096855650235,0.6183657696685556,0.609449073808296,0.3333898138076949,-0.7016737617738423,0.0007690169252675534,0.3262671288828185,0.0030112382211515457,0.03794137560444972,0.009422765420349472,-0.00651655634848769
425,0.7298833935411342,-0.340096855650235,0.6183657696685556,0.609449073808296,0.3333898138076949,-0.7016737617738423,0.0007690169252675534,0.3262671288828185,0.0030112382211515457,0.03794137560444972,0.009422765420349472,-0.00651655634848769
426,0.7298833935411342,-0.340096855650235,0.6183657696685556,0.6109406519437913,0.33331206609297936,-0.7016880773452828,0.00823033703903059,-0.2873204583460593,-0.019215781037286293,-0.05514864409371277,0.022807977414903192,0.005458156897267137
427,0.7298833935411342,-0.340096855650235,0.6183657696685556,0.6109406519437913,0.33331206609297936,-0.7016880773452828,0.00823033703903059,-0.2873204583460593,-0.019215781037286293,-0.05514864409371277,0.022807977414903192,0.005458156897267137
428,0.7298833935411342,-0.340096855650235,0.6183657696685556,0.6109406519437913,0.33331206609297936,-0.7016880773452828,0.00823033703903059,-0.2873204583460593,-0.019215781037286293,-0.05514864409371277,0.022807977414903192,0.005458156897267137
429,0.7298833935411342,-0.340096855650235,0.6183657696685556,0.6109406519437913,0.33331206609297936,-0.7016880773452828,0.00823033703903059,-0.2873204583460593,-0.019215781037286293,-0.05514864409371277,0.022807977414903192,0.005458156897267137
430,0.7298833935411342,-0.340096855650235,0.6183657696685556,0.6109406519437913,0.33331206609297936,-0.7016880773452828,0.00823033703903059,-0.2873204583460593,-0.019215781037286293,-0.05514864409371277,0.022807977414903192,0.005458156897267137
431,0.7298833935411342,-0.340096855650235,0.6183657696685556,0.6109406519437913,0.33331206609297936,-0.7016880773452828,0.00823033703903059,-0.2873204583460593,-0.019215781037286293,-0.05514864409371277,0.022807977414903192,0.005458156897267137
432,0.7298833935411342,-0.340096855650235,0.6183657696685556,0.6120567826026425,0.33329602582563134,-0.7016903258643573,-0.0002659602821912887,0.07307435309023992,0.02077754396564603,-0.0009122154918283302,0.009474133821658215,-0.0181554700008597
433,0.7298833935411342,-0.340096855650235,0.6183657696685556,0.6120567826026425,0.33329602582563134,-0.7016903258643573,-0.0002659602821912887,0.07307435309023992,0.02077754396564603,-0.0009122154918283302,0.009474133821658215,-0.0181554700008597
434,0.7298833935411342,-0.340096855650235,0.6183657696685556,0.6120567826026425,0.33329602582563134,-0.7016903258643573,-0.0002659602821912887,0.07307435309023992,0.02077754396564603,-0.0009122154918283302,0.009474133821658215,-0.0181554700008597
435,0.7298833935411342,-0.340096855650235,0.6183657696685556,0.6120567826026425,0.33329602582563134,-0.7016903258643573,-0.0002659602821912887,0.07307435309023992,0.02077754396564603,-0.0009122154918283302,0.009474133821658215,-0.0181554700008597
436,0.7298833935411342,-0.340096855650235,0.6183657696685556,0.6120567826026425,0.33329602582563134,-0.7016903258643573,-0.0002659602821912887,0.07307435309023992,0.02077754396564603,-0.0009122154918283302,0.009474133821658215,-0.0181554700008597
437,0.7298833935411342,-0.340096855650235,0.6183657696685556,0.6120567826026425,0.33329602582563134,-0.7016903258643573,-0.0002659602821912887,0.07307435309023992,0.02077754396564603,-0.0009122154918283302,0.009474133821658215,-0.0181554700008597
438,0.7292152675941302,-0.3408494573627686,0.6367720218795201,0.6112173932144362,0.3333885526001121,-0.7016723377117619,0.003999712679364631,0.10838704059580062,-0.0024855473256529892,0.0793104335610229,0.012753514672091704,-0.00543932036874996
439,0.7292152675941302,-0.3408494573627686,0.6367720218795201,0.6112173932144362,0.3333885526001121,-0.7016723377117619,0.003999712679364631,0.10838704059580062,-0.0024855473256529892,0.0793104335610229,0.012753514672091704,-0.00543932036874996
440,0.7292152675941302,-0.3408494573627686,0.6367720218795201,0.6112173932144362,0.3333885526001121,-0.7016723377117619,0.003999712679364631,0.10838704059580062,-0.0024855473256529892,0.0793104335610229,0.012753514672091704,-0.00543932036874996
441,0.7292152675941302,-0.3408494573627686,0.6367720218795201,0.6112173932144362,0.3333885526001121,-0.7016723377117619,0.003999712679364631,0.10838704059580062,-0.0024855473256529892,0.0793104335610229,0.012753514672091704,-0.00543932036874996
442,0.7292152675941302,-0.3408494573627686,0.6367720218795201,0.6112173932144362,0.3333885526001121,-0.7016723377117619,0.003999712679364631,0.10838704059580062,-0.0024855473256529892,0.0793104335610229,0.012753514672091704,-0.00543932036874996
443,0.7292152675941302,-0.3408494573627686,0.6367720218795201,0.6112173932144362,0.3333885526001121,-0.7016723377117619,0.003999712679364631,0.10838704059580062,-0.0024855473256529892,0.0793104335610229,0.012753514672091704,-0.00543932036874996
444,0.7292152675941302,-0.3408494573627686,0.6367720218795201,0.6112173932144362,0.3333885526001121,-0.7016723377117619,0.003999712679364631,0.10838704059580062,-0.0024855473256529892,0.0793104335610229,0.012753514672091704,-0.00543932036874996
445,0.7292152675941302,-0.3408494573627686,0.6367720218795201,0.6117492240718295,0.3334843126522141,-0.7016523633673174,-0.0013957761075936923,-0.13982876634102528,-0.021114392969728692,0.0791050738061618,0.011580013932300048,-0.011000651996596533
446,0.7292152675941302,-0.3408494573627686,0.6367720218795201,0.6117492240718295,0.3334843126522141,-0.7016523633673174,-0.0013957761075936923,-0.13982876634102528,-0.021114392969728692,0.0791050738061618,0.011580013932300048,-0.011000651996596533
447,0.7292152675941302,-0.3408494573627686,0.6367720218795201,0.6117492240718295,0.3334843126522141,-0.7016523633673174,-0.0013957761075936923,-0.13982876634102528,-0.021114392969728692,0.0791050738061618,0.011580013932300048,-0.011000651996596533
448,0.7292152675941302,-0.3408494573627686,0.6367720218795201,0.6117492240718295,0.3334843126522141,-0.7016523633673174,-0.0013957761075936923,-0.13982876634102528,-0.021114392969728692,0.0791050738061618,0.011580013932300048,-0.011000651996596533
449,0.7292152675941302,-0.3408494573627686,0.6367720218795201,0.6117492240718295,0.3334843126522141,-0.7016523633673174,-0.0013957761075936923,-0.13982876634102528,-0.021114392969728692,0.0791050738061618,0.011580013932300048,-0.011000651996596533
450,0.7292152675941302,-0.3408494573627686,0.6367720218795201,0.6117492240718295,0.3334843126522141,-0.7016523633673174,-0.0013957761075936923,-0.13982876634102528,-0.021114392969728692,0.0791050738061618,0.011580013932300048,-0.011000651996596533
451,0.7292152675941302,-0.3408494573627686,0.6367720218795201,0.6120405665830855,0.33363375428524794,-0.7016216710819514,0.001983362689730099,0.12205392209303695,0.015535947549320623,0.0453510660504858,0.004814673309792205,-0.0005454678788105421
452,0.7292152675941302,-0.3408494573627686,0.6367720218795201,0.6120405665830855,0.33363375428524794,-0.7016216710819514,0.001983362689730099,0.12205392209303695,0.015535947549320623,0.0453510660504858,0.004814673309792205,-0.0005454678788105421
453,0.7292152675941302,-0.3408494573627686,0.6367720218795201,0.6120405665830855,0.33363375428524794,-0.7016216710819514,0.001983362689730099,0.12205392209303695,0.015535947549320623,0.0453510660504858,0.004814673309792205,-0.0005454678788105421
454,0.7292152675941302,-0.3408494573627686,0.6367720218795201,0.6120405665830855,0.33363375428524794,-0.7016216710819514,0.001983362689730099,0.12205392209303695,0.015535947549320623,0.0453510660504858,0.004814673309792205,-0.0005454678788105421
455,0.7292152675941302,-0.3408494573627686,0.6367720218795201,0.6120405665830855,0.33363375428524794,-0.7016216710819514,0.001983362689730099,0.12205392209303695,0.015535947549320623,0.0453510660504858,0.004814673309792205,-0.0005454678788105421
456,0.7292152675941302,-0.3408494573627686,0.6367720218795201,0.6121627439422163,0.3338578364761342,-0.7015761010953764,0.005599597983498602,-0.17443045829576417,-0.01997624818025626,0.0200727982196506,0.013567215676096624,-0.02140483777731631
457,0.7292152675941302,-0.3408494573627686,0.6367720218795201,0.6121627439422163,0.3338578364761342,-0.7015761010953764,0.005599597983498602,-0.17443045829576417,-0.01997624818025626,0.0200727982196506,0.013567215676096624,-0.02140483777731631
458,0.7292152675941302,-0.3408494573627686,0.6367720218795201,0.6121627439422163,0.3338578364761342,-0.7015761010953764,0.005599597983498602,-0.17443045829576417,-0.01997624818025626,0.0200727982196506,0.013567215676096624,-0.02140483777731631
459,0.7292152675941302,-0.3408494573627686,0.6367720218795201,0.6121627439422163,0.3338578364761342,-0.7015761010953764,0.005599597983498602,-0.17443045829576417,-0.01997624818025626,0.0200727982196506,0.013567215676096624,-0.02140483777731631
460,0.7292152675941302,-0.3408494573627686,0.6367720218795201,0.6121627439422163,0.3338578364761342,-0.7015761010953764,0.005599597983498602,-0.17443045829576417,-0.01997624818025626,0.0200727982196506,0.013567215676096624,-0.02140483777731631
461,0.7292152675941302,-0.3408494573627686,0.6367720218795201,0.6121627439422163,0.3338578364761342,-0.7015761010953764,0.005599597983498602,-0.17443045829576417,-0.01997624818025626,0.0200727982196506,0.013567215676096624,-0.02140483777731631
462,0.7292152675941302,-0.3408494573627686,0.6367720218795201,0.6121627439422163,0.3338578364761342,-0.7015761010953764,0.005599597983498602,-0.17443045829576417,-0.01997624818025626,0.0200727982196506,0.013567215676096624,-0.02140483777731631
463,0.7292152675941302,-0.3408494573627686,0.6367720218795201,0.6098291836748551,0.33409113694789816,-0.7015307559607087,-0.0044532887792634555,0.3408819846600142,0.011840801522694793,0.06723091466966558,0.014538563998337351,-0.002515638013339229
464,0.7292152675941302,-0.3408494573627686,0.6367720218795201,0.6098291836748551,0.33409113694789816,-0.7015307559607087,-0.0044532887792634555,0.3408819846600142,0.011840801522694793,0.06723091466966558,0.014538563998337351,-0.002515638013339229
465,0.7292152675941302,-0.3408494573627686,0.6367720218795201,0.6098291836748551,0.33409113694789816,-0.7015307559607087,-0.0044532887792634555,0.3408819846600142,0.011840801522694793,0.06723091466966558,0.014538563998337351,-0.002515638013339229
466,0.7292152675941302,-0.3408494573627686,0.6367720218795201,0.6098291836748551,0.33409113694789816,-0.7015307559607087,-0.0044532887792634555,0.3408819846600142,0.011840801522694793,0.06723091466966558,0.014538563998337351,-0.002515638013339229
467,0.7292152675941302,-0.3408494573627686,0.6367720218795201,0.6098291836748551,0.33409113694789816,-0.7015307559607087,-0.0044532887792634555,0.3408819846600142,0.011840801522694793,0.06723091466966558,0.014538563998337351,-0.002515638013339229
468,0.7292152675941302,-0.3408494573627686,0.6367720218795201,0.6098291836748551,0.33409113694789816,-0.7015307559607087,-0.0044532887792634555,0.3408819846600142,0.011840801522694793,0.06723091466966558,0.014538563998337351,-0.002515638013339229
469,0.7292152675941302,-0.3408494573627686,0.6367720218795201,0.6085787989298256,0.33432713181767976,-0.7014839867639605,-0.0008927194064203978,-0.3020143342411967,-0.020568287465379802,0.05089298380978429,0.004388005917238836,0.001321473953097748
470,0.7292152675941302,-0.3408494573627686,0.6367720218795201,0.6085787989298256,0.33432713181767976,-0.7014839867639605,-0.0008927194064203978,-0.3020143342411967,-0.020568287465379802,0.05089298380978429,0.004388005917238836,0.001321473953097748
471,0.7292152675941302,-0.3408494573627686,0.6367720218795201,0.6085787989298256,0.33432713181767976,-0.7014839867639605,-0.0008927194064203978,-0.3020143342411967,-0.020568287465379802,0.05089298380978429,0.004388005917238836,0.001321473953097748
472,0.7292152675941302,-0.3408494573627686,0.6367720218795201,0.6085787989298256,0.33432713181767976,-0.7014839867639605,-0.0008927194064203978,-0.3020143342411967,-0.020568287465379802,0.05089298380978429,0.004388005917238836,0.001321473953097748
473,0.7292152675941302,-0.3408494573627686,0.6367720218795201,0.6085787989298256,0.33432713181767976,-0.7014839867639605,-0.0008927194064203978,-0.3020143342411967,-0.020568287465379802,0.05089298380978429,0.004388005917238836,0.001321473953097748
474,0.7292152675941302,-0.3408494573627686,0.6367720218795201,0.6085787989298256,0.33432713181767976,-0.7014839867639605,-0.0008927194064203978,-0.3020143342411967,-0.020568287465379802,0.05089298380978429,0.004388005917238836,0.001321473953097748
475,0.7292152675941302,-0.3408494573627686,0.6367720218795201,0.6077051580332703,0.3345356782242511,-0.7014423142104479,-0.0009298301430199805,-0.3638707839133189,0.017725475184471772,-0.011847442639630015,0.007594097662163137,-0.01735795119606985
476,0.7292152675941302,-0.3408494573627686,0.6367720218795201,0.6077051580332703,0.3345356782242511,-0.7014423142104479,-0.0009298301430199805,-0.3638707839133189,0.017725475184471772,-0.011847442639630015,0.007594097662163137,-0.01735795119606985
477,0.7292152675941302,-0.3408494573627686,0.6367720218795201,0.6077051580332703,0.3345356782242511,-0.7014423142104479,-0.0009298301430199805,-0.3638707839133189,0.017725475184471772,-0.011847442639630015,0.007594097662163137,-0.01735795119606985
478,0.7292152675941302,-0.3408494573627686,0.6367720218795201,0.6077051580332703,0.3345356782242511,-0.7014423142104479,-0.0009298301430199805,-0.3638707839133189,0.017725475184471772,-0.011847442639630015,0.007594097662163137,-0.01735795119606985
479,0.7292152675941302,-0.3408494573627686,0.6367720218795201,0.6077051580332703,0.3345356782242511,-0.7014423142104479,-0.0009298301430199805,-0.3638707839133189,0.017725475184471772,-0.011847442639630015,0.007594097662163137,-0.01735795119606985
480,0.7292152675941302,-0.3408494573627686,0.6367720218795201,0.6077051580332703,0.3345356782242511,-0.7014423142104479,-0.0009298301430199805,-0.3638707839133189,0.017725475184471772,-0.011847442639630015,0.007594097662163137,-0.01735795119606985
481,0.7292152675941302,-0.3408494573627686,0.6367720218795201,0.6067362906656277,0.3347313259169079,-0.7014033398798244,-0.0057439173963734005,0.03531268750556069,0.006731903227941388,0.043194060642765084,0.0019147983946241891,0.003754540012326144
482,0.7292152675941302,-0.3408494573627686,0.6367720218795201,0.6067362906656277,0.3347313259169079,-0.7014033398798244,-0.0057439173963734005,0.03531268750556069,0.006731903227941388,0.043194060642765084,0.0019147983946241891,0.003754540012326144
483,0.7292152675941302,-0.3408494573627686,0.6367720218795201,0.6067362906656277,0.3347313259169079,-0.7014033398798244,-0.0057439173963734005,0.03531268750556069,0.006731903227941388,0.043194060642765084,0.0019147983946241891,0.003754540012326144
484,0.7292152675941302,-0.3408494573627686,0.6367720218795201,0.6067362906656277,0.3347313259169079,-0.7014033398798244,-0.0057439173963734005,0.03531268750556069,0.006731903227941388,0.043194060642765084,0.0019147983946241891,0.003754540012326144
485,0.7292152675941302,-0.3408494573627686,0.6367720218795201,0.6067362906656277,0.3347313259169079,-0.7014033398798244,-0.0057439173963734005,0.03531268750556069,0.006731903227941388,0.043194060642765084,0.0019147983946241891,0.003754540012326144
486,0.7292152675941302,-0.3408494573627686,0.6367720218795201,0.6067362906656277,0.3347313259169079,-0.7014033398798244,-0.0057439173963734005,0.03531268750556069,0.006731903227941388,0.043194060642765084,0.0019147983946241891,0.003754540012326144
487,0.7292152675941302,-0.3408494573627686,0.6367720218795201,0.6054051897166602,0.33480566837114994,-0.7013894740121988,0.009114809320306892,0.30991424605476925,0.013132061151952772,0.018476931428415687,0.009653923453998226,0.004683756420865239
488,0.7292152675941302,-0.3408494573627686,0.6367720218795201,0.6054051897166602,0.33480566837114994,-0.7013894740121988,0.009114809320306892,0.30991424605476925,0.013132061151952772,0.018476931428415687,0.009653923453998226,0.004683756420865239
489,0.7292152675941302,-0.3408494573627686,0.6367720218795201,0.6054051897166602,0.33480566837114994,-0.7013894740121988,0.009114809320306892,0.30991424605476925,0.013132061151952772,0.018476931428415687,0.009653923453998226,0.004683756420865239
490,0.7292152675941302,-0.3408494573627686,0.6367720218795201,0.6054051897166602,0.33480566837114994,-0.7013894740121988,0.009114809320306892,0.30991424605476925,0.013132061151952772,0.018476931428415687,0.009653923453998226,0.004683756420865239
491,0.7292152675941302,-0.3408494573627686,0.6367720218795201,0.6054051897166602,0.33480566837114994,-0.7013894740121988,0.009114809320306892,0.30991424605476925,0.013132061151952772,0.018476931428415687,0.009653923453998226,0.004683756420865239
492,0.7292152675941302,-0.3408494573627686,0.6367720218795201,0.6054051897166602,0.33480566837114994,-0.7013894740121988,0.009114809320306892,0.30991424605476925,0.013132061151952772,0.018476931428415687,0.009653923453998226,0.004683756420865239
493,0.7292152675941302,-0.3408494573627686,0.6367720218795201,0.6056363532829682,0.33491241239474545,-0.7013673635746335,-0.008143745352574358,-0.27997353152912985,0.016495460915847138,-0.015253803312963969,0.012920681878053319,-0.02024503061413007
494,0.7292152675941302,-0.3408494573627686,0.6367720218795201,0.6056363532829682,0.33491241239474545,-0.7013673635746335,-0.008143745352574358,-0.27997353152912985,0.016495460915847138,-0.015253803312963969,0.012920681878053319,-0.02024503061413007
495,0.7292152675941302,-0.3408494573627686,0.6367720218795201,0.6056363532829682,0.33491241239474545,-0.7013673635746335,-0.008143745352574358,-0.27997353152912985,0.016495460915847138,-0.015253803312963969,0.012920681878053319,-0.02024503061413007
496,0.7292152675941302,-0.3408494573627686,0.6367720218795201,0.6056363532829682,0.33491241239474545,-0.7013673635746335,-0.008143745352574358,-0.27997353152912985,0.016495460915847138,-0.015253803312963969,0.012920681878053319,-0.02024503061413007
497,0.7292152675941302,-0.3408494573627686,0.6367720218795201,0.6056363532829682,0.33491241239474545,-0.7013673635746335,-0.008143745352574358,-0.27997353152912985,0.016495460915847138,-0.015253803312963969,0.012920681878053319,-0.02024503061413007
498,0.7292152675941302,-0.3408494573627686,0.6367720218795201,0.6056363532829682,0.33491241239474545,-0.7013673635746335,-0.008143745352574358,-0.27997353152912985,0.016495460915847138,-0.015253803312963969,0.012920681878053319,-0.02024503061413007
499,0.7292152675941302,-0.3408494573627686,0.6367720218795201,0.6027263396752249,0.3349790729482562,-0.7013564957324404,0.00426361127225686,0.0011849895175935407,-0.00896226190251598,0.0741787657848015,0.012887028147961804,-0.0021043298062320137
500,0.7292152675941302,-0.3408494573627686,0.6367720218795201,0.6027263396752249,0.3349790729482562,-0.7013564957324404,0.00426361127225686,0.0011849895175935407,-0.00896226190251598,0.0741787657848015,0.012887028147961804,-0.0021043298062320137
501,0.7292152675941302,-0.3408494573627686,0.6367720218795201,0.6027263396752249,0.3349790729482562,-0.7013564957324404,0.00426361127225686,0.0011849895175935407,-0.00896226190251598,0.0741787657848015,0.012887028147961804,-0.0021043298062320137
502,0.7292152675941302,-0.3408494573627686,0.6367720218795201,0.6027263396752249,0.3349790729482562,-0.7013564957324404,0.00426361127225686,0.0011849895175935407,-0.00896226190251598,0.0741787657848015,0.012887028147961804,-0.0021043298062320137
503,0.7292152675941302,-0.3408494573627686,0.6367720218795201,0.6027263396752249,0.3349790729482562,-0.7013564957324404,0.00426361127225686,0.0011849895175935407,-0.00896226190251598,0.0741787657848015,0.012887028147961804,-0.0021043298062320137
504,0.7292152675941302,-0.3408494573627686,0.6367720218795201,0.6027263396752249,0.3349790729482562,-0.7013564957324404,0.00426361127225686,0.0011849895175935407,-0.00896226190251598,0.0741787657848015,0.012887028147961804,-0.0021043298062320137
505,0.7292152675941302,-0.3408494573627686,0.6367720218795201,0.6007472802449396,0.3351021094807163,-0.7013331860847022,0.0010287921589273387,0.06035546813424138,0.0073749819115951415,0.11699478855689566,0.011703120397551094,0.0008791274750338363
506,0.7292152675941302,-0.3408494573627686,0.6367720218795201,0.6007472802449396,0.3351021094807163,-0.7013331860847022,0.0010287921589273387,0.06035546813424138,0.0073749819115951415,0.11699478855689566,0.011703120397551094,0.0008791274750338363
507,0.7292152675941302,-0.3408494573627686,0.6367720218795201,0.6007472802449396,0.3351021094807163,-0.7013331860847022,0.0010287921589273387,0.06035546813424138,0.0073749819115951415,0.11699478855689566,0.011703120397551094,0.0008791274750338363
508,0.7292152675941302,-0.3408494573627686,0.6367720218795201,0.6007472802449396,0.3351021094807163,-0.7013331860847022,0.0010287921589273387,0.06035546813424138,0.0073749819115951415,0.11699478855689566,0.011703120397551094,0.0008791274750338363
509,0.7292152675941302,-0.3408494573627686,0.6367720218795201,0.6007472802449396,0.3351021094807163,-0.7013331860847022,0.0010287921589273387,0.06035546813424138,0.0073749819115951415,0.11699478855689566,0.011703120397551094,0.0008791274750338363
510,0.7292152675941302,-0.3408494573627686,0.6367720218795201,0.6007472802449396,0.3351021094807163,-0.7013331860847022,0.0010287921589273387,0.06035546813424138,0.0073749819115951415,0.11699478855689566,0.011703120397551094,0.0008791274750338363
511,0.7292152675941302,-0.3408494573627686,0.6367720218795201,0.599808911730349,0.33520130918986224,-0.7013138488206622,0.0021379908395853463,-0.028123751949702076,0.0036134858653818548,-0.17700584197239225,0.006084489175699385,-0.021885340231445564
512,0.7292152675941302,-0.3408494573627686,0.6367720218795201,0.599808911730349,0.33520130918986224,-0.7013138488206622,0.0021379908395853463,-0.028123751949702076,0.0036134858653818548,-0.17700584197239225,0.006084489175699385,-0.021885340231445564
513,0.7292152675941302,-0.3408494573627686,0.6367720218795201,0.599808911730349,0.33520130918986224,-0.7013138488206622,0.0021379908395853463,-0.028123751949702076,0.0036134858653818548,-0.17700584197239225,0.006084489175699385,-0.021885340231445564
514,0.7292152675941302,-0.3408494573627686,0.6367720218795201,0.599808911730349,0.33520130918986224,-0.7013138488206622,0.0021379908395853463,-0.028123751949702076,0.0036134858653818548,-0.17700584197239225,0.006084489175699385,-0.021885340231445564
515,0.7292152675941302,-0.3408494573627686,0.6367720218795201,0.599808911730349,0.33520130918986224,-0.7013138488206622,0.0021379908395853463,-0.028123751949702076,0.0036134858653818548,-0.17700584197239225,0.006084489175699385,-0.021885340231445564
516,0.7292152675941302,-0.3408494573627686,0.6367720218795201,0.599808911730349,0.33520130918986224,-0.7013138488206622,0.0021379908395853463,-0.028123751949702076,0.0036134858653818548,-0.17700584197239225,0.006084489175699385,-0.021885340231445564
517,0.7292152675941302,-0.3408494573627686,0.6367720218795201,0.599096134657534,0.33526306249932364,-0.7013019316695677,0.004034761842859213,-0.1997102324944347,-0.00896226190251598,-0.00852319743818676,0.016053043347495587,0.0005640372297095349
518,0.7292152675941302,-0.3408494573627686,0.6367720218795201,0.599096134657534,0.33526306249932364,-0.7013019316695677,0.004034761842859213,-0.1997102324944347,-0.00896226190251598,-0.00852319743818676,0.016053043347495587,0.0005640372297095349
519,0.7292152675941302,-0.3408494573627686,0.6367720218795201,0.599096134657534,0.33526306249932364,-0.7013019316695677,0.004034761842859213,-0.1997102324944347,-0.00896226190251598,-0.00852319743818676,0.016053043347495587,0.0005640372297095349
520,0.7292152675941302,-0.3408494573627686,0.6367720218795201,0.599096134657534,0.33526306249932364,-0.7013019316695677,0.004034761842859213,-0.1997102324944347,-0.00896226190251598,-0.00852319743818676,0.016053043347495587,0.0005640372297095349
521,0.7292152675941302,-0.3408494573627686,0.6367720218795201,0.599096134657534,0.33526306249932364,-0.7013019316695677,0.004034761842859213,-0.1997102324944347,-0.00896226190251598,-0.00852319743818676,0.016053043347495587,0.0005640372297095349
522,0.7292152675941302,-0.3408494573627686,0.6367720218795201,0.599096134657534,0.33526306249932364,-0.7013019316695677,0.004034761842859213,-0.1997102324944347,-0.00896226190251598,-0.00852319743818676,0.016053043347495587,0.0005640372297095349
523,0.7292152675941302,-0.3408494573627686,0.6367720218795201,0.5989883765920906,0.335439482509105,-0.7012659553643767,-0.008248892455744573,-0.26670164673563607,0.012289934806540287,0.21859842476513394,0.02038857349718512,-0.004080440117876496
524,0.7292152675941302,-0.3408494573627686,0.6367720218795201,0.5989883765920906,0.335439482509105,-0.7012659553643767,-0.008248892455744573,-0.26670164673563607,0.012289934806540287,0.21859842476513394,0.02038857349718512,-0.004080440117876496
525,0.7292152675941302,-0.3408494573627686,0.6367720218795201,0.5989883765920906,0.335439482509105,-0.7012659553643767,-0.008248892455744573,-0.26670164673563607,0.012289934806540287,0.21859842476513394,0.02038857349718512,-0.004080440117876496
526,0.7292152675941302,-0.3408494573627686,0.6367720218795201,0.5989883765920906,0.335439482509105,-0.7012659553643767,-0.008248892455744573,-0.26670164673563607,0.012289934806540287,0.21859842476513394,0.02038857349718512,-0.004080440117876496
527,0.7292152675941302,-0.3408494573627686,0.6367720218795201,0.5989883765920906,0.335439482509105,-0.7012659553643767,-0.008248892455744573,-0.26670164673563607,0.012289934806540287,0.21859842476513394,0.02038857349718512,-0.004080440117876496
528,0.7292152675941302,-0.3408494573627686,0.6367720218795201,0.5989883765920906,0.335439482509105,-0.7012659553643767,-0.008248892455744573,-0.26670164673563607,0.012289934806540287,0.21859842476513394,0.02038857349718512,-0.004080440117876496
529,0.7292152675941302,-0.3408494573627686,0.6367720218795201,0.5989883765920906,0.335439482509105,-0.7012659553643767,-0.008248892455744573,-0.26670164673563607,0.012289934806540287,0.21859842476513394,0.02038857349718512,-0.004080440117876496
530,0.7292152675941302,-0.3408494573627686,0.6367720218795201,0.5971480744343403,0.33542781060620275,-0.7012700026987108,0.0019050178766641668,0.09645814904728715,-0.0005716248680334915,-0.04561764691077099,0.013730840312229844,-0.012655785854182503
531,0.7292152675941302,-0.3408494573627686,0.6367720218795201,0.5971480744343403,0.33542781060620275,-0.7012700026987108,0.0019050178766641668,0.09645814904728715,-0.0005716248680334915,-0.04561764691077099,0.013730840312229844,-0.012655785854182503
532,0.7292152675941302,-0.3408494573627686,0.6367720218795201,0.5971480744343403,0.33542781060620275,-0.7012700026987108,0.0019050178766641668,0.09645814904728715,-0.0005716248680334915,-0.04561764691077099,0.013730840312229844,-0.012655785854182503
533,0.7292152675941302,-0.3408494573627686,0.6367720218795201,0.5971480744343403,0.33542781060620275,-0.7012700026987108,0.0019050178766641668,0.09645814904728715,-0.0005716248680334915,-0.04561764691077099,0.013730840312229844,-0.012655785854182503
534,0.7292152675941302,-0.3408494573627686,0.6367720218795201,0.5971480744343403,0.33542781060620275,-0.7012700026987108,0.0019050178766641668,0.09645814904728715,-0.0005716248680334915,-0.04561764691077099,0.013730840312229844,-0.012655785854182503
535,0.7292152675941302,-0.3408494573627686,0.6367720218795201,0.5971480744343403,0.33542781060620275,-0.7012700026987108,0.0019050178766641668,0.09645814904728715,-0.0005716248680334915,-0.04561764691077099,0.013730840312229844,-0.012655785854182503
536,0.7292152675941302,-0.3408494573627686,0.6367720218795201,0.5993918438949539,0.3354484600139896,-0.7012637817959382,-0.004319277716055574,0.1243448970384028,0.017296755742435447,0.2689048190297161,0.03038746203346406,-0.0040979925027730645
537,0.7292152675941302,-0.3408494573627686,0.6367720218795201,0.5993918438949539,0.3354484600139896,-0.7012637817959382,-0.004319277716055574,0.1243448970384028,0.017296755742435447,0.2689048190297161,0.03038746203346406,-0.0040979925027730645
538,0.7292152675941302,-0.3408494573627686,0.6367720218795201,0.5993918438949539,0.3354484600139896,-0.7012637817959382,-0.004319277716055574,0.1243448970384028,0.017296755742435447,0.2689048190297161,0.03038746203346406,-0.0040979925027730645
539,0.7292152675941302,-0.3408494573627686,0.6367720218795201,0.5993918438949539,0.3354484600139896,-0.7012637817959382,-0.004319277716055574,0.1243448970384028,0.017296755742435447,0.2689048190297161,0.03038746203346406,-0.0040979925027730645
540,0.7292152675941302,-0.3408494573627686,0.6367720218795201,0.5993918438949539,0.3354484600139896,-0.7012637817959382,-0.004319277716055574,0.1243448970384028,0.017296755742435447,0.2689048190297161,0.03038746203346406,-0.0040979925027730645
541,0.7292152675941302,-0.3408494573627686,0.6367720218795201,0.5993918438949539,0.3354484600139896,-0.7012637817959382,-0.004319277716055574,0.1243448970384028,0.017296755742435447,0.2689048190297161,0.03038746203346406,-0.0040979925027730645
542,0.7292152675941302,-0.3408494573627686,0.6367720218795201,0.6003920971069003,0.3354417068206601,-0.7012641565491172,-0.00033812004672571745,-0.29529937543672125,0.01942503945515544,0.04984896331504553,0.01037750825968879,-0.000860451090147536
543,0.7292152675941302,-0.3408494573627686,0.6367720218795201,0.6003920971069003,0.3354417068206601,-0.7012641565491172,-0.00033812004672571745,-0.29529937543672125,0.01942503945515544,0.04984896331504553,0.01037750825968879,-0.000860451090147536
544,0.7292152675941302,-0.3408494573627686,0.6367720218795201,0.6003920971069003,0.3354417068206601,-0.7012641565491172,-0.00033812004672571745,-0.29529937543672125,0.01942503945515544,0.04984896331504553,0.01037750825968879,-0.000860451090147536
545,0.7292152675941302,-0.3408494573627686,0.6367720218795201,0.6003920971069003,0.3354417068206601,-0.7012641565491172,-0.00033812004672571745,-0.29529937543672125,0.01942503945515544,0.04984896331504553,0.01037750825968879,-0.000860451090147536
546,0.7292152675941302,-0.3408494573627686,0.6367720218795201,0.6003920971069003,0.3354417068206601,-0.7012641565491172,-0.00033812004672571745,-0.29529937543672125,0.01942503945515544,0.04984896331504553,0.01037750825968879,-0.000860451090147536
547,0.7292152675941302,-0.3408494573627686,0.6367720218795201,0.6003920971069003,0.3354417068206601,-0.7012641565491172,-0.00033812004672571745,-0.29529937543672125,0.01942503945515544,0.04984896331504553,0.01037750825968879,-0.000860451090147536
548,0.7292152675941302,-0.3408494573627686,0.6367720218795201,0.6016894923882893,0.335452748119771,-0.7012607088198698,0.006255221222690791,-0.26022369634200265,0.005389605638355383,0.06616873167816975,0.010366880094684795,-0.009480267345372634
549,0.7292152675941302,-0.3408494573627686,0.6367720218795201,0.6016894923882893,0.335452748119771,-0.7012607088198698,0.006255221222690791,-0.26022369634200265,0.005389605638355383,0.06616873167816975,0.010366880094684795,-0.009480267345372634
550,0.7292152675941302,-0.3408494573627686,0.6367720218795201,0.6016894923882893,0.335452748119771,-0.7012607088198698,0.006255221222690791,-0.26022369634200265,0.005389605638355383,0.06616873167816975,0.010366880094684795,-0.009480267345372634
551,0.7292152675941302,-0.3408494573627686,0.6367720218795201,0.6016894923882893,0.335452748119771,-0.7012607088198698,0.006255221222690791,-0.26022369634200265,0.005389605638355383,0.06616873167816975,0.010366880094684795,-0.009480267345372634
552,0.7292152675941302,-0.3408494573627686,0.6367720218795201,0.6016894923882893,0.335452748119771,-0.7012607088198698,0.006255221222690791,-0.26022369634200265,0.005389605638355383,0.06616873167816975,0.010366880094684795,-0.009480267345372634
553,0.7292152675941302,-0.3408494573627686,0.6367720218795201,0.6016894923882893,0.335452748119771,-0.7012607088198698,0.006255221222690791,-0.26022369634200265,0.005389605638355383,0.06616873167816975,0.010366880094684795,-0.009480267345372634
554,0.7292152675941302,-0.3408494573627686,0.6367720218795201,0.6028053956134861,0.3354582401055177,-0.701258610202067,0.007032484730863494,0.306438295839028,-0.017327378422752122,0.09937935495516326,0.01703059128081571,-0.0073414741805900826
555,0.7292152675941302,-0.3408494573627686,0.6367720218795201,0.6028053956134861,0.3354582401055177,-0.701258610202067,0.007032484730863494,0.306438295839028,-0.017327378422752122,0.09937935495516326,0.01703059128081571,-0.0073414741805900826
556,0.7292152675941302,-0.3408494573627686,0.6367720218795201,0.6028053956134861,0.3354582401055177,-0.701258610202067,0.007032484730863494,0.306438295839028,-0.017327378422752122,0.09937935495516326,0.01703059128081571,-0.0073414741805900826
557,0.7292152675941302,-0.3408494573627686,0.6367720218795201,0.6028053956134861,0.3354582401055177,-0.701258610202067,0.007032484730863494,0.306438295839028,-0.017327378422752122,0.09937935495516326,0.01703059128081571,-0.0073414741805900826
558,0.7292152675941302,-0.3408494573627686,0.6367720218795201,0.6028053956134861,0.3354582401055177,-0.701258610202067,0.007032484730863494,0.306438295839028,-0.017327378422752122,0.09937935495516326,0.01703059128081571,-0.0073414741805900826
559,0.7292152675941302,-0.3408494573627686,0.6367720218795201,0.6028053956134861,0.3354582401055177,-0.701258610202067,0.007032484730863494,0.306438295839028,-0.017327378422752122,0.09937935495516326,0.01703059128081571,-0.0073414741805900826
560,0.7292152675941302,-0.3408494573627686,0.6367720218795201,0.6035245863153544,0.3355933498342019,-0.7012302788617292,0.0015668978105727728,-0.00023699790351870811,-0.010263728452678542,0.0065875599732240124,0.02138981410289811,-0.02372761071827
561,0.7292152675941302,-0.3408494573627686,0.6367720218795201,0.6035245863153544,0.3355933498342019,-0.7012302788617292,0.0015668978105727728,-0.00023699790351870811,-0.010263728452678542,0.0065875599732240124,0.02138981410289811,-0.02372761071827
562,0.7292152675941302,-0.3408494573627686,0.6367720218795201,0.6035245863153544,0.3355933498342019,-0.7012302788617292,0.0015668978105727728,-0.00023699790351870811,-0.010263728452678542,0.0065875599732240124,0.02138981410289811,-0.02372761071827
563,0.7292152675941302,-0.3408494573627686,0.6367720218795201,0.6035245863153544,0.3355933498342019,-0.7012302788617292,0.0015668978105727728,-0.00023699790351870811,-0.010263728452678542,0.0065875599732240124,0.02138981410289811,-0.02372761071827
564,0.7292152675941302,-0.3408494573627686,0.6367720218795201,0.6035245863153544,0.3355933498342019,-0.7012302788617292,0.0015668978105727728,-0.00023699790351870811,-0.010263728452678542,0.0065875599732240124,0.02138981410289811,-0.02372761071827
565,0.7292152675941302,-0.3408494573627686,0.6367720218795201,0.6035245863153544,0.3355933498342019,-0.7012302788617292,0.0015668978105727728,-0.00023699790351870811,-0.010263728452678542,0.0065875599732240124,0.02138981410289811,-0.02372761071827
566,0.7282603125825186,-0.33844291051369474,0.6543759737913012,0.6037150392575291,0.33587995352462274,-0.701171442612615,-0.004348141482436474,0.08476625848918967,-4.0830349086394333e-05,0.1410799288762845,0.012313783455427689,0.0015059364941674071
567,0.7282603125825186,-0.33844291051369474,0.6543759737913012,0.6037150392575291,0.33587995352462274,-0.701171442612615,-0.004348141482436474,0.08476625848918967,-4.0830349086394333e-05,0.1410799288762845,0.012313783455427689,0.0015059364941674071
568,0.7282603125825186,-0.33844291051369474,0.6543759737913012,0.6037150392575291,0.33587995352462274,-0.701171442612615,-0.004348141482436474,0.08476625848918967,-4.0830349086394333e-05,0.1410799288762845,0.012313783455427689,0.0015059364941674071
569,0.7282603125825186,-0.33844291051369474,0.6543759737913012,0.6037150392575291,0.33587995352462274,-0.701171442612615,-0.004348141482436474,0.08476625848918967,-4.0830349086394333e-05,0.1410799288762845,0.012313783455427689,0.0015059364941674071
570,0.7282603125825186,-0.33844291051369474,0.6543759737913012,0.6037150392575291,0.33587995352462274,-0.701171442612615,-0.004348141482436474,0.08476625848918967,-4.0830349086394333e-05,0.1410799288762845,0.012313783455427689,0.0015059364941674071
571,0.7282603125825186,-0.33844291051369474,0.6543759737913012,0.6037150392575291,0.33587995352462274,-0.701171442612615,-0.004348141482436474,0.08476625848918967,-4.0830349086394333e-05,0.1410799288762845,0.012313783455427689,0.0015059364941674071
572,0.7282603125825186,-0.33844291051369474,0.6543759737913012,0.6040176852214075,0.33611214184060917,-0.7011235491563297,0.004579052969081037,0.20350220381853357,-0.011805074662824737,0.04424381453167509,0.02105923954327828,0.008574810896653323
573,0.7282603125825186,-0.33844291051369474,0.6543759737913012,0.6040176852214075,0.33611214184060917,-0.7011235491563297,0.004579052969081037,0.20350220381853357,-0.011805074662824737,0.04424381453167509,0.02105923954327828,0.008574810896653323
574,0.7282603125825186,-0.33844291051369474,0.6543759737913012,0.6040176852214075,0.33611214184060917,-0.7011235491563297,0.004579052969081037,0.20350220381853357,-0.011805074662824737,0.04424381453167509,0.02105923954327828,0.008574810896653323
575,0.7282603125825186,-0.33844291051369474,0.6543759737913012,0.6040176852214075,0.33611214184060917,-0.7011235491563297,0.004579052969081037,0.20350220381853357,-0.011805074662824737,0.04424381453167509,0.02105923954327828,0.008574810896653323
576,0.7282603125825186,-0.33844291051369474,0.6543759737913012,0.6040176852214075,0.33611214184060917,-0.7011235491563297,0.004579052969081037,0.20350220381853357,-0.011805074662824737,0.04424381453167509,0.02105923954327828,0.008574810896653323
577,0.7282603125825186,-0.33844291051369474,0.6543759737913012,0.6040176852214075,0.33611214184060917,-0.7011235491563297,0.004579052969081037,0.20350220381853357,-0.011805074662824737,0.04424381453167509,0.02105923954327828,0.008574810896653323
578,0.7282603125825186,-0.33844291051369474,0.6543759737913012,0.6059608101343013,0.33641398321173444,-0.7010599160665233,0.0014906146674402239,0.3201051624954121,0.007921087415944035,-0.10368797267556157,0.019750455409258776,0.007983909303132539
579,0.7282603125825186,-0.33844291051369474,0.6543759737913012,0.6059608101343013,0.33641398321173444,-0.7010599160665233,0.0014906146674402239,0.3201051624954121,0.007921087415944035,-0.10368797267556157,0.019750455409258776,0.007983909303132539
580,0.7282603125825186,-0.33844291051369474,0.6543759737913012,0.6059608101343013,0.33641398321173444,-0.7010599160665233,0.0014906146674402239,0.3201051624954121,0.007921087415944035,-0.10368797267556157,0.019750455409258776,0.007983909303132539
581,0.7282603125825186,-0.33844291051369474,0.6543759737913012,0.6059608101343013,0.33641398321173444,-0.7010599160665233,0.0014906146674402239,0.3201051624954121,0.007921087415944035,-0.10368797267556157,0.019750455409258776,0.007983909303132539
582,0.7282603125825186,-0.33844291051369474,0.6543759737913012,0.6059608101343013,0.33641398321173444,-0.7010599160665233,0.0014906146674402239,0.3201051624954121,0.007921087415944035,-0.10368797267556157,0.019750455409258776,0.007983909303132539
583,0.7282603125825186,-0.33844291051369474,0.6543759737913012,0.6059608101343013,0.33641398321173444,-0.7010599160665233,0.0014906146674402239,0.3201051624954121,0.007921087415944035,-0.10368797267556157,0.019750455409258776,0.007983909303132539
584,0.7282603125825186,-0.33844291051369474,0.6543759737913012,0.6081308683475316,0.33683552464798727,-0.7009713993656267,0.007112891407519576,0.24710981468226156,-0.0019241301935053223,-0.18862961590255148,0.009470591479589228,-0.017561144024350626
585,0.7282603125825186,-0.33844291051369474,0.6543759737913012,0.6081308683475316,0.33683552464798727,-0.7009713993656267,0.007112891407519576,0.24710981468226156,-0.0019241301935053223,-0.18862961590255148,0.009470591479589228,-0.017561144024350626
586,0.7282603125825186,-0.33844291051369474,0.6543759737913012,0.6081308683475316,0.33683552464798727,-0.7009713993656267,0.007112891407519576,0.24710981468226156,-0.0019241301935053223,-0.18862961590255148,0.009470591479589228,-0.017561144024350626
587,0.7282603125825186,-0.33844291051369474,0.6543759737913012,0.6081308683475316,0.33683552464798727,-0.7009713993656267,0.007112891407519576,0.24710981468226156,-0.0019241301935053223,-0.18862961590255148,0.009470591479589228,-0.017561144024350626
588,0.7282603125825186,-0.33844291051369474,0.6543759737913012,0.6081308683475316,0.33683552464798727,-0.7009713993656267,0.007112891407519576,0.24710981468226156,-0.0019241301935053223,-0.18862961590255148,0.009470591479589228,-0.017561144024350626
589,0.7282603125825186,-0.33844291051369474,0.6543759737913012,0.6081308683475316,0.33683552464798727,-0.7009713993656267,0.007112891407519576,0.24710981468226156,-0.0019241301935053223,-0.18862961590255148,0.009470591479589228,-0.017561144024350626
590,0.7282603125825186,-0.33844291051369474,0.6543759737913012,0.6121670651816495,0.3372373453838551,-0.7008849812825327,-0.009574570623662633,-0.36189581523545844,-0.007722039754185304,-0.047211834605801584,0.004755997931163511,-0.016198195997543158
591,0.7282603125825186,-0.33844291051369474,0.6543759737913012,0.6121670651816495,0.3372373453838551,-0.7008849812825327,-0.009574570623662633,-0.36189581523545844,-0.007722039754185304,-0.047211834605801584,0.004755997931163511,-0.016198195997543158
592,0.7282603125825186,-0.33844291051369474,0.6543759737913012,0.6121670651816495,0.3372373453838551,-0.7008849812825327,-0.009574570623662633,-0.36189581523545844,-0.007722039754185304,-0.047211834605801584,0.004755997931163511,-0.016198195997543158
593,0.7282603125825186,-0.33844291051369474,0.6543759737913012,0.6121670651816495,0.3372373453838551,-0.7008849812825327,-0.009574570623662633,-0.36189581523545844,-0.007722039754185304,-0.047211834605801584,0.004755997931163511,-0.016198195997543158
594,0.7282603125825186,-0.33844291051369474,0.6543759737913012,0.6121670651816495,0.3372373453838551,-0.7008849812825327,-0.009574570623662633,-0.36189581523545844,-0.007722039754185304,-0.047211834605801584,0.004755997931163511,-0.016198195997543158
595,0.7282603125825186,-0.33844291051369474,0.6543759737913012,0.6121670651816495,0.3372373453838551,-0.7008849812825327,-0.009574570623662633,-0.36189581523545844,-0.007722039754185304,-0.047211834605801584,0.004755997931163511,-0.016198195997543158
596,0.7282603125825186,-0.33844291051369474,0.6543759737913012,0.6164322194756279,0.337459914125642,-0.7008352140603521,-0.006533551505116703,-0.21179712717670085,0.02395720620943818,-0.02783284600221452,0.02127777811142094,-0.0026618381608860997
597,0.7282603125825186,-0.33844291051369474,0.6543759737913012,0.6164322194756279,0.337459914125642,-0.7008352140603521,-0.006533551505116703,-0.21179712717670085,0.02395720620943818,-0.02783284600221452,0.02127777811142094,-0.0026618381608860997
598,0.7282603125825186,-0.33844291051369474,0.6543759737913012,0.6164322194756279,0.337459914125642,-0.7008352140603521,-0.006533551505116703,-0.21179712717670085,0.02395720620943818,-0.02783284600221452,0.02127777811142094,-0.0026618381608860997
599,0.7282603125825186,-0.33844291051369474,0.6543759737913012,0.6164322194756279,0.337459914125642,-0.7008352140603521,-0.006533551505116703,-0.21179712717670085,0.02395720620943818,-0.02783284600221452,0.02127777811142094,-0.0026618381608860997
600,0.7282603125825186,-0.33844291051369474,0.6543759737913012,0.6164322194756279,0.337459914125642,-0.7008352140603521,-0.006533551505116703,-0.21179712717670085,0.02395720620943818,-0.02783284600221452,0.02127777811142094,-0.0026618381608860997
601,0.7282603125825186,-0.33844291051369474,0.6543759737913012,0.6164322194756279,0.337459914125642,-0.7008352140603521,-0.006533551505116703,-0.21179712717670085,0.02395720620943818,-0.02783284600221452,0.02127777811142094,-0.0026618381608860997
602,0.7282603125825186,-0.33844291051369474,0.6543759737913012,0.6224158624620727,0.33767007717102404,-0.7007861963445295,0.0028884522513105333,0.1873863442421787,0.009084752623782666,-0.017527785469080206,0.017790709606549583,0.011973590060465266
603,0.7282603125825186,-0.33844291051369474,0.6543759737913012,0.6224158624620727,0.33767007717102404,-0.7007861963445295,0.0028884522513105333,0.1873863442421787,0.009084752623782666,-0.017527785469080206,0.017790709606549583,0.011973590060465266
604,0.7282603125825186,-0.33844291051369474,0.6543759737913012,0.6224158624620727,0.33767007717102404,-0.7007861963445295,0.0028884522513105333,0.1873863442421787,0.009084752623782666,-0.017527785469080206,0.017790709606549583,0.011973590060465266
605,0.7282603125825186,-0.33844291051369474,0.6543759737913012,0.6224158624620727,0.33767007717102404,-0.7007861963445295,0.0028884522513105333,0.1873863442421787,0.009084752623782666,-0.017527785469080206,0.017790709606549583,0.011973590060465266
606,0.7282603125825186,-0.33844291051369474,0.6543759737913012,0.6224158624620727,0.33767007717102404,-0.7007861963445295,0.0028884522513105333,0.1873863442421787,0.009084752623782666,-0.017527785469080206,0.017790709606549583,0.011973590060465266
607,0.7282603125825186,-0.33844291051369474,0.6543759737913012,0.6224158624620727,0.33767007717102404,-0.7007861963445295,0.0028884522513105333,0.1873863442421787,0.009084752623782666,-0.017527785469080206,0.017790709606549583,0.011973590060465266
608,0.7282603125825186,-0.33844291051369474,0.6543759737913012,0.6290958618114866,0.33783103018963134,-0.7007466224088196,0.003102870184831262,-0.13769577968855987,0.010054473870015224,-0.04533828027995304,0.01544459388330307,0.031004441082575954
609,0.7282603125825186,-0.33844291051369474,0.6543759737913012,0.6290958618114866,0.33783103018963134,-0.7007466224088196,0.003102870184831262,-0.13769577968855987,0.010054473870015224,-0.04533828027995304,0.01544459388330307,0.031004441082575954
610,0.7282603125825186,-0.33844291051369474,0.6543759737913012,0.6290958618114866,0.33783103018963134,-0.7007466224088196,0.003102870184831262,-0.13769577968855987,0.010054473870015224,-0.04533828027995304,0.01544459388330307,0.031004441082575954
611,0.7282603125825186,-0.33844291051369474,0.6543759737913012,0.6290958618114866,0.33783103018963134,-0.7007466224088196,0.003102870184831262,-0.13769577968855987,0.010054473870015224,-0.04533828027995304,0.01544459388330307,0.031004441082575954
612,0.7282603125825186,-0.33844291051369474,0.6543759737913012,0.6290958618114866,0.33783103018963134,-0.7007466224088196,0.003102870184831262,-0.13769577968855987,0.010054473870015224,-0.04533828027995304,0.01544459388330307,0.031004441082575954
613,0.7282603125825186,-0.33844291051369474,0.6543759737913012,0.6290958618114866,0.33783103018963134,-0.7007466224088196,0.003102870184831262,-0.13769577968855987,0.010054473870015224,-0.04533828027995304,0.01544459388330307,0.031004441082575954
614,0.7282603125825186,-0.33844291051369474,0.6543759737913012,0.6380962757630388,0.3379942304508407,-0.7007040504476771,-0.0011751733579295795,-0.19244229611374236,0.006435883825079984,-0.09086551875830856,0.004195596136114509,-0.015530342449860204
615,0.7282603125825186,-0.33844291051369474,0.6543759737913012,0.6380962757630388,0.3379942304508407,-0.7007040504476771,-0.0011751733579295795,-0.19244229611374236,0.006435883825079984,-0.09086551875830856,0.004195596136114509,-0.015530342449860204
616,0.7282603125825186,-0.33844291051369474,0.6543759737913012,0.6380962757630388,0.3379942304508407,-0.7007040504476771,-0.0011751733579295795,-0.19244229611374236,0.006435883825079984,-0.09086551875830856,0.004195596136114509,-0.015530342449860204
617,0.7282603125825186,-0.33844291051369474,0.6543759737913012,0.6380962757630388,0.3379942304508407,-0.7007040504476771,-0.0011751733579295795,-0.19244229611374236,0.006435883825079984,-0.09086551875830856,0.004195596136114509,-0.015530342449860204
618,0.7282603125825186,-0.33844291051369474,0.6543759737913012,0.6380962757630388,0.3379942304508407,-0.7007040504476771,-0.0011751733579295795,-0.19244229611374236,0.006435883825079984,-0.09086551875830856,0.004195596136114509,-0.015530342449860204
619,0.7282603125825186,-0.33844291051369474,0.6543759737913012,0.6380962757630388,0.3379942304508407,-0.7007040504476771,-0.0011751733579295795,-0.19244229611374236,0.006435883825079984,-0.09086551875830856,0.004195596136114509,-0.015530342449860204
620,0.7282603125825186,-0.33844291051369474,0.6543759737913012,0.6454155456281732,0.3379569101719144,-0.7007045001514919,0.004459473789063605,-0.040368643829380026,0.0047312168130451155,0.003027527450371695,0.0030851991011167416,-0.026205040174354485
621,0.7282603125825186,-0.33844291051369474,0.6543759737913012,0.6454155456281732,0.3379569101719144,-0.7007045001514919,0.004459473789063605,-0.040368643829380026,0.0047312168130451155,0.003027527450371695,0.0030851991011167416,-0.026205040174354485
622,0.7282603125825186,-0.33844291051369474,0.6543759737913012,0.6454155456281732,0.3379569101719144,-0.7007045001514919,0.004459473789063605,-0.040368643829380026,0.0047312168130451155,0.003027527450371695,0.0030851991011167416,-0.026205040174354485
623,0.7282603125825186,-0.33844291051369474,0.6543759737913012,0.6454155456281732,0.3379569101719144,-0.7007045001514919,0.004459473789063605,-0.040368643829380026,0.0047312168130451155,0.003027527450371695,0.0030851991011167416,-0.026205040174354485
624,0.7282603125825186,-0.33844291051369474,0.6543759737913012,0.6454155456281732,0.3379569101719144,-0.7007045001514919,0.004459473789063605,-0.040368643829380026,0.0047312168130451155,0.003027527450371695,0.0030851991011167416,-0.026205040174354485
625,0.7282603125825186,-0.33844291051369474,0.6543759737913012,0.6454155456281732,0.3379569101719144,-0.7007045001514919,0.004459473789063605,-0.040368643829380026,0.0047312168130451155,0.003027527450371695,0.0030851991011167416,-0.026205040174354485
626,0.7282603125825186,-0.33844291051369474,0.6543759737913012,0.6484138034938146,0.33799222398423173,-0.7006941944390676,0.0031111168645647958,-0.28771544762937573,0.015928940131486886,0.07756313107322392,0.011947120189887922,0.003819505965461599
627,0.7282603125825186,-0.33844291051369474,0.6543759737913012,0.6484138034938146,0.33799222398423173,-0.7006941944390676,0.0031111168645647958,-0.28771544762937573,0.015928940131486886,0.07756313107322392,0.011947120189887922,0.003819505965461599
628,0.7282603125825186,-0.33844291051369474,0.6543759737913012,0.6484138034938146,0.33799222398423173,-0.7006941944390676,0.0031111168645647958,-0.28771544762937573,0.015928940131486886,0.07756313107322392,0.011947120189887922,0.003819505965461599
629,0.7282603125825186,-0.33844291051369474,0.6543759737913012,0.6484138034938146,0.33799222398423173,-0.7006941944390676,0.0031111168645647958,-0.28771544762937573,0.015928940131486886,0.07756313107322392,0.011947120189887922,0.003819505965461599
630,0.7282603125825186,-0.33844291051369474,0.6543759737913012,0.6484138034938146,0.33799222398423173,-0.7006941944390676,0.0031111168645647958,-0.28771544762937573,0.015928940131486886,0.07756313107322392,0.011947120189887922,0.003819505965461599
631,0.7282603125825186,-0.33844291051369474,0.6543759737913012,0.6484138034938146,0.33799222398423173,-0.7006941944390676,0.0031111168645647958,-0.28771544762937573,0.015928940131486886,0.07756313107322392,0.011947120189887922,0.003819505965461599
632,0.7282603125825186,-0.33844291051369474,0.6543759737913012,0.6484138034938146,0.33799222398423173,-0.7006941944390676,0.0031111168645647958,-0.28771544762937573,0.015928940131486886,0.07756313107322392,0.011947120189887922,0.003819505965461599
633,0.7282603125825186,-0.33844291051369474,0.6543759737913012,0.6504429665581588,0.33812130284756564,-0.7006655258208685,0.004317215658808659,0.15594463333780628,-0.0017250822920462261,-0.04937598629521283,0.00963488185647135,0.0067911362883854316
634,0.7282603125825186,-0.33844291051369474,0.6543759737913012,0.6504429665581588,0.33812130284756564,-0.7006655258208685,0.004317215658808659,0.15594463333780628,-0.0017250822920462261,-0.04937598629521283,0.00963488185647135,0.0067911362883854316
635,0.7282603125825186,-0.33844291051369474,0.6543759737913012,0.6504429665581588,0.33812130284756564,-0.7006655258208685,0.004317215658808659,0.15594463333780628,-0.0017250822920462261,-0.04937598629521283,0.00963488185647135,0.0067911362883854316
636,0.7282603125825186,-0.33844291051369474,0.6543759737913012,0.6504429665581588,0.33812130284756564,-0.7006655258208685,0.004317215658808659,0.15594463333780628,-0.0017250822920462261,-0.04937598629521283,0.00963488185647135,0.0067911362883854316
637,0.7282603125825186,-0.33844291051369474,0.6543759737913012,0.6504429665581588,0.33812130284756564,-0.7006655258208685,0.004317215658808659,0.15594463333780628,-0.0017250822920462261,-0.04937598629521283,0.00963488185647135,0.0067911362883854316
638,0.7282603125825186,-0.33844291051369474,0.6543759737913012,0.6504429665581588,0.33812130284756564,-0.7006655258208685,0.004317215658808659,0.15594463333780628,-0.0017250822920462261,-0.04937598629521283,0.00963488185647135,0.0067911362883854316
645,0.7282603125825186,-0.33844291051369474,0.6543759737913012,0.6549629830052311,0.3384669654494302,-0.7005896008267886,0.007030423060930111,-0.12015794385141365,-0.012422633407513019,-0.009069469721115976,0.02607562341737035,-0.014306263370008359
646,0.7282603125825186,-0.33844291051369474,0.6543759737913012,0.6549629830052311,0.3384669654494302,-0.7005896008267886,0.007030423060930111,-0.12015794385141365,-0.012422633407513019,-0.009069469721115976,0.02607562341737035,-0.014306263370008359
647,0.7282603125825186,-0.33844291051369474,0.6543759737913012,0.6549629830052311,0.3384669654494302,-0.7005896008267886,0.007030423060930111,-0.12015794385141365,-0.012422633407513019,-0.009069469721115976,0.02607562341737035,-0.014306263370008359
648,0.7282603125825186,-0.33844291051369474,0.6543759737913012,0.6549629830052311,0.3384669654494302,-0.7005896008267886,0.007030423060930111,-0.12015794385141365,-0.012422633407513019,-0.009069469721115976,0.02607562341737035,-0.014306263370008359
649,0.7282603125825186,-0.33844291051369474,0.6543759737913012,0.6549629830052311,0.3384669654494302,-0.7005896008267886,0.007030423060930111,-0.12015794385141365,-0.012422633407513019,-0.009069469721115976,0.02607562341737035,-0.014306263370008359
650,0.7282603125825186,-0.33844291051369474,0.6543759737913012,0.6549629830052311,0.3384669654494302,-0.7005896008267886,0.007030423060930111,-0.12015794385141365,-0.012422633407513019,-0.009069469721115976,0.02607562341737035,-0.014306263370008359
657,0.7282603125825186,-0.33844291051369474,0.6543759737913012,0.6546982502315373,0.33866766943794147,-0.7005484529277266,5.154269337960376e-05,-0.07986829491052645,-0.007849634655005377,-0.06363464899098788,0.01260738059191847,-0.003951418033526085
658,0.7282603125825186,-0.33844291051369474,0.6543759737913012,0.6546982502315373,0.33866766943794147,-0.7005484529277266,5.154269337960376e-05,-0.07986829491052645,-0.007849634655005377,-0.06363464899098788,0.01260738059191847,-0.003951418033526085
659,0.7282603125825186,-0.33844291051369474,0.6543759737913012,0.6546982502315373,0.33866766943794147,-0.7005484529277266,5.154269337960376e-05,-0.07986829491052645,-0.007849634655005377,-0.06363464899098788,0.01260738059191847,-0.003951418033526085
660,0.7282603125825186,-0.33844291051369474,0.6543759737913012,0.6546982502315373,0.33866766943794147,-0.7005484529277266,5.154269337960376e-05,-0.07986829491052645,-0.007849634655005377,-0.06363464899098788,0.01260738059191847,-0.003951418033526085
661,0.7282603125825186,-0.33844291051369474,0.6543759737913012,0.6546982502315373,0.33866766943794147,-0.7005484529277266,5.154269337960376e-05,-0.07986829491052645,-0.007849634655005377,-0.06363464899098788,0.01260738059191847,-0.003951418033526085
662,0.7282603125825186,-0.33844291051369474,0.6543759737913012,0.6546982502315373,0.33866766943794147,-0.7005484529277266,5.154269337960376e-05,-0.07986829491052645,-0.007849634655005377,-0.06363464899098788,0.01260738059191847,-0.003951418033526085
663,0.7282603125825186,-0.33844291051369474,0.6543759737913012,0.6592229518118897,0.3388632598029808,-0.7005034075956023,-0.00730050666362249,-0.17640544923490303,0.011412082080658473,0.006106353055894833,0.009132711764724712,-0.029054123737961315
664,0.7282603125825186,-0.33844291051369474,0.6543759737913012,0.6592229518118897,0.3388632598029808,-0.7005034075956023,-0.00730050666362249,-0.17640544923490303,0.011412082080658473,0.006106353055894833,0.009132711764724712,-0.029054123737961315
665,0.7282603125825186,-0.33844291051369474,0.6543759737913012,0.6592229518118897,0.3388632598029808,-0.7005034075956023,-0.00730050666362249,-0.17640544923490303,0.011412082080658473,0.006106353055894833,0.009132711764724712,-0.029054123737961315
666,0.7282603125825186,-0.33844291051369474,0.6543759737913012,0.6592229518118897,0.3388632598029808,-0.7005034075956023,-0.00730050666362249,-0.17640544923490303,0.011412082080658473,0.006106353055894833,0.009132711764724712,-0.029054123737961315
667,0.7282603125825186,-0.33844291051369474,0.6543759737913012,0.6592229518118897,0.3388632598029808,-0.7005034075956023,-0.00730050666362249,-0.17640544923490303,0.011412082080658473,0.006106353055894833,0.009132711764724712,-0.029054123737961315
668,0.7282603125825186,-0.33844291051369474,0.6543759737913012,0.6592229518118897,0.3388632598029808,-0.7005034075956023,-0.00730050666362249,-0.17640544923490303,0.011412082080658473,0.006106353055894833,0.009132711764724712,-0.029054123737961315
669,0.7282603125825186,-0.33844291051369474,0.6543759737913012,0.6640361074960875,0.33911480192260085,-0.7004465200630191,-0.0019380051765685998,0.1580775977289933,-0.016617951637113826,0.008453003635498425,0.02452062339197645,0.024192164866082267
670,0.7282603125825186,-0.33844291051369474,0.6543759737913012,0.6640361074960875,0.33911480192260085,-0.7004465200630191,-0.0019380051765685998,0.1580775977289933,-0.016617951637113826,0.008453003635498425,0.02452062339197645,0.024192164866082267
671,0.7282603125825186,-0.33844291051369474,0.6543759737913012,0.6640361074960875,0.33911480192260085,-0.7004465200630191,-0.0019380051765685998,0.1580775977289933,-0.016617951637113826,0.008453003635498425,0.02452062339197645,0.024192164866082267
672,0.7282603125825186,-0.33844291051369474,0.6543759737913012,0.6640361074960875,0.33911480192260085,-0.7004465200630191,-0.0019380051765685998,0.1580775977289933,-0.016617951637113826,0.008453003635498425,0.02452062339197645,0.024192164866082267
673,0.7282603125825186,-0.33844291051369474,0.6543759737913012,0.6640361074960875,0.33911480192260085,-0.7004465200630191,-0.0019380051765685998,0.1580775977289933,-0.016617951637113826,0.008453003635498425,0.02452062339197645,0.024192164866082267
674,0.7282603125825186,-0.33844291051369474,0.6543759737913012,0.6640361074960875,0.33911480192260085,-0.7004465200630191,-0.0019380051765685998,0.1580775977289933,-0.016617951637113826,0.008453003635498425,0.02452062339197645,0.024192164866082267
681,0.7282603125825186,-0.33844291051369474,0.6543759737913012,0.668090680969479,0.33953006025198684,-0.7003562794974988,0.006407787315299122,-0.33211304448016266,0.01667919699774717,-0.0646007496005548,-0.003551942128022998,0.005108068784023466
682,0.7282603125825186,-0.33844291051369474,0.6543759737913012,0.668090680969479,0.33953006025198684,-0.7003562794974988,0.006407787315299122,-0.33211304448016266,0.01667919699774717,-0.0646007496005548,-0.003551942128022998,0.005108068784023466
683,0.7282603125825186,-0.33844291051369474,0.6543759737913012,0.668090680969479,0.33953006025198684,-0.7003562794974988,0.006407787315299122,-0.33211304448016266,0.01667919699774717,-0.0646007496005548,-0.003551942128022998,0.005108068784023466
684,0.7282603125825186,-0.33844291051369474,0.6543759737913012,0.668090680969479,0.33953006025198684,-0.7003562794974988,0.006407787315299122,-0.33211304448016266,0.01667919699774717,-0.0646007496005548,-0.003551942128022998,0.005108068784023466
685,0.7282603125825186,-0.33844291051369474,0.6543759737913012,0.668090680969479,0.33953006025198684,-0.7003562794974988,0.006407787315299122,-0.33211304448016266,0.01667919699774717,-0.0646007496005548,-0.003551942128022998,0.005108068784023466
686,0.7282603125825186,-0.33844291051369474,0.6543759737913012,0.668090680969479,0.33953006025198684,-0.7003562794974988,0.006407787315299122,-0.33211304448016266,0.01667919699774717,-0.0646007496005548,-0.003551942128022998,0.005108068784023466
687,0.7282603125825186,-0.33844291051369474,0.6543759737913012,0.668090680969479,0.33953006025198684,-0.7003562794974988,0.006407787315299122,-0.33211304448016266,0.01667919699774717,-0.0646007496005548,-0.003551942128022998,0.005108068784023466
688,0.7282603125825186,-0.33844291051369474,0.6543759737913012,0.6681545215962623,0.33978629177071007,-0.7003031394967064,-0.008096325782165943,-0.22578000752101646,-0.012861560249854654,-0.02677873714598135,0.010735757637186863,0.00998035541179775
689,0.7282603125825186,-0.33844291051369474,0.6543759737913012,0.6681545215962623,0.33978629177071007,-0.7003031394967064,-0.008096325782165943,-0.22578000752101646,-0.012861560249854654,-0.02677873714598135,0.010735757637186863,0.00998035541179775
690,0.7282603125825186,-0.33844291051369474,0.6543759737913012,0.6681545215962623,0.33978629177071007,-0.7003031394967064,-0.008096325782165943,-0.22578000752101646,-0.012861560249854654,-0.02677873714598135,0.010735757637186863,0.00998035541179775
691,0.7282603125825186,-0.33844291051369474,0.6543759737913012,0.6681545215962623,0.33978629177071007,-0.7003031394967064,-0.008096325782165943,-0.22578000752101646,-0.012861560249854654,-0.02677873714598135,0.010735757637186863,0.00998035541179775
692,0.7282603125825186,-0.33844291051369474,0.6543759737913012,0.6681545215962623,0.33978629177071007,-0.7003031394967064,-0.008096325782165943,-0.22578000752101646,-0.012861560249854654,-0.02677873714598135,0.010735757637186863,0.00998035541179775
693,0.7282603125825186,-0.33844291051369474,0.6543759737913012,0.6681545215962623,0.33978629177071007,-0.7003031394967064,-0.008096325782165943,-0.22578000752101646,-0.012861560249854654,-0.02677873714598135,0.010735757637186863,0.00998035541179775
694,0.7282603125825186,-0.33844291051369474,0.6543759737913012,0.6659994285174899,0.3400256689699182,-0.7002557706948718,-0.007987055726442495,0.3678207657915966,-0.022773127639191103,-0.09322955526344366,-0.001640022156794156,-0.007684659361305278
695,0.7282603125825186,-0.33844291051369474,0.6543759737913012,0.6659994285174899,0.3400256689699182,-0.7002557706948718,-0.007987055726442495,0.3678207657915966,-0.022773127639191103,-0.09322955526344366,-0.001640022156794156,-0.007684659361305278
696,0.7282603125825186,-0.33844291051369474,0.6543759737913012,0.6659994285174899,0.3400256689699182,-0.7002557706948718,-0.007987055726442495,0.3678207657915966,-0.022773127639191103,-0.09322955526344366,-0.001640022156794156,-0.007684659361305278
697,0.7282603125825186,-0.33844291051369474,0.6543759737913012,0.6659994285174899,0.3400256689699182,-0.7002557706948718,-0.007987055726442495,0.3678207657915966,-0.022773127639191103,-0.09322955526344366,-0.001640022156794156,-0.007684659361305278
698,0.7282603125825186,-0.33844291051369474,0.6543759737913012,0.6659994285174899,0.3400256689699182,-0.7002557706948718,-0.007987055726442495,0.3678207657915966,-0.022773127639191103,-0.09322955526344366,-0.001640022156794156,-0.007684659361305278
699,0.7282603125825186,-0.33844291051369474,0.6543759737913012,0.6659994285174899,0.3400256689699182,-0.7002557706948718,-0.007987055726442495,0.3678207657915966,-0.022773127639191103,-0.09322955526344366,-0.001640022156794156,-0.007684659361305278
700,0.7282603125825186,-0.33844291051369474,0.6543759737913012,0.6638730375658998,0.34018755069592743,-0.7002243663784655,-0.005391365640748323,-0.24963780545889566,-0.001168768668290925,-0.05035662069285924,0.01716211231738667,0.007045274520240239
701,0.7282603125825186,-0.33844291051369474,0.6543759737913012,0.6638730375658998,0.34018755069592743,-0.7002243663784655,-0.005391365640748323,-0.24963780545889566,-0.001168768668290925,-0.05035662069285924,0.01716211231738667,0.007045274520240239
702,0.7282603125825186,-0.33844291051369474,0.6543759737913012,0.6638730375658998,0.34018755069592743,-0.7002243663784655,-0.005391365640748323,-0.24963780545889566,-0.001168768668290925,-0.05035662069285924,0.01716211231738667,0.007045274520240239
703,0.7282603125825186,-0.33844291051369474,0.6543759737913012,0.6638730375658998,0.34018755069592743,-0.7002243663784655,-0.005391365640748323,-0.24963780545889566,-0.001168768668290925,-0.05035662069285924,0.01716211231738667,0.007045274520240239
704,0.7282603125825186,-0.33844291051369474,0.6543759737913012,0.6638730375658998,0.34018755069592743,-0.7002243663784655,-0.005391365640748323,-0.24963780545889566,-0.001168768668290925,-0.05035662069285924,0.01716211231738667,0.007045274520240239
705,0.7282603125825186,-0.33844291051369474,0.6543759737913012,0.6638730375658998,0.34018755069592743,-0.7002243663784655,-0.005391365640748323,-0.24963780545889566,-0.001168768668290925,-0.05035662069285924,0.01716211231738667,0.007045274520240239
706,0.7282603125825186,-0.33844291051369474,0.6543759737913012,0.6627233376996627,0.3402341580488722,-0.7002158594813007,0.0040409466590025965,-0.05316652961021231,0.02186465223299262,-0.02047637747829973,0.008241958842034902,-0.0037937123378640495
707,0.7282603125825186,-0.33844291051369474,0.6543759737913012,0.6627233376996627,0.3402341580488722,-0.7002158594813007,0.0040409466590025965,-0.05316652961021231,0.02186465223299262,-0.02047637747829973,0.008241958842034902,-0.0037937123378640495
708,0.7282603125825186,-0.33844291051369474,0.6543759737913012,0.6627233376996627,0.3402341580488722,-0.7002158594813007,0.0040409466590025965,-0.05316652961021231,0.02186465223299262,-0.02047637747829973,0.008241958842034902,-0.0037937123378640495
709,0.7282603125825186,-0.33844291051369474,0.6543759737913012,0.6627233376996627,0.3402341580488722,-0.7002158594813007,0.0040409466590025965,-0.05316652961021231,0.02186465223299262,-0.02047637747829973,0.008241958842034902,-0.0037937123378640495
710,0.7282603125825186,-0.33844291051369474,0.6543759737913012,0.6627233376996627,0.3402341580488722,-0.7002158594813007,0.0040409466590025965,-0.05316652961021231,0.02186465223299262,-0.02047637747829973,0.008241958842034902,-0.0037937123378640495
711,0.7282603125825186,-0.33844291051369474,0.6543759737913012,0.6627233376996627,0.3402341580488722,-0.7002158594813007,0.0040409466590025965,-0.05316652961021231,0.02186465223299262,-0.02047637747829973,0.008241958842034902,-0.0037937123378640495
712,0.7282603125825186,-0.33844291051369474,0.6543759737913012,0.6643035012435377,0.34040462745196765,-0.7001788338672085,-0.009038526758144642,0.03302170959202439,-0.022951758582736292,0.05881198833040212,0.007015540025924061,-0.008426523134966023
713,0.7282603125825186,-0.33844291051369474,0.6543759737913012,0.6643035012435377,0.34040462745196765,-0.7001788338672085,-0.009038526758144642,0.03302170959202439,-0.022951758582736292,0.05881198833040212,0.007015540025924061,-0.008426523134966023
714,0.7282603125825186,-0.33844291051369474,0.6543759737913012,0.6643035012435377,0.34040462745196765,-0.7001788338672085,-0.009038526758144642,0.03302170959202439,-0.022951758582736292,0.05881198833040212,0.007015540025924061,-0.008426523134966023
715,0.7282603125825186,-0.33844291051369474,0.6543759737913012,0.6643035012435377,0.34040462745196765,-0.7001788338672085,-0.009038526758144642,0.03302170959202439,-0.022951758582736292,0.05881198833040212,0.007015540025924061,-0.008426523134966023
716,0.7282603125825186,-0.33844291051369474,0.6543759737913012,0.6643035012435377,0.34040462745196765,-0.7001788338672085,-0.009038526758144642,0.03302170959202439,-0.022951758582736292,0.05881198833040212,0.007015540025924061,-0.008426523134966023
717,0.7282603125825186,-0.33844291051369474,0.6543759737913012,0.6643035012435377,0.34040462745196765,-0.7001788338672085,-0.009038526758144642,0.03302170959202439,-0.022951758582736292,0.05881198833040212,0.007015540025924061,-0.008426523134966023
718,0.7282603125825186,-0.33844291051369474,0.6543759737913012,0.664650064646076,0.3405852897054365,-0.7001408713701684,0.004321339192332191,0.3195521774987691,0.006185797723592494,-0.00019443533440748593,0.005786243014177282,-0.003406324608529193
719,0.7282603125825186,-0.33844291051369474,0.6543759737913012,0.664650064646076,0.3405852897054365,-0.7001408713701684,0.004321339192332191,0.3195521774987691,0.006185797723592494,-0.00019443533440748593,0.005786243014177282,-0.003406324608529193
720,0.7282603125825186,-0.33844291051369474,0.6543759737913012,0.664650064646076,0.3405852897054365,-0.7001408713701684,0.004321339192332191,0.3195521774987691,0.006185797723592494,-0.00019443533440748593,0.005786243014177282,-0.003406324608529193
721,0.7282603125825186,-0.33844291051369474,0.6543759737913012,0.664650064646076,0.3405852897054365,-0.7001408713701684,0.004321339192332191,0.3195521774987691,0.006185797723592494,-0.00019443533440748593,0.005786243014177282,-0.003406324608529193
722,0.7282603125825186,-0.33844291051369474,0.6543759737913012,0.664650064646076,0.3405852897054365,-0.7001408713701684,0.004321339192332191,0.3195521774987691,0.006185797723592494,-0.00019443533440748593,0.005786243014177282,-0.003406324608529193
