id;Attitude Roll;Attitude Pitch;Attitude Azimuth;Gravity X;Gravity Y;Gravity Z;Rotation Rate X;Rotation Rate Y;Rotation Rate Z;User Acceleration X;User Acceleration Z;User Acceleration Y
1;0.0;0.0;0.0;0.0;0.0;0.0;-0.006391398;0.0;0.0;1.8215362;-0.35353956;-9.950553
2;0.0;0.0;0.0;0.0;0.0;0.0;-0.006391398;0.0;0.0;1.8215362;-0.35353956;-9.950553
3;0.0;0.0;0.0;1.7752963;-9.638616;-0.34030068;-0.006391398;0.0;0.0;1.8173488;-0.37268212;-9.965508
4;0.0;0.0;0.0;1.7752963;-9.638616;-0.34030068;-0.0037283157;-0.0029293909;0.001065233;1.8173488;-0.37268212;-9.965508
5;0.0;0.0;0.0;1.7752963;-9.638616;-0.34030068;-0.0037283157;-0.0029293909;0.001065233;1.8173488;-0.37268212;-9.965508
6;-0.45101133;-0.56030285;0.45332485;1.7617583;-9.640928;-0.3451132;-0.0037283157;-0.0029293909;0.001065233;1.8173488;-0.37268212;-9.965508
7;-0.45101133;-0.56030285;0.45332485;1.7617583;-9.640928;-0.3451132;0.0015978495;-0.0022636203;-0.0011983871;1.7886349;-0.37567315;-9.970892
8;-0.45101133;-0.56030285;0.45332485;1.7617583;-9.640928;-0.3451132;0.0015978495;-0.0022636203;-0.0011983871;1.7886349;-0.37567315;-9.970892
9;-0.45101133;-0.56030285;0.45332485;1.7617583;-9.640928;-0.3451132;0.0015978495;-0.0022636203;-0.0011983871;1.7886349;-0.37567315;-9.970892
10;-0.4514725;-0.5601504;0.4536142;1.7533259;-9.641977;-0.3584734;0.0015978495;-0.0022636203;-0.0011983871;1.7886349;-0.37567315;-9.970892
11;-0.4514725;-0.5601504;0.4536142;1.7533259;-9.641977;-0.3584734;0.0015978495;-0.0022636203;-0.0011983871;1.8143578;-0.33559337;-9.960124
12;-0.4514725;-0.5601504;0.4536142;1.7533259;-9.641977;-0.3584734;0.0067908606;-0.0037283157;-0.00079892477;1.8143578;-0.33559337;-9.960124
13;-0.4514725;-0.5601504;0.4536142;1.7533259;-9.641977;-0.3584734;0.0067908606;-0.0037283157;-0.00079892477;1.8143578;-0.33559337;-9.960124
14;-0.45211762;-0.56023806;0.45342228;1.7539719;-9.642538;-0.33972925;0.0067908606;-0.0037283157;-0.00079892477;1.8143578;-0.33559337;-9.960124
15;-0.45211762;-0.56023806;0.45342228;1.7539719;-9.642538;-0.33972925;0.0067908606;-0.0037283157;-0.00079892477;1.8311075;-0.36430725;-9.954741
16;-0.45211762;-0.56023806;0.45342228;1.7539719;-9.642538;-0.33972925;0.005059857;0.002130466;-0.0005326165;1.8311075;-0.36430725;-9.954741
17;-0.45211762;-0.56023806;0.45342228;1.7539719;-9.642538;-0.33972925;0.005059857;0.002130466;-0.0005326165;1.8311075;-0.36430725;-9.954741
18;-0.4514256;-0.5599431;0.4541014;1.7617971;-9.641168;-0.33814785;0.005059857;0.002130466;-0.0005326165;1.8311075;-0.36430725;-9.954741
19;-0.4514256;-0.5599431;0.4541014;1.7617971;-9.641168;-0.33814785;0.005059857;0.002130466;-0.0005326165;1.8263218;-0.34396824;-9.961321
20;-0.4514256;-0.5599431;0.4541014;1.7617971;-9.641168;-0.33814785;0.001065233;0.015179571;-0.0014646954;1.8263218;-0.34396824;-9.961321
21;-0.4514256;-0.5599431;0.4541014;1.7617971;-9.641168;-0.33814785;0.001065233;0.015179571;-0.0014646954;1.8263218;-0.34396824;-9.961321
22;-0.4514256;-0.5599431;0.4541014;1.7617971;-9.641168;-0.33814785;0.001065233;0.015179571;-0.0014646954;1.8263218;-0.34396824;-9.961321
23;-0.45106167;-0.5601644;0.4540218;1.765231;-9.640787;-0.33102593;0.001065233;0.015179571;-0.0014646954;1.8263218;-0.34396824;-9.961321
24;-0.45106167;-0.5601644;0.4540218;1.765231;-9.640787;-0.33102593;0.0019973118;-0.0037283157;-0.00026630826;1.805983;-0.29910284;-9.96491
25;-0.45106167;-0.5601644;0.4540218;1.765231;-9.640787;-0.33102593;0.0019973118;-0.0037283157;-0.00026630826;1.805983;-0.29910284;-9.96491
26;-0.45106167;-0.5601644;0.4540218;1.765231;-9.640787;-0.33102593;0.0019973118;-0.0037283157;-0.00026630826;1.805983;-0.29910284;-9.96491
27;-0.45106167;-0.5601644;0.4540218;1.765231;-9.640787;-0.33102593;0.0019973118;-0.0037283157;-0.00026630826;1.805983;-0.29910284;-9.96491
28;-0.4526359;-0.5585681;0.45237482;1.7596787;-9.642291;-0.31645542;0.0019973118;-0.0037283157;-0.00026630826;1.8263218;-0.33379877;-9.952946
29;-0.4526359;-0.5585681;0.45237482;1.7596787;-9.642291;-0.31645542;-0.0039946237;0.004394086;0.0017310036;1.8263218;-0.33379877;-9.952946
30;-0.4526359;-0.5585681;0.45237482;1.7596787;-9.642291;-0.31645542;-0.0039946237;0.004394086;0.0017310036;1.8263218;-0.33379877;-9.952946
31;-0.4526359;-0.5585681;0.45237482;1.7596787;-9.642291;-0.31645542;-0.0039946237;0.004394086;0.0017310036;1.8263218;-0.33379877;-9.952946
32;-0.45247763;-0.55803114;0.4528732;1.7623637;-9.641541;-0.32429913;-0.0039946237;0.004394086;0.0017310036;1.8263218;-0.33379877;-9.952946
33;-0.45247763;-0.55803114;0.4528732;1.7623637;-9.641541;-0.32429913;-0.0045272405;-0.0058587817;-0.00013315413;1.8065811;-0.33140594;-9.955936
34;-0.45247763;-0.55803114;0.4528732;1.7623637;-9.641541;-0.32429913;-0.0045272405;-0.0058587817;-0.00013315413;1.8065811;-0.33140594;-9.955936
35;-0.45247763;-0.55803114;0.4528732;1.7623637;-9.641541;-0.32429913;-0.0045272405;-0.0058587817;-0.00013315413;1.8065811;-0.33140594;-9.955936
36;-0.45247763;-0.55803114;0.4528732;1.7623637;-9.641541;-0.32429913;-0.0045272405;-0.0058587817;-0.00013315413;1.8065811;-0.33140594;-9.955936
37;-0.45257136;-0.55831337;0.4526136;1.7587929;-9.642174;-0.32484213;-0.0045272405;-0.0058587817;-0.00013315413;1.8287147;-0.34337005;-9.961321
38;-0.45257136;-0.55831337;0.4526136;1.7587929;-9.642174;-0.32484213;-0.0035951615;-0.005326165;0.0015978495;1.8287147;-0.34337005;-9.961321
39;-0.45257136;-0.55831337;0.4526136;1.7587929;-9.642174;-0.32484213;-0.0035951615;-0.005326165;0.0015978495;1.8287147;-0.34337005;-9.961321
40;-0.45257136;-0.55831337;0.4526136;1.7587929;-9.642174;-0.32484213;-0.0035951615;-0.005326165;0.0015978495;1.8287147;-0.34337005;-9.961321
41;-0.45268294;-0.5582477;0.4527019;1.7568218;-9.642127;-0.33667088;-0.0035951615;-0.005326165;0.0015978495;1.8287147;-0.34337005;-9.961321
42;-0.45268294;-0.5582477;0.4527019;1.7568218;-9.642127;-0.33667088;-0.0035951615;-0.005326165;0.0015978495;1.8089739;-0.32841492;-9.963714
43;-0.45268294;-0.5582477;0.4527019;1.7568218;-9.642127;-0.33667088;-0.0005326165;-0.0026630824;0.00039946238;1.8089739;-0.32841492;-9.963714
44;-0.45268294;-0.5582477;0.4527019;1.7568218;-9.642127;-0.33667088;-0.0005326165;-0.0026630824;0.00039946238;1.8089739;-0.32841492;-9.963714
45;-0.45268294;-0.5582477;0.4527019;1.7568218;-9.642127;-0.33667088;-0.0005326165;-0.0026630824;0.00039946238;1.8089739;-0.32841492;-9.963714
46;-0.45299244;-0.5585367;0.45248052;1.7569855;-9.642189;-0.33403862;-0.0005326165;-0.0026630824;0.00039946238;1.8089739;-0.32841492;-9.963714
47;-0.45299244;-0.5585367;0.45248052;1.7569855;-9.642189;-0.33403862;-0.0005326165;-0.0026630824;0.00039946238;1.8113668;-0.3505485;-9.958329
48;-0.45299244;-0.5585367;0.45248052;1.7569855;-9.642189;-0.33403862;-0.0030625449;-0.0014646954;0.0;1.8113668;-0.3505485;-9.958329
49;-0.45299244;-0.5585367;0.45248052;1.7569855;-9.642189;-0.33403862;-0.0030625449;-0.0014646954;0.0;1.8113668;-0.3505485;-9.958329
50;-0.45299244;-0.5585367;0.45248052;1.7569855;-9.642189;-0.33403862;-0.0030625449;-0.0014646954;0.0;1.8113668;-0.3505485;-9.958329
51;-0.45293128;-0.5584662;0.4525376;1.7535615;-9.64262;-0.33954123;-0.0030625449;-0.0014646954;0.0;1.8113668;-0.3505485;-9.958329
52;-0.45293128;-0.5584662;0.4525376;1.7535615;-9.64262;-0.33954123;-0.0030625449;-0.0014646954;0.0;1.8113668;-0.357727;-9.957731
53;-0.45293128;-0.5584662;0.4525376;1.7535615;-9.64262;-0.33954123;-0.005326165;0.0037283157;0.0019973118;1.8113668;-0.357727;-9.957731
54;-0.45293128;-0.5584662;0.4525376;1.7535615;-9.64262;-0.33954123;-0.005326165;0.0037283157;0.0019973118;1.8113668;-0.357727;-9.957731
55;-0.45293128;-0.5584662;0.4525376;1.7535615;-9.64262;-0.33954123;-0.005326165;0.0037283157;0.0019973118;1.8113668;-0.357727;-9.957731
56;-0.45314524;-0.5585438;0.45250553;1.752312;-9.642699;-0.3437423;-0.005326165;0.0037283157;0.0019973118;1.8113668;-0.357727;-9.957731
57;-0.45314524;-0.5585438;0.45250553;1.752312;-9.642699;-0.3437423;-0.005326165;0.0037283157;0.0019973118;1.8131614;-0.35712877;-9.956535
58;-0.45314524;-0.5585438;0.45250553;1.752312;-9.642699;-0.3437423;-0.0046603945;-0.0039946237;-0.00039946238;1.8131614;-0.35712877;-9.956535
59;-0.45314524;-0.5585438;0.45250553;1.752312;-9.642699;-0.3437423;-0.0046603945;-0.0039946237;-0.00039946238;1.8131614;-0.35712877;-9.956535
60;-0.45314524;-0.5585438;0.45250553;1.752312;-9.642699;-0.3437423;-0.0046603945;-0.0039946237;-0.00039946238;1.8131614;-0.35712877;-9.956535
61;-0.4532704;-0.558634;0.4524424;1.7534083;-9.642064;-0.35577068;-0.0046603945;-0.0039946237;-0.00039946238;1.8131614;-0.35712877;-9.956535
62;-0.4532704;-0.558634;0.4524424;1.7534083;-9.642064;-0.35577068;-0.0046603945;-0.0039946237;-0.00039946238;1.791626;-0.35593235;-9.963116
63;-0.4532704;-0.558634;0.4524424;1.7534083;-9.642064;-0.35577068;-0.004926703;-0.0038614697;0.0005326165;1.791626;-0.35593235;-9.963116
64;-0.4532704;-0.558634;0.4524424;1.7534083;-9.642064;-0.35577068;-0.004926703;-0.0038614697;0.0005326165;1.791626;-0.35593235;-9.963116
65;-0.4532704;-0.558634;0.4524424;1.7534083;-9.642064;-0.35577068;-0.004926703;-0.0038614697;0.0005326165;1.791626;-0.35593235;-9.963116
66;-0.45349804;-0.55899805;0.4521292;1.7491828;-9.642732;-0.35841557;-0.004926703;-0.0038614697;0.0005326165;1.791626;-0.35593235;-9.963116
67;-0.45349804;-0.55899805;0.4521292;1.7491828;-9.642732;-0.35841557;-0.004926703;-0.0038614697;0.0005326165;1.8239291;-0.40558344;-9.956535
68;-0.45349804;-0.55899805;0.4521292;1.7491828;-9.642732;-0.35841557;-0.007323477;-0.0018641578;0.0014646954;1.8239291;-0.40558344;-9.956535
69;-0.45349804;-0.55899805;0.4521292;1.7491828;-9.642732;-0.35841557;-0.007323477;-0.0018641578;0.0014646954;1.8239291;-0.40558344;-9.956535
70;-0.45349804;-0.55899805;0.4521292;1.7491828;-9.642732;-0.35841557;-0.007323477;-0.0018641578;0.0014646954;1.8239291;-0.40558344;-9.956535
71;-0.4536727;-0.5589769;0.45218676;1.7503791;-9.641875;-0.37523785;-0.007323477;-0.0018641578;0.0014646954;1.7892331;-0.40857446;-9.959526
72;-0.4536727;-0.5589769;0.45218676;1.7503791;-9.641875;-0.37523785;-0.0054593193;0.0026630824;0.0011983871;1.7892331;-0.40857446;-9.959526
73;-0.4536727;-0.5589769;0.45218676;1.7503791;-9.641875;-0.37523785;-0.0054593193;0.0026630824;0.0011983871;1.7892331;-0.40857446;-9.959526
74;-0.4536727;-0.5589769;0.45218676;1.7503791;-9.641875;-0.37523785;-0.0054593193;0.0026630824;0.0011983871;1.7892331;-0.40857446;-9.959526
75;-0.4536727;-0.5589769;0.45218676;1.7503791;-9.641875;-0.37523785;-0.0054593193;0.0026630824;0.0011983871;1.7892331;-0.40857446;-9.959526
76;-0.454;-0.55947816;0.45175773;1.7458483;-9.642136;-0.38939685;-0.0054593193;0.0026630824;0.0011983871;1.8071793;-0.40079778;-9.966106
77;-0.454;-0.55947816;0.45175773;1.7458483;-9.642136;-0.38939685;-0.0026630824;0.00013315413;0.00013315413;1.8071793;-0.40079778;-9.966106
78;-0.454;-0.55947816;0.45175773;1.7458483;-9.642136;-0.38939685;-0.0026630824;0.00013315413;0.00013315413;1.8071793;-0.40079778;-9.966106
79;-0.454;-0.55947816;0.45175773;1.7458483;-9.642136;-0.38939685;-0.0026630824;0.00013315413;0.00013315413;1.8071793;-0.40079778;-9.966106
80;-0.45442942;-0.55977464;0.4515532;1.7443806;-9.64233;-0.39115012;-0.0026630824;0.00013315413;0.00013315413;1.8071793;-0.40079778;-9.966106
81;-0.45442942;-0.55977464;0.4515532;1.7443806;-9.64233;-0.39115012;-0.0026630824;0.00013315413;0.00013315413;1.8143578;-0.41934216;-9.957731
82;-0.45442942;-0.55977464;0.4515532;1.7443806;-9.64233;-0.39115012;-0.0015978495;-0.0015978495;0.0013315412;1.8143578;-0.41934216;-9.957731
83;-0.45465237;-0.56004024;0.4513357;1.7412015;-9.6427765;-0.39428952;0.0015978495;-0.0037283157;0.0015978495;1.7874385;-0.42771706;-9.958329
84;-0.45465237;-0.56004024;0.4513357;1.7412015;-9.6427765;-0.39428952;-0.0058587817;0.008521864;0.0;1.7874385;-0.42771706;-9.958329
85;-0.45465237;-0.56004024;0.4513357;1.7412015;-9.6427765;-0.39428952;-0.0058587817;0.008521864;0.0;1.7874385;-0.42771706;-9.958329
86;-0.45465237;-0.56004024;0.4513357;1.7412015;-9.6427765;-0.39428952;-0.0058587817;0.008521864;0.0;1.7874385;-0.42771706;-9.958329
87;-0.45465237;-0.56004024;0.4513357;1.7412015;-9.6427765;-0.39428952;-0.0058587817;0.008521864;0.0;1.7874385;-0.42771706;-9.958329
88;-0.4546635;-0.55980736;0.45156983;1.7360736;-9.643215;-0.40600848;-0.0058587817;0.008521864;0.0;1.8071793;-0.39960137;-9.960124
89;-0.4546635;-0.55980736;0.45156983;1.7360736;-9.643215;-0.40600848;-0.00079892477;-0.010119714;0.0005326165;1.8071793;-0.39960137;-9.960124
90;-0.4546635;-0.55980736;0.45156983;1.7360736;-9.643215;-0.40600848;-0.00079892477;-0.010119714;0.0005326165;1.8071793;-0.39960137;-9.960124
91;-0.4546635;-0.55980736;0.45156983;1.7360736;-9.643215;-0.40600848;-0.00079892477;-0.010119714;0.0005326165;1.8071793;-0.39960137;-9.960124
92;-0.4546635;-0.55980736;0.45156983;1.7360736;-9.643215;-0.40600848;-0.00079892477;-0.010119714;0.0005326165;1.8071793;-0.39960137;-9.960124
93;-0.4550566;-0.5600216;0.4514394;1.7415423;-9.642233;-0.40590173;-0.00079892477;-0.010119714;0.0005326165;1.8041883;-0.41635114;-9.958329
94;-0.4550566;-0.5600216;0.4514394;1.7415423;-9.642233;-0.40590173;-0.0074566314;0.0037283157;0.001065233;1.8041883;-0.41635114;-9.958329
95;-0.4550566;-0.5600216;0.4514394;1.7415423;-9.642233;-0.40590173;-0.0074566314;0.0037283157;0.001065233;1.8041883;-0.41635114;-9.958329
96;-0.4550566;-0.5600216;0.4514394;1.7415423;-9.642233;-0.40590173;-0.0074566314;0.0037283157;0.001065233;1.8041883;-0.41635114;-9.958329
97;-0.4550566;-0.5600216;0.4514394;1.7415423;-9.642233;-0.40590173;-0.0074566314;0.0037283157;0.001065233;1.8041883;-0.41635114;-9.958329
98;-0.4549022;-0.56014216;0.4512868;1.7401516;-9.642235;-0.4117698;-0.0074566314;0.0037283157;0.001065233;1.7856439;-0.4456632;-9.968499
99;-0.4549022;-0.56014216;0.4512868;1.7401516;-9.642235;-0.4117698;-0.0074566314;0.0037283157;0.001065233;1.7856439;-0.4456632;-9.968499
100;-0.4549022;-0.56014216;0.4512868;1.7401516;-9.642235;-0.4117698;-0.004926703;0.003195699;-0.0011983871;1.7856439;-0.4456632;-9.968499
101;-0.4549022;-0.56014216;0.4512868;1.7401516;-9.642235;-0.4117698;-0.004926703;0.003195699;-0.0011983871;1.7856439;-0.4456632;-9.968499
102;-0.4549022;-0.56014216;0.4512868;1.7401516;-9.642235;-0.4117698;-0.004926703;0.003195699;-0.0011983871;1.7856439;-0.4456632;-9.968499
103;-0.4550662;-0.560276;0.451188;1.7369325;-9.64223;-0.4252666;-0.004926703;0.003195699;-0.0011983871;1.7856439;-0.4456632;-9.968499
104;-0.4550662;-0.560276;0.451188;1.7369325;-9.64223;-0.4252666;-0.004926703;0.003195699;-0.0011983871;1.8047864;-0.44925246;-9.960124
105;-0.4550662;-0.560276;0.451188;1.7369325;-9.64223;-0.4252666;-0.00026630826;-0.0030625449;0.0009320789;1.8047864;-0.44925246;-9.960124
106;-0.4550662;-0.560276;0.451188;1.7369325;-9.64223;-0.4252666;-0.00026630826;-0.0030625449;0.0009320789;1.8047864;-0.44925246;-9.960124
107;-0.4550662;-0.560276;0.451188;1.7369325;-9.64223;-0.4252666;-0.00026630826;-0.0030625449;0.0009320789;1.8047864;-0.44925246;-9.960124
108;-0.4550662;-0.560276;0.451188;1.7369325;-9.64223;-0.4252666;-0.00026630826;-0.0030625449;0.0009320789;1.8047864;-0.44925246;-9.960124
109;-0.45544374;-0.56058323;0.4509612;1.7386711;-9.641863;-0.4264861;-0.00026630826;-0.0030625449;0.0009320789;1.7784654;-0.44207397;-9.967901
110;-0.45544374;-0.56058323;0.4509612;1.7386711;-9.641863;-0.4264861;0.0018641578;-0.0039946237;-0.00013315413;1.7784654;-0.44207397;-9.967901
111;-0.45544374;-0.56058323;0.4509612;1.7386711;-9.641863;-0.4264861;0.0018641578;-0.0039946237;-0.00013315413;1.7784654;-0.44207397;-9.967901
112;-0.45544374;-0.56058323;0.4509612;1.7386711;-9.641863;-0.4264861;0.0018641578;-0.0039946237;-0.00013315413;1.7784654;-0.44207397;-9.967901
113;-0.45542145;-0.5606568;0.45088306;1.735788;-9.642445;-0.42509112;0.0018641578;-0.0039946237;-0.00013315413;1.8047864;-0.46061835;-9.959526
114;-0.45542145;-0.5606568;0.45088306;1.735788;-9.642445;-0.42509112;-0.0019973118;0.0045272405;-0.00079892477;1.8047864;-0.46061835;-9.959526
115;-0.45542145;-0.5606568;0.45088306;1.735788;-9.642445;-0.42509112;-0.0019973118;0.0045272405;-0.00079892477;1.8047864;-0.46061835;-9.959526
116;-0.45542145;-0.5606568;0.45088306;1.735788;-9.642445;-0.42509112;-0.0019973118;0.0045272405;-0.00079892477;1.8047864;-0.46061835;-9.959526
117;-0.4554718;-0.5605524;0.45099783;1.7380102;-9.641747;-0.43174982;-0.0019973118;0.0045272405;-0.00079892477;1.8041883;-0.4331009;-9.960124
118;-0.4554718;-0.5605524;0.45099783;1.7380102;-9.641747;-0.43174982;0.0;-0.00039946238;-0.0005326165;1.8041883;-0.4331009;-9.960124
119;-0.4554718;-0.5605524;0.45099783;1.7380102;-9.641747;-0.43174982;0.0;-0.00039946238;-0.0005326165;1.8041883;-0.4331009;-9.960124
120;-0.45555204;-0.56079;0.45077765;1.7417814;-9.641065;-0.43180442;0.0;-0.00039946238;-0.0005326165;1.7904296;-0.4546363;-9.962517
121;-0.45555204;-0.56079;0.45077765;1.7417814;-9.641065;-0.43180442;0.0;-0.0018641578;0.0009320789;1.7904296;-0.4546363;-9.962517
122;-0.45555204;-0.56079;0.45077765;1.7417814;-9.641065;-0.43180442;0.0;-0.0018641578;0.0009320789;1.7904296;-0.4546363;-9.962517
123;-0.45555204;-0.56079;0.45077765;1.7417814;-9.641065;-0.43180442;0.0;-0.0018641578;0.0009320789;1.7904296;-0.4546363;-9.962517
124;-0.45555204;-0.56079;0.45077765;1.7417814;-9.641065;-0.43180442;0.0;-0.0018641578;0.0009320789;1.7904296;-0.4546363;-9.962517
125;-0.45544845;-0.56087667;0.45066923;1.7363714;-9.64201;-0.43250343;0.0;-0.0018641578;0.0009320789;1.7886349;-0.4408776;-9.966704
126;-0.45544845;-0.56087667;0.45066923;1.7363714;-9.64201;-0.43250343;0.0;-0.0018641578;0.0009320789;1.7886349;-0.4408776;-9.966704
127;-0.45544845;-0.56087667;0.45066923;1.7363714;-9.64201;-0.43250343;0.00079892477;0.0033288533;0.0011983871;1.7886349;-0.4408776;-9.966704
128;-0.45544845;-0.56087667;0.45066923;1.7363714;-9.64201;-0.43250343;0.00079892477;0.0033288533;0.0011983871;1.7886349;-0.4408776;-9.966704
129;-0.45544845;-0.56087667;0.45066923;1.7363714;-9.64201;-0.43250343;0.00079892477;0.0033288533;0.0011983871;1.7886349;-0.4408776;-9.966704
130;-0.45544845;-0.56087667;0.45066923;1.7363714;-9.64201;-0.43250343;0.00079892477;0.0033288533;0.0011983871;1.7886349;-0.4408776;-9.966704
131;-0.45561364;-0.56077427;0.4508064;1.7375096;-9.641925;-0.42980796;0.00079892477;0.0033288533;0.0011983871;1.7958134;-0.44805604;-9.953544
132;-0.45561364;-0.56077427;0.4508064;1.7375096;-9.641925;-0.42980796;-0.00026630826;-0.0017310036;0.0009320789;1.7958134;-0.44805604;-9.953544
133;-0.45561364;-0.56077427;0.4508064;1.7375096;-9.641925;-0.42980796;-0.00026630826;-0.0017310036;0.0009320789;1.7958134;-0.44805604;-9.953544
134;-0.45561364;-0.56077427;0.4508064;1.7375096;-9.641925;-0.42980796;-0.00026630826;-0.0017310036;0.0009320789;1.7958134;-0.44805604;-9.953544
135;-0.45561364;-0.56077427;0.4508064;1.7375096;-9.641925;-0.42980796;-0.00026630826;-0.0017310036;0.0009320789;1.7958134;-0.44805604;-9.953544
136;-0.45552456;-0.5607241;0.45083767;1.7346169;-9.64246;-0.429487;-0.00026630826;-0.0017310036;0.0009320789;1.7958134;-0.44805604;-9.953544
137;-0.45552456;-0.5607241;0.45083767;1.7346169;-9.64246;-0.429487;-0.00026630826;-0.0017310036;0.0009320789;1.7952151;-0.44865423;-9.958329
138;-0.45552456;-0.5607241;0.45083767;1.7346169;-9.64246;-0.429487;-0.00013315413;-0.002130466;0.00039946238;1.7952151;-0.44865423;-9.958329
139;-0.45552456;-0.5607241;0.45083767;1.7346169;-9.64246;-0.429487;-0.00013315413;-0.002130466;0.00039946238;1.7952151;-0.44865423;-9.958329
140;-0.45552456;-0.5607241;0.45083767;1.7346169;-9.64246;-0.429487;-0.00013315413;-0.002130466;0.00039946238;1.7952151;-0.44865423;-9.958329
141;-0.45552456;-0.5607241;0.45083767;1.7346169;-9.64246;-0.429487;-0.00013315413;-0.002130466;0.00039946238;1.7952151;-0.44865423;-9.958329
142;-0.4555981;-0.56064975;0.45092738;1.7334888;-9.6424055;-0.43522316;-0.00013315413;-0.002130466;0.00039946238;1.7665013;-0.424726;-9.962517
143;-0.4555981;-0.56064975;0.45092738;1.7334888;-9.6424055;-0.43522316;-0.0005326165;-0.006391398;0.00026630826;1.7665013;-0.424726;-9.962517
144;-0.4555981;-0.56064975;0.45092738;1.7334888;-9.6424055;-0.43522316;-0.0005326165;-0.006391398;0.00026630826;1.7665013;-0.424726;-9.962517
145;-0.4555981;-0.56064975;0.45092738;1.7334888;-9.6424055;-0.43522316;-0.0005326165;-0.006391398;0.00026630826;1.7665013;-0.424726;-9.962517
146;-0.4555981;-0.56064975;0.45092738;1.7334888;-9.6424055;-0.43522316;-0.0005326165;-0.006391398;0.00026630826;1.7665013;-0.424726;-9.962517
147;-0.45575166;-0.5607857;0.45082408;1.7265416;-9.644008;-0.42725235;-0.0005326165;-0.006391398;0.00026630826;1.7665013;-0.424726;-9.962517
148;-0.45575166;-0.5607857;0.45082408;1.7265416;-9.644008;-0.42725235;-0.0005326165;-0.006391398;0.00026630826;1.8287147;-0.45104706;-9.952348
149;-0.45575166;-0.5607857;0.45082408;1.7265416;-9.644008;-0.42725235;-0.005326165;0.00079892477;-0.001065233;1.8287147;-0.45104706;-9.952348
150;-0.45575166;-0.5607857;0.45082408;1.7265416;-9.644008;-0.42725235;-0.005326165;0.00079892477;-0.001065233;1.8287147;-0.45104706;-9.952348
151;-0.45575166;-0.5607857;0.45082408;1.7265416;-9.644008;-0.42725235;-0.005326165;0.00079892477;-0.001065233;1.8287147;-0.45104706;-9.952348
152;-0.45575166;-0.5607857;0.45082408;1.7265416;-9.644008;-0.42725235;-0.005326165;0.00079892477;-0.001065233;1.8287147;-0.45104706;-9.952348
153;-0.45577472;-0.56040454;0.45120928;1.7396963;-9.641252;-0.4360259;-0.005326165;0.00079892477;-0.001065233;1.8287147;-0.45104706;-9.952348
154;-0.45577472;-0.56040454;0.45120928;1.7396963;-9.641252;-0.4360259;-0.005326165;0.00079892477;-0.001065233;1.7659031;-0.4648058;-9.968499
155;-0.45577472;-0.56040454;0.45120928;1.7396963;-9.641252;-0.4360259;-0.00013315413;-0.0015978495;-0.0015978495;1.7659031;-0.4648058;-9.968499
156;-0.45577472;-0.56040454;0.45120928;1.7396963;-9.641252;-0.4360259;-0.00013315413;-0.0015978495;-0.0015978495;1.7659031;-0.4648058;-9.968499
157;-0.45577472;-0.56040454;0.45120928;1.7396963;-9.641252;-0.4360259;-0.00013315413;-0.0015978495;-0.0015978495;1.7659031;-0.4648058;-9.968499
158;-0.45577472;-0.56040454;0.45120928;1.7396963;-9.641252;-0.4360259;-0.00013315413;-0.0015978495;-0.0015978495;1.7659031;-0.4648058;-9.968499
159;-0.45559636;-0.5609484;0.45062882;1.7352414;-9.64172;-0.44338074;-0.00013315413;-0.0015978495;-0.0015978495;1.7886349;-0.46779683;-9.959526
160;-0.45559636;-0.5609484;0.45062882;1.7352414;-9.64172;-0.44338074;0.0023967742;-0.0038614697;-0.00013315413;1.7886349;-0.46779683;-9.959526
161;-0.45559636;-0.5609484;0.45062882;1.7352414;-9.64172;-0.44338074;0.0023967742;-0.0038614697;-0.00013315413;1.7886349;-0.46779683;-9.959526
162;-0.45559636;-0.5609484;0.45062882;1.7352414;-9.64172;-0.44338074;0.0023967742;-0.0038614697;-0.00013315413;1.7886349;-0.46779683;-9.959526
163;-0.45559636;-0.5609484;0.45062882;1.7352414;-9.64172;-0.44338074;0.0023967742;-0.0038614697;-0.00013315413;1.7886349;-0.46779683;-9.959526
164;-0.45559636;-0.5609484;0.45062882;1.7352414;-9.64172;-0.44338074;0.0023967742;-0.0038614697;-0.00013315413;1.7886349;-0.46779683;-9.959526
165;-0.45587677;-0.56105477;0.4505817;1.7323451;-9.642381;-0.44030532;0.0023967742;-0.0038614697;-0.00013315413;1.8089739;-0.4552345;-9.960723
166;-0.45587677;-0.56105477;0.4505817;1.7323451;-9.642381;-0.44030532;-0.001065233;0.013714875;-0.002130466;1.8089739;-0.4552345;-9.960723
167;-0.45587677;-0.56105477;0.4505817;1.7323451;-9.642381;-0.44030532;-0.001065233;0.013714875;-0.002130466;1.8089739;-0.4552345;-9.960723
168;-0.45587677;-0.56105477;0.4505817;1.7323451;-9.642381;-0.44030532;-0.001065233;0.013714875;-0.002130466;1.8089739;-0.4552345;-9.960723
169;-0.45587677;-0.56105477;0.4505817;1.7323451;-9.642381;-0.44030532;-0.001065233;0.013714875;-0.002130466;1.8089739;-0.4552345;-9.960723
170;-0.45589167;-0.56090295;0.45073658;1.743863;-9.640248;-0.44153088;-0.001065233;0.013714875;-0.002130466;1.8089739;-0.4552345;-9.960723
171;-0.45589167;-0.56090295;0.45073658;1.743863;-9.640248;-0.44153088;-0.001065233;0.013714875;-0.002130466;1.7820547;-0.42831525;-9.963116
172;-0.45589167;-0.56090295;0.45073658;1.743863;-9.640248;-0.44153088;0.0067908606;-0.0074566314;-0.0017310036;1.7820547;-0.42831525;-9.963116
173;-0.45589167;-0.56090295;0.45073658;1.743863;-9.640248;-0.44153088;0.0067908606;-0.0074566314;-0.0017310036;1.7820547;-0.42831525;-9.963116
174;-0.45589167;-0.56090295;0.45073658;1.743863;-9.640248;-0.44153088;0.0067908606;-0.0074566314;-0.0017310036;1.7820547;-0.42831525;-9.963116
175;-0.45589167;-0.56090295;0.45073658;1.743863;-9.640248;-0.44153088;0.0067908606;-0.0074566314;-0.0017310036;1.7820547;-0.42831525;-9.963116
176;-0.45559797;-0.5611972;0.45038038;1.7375776;-9.642082;-0.4259967;0.0067908606;-0.0074566314;-0.0017310036;1.8083757;-0.44506502;-9.954143
177;-0.45559797;-0.5611972;0.45038038;1.7375776;-9.642082;-0.4259967;-0.0006657706;0.0047935485;-0.0015978495;1.8083757;-0.44506502;-9.954143
178;-0.45559797;-0.5611972;0.45038038;1.7375776;-9.642082;-0.4259967;-0.0006657706;0.0047935485;-0.0015978495;1.8083757;-0.44506502;-9.954143
179;-0.45559797;-0.5611972;0.45038038;1.7375776;-9.642082;-0.4259967;-0.0006657706;0.0047935485;-0.0015978495;1.8083757;-0.44506502;-9.954143
180;-0.45559797;-0.5611972;0.45038038;1.7375776;-9.642082;-0.4259967;-0.0006657706;0.0047935485;-0.0015978495;1.8083757;-0.44506502;-9.954143
181;-0.4554414;-0.56061834;0.45092568;1.7428876;-9.64112;-0.4260723;-0.0006657706;0.0047935485;-0.0015978495;1.8083757;-0.44506502;-9.954143
182;-0.4554414;-0.56061834;0.45092568;1.7428876;-9.64112;-0.4260723;-0.0006657706;0.0047935485;-0.0015978495;1.8185452;-0.44207397;-9.957133
183;-0.4554414;-0.56061834;0.45092568;1.7428876;-9.64112;-0.4260723;-0.0046603945;0.0058587817;0.0;1.8185452;-0.44207397;-9.957133
184;-0.4554414;-0.56061834;0.45092568;1.7428876;-9.64112;-0.4260723;-0.0046603945;0.0058587817;0.0;1.8185452;-0.44207397;-9.957133
185;-0.4554414;-0.56061834;0.45092568;1.7428876;-9.64112;-0.4260723;-0.0046603945;0.0058587817;0.0;1.8185452;-0.44207397;-9.957133
186;-0.4554414;-0.56061834;0.45092568;1.7428876;-9.64112;-0.4260723;-0.0046603945;0.0058587817;0.0;1.8185452;-0.44207397;-9.957133
187;-0.4552954;-0.56074035;0.4507731;1.7513461;-9.639358;-0.43123507;-0.0046603945;0.0058587817;0.0;1.7808583;-0.44027936;-9.966106
188;-0.4552954;-0.56074035;0.4507731;1.7513461;-9.639358;-0.43123507;-0.0046603945;0.0058587817;0.0;1.7808583;-0.44027936;-9.966106
189;-0.4552954;-0.56074035;0.4507731;1.7513461;-9.639358;-0.43123507;0.0045272405;-0.012649642;-0.00079892477;1.7808583;-0.44027936;-9.966106
190;-0.4552954;-0.56074035;0.4507731;1.7513461;-9.639358;-0.43123507;0.0045272405;-0.012649642;-0.00079892477;1.7808583;-0.44027936;-9.966106
191;-0.4552954;-0.56074035;0.4507731;1.7513461;-9.639358;-0.43123507;0.0045272405;-0.012649642;-0.00079892477;1.7808583;-0.44027936;-9.966106
192;-0.4552954;-0.56074035;0.4507731;1.7513461;-9.639358;-0.43123507;0.0045272405;-0.012649642;-0.00079892477;1.7808583;-0.44027936;-9.966106
193;-0.45517042;-0.5610764;0.4504109;1.7444574;-9.640678;-0.42962417;0.0045272405;-0.012649642;-0.00079892477;1.8095721;-0.42891344;-9.958928
194;-0.45517042;-0.5610764;0.4504109;1.7444574;-9.640678;-0.42962417;0.0045272405;-0.012649642;-0.00079892477;1.8095721;-0.42891344;-9.958928
195;-0.45517042;-0.5610764;0.4504109;1.7444574;-9.640678;-0.42962417;-0.0025299285;0.0058587817;0.0014646954;1.8095721;-0.42891344;-9.958928
196;-0.45517042;-0.5610764;0.4504109;1.7444574;-9.640678;-0.42962417;-0.0025299285;0.0058587817;0.0014646954;1.8095721;-0.42891344;-9.958928
197;-0.45517042;-0.5610764;0.4504109;1.7444574;-9.640678;-0.42962417;-0.0025299285;0.0058587817;0.0014646954;1.8095721;-0.42891344;-9.958928
198;-0.45517042;-0.5610764;0.4504109;1.7444574;-9.640678;-0.42962417;-0.0025299285;0.0058587817;0.0014646954;1.8095721;-0.42891344;-9.958928
199;-0.45532757;-0.5608757;0.4506447;1.7435665;-9.641129;-0.42307916;-0.0025299285;0.0058587817;0.0014646954;1.8167506;-0.43908295;-9.954741
200;-0.45532757;-0.5608757;0.4506447;1.7435665;-9.641129;-0.42307916;-0.0025299285;0.0058587817;0.0014646954;1.8167506;-0.43908295;-9.954741
201;-0.45532757;-0.5608757;0.4506447;1.7435665;-9.641129;-0.42307916;-0.002130466;0.003195699;-0.0011983871;1.8167506;-0.43908295;-9.954741
202;-0.45532757;-0.5608757;0.4506447;1.7435665;-9.641129;-0.42307916;-0.002130466;0.003195699;-0.0011983871;1.8167506;-0.43908295;-9.954741
203;-0.45532757;-0.5608757;0.4506447;1.7435665;-9.641129;-0.42307916;-0.002130466;0.003195699;-0.0011983871;1.8167506;-0.43908295;-9.954741
204;-0.45532757;-0.5608757;0.4506447;1.7435665;-9.641129;-0.42307916;-0.002130466;0.003195699;-0.0011983871;1.8167506;-0.43908295;-9.954741
205;-0.45521268;-0.56067145;0.45082444;1.7495704;-9.639847;-0.42749923;-0.002130466;0.003195699;-0.0011983871;1.7898313;-0.44865423;-9.964312
206;-0.45521268;-0.56067145;0.45082444;1.7495704;-9.639847;-0.42749923;-0.002130466;0.003195699;-0.0011983871;1.7898313;-0.44865423;-9.964312
207;-0.45521268;-0.56067145;0.45082444;1.7495704;-9.639847;-0.42749923;0.00013315413;0.0013315412;-0.0013315412;1.7898313;-0.44865423;-9.964312
208;-0.45521268;-0.56067145;0.45082444;1.7495704;-9.639847;-0.42749923;0.00013315413;0.0013315412;-0.0013315412;1.7898313;-0.44865423;-9.964312
209;-0.45521268;-0.56067145;0.45082444;1.7495704;-9.639847;-0.42749923;0.00013315413;0.0013315412;-0.0013315412;1.7898313;-0.44865423;-9.964312
210;-0.45521268;-0.56067145;0.45082444;1.7495704;-9.639847;-0.42749923;0.00013315413;0.0013315412;-0.0013315412;1.7898313;-0.44865423;-9.964312
211;-0.45514008;-0.56093127;0.45054957;1.7453849;-9.640509;-0.42966914;0.00013315413;0.0013315412;-0.0013315412;1.8095721;-0.43489552;-9.958928
212;-0.45514008;-0.56093127;0.45054957;1.7453849;-9.640509;-0.42966914;0.00013315413;0.0013315412;-0.0013315412;1.8095721;-0.43489552;-9.958928
213;-0.45514008;-0.56093127;0.45054957;1.7453849;-9.640509;-0.42966914;-0.002130466;0.0057256273;-0.00079892477;1.8095721;-0.43489552;-9.958928
214;-0.45514008;-0.56093127;0.45054957;1.7453849;-9.640509;-0.42966914;-0.002130466;0.0057256273;-0.00079892477;1.8095721;-0.43489552;-9.958928
215;-0.45514008;-0.56093127;0.45054957;1.7453849;-9.640509;-0.42966914;-0.002130466;0.0057256273;-0.00079892477;1.8095721;-0.43489552;-9.958928
216;-0.45514008;-0.56093127;0.45054957;1.7453849;-9.640509;-0.42966914;-0.002130466;0.0057256273;-0.00079892477;1.8095721;-0.43489552;-9.958928
217;-0.45530275;-0.5608979;0.45061728;1.7488885;-9.63998;-0.4272616;-0.002130466;0.0057256273;-0.00079892477;1.8113668;-0.42592242;-9.963714
218;-0.45530275;-0.5608979;0.45061728;1.7488885;-9.63998;-0.4272616;0.0023967742;-0.008921326;-0.0005326165;1.8113668;-0.42592242;-9.963714
219;-0.45530275;-0.5608979;0.45061728;1.7488885;-9.63998;-0.4272616;0.0023967742;-0.008921326;-0.0005326165;1.8113668;-0.42592242;-9.963714
220;-0.45530275;-0.5608979;0.45061728;1.7488885;-9.63998;-0.4272616;0.0023967742;-0.008921326;-0.0005326165;1.8113668;-0.42592242;-9.963714
221;-0.45530275;-0.5608979;0.45061728;1.7488885;-9.63998;-0.4272616;0.0023967742;-0.008921326;-0.0005326165;1.8113668;-0.42592242;-9.963714
222;-0.45530275;-0.5608979;0.45061728;1.7488885;-9.63998;-0.4272616;0.0023967742;-0.008921326;-0.0005326165;1.8113668;-0.42592242;-9.963714
223;-0.45515397;-0.5609092;0.45057458;1.752191;-9.639625;-0.42171678;0.0023967742;-0.008921326;-0.0005326165;1.8245273;-0.47138608;-9.954143
224;-0.45515397;-0.5609092;0.45057458;1.752191;-9.639625;-0.42171678;-0.0030625449;0.0058587817;-0.0022636203;1.8245273;-0.47138608;-9.954143
225;-0.45515397;-0.5609092;0.45057458;1.752191;-9.639625;-0.42171678;-0.0030625449;0.0058587817;-0.0022636203;1.8245273;-0.47138608;-9.954143
226;-0.45515397;-0.5609092;0.45057458;1.752191;-9.639625;-0.42171678;-0.0030625449;0.0058587817;-0.0022636203;1.8245273;-0.47138608;-9.954143
227;-0.45515397;-0.5609092;0.45057458;1.752191;-9.639625;-0.42171678;-0.0030625449;0.0058587817;-0.0022636203;1.8245273;-0.47138608;-9.954143
228;-0.45494375;-0.56082773;0.4506116;1.7585555;-9.637991;-0.43243298;-0.0030625449;0.0058587817;-0.0022636203;1.8245273;-0.47138608;-9.954143
229;-0.45494375;-0.56082773;0.4506116;1.7585555;-9.637991;-0.43243298;-0.0030625449;0.0058587817;-0.0022636203;1.8029919;-0.424726;-9.964312
230;-0.45494375;-0.56082773;0.4506116;1.7585555;-9.637991;-0.43243298;0.0015978495;-0.0026630824;-0.00026630826;1.8029919;-0.424726;-9.964312
231;-0.45494375;-0.56082773;0.4506116;1.7585555;-9.637991;-0.43243298;0.0015978495;-0.0026630824;-0.00026630826;1.8029919;-0.424726;-9.964312
232;-0.45494375;-0.56082773;0.4506116;1.7585555;-9.637991;-0.43243298;0.0015978495;-0.0026630824;-0.00026630826;1.8029919;-0.424726;-9.964312
233;-0.45494375;-0.56082773;0.4506116;1.7585555;-9.637991;-0.43243298;0.0015978495;-0.0026630824;-0.00026630826;1.8029919;-0.424726;-9.964312
234;-0.4549955;-0.5612727;0.45017764;1.7514243;-9.639346;-0.43117005;0.0015978495;-0.0026630824;-0.00026630826;1.8029919;-0.424726;-9.964312
235;-0.4549955;-0.5612727;0.45017764;1.7514243;-9.639346;-0.43117005;0.0015978495;-0.0026630824;-0.00026630826;1.8143578;-0.44506502;-9.954741
236;-0.4549955;-0.5612727;0.45017764;1.7514243;-9.639346;-0.43117005;-0.0009320789;0.0022636203;0.00039946238;1.8143578;-0.44506502;-9.954741
237;-0.4549955;-0.5612727;0.45017764;1.7514243;-9.639346;-0.43117005;-0.0009320789;0.0022636203;0.00039946238;1.8143578;-0.44506502;-9.954741
238;-0.4549955;-0.5612727;0.45017764;1.7514243;-9.639346;-0.43117005;-0.0009320789;0.0022636203;0.00039946238;1.8143578;-0.44506502;-9.954741
239;-0.4549955;-0.5612727;0.45017764;1.7514243;-9.639346;-0.43117005;-0.0009320789;0.0022636203;0.00039946238;1.8143578;-0.44506502;-9.954741
240;-0.45516688;-0.56107634;0.45041022;1.7551339;-9.638866;-0.42679197;-0.0009320789;0.0022636203;0.00039946238;1.8143578;-0.44506502;-9.954741
241;-0.45516688;-0.56107634;0.45041022;1.7551339;-9.638866;-0.42679197;-0.0009320789;0.0022636203;0.00039946238;1.8173488;-0.4534399;-9.956535
242;-0.45516688;-0.56107634;0.45041022;1.7551339;-9.638866;-0.42679197;0.0026630824;-0.0047935485;-0.00013315413;1.8173488;-0.4534399;-9.956535
243;-0.45516688;-0.56107634;0.45041022;1.7551339;-9.638866;-0.42679197;0.0026630824;-0.0047935485;-0.00013315413;1.8173488;-0.4534399;-9.956535
244;-0.45516688;-0.56107634;0.45041022;1.7551339;-9.638866;-0.42679197;0.0026630824;-0.0047935485;-0.00013315413;1.8173488;-0.4534399;-9.956535
245;-0.45516688;-0.56107634;0.45041022;1.7551339;-9.638866;-0.42679197;0.0026630824;-0.0047935485;-0.00013315413;1.8173488;-0.4534399;-9.956535
246;-0.45497024;-0.5610369;0.45040816;1.7554839;-9.638606;-0.43119866;0.0026630824;-0.0047935485;-0.00013315413;1.8173488;-0.4534399;-9.956535
247;-0.45497024;-0.5610369;0.45040816;1.7554839;-9.638606;-0.43119866;0.0026630824;-0.0047935485;-0.00013315413;1.797608;-0.4331009;-9.960723
248;-0.45497024;-0.5610369;0.45040816;1.7554839;-9.638606;-0.43119866;-0.0005326165;0.00026630826;0.0019973118;1.797608;-0.4331009;-9.960723
249;-0.45497024;-0.5610369;0.45040816;1.7554839;-9.638606;-0.43119866;-0.0005326165;0.00026630826;0.0019973118;1.797608;-0.4331009;-9.960723
250;-0.45497024;-0.5610369;0.45040816;1.7554839;-9.638606;-0.43119866;-0.0005326165;0.00026630826;0.0019973118;1.797608;-0.4331009;-9.960723
251;-0.45497024;-0.5610369;0.45040816;1.7554839;-9.638606;-0.43119866;-0.0005326165;0.00026630826;0.0019973118;1.797608;-0.4331009;-9.960723
252;-0.45505458;-0.56116873;0.45029414;1.7487009;-9.640159;-0.42397994;-0.0005326165;0.00026630826;0.0019973118;1.797608;-0.4331009;-9.960723
253;-0.45505458;-0.56116873;0.45029414;1.7487009;-9.640159;-0.42397994;-0.0005326165;0.00026630826;0.0019973118;1.8239291;-0.43728834;-9.958928
254;-0.45505458;-0.56116873;0.45029414;1.7487009;-9.640159;-0.42397994;0.0;0.00026630826;0.00079892477;1.8239291;-0.43728834;-9.958928
255;-0.45505458;-0.56116873;0.45029414;1.7487009;-9.640159;-0.42397994;0.0;0.00026630826;0.00079892477;1.8239291;-0.43728834;-9.958928
256;-0.45505458;-0.56116873;0.45029414;1.7487009;-9.640159;-0.42397994;0.0;0.00026630826;0.00079892477;1.8239291;-0.43728834;-9.958928
257;-0.45505458;-0.56116873;0.45029414;1.7487009;-9.640159;-0.42397994;0.0;0.00026630826;0.00079892477;1.8239291;-0.43728834;-9.958928
258;-0.45508912;-0.56081265;0.45065734;1.7529668;-9.639247;-0.42711732;0.0;0.00026630826;0.00079892477;1.8239291;-0.43728834;-9.958928
259;-0.45508912;-0.56081265;0.45065734;1.7529668;-9.639247;-0.42711732;0.0;0.00026630826;0.00079892477;1.8023937;-0.43489552;-9.959526
260;-0.45508912;-0.56081265;0.45065734;1.7529668;-9.639247;-0.42711732;0.0022636203;-0.004394086;-0.001065233;1.8023937;-0.43489552;-9.959526
261;-0.45508912;-0.56081265;0.45065734;1.7529668;-9.639247;-0.42711732;0.0022636203;-0.004394086;-0.001065233;1.8023937;-0.43489552;-9.959526
262;-0.45508912;-0.56081265;0.45065734;1.7529668;-9.639247;-0.42711732;0.0022636203;-0.004394086;-0.001065233;1.8023937;-0.43489552;-9.959526
263;-0.45508912;-0.56081265;0.45065734;1.7529668;-9.639247;-0.42711732;0.0022636203;-0.004394086;-0.001065233;1.8023937;-0.43489552;-9.959526
264;-0.45503747;-0.5609972;0.45046207;1.7522061;-9.639638;-0.42135385;0.0022636203;-0.004394086;-0.001065233;1.8023937;-0.43489552;-9.959526
265;-0.45503747;-0.5609972;0.45046207;1.7522061;-9.639638;-0.42135385;0.0022636203;-0.004394086;-0.001065233;1.8203398;-0.43669012;-9.958329
266;-0.45503747;-0.5609972;0.45046207;1.7522061;-9.639638;-0.42135385;-0.0025299285;0.0057256273;-0.00026630826;1.8203398;-0.43669012;-9.958329
267;-0.45503747;-0.5609972;0.45046207;1.7522061;-9.639638;-0.42135385;-0.0025299285;0.0057256273;-0.00026630826;1.8203398;-0.43669012;-9.958329
268;-0.45503747;-0.5609972;0.45046207;1.7522061;-9.639638;-0.42135385;-0.0025299285;0.0057256273;-0.00026630826;1.8203398;-0.43669012;-9.958329
269;-0.45503747;-0.5609972;0.45046207;1.7522061;-9.639638;-0.42135385;-0.0025299285;0.0057256273;-0.00026630826;1.8203398;-0.43669012;-9.958329
270;-0.45493558;-0.5608179;0.45061973;1.7519965;-9.639533;-0.4246179;-0.0025299285;0.0057256273;-0.00026630826;1.8203398;-0.43669012;-9.958329
271;-0.45493558;-0.5608179;0.45061973;1.7519965;-9.639533;-0.4246179;-0.0025299285;0.0057256273;-0.00026630826;1.8011973;-0.43130627;-9.965508
272;-0.45493558;-0.5608179;0.45061973;1.7519965;-9.639533;-0.4246179;0.0;0.0022636203;-0.0009320789;1.8011973;-0.43130627;-9.965508
273;-0.45493558;-0.5608179;0.45061973;1.7519965;-9.639533;-0.4246179;0.0;0.0022636203;-0.0009320789;1.8011973;-0.43130627;-9.965508
274;-0.45493558;-0.5608179;0.45061973;1.7519965;-9.639533;-0.4246179;0.0;0.0022636203;-0.0009320789;1.8011973;-0.43130627;-9.965508
275;-0.45493558;-0.5608179;0.45061973;1.7519965;-9.639533;-0.4246179;0.0;0.0022636203;-0.0009320789;1.8011973;-0.43130627;-9.965508
276;-0.4550111;-0.560905;0.45054865;1.7543133;-9.639173;-0.4232389;0.0;0.0022636203;-0.0009320789;1.8011973;-0.43130627;-9.965508
277;-0.4550111;-0.560905;0.45054865;1.7543133;-9.639173;-0.4232389;0.0;0.0022636203;-0.0009320789;1.811965;-0.44027936;-9.961321
278;-0.4550111;-0.560905;0.45054865;1.7543133;-9.639173;-0.4232389;0.00039946238;-0.001065233;-0.0013315412;1.811965;-0.44027936;-9.961321
279;-0.4550111;-0.560905;0.45054865;1.7543133;-9.639173;-0.4232389;0.00039946238;-0.001065233;-0.0013315412;1.811965;-0.44027936;-9.961321
280;-0.4550111;-0.560905;0.45054865;1.7543133;-9.639173;-0.4232389;0.00039946238;-0.001065233;-0.0013315412;1.811965;-0.44027936;-9.961321
281;-0.4550111;-0.560905;0.45054865;1.7543133;-9.639173;-0.4232389;0.00039946238;-0.001065233;-0.0013315412;1.811965;-0.44027936;-9.961321
282;-0.4549172;-0.56091845;0.4505154;1.7512599;-9.639747;-0.42277676;0.00039946238;-0.001065233;-0.0013315412;1.811965;-0.44027936;-9.961321
283;-0.4549172;-0.56091845;0.4505154;1.7512599;-9.639747;-0.42277676;0.00039946238;-0.001065233;-0.0013315412;1.8023937;-0.4325027;-9.960723
284;-0.4549172;-0.56091845;0.4505154;1.7512599;-9.639747;-0.42277676;-0.0037283157;0.003195699;0.00026630826;1.8023937;-0.4325027;-9.960723
285;-0.4549172;-0.56091845;0.4505154;1.7512599;-9.639747;-0.42277676;-0.0037283157;0.003195699;0.00026630826;1.8023937;-0.4325027;-9.960723
286;-0.4549172;-0.56091845;0.4505154;1.7512599;-9.639747;-0.42277676;-0.0037283157;0.003195699;0.00026630826;1.8023937;-0.4325027;-9.960723
287;-0.4549172;-0.56091845;0.4505154;1.7512599;-9.639747;-0.42277676;-0.0037283157;0.003195699;0.00026630826;1.8023937;-0.4325027;-9.960723
288;-0.45499226;-0.56083655;0.45061305;1.7513126;-9.639601;-0.42591187;-0.0037283157;0.003195699;0.00026630826;1.8023937;-0.4325027;-9.960723
289;-0.45499226;-0.56083655;0.45061305;1.7513126;-9.639601;-0.42591187;-0.0037283157;0.003195699;0.00026630826;1.8239291;-0.4354937;-9.9553385
290;-0.45499226;-0.56083655;0.45061305;1.7513126;-9.639601;-0.42591187;-0.0023967742;-0.0025299285;0.00013315413;1.8239291;-0.4354937;-9.9553385
291;-0.45499226;-0.56083655;0.45061305;1.7513126;-9.639601;-0.42591187;-0.0023967742;-0.0025299285;0.00013315413;1.8239291;-0.4354937;-9.9553385
292;-0.45499226;-0.56083655;0.45061305;1.7513126;-9.639601;-0.42591187;-0.0023967742;-0.0025299285;0.00013315413;1.8239291;-0.4354937;-9.9553385
293;-0.45499226;-0.56083655;0.45061305;1.7513126;-9.639601;-0.42591187;-0.0023967742;-0.0025299285;0.00013315413;1.8239291;-0.4354937;-9.9553385
294;-0.45505774;-0.56092596;0.45053756;1.757837;-9.638343;-0.42750007;-0.0023967742;-0.0025299285;0.00013315413;1.8239291;-0.4354937;-9.9553385
295;-0.45505774;-0.56092596;0.45053756;1.757837;-9.638343;-0.42750007;-0.0023967742;-0.0025299285;0.00013315413;1.8095721;-0.46002015;-9.957731
296;-0.45505774;-0.56092596;0.45053756;1.757837;-9.638343;-0.42750007;-0.002130466;0.0017310036;-0.0006657706;1.8095721;-0.46002015;-9.957731
297;-0.45505774;-0.56092596;0.45053756;1.757837;-9.638343;-0.42750007;-0.002130466;0.0017310036;-0.0006657706;1.8095721;-0.46002015;-9.957731
298;-0.45505774;-0.56092596;0.45053756;1.757837;-9.638343;-0.42750007;-0.002130466;0.0017310036;-0.0006657706;1.8095721;-0.46002015;-9.957731
299;-0.45505774;-0.56092596;0.45053756;1.757837;-9.638343;-0.42750007;-0.002130466;0.0017310036;-0.0006657706;1.8095721;-0.46002015;-9.957731
300;-0.45491016;-0.56111777;0.4503146;1.7554303;-9.638434;-0.43524334;-0.002130466;0.0017310036;-0.0006657706;1.8095721;-0.46002015;-9.957731
301;-0.45491016;-0.56111777;0.4503146;1.7554303;-9.638434;-0.43524334;-0.002130466;0.0017310036;-0.0006657706;1.8065811;-0.43788654;-9.965508
302;-0.45491016;-0.56111777;0.4503146;1.7554303;-9.638434;-0.43524334;-0.0017310036;-0.0034620073;0.0018641578;1.8065811;-0.43788654;-9.965508
303;-0.45491016;-0.56111777;0.4503146;1.7554303;-9.638434;-0.43524334;-0.0017310036;-0.0034620073;0.0018641578;1.8065811;-0.43788654;-9.965508
304;-0.45491016;-0.56111777;0.4503146;1.7554303;-9.638434;-0.43524334;-0.0017310036;-0.0034620073;0.0018641578;1.8065811;-0.43788654;-9.965508
305;-0.45491016;-0.56111777;0.4503146;1.7554303;-9.638434;-0.43524334;-0.0017310036;-0.0034620073;0.0018641578;1.8065811;-0.43788654;-9.965508
306;-0.4551424;-0.56128126;0.4502001;1.7502418;-9.639392;-0.43492696;-0.0017310036;-0.0034620073;0.0018641578;1.8065811;-0.43788654;-9.965508
307;-0.4551424;-0.56128126;0.4502001;1.7502418;-9.639392;-0.43492696;-0.0017310036;-0.0034620073;0.0018641578;1.8095721;-0.47138608;-9.958329
308;-0.4551424;-0.56128126;0.4502001;1.7502418;-9.639392;-0.43492696;-0.002130466;-0.00026630826;0.0009320789;1.8095721;-0.47138608;-9.958329
309;-0.4551424;-0.56128126;0.4502001;1.7502418;-9.639392;-0.43492696;-0.002130466;-0.00026630826;0.0009320789;1.8095721;-0.47138608;-9.958329
310;-0.4551424;-0.56128126;0.4502001;1.7502418;-9.639392;-0.43492696;-0.002130466;-0.00026630826;0.0009320789;1.8095721;-0.47138608;-9.958329
311;-0.4551424;-0.56128126;0.4502001;1.7502418;-9.639392;-0.43492696;-0.002130466;-0.00026630826;0.0009320789;1.8095721;-0.47138608;-9.958329
312;-0.4552799;-0.5611553;0.45035508;1.7510827;-9.638841;-0.44368172;-0.002130466;-0.00026630826;0.0009320789;1.8095721;-0.47138608;-9.958329
313;-0.4552799;-0.5611553;0.45035508;1.7510827;-9.638841;-0.44368172;-0.002130466;-0.00026630826;0.0009320789;1.783251;-0.4564309;-9.963116
314;-0.4552799;-0.5611553;0.45035508;1.7510827;-9.638841;-0.44368172;0.0018641578;-0.009054481;0.00039946238;1.783251;-0.4564309;-9.963116
315;-0.4552799;-0.5611553;0.45035508;1.7510827;-9.638841;-0.44368172;0.0018641578;-0.009054481;0.00039946238;1.783251;-0.4564309;-9.963116
316;-0.4552799;-0.5611553;0.45035508;1.7510827;-9.638841;-0.44368172;0.0018641578;-0.009054481;0.00039946238;1.783251;-0.4564309;-9.963116
317;-0.4552799;-0.5611553;0.45035508;1.7510827;-9.638841;-0.44368172;0.0018641578;-0.009054481;0.00039946238;1.783251;-0.4564309;-9.963116
318;-0.45544323;-0.56142044;0.4501243;1.7414814;-9.640588;-0.44350573;0.0018641578;-0.009054481;0.00039946238;1.783251;-0.4564309;-9.963116
319;-0.45544323;-0.56142044;0.4501243;1.7414814;-9.640588;-0.44350573;0.0018641578;-0.009054481;0.00039946238;1.8311075;-0.44207397;-9.952946
320;-0.45544323;-0.56142044;0.4501243;1.7414814;-9.640588;-0.44350573;-0.003195699;0.00026630826;0.0017310036;1.8311075;-0.44207397;-9.952946
321;-0.45544323;-0.56142044;0.4501243;1.7414814;-9.640588;-0.44350573;-0.003195699;0.00026630826;0.0017310036;1.8311075;-0.44207397;-9.952946
322;-0.45544323;-0.56142044;0.4501243;1.7414814;-9.640588;-0.44350573;-0.003195699;0.00026630826;0.0017310036;1.8311075;-0.44207397;-9.952946
323;-0.45544323;-0.56142044;0.4501243;1.7414814;-9.640588;-0.44350573;-0.003195699;0.00026630826;0.0017310036;1.8311075;-0.44207397;-9.952946
324;-0.45570618;-0.56119907;0.45040143;1.7464553;-9.639739;-0.44239855;-0.003195699;0.00026630826;0.0017310036;1.8311075;-0.44207397;-9.952946
325;-0.45570618;-0.56119907;0.45040143;1.7464553;-9.639739;-0.44239855;-0.003195699;0.00026630826;0.0017310036;1.7862421;-0.45164528;-9.958928
326;-0.45570618;-0.56119907;0.45040143;1.7464553;-9.639739;-0.44239855;-0.0061250897;0.0047935485;0.00079892477;1.7862421;-0.45164528;-9.958928
327;-0.45570618;-0.56119907;0.45040143;1.7464553;-9.639739;-0.44239855;-0.0061250897;0.0047935485;0.00079892477;1.7862421;-0.45164528;-9.958928
328;-0.45570618;-0.56119907;0.45040143;1.7464553;-9.639739;-0.44239855;-0.0061250897;0.0047935485;0.00079892477;1.7862421;-0.45164528;-9.958928
329;-0.45570618;-0.56119907;0.45040143;1.7464553;-9.639739;-0.44239855;-0.0061250897;0.0047935485;0.00079892477;1.7862421;-0.45164528;-9.958928
330;-0.45554444;-0.5612801;0.4502862;1.7434142;-9.640059;-0.44737858;-0.0061250897;0.0047935485;0.00079892477;1.7862421;-0.45164528;-9.958928
331;-0.45554444;-0.5612801;0.4502862;1.7434142;-9.640059;-0.44737858;-0.0061250897;0.0047935485;0.00079892477;1.8281165;-0.4534399;-9.9553385
332;-0.45554444;-0.5612801;0.4502862;1.7434142;-9.640059;-0.44737858;-0.0074566314;-0.0046603945;-0.0009320789;1.8281165;-0.4534399;-9.9553385
333;-0.45554444;-0.5612801;0.4502862;1.7434142;-9.640059;-0.44737858;-0.0074566314;-0.0046603945;-0.0009320789;1.8281165;-0.4534399;-9.9553385
334;-0.45554444;-0.5612801;0.4502862;1.7434142;-9.640059;-0.44737858;-0.0074566314;-0.0046603945;-0.0009320789;1.8281165;-0.4534399;-9.9553385
335;-0.45554444;-0.5612801;0.4502862;1.7434142;-9.640059;-0.44737858;-0.0074566314;-0.0046603945;-0.0009320789;1.8281165;-0.4534399;-9.9553385
336;-0.45573503;-0.56135154;0.45025495;1.749884;-9.638535;-0.45490333;-0.0074566314;-0.0046603945;-0.0009320789;1.8281165;-0.4534399;-9.9553385
337;-0.45573503;-0.56135154;0.45025495;1.749884;-9.638535;-0.45490333;-0.0074566314;-0.0046603945;-0.0009320789;1.7730815;-0.5084748;-9.966106
338;-0.45573503;-0.56135154;0.45025495;1.749884;-9.638535;-0.45490333;-0.0061250897;0.007190323;0.0014646954;1.7730815;-0.5084748;-9.966106
339;-0.45573503;-0.56135154;0.45025495;1.749884;-9.638535;-0.45490333;-0.0061250897;0.007190323;0.0014646954;1.7730815;-0.5084748;-9.966106
340;-0.45573503;-0.56135154;0.45025495;1.749884;-9.638535;-0.45490333;-0.0061250897;0.007190323;0.0014646954;1.7730815;-0.5084748;-9.966106
341;-0.45573503;-0.56135154;0.45025495;1.749884;-9.638535;-0.45490333;-0.0061250897;0.007190323;0.0014646954;1.7730815;-0.5084748;-9.966106
342;-0.45571566;-0.56170887;0.449893;1.7412282;-9.639429;-0.46894827;-0.0061250897;0.007190323;0.0014646954;1.7730815;-0.5084748;-9.966106
343;-0.45571566;-0.56170887;0.449893;1.7412282;-9.639429;-0.46894827;-0.0061250897;0.007190323;0.0014646954;1.8017955;-0.50129634;-9.960723
344;-0.45571566;-0.56170887;0.449893;1.7412282;-9.639429;-0.46894827;0.0;-0.00026630826;-0.00079892477;1.8017955;-0.50129634;-9.960723
345;-0.45571566;-0.56170887;0.449893;1.7412282;-9.639429;-0.46894827;0.0;-0.00026630826;-0.00079892477;1.8017955;-0.50129634;-9.960723
346;-0.45571566;-0.56170887;0.449893;1.7412282;-9.639429;-0.46894827;0.0;-0.00026630826;-0.00079892477;1.8017955;-0.50129634;-9.960723
347;-0.45571566;-0.56170887;0.449893;1.7412282;-9.639429;-0.46894827;0.0;-0.00026630826;-0.00079892477;1.8017955;-0.50129634;-9.960723
348;-0.45625478;-0.5619086;0.44980684;1.7422923;-9.6388445;-0.4769297;0.0;-0.00026630826;-0.00079892477;1.8017955;-0.50129634;-9.960723
349;-0.45625478;-0.5619086;0.44980684;1.7422923;-9.6388445;-0.4769297;0.0;-0.00026630826;-0.00079892477;1.7922242;-0.48753762;-9.966106
350;-0.45625478;-0.5619086;0.44980684;1.7422923;-9.6388445;-0.4769297;0.005059857;-0.0030625449;-0.002130466;1.7922242;-0.48753762;-9.966106
351;-0.45625478;-0.5619086;0.44980684;1.7422923;-9.6388445;-0.4769297;0.005059857;-0.0030625449;-0.002130466;1.7922242;-0.48753762;-9.966106
352;-0.45625478;-0.5619086;0.44980684;1.7422923;-9.6388445;-0.4769297;0.005059857;-0.0030625449;-0.002130466;1.7922242;-0.48753762;-9.966106
353;-0.45625478;-0.5619086;0.44980684;1.7422923;-9.6388445;-0.4769297;0.005059857;-0.0030625449;-0.002130466;1.7922242;-0.48753762;-9.966106
354;-0.45639497;-0.5621568;0.4495875;1.7422235;-9.6391535;-0.4709151;0.005059857;-0.0030625449;-0.002130466;1.7922242;-0.48753762;-9.966106
355;-0.45639497;-0.5621568;0.4495875;1.7422235;-9.6391535;-0.4709151;0.005059857;-0.0030625449;-0.002130466;1.8077775;-0.4971089;-9.956535
356;-0.45639497;-0.5621568;0.4495875;1.7422235;-9.6391535;-0.4709151;0.0005326165;0.006391398;0.0;1.8077775;-0.4971089;-9.956535
357;-0.45639497;-0.5621568;0.4495875;1.7422235;-9.6391535;-0.4709151;0.0005326165;0.006391398;0.0;1.8077775;-0.4971089;-9.956535
358;-0.45639497;-0.5621568;0.4495875;1.7422235;-9.6391535;-0.4709151;0.0005326165;0.006391398;0.0;1.8077775;-0.4971089;-9.956535
359;-0.45639497;-0.5621568;0.4495875;1.7422235;-9.6391535;-0.4709151;0.0005326165;0.006391398;0.0;1.8077775;-0.4971089;-9.956535
360;-0.45626903;-0.56198627;0.44973195;1.7453427;-9.63871;-0.46845752;0.0005326165;0.006391398;0.0;1.8077775;-0.4971089;-9.956535
361;-0.45626903;-0.56198627;0.44973195;1.7453427;-9.63871;-0.46845752;0.0005326165;0.006391398;0.0;1.8101703;-0.45822555;-9.960723
362;-0.45626903;-0.56198627;0.44973195;1.7453427;-9.63871;-0.46845752;0.0057256273;-0.0037283157;-0.002130466;1.8101703;-0.45822555;-9.960723
363;-0.45626903;-0.56198627;0.44973195;1.7453427;-9.63871;-0.46845752;0.0057256273;-0.0037283157;-0.002130466;1.8101703;-0.45822555;-9.960723
364;-0.45626903;-0.56198627;0.44973195;1.7453427;-9.63871;-0.46845752;0.0057256273;-0.0037283157;-0.002130466;1.8101703;-0.45822555;-9.960723
365;-0.45626903;-0.56198627;0.44973195;1.7453427;-9.63871;-0.46845752;0.0057256273;-0.0037283157;-0.002130466;1.8101703;-0.45822555;-9.960723
366;-0.45613024;-0.56198746;0.44970137;1.7492965;-9.638451;-0.45894292;0.0057256273;-0.0037283157;-0.002130466;1.8041883;-0.4755735;-9.967901
367;-0.45613024;-0.56198746;0.44970137;1.7492965;-9.638451;-0.45894292;0.0057256273;-0.0037283157;-0.002130466;1.8041883;-0.4755735;-9.967901
368;-0.45613024;-0.56198746;0.44970137;1.7492965;-9.638451;-0.45894292;0.0035951615;0.00079892477;0.00039946238;1.8041883;-0.4755735;-9.967901
369;-0.45613024;-0.56198746;0.44970137;1.7492965;-9.638451;-0.45894292;0.0035951615;0.00079892477;0.00039946238;1.8041883;-0.4755735;-9.967901
370;-0.45613024;-0.56198746;0.44970137;1.7492965;-9.638451;-0.45894292;0.0035951615;0.00079892477;0.00039946238;1.8041883;-0.4755735;-9.967901
371;-0.45613024;-0.56198746;0.44970137;1.7492965;-9.638451;-0.45894292;0.0035951615;0.00079892477;0.00039946238;1.8041883;-0.4755735;-9.967901
372;-0.455818;-0.5618091;0.4498141;1.7474502;-9.639226;-0.44956142;0.0035951615;0.00079892477;0.00039946238;1.7964116;-0.485743;-9.957133
373;-0.455818;-0.5618091;0.4498141;1.7474502;-9.639226;-0.44956142;0.0035951615;0.00079892477;0.00039946238;1.7964116;-0.485743;-9.957133
374;-0.455818;-0.5618091;0.4498141;1.7474502;-9.639226;-0.44956142;0.001065233;0.002130466;0.0014646954;1.7964116;-0.485743;-9.957133
375;-0.455818;-0.5618091;0.4498141;1.7474502;-9.639226;-0.44956142;0.001065233;0.002130466;0.0014646954;1.7964116;-0.485743;-9.957133
376;-0.455818;-0.5618091;0.4498141;1.7474502;-9.639226;-0.44956142;0.001065233;0.002130466;0.0014646954;1.7964116;-0.485743;-9.957133
377;-0.455818;-0.5618091;0.4498141;1.7474502;-9.639226;-0.44956142;0.001065233;0.002130466;0.0014646954;1.7964116;-0.485743;-9.957133
378;-0.45566943;-0.5615039;0.45008856;1.7417839;-9.63998;-0.45535603;0.001065233;0.002130466;0.0014646954;1.8083757;-0.41336012;-9.961321
379;-0.45566943;-0.5615039;0.45008856;1.7417839;-9.63998;-0.45535603;0.001065233;0.002130466;0.0014646954;1.8083757;-0.41336012;-9.961321
380;-0.45566943;-0.5615039;0.45008856;1.7417839;-9.63998;-0.45535603;0.0015978495;0.0011983871;0.00039946238;1.8083757;-0.41336012;-9.961321
381;-0.45566943;-0.5615039;0.45008856;1.7417839;-9.63998;-0.45535603;0.0015978495;0.0011983871;0.00039946238;1.8083757;-0.41336012;-9.961321
382;-0.45566943;-0.5615039;0.45008856;1.7417839;-9.63998;-0.45535603;0.0015978495;0.0011983871;0.00039946238;1.8083757;-0.41336012;-9.961321
383;-0.45566943;-0.5615039;0.45008856;1.7417839;-9.63998;-0.45535603;0.0015978495;0.0011983871;0.00039946238;1.8083757;-0.41336012;-9.961321
384;-0.45595017;-0.56153905;0.4501127;1.7445991;-9.640107;-0.44169122;0.0015978495;0.0011983871;0.00039946238;1.8041883;-0.43968117;-9.958928
385;-0.45595017;-0.56153905;0.4501127;1.7445991;-9.640107;-0.44169122;0.0015978495;0.0011983871;0.00039946238;1.8041883;-0.43968117;-9.958928
386;-0.45595017;-0.56153905;0.4501127;1.7445991;-9.640107;-0.44169122;-0.0013315412;-0.012250179;0.00026630826;1.8041883;-0.43968117;-9.958928
387;-0.45595017;-0.56153905;0.4501127;1.7445991;-9.640107;-0.44169122;-0.0013315412;-0.012250179;0.00026630826;1.8041883;-0.43968117;-9.958928
388;-0.45595017;-0.56153905;0.4501127;1.7445991;-9.640107;-0.44169122;-0.0013315412;-0.012250179;0.00026630826;1.8041883;-0.43968117;-9.958928
389;-0.45595017;-0.56153905;0.4501127;1.7445991;-9.640107;-0.44169122;-0.0013315412;-0.012250179;0.00026630826;1.8041883;-0.43968117;-9.958928
390;-0.45558092;-0.5612183;0.45035568;1.7425137;-9.640607;-0.43903032;-0.0013315412;-0.012250179;0.00026630826;1.80359;-0.47198427;-9.962517
391;-0.45558092;-0.5612183;0.45035568;1.7425137;-9.640607;-0.43903032;-0.0013315412;-0.012250179;0.00026630826;1.80359;-0.47198427;-9.962517
392;-0.45558092;-0.5612183;0.45035568;1.7425137;-9.640607;-0.43903032;-0.007190323;0.009587097;0.0017310036;1.80359;-0.47198427;-9.962517
393;-0.45558092;-0.5612183;0.45035568;1.7425137;-9.640607;-0.43903032;-0.007190323;0.009587097;0.0017310036;1.80359;-0.47198427;-9.962517
394;-0.45558092;-0.5612183;0.45035568;1.7425137;-9.640607;-0.43903032;-0.007190323;0.009587097;0.0017310036;1.80359;-0.47198427;-9.962517
395;-0.45558092;-0.5612183;0.45035568;1.7425137;-9.640607;-0.43903032;-0.007190323;0.009587097;0.0017310036;1.80359;-0.47198427;-9.962517
396;-0.45558214;-0.56109643;0.4504778;1.7452075;-9.639676;-0.4486608;-0.007190323;0.009587097;0.0017310036;1.7934206;-0.47377887;-9.957731
397;-0.45558214;-0.56109643;0.4504778;1.7452075;-9.639676;-0.4486608;-0.007190323;0.009587097;0.0017310036;1.7934206;-0.47377887;-9.957731
398;-0.45558214;-0.56109643;0.4504778;1.7452075;-9.639676;-0.4486608;-0.0035951615;-0.0015978495;0.00013315413;1.7934206;-0.47377887;-9.957731
399;-0.45558214;-0.56109643;0.4504778;1.7452075;-9.639676;-0.4486608;-0.0035951615;-0.0015978495;0.00013315413;1.7934206;-0.47377887;-9.957731
400;-0.45558214;-0.56109643;0.4504778;1.7452075;-9.639676;-0.4486608;-0.0035951615;-0.0015978495;0.00013315413;1.7934206;-0.47377887;-9.957731
401;-0.45558214;-0.56109643;0.4504778;1.7452075;-9.639676;-0.4486608;-0.0035951615;-0.0015978495;0.00013315413;1.7934206;-0.47377887;-9.957731
402;-0.45571256;-0.561428;0.45017365;1.7395437;-9.640376;-0.45554295;-0.0035951615;-0.0015978495;0.00013315413;1.7904296;-0.49292147;-9.965508
403;-0.45571256;-0.561428;0.45017365;1.7395437;-9.640376;-0.45554295;-0.0035951615;-0.0015978495;0.00013315413;1.7904296;-0.49292147;-9.965508
404;-0.45571256;-0.561428;0.45017365;1.7395437;-9.640376;-0.45554295;-0.00039946238;-0.002130466;-0.0017310036;1.7904296;-0.49292147;-9.965508
405;-0.45571256;-0.561428;0.45017365;1.7395437;-9.640376;-0.45554295;-0.00039946238;-0.002130466;-0.0017310036;1.7904296;-0.49292147;-9.965508
406;-0.45571256;-0.561428;0.45017365;1.7395437;-9.640376;-0.45554295;-0.00039946238;-0.002130466;-0.0017310036;1.7904296;-0.49292147;-9.965508
407;-0.45571256;-0.561428;0.45017365;1.7395437;-9.640376;-0.45554295;-0.00039946238;-0.002130466;-0.0017310036;1.7904296;-0.49292147;-9.965508
408;-0.4560163;-0.5614939;0.45017198;1.7429131;-9.639289;-0.465557;-0.00039946238;-0.002130466;-0.0017310036;1.797608;-0.4660022;-9.963714
409;-0.4560163;-0.5614939;0.45017198;1.7429131;-9.639289;-0.465557;-0.00039946238;-0.002130466;-0.0017310036;1.797608;-0.4660022;-9.963714
410;-0.4560163;-0.5614939;0.45017198;1.7429131;-9.639289;-0.465557;-0.0025299285;0.003195699;0.0014646954;1.797608;-0.4660022;-9.963714
411;-0.4560163;-0.5614939;0.45017198;1.7429131;-9.639289;-0.465557;-0.0025299285;0.003195699;0.0014646954;1.797608;-0.4660022;-9.963714
412;-0.4560163;-0.5614939;0.45017198;1.7429131;-9.639289;-0.465557;-0.0025299285;0.003195699;0.0014646954;1.797608;-0.4660022;-9.963714
413;-0.4560163;-0.5614939;0.45017198;1.7429131;-9.639289;-0.465557;-0.0025299285;0.003195699;0.0014646954;1.797608;-0.4660022;-9.963714
414;-0.45613593;-0.56185126;0.44983917;1.7379005;-9.640401;-0.4612456;-0.0025299285;0.003195699;0.0014646954;1.8095721;-0.48095736;-9.954741
415;-0.45613593;-0.56185126;0.44983917;1.7379005;-9.640401;-0.4612456;-0.0025299285;0.003195699;0.0014646954;1.8095721;-0.48095736;-9.954741
416;-0.45613593;-0.56185126;0.44983917;1.7379005;-9.640401;-0.4612456;0.001065233;-0.003195699;-0.00026630826;1.8095721;-0.48095736;-9.954741
417;-0.45613593;-0.56185126;0.44983917;1.7379005;-9.640401;-0.4612456;0.001065233;-0.003195699;-0.00026630826;1.8095721;-0.48095736;-9.954741
418;-0.45613593;-0.56185126;0.44983917;1.7379005;-9.640401;-0.4612456;0.001065233;-0.003195699;-0.00026630826;1.8095721;-0.48095736;-9.954741
419;-0.45613593;-0.56185126;0.44983917;1.7379005;-9.640401;-0.4612456;0.001065233;-0.003195699;-0.00026630826;1.8095721;-0.48095736;-9.954741
420;-0.45618325;-0.56161714;0.45008382;1.7405591;-9.639871;-0.46233705;0.001065233;-0.003195699;-0.00026630826;1.7814565;-0.4881358;-9.955936
421;-0.45618325;-0.56161714;0.45008382;1.7405591;-9.639871;-0.46233705;0.001065233;-0.003195699;-0.00026630826;1.7814565;-0.4881358;-9.955936
422;-0.45618325;-0.56161714;0.45008382;1.7405591;-9.639871;-0.46233705;-0.0026630824;0.009587097;-0.0014646954;1.7814565;-0.4881358;-9.955936
423;-0.45618325;-0.56161714;0.45008382;1.7405591;-9.639871;-0.46233705;-0.0026630824;0.009587097;-0.0014646954;1.7814565;-0.4881358;-9.955936
424;-0.45618325;-0.56161714;0.45008382;1.7405591;-9.639871;-0.46233705;-0.0026630824;0.009587097;-0.0014646954;1.7814565;-0.4881358;-9.955936
425;-0.45618325;-0.56161714;0.45008382;1.7405591;-9.639871;-0.46233705;-0.0026630824;0.009587097;-0.0014646954;1.7814565;-0.4881358;-9.955936
426;-0.45613274;-0.56170774;0.44998237;1.7419941;-9.639395;-0.4668174;-0.0026630824;0.009587097;-0.0014646954;1.8000008;-0.47018966;-9.961321
427;-0.45613274;-0.56170774;0.44998237;1.7419941;-9.639395;-0.4668174;0.0015978495;-0.0077229394;0.00079892477;1.8000008;-0.47018966;-9.961321
428;-0.45613274;-0.56170774;0.44998237;1.7419941;-9.639395;-0.4668174;0.0015978495;-0.0077229394;0.00079892477;1.8000008;-0.47018966;-9.961321
429;-0.45613274;-0.56170774;0.44998237;1.7419941;-9.639395;-0.4668174;0.0015978495;-0.0077229394;0.00079892477;1.8000008;-0.47018966;-9.961321
430;-0.45613274;-0.56170774;0.44998237;1.7419941;-9.639395;-0.4668174;0.0015978495;-0.0077229394;0.00079892477;1.8000008;-0.47018966;-9.961321
431;-0.45613274;-0.56170774;0.44998237;1.7419941;-9.639395;-0.4668174;0.0015978495;-0.0077229394;0.00079892477;1.8000008;-0.47018966;-9.961321
432;-0.45618823;-0.561866;0.4498355;1.7367792;-9.640318;-0.46718332;0.0015978495;-0.0077229394;0.00079892477;1.8000008;-0.47916272;-9.958928
433;-0.45618823;-0.561866;0.4498355;1.7367792;-9.640318;-0.46718332;0.0015978495;-0.0077229394;0.00079892477;1.8000008;-0.47916272;-9.958928
434;-0.45618823;-0.561866;0.4498355;1.7367792;-9.640318;-0.46718332;0.0034620073;-0.0059919357;0.0005326165;1.8000008;-0.47916272;-9.958928
435;-0.45618823;-0.561866;0.4498355;1.7367792;-9.640318;-0.46718332;0.0034620073;-0.0059919357;0.0005326165;1.8000008;-0.47916272;-9.958928
436;-0.45618823;-0.561866;0.4498355;1.7367792;-9.640318;-0.46718332;0.0034620073;-0.0059919357;0.0005326165;1.8000008;-0.47916272;-9.958928
437;-0.45618823;-0.561866;0.4498355;1.7367792;-9.640318;-0.46718332;0.0034620073;-0.0059919357;0.0005326165;1.8000008;-0.47916272;-9.958928
438;-0.45634064;-0.5617588;0.44997522;1.7359085;-9.640802;-0.46038377;0.0034620073;-0.0059919357;0.0005326165;1.8107685;-0.485743;-9.958329
439;-0.45634064;-0.5617588;0.44997522;1.7359085;-9.640802;-0.46038377;-0.00013315413;0.013049104;-0.0005326165;1.8107685;-0.485743;-9.958329
440;-0.45634064;-0.5617588;0.44997522;1.7359085;-9.640802;-0.46038377;-0.00013315413;0.013049104;-0.0005326165;1.8107685;-0.485743;-9.958329
441;-0.45634064;-0.5617588;0.44997522;1.7359085;-9.640802;-0.46038377;-0.00013315413;0.013049104;-0.0005326165;1.8107685;-0.485743;-9.958329
442;-0.45634064;-0.5617588;0.44997522;1.7359085;-9.640802;-0.46038377;-0.00013315413;0.013049104;-0.0005326165;1.8107685;-0.485743;-9.958329
443;-0.45634064;-0.5617588;0.44997522;1.7359085;-9.640802;-0.46038377;-0.00013315413;0.013049104;-0.0005326165;1.8107685;-0.485743;-9.958329
444;-0.45622018;-0.56154805;0.45016086;1.7468338;-9.638912;-0.45861346;-0.00013315413;0.013049104;-0.0005326165;1.7910278;-0.44805604;-9.957731
445;-0.45622018;-0.56154805;0.45016086;1.7468338;-9.638912;-0.45861346;0.0027962367;-0.0029293909;0.0;1.7910278;-0.44805604;-9.957731
446;-0.45622018;-0.56154805;0.45016086;1.7468338;-9.638912;-0.45861346;0.0027962367;-0.0029293909;0.0;1.7910278;-0.44805604;-9.957731
447;-0.45622018;-0.56154805;0.45016086;1.7468338;-9.638912;-0.45861346;0.0027962367;-0.0029293909;0.0;1.7910278;-0.44805604;-9.957731
448;-0.45622018;-0.56154805;0.45016086;1.7468338;-9.638912;-0.45861346;0.0027962367;-0.0029293909;0.0;1.7910278;-0.44805604;-9.957731
449;-0.45622018;-0.56154805;0.45016086;1.7468338;-9.638912;-0.45861346;0.0027962367;-0.0029293909;0.0;1.7910278;-0.44805604;-9.957731
450;-0.45587936;-0.5617444;0.44989198;1.7408136;-9.640317;-0.45191818;0.0027962367;-0.0029293909;0.0;1.7814565;-0.4534399;-9.963116
451;-0.45587936;-0.5617444;0.44989198;1.7408136;-9.640317;-0.45191818;0.00039946238;0.0014646954;-0.00039946238;1.7814565;-0.4534399;-9.963116
452;-0.45587936;-0.5617444;0.44989198;1.7408136;-9.640317;-0.45191818;0.00039946238;0.0014646954;-0.00039946238;1.7814565;-0.4534399;-9.963116
453;-0.45587936;-0.5617444;0.44989198;1.7408136;-9.640317;-0.45191818;0.00039946238;0.0014646954;-0.00039946238;1.7814565;-0.4534399;-9.963116
454;-0.45587936;-0.5617444;0.44989198;1.7408136;-9.640317;-0.45191818;0.00039946238;0.0014646954;-0.00039946238;1.7814565;-0.4534399;-9.963116
455;-0.45587936;-0.5617444;0.44989198;1.7408136;-9.640317;-0.45191818;0.00039946238;0.0014646954;-0.00039946238;1.7814565;-0.4534399;-9.963116
456;-0.45590392;-0.56142056;0.45022157;1.7366558;-9.641421;-0.44430625;0.00039946238;0.0014646954;-0.00039946238;1.8143578;-0.465404;-9.954741
457;-0.45590392;-0.56142056;0.45022157;1.7366558;-9.641421;-0.44430625;-0.004394086;0.0037283157;-0.0015978495;1.8143578;-0.465404;-9.954741
458;-0.45590392;-0.56142056;0.45022157;1.7366558;-9.641421;-0.44430625;-0.004394086;0.0037283157;-0.0015978495;1.8143578;-0.465404;-9.954741
459;-0.45590392;-0.56142056;0.45022157;1.7366558;-9.641421;-0.44430625;-0.004394086;0.0037283157;-0.0015978495;1.8143578;-0.465404;-9.954741
460;-0.45590392;-0.56142056;0.45022157;1.7366558;-9.641421;-0.44430625;-0.004394086;0.0037283157;-0.0015978495;1.8143578;-0.465404;-9.954741
461;-0.45590392;-0.56142056;0.45022157;1.7366558;-9.641421;-0.44430625;-0.004394086;0.0037283157;-0.0015978495;1.8143578;-0.465404;-9.954741
462;-0.45585722;-0.56111276;0.45051965;1.7435493;-9.639859;-0.4511501;-0.004394086;0.0037283157;-0.0015978495;1.8023937;-0.46121657;-9.968499
463;-0.45585722;-0.56111276;0.45051965;1.7435493;-9.639859;-0.4511501;-0.0014646954;-0.0038614697;0.00013315413;1.8023937;-0.46121657;-9.968499
464;-0.45585722;-0.56111276;0.45051965;1.7435493;-9.639859;-0.4511501;-0.0014646954;-0.0038614697;0.00013315413;1.8023937;-0.46121657;-9.968499
465;-0.45585722;-0.56111276;0.45051965;1.7435493;-9.639859;-0.4511501;-0.0014646954;-0.0038614697;0.00013315413;1.8023937;-0.46121657;-9.968499
466;-0.45585722;-0.56111276;0.45051965;1.7435493;-9.639859;-0.4511501;-0.0014646954;-0.0038614697;0.00013315413;1.8023937;-0.46121657;-9.968499
467;-0.45585722;-0.56111276;0.45051965;1.7435493;-9.639859;-0.4511501;-0.0014646954;-0.0038614697;0.00013315413;1.8023937;-0.46121657;-9.968499
468;-0.45581162;-0.5614606;0.45016193;1.7444878;-9.639542;-0.4542996;-0.0014646954;-0.0038614697;0.00013315413;1.7928224;-0.47856453;-9.961321
469;-0.45581162;-0.5614606;0.45016193;1.7444878;-9.639542;-0.4542996;-0.0015978495;0.0018641578;-0.00013315413;1.7928224;-0.47856453;-9.961321
470;-0.45581162;-0.5614606;0.45016193;1.7444878;-9.639542;-0.4542996;-0.0015978495;0.0018641578;-0.00013315413;1.7928224;-0.47856453;-9.961321
471;-0.45581162;-0.5614606;0.45016193;1.7444878;-9.639542;-0.4542996;-0.0015978495;0.0018641578;-0.00013315413;1.7928224;-0.47856453;-9.961321
472;-0.45581162;-0.5614606;0.45016193;1.7444878;-9.639542;-0.4542996;-0.0015978495;0.0018641578;-0.00013315413;1.7928224;-0.47856453;-9.961321
473;-0.45581162;-0.5614606;0.45016193;1.7444878;-9.639542;-0.4542996;-0.0015978495;0.0018641578;-0.00013315413;1.7928224;-0.47856453;-9.961321
474;-0.45585263;-0.5615703;0.45006078;1.7434297;-9.639759;-0.4537508;-0.0015978495;0.0018641578;-0.00013315413;1.797608;-0.4743771;-9.957731
475;-0.45585263;-0.5615703;0.45006078;1.7434297;-9.639759;-0.4537508;0.001065233;-0.0015978495;-0.0022636203;1.797608;-0.4743771;-9.957731
476;-0.45585263;-0.5615703;0.45006078;1.7434297;-9.639759;-0.4537508;0.001065233;-0.0015978495;-0.0022636203;1.797608;-0.4743771;-9.957731
477;-0.45585263;-0.5615703;0.45006078;1.7434297;-9.639759;-0.4537508;0.001065233;-0.0015978495;-0.0022636203;1.797608;-0.4743771;-9.957731
478;-0.45585263;-0.5615703;0.45006078;1.7434297;-9.639759;-0.4537508;0.001065233;-0.0015978495;-0.0022636203;1.797608;-0.4743771;-9.957731
479;-0.45585263;-0.5615703;0.45006078;1.7434297;-9.639759;-0.4537508;0.001065233;-0.0015978495;-0.0022636203;1.797608;-0.4743771;-9.957731
480;-0.4558703;-0.56153107;0.45010385;1.7434818;-9.639524;-0.458534;0.001065233;-0.0015978495;-0.0022636203;1.8167506;-0.46899325;-9.952946
481;-0.4558703;-0.56153107;0.45010385;1.7434818;-9.639524;-0.458534;-0.0005326165;0.0009320789;0.0006657706;1.8167506;-0.46899325;-9.952946
482;-0.4558703;-0.56153107;0.45010385;1.7434818;-9.639524;-0.458534;-0.0005326165;0.0009320789;0.0006657706;1.8167506;-0.46899325;-9.952946
483;-0.4558703;-0.56153107;0.45010385;1.7434818;-9.639524;-0.458534;-0.0005326165;0.0009320789;0.0006657706;1.8167506;-0.46899325;-9.952946
484;-0.4558703;-0.56153107;0.45010385;1.7434818;-9.639524;-0.458534;-0.0005326165;0.0009320789;0.0006657706;1.8167506;-0.46899325;-9.952946
485;-0.4559707;-0.56166667;0.44998923;1.7465949;-9.639132;-0.45490715;-0.0005326165;0.0009320789;0.0006657706;1.8167506;-0.46899325;-9.952946
486;-0.4559707;-0.56166667;0.44998923;1.7465949;-9.639132;-0.45490715;-0.0005326165;0.0009320789;0.0006657706;1.7952151;-0.4851448;-9.963116
487;-0.4559707;-0.56166667;0.44998923;1.7465949;-9.639132;-0.45490715;0.0018641578;-0.00026630826;-0.0009320789;1.7952151;-0.4851448;-9.963116
488;-0.4559707;-0.56166667;0.44998923;1.7465949;-9.639132;-0.45490715;0.0018641578;-0.00026630826;-0.0009320789;1.7952151;-0.4851448;-9.963116
489;-0.4559707;-0.56166667;0.44998923;1.7465949;-9.639132;-0.45490715;0.0018641578;-0.00026630826;-0.0009320789;1.7952151;-0.4851448;-9.963116
490;-0.4559707;-0.56166667;0.44998923;1.7465949;-9.639132;-0.45490715;0.0018641578;-0.00026630826;-0.0009320789;1.7952151;-0.4851448;-9.963116
491;-0.4559707;-0.56166667;0.44998923;1.7465949;-9.639132;-0.45490715;0.0018641578;-0.00026630826;-0.0009320789;1.7952151;-0.4851448;-9.963116
492;-0.45580706;-0.56163484;0.44998646;1.747766;-9.638674;-0.4600609;0.0018641578;-0.00026630826;-0.0009320789;1.8065811;-0.4438686;-9.953544
493;-0.45580706;-0.56163484;0.44998646;1.747766;-9.638674;-0.4600609;0.001065233;-0.0018641578;0.00013315413;1.8065811;-0.4438686;-9.953544
494;-0.45580706;-0.56163484;0.44998646;1.747766;-9.638674;-0.4600609;0.001065233;-0.0018641578;0.00013315413;1.8065811;-0.4438686;-9.953544
495;-0.45580706;-0.56163484;0.44998646;1.747766;-9.638674;-0.4600609;0.001065233;-0.0018641578;0.00013315413;1.8065811;-0.4438686;-9.953544
496;-0.45580706;-0.56163484;0.44998646;1.747766;-9.638674;-0.4600609;0.001065233;-0.0018641578;0.00013315413;1.8065811;-0.4438686;-9.953544
497;-0.45580706;-0.56163484;0.44998646;1.747766;-9.638674;-0.4600609;0.001065233;-0.0018641578;0.00013315413;1.8065811;-0.4438686;-9.953544
498;-0.4558843;-0.5618061;0.4498312;1.7458265;-9.639665;-0.4464767;0.001065233;-0.0018641578;0.00013315413;1.8005991;-0.485743;-9.962517
499;-0.4558843;-0.5618061;0.4498312;1.7458265;-9.639665;-0.4464767;0.00013315413;-0.00039946238;0.0014646954;1.8005991;-0.485743;-9.962517
500;-0.4558843;-0.5618061;0.4498312;1.7458265;-9.639665;-0.4464767;0.00013315413;-0.00039946238;0.0014646954;1.8005991;-0.485743;-9.962517
501;-0.4558843;-0.5618061;0.4498312;1.7458265;-9.639665;-0.4464767;0.00013315413;-0.00039946238;0.0014646954;1.8005991;-0.485743;-9.962517
502;-0.4558843;-0.5618061;0.4498312;1.7458265;-9.639665;-0.4464767;0.00013315413;-0.00039946238;0.0014646954;1.8005991;-0.485743;-9.962517
503;-0.4558843;-0.5618061;0.4498312;1.7458265;-9.639665;-0.4464767;0.00013315413;-0.00039946238;0.0014646954;1.8005991;-0.485743;-9.962517
504;-0.4556488;-0.56138057;0.45020768;1.7432408;-9.639755;-0.45456395;0.00013315413;-0.00039946238;0.0014646954;1.8089739;-0.46061835;-9.958928
505;-0.4556488;-0.56138057;0.45020768;1.7432408;-9.639755;-0.45456395;0.0006657706;0.0022636203;0.00039946238;1.8089739;-0.46061835;-9.958928
506;-0.4556488;-0.56138057;0.45020768;1.7432408;-9.639755;-0.45456395;0.0006657706;0.0022636203;0.00039946238;1.8089739;-0.46061835;-9.958928
507;-0.4556488;-0.56138057;0.45020768;1.7432408;-9.639755;-0.45456395;0.0006657706;0.0022636203;0.00039946238;1.8089739;-0.46061835;-9.958928
508;-0.4556488;-0.56138057;0.45020768;1.7432408;-9.639755;-0.45456395;0.0006657706;0.0022636203;0.00039946238;1.8089739;-0.46061835;-9.958928
509;-0.4556488;-0.56138057;0.45020768;1.7432408;-9.639755;-0.45456395;0.0006657706;0.0022636203;0.00039946238;1.8089739;-0.46061835;-9.958928
510;-0.45589286;-0.56154966;0.45009;1.7426404;-9.6399;-0.4537711;0.0006657706;0.0022636203;0.00039946238;1.7970098;-0.46181476;-9.962517
511;-0.45589286;-0.56154966;0.45009;1.7426404;-9.6399;-0.4537711;0.0022636203;-0.0015978495;-0.001065233;1.7970098;-0.46181476;-9.962517
512;-0.45589286;-0.56154966;0.45009;1.7426404;-9.6399;-0.4537711;0.0022636203;-0.0015978495;-0.001065233;1.7970098;-0.46181476;-9.962517
513;-0.45589286;-0.56154966;0.45009;1.7426404;-9.6399;-0.4537711;0.0022636203;-0.0015978495;-0.001065233;1.7970098;-0.46181476;-9.962517
514;-0.45589286;-0.56154966;0.45009;1.7426404;-9.6399;-0.4537711;0.0022636203;-0.0015978495;-0.001065233;1.7970098;-0.46181476;-9.962517
515;-0.45589286;-0.56154966;0.45009;1.7426404;-9.6399;-0.4537711;0.0022636203;-0.0015978495;-0.001065233;1.7970098;-0.46181476;-9.962517
516;-0.45589265;-0.56151384;0.4501258;1.7429181;-9.640027;-0.4499771;0.0022636203;-0.0015978495;-0.001065233;1.7886349;-0.44207397;-9.966106
517;-0.45589265;-0.56151384;0.4501258;1.7429181;-9.640027;-0.4499771;0.0037283157;0.001065233;0.001065233;1.7886349;-0.44207397;-9.966106
518;-0.45589265;-0.56151384;0.4501258;1.7429181;-9.640027;-0.4499771;0.0037283157;0.001065233;0.001065233;1.7886349;-0.44207397;-9.966106
519;-0.45589265;-0.56151384;0.4501258;1.7429181;-9.640027;-0.4499771;0.0037283157;0.001065233;0.001065233;1.7886349;-0.44207397;-9.966106
520;-0.45589265;-0.56151384;0.4501258;1.7429181;-9.640027;-0.4499771;0.0037283157;0.001065233;0.001065233;1.7886349;-0.44207397;-9.966106
521;-0.45589265;-0.56151384;0.4501258;1.7429181;-9.640027;-0.4499771;0.0037283157;0.001065233;0.001065233;1.7886349;-0.44207397;-9.966106
522;-0.45580414;-0.5614134;0.45020762;1.742513;-9.640849;-0.4336888;0.0037283157;0.001065233;0.001065233;1.797608;-0.4648058;-9.963116
523;-0.45580414;-0.5614134;0.45020762;1.742513;-9.640849;-0.4336888;-0.00039946238;0.004394086;-0.0015978495;1.797608;-0.4648058;-9.963116
524;-0.45580414;-0.5614134;0.45020762;1.742513;-9.640849;-0.4336888;-0.00039946238;0.004394086;-0.0015978495;1.797608;-0.4648058;-9.963116
525;-0.45580414;-0.5614134;0.45020762;1.742513;-9.640849;-0.4336888;-0.00039946238;0.004394086;-0.0015978495;1.797608;-0.4648058;-9.963116
526;-0.45580414;-0.5614134;0.45020762;1.742513;-9.640849;-0.4336888;-0.00039946238;0.004394086;-0.0015978495;1.797608;-0.4648058;-9.963116
527;-0.45580414;-0.5614134;0.45020762;1.742513;-9.640849;-0.4336888;-0.00039946238;0.004394086;-0.0015978495;1.797608;-0.4648058;-9.963116
528;-0.4554683;-0.56094617;0.450604;1.7423083;-9.64077;-0.43622068;-0.00039946238;0.004394086;-0.0015978495;1.8095721;-0.44925246;-9.958928
529;-0.4554683;-0.56094617;0.450604;1.7423083;-9.64077;-0.43622068;0.0006657706;0.0039946237;-0.0025299285;1.8095721;-0.44925246;-9.958928
530;-0.4554683;-0.56094617;0.450604;1.7423083;-9.64077;-0.43622068;0.0006657706;0.0039946237;-0.0025299285;1.8095721;-0.44925246;-9.958928
531;-0.4554683;-0.56094617;0.450604;1.7423083;-9.64077;-0.43622068;0.0006657706;0.0039946237;-0.0025299285;1.8095721;-0.44925246;-9.958928
532;-0.4554683;-0.56094617;0.450604;1.7423083;-9.64077;-0.43622068;0.0006657706;0.0039946237;-0.0025299285;1.8095721;-0.44925246;-9.958928
533;-0.45552796;-0.5610128;0.45055;1.7483896;-9.639559;-0.43867332;0.0006657706;0.0039946237;-0.0025299285;1.8095721;-0.44925246;-9.958928
534;-0.45552796;-0.5610128;0.45055;1.7483896;-9.639559;-0.43867332;0.0006657706;0.0039946237;-0.0025299285;1.8113668;-0.4211368;-9.961321
535;-0.45552796;-0.5610128;0.45055;1.7483896;-9.639559;-0.43867332;-0.0027962367;-0.0006657706;0.0009320789;1.8113668;-0.4211368;-9.961321
536;-0.45552796;-0.5610128;0.45055;1.7483896;-9.639559;-0.43867332;-0.0027962367;-0.0006657706;0.0009320789;1.8113668;-0.4211368;-9.961321
537;-0.45552796;-0.5610128;0.45055;1.7483896;-9.639559;-0.43867332;-0.0027962367;-0.0006657706;0.0009320789;1.8113668;-0.4211368;-9.961321
538;-0.45552796;-0.5610128;0.45055;1.7483896;-9.639559;-0.43867332;-0.0027962367;-0.0006657706;0.0009320789;1.8113668;-0.4211368;-9.961321
539;-0.4554113;-0.5612189;0.45031923;1.7469426;-9.640069;-0.43317652;-0.0027962367;-0.0006657706;0.0009320789;1.8113668;-0.4211368;-9.961321
540;-0.4554113;-0.5612189;0.45031923;1.7469426;-9.640069;-0.43317652;-0.0027962367;-0.0006657706;0.0009320789;1.7892331;-0.47198427;-9.957731
541;-0.4554113;-0.5612189;0.45031923;1.7469426;-9.640069;-0.43317652;-0.0015978495;-0.010252868;0.00013315413;1.7892331;-0.47198427;-9.957731
542;-0.4554113;-0.5612189;0.45031923;1.7469426;-9.640069;-0.43317652;-0.0015978495;-0.010252868;0.00013315413;1.7892331;-0.47198427;-9.957731
543;-0.4554113;-0.5612189;0.45031923;1.7469426;-9.640069;-0.43317652;-0.0015978495;-0.010252868;0.00013315413;1.7892331;-0.47198427;-9.957731
544;-0.4554113;-0.5612189;0.45031923;1.7469426;-9.640069;-0.43317652;-0.0015978495;-0.010252868;0.00013315413;1.7892331;-0.47198427;-9.957731
545;-0.45533428;-0.5610317;0.4504902;1.7428641;-9.640325;-0.44379103;-0.0015978495;-0.010252868;0.00013315413;1.7892331;-0.47198427;-9.957731
546;-0.45533428;-0.5610317;0.4504902;1.7428641;-9.640325;-0.44379103;-0.0015978495;-0.010252868;0.00013315413;1.8095721;-0.48993045;-9.961321
547;-0.45533428;-0.5610317;0.4504902;1.7428641;-9.640325;-0.44379103;-0.001065233;0.007190323;-0.0006657706;1.8095721;-0.48993045;-9.961321
548;-0.45533428;-0.5610317;0.4504902;1.7428641;-9.640325;-0.44379103;-0.001065233;0.007190323;-0.0006657706;1.8095721;-0.48993045;-9.961321
549;-0.45533428;-0.5610317;0.4504902;1.7428641;-9.640325;-0.44379103;-0.001065233;0.007190323;-0.0006657706;1.8095721;-0.48993045;-9.961321
550;-0.45533428;-0.5610317;0.4504902;1.7428641;-9.640325;-0.44379103;-0.001065233;0.007190323;-0.0006657706;1.8095721;-0.48993045;-9.961321
551;-0.45567387;-0.5612382;0.45035538;1.7463486;-9.639359;-0.45101857;-0.001065233;0.007190323;-0.0006657706;1.8095721;-0.48993045;-9.961321
552;-0.45567387;-0.5612382;0.45035538;1.7463486;-9.639359;-0.45101857;-0.001065233;0.007190323;-0.0006657706;1.8143578;-0.42652065;-9.956535
553;-0.45567387;-0.5612382;0.45035538;1.7463486;-9.639359;-0.45101857;-0.0014646954;0.0030625449;0.0015978495;1.8143578;-0.42652065;-9.956535
554;-0.45567387;-0.5612382;0.45035538;1.7463486;-9.639359;-0.45101857;-0.0014646954;0.0030625449;0.0015978495;1.8143578;-0.42652065;-9.956535
555;-0.45567387;-0.5612382;0.45035538;1.7463486;-9.639359;-0.45101857;-0.0014646954;0.0030625449;0.0015978495;1.8143578;-0.42652065;-9.956535
556;-0.45567387;-0.5612382;0.45035538;1.7463486;-9.639359;-0.45101857;-0.0014646954;0.0030625449;0.0015978495;1.8143578;-0.42652065;-9.956535
557;-0.4557311;-0.56152;0.45008546;1.7473875;-9.639678;-0.44003114;-0.0014646954;0.0030625449;0.0015978495;1.8143578;-0.42652065;-9.956535
558;-0.4557311;-0.56152;0.45008546;1.7473875;-9.639678;-0.44003114;-0.0014646954;0.0030625449;0.0015978495;1.8000008;-0.465404;-9.966106
559;-0.4557311;-0.56152;0.45008546;1.7473875;-9.639678;-0.44003114;0.0033288533;-0.004394086;0.0006657706;1.8000008;-0.465404;-9.966106
560;-0.4557311;-0.56152;0.45008546;1.7473875;-9.639678;-0.44003114;0.0033288533;-0.004394086;0.0006657706;1.8000008;-0.465404;-9.966106
561;-0.4557311;-0.56152;0.45008546;1.7473875;-9.639678;-0.44003114;0.0033288533;-0.004394086;0.0006657706;1.8000008;-0.465404;-9.966106
562;-0.4557311;-0.56152;0.45008546;1.7473875;-9.639678;-0.44003114;0.0033288533;-0.004394086;0.0006657706;1.8000008;-0.465404;-9.966106
563;-0.4554681;-0.56123453;0.45031565;1.7439766;-9.6401825;-0.44250515;0.0033288533;-0.004394086;0.0006657706;1.7826529;-0.4564309;-9.962517
564;-0.4554681;-0.56123453;0.45031565;1.7439766;-9.6401825;-0.44250515;0.0033288533;-0.004394086;0.0006657706;1.7826529;-0.4564309;-9.962517
565;-0.4554681;-0.56123453;0.45031565;1.7439766;-9.6401825;-0.44250515;0.0015978495;0.0005326165;0.0;1.7826529;-0.4564309;-9.962517
566;-0.4554681;-0.56123453;0.45031565;1.7439766;-9.6401825;-0.44250515;0.0015978495;0.0005326165;0.0;1.7826529;-0.4564309;-9.962517
567;-0.4554681;-0.56123453;0.45031565;1.7439766;-9.6401825;-0.44250515;0.0015978495;0.0005326165;0.0;1.7826529;-0.4564309;-9.962517
568;-0.4554681;-0.56123453;0.45031565;1.7439766;-9.6401825;-0.44250515;0.0015978495;0.0005326165;0.0;1.7826529;-0.4564309;-9.962517
569;-0.45561558;-0.56122714;0.45035413;1.7380565;-9.641334;-0.44072145;0.0015978495;0.0005326165;0.0;1.8358932;-0.4426722;-9.945169
570;-0.45561558;-0.56122714;0.45035413;1.7380565;-9.641334;-0.44072145;0.0015978495;0.0005326165;0.0;1.8358932;-0.4426722;-9.945169
571;-0.45561558;-0.56122714;0.45035413;1.7380565;-9.641334;-0.44072145;0.0005326165;0.0034620073;-0.00013315413;1.8358932;-0.4426722;-9.945169
572;-0.45561558;-0.56122714;0.45035413;1.7380565;-9.641334;-0.44072145;0.0005326165;0.0034620073;-0.00013315413;1.8358932;-0.4426722;-9.945169
573;-0.45561558;-0.56122714;0.45035413;1.7380565;-9.641334;-0.44072145;0.0005326165;0.0034620073;-0.00013315413;1.8358932;-0.4426722;-9.945169
574;-0.45561558;-0.56122714;0.45035413;1.7380565;-9.641334;-0.44072145;0.0005326165;0.0034620073;-0.00013315413;1.8358932;-0.4426722;-9.945169
575;-0.45574197;-0.5610435;0.45056453;1.7521019;-9.639069;-0.43460992;0.0005326165;0.0034620073;-0.00013315413;1.7665013;-0.43968117;-9.97508
576;-0.45574197;-0.5610435;0.45056453;1.7521019;-9.639069;-0.43460992;0.0005326165;0.0034620073;-0.00013315413;1.7665013;-0.43968117;-9.97508
577;-0.45574197;-0.5610435;0.45056453;1.7521019;-9.639069;-0.43460992;0.0055924733;-0.011051793;-0.00079892477;1.7665013;-0.43968117;-9.97508
578;-0.45574197;-0.5610435;0.45056453;1.7521019;-9.639069;-0.43460992;0.0055924733;-0.011051793;-0.00079892477;1.7665013;-0.43968117;-9.97508
579;-0.45574197;-0.5610435;0.45056453;1.7521019;-9.639069;-0.43460992;0.0055924733;-0.011051793;-0.00079892477;1.7665013;-0.43968117;-9.97508
580;-0.45574197;-0.5610435;0.45056453;1.7521019;-9.639069;-0.43460992;0.0055924733;-0.011051793;-0.00079892477;1.7665013;-0.43968117;-9.97508
581;-0.4552214;-0.5611884;0.4503097;1.7409512;-9.641268;-0.43062663;0.0055924733;-0.011051793;-0.00079892477;1.8281165;-0.43609193;-9.951151
582;-0.4552214;-0.5611884;0.4503097;1.7409512;-9.641268;-0.43062663;0.0055924733;-0.011051793;-0.00079892477;1.8281165;-0.43609193;-9.951151
583;-0.4552214;-0.5611884;0.4503097;1.7409512;-9.641268;-0.43062663;-0.0054593193;0.009320789;-0.001065233;1.8281165;-0.43609193;-9.951151
584;-0.4552214;-0.5611884;0.4503097;1.7409512;-9.641268;-0.43062663;-0.0054593193;0.009320789;-0.001065233;1.8281165;-0.43609193;-9.951151
585;-0.4552214;-0.5611884;0.4503097;1.7409512;-9.641268;-0.43062663;-0.0054593193;0.009320789;-0.001065233;1.8281165;-0.43609193;-9.951151
586;-0.4552214;-0.5611884;0.4503097;1.7409512;-9.641268;-0.43062663;-0.0054593193;0.009320789;-0.001065233;1.8281165;-0.43609193;-9.951151
587;-0.4554464;-0.56082475;0.45072064;1.7518842;-9.639477;-0.42633322;-0.0054593193;0.009320789;-0.001065233;1.8281165;-0.43609193;-9.951151
588;-0.4554464;-0.56082475;0.45072064;1.7518842;-9.639477;-0.42633322;-0.0054593193;0.009320789;-0.001065233;1.783251;-0.4546363;-9.963714
589;-0.4554464;-0.56082475;0.45072064;1.7518842;-9.639477;-0.42633322;-0.003195699;-0.00838871;0.0014646954;1.783251;-0.4546363;-9.963714
590;-0.4554464;-0.56082475;0.45072064;1.7518842;-9.639477;-0.42633322;-0.003195699;-0.00838871;0.0014646954;1.783251;-0.4546363;-9.963714
591;-0.4554464;-0.56082475;0.45072064;1.7518842;-9.639477;-0.42633322;-0.003195699;-0.00838871;0.0014646954;1.783251;-0.4546363;-9.963714
592;-0.4554464;-0.56082475;0.45072064;1.7518842;-9.639477;-0.42633322;-0.003195699;-0.00838871;0.0014646954;1.783251;-0.4546363;-9.963714
593;-0.45505083;-0.5609507;0.45051137;1.7372152;-9.641549;-0.43933427;-0.003195699;-0.00838871;0.0014646954;1.783251;-0.4546363;-9.963714
594;-0.45505083;-0.5609507;0.45051137;1.7372152;-9.641549;-0.43933427;-0.003195699;-0.00838871;0.0014646954;1.8191434;-0.4438686;-9.9553385
595;-0.45505083;-0.5609507;0.45051137;1.7372152;-9.641549;-0.43933427;-0.0034620073;0.00039946238;0.0;1.8191434;-0.4438686;-9.9553385
596;-0.45505083;-0.5609507;0.45051137;1.7372152;-9.641549;-0.43933427;-0.0034620073;0.00039946238;0.0;1.8191434;-0.4438686;-9.9553385
597;-0.45505083;-0.5609507;0.45051137;1.7372152;-9.641549;-0.43933427;-0.0034620073;0.00039946238;0.0;1.8191434;-0.4438686;-9.9553385
598;-0.45505083;-0.5609507;0.45051137;1.7372152;-9.641549;-0.43933427;-0.0034620073;0.00039946238;0.0;1.8191434;-0.4438686;-9.9553385
599;-0.45573577;-0.5609855;0.4506212;1.7463531;-9.639797;-0.4415315;-0.0034620073;0.00039946238;0.0;1.783251;-0.49292147;-9.961321
600;-0.45573577;-0.5609855;0.4506212;1.7463531;-9.639797;-0.4415315;-0.0034620073;0.00039946238;0.0;1.783251;-0.49292147;-9.961321
601;-0.45573577;-0.5609855;0.4506212;1.7463531;-9.639797;-0.4415315;-0.0047935485;0.0030625449;-0.0009320789;1.783251;-0.49292147;-9.961321
602;-0.45573577;-0.5609855;0.4506212;1.7463531;-9.639797;-0.4415315;-0.0047935485;0.0030625449;-0.0009320789;1.783251;-0.49292147;-9.961321
603;-0.45573577;-0.5609855;0.4506212;1.7463531;-9.639797;-0.4415315;-0.0047935485;0.0030625449;-0.0009320789;1.783251;-0.49292147;-9.961321
604;-0.45573577;-0.5609855;0.4506212;1.7463531;-9.639797;-0.4415315;-0.0047935485;0.0030625449;-0.0009320789;1.783251;-0.49292147;-9.961321
605;-0.4555288;-0.56125337;0.4503096;1.73947;-9.640367;-0.45603284;-0.0047935485;0.0030625449;-0.0009320789;1.8131614;-0.45942193;-9.958928
606;-0.4555288;-0.56125337;0.4503096;1.73947;-9.640367;-0.45603284;-0.0047935485;0.0030625449;-0.0009320789;1.8131614;-0.45942193;-9.958928
607;-0.4555288;-0.56125337;0.4503096;1.73947;-9.640367;-0.45603284;-0.0013315412;-0.00079892477;0.0006657706;1.8131614;-0.45942193;-9.958928
608;-0.4555288;-0.56125337;0.4503096;1.73947;-9.640367;-0.45603284;-0.0013315412;-0.00079892477;0.0006657706;1.8131614;-0.45942193;-9.958928
609;-0.4555288;-0.56125337;0.4503096;1.73947;-9.640367;-0.45603284;-0.0013315412;-0.00079892477;0.0006657706;1.8131614;-0.45942193;-9.958928
610;-0.4555288;-0.56125337;0.4503096;1.73947;-9.640367;-0.45603284;-0.0013315412;-0.00079892477;0.0006657706;1.8131614;-0.45942193;-9.958928
611;-0.4560288;-0.561506;0.45016247;1.7461371;-9.639175;-0.45572215;-0.0013315412;-0.00079892477;0.0006657706;1.7808583;-0.50009996;-9.966106
612;-0.4560288;-0.561506;0.45016247;1.7461371;-9.639175;-0.45572215;-0.0013315412;-0.00079892477;0.0006657706;1.7808583;-0.50009996;-9.966106
613;-0.4560288;-0.561506;0.45016247;1.7461371;-9.639175;-0.45572215;-0.003195699;0.0047935485;0.0005326165;1.7808583;-0.50009996;-9.966106
614;-0.4560288;-0.561506;0.45016247;1.7461371;-9.639175;-0.45572215;-0.003195699;0.0047935485;0.0005326165;1.7808583;-0.50009996;-9.966106
615;-0.4560288;-0.561506;0.45016247;1.7461371;-9.639175;-0.45572215;-0.003195699;0.0047935485;0.0005326165;1.7808583;-0.50009996;-9.966106
616;-0.4560288;-0.561506;0.45016247;1.7461371;-9.639175;-0.45572215;-0.003195699;0.0047935485;0.0005326165;1.7808583;-0.50009996;-9.966106
617;-0.45583713;-0.5616475;0.4499802;1.7387292;-9.640086;-0.46469012;-0.003195699;0.0047935485;0.0005326165;1.8047864;-0.47018966;-9.963116
618;-0.45583713;-0.5616475;0.4499802;1.7387292;-9.640086;-0.46469012;-0.003195699;0.0047935485;0.0005326165;1.8047864;-0.47018966;-9.963116
619;-0.45583713;-0.5616475;0.4499802;1.7387292;-9.640086;-0.46469012;0.0;-0.001065233;-0.0014646954;1.8047864;-0.47018966;-9.963116
620;-0.45583713;-0.5616475;0.4499802;1.7387292;-9.640086;-0.46469012;0.0;-0.001065233;-0.0014646954;1.8047864;-0.47018966;-9.963116
621;-0.45583713;-0.5616475;0.4499802;1.7387292;-9.640086;-0.46469012;0.0;-0.001065233;-0.0014646954;1.8047864;-0.47018966;-9.963116
622;-0.45583713;-0.5616475;0.4499802;1.7387292;-9.640086;-0.46469012;0.0;-0.001065233;-0.0014646954;1.8047864;-0.47018966;-9.963116
623;-0.45623353;-0.56173265;0.44997874;1.7415802;-9.639551;-0.46511847;0.0;-0.001065233;-0.0014646954;1.7904296;-0.46959144;-9.957133
624;-0.45623353;-0.56173265;0.44997874;1.7415802;-9.639551;-0.46511847;0.0;-0.001065233;-0.0014646954;1.7904296;-0.46959144;-9.957133
625;-0.45623353;-0.56173265;0.44997874;1.7415802;-9.639551;-0.46511847;0.004127778;-0.0069240145;0.0014646954;1.7904296;-0.46959144;-9.957133
626;-0.45623353;-0.56173265;0.44997874;1.7415802;-9.639551;-0.46511847;0.004127778;-0.0069240145;0.0014646954;1.7904296;-0.46959144;-9.957133
627;-0.45623353;-0.56173265;0.44997874;1.7415802;-9.639551;-0.46511847;0.004127778;-0.0069240145;0.0014646954;1.7904296;-0.46959144;-9.957133
628;-0.45623353;-0.56173265;0.44997874;1.7415802;-9.639551;-0.46511847;0.004127778;-0.0069240145;0.0014646954;1.7904296;-0.46959144;-9.957133
629;-0.45616356;-0.5618089;0.44988748;1.7371511;-9.640662;-0.45861086;0.004127778;-0.0069240145;0.0014646954;1.8000008;-0.4881358;-9.956535
630;-0.45616356;-0.5618089;0.44988748;1.7371511;-9.640662;-0.45861086;0.004127778;-0.0069240145;0.0014646954;1.8000008;-0.4881358;-9.956535
631;-0.45616356;-0.5618089;0.44988748;1.7371511;-9.640662;-0.45861086;-0.00039946238;0.005193011;-0.00026630826;1.8000008;-0.4881358;-9.956535
632;-0.45616356;-0.5618089;0.44988748;1.7371511;-9.640662;-0.45861086;-0.00039946238;0.005193011;-0.00026630826;1.8000008;-0.4881358;-9.956535
633;-0.45616356;-0.5618089;0.44988748;1.7371511;-9.640662;-0.45861086;-0.00039946238;0.005193011;-0.00026630826;1.8000008;-0.4881358;-9.956535
634;-0.45616356;-0.5618089;0.44988748;1.7371511;-9.640662;-0.45861086;-0.00039946238;0.005193011;-0.00026630826;1.8000008;-0.4881358;-9.956535
635;-0.456148;-0.5615262;0.45016745;1.7383772;-9.640461;-0.45819327;-0.00039946238;0.005193011;-0.00026630826;1.8011973;-0.46899325;-9.952348
636;-0.456148;-0.5615262;0.45016745;1.7383772;-9.640461;-0.45819327;-0.00039946238;0.005193011;-0.00026630826;1.8011973;-0.46899325;-9.952348
637;-0.456148;-0.5615262;0.45016745;1.7383772;-9.640461;-0.45819327;0.0005326165;0.011318101;-0.0014646954;1.8011973;-0.46899325;-9.952348
638;-0.456148;-0.5615262;0.45016745;1.7383772;-9.640461;-0.45819327;0.0005326165;0.011318101;-0.0014646954;1.8011973;-0.46899325;-9.952348
639;-0.456148;-0.5615262;0.45016745;1.7383772;-9.640461;-0.45819327;0.0005326165;0.011318101;-0.0014646954;1.8011973;-0.46899325;-9.952348
640;-0.456148;-0.5615262;0.45016745;1.7383772;-9.640461;-0.45819327;0.0005326165;0.011318101;-0.0014646954;1.8011973;-0.46899325;-9.952348
641;-0.45610508;-0.5615421;0.45014247;1.7441853;-9.6394205;-0.4579964;0.0005326165;0.011318101;-0.0014646954;1.7952151;-0.4426722;-9.965508
642;-0.45610508;-0.5615421;0.45014247;1.7441853;-9.6394205;-0.4579964;0.0005326165;0.011318101;-0.0014646954;1.7952151;-0.4426722;-9.965508
643;-0.45610508;-0.5615421;0.45014247;1.7441853;-9.6394205;-0.4579964;0.0030625449;-0.009187635;0.00039946238;1.7952151;-0.4426722;-9.965508
644;-0.45610508;-0.5615421;0.45014247;1.7441853;-9.6394205;-0.4579964;0.0030625449;-0.009187635;0.00039946238;1.7952151;-0.4426722;-9.965508
645;-0.45610508;-0.5615421;0.45014247;1.7441853;-9.6394205;-0.4579964;0.0030625449;-0.009187635;0.00039946238;1.7952151;-0.4426722;-9.965508
646;-0.45610508;-0.5615421;0.45014247;1.7441853;-9.6394205;-0.4579964;0.0030625449;-0.009187635;0.00039946238;1.7952151;-0.4426722;-9.965508
647;-0.45593974;-0.56166744;0.44998193;1.737741;-9.641128;-0.4464371;0.0030625449;-0.009187635;0.00039946238;1.7952151;-0.48215377;-9.962517
648;-0.45593974;-0.56166744;0.44998193;1.737741;-9.641128;-0.4464371;0.0030625449;-0.009187635;0.00039946238;1.7952151;-0.48215377;-9.962517
649;-0.45593974;-0.56166744;0.44998193;1.737741;-9.641128;-0.4464371;0.0005326165;0.0022636203;-0.0013315412;1.7952151;-0.48215377;-9.962517
650;-0.45593974;-0.56166744;0.44998193;1.737741;-9.641128;-0.4464371;0.0005326165;0.0022636203;-0.0013315412;1.7952151;-0.48215377;-9.962517
651;-0.45593974;-0.56166744;0.44998193;1.737741;-9.641128;-0.4464371;0.0005326165;0.0022636203;-0.0013315412;1.7952151;-0.48215377;-9.962517
652;-0.45593974;-0.56166744;0.44998193;1.737741;-9.641128;-0.4464371;0.0005326165;0.0022636203;-0.0013315412;1.7952151;-0.48215377;-9.962517
653;-0.45587248;-0.56119716;0.45043847;1.7420651;-9.640129;-0.45112038;0.0005326165;0.0022636203;-0.0013315412;1.7886349;-0.45104706;-9.966106
654;-0.45587248;-0.56119716;0.45043847;1.7420651;-9.640129;-0.45112038;0.0005326165;0.0022636203;-0.0013315412;1.7886349;-0.45104706;-9.966106
655;-0.45587248;-0.56119716;0.45043847;1.7420651;-9.640129;-0.45112038;0.004127778;-0.005193011;-0.001065233;1.7886349;-0.45104706;-9.966106
656;-0.45587248;-0.56119716;0.45043847;1.7420651;-9.640129;-0.45112038;0.004127778;-0.005193011;-0.001065233;1.7886349;-0.45104706;-9.966106
657;-0.45587248;-0.56119716;0.45043847;1.7420651;-9.640129;-0.45112038;0.004127778;-0.005193011;-0.001065233;1.7886349;-0.45104706;-9.966106
658;-0.45587248;-0.56119716;0.45043847;1.7420651;-9.640129;-0.45112038;0.004127778;-0.005193011;-0.001065233;1.7886349;-0.45104706;-9.966106
659;-0.45585218;-0.56142634;0.45020485;1.7398092;-9.640947;-0.44224665;0.004127778;-0.005193011;-0.001065233;1.8263218;-0.46002015;-9.951151
660;-0.45585218;-0.56142634;0.45020485;1.7398092;-9.640947;-0.44224665;-0.0046603945;0.009587097;-0.00013315413;1.8263218;-0.46002015;-9.951151
661;-0.45585218;-0.56142634;0.45020485;1.7398092;-9.640947;-0.44224665;-0.0046603945;0.009587097;-0.00013315413;1.8263218;-0.46002015;-9.951151
662;-0.45585218;-0.56142634;0.45020485;1.7398092;-9.640947;-0.44224665;-0.0046603945;0.009587097;-0.00013315413;1.8263218;-0.46002015;-9.951151
663;-0.45585218;-0.56142634;0.45020485;1.7398092;-9.640947;-0.44224665;-0.0046603945;0.009587097;-0.00013315413;1.8263218;-0.46002015;-9.951151
664;-0.45585218;-0.56142634;0.45020485;1.7398092;-9.640947;-0.44224665;-0.0046603945;0.009587097;-0.00013315413;1.8263218;-0.46002015;-9.951151
665;-0.4557258;-0.56112593;0.4504787;1.7486565;-9.639334;-0.4425401;-0.0046603945;0.009587097;-0.00013315413;1.7946169;-0.46660042;-9.962517
666;-0.4557258;-0.56112593;0.4504787;1.7486565;-9.639334;-0.4425401;0.0014646954;-0.0019973118;-0.00026630826;1.7946169;-0.46660042;-9.962517
667;-0.4557258;-0.56112593;0.4504787;1.7486565;-9.639334;-0.4425401;0.0014646954;-0.0019973118;-0.00026630826;1.7946169;-0.46660042;-9.962517
668;-0.4557258;-0.56112593;0.4504787;1.7486565;-9.639334;-0.4425401;0.0014646954;-0.0019973118;-0.00026630826;1.7946169;-0.46660042;-9.962517
669;-0.4557258;-0.56112593;0.4504787;1.7486565;-9.639334;-0.4425401;0.0014646954;-0.0019973118;-0.00026630826;1.7946169;-0.46660042;-9.962517
670;-0.4557258;-0.56112593;0.4504787;1.7486565;-9.639334;-0.4425401;0.0014646954;-0.0019973118;-0.00026630826;1.7946169;-0.46660042;-9.962517
671;-0.4554863;-0.56133366;0.4502203;1.745197;-9.639586;-0.45060608;0.0014646954;-0.0019973118;-0.00026630826;1.7862421;-0.46181476;-9.961321
672;-0.4554863;-0.56133366;0.4502203;1.745197;-9.639586;-0.45060608;-0.0006657706;0.0047935485;0.0;1.7862421;-0.46181476;-9.961321
673;-0.4554863;-0.56133366;0.4502203;1.745197;-9.639586;-0.45060608;-0.0006657706;0.0047935485;0.0;1.7862421;-0.46181476;-9.961321
674;-0.4554863;-0.56133366;0.4502203;1.745197;-9.639586;-0.45060608;-0.0006657706;0.0047935485;0.0;1.7862421;-0.46181476;-9.961321
675;-0.4554863;-0.56133366;0.4502203;1.745197;-9.639586;-0.45060608;-0.0006657706;0.0047935485;0.0;1.7862421;-0.46181476;-9.961321
676;-0.4554863;-0.56133366;0.4502203;1.745197;-9.639586;-0.45060608;-0.0006657706;0.0047935485;0.0;1.7862421;-0.46181476;-9.961321
677;-0.45575428;-0.5614825;0.45012796;1.7402532;-9.640595;-0.44812483;-0.0006657706;0.0047935485;0.0;1.811965;-0.4534399;-9.956535
678;-0.45575428;-0.5614825;0.45012796;1.7402532;-9.640595;-0.44812483;-0.0006657706;-0.006391398;0.0013315412;1.811965;-0.4534399;-9.956535
679;-0.45575428;-0.5614825;0.45012796;1.7402532;-9.640595;-0.44812483;-0.0006657706;-0.006391398;0.0013315412;1.811965;-0.4534399;-9.956535
680;-0.45575428;-0.5614825;0.45012796;1.7402532;-9.640595;-0.44812483;-0.0006657706;-0.006391398;0.0013315412;1.811965;-0.4534399;-9.956535
681;-0.45575428;-0.5614825;0.45012796;1.7402532;-9.640595;-0.44812483;-0.0006657706;-0.006391398;0.0013315412;1.811965;-0.4534399;-9.956535
682;-0.45575428;-0.5614825;0.45012796;1.7402532;-9.640595;-0.44812483;-0.0006657706;-0.006391398;0.0013315412;1.811965;-0.4534399;-9.956535
683;-0.45583868;-0.56130123;0.4503272;1.742495;-9.64031;-0.44555816;-0.0006657706;-0.006391398;0.0013315412;1.8047864;-0.4743771;-9.960124
684;-0.45583868;-0.56130123;0.4503272;1.742495;-9.64031;-0.44555816;0.0;0.0006657706;0.0009320789;1.8047864;-0.4743771;-9.960124
685;-0.45583868;-0.56130123;0.4503272;1.742495;-9.64031;-0.44555816;0.0;0.0006657706;0.0009320789;1.8047864;-0.4743771;-9.960124
686;-0.45583868;-0.56130123;0.4503272;1.742495;-9.64031;-0.44555816;0.0;0.0006657706;0.0009320789;1.8047864;-0.4743771;-9.960124
687;-0.45583868;-0.56130123;0.4503272;1.742495;-9.64031;-0.44555816;0.0;0.0006657706;0.0009320789;1.8047864;-0.4743771;-9.960124
688;-0.45583868;-0.56130123;0.4503272;1.742495;-9.64031;-0.44555816;0.0;0.0006657706;0.0009320789;1.8047864;-0.4743771;-9.960124
689;-0.45572177;-0.5612796;0.45032412;1.7423217;-9.640045;-0.45189673;0.0;0.0006657706;0.0009320789;1.8023937;-0.45104706;-9.954143
690;-0.45572177;-0.5612796;0.45032412;1.7423217;-9.640045;-0.45189673;-0.001065233;0.0026630824;-0.00039946238;1.8023937;-0.45104706;-9.954143
691;-0.45572177;-0.5612796;0.45032412;1.7423217;-9.640045;-0.45189673;-0.001065233;0.0026630824;-0.00039946238;1.8023937;-0.45104706;-9.954143
692;-0.45572177;-0.5612796;0.45032412;1.7423217;-9.640045;-0.45189673;-0.001065233;0.0026630824;-0.00039946238;1.8023937;-0.45104706;-9.954143
693;-0.45572177;-0.5612796;0.45032412;1.7423217;-9.640045;-0.45189673;-0.001065233;0.0026630824;-0.00039946238;1.8023937;-0.45104706;-9.954143
694;-0.45572177;-0.5612796;0.45032412;1.7423217;-9.640045;-0.45189673;-0.001065233;0.0026630824;-0.00039946238;1.8023937;-0.45104706;-9.954143
695;-0.4558616;-0.56145394;0.4501792;1.7425145;-9.640259;-0.44659978;-0.001065233;0.0026630824;-0.00039946238;1.7904296;-0.45583272;-9.963116
696;-0.4558616;-0.56145394;0.4501792;1.7425145;-9.640259;-0.44659978;-0.0033288533;-0.0022636203;0.0014646954;1.7904296;-0.45583272;-9.963116
697;-0.4558616;-0.56145394;0.4501792;1.7425145;-9.640259;-0.44659978;-0.0033288533;-0.0022636203;0.0014646954;1.7904296;-0.45583272;-9.963116
698;-0.4558616;-0.56145394;0.4501792;1.7425145;-9.640259;-0.44659978;-0.0033288533;-0.0022636203;0.0014646954;1.7904296;-0.45583272;-9.963116
699;-0.4558616;-0.56145394;0.4501792;1.7425145;-9.640259;-0.44659978;-0.0033288533;-0.0022636203;0.0014646954;1.7904296;-0.45583272;-9.963116
700;-0.4558616;-0.56145394;0.4501792;1.7425145;-9.640259;-0.44659978;-0.0033288533;-0.0022636203;0.0014646954;1.7904296;-0.45583272;-9.963116
701;-0.45574343;-0.56130934;0.45029894;1.7390594;-9.640774;-0.44894898;-0.0033288533;-0.0022636203;0.0014646954;1.8065811;-0.48215377;-9.957133
702;-0.45574343;-0.56130934;0.45029894;1.7390594;-9.640774;-0.44894898;-0.005326165;0.00026630826;-0.0006657706;1.8065811;-0.48215377;-9.957133
703;-0.45574343;-0.56130934;0.45029894;1.7390594;-9.640774;-0.44894898;-0.005326165;0.00026630826;-0.0006657706;1.8065811;-0.48215377;-9.957133
704;-0.45574343;-0.56130934;0.45029894;1.7390594;-9.640774;-0.44894898;-0.005326165;0.00026630826;-0.0006657706;1.8065811;-0.48215377;-9.957133
705;-0.45574343;-0.56130934;0.45029894;1.7390594;-9.640774;-0.44894898;-0.005326165;0.00026630826;-0.0006657706;1.8065811;-0.48215377;-9.957133
706;-0.45574343;-0.56130934;0.45029894;1.7390594;-9.640774;-0.44894898;-0.005326165;0.00026630826;-0.0006657706;1.8065811;-0.48215377;-9.957133
707;-0.45588937;-0.56129754;0.45034164;1.7450349;-9.639171;-0.46001342;-0.005326165;0.00026630826;-0.0006657706;1.7886349;-0.48993045;-9.961321
708;-0.45588937;-0.56129754;0.45034164;1.7450349;-9.639171;-0.46001342;-0.0013315412;0.0005326165;-0.0013315412;1.7886349;-0.48993045;-9.961321
709;-0.45588937;-0.56129754;0.45034164;1.7450349;-9.639171;-0.46001342;-0.0013315412;0.0005326165;-0.0013315412;1.7886349;-0.48993045;-9.961321
710;-0.45588937;-0.56129754;0.45034164;1.7450349;-9.639171;-0.46001342;-0.0013315412;0.0005326165;-0.0013315412;1.7886349;-0.48993045;-9.961321
711;-0.45588937;-0.56129754;0.45034164;1.7450349;-9.639171;-0.46001342;-0.0013315412;0.0005326165;-0.0013315412;1.7886349;-0.48993045;-9.961321
712;-0.45588937;-0.56129754;0.45034164;1.7450349;-9.639171;-0.46001342;-0.0013315412;0.0005326165;-0.0013315412;1.7886349;-0.48993045;-9.961321
713;-0.45595908;-0.56174326;0.44991;1.7411243;-9.639676;-0.46423712;-0.0013315412;0.0005326165;-0.0013315412;1.8071793;-0.48095736;-9.957731
714;-0.45595908;-0.56174326;0.44991;1.7411243;-9.639676;-0.46423712;0.0011983871;-0.0047935485;-0.00026630826;1.8071793;-0.48095736;-9.957731
715;-0.45595908;-0.56174326;0.44991;1.7411243;-9.639676;-0.46423712;0.0011983871;-0.0047935485;-0.00026630826;1.8071793;-0.48095736;-9.957731
716;-0.45595908;-0.56174326;0.44991;1.7411243;-9.639676;-0.46423712;0.0011983871;-0.0047935485;-0.00026630826;1.8071793;-0.48095736;-9.957731
717;-0.45595908;-0.56174326;0.44991;1.7411243;-9.639676;-0.46423712;0.0011983871;-0.0047935485;-0.00026630826;1.8071793;-0.48095736;-9.957731
718;-0.45595908;-0.56174326;0.44991;1.7411243;-9.639676;-0.46423712;0.0011983871;-0.0047935485;-0.00026630826;1.8071793;-0.48095736;-9.957731
719;-0.45615748;-0.56177384;0.44992134;1.7420354;-9.639338;-0.46784264;0.0011983871;-0.0047935485;-0.00026630826;1.8065811;-0.47318068;-9.955936
720;-0.45615748;-0.56177384;0.44992134;1.7420354;-9.639338;-0.46784264;0.002130466;-0.0014646954;0.0;1.8065811;-0.47318068;-9.955936
721;-0.45615748;-0.56177384;0.44992134;1.7420354;-9.639338;-0.46784264;0.002130466;-0.0014646954;0.0;1.8065811;-0.47318068;-9.955936
722;-0.45615748;-0.56177384;0.44992134;1.7420354;-9.639338;-0.46784264;0.002130466;-0.0014646954;0.0;1.8065811;-0.47318068;-9.955936
723;-0.45615748;-0.56177384;0.44992134;1.7420354;-9.639338;-0.46784264;0.002130466;-0.0014646954;0.0;1.8065811;-0.47318068;-9.955936
724;-0.45615748;-0.56177384;0.44992134;1.7420354;-9.639338;-0.46784264;0.002130466;-0.0014646954;0.0;1.8065811;-0.47318068;-9.955936
725;-0.45620888;-0.5618957;0.44981006;1.7459186;-9.638758;-0.46530858;0.002130466;-0.0014646954;0.0;1.7910278;-0.50189453;-9.963714
726;-0.45620888;-0.5618957;0.44981006;1.7459186;-9.638758;-0.46530858;0.0013315412;0.0045272405;-0.0014646954;1.7910278;-0.50189453;-9.963714
727;-0.45620888;-0.5618957;0.44981006;1.7459186;-9.638758;-0.46530858;0.0013315412;0.0045272405;-0.0014646954;1.7910278;-0.50189453;-9.963714
728;-0.45620888;-0.5618957;0.44981006;1.7459186;-9.638758;-0.46530858;0.0013315412;0.0045272405;-0.0014646954;1.7910278;-0.50189453;-9.963714
729;-0.45620888;-0.5618957;0.44981006;1.7459186;-9.638758;-0.46530858;0.0013315412;0.0045272405;-0.0014646954;1.7910278;-0.50189453;-9.963714
730;-0.45620888;-0.5618957;0.44981006;1.7459186;-9.638758;-0.46530858;0.0013315412;0.0045272405;-0.0014646954;1.7910278;-0.50189453;-9.963714
731;-0.45604727;-0.56191194;0.44975954;1.7424533;-9.639568;-0.46147412;0.0013315412;0.0045272405;-0.0014646954;1.8083757;-0.4648058;-9.958329
732;-0.45604727;-0.56191194;0.44975954;1.7424533;-9.639568;-0.46147412;0.0019973118;-0.0047935485;0.0019973118;1.8083757;-0.4648058;-9.958329
733;-0.45604727;-0.56191194;0.44975954;1.7424533;-9.639568;-0.46147412;0.0019973118;-0.0047935485;0.0019973118;1.8083757;-0.4648058;-9.958329
734;-0.45604727;-0.56191194;0.44975954;1.7424533;-9.639568;-0.46147412;0.0019973118;-0.0047935485;0.0019973118;1.8083757;-0.4648058;-9.958329
735;-0.45604727;-0.56191194;0.44975954;1.7424533;-9.639568;-0.46147412;0.0019973118;-0.0047935485;0.0019973118;1.8083757;-0.4648058;-9.958329
736;-0.45604727;-0.56191194;0.44975954;1.7424533;-9.639568;-0.46147412;0.0019973118;-0.0047935485;0.0019973118;1.8083757;-0.4648058;-9.958329
737;-0.4560618;-0.56172615;0.4499489;1.7438012;-9.639401;-0.45986614;0.0019973118;-0.0047935485;0.0019973118;1.7898313;-0.47676992;-9.958928
738;-0.4560618;-0.56172615;0.4499489;1.7438012;-9.639401;-0.45986614;0.0;0.006391398;0.0018641578;1.7898313;-0.47676992;-9.958928
739;-0.4560618;-0.56172615;0.4499489;1.7438012;-9.639401;-0.45986614;0.0;0.006391398;0.0018641578;1.7898313;-0.47676992;-9.958928
740;-0.4560618;-0.56172615;0.4499489;1.7438012;-9.639401;-0.45986614;0.0;0.006391398;0.0018641578;1.7898313;-0.47676992;-9.958928
741;-0.4560618;-0.56172615;0.4499489;1.7438012;-9.639401;-0.45986614;0.0;0.006391398;0.0018641578;1.7898313;-0.47676992;-9.958928
742;-0.4560618;-0.56172615;0.4499489;1.7438012;-9.639401;-0.45986614;0.0;0.006391398;0.0018641578;1.7898313;-0.47676992;-9.958928
743;-0.4559902;-0.5617113;0.4499486;1.7377564;-9.640427;-0.46128166;0.0;0.006391398;0.0018641578;1.8071793;-0.45403808;-9.958329
744;-0.4559902;-0.5617113;0.4499486;1.7377564;-9.640427;-0.46128166;0.0037283157;0.0025299285;-0.0013315412;1.8071793;-0.45403808;-9.958329
745;-0.4559902;-0.5617113;0.4499486;1.7377564;-9.640427;-0.46128166;0.0037283157;0.0025299285;-0.0013315412;1.8071793;-0.45403808;-9.958329
746;-0.4559902;-0.5617113;0.4499486;1.7377564;-9.640427;-0.46128166;0.0037283157;0.0025299285;-0.0013315412;1.8071793;-0.45403808;-9.958329
747;-0.4559902;-0.5617113;0.4499486;1.7377564;-9.640427;-0.46128166;0.0037283157;0.0025299285;-0.0013315412;1.8071793;-0.45403808;-9.958329
748;-0.4559902;-0.5617113;0.4499486;1.7377564;-9.640427;-0.46128166;0.0037283157;0.0025299285;-0.0013315412;1.8071793;-0.45403808;-9.958329
749;-0.45618802;-0.56161493;0.45008707;1.742867;-9.640012;-0.45053053;0.0037283157;0.0025299285;-0.0013315412;1.7922242;-0.46899325;-9.961321
750;-0.45618802;-0.56161493;0.45008707;1.742867;-9.640012;-0.45053053;0.0015978495;0.001065233;0.00039946238;1.7922242;-0.46899325;-9.961321
751;-0.45618802;-0.56161493;0.45008707;1.742867;-9.640012;-0.45053053;0.0015978495;0.001065233;0.00039946238;1.7922242;-0.46899325;-9.961321
752;-0.45618802;-0.56161493;0.45008707;1.742867;-9.640012;-0.45053053;0.0015978495;0.001065233;0.00039946238;1.7922242;-0.46899325;-9.961321
753;-0.45618802;-0.56161493;0.45008707;1.742867;-9.640012;-0.45053053;0.0015978495;0.001065233;0.00039946238;1.7922242;-0.46899325;-9.961321
754;-0.45618802;-0.56161493;0.45008707;1.742867;-9.640012;-0.45053053;0.0015978495;0.001065233;0.00039946238;1.7922242;-0.46899325;-9.961321
755;-0.45581737;-0.56142783;0.450196;1.7394756;-9.640895;-0.44471017;0.0015978495;0.001065233;0.00039946238;1.783251;-0.4426722;-9.963714
756;-0.45581737;-0.56142783;0.450196;1.7394756;-9.640895;-0.44471017;-0.001065233;0.0026630824;0.00013315413;1.783251;-0.4426722;-9.963714
757;-0.45581737;-0.56142783;0.450196;1.7394756;-9.640895;-0.44471017;-0.001065233;0.0026630824;0.00013315413;1.783251;-0.4426722;-9.963714
758;-0.45581737;-0.56142783;0.450196;1.7394756;-9.640895;-0.44471017;-0.001065233;0.0026630824;0.00013315413;1.783251;-0.4426722;-9.963714
759;-0.45581737;-0.56142783;0.450196;1.7394756;-9.640895;-0.44471017;-0.001065233;0.0026630824;0.00013315413;1.783251;-0.4426722;-9.963714
760;-0.45578754;-0.5611877;0.45042998;1.737263;-9.641322;-0.4440988;-0.001065233;0.0026630824;0.00013315413;1.783251;-0.4426722;-9.963714
761;-0.45578754;-0.5611877;0.45042998;1.737263;-9.641322;-0.4440988;-0.001065233;0.0026630824;0.00013315413;1.8047864;-0.45762733;-9.954143
762;-0.45578754;-0.5611877;0.45042998;1.737263;-9.641322;-0.4440988;-0.0015978495;-0.00026630826;-0.0015978495;1.8047864;-0.45762733;-9.954143
763;-0.45578754;-0.5611877;0.45042998;1.737263;-9.641322;-0.4440988;-0.0015978495;-0.00026630826;-0.0015978495;1.8047864;-0.45762733;-9.954143
764;-0.45578754;-0.5611877;0.45042998;1.737263;-9.641322;-0.4440988;-0.0015978495;-0.00026630826;-0.0015978495;1.8047864;-0.45762733;-9.954143
765;-0.45578754;-0.5611877;0.45042998;1.737263;-9.641322;-0.4440988;-0.0015978495;-0.00026630826;-0.0015978495;1.8047864;-0.45762733;-9.954143
766;-0.45583594;-0.56112057;0.45050728;1.7393322;-9.640911;-0.4449009;-0.0015978495;-0.00026630826;-0.0015978495;1.8047864;-0.45762733;-9.954143
767;-0.45583594;-0.56112057;0.45050728;1.7393322;-9.640911;-0.4449009;-0.0015978495;-0.00026630826;-0.0015978495;1.8095721;-0.47138608;-9.956535
768;-0.45583594;-0.56112057;0.45050728;1.7393322;-9.640911;-0.4449009;-0.002130466;0.002130466;0.0005326165;1.8095721;-0.47138608;-9.956535
769;-0.45583594;-0.56112057;0.45050728;1.7393322;-9.640911;-0.4449009;-0.002130466;0.002130466;0.0005326165;1.8095721;-0.47138608;-9.956535
770;-0.45583594;-0.56112057;0.45050728;1.7393322;-9.640911;-0.4449009;-0.002130466;0.002130466;0.0005326165;1.8095721;-0.47138608;-9.956535
771;-0.45583594;-0.56112057;0.45050728;1.7393322;-9.640911;-0.4449009;-0.002130466;0.002130466;0.0005326165;1.8095721;-0.47138608;-9.956535
772;-0.4557956;-0.56118983;0.45042953;1.7445117;-9.639819;-0.448259;-0.002130466;0.002130466;0.0005326165;1.8095721;-0.47138608;-9.956535
773;-0.4557956;-0.56118983;0.45042953;1.7445117;-9.639819;-0.448259;-0.002130466;0.002130466;0.0005326165;1.7856439;-0.46839502;-9.958928
774;-0.4557956;-0.56118983;0.45042953;1.7445117;-9.639819;-0.448259;-0.0019973118;-0.0037283157;0.0;1.7856439;-0.46839502;-9.958928
775;-0.4557956;-0.56118983;0.45042953;1.7445117;-9.639819;-0.448259;-0.0019973118;-0.0037283157;0.0;1.7856439;-0.46839502;-9.958928
776;-0.4557956;-0.56118983;0.45042953;1.7445117;-9.639819;-0.448259;-0.0019973118;-0.0037283157;0.0;1.7856439;-0.46839502;-9.958928
777;-0.4557956;-0.56118983;0.45042953;1.7445117;-9.639819;-0.448259;-0.0019973118;-0.0037283157;0.0;1.7856439;-0.46839502;-9.958928
778;-0.45572332;-0.561401;0.45020294;1.7391312;-9.640561;-0.45320484;-0.0019973118;-0.0037283157;0.0;1.7856439;-0.46839502;-9.958928
779;-0.45572332;-0.561401;0.45020294;1.7391312;-9.640561;-0.45320484;-0.0019973118;-0.0037283157;0.0;1.7988044;-0.46899325;-9.965508
780;-0.45572332;-0.561401;0.45020294;1.7391312;-9.640561;-0.45320484;0.0014646954;0.0005326165;-0.0013315412;1.7988044;-0.46899325;-9.965508
781;-0.45572332;-0.561401;0.45020294;1.7391312;-9.640561;-0.45320484;0.0014646954;0.0005326165;-0.0013315412;1.7988044;-0.46899325;-9.965508
782;-0.45572332;-0.561401;0.45020294;1.7391312;-9.640561;-0.45320484;0.0014646954;0.0005326165;-0.0013315412;1.7988044;-0.46899325;-9.965508
783;-0.45572332;-0.561401;0.45020294;1.7391312;-9.640561;-0.45320484;0.0014646954;0.0005326165;-0.0013315412;1.7988044;-0.46899325;-9.965508
784;-0.455978;-0.56141883;0.450239;1.742017;-9.640011;-0.4538281;0.0014646954;0.0005326165;-0.0013315412;1.7988044;-0.46899325;-9.965508
785;-0.455978;-0.56141883;0.450239;1.742017;-9.640011;-0.4538281;0.0014646954;0.0005326165;-0.0013315412;1.7958134;-0.4761717;-9.952348
786;-0.455978;-0.56141883;0.450239;1.742017;-9.640011;-0.4538281;-0.001065233;-0.001065233;0.00026630826;1.7958134;-0.4761717;-9.952348
787;-0.455978;-0.56141883;0.450239;1.742017;-9.640011;-0.4538281;-0.001065233;-0.001065233;0.00026630826;1.7958134;-0.4761717;-9.952348
788;-0.455978;-0.56141883;0.450239;1.742017;-9.640011;-0.4538281;-0.001065233;-0.001065233;0.00026630826;1.7958134;-0.4761717;-9.952348
789;-0.455978;-0.56141883;0.450239;1.742017;-9.640011;-0.4538281;-0.001065233;-0.001065233;0.00026630826;1.7958134;-0.4761717;-9.952348
790;-0.45591116;-0.5615014;0.4501422;1.7412245;-9.640124;-0.45445603;-0.001065233;-0.001065233;0.00026630826;1.7958134;-0.4761717;-9.952348
791;-0.45591116;-0.5615014;0.4501422;1.7412245;-9.640124;-0.45445603;-0.001065233;-0.001065233;0.00026630826;1.8029919;-0.4869394;-9.961919
792;-0.45591116;-0.5615014;0.4501422;1.7412245;-9.640124;-0.45445603;0.0017310036;0.0027962367;-0.0006657706;1.8029919;-0.4869394;-9.961919
793;-0.45591116;-0.5615014;0.4501422;1.7412245;-9.640124;-0.45445603;0.0017310036;0.0027962367;-0.0006657706;1.8029919;-0.4869394;-9.961919
794;-0.45591116;-0.5615014;0.4501422;1.7412245;-9.640124;-0.45445603;0.0017310036;0.0027962367;-0.0006657706;1.8029919;-0.4869394;-9.961919
795;-0.45591116;-0.5615014;0.4501422;1.7412245;-9.640124;-0.45445603;0.0017310036;0.0027962367;-0.0006657706;1.8029919;-0.4869394;-9.961919
796;-0.45594653;-0.56150115;0.4501499;1.7424842;-9.639615;-0.46040148;0.0017310036;0.0027962367;-0.0006657706;1.8029919;-0.4869394;-9.961919
797;-0.45594653;-0.56150115;0.4501499;1.7424842;-9.639615;-0.46040148;0.0017310036;0.0027962367;-0.0006657706;1.7982062;-0.4444668;-9.958329
798;-0.45594653;-0.56150115;0.4501499;1.7424842;-9.639615;-0.46040148;0.0037283157;0.00013315413;0.0;1.7982062;-0.4444668;-9.958329
799;-0.45594653;-0.56150115;0.4501499;1.7424842;-9.639615;-0.46040148;0.0037283157;0.00013315413;0.0;1.7982062;-0.4444668;-9.958329
800;-0.45594653;-0.56150115;0.4501499;1.7424842;-9.639615;-0.46040148;0.0037283157;0.00013315413;0.0;1.7982062;-0.4444668;-9.958329
801;-0.45594653;-0.56150115;0.4501499;1.7424842;-9.639615;-0.46040148;0.0037283157;0.00013315413;0.0;1.7982062;-0.4444668;-9.958329
802;-0.45603812;-0.5616967;0.4499734;1.7414348;-9.640478;-0.4460528;0.0037283157;0.00013315413;0.0;1.7982062;-0.4444668;-9.958329
803;-0.45603812;-0.5616967;0.4499734;1.7414348;-9.640478;-0.4460528;0.0037283157;0.00013315413;0.0;1.8191434;-0.46181476;-9.959526
804;-0.45603812;-0.5616967;0.4499734;1.7414348;-9.640478;-0.4460528;0.0039946237;-0.0017310036;0.00039946238;1.8191434;-0.46181476;-9.959526
805;-0.45603812;-0.5616967;0.4499734;1.7414348;-9.640478;-0.4460528;0.0039946237;-0.0017310036;0.00039946238;1.8191434;-0.46181476;-9.959526
806;-0.45603812;-0.5616967;0.4499734;1.7414348;-9.640478;-0.4460528;0.0039946237;-0.0017310036;0.00039946238;1.8191434;-0.46181476;-9.959526
807;-0.45603812;-0.5616967;0.4499734;1.7414348;-9.640478;-0.4460528;0.0039946237;-0.0017310036;0.00039946238;1.8191434;-0.46181476;-9.959526
808;-0.45576173;-0.56126964;0.45034257;1.7459259;-9.639999;-0.43877536;0.0039946237;-0.0017310036;0.00039946238;1.8191434;-0.46181476;-9.959526
809;-0.45576173;-0.56126964;0.45034257;1.7459259;-9.639999;-0.43877536;0.0039946237;-0.0017310036;0.00039946238;1.7856439;-0.44865423;-9.961919
810;-0.45576173;-0.56126964;0.45034257;1.7459259;-9.639999;-0.43877536;0.005326165;-0.001065233;0.00013315413;1.7856439;-0.44865423;-9.961919
811;-0.45576173;-0.56126964;0.45034257;1.7459259;-9.639999;-0.43877536;0.005326165;-0.001065233;0.00013315413;1.7856439;-0.44865423;-9.961919
812;-0.45576173;-0.56126964;0.45034257;1.7459259;-9.639999;-0.43877536;0.005326165;-0.001065233;0.00013315413;1.7856439;-0.44865423;-9.961919
813;-0.45576173;-0.56126964;0.45034257;1.7459259;-9.639999;-0.43877536;0.005326165;-0.001065233;0.00013315413;1.7856439;-0.44865423;-9.961919
814;-0.45548192;-0.5611662;0.45038685;1.7419325;-9.640999;-0.43265632;0.005326165;-0.001065233;0.00013315413;1.7856439;-0.44865423;-9.961919
815;-0.45548192;-0.5611662;0.45038685;1.7419325;-9.640999;-0.43265632;0.005326165;-0.001065233;0.00013315413;1.8000008;-0.42652065;-9.95175
816;-0.45548192;-0.5611662;0.45038685;1.7419325;-9.640999;-0.43265632;-0.0011983871;0.0055924733;-0.0014646954;1.8000008;-0.42652065;-9.95175
817;-0.45548192;-0.5611662;0.45038685;1.7419325;-9.640999;-0.43265632;-0.0011983871;0.0055924733;-0.0014646954;1.8000008;-0.42652065;-9.95175
818;-0.45548192;-0.5611662;0.45038685;1.7419325;-9.640999;-0.43265632;-0.0011983871;0.0055924733;-0.0014646954;1.8000008;-0.42652065;-9.95175
819;-0.45548192;-0.5611662;0.45038685;1.7419325;-9.640999;-0.43265632;-0.0011983871;0.0055924733;-0.0014646954;1.8000008;-0.42652065;-9.95175
820;-0.4554624;-0.560904;0.45064482;1.7471409;-9.640349;-0.42611587;-0.0011983871;0.0055924733;-0.0014646954;1.8000008;-0.42652065;-9.95175
821;-0.4554624;-0.560904;0.45064482;1.7471409;-9.640349;-0.42611587;-0.0011983871;0.0055924733;-0.0014646954;1.8143578;-0.44805604;-9.958928
822;-0.4554624;-0.560904;0.45064482;1.7471409;-9.640349;-0.42611587;-0.0013315412;-0.0011983871;-0.0009320789;1.8143578;-0.44805604;-9.958928
823;-0.4554624;-0.560904;0.45064482;1.7471409;-9.640349;-0.42611587;-0.0013315412;-0.0011983871;-0.0009320789;1.8143578;-0.44805604;-9.958928
824;-0.4554624;-0.560904;0.45064482;1.7471409;-9.640349;-0.42611587;-0.0013315412;-0.0011983871;-0.0009320789;1.8143578;-0.44805604;-9.958928
825;-0.4554624;-0.560904;0.45064482;1.7471409;-9.640349;-0.42611587;-0.0013315412;-0.0011983871;-0.0009320789;1.8143578;-0.44805604;-9.958928
826;-0.4551781;-0.56083757;0.45065126;1.7482554;-9.639896;-0.43172652;-0.0013315412;-0.0011983871;-0.0009320789;1.8143578;-0.44805604;-9.958928
827;-0.4551781;-0.56083757;0.45065126;1.7482554;-9.639896;-0.43172652;-0.0013315412;-0.0011983871;-0.0009320789;1.8023937;-0.43010986;-9.960124
828;-0.4551781;-0.56083757;0.45065126;1.7482554;-9.639896;-0.43172652;0.0006657706;-0.0057256273;-0.001065233;1.8023937;-0.43010986;-9.960124
829;-0.4551781;-0.56083757;0.45065126;1.7482554;-9.639896;-0.43172652;0.0006657706;-0.0057256273;-0.001065233;1.8023937;-0.43010986;-9.960124
830;-0.4551781;-0.56083757;0.45065126;1.7482554;-9.639896;-0.43172652;0.0006657706;-0.0057256273;-0.001065233;1.8023937;-0.43010986;-9.960124
831;-0.4551781;-0.56083757;0.45065126;1.7482554;-9.639896;-0.43172652;0.0006657706;-0.0057256273;-0.001065233;1.8023937;-0.43010986;-9.960124
832;-0.45526683;-0.56102055;0.45048714;1.7486792;-9.64014;-0.42451566;0.0006657706;-0.0057256273;-0.001065233;1.8023937;-0.43010986;-9.960124
833;-0.45526683;-0.56102055;0.45048714;1.7486792;-9.64014;-0.42451566;0.0006657706;-0.0057256273;-0.001065233;1.7946169;-0.46002015;-9.958329
834;-0.45526683;-0.56102055;0.45048714;1.7486792;-9.64014;-0.42451566;-0.003195699;0.0058587817;0.00013315413;1.7946169;-0.46002015;-9.958329
835;-0.45526683;-0.56102055;0.45048714;1.7486792;-9.64014;-0.42451566;-0.003195699;0.0058587817;0.00013315413;1.7946169;-0.46002015;-9.958329
836;-0.45526683;-0.56102055;0.45048714;1.7486792;-9.64014;-0.42451566;-0.003195699;0.0058587817;0.00013315413;1.7946169;-0.46002015;-9.958329
837;-0.45526683;-0.56102055;0.45048714;1.7486792;-9.64014;-0.42451566;-0.003195699;0.0058587817;0.00013315413;1.7946169;-0.46002015;-9.958329
838;-0.45510116;-0.56082726;0.45064533;1.7449603;-9.640294;-0.43614617;-0.003195699;0.0058587817;0.00013315413;1.7946169;-0.46002015;-9.958329
839;-0.45510116;-0.56082726;0.45064533;1.7449603;-9.640294;-0.43614617;-0.003195699;0.0058587817;0.00013315413;1.8191434;-0.44207397;-9.958928
840;-0.45510116;-0.56082726;0.45064533;1.7449603;-9.640294;-0.43614617;-0.0005326165;-0.0018641578;0.0;1.8191434;-0.44207397;-9.958928
841;-0.45510116;-0.56082726;0.45064533;1.7449603;-9.640294;-0.43614617;-0.0005326165;-0.0018641578;0.0;1.8191434;-0.44207397;-9.958928
842;-0.45510116;-0.56082726;0.45064533;1.7449603;-9.640294;-0.43614617;-0.0005326165;-0.0018641578;0.0;1.8191434;-0.44207397;-9.958928
843;-0.45510116;-0.56082726;0.45064533;1.7449603;-9.640294;-0.43614617;-0.0005326165;-0.0018641578;0.0;1.8191434;-0.44207397;-9.958928
844;-0.45545268;-0.5610705;0.4504764;1.7478509;-9.639781;-0.4359243;-0.0005326165;-0.0018641578;0.0;1.8191434;-0.44207397;-9.958928
845;-0.45545268;-0.5610705;0.4504764;1.7478509;-9.639781;-0.4359243;-0.0005326165;-0.0018641578;0.0;1.7988044;-0.4642076;-9.960723
846;-0.45545268;-0.5610705;0.4504764;1.7478509;-9.639781;-0.4359243;0.0005326165;-0.0011983871;-0.00079892477;1.7988044;-0.4642076;-9.960723
847;-0.45545268;-0.5610705;0.4504764;1.7478509;-9.639781;-0.4359243;0.0005326165;-0.0011983871;-0.00079892477;1.7988044;-0.4642076;-9.960723
848;-0.45545268;-0.5610705;0.4504764;1.7478509;-9.639781;-0.4359243;0.0005326165;-0.0011983871;-0.00079892477;1.7988044;-0.4642076;-9.960723
849;-0.45545268;-0.5610705;0.4504764;1.7478509;-9.639781;-0.4359243;0.0005326165;-0.0011983871;-0.00079892477;1.7988044;-0.4642076;-9.960723
850;-0.45536762;-0.56112945;0.4503995;1.7480181;-9.639665;-0.43779904;0.0005326165;-0.0011983871;-0.00079892477;1.7988044;-0.4642076;-9.960723
851;-0.45536762;-0.56112945;0.4503995;1.7480181;-9.639665;-0.43779904;0.0005326165;-0.0011983871;-0.00079892477;1.797608;-0.43609193;-9.955936
852;-0.45536762;-0.56112945;0.4503995;1.7480181;-9.639665;-0.43779904;-0.0015978495;0.0030625449;0.0;1.797608;-0.43609193;-9.955936
853;-0.45536762;-0.56112945;0.4503995;1.7480181;-9.639665;-0.43779904;-0.0015978495;0.0030625449;0.0;1.797608;-0.43609193;-9.955936
854;-0.45536762;-0.56112945;0.4503995;1.7480181;-9.639665;-0.43779904;-0.0015978495;0.0030625449;0.0;1.797608;-0.43609193;-9.955936
855;-0.45536762;-0.56112945;0.4503995;1.7480181;-9.639665;-0.43779904;-0.0015978495;0.0030625449;0.0;1.797608;-0.43609193;-9.955936
856;-0.45540297;-0.56118596;0.45035043;1.7456379;-9.640327;-0.4326832;-0.0015978495;0.0030625449;0.0;1.797608;-0.43609193;-9.955936
857;-0.45540297;-0.56118596;0.45035043;1.7456379;-9.640327;-0.4326832;-0.0015978495;0.0030625449;0.0;1.8095721;-0.45224348;-9.956535
858;-0.45540297;-0.56118596;0.45035043;1.7456379;-9.640327;-0.4326832;0.0005326165;-0.0034620073;0.0009320789;1.8095721;-0.45224348;-9.956535
