,"id,Attitude Roll,Attitude Pitch,Attitude Azimuth,Gravity X,Gravity Y,Gravity Z,Rotation Rate X,Rotation Rate Y,Rotation Rate Z,User Acceleration X,User Acceleration Y,User Acceleration Z"
0,"1,-0.057805903,-0.22000356,0.46504906,3.161998,-2.924976,8.810032,0.013981183,0.0045272405,0.0006657706,3.1645079,-2.8869405,8.849854"
1,"2,-0.057805903,-0.22000356,0.46504906,3.161998,-2.924976,8.810032,0.0015978495,0.0015978495,-0.0022636203,3.1645079,-2.8869405,8.849854"
2,"3,-0.057805903,-0.22000356,0.46504906,3.161998,-2.924976,8.810032,0.0015978495,0.0015978495,-0.0022636203,3.1603205,-2.9096723,8.851051"
3,"4,-0.057805903,-0.22000356,0.46504906,3.161998,-2.924976,8.810032,0.0015978495,0.0015978495,-0.0022636203,3.1603205,-2.9096723,8.851051"
4,"5,-0.055845737,-0.21839099,0.46377286,3.1595173,-2.9116912,8.815322,0.0015978495,0.0015978495,-0.0022636203,3.1603205,-2.9096723,8.851051"
5,"6,-0.055845737,-0.21839099,0.46377286,3.1595173,-2.9116912,8.815322,-0.0005326165,0.0011983871,-0.00013315413,3.1603205,-2.9096723,8.851051"
6,"7,-0.055845737,-0.21839099,0.46377286,3.1595173,-2.9116912,8.815322,-0.0005326165,0.0011983871,-0.00013315413,3.1603205,-2.9096723,8.851051"
7,"8,-0.055845737,-0.21839099,0.46377286,3.1595173,-2.9116912,8.815322,-0.0005326165,0.0011983871,-0.00013315413,3.1597223,-2.9102705,8.852845"
8,"9,-0.055502407,-0.21786045,0.46299633,3.1546261,-2.9096534,8.817745,-0.0005326165,0.0011983871,-0.00013315413,3.1597223,-2.9102705,8.852845"
9,"10,-0.055502407,-0.21786045,0.46299633,3.1546261,-2.9096534,8.817745,0.0005326165,-0.0005326165,-0.0011983871,3.1597223,-2.9102705,8.852845"
10,"11,-0.055502407,-0.21786045,0.46299633,3.1546261,-2.9096534,8.817745,0.0005326165,-0.0005326165,-0.0011983871,3.1597223,-2.9102705,8.852845"
11,"12,-0.055502407,-0.21786045,0.46299633,3.1546261,-2.9096534,8.817745,0.0005326165,-0.0005326165,-0.0011983871,3.1609187,-2.8965118,8.853444"
12,"13,-0.055610165,-0.2175491,0.46269703,3.1517007,-2.9052403,8.820247,0.0005326165,-0.0005326165,-0.0011983871,3.1609187,-2.8965118,8.853444"
13,"14,-0.055610165,-0.2175491,0.46269703,3.1517007,-2.9052403,8.820247,0.0005326165,-0.0005326165,-0.0011983871,3.1609187,-2.8965118,8.853444"
14,"15,-0.055578936,-0.21726382,0.46232134,3.1551611,-2.9023988,8.819944,0.01291595,0.0005326165,-0.0015978495,3.1603205,-2.9180472,8.852845"
15,"16,-0.055578936,-0.21726382,0.46232134,3.1551611,-2.9023988,8.819944,0.01291595,0.0005326165,-0.0015978495,3.1603205,-2.9180472,8.852845"
16,"17,-0.055578936,-0.21726382,0.46232134,3.1551611,-2.9023988,8.819944,0.01291595,0.0005326165,-0.0015978495,3.1698918,-2.8899314,8.856435"
17,"18,-0.055380806,-0.21734981,0.46224585,3.156703,-2.8913996,8.823006,0.01291595,0.0005326165,-0.0015978495,3.1698918,-2.8899314,8.856435"
18,"19,-0.055380806,-0.21734981,0.46224585,3.156703,-2.8913996,8.823006,0.01291595,0.0005326165,-0.0015978495,3.1698918,-2.8899314,8.856435"
19,"20,-0.055380806,-0.21734981,0.46224585,3.156703,-2.8913996,8.823006,0.0033288533,0.001065233,-0.003195699,3.1698918,-2.8899314,8.856435"
20,"21,-0.055380806,-0.21734981,0.46224585,3.156703,-2.8913996,8.823006,0.0033288533,0.001065233,-0.003195699,3.1716864,-2.8552356,8.8701935"
21,"22,-0.055380806,-0.21734981,0.46224585,3.156703,-2.8913996,8.823006,0.0033288533,0.001065233,-0.003195699,3.1716864,-2.8552356,8.8701935"
22,"23,-0.055008046,-0.21708533,0.4615857,3.1560802,-2.8706565,8.829999,0.0033288533,0.001065233,-0.003195699,3.1716864,-2.8552356,8.8701935"
23,"24,-0.055008046,-0.21708533,0.4615857,3.1560802,-2.8706565,8.829999,0.0033288533,0.001065233,-0.003195699,3.1716864,-2.8552356,8.8701935"
24,"25,-0.055008046,-0.21708533,0.4615857,3.1560802,-2.8706565,8.829999,-0.007323477,0.003195699,0.0035951615,3.1716864,-2.8552356,8.8701935"
25,"26,-0.055008046,-0.21708533,0.4615857,3.1560802,-2.8706565,8.829999,-0.007323477,0.003195699,0.0035951615,3.1495528,-2.9030921,8.865408"
26,"27,-0.055008046,-0.21708533,0.4615857,3.1560802,-2.8706565,8.829999,-0.007323477,0.003195699,0.0035951615,3.1495528,-2.9030921,8.865408"
27,"28,-0.05442002,-0.21641125,0.4602342,3.1470401,-2.8812523,8.829774,-0.007323477,0.003195699,0.0035951615,3.1495528,-2.9030921,8.865408"
28,"29,-0.05442002,-0.21641125,0.4602342,3.1470401,-2.8812523,8.829774,-0.007323477,0.003195699,0.0035951615,3.1495528,-2.9030921,8.865408"
29,"30,-0.05442002,-0.21641125,0.4602342,3.1470401,-2.8812523,8.829774,0.0005326165,-0.007323477,-0.0029293909,3.1495528,-2.9030921,8.865408"
30,"31,-0.05442002,-0.21641125,0.4602342,3.1470401,-2.8812523,8.829774,0.0005326165,-0.007323477,-0.0029293909,3.1836505,-2.885744,8.857632"
31,"32,-0.05442002,-0.21641125,0.4602342,3.1470401,-2.8812523,8.829774,0.0005326165,-0.007323477,-0.0029293909,3.1836505,-2.885744,8.857632"
32,"33,-0.055031605,-0.21628301,0.46063083,3.1446698,-2.882448,8.830228,0.0005326165,-0.007323477,-0.0029293909,3.1836505,-2.885744,8.857632"
33,"34,-0.055031605,-0.21628301,0.46063083,3.1446698,-2.882448,8.830228,-0.004260932,0.01065233,0.005326165,3.1836505,-2.885744,8.857632"
34,"35,-0.055031605,-0.21628301,0.46063083,3.1446698,-2.882448,8.830228,-0.004260932,0.01065233,0.005326165,3.1836505,-2.885744,8.857632"
35,"36,-0.055031605,-0.21628301,0.46063083,3.1446698,-2.882448,8.830228,-0.004260932,0.01065233,0.005326165,3.117848,-2.9114668,8.867801"
36,"37,-0.055031605,-0.21628301,0.46063083,3.1446698,-2.882448,8.830228,-0.004260932,0.01065233,0.005326165,3.117848,-2.9114668,8.867801"
37,"38,-0.05514543,-0.21620047,0.4606333,3.1449754,-2.8883708,8.828184,-0.004260932,0.01065233,0.005326165,3.117848,-2.9114668,8.867801"
38,"39,-0.05514543,-0.21620047,0.4606333,3.1449754,-2.8883708,8.828184,0.0017310036,-0.0035951615,-0.0022636203,3.117848,-2.9114668,8.867801"
39,"40,-0.05514543,-0.21620047,0.4606333,3.1449754,-2.8883708,8.828184,0.0017310036,-0.0035951615,-0.0022636203,3.117848,-2.9114668,8.867801"
40,"41,-0.05514543,-0.21620047,0.4606333,3.1449754,-2.8883708,8.828184,0.0017310036,-0.0035951615,-0.0022636203,3.1782668,-2.8863423,8.856435"
41,"42,-0.05514543,-0.21620047,0.4606333,3.1449754,-2.8883708,8.828184,0.0017310036,-0.0035951615,-0.0022636203,3.1782668,-2.8863423,8.856435"
42,"43,-0.055309135,-0.21639961,0.46102402,3.151429,-2.883678,8.827416,0.0017310036,-0.0035951615,-0.0022636203,3.1782668,-2.8863423,8.856435"
43,"44,-0.055309135,-0.21639961,0.46102402,3.151429,-2.883678,8.827416,-0.0006657706,0.0013315412,0.00013315413,3.1782668,-2.8863423,8.856435"
44,"45,-0.055309135,-0.21639961,0.46102402,3.151429,-2.883678,8.827416,-0.0006657706,0.0013315412,0.00013315413,3.1782668,-2.8863423,8.856435"
45,"46,-0.055309135,-0.21639961,0.46102402,3.151429,-2.883678,8.827416,-0.0006657706,0.0013315412,0.00013315413,3.1537402,-2.9012976,8.864211"
46,"47,-0.055309135,-0.21639961,0.46102402,3.151429,-2.883678,8.827416,-0.0006657706,0.0013315412,0.00013315413,3.1537402,-2.9012976,8.864211"
47,"48,-0.054957066,-0.21657963,0.4609244,3.1420388,-2.887835,8.829406,-0.0006657706,0.0013315412,0.00013315413,3.1537402,-2.9012976,8.864211"
48,"49,-0.054957066,-0.21657963,0.4609244,3.1420388,-2.887835,8.829406,-0.00026630826,0.0019973118,-0.00079892477,3.1537402,-2.9012976,8.864211"
49,"50,-0.054957066,-0.21657963,0.4609244,3.1420388,-2.887835,8.829406,-0.00026630826,0.0019973118,-0.00079892477,3.1537402,-2.9012976,8.864211"
50,"51,-0.054957066,-0.21657963,0.4609244,3.1420388,-2.887835,8.829406,-0.00026630826,0.0019973118,-0.00079892477,3.1549366,-2.894119,8.866006"
51,"52,-0.054957066,-0.21657963,0.4609244,3.1420388,-2.887835,8.829406,-0.00026630826,0.0019973118,-0.00079892477,3.1549366,-2.894119,8.866006"
52,"53,-0.055390976,-0.21623477,0.46089736,3.14514,-2.885605,8.82903,-0.00026630826,0.0019973118,-0.00079892477,3.1549366,-2.894119,8.866006"
53,"54,-0.055390976,-0.21623477,0.46089736,3.14514,-2.885605,8.82903,0.001065233,0.001065233,-0.00039946238,3.1549366,-2.894119,8.866006"
54,"55,-0.055390976,-0.21623477,0.46089736,3.14514,-2.885605,8.82903,0.001065233,0.001065233,-0.00039946238,3.1549366,-2.894119,8.866006"
55,"56,-0.055390976,-0.21623477,0.46089736,3.14514,-2.885605,8.82903,0.001065233,0.001065233,-0.00039946238,3.1639097,-2.888735,8.863015"
56,"57,-0.055390976,-0.21623477,0.46089736,3.14514,-2.885605,8.82903,0.001065233,0.001065233,-0.00039946238,3.1639097,-2.888735,8.863015"
57,"58,-0.055222526,-0.21632208,0.46085116,3.1440117,-2.8837798,8.830028,0.001065233,0.001065233,-0.00039946238,3.1639097,-2.888735,8.863015"
58,"59,-0.0552064,-0.21620855,0.4606983,3.1424067,-2.880538,8.831656,-0.00039946238,-0.0019973118,0.00039946238,3.1543384,-2.8869405,8.860622"
59,"60,-0.0552064,-0.21620855,0.4606983,3.1424067,-2.880538,8.831656,-0.00039946238,-0.0019973118,0.00039946238,3.1543384,-2.8869405,8.860622"
60,"61,-0.0552064,-0.21620855,0.4606983,3.1424067,-2.880538,8.831656,-0.00039946238,-0.0019973118,0.00039946238,3.1543384,-2.9018958,8.869596"
61,"62,-0.0552064,-0.21620855,0.4606983,3.1424067,-2.880538,8.831656,-0.00039946238,-0.0019973118,0.00039946238,3.1543384,-2.9018958,8.869596"
62,"63,-0.05516443,-0.21602708,0.46043932,3.1456993,-2.8825731,8.829822,-0.00039946238,-0.0019973118,0.00039946238,3.1543384,-2.9018958,8.869596"
63,"64,-0.05516443,-0.21602708,0.46043932,3.1456993,-2.8825731,8.829822,-0.0011983871,-0.0045272405,-0.0006657706,3.1543384,-2.9018958,8.869596"
64,"65,-0.05516443,-0.21602708,0.46043932,3.1456993,-2.8825731,8.829822,-0.0011983871,-0.0045272405,-0.0006657706,3.1543384,-2.9018958,8.869596"
65,"66,-0.05516443,-0.21602708,0.46043932,3.1456993,-2.8825731,8.829822,-0.0011983871,-0.0045272405,-0.0006657706,3.1669009,-2.8863423,8.852845"
66,"67,-0.05516443,-0.21602708,0.46043932,3.1456993,-2.8825731,8.829822,-0.0011983871,-0.0045272405,-0.0006657706,3.1669009,-2.8863423,8.852845"
67,"68,-0.05511493,-0.21625626,0.46067366,3.1504068,-2.8839643,8.827688,-0.0011983871,-0.0045272405,-0.0006657706,3.1669009,-2.8863423,8.852845"
68,"69,-0.054999422,-0.21653694,0.46091077,3.1542065,-2.8862476,8.825585,-0.0018641578,0.0027962367,0.0014646954,3.1692936,-2.8965118,8.85823"
69,"70,-0.054999422,-0.21653694,0.46091077,3.1542065,-2.8862476,8.825585,-0.0018641578,0.0027962367,0.0014646954,3.1692936,-2.8995028,8.853444"
70,"71,-0.054999422,-0.21653694,0.46091077,3.1542065,-2.8862476,8.825585,-0.0018641578,0.0027962367,0.0014646954,3.1692936,-2.8995028,8.853444"
71,"72,-0.05494014,-0.21679944,0.46117646,3.1552296,-2.888126,8.824605,-0.0018641578,0.0027962367,0.0014646954,3.1692936,-2.8995028,8.853444"
72,"73,-0.05494014,-0.21679944,0.46117646,3.1552296,-2.888126,8.824605,-0.0018641578,0.0027962367,0.0014646954,3.1692936,-2.8995028,8.853444"
73,"74,-0.05494014,-0.21679944,0.46117646,3.1552296,-2.888126,8.824605,0.0019973118,0.0017310036,0.0006657706,3.1692936,-2.8995028,8.853444"
74,"75,-0.05494014,-0.21679944,0.46117646,3.1552296,-2.888126,8.824605,0.0019973118,0.0017310036,0.0006657706,3.1609187,-2.902494,8.86122"
75,"76,-0.05494014,-0.21679944,0.46117646,3.1552296,-2.888126,8.824605,0.0019973118,0.0017310036,0.0006657706,3.1609187,-2.902494,8.86122"
76,"77,-0.05494014,-0.21679944,0.46117646,3.1552296,-2.888126,8.824605,0.0019973118,0.0017310036,0.0006657706,3.1609187,-2.902494,8.86122"
77,"78,-0.05496118,-0.21690933,0.4613292,3.1511626,-2.8876984,8.826198,0.0019973118,0.0017310036,0.0006657706,3.1609187,-2.902494,8.86122"
78,"79,-0.05496118,-0.21690933,0.4613292,3.1511626,-2.8876984,8.826198,0.003195699,0.002130466,0.00079892477,3.1609187,-2.902494,8.86122"
79,"80,-0.05496118,-0.21690933,0.4613292,3.1511626,-2.8876984,8.826198,0.003195699,0.002130466,0.00079892477,3.1609187,-2.902494,8.86122"
80,"81,-0.05496118,-0.21690933,0.4613292,3.1511626,-2.8876984,8.826198,0.003195699,0.002130466,0.00079892477,3.1525438,-2.888735,8.863015"
81,"82,-0.05496118,-0.21690933,0.4613292,3.1511626,-2.8876984,8.826198,0.003195699,0.002130466,0.00079892477,3.1525438,-2.888735,8.863015"
82,"83,-0.055083826,-0.21669091,0.46117458,3.1480014,-2.8824036,8.829056,0.003195699,0.002130466,0.00079892477,3.1525438,-2.888735,8.863015"
83,"84,-0.055083826,-0.21669091,0.46117458,3.1480014,-2.8824036,8.829056,0.003195699,0.002130466,0.00079892477,3.1525438,-2.888735,8.863015"
84,"85,-0.055083826,-0.21669091,0.46117458,3.1480014,-2.8824036,8.829056,0.0006657706,0.0011983871,-0.0005326165,3.1525438,-2.888735,8.863015"
85,"86,-0.055083826,-0.21669091,0.46117458,3.1480014,-2.8824036,8.829056,0.0006657706,0.0011983871,-0.0005326165,3.1525438,-2.888735,8.863015"
86,"87,-0.055083826,-0.21669091,0.46117458,3.1480014,-2.8824036,8.829056,0.0006657706,0.0011983871,-0.0005326165,3.1603205,-2.885146,8.859426"
87,"88,-0.055083826,-0.21669091,0.46117458,3.1480014,-2.8824036,8.829056,0.0006657706,0.0011983871,-0.0005326165,3.1603205,-2.885146,8.859426"
88,"89,-0.0550335,-0.21636719,0.46073502,3.1451755,-2.8799567,8.830861,0.0006657706,0.0011983871,-0.0005326165,3.1603205,-2.885146,8.859426"
89,"90,-0.0550335,-0.21636719,0.46073502,3.1451755,-2.8799567,8.830861,0.0006657706,0.0011983871,-0.0005326165,3.1603205,-2.885146,8.859426"
90,"91,-0.0550335,-0.21636719,0.46073502,3.1451755,-2.8799567,8.830861,0.0005326165,0.00079892477,-0.00026630826,3.1603205,-2.885146,8.859426"
91,"92,-0.0550335,-0.21636719,0.46073502,3.1451755,-2.8799567,8.830861,0.0005326165,0.00079892477,-0.00026630826,3.1603205,-2.885146,8.859426"
92,"93,-0.0550335,-0.21636719,0.46073502,3.1451755,-2.8799567,8.830861,0.0005326165,0.00079892477,-0.00026630826,3.1489546,-2.888735,8.867801"
93,"94,-0.0550335,-0.21636719,0.46073502,3.1451755,-2.8799567,8.830861,0.0005326165,0.00079892477,-0.00026630826,3.1489546,-2.888735,8.867801"
94,"95,-0.05505544,-0.21614878,0.46048898,3.1441686,-2.8771784,8.832125,0.0005326165,0.00079892477,-0.00026630826,3.1489546,-2.888735,8.867801"
95,"96,-0.05505544,-0.21614878,0.46048898,3.1441686,-2.8771784,8.832125,0.0005326165,0.00079892477,-0.00026630826,3.1489546,-2.888735,8.867801"
96,"97,-0.05505544,-0.21614878,0.46048898,3.1441686,-2.8771784,8.832125,-0.0009320789,0.0009320789,0.0055924733,3.1489546,-2.888735,8.867801"
97,"98,-0.05505544,-0.21614878,0.46048898,3.1441686,-2.8771784,8.832125,-0.0009320789,0.0009320789,0.0055924733,3.1489546,-2.888735,8.867801"
98,"99,-0.05505544,-0.21614878,0.46048898,3.1441686,-2.8771784,8.832125,-0.0009320789,0.0009320789,0.0055924733,3.1435707,-2.8947172,8.863613"
99,"100,-0.05505544,-0.21614878,0.46048898,3.1441686,-2.8771784,8.832125,-0.0009320789,0.0009320789,0.0055924733,3.1435707,-2.8947172,8.863613"
100,"101,-0.055007156,-0.21601194,0.46027872,3.139482,-2.8820562,8.832202,-0.0009320789,0.0009320789,0.0055924733,3.1435707,-2.8947172,8.863613"
101,"102,-0.055007156,-0.21601194,0.46027872,3.139482,-2.8820562,8.832202,0.0005326165,-0.0015978495,0.003195699,3.1435707,-2.8947172,8.863613"
102,"103,-0.055007156,-0.21601194,0.46027872,3.139482,-2.8820562,8.832202,0.0005326165,-0.0015978495,0.003195699,3.1435707,-2.8947172,8.863613"
103,"104,-0.055007156,-0.21601194,0.46027872,3.139482,-2.8820562,8.832202,0.0005326165,-0.0015978495,0.003195699,3.1561332,-2.8875387,8.86481"
104,"105,-0.055007156,-0.21601194,0.46027872,3.139482,-2.8820562,8.832202,0.0005326165,-0.0015978495,0.003195699,3.1561332,-2.8875387,8.86481"
105,"106,-0.055007156,-0.21601194,0.46027872,3.139482,-2.8820562,8.832202,0.0005326165,-0.0015978495,0.003195699,3.1561332,-2.8875387,8.86481"
106,"107,-0.05530614,-0.21592651,0.46044493,3.139925,-2.881604,8.832191,0.0005326165,-0.0015978495,0.003195699,3.1561332,-2.8875387,8.86481"
107,"108,-0.05530614,-0.21592651,0.46044493,3.139925,-2.881604,8.832191,-0.001065233,-0.0025299285,-0.00039946238,3.1561332,-2.8875387,8.86481"
108,"109,-0.05530614,-0.21592651,0.46044493,3.139925,-2.881604,8.832191,-0.001065233,-0.0025299285,-0.00039946238,3.1561332,-2.8875387,8.86481"
109,"110,-0.05530614,-0.21592651,0.46044493,3.139925,-2.881604,8.832191,-0.001065233,-0.0025299285,-0.00039946238,3.1573296,-2.888735,8.865408"
110,"111,-0.05530614,-0.21592651,0.46044493,3.139925,-2.881604,8.832191,-0.001065233,-0.0025299285,-0.00039946238,3.1573296,-2.888735,8.865408"
111,"112,-0.05527814,-0.21593487,0.4604298,3.1405697,-2.8831167,8.83147,-0.001065233,-0.0025299285,-0.00039946238,3.1573296,-2.888735,8.865408"
112,"113,-0.054976903,-0.21631248,0.46061724,3.1533492,-2.8824577,8.827129,-0.0013315412,0.0005326165,0.0014646954,3.1657043,-2.894119,8.860622"
113,"114,-0.054976903,-0.21631248,0.46061724,3.1533492,-2.8824577,8.827129,-0.0013315412,0.0005326165,0.0014646954,3.1657043,-2.894119,8.860622"
114,"115,-0.054976903,-0.21631248,0.46061724,3.1533492,-2.8824577,8.827129,-0.0013315412,0.0005326165,0.0014646954,3.1663027,-2.8989046,8.854042"
115,"116,-0.054976903,-0.21631248,0.46061724,3.1533492,-2.8824577,8.827129,-0.0013315412,0.0005326165,0.0014646954,3.1663027,-2.8989046,8.854042"
116,"117,-0.054857474,-0.21663867,0.4609061,3.1547427,-2.8841445,8.82608,-0.0013315412,0.0005326165,0.0014646954,3.1663027,-2.8989046,8.854042"
117,"118,-0.054857474,-0.21663867,0.4609061,3.1547427,-2.8841445,8.82608,-0.00013315413,0.0035951615,0.0014646954,3.1663027,-2.8989046,8.854042"
118,"119,-0.054857474,-0.21663867,0.4609061,3.1547427,-2.8841445,8.82608,-0.00013315413,0.0035951615,0.0014646954,3.1663027,-2.8989046,8.854042"
119,"120,-0.054857474,-0.21663867,0.4609061,3.1547427,-2.8841445,8.82608,-0.00013315413,0.0035951615,0.0014646954,3.1609187,-2.8947172,8.863015"
120,"121,-0.054857474,-0.21663867,0.4609061,3.1547427,-2.8841445,8.82608,-0.00013315413,0.0035951615,0.0014646954,3.1609187,-2.8947172,8.863015"
121,"122,-0.05486066,-0.21676128,0.46105805,3.1496284,-2.8846953,8.827726,-0.00013315413,0.0035951615,0.0014646954,3.1609187,-2.8947172,8.863015"
122,"123,-0.05486066,-0.21676128,0.46105805,3.1496284,-2.8846953,8.827726,-0.00013315413,0.0035951615,0.0014646954,3.1609187,-2.8947172,8.863015"
123,"124,-0.05486066,-0.21676128,0.46105805,3.1496284,-2.8846953,8.827726,-0.00026630826,0.0017310036,0.00013315413,3.1609187,-2.8947172,8.863015"
124,"125,-0.05486066,-0.21676128,0.46105805,3.1496284,-2.8846953,8.827726,-0.00026630826,0.0017310036,0.00013315413,3.161517,-2.894119,8.860622"
125,"126,-0.05486066,-0.21676128,0.46105805,3.1496284,-2.8846953,8.827726,-0.00026630826,0.0017310036,0.00013315413,3.161517,-2.894119,8.860622"
126,"127,-0.05504673,-0.21652034,0.46093342,3.1476264,-2.8851337,8.828297,-0.00026630826,0.0017310036,0.00013315413,3.161517,-2.894119,8.860622"
127,"128,-0.05504673,-0.21652034,0.46093342,3.1476264,-2.8851337,8.828297,-0.00026630826,0.0017310036,0.00013315413,3.161517,-2.894119,8.860622"
128,"129,-0.05504673,-0.21652034,0.46093342,3.1476264,-2.8851337,8.828297,0.00079892477,0.0005326165,-0.00039946238,3.161517,-2.894119,8.860622"
129,"130,-0.05504673,-0.21652034,0.46093342,3.1476264,-2.8851337,8.828297,0.00079892477,0.0005326165,-0.00039946238,3.161517,-2.894119,8.860622"
130,"131,-0.05504673,-0.21652034,0.46093342,3.1476264,-2.8851337,8.828297,0.00079892477,0.0005326165,-0.00039946238,3.1573296,-2.8893332,8.860622"
131,"132,-0.05504673,-0.21652034,0.46093342,3.1476264,-2.8851337,8.828297,0.00079892477,0.0005326165,-0.00039946238,3.1573296,-2.8893332,8.860622"
132,"133,-0.055126097,-0.21643294,0.46089888,3.145032,-2.8835013,8.829756,0.00079892477,0.0005326165,-0.00039946238,3.1573296,-2.8893332,8.860622"
133,"134,-0.055126097,-0.21643294,0.46089888,3.145032,-2.8835013,8.829756,0.00079892477,0.0005326165,-0.00039946238,3.1573296,-2.8893332,8.860622"
134,"135,-0.055126097,-0.21643294,0.46089888,3.145032,-2.8835013,8.829756,-0.00013315413,0.002130466,0.00013315413,3.1573296,-2.8893332,8.860622"
135,"136,-0.055126097,-0.21643294,0.46089888,3.145032,-2.8835013,8.829756,-0.00013315413,0.002130466,0.00013315413,3.1525438,-2.8977082,8.863015"
136,"137,-0.055126097,-0.21643294,0.46089888,3.145032,-2.8835013,8.829756,-0.00013315413,0.002130466,0.00013315413,3.1525438,-2.8977082,8.863015"
137,"138,-0.055126097,-0.21643294,0.46089888,3.145032,-2.8835013,8.829756,-0.00013315413,0.002130466,0.00013315413,3.1525438,-2.8977082,8.863015"
138,"139,-0.05516435,-0.21625137,0.4607124,3.1415985,-2.883745,8.830898,-0.00013315413,0.002130466,0.00013315413,3.1525438,-2.8977082,8.863015"
139,"140,-0.05516435,-0.21625137,0.4607124,3.1415985,-2.883745,8.830898,0.001065233,0.00013315413,-0.00079892477,3.1525438,-2.8977082,8.863015"
140,"141,-0.05516435,-0.21625137,0.4607124,3.1415985,-2.883745,8.830898,0.001065233,0.00013315413,-0.00079892477,3.1525438,-2.8977082,8.863015"
141,"142,-0.05516435,-0.21625137,0.4607124,3.1415985,-2.883745,8.830898,0.001065233,0.00013315413,-0.00079892477,3.1579278,-2.885744,8.860622"
142,"143,-0.05516435,-0.21625137,0.4607124,3.1415985,-2.883745,8.830898,0.001065233,0.00013315413,-0.00079892477,3.1579278,-2.885744,8.860622"
143,"144,-0.05528551,-0.21608567,0.4606202,3.142359,-2.8814137,8.831388,0.001065233,0.00013315413,-0.00079892477,3.1579278,-2.885744,8.860622"
144,"145,-0.05514076,-0.21609476,0.46050036,3.1476862,-2.8790638,8.830258,-0.001065233,-0.0026630824,0.00039946238,3.1603205,-2.8917263,8.865408"
145,"146,-0.05514076,-0.21609476,0.46050036,3.1476862,-2.8790638,8.830258,-0.001065233,-0.0026630824,0.00039946238,3.1603205,-2.8917263,8.865408"
146,"147,-0.05514076,-0.21609476,0.46050036,3.1476862,-2.8790638,8.830258,-0.001065233,-0.0026630824,0.00039946238,3.1579278,-2.8935208,8.862417"
147,"148,-0.05514076,-0.21609476,0.46050036,3.1476862,-2.8790638,8.830258,-0.001065233,-0.0026630824,0.00039946238,3.1579278,-2.8935208,8.862417"
148,"149,-0.054945853,-0.2162478,0.46051043,3.1519463,-2.8800886,8.828404,-0.001065233,-0.0026630824,0.00039946238,3.1579278,-2.8935208,8.862417"
149,"150,-0.054945853,-0.2162478,0.46051043,3.1519463,-2.8800886,8.828404,-0.001065233,-0.0026630824,0.00039946238,3.1579278,-2.8935208,8.862417"
150,"151,-0.054834515,-0.21649447,0.4607099,3.1567256,-2.8798077,8.826788,-0.0011983871,0.0023967742,0.0014646954,3.1794631,-2.8845477,8.855238"
151,"152,-0.054834515,-0.21649447,0.4607099,3.1567256,-2.8798077,8.826788,-0.0011983871,0.0023967742,0.0014646954,3.1669009,-2.8947172,8.857632"
152,"153,-0.054834515,-0.21649447,0.4607099,3.1567256,-2.8798077,8.826788,-0.0011983871,0.0023967742,0.0014646954,3.1669009,-2.8947172,8.857632"
153,"154,-0.054667544,-0.21672688,0.4608415,3.1549973,-2.8831449,8.826317,-0.0011983871,0.0023967742,0.0014646954,3.1669009,-2.8947172,8.857632"
154,"155,-0.054667544,-0.21672688,0.4608415,3.1549973,-2.8831449,8.826317,-0.0011983871,0.0023967742,0.0014646954,3.1669009,-2.8947172,8.857632"
155,"156,-0.054667544,-0.21672688,0.4608415,3.1549973,-2.8831449,8.826317,0.00026630826,0.0037283157,0.0006657706,3.1669009,-2.8947172,8.857632"
156,"157,-0.054667544,-0.21672688,0.4608415,3.1549973,-2.8831449,8.826317,0.00026630826,0.0037283157,0.0006657706,3.1669009,-2.8947172,8.857632"
157,"158,-0.054667544,-0.21672688,0.4608415,3.1549973,-2.8831449,8.826317,0.00026630826,0.0037283157,0.0006657706,3.1669009,-2.8923244,8.855837"
158,"159,-0.054667544,-0.21672688,0.4608415,3.1549973,-2.8831449,8.826317,0.00026630826,0.0037283157,0.0006657706,3.1669009,-2.8923244,8.855837"
159,"160,-0.054667544,-0.21672688,0.4608415,3.1549973,-2.8831449,8.826317,0.00026630826,0.0037283157,0.0006657706,3.1669009,-2.8923244,8.855837"
160,"161,-0.05482288,-0.2167431,0.46100175,3.1516914,-2.8837082,8.827312,0.00026630826,0.0037283157,0.0006657706,3.1669009,-2.8923244,8.855837"
161,"162,-0.05482288,-0.2167431,0.46100175,3.1516914,-2.8837082,8.827312,0.00039946238,0.001065233,-0.0006657706,3.1669009,-2.8923244,8.855837"
162,"163,-0.05482288,-0.2167431,0.46100175,3.1516914,-2.8837082,8.827312,0.00039946238,0.001065233,-0.0006657706,3.1669009,-2.8923244,8.855837"
163,"164,-0.05482288,-0.2167431,0.46100175,3.1516914,-2.8837082,8.827312,0.00039946238,0.001065233,-0.0006657706,3.1567314,-2.8935208,8.864211"
164,"165,-0.05482288,-0.2167431,0.46100175,3.1516914,-2.8837082,8.827312,0.00039946238,0.001065233,-0.0006657706,3.1567314,-2.8935208,8.864211"
165,"166,-0.054949235,-0.21659382,0.46093455,3.1475494,-2.8827295,8.82911,0.00039946238,0.001065233,-0.0006657706,3.1567314,-2.8935208,8.864211"
166,"167,-0.054949235,-0.21659382,0.46093455,3.1475494,-2.8827295,8.82911,0.00039946238,0.001065233,-0.0006657706,3.1567314,-2.8935208,8.864211"
167,"168,-0.054949235,-0.21659382,0.46093455,3.1475494,-2.8827295,8.82911,0.0005326165,0.002130466,0.00013315413,3.1567314,-2.8935208,8.864211"
168,"169,-0.054949235,-0.21659382,0.46093455,3.1475494,-2.8827295,8.82911,0.0005326165,0.002130466,0.00013315413,3.1567314,-2.8935208,8.864211"
169,"170,-0.054949235,-0.21659382,0.46093455,3.1475494,-2.8827295,8.82911,0.0005326165,0.002130466,0.00013315413,3.1573296,-2.8917263,8.860024"
170,"171,-0.054949235,-0.21659382,0.46093455,3.1475494,-2.8827295,8.82911,0.0005326165,0.002130466,0.00013315413,3.1573296,-2.8917263,8.860024"
171,"172,-0.05505808,-0.21635449,0.46074182,3.1453114,-2.8818407,8.830197,0.0005326165,0.002130466,0.00013315413,3.1573296,-2.8917263,8.860024"
172,"173,-0.05505808,-0.21635449,0.46074182,3.1453114,-2.8818407,8.830197,0.0005326165,0.002130466,0.00013315413,3.1573296,-2.8917263,8.860024"
173,"174,-0.05505808,-0.21635449,0.46074182,3.1453114,-2.8818407,8.830197,0.0014646954,0.00039946238,-0.0013315412,3.1573296,-2.8917263,8.860024"
174,"175,-0.05505808,-0.21635449,0.46074182,3.1453114,-2.8818407,8.830197,0.0014646954,0.00039946238,-0.0013315412,3.1573296,-2.8917263,8.860024"
175,"176,-0.05505808,-0.21635449,0.46074182,3.1453114,-2.8818407,8.830197,0.0014646954,0.00039946238,-0.0013315412,3.1639097,-2.888735,8.86122"
176,"177,-0.05505808,-0.21635449,0.46074182,3.1453114,-2.8818407,8.830197,0.0014646954,0.00039946238,-0.0013315412,3.1639097,-2.888735,8.86122"
177,"178,-0.05510629,-0.21621403,0.4606144,3.1454127,-2.880824,8.830495,0.0014646954,0.00039946238,-0.0013315412,3.1639097,-2.888735,8.86122"
178,"179,-0.05510629,-0.21621403,0.4606144,3.1454127,-2.880824,8.830495,0.0014646954,0.00039946238,-0.0013315412,3.1639097,-2.888735,8.86122"
179,"180,-0.05507306,-0.2161876,0.46055216,3.144645,-2.877176,8.831957,-0.00026630826,0.001065233,-0.00026630826,3.1369905,-2.8917263,8.864211"
180,"181,-0.05507306,-0.2161876,0.46055216,3.144645,-2.877176,8.831957,-0.00026630826,0.001065233,-0.00026630826,3.1369905,-2.8917263,8.864211"
181,"182,-0.05507306,-0.2161876,0.46055216,3.144645,-2.877176,8.831957,-0.00026630826,0.001065233,-0.00026630826,3.1579278,-2.8863423,8.861818"
182,"183,-0.05507306,-0.2161876,0.46055216,3.144645,-2.877176,8.831957,-0.00026630826,0.001065233,-0.00026630826,3.1579278,-2.8863423,8.861818"
183,"184,-0.054991283,-0.21603589,0.46029353,3.1446912,-2.8777988,8.831737,-0.00026630826,0.001065233,-0.00026630826,3.1579278,-2.8863423,8.861818"
184,"185,-0.054991283,-0.21603589,0.46029353,3.1446912,-2.8777988,8.831737,-0.00026630826,0.001065233,-0.00026630826,3.1579278,-2.8863423,8.861818"
185,"186,-0.054991283,-0.21603589,0.46029353,3.1446912,-2.8777988,8.831737,0.00026630826,-0.0025299285,-0.0013315412,3.1579278,-2.8863423,8.861818"
186,"187,-0.054991283,-0.21603589,0.46029353,3.1446912,-2.8777988,8.831737,0.00026630826,-0.0025299285,-0.0013315412,3.1579278,-2.8863423,8.861818"
187,"188,-0.054991283,-0.21603589,0.46029353,3.1446912,-2.8777988,8.831737,0.00026630826,-0.0025299285,-0.0013315412,3.1555347,-2.885146,8.863015"
188,"189,-0.054991283,-0.21603589,0.46029353,3.1446912,-2.8777988,8.831737,0.00026630826,-0.0025299285,-0.0013315412,3.1555347,-2.885146,8.863015"
189,"190,-0.055008065,-0.21605752,0.46033505,3.1447625,-2.8774323,8.831831,0.00026630826,-0.0025299285,-0.0013315412,3.1555347,-2.885146,8.863015"
190,"191,-0.055008065,-0.21605752,0.46033505,3.1447625,-2.8774323,8.831831,0.00026630826,-0.0025299285,-0.0013315412,3.1555347,-2.885146,8.863015"
191,"192,-0.055008065,-0.21605752,0.46033505,3.1447625,-2.8774323,8.831831,-0.0005326165,-0.003195699,-0.0005326165,3.1555347,-2.885146,8.863015"
192,"193,-0.055008065,-0.21605752,0.46033505,3.1447625,-2.8774323,8.831831,-0.0005326165,-0.003195699,-0.0005326165,3.1603205,-2.8863423,8.863613"
193,"194,-0.055008065,-0.21605752,0.46033505,3.1447625,-2.8774323,8.831831,-0.0005326165,-0.003195699,-0.0005326165,3.1603205,-2.8863423,8.863613"
194,"195,-0.055008065,-0.21605752,0.46033505,3.1447625,-2.8774323,8.831831,-0.0005326165,-0.003195699,-0.0005326165,3.1603205,-2.8863423,8.863613"
195,"196,-0.05499492,-0.21604978,0.46031374,3.1503317,-2.876867,8.8300295,-0.0005326165,-0.003195699,-0.0005326165,3.1603205,-2.8863423,8.863613"
196,"197,-0.05499492,-0.21604978,0.46031374,3.1503317,-2.876867,8.8300295,-0.0005326165,-0.003195699,-0.0005326165,3.1603205,-2.8863423,8.863613"
197,"198,-0.05479346,-0.2163133,0.4604524,3.1558895,-2.8760123,8.828323,-0.0015978495,-0.0018641578,0.0013315412,3.1740792,-2.8839495,8.85464"
198,"199,-0.05479346,-0.2163133,0.4604524,3.1558895,-2.8760123,8.828323,-0.0015978495,-0.0018641578,0.0013315412,3.1752756,-2.8923244,8.852247"
199,"200,-0.05479346,-0.2163133,0.4604524,3.1558895,-2.8760123,8.828323,-0.0015978495,-0.0018641578,0.0013315412,3.1752756,-2.8923244,8.852247"
200,"201,-0.05479346,-0.2163133,0.4604524,3.1558895,-2.8760123,8.828323,-0.0015978495,-0.0018641578,0.0013315412,3.1752756,-2.8923244,8.852247"
201,"202,-0.05458384,-0.21656723,0.46057174,3.158038,-2.8790913,8.826552,-0.0015978495,-0.0018641578,0.0013315412,3.1752756,-2.8923244,8.852247"
202,"203,-0.05458384,-0.21656723,0.46057174,3.158038,-2.8790913,8.826552,-0.0015978495,-0.0018641578,0.0013315412,3.1752756,-2.8923244,8.852247"
203,"204,-0.05458384,-0.21656723,0.46057174,3.158038,-2.8790913,8.826552,-0.00013315413,0.0039946237,0.0006657706,3.1752756,-2.8923244,8.852247"
204,"205,-0.05458384,-0.21656723,0.46057174,3.158038,-2.8790913,8.826552,-0.00013315413,0.0039946237,0.0006657706,3.1692936,-2.8779674,8.855238"
205,"206,-0.05458384,-0.21656723,0.46057174,3.158038,-2.8790913,8.826552,-0.00013315413,0.0039946237,0.0006657706,3.1692936,-2.8779674,8.855238"
206,"207,-0.05458384,-0.21656723,0.46057174,3.158038,-2.8790913,8.826552,-0.00013315413,0.0039946237,0.0006657706,3.1692936,-2.8779674,8.855238"
207,"208,-0.054602925,-0.2167709,0.46083653,3.155339,-2.880957,8.826909,-0.00013315413,0.0039946237,0.0006657706,3.1692936,-2.8779674,8.855238"
208,"209,-0.054602925,-0.2167709,0.46083653,3.155339,-2.880957,8.826909,-0.00013315413,0.0039946237,0.0006657706,3.1692936,-2.8779674,8.855238"
209,"210,-0.054602925,-0.2167709,0.46083653,3.155339,-2.880957,8.826909,-0.0005326165,0.002130466,0.0005326165,3.1692936,-2.8779674,8.855238"
210,"211,-0.054602925,-0.2167709,0.46083653,3.155339,-2.880957,8.826909,-0.0005326165,0.002130466,0.0005326165,3.161517,-2.8953154,8.860622"
211,"212,-0.054602925,-0.2167709,0.46083653,3.155339,-2.880957,8.826909,-0.0005326165,0.002130466,0.0005326165,3.161517,-2.8953154,8.860622"
212,"213,-0.054602925,-0.2167709,0.46083653,3.155339,-2.880957,8.826909,-0.0005326165,0.002130466,0.0005326165,3.161517,-2.8953154,8.860622"
213,"214,-0.054747332,-0.21669254,0.4608719,3.1533055,-2.87982,8.828005,-0.0005326165,0.002130466,0.0005326165,3.161517,-2.8953154,8.860622"
214,"215,-0.054747332,-0.21669254,0.4608719,3.1533055,-2.87982,8.828005,-0.0005326165,0.002130466,0.0005326165,3.161517,-2.8953154,8.860622"
215,"216,-0.054747332,-0.21669254,0.4608719,3.1533055,-2.87982,8.828005,0.00079892477,0.0026630824,-0.00026630826,3.161517,-2.8953154,8.860622"
216,"217,-0.054747332,-0.21669254,0.4608719,3.1533055,-2.87982,8.828005,0.00079892477,0.0026630824,-0.00026630826,3.1603205,-2.8917263,8.858828"
217,"218,-0.054747332,-0.21669254,0.4608719,3.1533055,-2.87982,8.828005,0.00079892477,0.0026630824,-0.00026630826,3.1603205,-2.8917263,8.858828"
218,"219,-0.054747332,-0.21669254,0.4608719,3.1533055,-2.87982,8.828005,0.00079892477,0.0026630824,-0.00026630826,3.1603205,-2.8917263,8.858828"
219,"220,-0.054781493,-0.21655478,0.4607353,3.1495607,-2.8789146,8.8296385,0.00079892477,0.0026630824,-0.00026630826,3.1603205,-2.8917263,8.858828"
220,"221,-0.054781493,-0.21655478,0.4607353,3.1495607,-2.8789146,8.8296385,0.00079892477,0.0026630824,-0.00026630826,3.1603205,-2.8917263,8.858828"
221,"222,-0.054781493,-0.21655478,0.4607353,3.1495607,-2.8789146,8.8296385,0.0009320789,0.001065233,-0.0014646954,3.1603205,-2.8917263,8.858828"
222,"223,-0.054781493,-0.21655478,0.4607353,3.1495607,-2.8789146,8.8296385,0.0009320789,0.001065233,-0.0014646954,3.1573296,-2.882155,8.866604"
223,"224,-0.054781493,-0.21655478,0.4607353,3.1495607,-2.8789146,8.8296385,0.0009320789,0.001065233,-0.0014646954,3.1573296,-2.882155,8.866604"
224,"225,-0.054781493,-0.21655478,0.4607353,3.1495607,-2.8789146,8.8296385,0.0009320789,0.001065233,-0.0014646954,3.1573296,-2.882155,8.866604"
225,"226,-0.054879237,-0.21633776,0.4605597,3.145629,-2.878511,8.831171,0.0009320789,0.001065233,-0.0014646954,3.1573296,-2.882155,8.866604"
226,"227,-0.054879237,-0.21633776,0.4605597,3.145629,-2.878511,8.831171,0.0009320789,0.001065233,-0.0014646954,3.1573296,-2.882155,8.866604"
227,"228,-0.054879237,-0.21633776,0.4605597,3.145629,-2.878511,8.831171,-0.0005326165,0.00079892477,0.00026630826,3.1573296,-2.882155,8.866604"
228,"229,-0.054879237,-0.21633776,0.4605597,3.145629,-2.878511,8.831171,-0.0005326165,0.00079892477,0.00026630826,3.1489546,-2.8893332,8.863613"
229,"230,-0.054879237,-0.21633776,0.4605597,3.145629,-2.878511,8.831171,-0.0005326165,0.00079892477,0.00026630826,3.1489546,-2.8893332,8.863613"
230,"231,-0.054879237,-0.21633776,0.4605597,3.145629,-2.878511,8.831171,-0.0005326165,0.00079892477,0.00026630826,3.1489546,-2.8893332,8.863613"
231,"232,-0.054997887,-0.21612687,0.4604103,3.1468074,-2.875248,8.831814,-0.0005326165,0.00079892477,0.00026630826,3.1489546,-2.8893332,8.863613"
232,"233,-0.054997887,-0.21612687,0.4604103,3.1468074,-2.875248,8.831814,-0.0005326165,0.00079892477,0.00026630826,3.1489546,-2.8893332,8.863613"
233,"234,-0.0548628,-0.21608536,0.46023768,3.1472247,-2.8734431,8.8322525,0.001065233,-0.0054593193,-0.0022636203,3.1567314,-2.882155,8.863015"
234,"235,-0.0548628,-0.21608536,0.46023768,3.1472247,-2.8734431,8.8322525,0.001065233,-0.0054593193,-0.0022636203,3.1597223,-2.8833513,8.862417"
235,"236,-0.0548628,-0.21608536,0.46023768,3.1472247,-2.8734431,8.8322525,0.001065233,-0.0054593193,-0.0022636203,3.1597223,-2.8833513,8.862417"
236,"237,-0.0548628,-0.21608536,0.46023768,3.1472247,-2.8734431,8.8322525,0.001065233,-0.0054593193,-0.0022636203,3.1597223,-2.8833513,8.862417"
237,"238,-0.054795843,-0.2160506,0.4601349,3.1517506,-2.8717384,8.831194,0.001065233,-0.0054593193,-0.0022636203,3.1597223,-2.8833513,8.862417"
238,"239,-0.054795843,-0.2160506,0.4601349,3.1517506,-2.8717384,8.831194,0.001065233,-0.0054593193,-0.0022636203,3.1597223,-2.8833513,8.862417"
239,"240,-0.054595515,-0.21622624,0.4601677,3.1567318,-2.873649,8.828793,0.00026630826,-0.004260932,-0.0011983871,3.1645079,-2.885146,8.859426"
240,"241,-0.054595515,-0.21622624,0.4601677,3.1567318,-2.873649,8.828793,0.00026630826,-0.004260932,-0.0011983871,3.182454,-2.876771,8.852845"
241,"242,-0.054595515,-0.21622624,0.4601677,3.1567318,-2.873649,8.828793,0.00026630826,-0.004260932,-0.0011983871,3.182454,-2.876771,8.852845"
242,"243,-0.054595515,-0.21622624,0.4601677,3.1567318,-2.873649,8.828793,0.00026630826,-0.004260932,-0.0011983871,3.182454,-2.876771,8.852845"
243,"244,-0.05448641,-0.21653661,0.46044648,3.161905,-2.8738155,8.826886,0.00026630826,-0.004260932,-0.0011983871,3.182454,-2.876771,8.852845"
244,"245,-0.05448641,-0.21653661,0.46044648,3.161905,-2.8738155,8.826886,0.00026630826,-0.004260932,-0.0011983871,3.182454,-2.876771,8.852845"
245,"246,-0.05448641,-0.21653661,0.46044648,3.161905,-2.8738155,8.826886,-0.0015978495,0.002130466,0.0011983871,3.182454,-2.876771,8.852845"
246,"247,-0.05448641,-0.21653661,0.46044648,3.161905,-2.8738155,8.826886,-0.0015978495,0.002130466,0.0011983871,3.1722846,-2.8923244,8.857632"
247,"248,-0.05448641,-0.21653661,0.46044648,3.161905,-2.8738155,8.826886,-0.0015978495,0.002130466,0.0011983871,3.1722846,-2.8923244,8.857632"
248,"249,-0.05448641,-0.21653661,0.46044648,3.161905,-2.8738155,8.826886,-0.0015978495,0.002130466,0.0011983871,3.1722846,-2.8923244,8.857632"
249,"250,-0.054319564,-0.21680273,0.46061903,3.1591175,-2.878253,8.82644,-0.0015978495,0.002130466,0.0011983871,3.1722846,-2.8923244,8.857632"
250,"251,-0.054319564,-0.21680273,0.46061903,3.1591175,-2.878253,8.82644,-0.0015978495,0.002130466,0.0011983871,3.1722846,-2.8923244,8.857632"
251,"252,-0.054319564,-0.21680273,0.46061903,3.1591175,-2.878253,8.82644,-0.00026630826,0.0037283157,0.0009320789,3.1722846,-2.8923244,8.857632"
252,"253,-0.054319564,-0.21680273,0.46061903,3.1591175,-2.878253,8.82644,-0.00026630826,0.0037283157,0.0009320789,3.1716864,-2.885146,8.85823"
253,"254,-0.054319564,-0.21680273,0.46061903,3.1591175,-2.878253,8.82644,-0.00026630826,0.0037283157,0.0009320789,3.1716864,-2.885146,8.85823"
254,"255,-0.054319564,-0.21680273,0.46061903,3.1591175,-2.878253,8.82644,-0.00026630826,0.0037283157,0.0009320789,3.1716864,-2.885146,8.85823"
255,"256,-0.054542463,-0.2167994,0.46081647,3.157135,-2.8778958,8.827265,-0.00026630826,0.0037283157,0.0009320789,3.1716864,-2.885146,8.85823"
256,"257,-0.054542463,-0.2167994,0.46081647,3.157135,-2.8778958,8.827265,-0.00026630826,0.0037283157,0.0009320789,3.1716864,-2.885146,8.85823"
257,"258,-0.054542463,-0.2167994,0.46081647,3.157135,-2.8778958,8.827265,0.002130466,0.00026630826,-0.00026630826,3.1716864,-2.885146,8.85823"
258,"259,-0.054542463,-0.2167994,0.46081647,3.157135,-2.8778958,8.827265,0.002130466,0.00026630826,-0.00026630826,3.1669009,-2.8833513,8.855238"
259,"260,-0.054542463,-0.2167994,0.46081647,3.157135,-2.8778958,8.827265,0.002130466,0.00026630826,-0.00026630826,3.1669009,-2.8833513,8.855238"
260,"261,-0.054542463,-0.2167994,0.46081647,3.157135,-2.8778958,8.827265,0.002130466,0.00026630826,-0.00026630826,3.1669009,-2.8833513,8.855238"
261,"262,-0.054597814,-0.21668835,0.4607316,3.154595,-2.8759458,8.828808,0.002130466,0.00026630826,-0.00026630826,3.1669009,-2.8833513,8.855238"
262,"263,-0.054597814,-0.21668835,0.4607316,3.154595,-2.8759458,8.828808,-0.0005326165,0.0037283157,0.0011983871,3.1669009,-2.8833513,8.855238"
263,"264,-0.054597814,-0.21668835,0.4607316,3.154595,-2.8759458,8.828808,-0.0005326165,0.0037283157,0.0011983871,3.1669009,-2.8833513,8.855238"
264,"265,-0.054597814,-0.21668835,0.4607316,3.154595,-2.8759458,8.828808,-0.0005326165,0.0037283157,0.0011983871,3.1549366,-2.891128,8.861818"
265,"266,-0.054597814,-0.21668835,0.4607316,3.154595,-2.8759458,8.828808,-0.0005326165,0.0037283157,0.0011983871,3.1549366,-2.891128,8.861818"
266,"267,-0.054597814,-0.21668835,0.4607316,3.154595,-2.8759458,8.828808,-0.0005326165,0.0037283157,0.0011983871,3.1549366,-2.891128,8.861818"
267,"268,-0.054624863,-0.21649987,0.4605269,3.151431,-2.875358,8.83013,-0.0005326165,0.0037283157,0.0011983871,3.1549366,-2.891128,8.861818"
268,"269,-0.054624863,-0.21649987,0.4605269,3.151431,-2.875358,8.83013,0.002130466,-0.001065233,-0.0015978495,3.1549366,-2.891128,8.861818"
269,"270,-0.054624863,-0.21649987,0.4605269,3.151431,-2.875358,8.83013,0.002130466,-0.001065233,-0.0015978495,3.1549366,-2.891128,8.861818"
270,"271,-0.054624863,-0.21649987,0.4605269,3.151431,-2.875358,8.83013,0.002130466,-0.001065233,-0.0015978495,3.1716864,-2.870789,8.854042"
271,"272,-0.054624863,-0.21649987,0.4605269,3.151431,-2.875358,8.83013,0.002130466,-0.001065233,-0.0015978495,3.1716864,-2.870789,8.854042"
272,"273,-0.054624863,-0.21649987,0.4605269,3.151431,-2.875358,8.83013,0.002130466,-0.001065233,-0.0015978495,3.1716864,-2.870789,8.854042"
273,"274,-0.054712605,-0.21632205,0.46038997,3.1518645,-2.8729525,8.830758,0.002130466,-0.001065233,-0.0015978495,3.1716864,-2.870789,8.854042"
274,"275,-0.054712605,-0.21632205,0.46038997,3.1518645,-2.8729525,8.830758,0.0013315412,0.0005326165,-0.0005326165,3.1716864,-2.870789,8.854042"
275,"276,-0.054712605,-0.21632205,0.46038997,3.1518645,-2.8729525,8.830758,0.0013315412,0.0005326165,-0.0005326165,3.1716864,-2.870789,8.854042"
276,"277,-0.054712605,-0.21632205,0.46038997,3.1518645,-2.8729525,8.830758,0.0013315412,0.0005326165,-0.0005326165,3.1591241,-2.8833513,8.860622"
277,"278,-0.054712605,-0.21632205,0.46038997,3.1518645,-2.8729525,8.830758,0.0013315412,0.0005326165,-0.0005326165,3.1591241,-2.8833513,8.860622"
278,"279,-0.054712605,-0.21632205,0.46038997,3.1518645,-2.8729525,8.830758,0.0013315412,0.0005326165,-0.0005326165,3.1591241,-2.8833513,8.860622"
279,"280,-0.05462746,-0.21626952,0.4602492,3.1509128,-2.8719268,8.831431,0.0013315412,0.0005326165,-0.0005326165,3.1591241,-2.8833513,8.860622"
280,"281,-0.05462746,-0.21626952,0.4602492,3.1509128,-2.8719268,8.831431,-0.0013315412,0.00013315413,-0.00013315413,3.1591241,-2.8833513,8.860622"
281,"282,-0.05462746,-0.21626952,0.4602492,3.1509128,-2.8719268,8.831431,-0.0013315412,0.00013315413,-0.00013315413,3.1591241,-2.8833513,8.860622"
282,"283,-0.05462746,-0.21626952,0.4602492,3.1509128,-2.8719268,8.831431,-0.0013315412,0.00013315413,-0.00013315413,3.1597223,-2.8809586,8.862417"
283,"284,-0.05462746,-0.21626952,0.4602492,3.1509128,-2.8719268,8.831431,-0.0013315412,0.00013315413,-0.00013315413,3.1597223,-2.8809586,8.862417"
284,"285,-0.05462746,-0.21626952,0.4602492,3.1509128,-2.8719268,8.831431,-0.0013315412,0.00013315413,-0.00013315413,3.1597223,-2.8809586,8.862417"
285,"286,-0.054628856,-0.21618979,0.4601535,3.1543279,-2.870363,8.830721,-0.0013315412,0.00013315413,-0.00013315413,3.1597223,-2.8809586,8.862417"
286,"287,-0.054628856,-0.21618979,0.4601535,3.1543279,-2.870363,8.830721,0.0005326165,-0.005193011,-0.0029293909,3.1597223,-2.8809586,8.862417"
287,"288,-0.054628856,-0.21618979,0.4601535,3.1543279,-2.870363,8.830721,0.0005326165,-0.005193011,-0.0029293909,3.1597223,-2.8809586,8.862417"
288,"289,-0.054628856,-0.21618979,0.4601535,3.1543279,-2.870363,8.830721,0.0005326165,-0.005193011,-0.0029293909,3.1836505,-2.868396,8.855837"
289,"290,-0.054628856,-0.21618979,0.4601535,3.1543279,-2.870363,8.830721,0.0005326165,-0.005193011,-0.0029293909,3.1836505,-2.868396,8.855837"
290,"291,-0.054628856,-0.21618979,0.4601535,3.1543279,-2.870363,8.830721,0.0005326165,-0.005193011,-0.0029293909,3.1836505,-2.868396,8.855837"
291,"292,-0.054469526,-0.21631376,0.46016037,3.1590507,-2.8681226,8.82976,0.0005326165,-0.005193011,-0.0029293909,3.1836505,-2.868396,8.855837"
292,"293,-0.054469526,-0.21631376,0.46016037,3.1590507,-2.8681226,8.82976,-0.0022636203,-0.001065233,0.0017310036,3.1836505,-2.868396,8.855837"
293,"294,-0.054469526,-0.21631376,0.46016037,3.1590507,-2.8681226,8.82976,-0.0022636203,-0.001065233,0.0017310036,3.1836505,-2.868396,8.855837"
294,"295,-0.054469526,-0.21631376,0.46016037,3.1590507,-2.8681226,8.82976,-0.0022636203,-0.001065233,0.0017310036,3.165106,-2.8869405,8.861818"
295,"296,-0.054469526,-0.21631376,0.46016037,3.1590507,-2.8681226,8.82976,-0.0022636203,-0.001065233,0.0017310036,3.165106,-2.8869405,8.861818"
296,"297,-0.054469526,-0.21631376,0.46016037,3.1590507,-2.8681226,8.82976,-0.0022636203,-0.001065233,0.0017310036,3.165106,-2.8869405,8.861818"
297,"298,-0.054246888,-0.21648285,0.4601649,3.1627898,-2.8704104,8.827678,-0.0022636203,-0.001065233,0.0017310036,3.165106,-2.8869405,8.861818"
298,"299,-0.054190114,-0.2167421,0.4604285,3.1682274,-2.8705645,8.825678,-0.0005326165,0.0022636203,0.0009320789,3.182454,-2.8791637,8.849854"
299,"300,-0.054190114,-0.2167421,0.4604285,3.1682274,-2.8705645,8.825678,-0.0005326165,0.0022636203,0.0009320789,3.182454,-2.8791637,8.849854"
300,"301,-0.054190114,-0.2167421,0.4604285,3.1682274,-2.8705645,8.825678,-0.0005326165,0.0022636203,0.0009320789,3.176472,-2.8845477,8.856435"
301,"302,-0.054190114,-0.2167421,0.4604285,3.1682274,-2.8705645,8.825678,-0.0005326165,0.0022636203,0.0009320789,3.176472,-2.8845477,8.856435"
302,"303,-0.054190114,-0.2167421,0.4604285,3.1682274,-2.8705645,8.825678,-0.0005326165,0.0022636203,0.0009320789,3.176472,-2.8845477,8.856435"
303,"304,-0.054014124,-0.21702111,0.46060815,3.1655781,-2.8720608,8.826141,-0.0005326165,0.0022636203,0.0009320789,3.176472,-2.8845477,8.856435"
304,"305,-0.054014124,-0.21702111,0.46060815,3.1655781,-2.8720608,8.826141,-0.0005326165,0.004394086,0.0009320789,3.176472,-2.8845477,8.856435"
305,"306,-0.054014124,-0.21702111,0.46060815,3.1655781,-2.8720608,8.826141,-0.0005326165,0.004394086,0.0009320789,3.176472,-2.8845477,8.856435"
306,"307,-0.054014124,-0.21702111,0.46060815,3.1655781,-2.8720608,8.826141,-0.0005326165,0.004394086,0.0009320789,3.1716864,-2.8863423,8.851051"
307,"308,-0.054014124,-0.21702111,0.46060815,3.1655781,-2.8720608,8.826141,-0.0005326165,0.004394086,0.0009320789,3.1716864,-2.8863423,8.851051"
308,"309,-0.054014124,-0.21702111,0.46060815,3.1655781,-2.8720608,8.826141,-0.0005326165,0.004394086,0.0009320789,3.1716864,-2.8863423,8.851051"
309,"310,-0.054146055,-0.21693373,0.46062133,3.16005,-2.8753042,8.827065,-0.0005326165,0.004394086,0.0009320789,3.1716864,-2.8863423,8.851051"
310,"311,-0.054146055,-0.21693373,0.46062133,3.16005,-2.8753042,8.827065,0.00039946238,0.00079892477,0.0005326165,3.1716864,-2.8863423,8.851051"
311,"312,-0.054146055,-0.21693373,0.46062133,3.16005,-2.8753042,8.827065,0.00039946238,0.00079892477,0.0005326165,3.1716864,-2.8863423,8.851051"
312,"313,-0.054146055,-0.21693373,0.46062133,3.16005,-2.8753042,8.827065,0.00039946238,0.00079892477,0.0005326165,3.162115,-2.8827531,8.855837"
313,"314,-0.054146055,-0.21693373,0.46062133,3.16005,-2.8753042,8.827065,0.00039946238,0.00079892477,0.0005326165,3.162115,-2.8827531,8.855837"
314,"315,-0.054146055,-0.21693373,0.46062133,3.16005,-2.8753042,8.827065,0.00039946238,0.00079892477,0.0005326165,3.162115,-2.8827531,8.855837"
315,"316,-0.054424897,-0.21675521,0.46065652,3.155357,-2.8762982,8.828422,0.00039946238,0.00079892477,0.0005326165,3.162115,-2.8827531,8.855837"
316,"317,-0.054609925,-0.21654919,0.46057338,3.1516533,-2.8754616,8.830016,0.0019973118,-0.00079892477,-0.0019973118,3.162115,-2.8809586,8.856435"
317,"318,-0.054609925,-0.21654919,0.46057338,3.1516533,-2.8754616,8.830016,0.0019973118,-0.00079892477,-0.0019973118,3.162115,-2.8809586,8.856435"
318,"319,-0.054609925,-0.21654919,0.46057338,3.1516533,-2.8754616,8.830016,0.0019973118,-0.00079892477,-0.0019973118,3.1639097,-2.876771,8.856435"
319,"320,-0.054609925,-0.21654919,0.46057338,3.1516533,-2.8754616,8.830016,0.0019973118,-0.00079892477,-0.0019973118,3.1639097,-2.876771,8.856435"
320,"321,-0.054609925,-0.21654919,0.46057338,3.1516533,-2.8754616,8.830016,0.0019973118,-0.00079892477,-0.0019973118,3.1639097,-2.876771,8.856435"
321,"322,-0.054708272,-0.21633647,0.46040362,3.1515079,-2.8707511,8.831601,0.0019973118,-0.00079892477,-0.0019973118,3.1639097,-2.876771,8.856435"
322,"323,-0.054708272,-0.21633647,0.46040362,3.1515079,-2.8707511,8.831601,-0.0005326165,0.0011983871,0.00013315413,3.1639097,-2.876771,8.856435"
323,"324,-0.054708272,-0.21633647,0.46040362,3.1515079,-2.8707511,8.831601,-0.0005326165,0.0011983871,0.00013315413,3.1639097,-2.876771,8.856435"
324,"325,-0.054708272,-0.21633647,0.46040362,3.1515079,-2.8707511,8.831601,-0.0005326165,0.0011983871,0.00013315413,3.1507492,-2.8839495,8.86122"
325,"326,-0.054708272,-0.21633647,0.46040362,3.1515079,-2.8707511,8.831601,-0.0005326165,0.0011983871,0.00013315413,3.1507492,-2.8839495,8.86122"
326,"327,-0.054574504,-0.21618348,0.46009675,3.15356,-2.8725555,8.830282,-0.0005326165,0.0011983871,0.00013315413,3.1507492,-2.8839495,8.86122"
327,"328,-0.054574504,-0.21618348,0.46009675,3.15356,-2.8725555,8.830282,-0.0005326165,0.0011983871,0.00013315413,3.1507492,-2.8839495,8.86122"
328,"329,-0.054559525,-0.21634278,0.4602769,3.1523325,-2.8699934,8.8315525,0.00026630826,-0.0039946237,-0.0022636203,3.1657043,-2.876771,8.855837"
329,"330,-0.054559525,-0.21634278,0.4602769,3.1523325,-2.8699934,8.8315525,0.00026630826,-0.0039946237,-0.0022636203,3.1657043,-2.876771,8.855837"
330,"331,-0.054559525,-0.21634278,0.4602769,3.1523325,-2.8699934,8.8315525,0.00026630826,-0.0039946237,-0.0022636203,3.162115,-2.8773692,8.852845"
331,"332,-0.054559525,-0.21634278,0.4602769,3.1523325,-2.8699934,8.8315525,0.00026630826,-0.0039946237,-0.0022636203,3.162115,-2.8773692,8.852845"
332,"333,-0.05452484,-0.2162017,0.46007407,3.1571898,-2.867417,8.830655,0.00026630826,-0.0039946237,-0.0022636203,3.162115,-2.8773692,8.852845"
333,"334,-0.05452484,-0.2162017,0.46007407,3.1571898,-2.867417,8.830655,0.00026630826,-0.0039946237,-0.0022636203,3.162115,-2.8773692,8.852845"
334,"335,-0.05452484,-0.2162017,0.46007407,3.1571898,-2.867417,8.830655,-0.0005326165,-0.0033288533,-0.0005326165,3.162115,-2.8773692,8.852845"
335,"336,-0.05452484,-0.2162017,0.46007407,3.1571898,-2.867417,8.830655,-0.0005326165,-0.0033288533,-0.0005326165,3.162115,-2.8773692,8.852845"
336,"337,-0.05452484,-0.2162017,0.46007407,3.1571898,-2.867417,8.830655,-0.0005326165,-0.0033288533,-0.0005326165,3.1752756,-2.8779674,8.850452"
337,"338,-0.05452484,-0.2162017,0.46007407,3.1571898,-2.867417,8.830655,-0.0005326165,-0.0033288533,-0.0005326165,3.1752756,-2.8779674,8.850452"
338,"339,-0.054287855,-0.21636717,0.46006137,3.1642048,-2.8692753,8.827539,-0.0005326165,-0.0033288533,-0.0005326165,3.1752756,-2.8779674,8.850452"
339,"340,-0.054287855,-0.21636717,0.46006137,3.1642048,-2.8692753,8.827539,-0.0005326165,-0.0033288533,-0.0005326165,3.1752756,-2.8779674,8.850452"
340,"341,-0.054287855,-0.21636717,0.46006137,3.1642048,-2.8692753,8.827539,0.00039946238,-0.0058587817,-0.0022636203,3.1752756,-2.8779674,8.850452"
341,"342,-0.054287855,-0.21636717,0.46006137,3.1642048,-2.8692753,8.827539,0.00039946238,-0.0058587817,-0.0022636203,3.1752756,-2.8779674,8.850452"
342,"343,-0.054287855,-0.21636717,0.46006137,3.1642048,-2.8692753,8.827539,0.00039946238,-0.0058587817,-0.0022636203,3.185445,-2.8779674,8.856435"
343,"344,-0.054287855,-0.21636717,0.46006137,3.1642048,-2.8692753,8.827539,0.00039946238,-0.0058587817,-0.0022636203,3.185445,-2.8779674,8.856435"
344,"345,-0.054109767,-0.21677841,0.46040004,3.1680558,-2.8694673,8.826096,0.00039946238,-0.0058587817,-0.0022636203,3.185445,-2.8779674,8.856435"
345,"346,-0.054109767,-0.21677841,0.46040004,3.1680558,-2.8694673,8.826096,0.00039946238,-0.0058587817,-0.0022636203,3.185445,-2.8779674,8.856435"
346,"347,-0.054109767,-0.21677841,0.46040004,3.1680558,-2.8694673,8.826096,-0.0026630824,0.001065233,0.0019973118,3.185445,-2.8779674,8.856435"
347,"348,-0.054109767,-0.21677841,0.46040004,3.1680558,-2.8694673,8.826096,-0.0026630824,0.001065233,0.0019973118,3.185445,-2.8779674,8.856435"
348,"349,-0.054109767,-0.21677841,0.46040004,3.1680558,-2.8694673,8.826096,-0.0026630824,0.001065233,0.0019973118,3.1752756,-2.8839495,8.850452"
349,"350,-0.054109767,-0.21677841,0.46040004,3.1680558,-2.8694673,8.826096,-0.0026630824,0.001065233,0.0019973118,3.1752756,-2.8839495,8.850452"
350,"351,-0.053987578,-0.21697856,0.4605326,3.1715832,-2.8724852,8.823847,-0.0026630824,0.001065233,0.0019973118,3.1752756,-2.8839495,8.850452"
351,"352,-0.053987578,-0.21697856,0.4605326,3.1715832,-2.8724852,8.823847,-0.0026630824,0.001065233,0.0019973118,3.1752756,-2.8839495,8.850452"
352,"353,-0.053987578,-0.21697856,0.4605326,3.1715832,-2.8724852,8.823847,0.00013315413,0.00079892477,-0.00013315413,3.1752756,-2.8839495,8.850452"
353,"354,-0.053987578,-0.21697856,0.4605326,3.1715832,-2.8724852,8.823847,0.00013315413,0.00079892477,-0.00013315413,3.1752756,-2.8839495,8.850452"
354,"355,-0.053987578,-0.21697856,0.4605326,3.1715832,-2.8724852,8.823847,0.00013315413,0.00079892477,-0.00013315413,3.1872396,-2.8791637,8.853444"
355,"356,-0.053987578,-0.21697856,0.4605326,3.1715832,-2.8724852,8.823847,0.00013315413,0.00079892477,-0.00013315413,3.1872396,-2.8791637,8.853444"
356,"357,-0.053959094,-0.21724969,0.4608357,3.1694028,-2.8731334,8.82442,0.00013315413,0.00079892477,-0.00013315413,3.1872396,-2.8791637,8.853444"
357,"358,-0.053959094,-0.21724969,0.4608357,3.1694028,-2.8731334,8.82442,0.00013315413,0.00079892477,-0.00013315413,3.1872396,-2.8791637,8.853444"
358,"359,-0.053959094,-0.21724969,0.4608357,3.1694028,-2.8731334,8.82442,-0.00013315413,0.004127778,0.0014646954,3.1872396,-2.8791637,8.853444"
359,"360,-0.053959094,-0.21724969,0.4608357,3.1694028,-2.8731334,8.82442,-0.00013315413,0.004127778,0.0014646954,3.1686954,-2.879762,8.85464"
360,"361,-0.053959094,-0.21724969,0.4608357,3.1694028,-2.8731334,8.82442,-0.00013315413,0.004127778,0.0014646954,3.1686954,-2.879762,8.85464"
361,"362,-0.053959094,-0.21724969,0.4608357,3.1694028,-2.8731334,8.82442,-0.00013315413,0.004127778,0.0014646954,3.1686954,-2.879762,8.85464"
362,"363,-0.054050546,-0.21715976,0.4608093,3.1619542,-2.8742778,8.826718,-0.00013315413,0.004127778,0.0014646954,3.1686954,-2.879762,8.85464"
363,"364,-0.054050546,-0.21715976,0.4608093,3.1619542,-2.8742778,8.826718,-0.00013315413,0.004127778,0.0014646954,3.1686954,-2.879762,8.85464"
364,"365,-0.054050546,-0.21715976,0.4608093,3.1619542,-2.8742778,8.826718,0.00039946238,0.0025299285,0.00013315413,3.1686954,-2.879762,8.85464"
365,"366,-0.054050546,-0.21715976,0.4608093,3.1619542,-2.8742778,8.826718,0.00039946238,0.0025299285,0.00013315413,3.1686954,-2.879762,8.85464"
366,"367,-0.054050546,-0.21715976,0.4608093,3.1619542,-2.8742778,8.826718,0.00039946238,0.0025299285,0.00013315413,3.1669009,-2.8845477,8.854042"
367,"368,-0.054050546,-0.21715976,0.4608093,3.1619542,-2.8742778,8.826718,0.00039946238,0.0025299285,0.00013315413,3.1669009,-2.8845477,8.854042"
368,"369,-0.05433152,-0.2168195,0.4606502,3.1600978,-2.8726146,8.827924,0.00039946238,0.0025299285,0.00013315413,3.1669009,-2.8845477,8.854042"
369,"370,-0.05433152,-0.2168195,0.4606502,3.1600978,-2.8726146,8.827924,0.00039946238,0.0025299285,0.00013315413,3.1669009,-2.8845477,8.854042"
370,"371,-0.05433152,-0.2168195,0.4606502,3.1600978,-2.8726146,8.827924,0.0005326165,0.0019973118,0.00039946238,3.1669009,-2.8845477,8.854042"
371,"372,-0.05433152,-0.2168195,0.4606502,3.1600978,-2.8726146,8.827924,0.0005326165,0.0019973118,0.00039946238,3.17049,-2.8815567,8.857632"
372,"373,-0.05433152,-0.2168195,0.4606502,3.1600978,-2.8726146,8.827924,0.0005326165,0.0019973118,0.00039946238,3.17049,-2.8815567,8.857632"
373,"374,-0.05433152,-0.2168195,0.4606502,3.1600978,-2.8726146,8.827924,0.0005326165,0.0019973118,0.00039946238,3.17049,-2.8815567,8.857632"
374,"375,-0.05434427,-0.21667446,0.46048558,3.1579764,-2.8719745,8.828893,0.0005326165,0.0019973118,0.00039946238,3.17049,-2.8815567,8.857632"
375,"376,-0.05434427,-0.21667446,0.46048558,3.1579764,-2.8719745,8.828893,0.0005326165,0.0019973118,0.00039946238,3.17049,-2.8815567,8.857632"
376,"377,-0.05434427,-0.21667446,0.46048558,3.1579764,-2.8719745,8.828893,0.0018641578,-0.00079892477,-0.0015978495,3.17049,-2.8815567,8.857632"
377,"378,-0.05434427,-0.21667446,0.46048558,3.1579764,-2.8719745,8.828893,0.0018641578,-0.00079892477,-0.0015978495,3.167499,-2.8689942,8.854042"
378,"379,-0.05434427,-0.21667446,0.46048558,3.1579764,-2.8719745,8.828893,0.0018641578,-0.00079892477,-0.0015978495,3.167499,-2.8689942,8.854042"
379,"380,-0.05434427,-0.21667446,0.46048558,3.1579764,-2.8719745,8.828893,0.0018641578,-0.00079892477,-0.0015978495,3.167499,-2.8689942,8.854042"
380,"381,-0.054395866,-0.21654762,0.46037808,3.1563683,-2.8692162,8.830363,0.0018641578,-0.00079892477,-0.0015978495,3.167499,-2.8689942,8.854042"
381,"382,-0.054395866,-0.21654762,0.46037808,3.1563683,-2.8692162,8.830363,0.0018641578,-0.00079892477,-0.0015978495,3.167499,-2.8689942,8.854042"
382,"383,-0.054368075,-0.2163813,0.4601509,3.15673,-2.8687253,8.830394,-0.0005326165,0.0017310036,0.00039946238,3.162115,-2.876771,8.85823"
383,"384,-0.054368075,-0.2163813,0.4601509,3.15673,-2.8687253,8.830394,-0.0005326165,0.0017310036,0.00039946238,3.1597223,-2.8719854,8.860024"
384,"385,-0.054368075,-0.2163813,0.4601509,3.15673,-2.8687253,8.830394,-0.0005326165,0.0017310036,0.00039946238,3.1597223,-2.8719854,8.860024"
385,"386,-0.054368075,-0.2163813,0.4601509,3.15673,-2.8687253,8.830394,-0.0005326165,0.0017310036,0.00039946238,3.1597223,-2.8719854,8.860024"
386,"387,-0.054341625,-0.21638438,0.46013078,3.1560628,-2.8666296,8.831313,-0.0005326165,0.0017310036,0.00039946238,3.1597223,-2.8719854,8.860024"
387,"388,-0.054341625,-0.21638438,0.46013078,3.1560628,-2.8666296,8.831313,-0.0005326165,0.0017310036,0.00039946238,3.1597223,-2.8719854,8.860024"
388,"389,-0.054341625,-0.21638438,0.46013078,3.1560628,-2.8666296,8.831313,-0.00013315413,-0.004260932,-0.0013315412,3.1597223,-2.8719854,8.860024"
389,"390,-0.054341625,-0.21638438,0.46013078,3.1560628,-2.8666296,8.831313,-0.00013315413,-0.004260932,-0.0013315412,3.1645079,-2.8749764,8.85823"
390,"391,-0.054341625,-0.21638438,0.46013078,3.1560628,-2.8666296,8.831313,-0.00013315413,-0.004260932,-0.0013315412,3.1645079,-2.8749764,8.85823"
391,"392,-0.054341625,-0.21638438,0.46013078,3.1560628,-2.8666296,8.831313,-0.00013315413,-0.004260932,-0.0013315412,3.1645079,-2.8749764,8.85823"
392,"393,-0.054302044,-0.21628602,0.45997554,3.1602156,-2.8647318,8.830444,-0.00013315413,-0.004260932,-0.0013315412,3.1645079,-2.8749764,8.85823"
393,"394,-0.054302044,-0.21628602,0.45997554,3.1602156,-2.8647318,8.830444,-0.00013315413,-0.004260932,-0.0013315412,3.1645079,-2.8749764,8.85823"
394,"395,-0.054302044,-0.21628602,0.45997554,3.1602156,-2.8647318,8.830444,-0.00039946238,-0.0034620073,-0.0005326165,3.1645079,-2.8749764,8.85823"
395,"396,-0.054302044,-0.21628602,0.45997554,3.1602156,-2.8647318,8.830444,-0.00039946238,-0.0034620073,-0.0005326165,3.178865,-2.8761728,8.851649"
396,"397,-0.054302044,-0.21628602,0.45997554,3.1602156,-2.8647318,8.830444,-0.00039946238,-0.0034620073,-0.0005326165,3.178865,-2.8761728,8.851649"
397,"398,-0.054302044,-0.21628602,0.45997554,3.1602156,-2.8647318,8.830444,-0.00039946238,-0.0034620073,-0.0005326165,3.178865,-2.8761728,8.851649"
398,"399,-0.054108407,-0.21643694,0.45998424,3.1656117,-2.865439,8.828281,-0.00039946238,-0.0034620073,-0.0005326165,3.178865,-2.8761728,8.851649"
399,"400,-0.054108407,-0.21643694,0.45998424,3.1656117,-2.865439,8.828281,-0.00039946238,-0.0034620073,-0.0005326165,3.178865,-2.8761728,8.851649"
400,"401,-0.054108407,-0.21643694,0.45998424,3.1656117,-2.865439,8.828281,-0.00013315413,-0.0039946237,-0.001065233,3.178865,-2.8761728,8.851649"
401,"402,-0.054108407,-0.21643694,0.45998424,3.1656117,-2.865439,8.828281,-0.00013315413,-0.0039946237,-0.001065233,3.1890345,-2.8713872,8.85823"
402,"403,-0.054108407,-0.21643694,0.45998424,3.1656117,-2.865439,8.828281,-0.00013315413,-0.0039946237,-0.001065233,3.1890345,-2.8713872,8.85823"
403,"404,-0.054108407,-0.21643694,0.45998424,3.1656117,-2.865439,8.828281,-0.00013315413,-0.0039946237,-0.001065233,3.1890345,-2.8713872,8.85823"
404,"405,-0.053950217,-0.21673095,0.46019846,3.1697676,-2.8665063,8.826443,-0.00013315413,-0.0039946237,-0.001065233,3.1890345,-2.8713872,8.85823"
405,"406,-0.053950217,-0.21673095,0.46019846,3.1697676,-2.8665063,8.826443,-0.0017310036,-0.00079892477,0.0011983871,3.1890345,-2.8713872,8.85823"
406,"407,-0.053950217,-0.21673095,0.46019846,3.1697676,-2.8665063,8.826443,-0.0017310036,-0.00079892477,0.0011983871,3.1890345,-2.8713872,8.85823"
407,"408,-0.053950217,-0.21673095,0.46019846,3.1697676,-2.8665063,8.826443,-0.0017310036,-0.00079892477,0.0011983871,3.1842487,-2.8791637,8.851649"
408,"409,-0.053950217,-0.21673095,0.46019846,3.1697676,-2.8665063,8.826443,-0.0017310036,-0.00079892477,0.0011983871,3.1842487,-2.8791637,8.851649"
409,"410,-0.053950217,-0.21673095,0.46019846,3.1697676,-2.8665063,8.826443,-0.0017310036,-0.00079892477,0.0011983871,3.1842487,-2.8791637,8.851649"
410,"411,-0.053843703,-0.2169735,0.46039656,3.1733313,-2.86797,8.824688,-0.0017310036,-0.00079892477,0.0011983871,3.1842487,-2.8791637,8.851649"
411,"412,-0.053843703,-0.2169735,0.46039656,3.1733313,-2.86797,8.824688,-0.0017310036,-0.00079892477,0.0011983871,3.1842487,-2.8791637,8.851649"
412,"413,-0.05376843,-0.21719836,0.46060124,3.1703982,-2.8706112,8.8248825,0.0005326165,0.002130466,0.00079892477,3.1836505,-2.8815567,8.852247"
413,"414,-0.05376843,-0.21719836,0.46060124,3.1703982,-2.8706112,8.8248825,0.0005326165,0.002130466,0.00079892477,3.178865,-2.876771,8.853444"
414,"415,-0.05376843,-0.21719836,0.46060124,3.1703982,-2.8706112,8.8248825,0.0005326165,0.002130466,0.00079892477,3.178865,-2.876771,8.853444"
415,"416,-0.05376843,-0.21719836,0.46060124,3.1703982,-2.8706112,8.8248825,0.0005326165,0.002130466,0.00079892477,3.178865,-2.876771,8.853444"
416,"417,-0.053943418,-0.21713203,0.46067885,3.166604,-2.8693497,8.826654,0.0005326165,0.002130466,0.00079892477,3.178865,-2.876771,8.853444"
417,"418,-0.053943418,-0.21713203,0.46067885,3.166604,-2.8693497,8.826654,0.0005326165,0.002130466,0.00079892477,3.178865,-2.876771,8.853444"
418,"419,-0.05403232,-0.21690173,0.46047977,3.16135,-2.8712173,8.827931,-0.00026630826,0.002130466,0.0011983871,3.1680973,-2.8803604,8.856435"
419,"420,-0.05403232,-0.21690173,0.46047977,3.16135,-2.8712173,8.827931,-0.00026630826,0.002130466,0.0011983871,3.161517,-2.885146,8.855837"
420,"421,-0.05403232,-0.21690173,0.46047977,3.16135,-2.8712173,8.827931,-0.00026630826,0.002130466,0.0011983871,3.161517,-2.885146,8.855837"
421,"422,-0.05403232,-0.21690173,0.46047977,3.16135,-2.8712173,8.827931,-0.00026630826,0.002130466,0.0011983871,3.161517,-2.885146,8.855837"
422,"423,-0.054261625,-0.2166944,0.46043515,3.1582427,-2.871983,8.8287945,-0.00026630826,0.002130466,0.0011983871,3.161517,-2.885146,8.855837"
423,"424,-0.054261625,-0.2166944,0.46043515,3.1582427,-2.871983,8.8287945,-0.0006657706,0.0017310036,-0.0009320789,3.161517,-2.885146,8.855837"
424,"425,-0.054261625,-0.2166944,0.46043515,3.1582427,-2.871983,8.8287945,-0.0006657706,0.0017310036,-0.0009320789,3.161517,-2.885146,8.855837"
425,"426,-0.054261625,-0.2166944,0.46043515,3.1582427,-2.871983,8.8287945,-0.0006657706,0.0017310036,-0.0009320789,3.1645079,-2.8755746,8.861818"
426,"427,-0.054261625,-0.2166944,0.46043515,3.1582427,-2.871983,8.8287945,-0.0006657706,0.0017310036,-0.0009320789,3.1645079,-2.8755746,8.861818"
427,"428,-0.054261625,-0.2166944,0.46043515,3.1582427,-2.871983,8.8287945,-0.0006657706,0.0017310036,-0.0009320789,3.1645079,-2.8755746,8.861818"
428,"429,-0.05438728,-0.21656132,0.460387,3.1540275,-2.872883,8.8300085,-0.0006657706,0.0017310036,-0.0009320789,3.1645079,-2.8755746,8.861818"
429,"430,-0.05438728,-0.21656132,0.460387,3.1540275,-2.872883,8.8300085,0.0017310036,-0.002130466,-0.001065233,3.1645079,-2.8755746,8.861818"
430,"431,-0.05438728,-0.21656132,0.460387,3.1540275,-2.872883,8.8300085,0.0017310036,-0.002130466,-0.001065233,3.1645079,-2.8755746,8.861818"
431,"432,-0.05438728,-0.21656132,0.460387,3.1540275,-2.872883,8.8300085,0.0017310036,-0.002130466,-0.001065233,3.1657043,-2.8833513,8.85823"
432,"433,-0.05438728,-0.21656132,0.460387,3.1540275,-2.872883,8.8300085,0.0017310036,-0.002130466,-0.001065233,3.1657043,-2.8833513,8.85823"
433,"434,-0.05438728,-0.21656132,0.460387,3.1540275,-2.872883,8.8300085,0.0017310036,-0.002130466,-0.001065233,3.1657043,-2.8833513,8.85823"
434,"435,-0.054553647,-0.2163765,0.4603126,3.1565359,-2.8695602,8.830193,0.0017310036,-0.002130466,-0.001065233,3.1657043,-2.8833513,8.85823"
435,"436,-0.054553647,-0.2163765,0.4603126,3.1565359,-2.8695602,8.830193,0.0017310036,-0.002130466,-0.001065233,3.1657043,-2.8833513,8.85823"
436,"437,-0.054553647,-0.2163765,0.4603126,3.1565359,-2.8695602,8.830193,-0.0005326165,0.0025299285,-0.0005326165,3.1657043,-2.8833513,8.85823"
437,"438,-0.054553647,-0.2163765,0.4603126,3.1565359,-2.8695602,8.830193,-0.0005326165,0.0025299285,-0.0005326165,3.165106,-2.8755746,8.85823"
438,"439,-0.054553647,-0.2163765,0.4603126,3.1565359,-2.8695602,8.830193,-0.0005326165,0.0025299285,-0.0005326165,3.165106,-2.8755746,8.85823"
439,"440,-0.054553647,-0.2163765,0.4603126,3.1565359,-2.8695602,8.830193,-0.0005326165,0.0025299285,-0.0005326165,3.165106,-2.8755746,8.85823"
440,"441,-0.054372642,-0.21640036,0.4601782,3.1560504,-2.868918,8.830574,-0.0005326165,0.0025299285,-0.0005326165,3.165106,-2.8755746,8.85823"
441,"442,-0.054372642,-0.21640036,0.4601782,3.1560504,-2.868918,8.830574,-0.0005326165,0.0025299285,-0.0005326165,3.165106,-2.8755746,8.85823"
442,"443,-0.054369837,-0.21635605,0.4601218,3.159737,-2.8666537,8.829991,-0.00026630826,-0.0035951615,-0.00079892477,3.161517,-2.8761728,8.860024"
443,"444,-0.054369837,-0.21635605,0.4601218,3.159737,-2.8666537,8.829991,-0.00026630826,-0.0035951615,-0.00079892477,3.161517,-2.8761728,8.860024"
444,"445,-0.054369837,-0.21635605,0.4601218,3.159737,-2.8666537,8.829991,-0.00026630826,-0.0035951615,-0.00079892477,3.1812577,-2.8773692,8.853444"
445,"446,-0.054369837,-0.21635605,0.4601218,3.159737,-2.8666537,8.829991,-0.00026630826,-0.0035951615,-0.00079892477,3.1812577,-2.8773692,8.853444"
446,"447,-0.054369837,-0.21635605,0.4601218,3.159737,-2.8666537,8.829991,-0.00026630826,-0.0035951615,-0.00079892477,3.1812577,-2.8773692,8.853444"
447,"448,-0.054180875,-0.21647212,0.46009234,3.1661322,-2.8673,8.82749,-0.00026630826,-0.0035951615,-0.00079892477,3.1812577,-2.8773692,8.853444"
448,"449,-0.054180875,-0.21647212,0.46009234,3.1661322,-2.8673,8.82749,-0.0005326165,-0.0023967742,0.00039946238,3.1812577,-2.8773692,8.853444"
449,"450,-0.054180875,-0.21647212,0.46009234,3.1661322,-2.8673,8.82749,-0.0005326165,-0.0023967742,0.00039946238,3.1812577,-2.8773692,8.853444"
450,"451,-0.054180875,-0.21647212,0.46009234,3.1661322,-2.8673,8.82749,-0.0005326165,-0.0023967742,0.00039946238,3.182454,-2.8743782,8.858828"
451,"452,-0.054180875,-0.21647212,0.46009234,3.1661322,-2.8673,8.82749,-0.0005326165,-0.0023967742,0.00039946238,3.182454,-2.8743782,8.858828"
452,"453,-0.054180875,-0.21647212,0.46009234,3.1661322,-2.8673,8.82749,-0.0005326165,-0.0023967742,0.00039946238,3.182454,-2.8743782,8.858828"
453,"454,-0.053987704,-0.21681465,0.46033382,3.1685357,-2.867934,8.826422,-0.0005326165,-0.0023967742,0.00039946238,3.182454,-2.8743782,8.858828"
454,"455,-0.053987704,-0.21681465,0.46033382,3.1685357,-2.867934,8.826422,-0.0009320789,-0.0019973118,0.00039946238,3.182454,-2.8743782,8.858828"
455,"456,-0.053987704,-0.21681465,0.46033382,3.1685357,-2.867934,8.826422,-0.0009320789,-0.0019973118,0.00039946238,3.182454,-2.8743782,8.858828"
456,"457,-0.053987704,-0.21681465,0.46033382,3.1685357,-2.867934,8.826422,-0.0009320789,-0.0019973118,0.00039946238,3.190829,-2.8731818,8.84806"
457,"458,-0.053987704,-0.21681465,0.46033382,3.1685357,-2.867934,8.826422,-0.0009320789,-0.0019973118,0.00039946238,3.190829,-2.8731818,8.84806"
458,"459,-0.053987704,-0.21681465,0.46033382,3.1685357,-2.867934,8.826422,-0.0009320789,-0.0019973118,0.00039946238,3.190829,-2.8731818,8.84806"
459,"460,-0.053926576,-0.21695542,0.46044946,3.1706924,-2.8697107,8.825069,-0.0009320789,-0.0019973118,0.00039946238,3.190829,-2.8731818,8.84806"
460,"461,-0.053926576,-0.21695542,0.46044946,3.1706924,-2.8697107,8.825069,-0.0005326165,-0.0006657706,-0.00026630826,3.190829,-2.8731818,8.84806"
461,"462,-0.053926576,-0.21695542,0.46044946,3.1706924,-2.8697107,8.825069,-0.0005326165,-0.0006657706,-0.00026630826,3.190829,-2.8731818,8.84806"
462,"463,-0.053926576,-0.21695542,0.46044946,3.1706924,-2.8697107,8.825069,-0.0005326165,-0.0006657706,-0.00026630826,3.181856,-2.885744,8.857033"
463,"464,-0.053926576,-0.21695542,0.46044946,3.1706924,-2.8697107,8.825069,-0.0005326165,-0.0006657706,-0.00026630826,3.181856,-2.885744,8.857033"
464,"465,-0.053926576,-0.21695542,0.46044946,3.1706924,-2.8697107,8.825069,-0.0005326165,-0.0006657706,-0.00026630826,3.181856,-2.885744,8.857033"
465,"466,-0.053907193,-0.21711907,0.46063042,3.1732237,-2.870312,8.823965,-0.0005326165,-0.0006657706,-0.00026630826,3.181856,-2.885744,8.857033"
466,"467,-0.053907193,-0.21711907,0.46063042,3.1732237,-2.870312,8.823965,-0.0005326165,0.003195699,0.00079892477,3.181856,-2.885744,8.857033"
467,"468,-0.053907193,-0.21711907,0.46063042,3.1732237,-2.870312,8.823965,-0.0005326165,0.003195699,0.00079892477,3.181856,-2.885744,8.857033"
468,"469,-0.053907193,-0.21711907,0.46063042,3.1732237,-2.870312,8.823965,-0.0005326165,0.003195699,0.00079892477,3.1770704,-2.8785655,8.849854"
469,"470,-0.053907193,-0.21711907,0.46063042,3.1732237,-2.870312,8.823965,-0.0005326165,0.003195699,0.00079892477,3.1770704,-2.8785655,8.849854"
470,"471,-0.053907193,-0.21711907,0.46063042,3.1732237,-2.870312,8.823965,-0.0005326165,0.003195699,0.00079892477,3.1770704,-2.8785655,8.849854"
471,"472,-0.053840797,-0.21726525,0.4607477,3.170574,-2.8711789,8.824635,-0.0005326165,0.003195699,0.00079892477,3.1770704,-2.8785655,8.849854"
472,"473,-0.053840797,-0.21726525,0.4607477,3.170574,-2.8711789,8.824635,0.00079892477,0.0037283157,-0.00013315413,3.1770704,-2.8785655,8.849854"
473,"474,-0.053840797,-0.21726525,0.4607477,3.170574,-2.8711789,8.824635,0.00079892477,0.0037283157,-0.00013315413,3.1770704,-2.8785655,8.849854"
474,"475,-0.053840797,-0.21726525,0.4607477,3.170574,-2.8711789,8.824635,0.00079892477,0.0037283157,-0.00013315413,3.1776686,-2.8839495,8.860622"
475,"476,-0.053840797,-0.21726525,0.4607477,3.170574,-2.8711789,8.824635,0.00079892477,0.0037283157,-0.00013315413,3.1776686,-2.8839495,8.860622"
476,"477,-0.053840797,-0.21726525,0.4607477,3.170574,-2.8711789,8.824635,0.00079892477,0.0037283157,-0.00013315413,3.1776686,-2.8839495,8.860622"
477,"478,-0.053954255,-0.21715844,0.46072066,3.165028,-2.8717854,8.826427,0.00079892477,0.0037283157,-0.00013315413,3.1776686,-2.8839495,8.860622"
478,"479,-0.053954255,-0.21715844,0.46072066,3.165028,-2.8717854,8.826427,-0.001065233,0.0034620073,0.0009320789,3.1776686,-2.8839495,8.860622"
479,"480,-0.053954255,-0.21715844,0.46072066,3.165028,-2.8717854,8.826427,-0.001065233,0.0034620073,0.0009320789,3.1776686,-2.8839495,8.860622"
480,"481,-0.053954255,-0.21715844,0.46072066,3.165028,-2.8717854,8.826427,-0.001065233,0.0034620073,0.0009320789,3.1603205,-2.8791637,8.863015"
481,"482,-0.053954255,-0.21715844,0.46072066,3.165028,-2.8717854,8.826427,-0.001065233,0.0034620073,0.0009320789,3.1603205,-2.8791637,8.863015"
482,"483,-0.054156225,-0.2168975,0.46058652,3.1600847,-2.8716216,8.828253,-0.001065233,0.0034620073,0.0009320789,3.1603205,-2.8791637,8.863015"
483,"484,-0.054156225,-0.2168975,0.46058652,3.1600847,-2.8716216,8.828253,-0.001065233,0.0034620073,0.0009320789,3.1603205,-2.8791637,8.863015"
484,"485,-0.054156225,-0.2168975,0.46058652,3.1600847,-2.8716216,8.828253,0.0011983871,-0.00039946238,-0.0005326165,3.1603205,-2.8791637,8.863015"
485,"486,-0.054156225,-0.2168975,0.46058652,3.1600847,-2.8716216,8.828253,0.0011983871,-0.00039946238,-0.0005326165,3.1603205,-2.8791637,8.863015"
486,"487,-0.054156225,-0.2168975,0.46058652,3.1600847,-2.8716216,8.828253,0.0011983871,-0.00039946238,-0.0005326165,3.1740792,-2.8695927,8.85464"
487,"488,-0.054156225,-0.2168975,0.46058652,3.1600847,-2.8716216,8.828253,0.0011983871,-0.00039946238,-0.0005326165,3.1740792,-2.8695927,8.85464"
488,"489,-0.054156225,-0.2168975,0.46058652,3.1600847,-2.8716216,8.828253,0.0011983871,-0.00039946238,-0.0005326165,3.1740792,-2.8695927,8.85464"
489,"490,-0.054315515,-0.21664308,0.46042147,3.1578739,-2.8678734,8.830261,0.0011983871,-0.00039946238,-0.0005326165,3.1740792,-2.8695927,8.85464"
490,"491,-0.054315515,-0.21664308,0.46042147,3.1578739,-2.8678734,8.830261,0.001065233,-0.00039946238,-0.0009320789,3.1740792,-2.8695927,8.85464"
491,"492,-0.054315515,-0.21664308,0.46042147,3.1578739,-2.8678734,8.830261,0.001065233,-0.00039946238,-0.0009320789,3.1740792,-2.8695927,8.85464"
492,"493,-0.054315515,-0.21664308,0.46042147,3.1578739,-2.8678734,8.830261,0.001065233,-0.00039946238,-0.0009320789,3.1669009,-2.87378,8.860024"
493,"494,-0.054315515,-0.21664308,0.46042147,3.1578739,-2.8678734,8.830261,0.001065233,-0.00039946238,-0.0009320789,3.1669009,-2.87378,8.860024"
494,"495,-0.054315515,-0.21664308,0.46042147,3.1578739,-2.8678734,8.830261,0.001065233,-0.00039946238,-0.0009320789,3.1669009,-2.87378,8.860024"
495,"496,-0.054278597,-0.2164158,0.46011207,3.1571999,-2.8652923,8.83134,0.001065233,-0.00039946238,-0.0009320789,3.1669009,-2.87378,8.860024"
496,"497,-0.054224934,-0.21630213,0.4599256,3.154334,-2.8643894,8.832658,0.0011983871,-0.0017310036,-0.0026630824,3.1609187,-2.8695927,8.862417"
497,"498,-0.054224934,-0.21630213,0.4599256,3.154334,-2.8643894,8.832658,0.0011983871,-0.0017310036,-0.0026630824,3.1609187,-2.8695927,8.862417"
498,"499,-0.054224934,-0.21630213,0.4599256,3.154334,-2.8643894,8.832658,0.0011983871,-0.0017310036,-0.0026630824,3.167499,-2.8713872,8.857632"
499,"500,-0.054224934,-0.21630213,0.4599256,3.154334,-2.8643894,8.832658,0.0011983871,-0.0017310036,-0.0026630824,3.167499,-2.8713872,8.857632"
500,"501,-0.054224934,-0.21630213,0.4599256,3.154334,-2.8643894,8.832658,0.0011983871,-0.0017310036,-0.0026630824,3.167499,-2.8713872,8.857632"
501,"502,-0.05429336,-0.21612968,0.45977774,3.1564991,-2.8630786,8.832309,0.0011983871,-0.0017310036,-0.0026630824,3.167499,-2.8713872,8.857632"
502,"503,-0.05429336,-0.21612968,0.45977774,3.1564991,-2.8630786,8.832309,-0.0009320789,-0.0005326165,0.00079892477,3.167499,-2.8713872,8.857632"
503,"504,-0.05429336,-0.21612968,0.45977774,3.1564991,-2.8630786,8.832309,-0.0009320789,-0.0005326165,0.00079892477,3.167499,-2.8713872,8.857632"
504,"505,-0.05429336,-0.21612968,0.45977774,3.1564991,-2.8630786,8.832309,-0.0009320789,-0.0005326165,0.00079892477,3.1591241,-2.8719854,8.865408"
505,"506,-0.05429336,-0.21612968,0.45977774,3.1564991,-2.8630786,8.832309,-0.0009320789,-0.0005326165,0.00079892477,3.1591241,-2.8719854,8.865408"
506,"507,-0.05429336,-0.21612968,0.45977774,3.1564991,-2.8630786,8.832309,-0.0009320789,-0.0005326165,0.00079892477,3.1591241,-2.8719854,8.865408"
507,"508,-0.05418293,-0.21619849,0.45976183,3.1577208,-2.8617039,8.832318,-0.0009320789,-0.0005326165,0.00079892477,3.1591241,-2.8719854,8.865408"
508,"509,-0.05418293,-0.21619849,0.45976183,3.1577208,-2.8617039,8.832318,-0.00026630826,-0.0034620073,-0.0009320789,3.1591241,-2.8719854,8.865408"
509,"510,-0.05418293,-0.21619849,0.45976183,3.1577208,-2.8617039,8.832318,-0.00026630826,-0.0034620073,-0.0009320789,3.1591241,-2.8719854,8.865408"
510,"511,-0.05418293,-0.21619849,0.45976183,3.1577208,-2.8617039,8.832318,-0.00026630826,-0.0034620073,-0.0009320789,3.1716864,-2.8671997,8.855238"
511,"512,-0.05418293,-0.21619849,0.45976183,3.1577208,-2.8617039,8.832318,-0.00026630826,-0.0034620073,-0.0009320789,3.1716864,-2.8671997,8.855238"
512,"513,-0.054101896,-0.21621773,0.45971215,3.161002,-2.8608487,8.831421,-0.00026630826,-0.0034620073,-0.0009320789,3.1716864,-2.8671997,8.855238"
513,"514,-0.054101896,-0.21621773,0.45971215,3.161002,-2.8608487,8.831421,-0.00026630826,-0.0034620073,-0.0009320789,3.1716864,-2.8671997,8.855238"
514,"515,-0.054101896,-0.21621773,0.45971215,3.161002,-2.8608487,8.831421,-0.00079892477,-0.002130466,0.0009320789,3.1716864,-2.8671997,8.855238"
515,"516,-0.054101896,-0.21621773,0.45971215,3.161002,-2.8608487,8.831421,-0.00079892477,-0.002130466,0.0009320789,3.1716864,-2.8671997,8.855238"
516,"517,-0.054101896,-0.21621773,0.45971215,3.161002,-2.8608487,8.831421,-0.00079892477,-0.002130466,0.0009320789,3.176472,-2.8749764,8.85823"
517,"518,-0.054101896,-0.21621773,0.45971215,3.161002,-2.8608487,8.831421,-0.00079892477,-0.002130466,0.0009320789,3.176472,-2.8749764,8.85823"
518,"519,-0.054101896,-0.21621773,0.45971215,3.161002,-2.8608487,8.831421,-0.00079892477,-0.002130466,0.0009320789,3.176472,-2.8749764,8.85823"
519,"520,-0.0539679,-0.2163569,0.45976043,3.1651807,-2.8625975,8.829357,-0.00079892477,-0.002130466,0.0009320789,3.176472,-2.8749764,8.85823"
520,"521,-0.0539679,-0.2163569,0.45976043,3.1651807,-2.8625975,8.829357,0.00026630826,-0.0047935485,-0.00079892477,3.176472,-2.8749764,8.85823"
521,"522,-0.0539679,-0.2163569,0.45976043,3.1651807,-2.8625975,8.829357,0.00026630826,-0.0047935485,-0.00079892477,3.176472,-2.8749764,8.85823"
522,"523,-0.0539679,-0.2163569,0.45976043,3.1651807,-2.8625975,8.829357,0.00026630826,-0.0047935485,-0.00079892477,3.187838,-2.8701909,8.848659"
523,"524,-0.0539679,-0.2163569,0.45976043,3.1651807,-2.8625975,8.829357,0.00026630826,-0.0047935485,-0.00079892477,3.187838,-2.8701909,8.848659"
524,"525,-0.0539679,-0.2163569,0.45976043,3.1651807,-2.8625975,8.829357,0.00026630826,-0.0047935485,-0.00079892477,3.187838,-2.8701909,8.848659"
525,"526,-0.053880855,-0.2166216,0.46000323,3.171886,-2.8638089,8.826558,0.00026630826,-0.0047935485,-0.00079892477,3.187838,-2.8701909,8.848659"
526,"527,-0.053694054,-0.2169971,0.46029016,3.171244,-2.8655097,8.826237,0.001065233,0.0018641578,-0.0006657706,3.1866415,-2.8773692,8.852247"
527,"528,-0.053694054,-0.2169971,0.46029016,3.171244,-2.8655097,8.826237,0.001065233,0.0018641578,-0.0006657706,3.1866415,-2.8773692,8.852247"
528,"529,-0.053694054,-0.2169971,0.46029016,3.171244,-2.8655097,8.826237,0.001065233,0.0018641578,-0.0006657706,3.1884363,-2.8731818,8.851649"
529,"530,-0.053694054,-0.2169971,0.46029016,3.171244,-2.8655097,8.826237,0.001065233,0.0018641578,-0.0006657706,3.1884363,-2.8731818,8.851649"
530,"531,-0.053765398,-0.21701719,0.4603789,3.1717463,-2.8650897,8.826193,0.001065233,0.0018641578,-0.0006657706,3.1884363,-2.8731818,8.851649"
531,"532,-0.053765398,-0.21701719,0.4603789,3.1717463,-2.8650897,8.826193,0.001065233,0.0018641578,-0.0006657706,3.1884363,-2.8731818,8.851649"
532,"533,-0.053765398,-0.21701719,0.4603789,3.1717463,-2.8650897,8.826193,-0.0018641578,0.005326165,0.0025299285,3.1884363,-2.8731818,8.851649"
533,"534,-0.053765398,-0.21701719,0.4603789,3.1717463,-2.8650897,8.826193,-0.0018641578,0.005326165,0.0025299285,3.1884363,-2.8731818,8.851649"
534,"535,-0.053765398,-0.21701719,0.4603789,3.1717463,-2.8650897,8.826193,-0.0018641578,0.005326165,0.0025299285,3.162115,-2.8827531,8.861818"
535,"536,-0.053765398,-0.21701719,0.4603789,3.1717463,-2.8650897,8.826193,-0.0018641578,0.005326165,0.0025299285,3.162115,-2.8827531,8.861818"
536,"537,-0.05373637,-0.21702956,0.46036768,3.1648774,-2.8686917,8.827488,-0.0018641578,0.005326165,0.0025299285,3.162115,-2.8827531,8.861818"
537,"538,-0.05373637,-0.21702956,0.46036768,3.1648774,-2.8686917,8.827488,-0.0018641578,0.005326165,0.0025299285,3.162115,-2.8827531,8.861818"
538,"539,-0.05407028,-0.21679431,0.46038368,3.163498,-2.86391,8.829535,0.0022636203,-0.0015978495,-0.002130466,3.1728828,-2.8719854,8.85823"
539,"540,-0.05407028,-0.21679431,0.46038368,3.163498,-2.86391,8.829535,0.0022636203,-0.0015978495,-0.002130466,3.1728828,-2.8719854,8.85823"
540,"541,-0.05407028,-0.21679431,0.46038368,3.163498,-2.86391,8.829535,0.0022636203,-0.0015978495,-0.002130466,3.1794631,-2.8660033,8.852247"
541,"542,-0.05407028,-0.21679431,0.46038368,3.163498,-2.86391,8.829535,0.0022636203,-0.0015978495,-0.002130466,3.1794631,-2.8660033,8.852247"
542,"543,-0.05397533,-0.21657719,0.4600345,3.1616776,-2.8629766,8.83049,0.0022636203,-0.0015978495,-0.002130466,3.1794631,-2.8660033,8.852247"
543,"544,-0.05397533,-0.21657719,0.4600345,3.1616776,-2.8629766,8.83049,0.0022636203,-0.0015978495,-0.002130466,3.1794631,-2.8660033,8.852247"
544,"545,-0.05397533,-0.21657719,0.4600345,3.1616776,-2.8629766,8.83049,-0.0005326165,0.0033288533,0.001065233,3.1794631,-2.8660033,8.852247"
545,"546,-0.05397533,-0.21657719,0.4600345,3.1616776,-2.8629766,8.83049,-0.0005326165,0.0033288533,0.001065233,3.1794631,-2.8660033,8.852247"
546,"547,-0.05397533,-0.21657719,0.4600345,3.1616776,-2.8629766,8.83049,-0.0005326165,0.0033288533,0.001065233,3.1609187,-2.8749764,8.866006"
547,"548,-0.05397533,-0.21657719,0.4600345,3.1616776,-2.8629766,8.83049,-0.0005326165,0.0033288533,0.001065233,3.1609187,-2.8749764,8.866006"
548,"549,-0.05400821,-0.21645656,0.45991772,3.1597426,-2.8636477,8.830964,-0.0005326165,0.0033288533,0.001065233,3.1609187,-2.8749764,8.866006"
549,"550,-0.05400821,-0.21645656,0.45991772,3.1597426,-2.8636477,8.830964,-0.0005326165,0.0033288533,0.001065233,3.1609187,-2.8749764,8.866006"
550,"551,-0.05402187,-0.21622875,0.45965347,3.1596086,-2.8612657,8.831785,-0.0006657706,-0.0035951615,-0.001065233,3.165106,-2.8671997,8.85823"
551,"552,-0.05402187,-0.21622875,0.45965347,3.1596086,-2.8612657,8.831785,-0.0006657706,-0.0035951615,-0.001065233,3.165106,-2.8671997,8.85823"
552,"553,-0.05402187,-0.21622875,0.45965347,3.1596086,-2.8612657,8.831785,-0.0006657706,-0.0035951615,-0.001065233,3.176472,-2.8666015,8.855837"
553,"554,-0.05402187,-0.21622875,0.45965347,3.1596086,-2.8612657,8.831785,-0.0006657706,-0.0035951615,-0.001065233,3.176472,-2.8666015,8.855837"
554,"555,-0.05402639,-0.21629944,0.45974338,3.1650107,-2.8588629,8.830628,-0.0006657706,-0.0035951615,-0.001065233,3.176472,-2.8666015,8.855837"
555,"556,-0.05402639,-0.21629944,0.45974338,3.1650107,-2.8588629,8.830628,-0.0006657706,-0.0035951615,-0.001065233,3.176472,-2.8666015,8.855837"
556,"557,-0.05402639,-0.21629944,0.45974338,3.1650107,-2.8588629,8.830628,-0.0009320789,-0.0023967742,0.0005326165,3.176472,-2.8666015,8.855837"
557,"558,-0.05402639,-0.21629944,0.45974338,3.1650107,-2.8588629,8.830628,-0.0009320789,-0.0023967742,0.0005326165,3.176472,-2.8666015,8.855837"
558,"559,-0.05402639,-0.21629944,0.45974338,3.1650107,-2.8588629,8.830628,-0.0009320789,-0.0023967742,0.0005326165,3.1794631,-2.868396,8.861818"
559,"560,-0.05402639,-0.21629944,0.45974338,3.1650107,-2.8588629,8.830628,-0.0009320789,-0.0023967742,0.0005326165,3.1794631,-2.868396,8.861818"
560,"561,-0.053776443,-0.21649793,0.4597591,3.167579,-2.8605247,8.829168,-0.0009320789,-0.0023967742,0.0005326165,3.1794631,-2.868396,8.861818"
561,"562,-0.053776443,-0.21649793,0.4597591,3.167579,-2.8605247,8.829168,-0.0009320789,-0.0023967742,0.0005326165,3.1794631,-2.868396,8.861818"
562,"563,-0.053776443,-0.21649793,0.4597591,3.167579,-2.8605247,8.829168,-0.00079892477,-0.0026630824,0.0005326165,3.1794631,-2.868396,8.861818"
563,"564,-0.053776443,-0.21649793,0.4597591,3.167579,-2.8605247,8.829168,-0.00079892477,-0.0026630824,0.0005326165,3.1794631,-2.868396,8.861818"
564,"565,-0.053776443,-0.21649793,0.4597591,3.167579,-2.8605247,8.829168,-0.00079892477,-0.0026630824,0.0005326165,3.1842487,-2.87378,8.845667"
565,"566,-0.053776443,-0.21649793,0.4597591,3.167579,-2.8605247,8.829168,-0.00079892477,-0.0026630824,0.0005326165,3.1842487,-2.87378,8.845667"
566,"567,-0.05374025,-0.21667868,0.45994574,3.1724234,-2.862701,8.826724,-0.00079892477,-0.0026630824,0.0005326165,3.1842487,-2.87378,8.845667"
567,"568,-0.05374025,-0.21667868,0.45994574,3.1724234,-2.862701,8.826724,-0.00079892477,-0.0026630824,0.0005326165,3.1842487,-2.87378,8.845667"
568,"569,-0.05374025,-0.21667868,0.45994574,3.1724234,-2.862701,8.826724,0.0022636203,-0.0014646954,-0.001065233,3.1842487,-2.87378,8.845667"
569,"570,-0.05374025,-0.21667868,0.45994574,3.1724234,-2.862701,8.826724,0.0022636203,-0.0014646954,-0.001065233,3.1842487,-2.87378,8.845667"
570,"571,-0.05374025,-0.21667868,0.45994574,3.1724234,-2.862701,8.826724,0.0022636203,-0.0014646954,-0.001065233,3.1920254,-2.861816,8.852247"
571,"572,-0.05374025,-0.21667868,0.45994574,3.1724234,-2.862701,8.826724,0.0022636203,-0.0014646954,-0.001065233,3.1920254,-2.861816,8.852247"
572,"573,-0.05364362,-0.21699005,0.46023613,3.1735446,-2.8608572,8.826919,0.0022636203,-0.0014646954,-0.001065233,3.1920254,-2.861816,8.852247"
573,"574,-0.05364362,-0.21699005,0.46023613,3.1735446,-2.8608572,8.826919,0.0022636203,-0.0014646954,-0.001065233,3.1920254,-2.861816,8.852247"
574,"575,-0.05364362,-0.21699005,0.46023613,3.1735446,-2.8608572,8.826919,-0.0015978495,0.006524552,0.0015978495,3.1920254,-2.861816,8.852247"
575,"576,-0.05364362,-0.21699005,0.46023613,3.1735446,-2.8608572,8.826919,-0.0015978495,0.006524552,0.0015978495,3.1920254,-2.861816,8.852247"
576,"577,-0.05364362,-0.21699005,0.46023613,3.1735446,-2.8608572,8.826919,-0.0015978495,0.006524552,0.0015978495,3.1740792,-2.8671997,8.858828"
577,"578,-0.05364362,-0.21699005,0.46023613,3.1735446,-2.8608572,8.826919,-0.0015978495,0.006524552,0.0015978495,3.1740792,-2.8671997,8.858828"
578,"579,-0.053552154,-0.21698977,0.46015334,3.169089,-2.8591945,8.829058,-0.0015978495,0.006524552,0.0015978495,3.1740792,-2.8671997,8.858828"
579,"580,-0.053552154,-0.21698977,0.46015334,3.169089,-2.8591945,8.829058,-0.0015978495,0.006524552,0.0015978495,3.1740792,-2.8671997,8.858828"
580,"581,-0.053552154,-0.21698977,0.46015334,3.169089,-2.8591945,8.829058,-0.00013315413,0.0026630824,0.0009320789,3.1740792,-2.8671997,8.858828"
581,"582,-0.053552154,-0.21698977,0.46015334,3.169089,-2.8591945,8.829058,-0.00013315413,0.0026630824,0.0009320789,3.1740792,-2.8671997,8.858828"
582,"583,-0.053552154,-0.21698977,0.46015334,3.169089,-2.8591945,8.829058,-0.00013315413,0.0026630824,0.0009320789,3.1710882,-2.870789,8.863613"
583,"584,-0.053552154,-0.21698977,0.46015334,3.169089,-2.8591945,8.829058,-0.00013315413,0.0026630824,0.0009320789,3.1710882,-2.870789,8.863613"
584,"585,-0.05365098,-0.21671386,0.45990795,3.166004,-2.857463,8.830726,-0.00013315413,0.0026630824,0.0009320789,3.1710882,-2.870789,8.863613"
585,"586,-0.05365098,-0.21671386,0.45990795,3.166004,-2.857463,8.830726,-0.00013315413,0.0026630824,0.0009320789,3.1710882,-2.870789,8.863613"
586,"587,-0.05365098,-0.21671386,0.45990795,3.166004,-2.857463,8.830726,0.00039946238,0.0006657706,-0.0005326165,3.1710882,-2.870789,8.863613"
587,"588,-0.05365098,-0.21671386,0.45990795,3.166004,-2.857463,8.830726,0.00039946238,0.0006657706,-0.0005326165,3.1710882,-2.870789,8.863613"
588,"589,-0.05365098,-0.21671386,0.45990795,3.166004,-2.857463,8.830726,0.00039946238,0.0006657706,-0.0005326165,3.1776686,-2.868396,8.857033"
589,"590,-0.05365098,-0.21671386,0.45990795,3.166004,-2.857463,8.830726,0.00039946238,0.0006657706,-0.0005326165,3.1776686,-2.868396,8.857033"
590,"591,-0.05370223,-0.21650492,0.45970073,3.1645997,-2.8592477,8.83065,0.00039946238,0.0006657706,-0.0005326165,3.1776686,-2.868396,8.857033"
591,"592,-0.05370223,-0.21650492,0.45970073,3.1645997,-2.8592477,8.83065,0.00039946238,0.0006657706,-0.0005326165,3.1776686,-2.868396,8.857033"
592,"593,-0.05370223,-0.21650492,0.45970073,3.1645997,-2.8592477,8.83065,0.0014646954,-0.00026630826,-0.0009320789,3.1776686,-2.868396,8.857033"
593,"594,-0.05370223,-0.21650492,0.45970073,3.1645997,-2.8592477,8.83065,0.0014646954,-0.00026630826,-0.0009320789,3.1776686,-2.868396,8.857033"
594,"595,-0.05370223,-0.21650492,0.45970073,3.1645997,-2.8592477,8.83065,0.0014646954,-0.00026630826,-0.0009320789,3.17049,-2.8606195,8.865408"
595,"596,-0.05370223,-0.21650492,0.45970073,3.1645997,-2.8592477,8.83065,0.0014646954,-0.00026630826,-0.0009320789,3.17049,-2.8606195,8.865408"
596,"597,-0.053801414,-0.21648908,0.45977083,3.1618943,-2.8574622,8.832198,0.0014646954,-0.00026630826,-0.0009320789,3.17049,-2.8606195,8.865408"
597,"598,-0.053801414,-0.21648908,0.45977083,3.1618943,-2.8574622,8.832198,0.0014646954,-0.00026630826,-0.0009320789,3.17049,-2.8606195,8.865408"
598,"599,-0.053801414,-0.21648908,0.45977083,3.1618943,-2.8574622,8.832198,0.00026630826,0.0017310036,0.00013315413,3.17049,-2.8606195,8.865408"
599,"600,-0.053801414,-0.21648908,0.45977083,3.1618943,-2.8574622,8.832198,0.00026630826,0.0017310036,0.00013315413,3.17049,-2.8606195,8.865408"
600,"601,-0.053801414,-0.21648908,0.45977083,3.1618943,-2.8574622,8.832198,0.00026630826,0.0017310036,0.00013315413,3.1633115,-2.8666015,8.863015"
601,"602,-0.053801414,-0.21648908,0.45977083,3.1618943,-2.8574622,8.832198,0.00026630826,0.0017310036,0.00013315413,3.1633115,-2.8666015,8.863015"
602,"603,-0.05383844,-0.2162976,0.45957184,3.159484,-2.855658,8.833644,0.00026630826,0.0017310036,0.00013315413,3.1633115,-2.8666015,8.863015"
603,"604,-0.05383844,-0.2162976,0.45957184,3.159484,-2.855658,8.833644,0.00026630826,0.0017310036,0.00013315413,3.1633115,-2.8666015,8.863015"
604,"605,-0.053865068,-0.21612048,0.45938084,3.1560915,-2.8542562,8.83531,0.00013315413,-0.003195699,-0.001065233,3.162115,-2.8606195,8.863015"
605,"606,-0.053865068,-0.21612048,0.45938084,3.1560915,-2.8542562,8.83531,0.00013315413,-0.003195699,-0.001065233,3.162115,-2.8606195,8.863015"
606,"607,-0.053865068,-0.21612048,0.45938084,3.1560915,-2.8542562,8.83531,0.00013315413,-0.003195699,-0.001065233,3.1669009,-2.8558338,8.86122"
607,"608,-0.053865068,-0.21612048,0.45938084,3.1560915,-2.8542562,8.83531,0.00013315413,-0.003195699,-0.001065233,3.1669009,-2.8558338,8.86122"
608,"609,-0.053936046,-0.21590619,0.45918447,3.1613219,-2.8513808,8.834369,0.00013315413,-0.003195699,-0.001065233,3.1669009,-2.8558338,8.86122"
609,"610,-0.053936046,-0.21590619,0.45918447,3.1613219,-2.8513808,8.834369,0.00013315413,-0.003195699,-0.001065233,3.1669009,-2.8558338,8.86122"
610,"611,-0.053677835,-0.21608163,0.45916525,3.1688313,-2.8493094,8.832346,-0.00026630826,0.0018641578,0.0030625449,3.1884363,-2.8528428,8.85823"
611,"612,-0.053677835,-0.21608163,0.45916525,3.1688313,-2.8493094,8.832346,-0.00026630826,0.0018641578,0.0030625449,3.1884363,-2.8528428,8.85823"
612,"613,-0.053677835,-0.21608163,0.45916525,3.1688313,-2.8493094,8.832346,-0.00026630826,0.0018641578,0.0030625449,3.1549366,-2.8839495,8.83131"
613,"614,-0.053677835,-0.21608163,0.45916525,3.1688313,-2.8493094,8.832346,-0.00026630826,0.0018641578,0.0030625449,3.1549366,-2.8839495,8.83131"
614,"615,-0.05336788,-0.21639678,0.45926878,3.1676986,-2.8529506,8.831576,-0.00026630826,0.0018641578,0.0030625449,3.1549366,-2.8839495,8.83131"
615,"616,-0.05336788,-0.21639678,0.45926878,3.1676986,-2.8529506,8.831576,-0.00026630826,0.0018641578,0.0030625449,3.1549366,-2.8839495,8.83131"
616,"617,-0.05336788,-0.21639678,0.45926878,3.1676986,-2.8529506,8.831576,0.013981183,0.05259588,-0.009054481,3.1549366,-2.8839495,8.83131"
617,"618,-0.05336788,-0.21639678,0.45926878,3.1676986,-2.8529506,8.831576,0.013981183,0.05259588,-0.009054481,3.1549366,-2.8839495,8.83131"
618,"619,-0.05336788,-0.21639678,0.45926878,3.1676986,-2.8529506,8.831576,0.013981183,0.05259588,-0.009054481,3.1986058,-2.9353952,8.819346"
619,"620,-0.05336788,-0.21639678,0.45926878,3.1676986,-2.8529506,8.831576,0.013981183,0.05259588,-0.009054481,3.1986058,-2.9353952,8.819346"
620,"621,-0.05351293,-0.21645157,0.45946565,3.109488,-2.8636134,8.848796,0.013981183,0.05259588,-0.009054481,3.1986058,-2.9353952,8.819346"
621,"622,-0.05351293,-0.21645157,0.45946565,3.109488,-2.8636134,8.848796,0.013981183,0.05259588,-0.009054481,3.1986058,-2.9353952,8.819346"
622,"623,-0.05351293,-0.21645157,0.45946565,3.109488,-2.8636134,8.848796,-0.05925359,0.19360611,0.06884068,3.1986058,-2.9353952,8.819346"
623,"624,-0.05351293,-0.21645157,0.45946565,3.109488,-2.8636134,8.848796,-0.05925359,0.19360611,0.06884068,3.1986058,-2.9353952,8.819346"
624,"625,-0.05351293,-0.21645157,0.45946565,3.109488,-2.8636134,8.848796,-0.05925359,0.19360611,0.06884068,2.6769702,-2.6488547,9.030513"
625,"626,-0.05351293,-0.21645157,0.45946565,3.109488,-2.8636134,8.848796,-0.05925359,0.19360611,0.06884068,2.6769702,-2.6488547,9.030513"
626,"627,-0.055755433,-0.21384177,0.45830494,2.8265488,-2.9123216,8.927451,-0.05925359,0.19360611,0.06884068,2.6769702,-2.6488547,9.030513"
627,"628,-0.055755433,-0.21384177,0.45830494,2.8265488,-2.9123216,8.927451,-0.05925359,0.19360611,0.06884068,2.6769702,-2.6488547,9.030513"
628,"629,-0.055755433,-0.21384177,0.45830494,2.8265488,-2.9123216,8.927451,-0.16843997,0.01611165,-0.010119714,2.6769702,-2.6488547,9.030513"
629,"630,-0.055755433,-0.21384177,0.45830494,2.8265488,-2.9123216,8.927451,-0.16843997,0.01611165,-0.010119714,2.6769702,-2.6488547,9.030513"
630,"631,-0.055755433,-0.21384177,0.45830494,2.8265488,-2.9123216,8.927451,-0.16843997,0.01611165,-0.010119714,2.6638098,-3.1776686,8.935996"
631,"632,-0.055755433,-0.21384177,0.45830494,2.8265488,-2.9123216,8.927451,-0.16843997,0.01611165,-0.010119714,2.6638098,-3.1776686,8.935996"
632,"633,-0.0649216,-0.2015238,0.45882466,2.754296,-3.1000664,8.886723,-0.16843997,0.01611165,-0.010119714,2.6638098,-3.1776686,8.935996"
633,"634,-0.0649216,-0.2015238,0.45882466,2.754296,-3.1000664,8.886723,-0.16843997,0.01611165,-0.010119714,2.6638098,-3.1776686,8.935996"
634,"635,-0.0649216,-0.2015238,0.45882466,2.754296,-3.1000664,8.886723,-0.20212796,-0.11131685,-0.023701435,2.6638098,-3.1776686,8.935996"
635,"636,-0.0649216,-0.2015238,0.45882466,2.754296,-3.1000664,8.886723,-0.20212796,-0.11131685,-0.023701435,2.6638098,-3.1776686,8.935996"
636,"637,-0.0649216,-0.2015238,0.45882466,2.754296,-3.1000664,8.886723,-0.20212796,-0.11131685,-0.023701435,2.8779674,-3.5042887,8.766704"
637,"638,-0.0649216,-0.2015238,0.45882466,2.754296,-3.1000664,8.886723,-0.20212796,-0.11131685,-0.023701435,2.8779674,-3.5042887,8.766704"
638,"639,-0.078194134,-0.20196275,0.44647855,2.8644605,-3.386169,8.746377,-0.20212796,-0.11131685,-0.023701435,2.8779674,-3.5042887,8.766704"
639,"640,-0.078194134,-0.20196275,0.44647855,2.8644605,-3.386169,8.746377,-0.20212796,-0.11131685,-0.023701435,2.8779674,-3.5042887,8.766704"
640,"641,-0.078194134,-0.20196275,0.44647855,2.8644605,-3.386169,8.746377,-0.17895915,-0.13168943,0.026497671,2.8779674,-3.5042887,8.766704"
641,"642,-0.078194134,-0.20196275,0.44647855,2.8644605,-3.386169,8.746377,-0.17895915,-0.13168943,0.026497671,2.8779674,-3.5042887,8.766704"
642,"643,-0.078194134,-0.20196275,0.44647855,2.8644605,-3.386169,8.746377,-0.17895915,-0.13168943,0.026497671,3.1004999,-3.9403806,8.525627"
643,"644,-0.078194134,-0.20196275,0.44647855,2.8644605,-3.386169,8.746377,-0.17895915,-0.13168943,0.026497671,3.1004999,-3.9403806,8.525627"
644,"645,-0.09171504,-0.21365213,0.4345561,3.0654964,-3.7090516,8.544943,-0.17895915,-0.13168943,0.026497671,3.1004999,-3.9403806,8.525627"
645,"646,-0.09171504,-0.21365213,0.4345561,3.0654964,-3.7090516,8.544943,-0.17895915,-0.13168943,0.026497671,3.1004999,-3.9403806,8.525627"
646,"647,-0.09171504,-0.21365213,0.4345561,3.0654964,-3.7090516,8.544943,-0.17043728,-0.06378083,0.037815772,3.1004999,-3.9403806,8.525627"
647,"648,-0.09171504,-0.21365213,0.4345561,3.0654964,-3.7090516,8.544943,-0.17043728,-0.06378083,0.037815772,3.1004999,-3.9403806,8.525627"
648,"649,-0.09171504,-0.21365213,0.4345561,3.0654964,-3.7090516,8.544943,-0.17043728,-0.06378083,0.037815772,3.1256247,-4.1784663,8.394022"
649,"650,-0.09171504,-0.21365213,0.4345561,3.0654964,-3.7090516,8.544943,-0.17043728,-0.06378083,0.037815772,3.1256247,-4.1784663,8.394022"
650,"651,-0.10224757,-0.232109,0.43390796,3.1433723,-4.0169497,8.375781,-0.17043728,-0.06378083,0.037815772,3.1256247,-4.1784663,8.394022"
651,"652,-0.10224757,-0.232109,0.43390796,3.1433723,-4.0169497,8.375781,-0.17043728,-0.06378083,0.037815772,3.1256247,-4.1784663,8.394022"
652,"653,-0.10224757,-0.232109,0.43390796,3.1433723,-4.0169497,8.375781,-0.11065108,-0.104392834,0.03448692,3.1256247,-4.1784663,8.394022"
653,"654,-0.10224757,-0.232109,0.43390796,3.1433723,-4.0169497,8.375781,-0.11065108,-0.104392834,0.03448692,3.1256247,-4.1784663,8.394022"
654,"655,-0.10224757,-0.232109,0.43390796,3.1433723,-4.0169497,8.375781,-0.11065108,-0.104392834,0.03448692,3.339184,-4.4602213,8.188837"
655,"656,-0.10224757,-0.232109,0.43390796,3.1433723,-4.0169497,8.375781,-0.11065108,-0.104392834,0.03448692,3.339184,-4.4602213,8.188837"
656,"657,-0.11494962,-0.24441889,0.43364486,3.2810442,-4.2243004,8.219515,-0.11065108,-0.104392834,0.03448692,3.339184,-4.4602213,8.188837"
657,"658,-0.11494962,-0.24441889,0.43364486,3.2810442,-4.2243004,8.219515,-0.11065108,-0.104392834,0.03448692,3.339184,-4.4602213,8.188837"
658,"659,-0.11494962,-0.24441889,0.43364486,3.2810442,-4.2243004,8.219515,-0.082422405,-0.067642294,0.026897134,3.339184,-4.4602213,8.188837"
659,"660,-0.11494962,-0.24441889,0.43364486,3.2810442,-4.2243004,8.219515,-0.082422405,-0.067642294,0.026897134,3.339184,-4.4602213,8.188837"
660,"661,-0.11494962,-0.24441889,0.43364486,3.2810442,-4.2243004,8.219515,-0.082422405,-0.067642294,0.026897134,3.411567,-4.5936213,8.081161"
661,"662,-0.11494962,-0.24441889,0.43364486,3.2810442,-4.2243004,8.219515,-0.082422405,-0.067642294,0.026897134,3.411567,-4.5936213,8.081161"
662,"663,-0.1210073,-0.25744635,0.43506077,3.3670795,-4.3781548,8.10339,-0.082422405,-0.067642294,0.026897134,3.411567,-4.5936213,8.081161"
663,"664,-0.1210073,-0.25744635,0.43506077,3.3670795,-4.3781548,8.10339,-0.082422405,-0.067642294,0.026897134,3.411567,-4.5936213,8.081161"
664,"665,-0.1210073,-0.25744635,0.43506077,3.3670795,-4.3781548,8.10339,-0.02423405,-0.041144624,-0.008255556,3.411567,-4.5936213,8.081161"
665,"666,-0.1210073,-0.25744635,0.43506077,3.3670795,-4.3781548,8.10339,-0.02423405,-0.041144624,-0.008255556,3.411567,-4.5936213,8.081161"
666,"667,-0.1210073,-0.25744635,0.43506077,3.3670795,-4.3781548,8.10339,-0.02423405,-0.041144624,-0.008255556,3.482155,-4.6432724,8.022536"
667,"668,-0.1210073,-0.25744635,0.43506077,3.3670795,-4.3781548,8.10339,-0.02423405,-0.041144624,-0.008255556,3.482155,-4.6432724,8.022536"
668,"669,-0.12584646,-0.2664672,0.4361633,3.4384134,-4.4220715,8.049408,-0.02423405,-0.041144624,-0.008255556,3.482155,-4.6432724,8.022536"
669,"670,-0.12584646,-0.2664672,0.4361633,3.4384134,-4.4220715,8.049408,-0.02423405,-0.041144624,-0.008255556,3.482155,-4.6432724,8.022536"
670,"671,-0.12584646,-0.2664672,0.4361633,3.4384134,-4.4220715,8.049408,0.001065233,0.010918639,0.006258244,3.482155,-4.6432724,8.022536"
671,"672,-0.12584646,-0.2664672,0.4361633,3.4384134,-4.4220715,8.049408,0.001065233,0.010918639,0.006258244,3.482155,-4.6432724,8.022536"
672,"673,-0.12584646,-0.2664672,0.4361633,3.4384134,-4.4220715,8.049408,0.001065233,0.010918639,0.006258244,3.4695928,-4.67737,8.012366"
673,"674,-0.12584646,-0.2664672,0.4361633,3.4384134,-4.4220715,8.049408,0.001065233,0.010918639,0.006258244,3.4695928,-4.67737,8.012366"
674,"675,-0.12623365,-0.27140275,0.4359781,3.4246316,-4.4879208,8.018781,0.001065233,0.010918639,0.006258244,3.4695928,-4.67737,8.012366"
675,"676,-0.12623365,-0.27140275,0.4359781,3.4246316,-4.4879208,8.018781,0.001065233,0.010918639,0.006258244,3.4695928,-4.67737,8.012366"
676,"677,-0.12623365,-0.27140275,0.4359781,3.4246316,-4.4879208,8.018781,0.034886383,0.004127778,-0.019839965,3.4695928,-4.67737,8.012366"
677,"678,-0.12623365,-0.27140275,0.4359781,3.4246316,-4.4879208,8.018781,0.034886383,0.004127778,-0.019839965,3.4695928,-4.67737,8.012366"
678,"679,-0.12623365,-0.27140275,0.4359781,3.4246316,-4.4879208,8.018781,0.034886383,0.004127778,-0.019839965,3.4869409,-4.538586,8.07458"
679,"680,-0.12623365,-0.27140275,0.4359781,3.4246316,-4.4879208,8.018781,0.034886383,0.004127778,-0.019839965,3.4869409,-4.538586,8.07458"
680,"681,-0.12810823,-0.2733939,0.44088617,3.4335837,-4.4696794,8.025139,0.034886383,0.004127778,-0.019839965,3.4869409,-4.538586,8.07458"
681,"682,-0.12810823,-0.2733939,0.44088617,3.4335837,-4.4696794,8.025139,0.034886383,0.004127778,-0.019839965,3.4869409,-4.538586,8.07458"
682,"683,-0.12810823,-0.2733939,0.44088617,3.4335837,-4.4696794,8.025139,0.013049104,-0.0011983871,-0.008521864,3.4869409,-4.538586,8.07458"
683,"684,-0.12810823,-0.2733939,0.44088617,3.4335837,-4.4696794,8.025139,0.013049104,-0.0011983871,-0.008521864,3.4869409,-4.538586,8.07458"
684,"685,-0.12810823,-0.2733939,0.44088617,3.4335837,-4.4696794,8.025139,0.013049104,-0.0011983871,-0.008521864,3.4947174,-4.5320063,8.069196"
685,"686,-0.12810823,-0.2733939,0.44088617,3.4335837,-4.4696794,8.025139,0.013049104,-0.0011983871,-0.008521864,3.4947174,-4.5320063,8.069196"
686,"687,-0.12618999,-0.27369303,0.44346407,3.4533987,-4.4595947,8.022246,0.013049104,-0.0011983871,-0.008521864,3.4947174,-4.5320063,8.069196"
687,"688,-0.12618999,-0.27369303,0.44346407,3.4533987,-4.4595947,8.022246,0.013049104,-0.0011983871,-0.008521864,3.4947174,-4.5320063,8.069196"
688,"689,-0.12618999,-0.27369303,0.44346407,3.4533987,-4.4595947,8.022246,0.0066577066,0.007856093,0.0025299285,3.4947174,-4.5320063,8.069196"
689,"690,-0.12618999,-0.27369303,0.44346407,3.4533987,-4.4595947,8.022246,0.0066577066,0.007856093,0.0025299285,3.4947174,-4.5320063,8.069196"
690,"691,-0.12618999,-0.27369303,0.44346407,3.4533987,-4.4595947,8.022246,0.0066577066,0.007856093,0.0025299285,3.4881372,-4.4985065,8.086544"
691,"692,-0.12618999,-0.27369303,0.44346407,3.4533987,-4.4595947,8.022246,0.0066577066,0.007856093,0.0025299285,3.4881372,-4.4985065,8.086544"
692,"693,-0.124865144,-0.27456868,0.44454962,3.446773,-4.4606547,8.024507,0.0066577066,0.007856093,0.0025299285,3.4881372,-4.4985065,8.086544"
693,"694,-0.124865144,-0.27456868,0.44454962,3.446773,-4.4606547,8.024507,0.0066577066,0.007856093,0.0025299285,3.4881372,-4.4985065,8.086544"
694,"695,-0.124865144,-0.27456868,0.44454962,3.446773,-4.4606547,8.024507,-0.0035951615,0.010252868,0.008655018,3.4881372,-4.4985065,8.086544"
695,"696,-0.124865144,-0.27456868,0.44454962,3.446773,-4.4606547,8.024507,-0.0035951615,0.010252868,0.008655018,3.4881372,-4.4985065,8.086544"
696,"697,-0.124865144,-0.27456868,0.44454962,3.446773,-4.4606547,8.024507,-0.0035951615,0.010252868,0.008655018,3.4474592,-4.5373898,8.089535"
697,"698,-0.124865144,-0.27456868,0.44454962,3.446773,-4.4606547,8.024507,-0.0035951615,0.010252868,0.008655018,3.4474592,-4.5373898,8.089535"
698,"699,-0.12512355,-0.27424103,0.44442096,3.4273493,-4.4744973,8.02512,-0.0035951615,0.010252868,0.008655018,3.4474592,-4.5373898,8.089535"
699,"700,-0.12512355,-0.27424103,0.44442096,3.4273493,-4.4744973,8.02512,-0.0035951615,0.010252868,0.008655018,3.4474592,-4.5373898,8.089535"
700,"701,-0.12512355,-0.27424103,0.44442096,3.4273493,-4.4744973,8.02512,0.008521864,-0.00026630826,-0.0022636203,3.4474592,-4.5373898,8.089535"
701,"702,-0.12512355,-0.27424103,0.44442096,3.4273493,-4.4744973,8.02512,0.008521864,-0.00026630826,-0.0022636203,3.4474592,-4.5373898,8.089535"
702,"703,-0.12512355,-0.27424103,0.44442096,3.4273493,-4.4744973,8.02512,0.008521864,-0.00026630826,-0.0022636203,3.4390843,-4.512265,8.103892"
703,"704,-0.12512355,-0.27424103,0.44442096,3.4273493,-4.4744973,8.02512,0.008521864,-0.00026630826,-0.0022636203,3.4390843,-4.512265,8.103892"
704,"705,-0.12614988,-0.27371335,0.4447691,3.4253974,-4.468929,8.029054,0.008521864,-0.00026630826,-0.0022636203,3.4390843,-4.512265,8.103892"
705,"706,-0.12614988,-0.27371335,0.4447691,3.4253974,-4.468929,8.029054,0.008521864,-0.00026630826,-0.0022636203,3.4390843,-4.512265,8.103892"
706,"707,-0.12614988,-0.27371335,0.4447691,3.4253974,-4.468929,8.029054,0.0118507175,-0.003195699,-0.007190323,3.4390843,-4.512265,8.103892"
707,"708,-0.12614988,-0.27371335,0.4447691,3.4253974,-4.468929,8.029054,0.0118507175,-0.003195699,-0.007190323,3.4390843,-4.512265,8.103892"
708,"709,-0.12614988,-0.27371335,0.4447691,3.4253974,-4.468929,8.029054,0.0118507175,-0.003195699,-0.007190323,3.4689946,-4.508676,8.094919"
709,"710,-0.12614988,-0.27371335,0.4447691,3.4253974,-4.468929,8.029054,0.0118507175,-0.003195699,-0.007190323,3.4689946,-4.508676,8.094919"
710,"711,-0.12607887,-0.2733794,0.444332,3.4325092,-4.4544663,8.034052,0.0118507175,-0.003195699,-0.007190323,3.4689946,-4.508676,8.094919"
711,"712,-0.12607887,-0.2733794,0.444332,3.4325092,-4.4544663,8.034052,0.0118507175,-0.003195699,-0.007190323,3.4689946,-4.508676,8.094919"
712,"713,-0.12607887,-0.2733794,0.444332,3.4325092,-4.4544663,8.034052,0.022769356,-0.0018641578,-0.013848029,3.4689946,-4.508676,8.094919"
713,"714,-0.12607887,-0.2733794,0.444332,3.4325092,-4.4544663,8.034052,0.022769356,-0.0018641578,-0.013848029,3.4689946,-4.508676,8.094919"
714,"715,-0.12607887,-0.2733794,0.444332,3.4325092,-4.4544663,8.034052,0.022769356,-0.0018641578,-0.013848029,3.482155,-4.442275,8.118847"
715,"716,-0.12607887,-0.2733794,0.444332,3.4325092,-4.4544663,8.034052,0.022769356,-0.0018641578,-0.013848029,3.482155,-4.442275,8.118847"
716,"717,-0.1254669,-0.2731948,0.44356975,3.4429245,-4.4191546,8.049082,0.022769356,-0.0018641578,-0.013848029,3.482155,-4.442275,8.118847"
717,"718,-0.1254669,-0.2731948,0.44356975,3.4429245,-4.4191546,8.049082,0.022769356,-0.0018641578,-0.013848029,3.482155,-4.442275,8.118847"
718,"719,-0.124208726,-0.27236596,0.44151127,3.4329321,-4.4020967,8.062686,0.003195699,0.008655018,0.0014646954,3.4624143,-4.4339004,8.136195"
719,"720,-0.124208726,-0.27236596,0.44151127,3.4329321,-4.4020967,8.062686,0.003195699,0.008655018,0.0014646954,3.44387,-4.3968115,8.155337"
720,"721,-0.124208726,-0.27236596,0.44151127,3.4329321,-4.4020967,8.062686,0.003195699,0.008655018,0.0014646954,3.44387,-4.3968115,8.155337"
721,"722,-0.124208726,-0.27236596,0.44151127,3.4329321,-4.4020967,8.062686,0.003195699,0.008655018,0.0014646954,3.44387,-4.3968115,8.155337"
722,"723,-0.124119096,-0.2711307,0.44006142,3.4207284,-4.3936315,8.072484,0.003195699,0.008655018,0.0014646954,3.44387,-4.3968115,8.155337"
723,"724,-0.124119096,-0.2711307,0.44006142,3.4207284,-4.3936315,8.072484,0.003195699,0.008655018,0.0014646954,3.44387,-4.3968115,8.155337"
724,"725,-0.124119096,-0.2711307,0.44006142,3.4207284,-4.3936315,8.072484,-0.005326165,-0.00026630826,0.0026630824,3.44387,-4.3968115,8.155337"
725,"726,-0.124119096,-0.2711307,0.44006142,3.4207284,-4.3936315,8.072484,-0.005326165,-0.00026630826,0.0026630824,3.437888,-4.442275,8.145766"
726,"727,-0.124119096,-0.2711307,0.44006142,3.4207284,-4.3936315,8.072484,-0.005326165,-0.00026630826,0.0026630824,3.437888,-4.442275,8.145766"
727,"728,-0.124119096,-0.2711307,0.44006142,3.4207284,-4.3936315,8.072484,-0.005326165,-0.00026630826,0.0026630824,3.437888,-4.442275,8.145766"
728,"729,-0.12432401,-0.27011365,0.43911675,3.415127,-4.3946724,8.074289,-0.005326165,-0.00026630826,0.0026630824,3.437888,-4.442275,8.145766"
729,"730,-0.12432401,-0.27011365,0.43911675,3.415127,-4.3946724,8.074289,-0.005326165,-0.00026630826,0.0026630824,3.437888,-4.442275,8.145766"
730,"731,-0.12432401,-0.27011365,0.43911675,3.415127,-4.3946724,8.074289,0.00079892477,0.0015978495,-0.0017310036,3.437888,-4.442275,8.145766"
731,"732,-0.12432401,-0.27011365,0.43911675,3.415127,-4.3946724,8.074289,0.00079892477,0.0015978495,-0.0017310036,3.4372897,-4.4165525,8.146365"
732,"733,-0.12432401,-0.27011365,0.43911675,3.415127,-4.3946724,8.074289,0.00079892477,0.0015978495,-0.0017310036,3.4372897,-4.4165525,8.146365"
733,"734,-0.12432401,-0.27011365,0.43911675,3.415127,-4.3946724,8.074289,0.00079892477,0.0015978495,-0.0017310036,3.4372897,-4.4165525,8.146365"
734,"735,-0.12454506,-0.26984134,0.43901193,3.4147434,-4.390511,8.0767145,0.00079892477,0.0015978495,-0.0017310036,3.4372897,-4.4165525,8.146365"
735,"736,-0.12454506,-0.26984134,0.43901193,3.4147434,-4.390511,8.0767145,0.00079892477,0.0015978495,-0.0017310036,3.4372897,-4.4165525,8.146365"
736,"737,-0.12454506,-0.26984134,0.43901193,3.4147434,-4.390511,8.0767145,0.0027962367,0.0029293909,-0.0017310036,3.4372897,-4.4165525,8.146365"
737,"738,-0.12454506,-0.26984134,0.43901193,3.4147434,-4.390511,8.0767145,0.0027962367,0.0029293909,-0.0017310036,3.449852,-4.434499,8.145766"
738,"739,-0.12454506,-0.26984134,0.43901193,3.4147434,-4.390511,8.0767145,0.0027962367,0.0029293909,-0.0017310036,3.449852,-4.434499,8.145766"
739,"740,-0.12454506,-0.26984134,0.43901193,3.4147434,-4.390511,8.0767145,0.0027962367,0.0029293909,-0.0017310036,3.449852,-4.434499,8.145766"
740,"741,-0.12445055,-0.26965573,0.43872148,3.4119463,-4.388613,8.078929,0.0027962367,0.0029293909,-0.0017310036,3.449852,-4.434499,8.145766"
741,"742,-0.12445055,-0.26965573,0.43872148,3.4119463,-4.388613,8.078929,0.0027962367,0.0029293909,-0.0017310036,3.449852,-4.434499,8.145766"
742,"743,-0.12449818,-0.26942438,0.4385071,3.408668,-4.3820496,8.083874,0.012782796,-0.0018641578,-0.0077229394,3.4193435,-4.409972,8.150552"
743,"744,-0.12449818,-0.26942438,0.4385071,3.408668,-4.3820496,8.083874,0.012782796,-0.0018641578,-0.0077229394,3.4193435,-4.409972,8.150552"
744,"745,-0.12449818,-0.26942438,0.4385071,3.408668,-4.3820496,8.083874,0.012782796,-0.0018641578,-0.0077229394,3.4426737,-4.412365,8.157132"
745,"746,-0.12449818,-0.26942438,0.4385071,3.408668,-4.3820496,8.083874,0.012782796,-0.0018641578,-0.0077229394,3.4426737,-4.412365,8.157132"
746,"747,-0.12444096,-0.26898253,0.4379656,3.415633,-4.372922,8.085876,0.012782796,-0.0018641578,-0.0077229394,3.4426737,-4.412365,8.157132"
747,"748,-0.12444096,-0.26898253,0.4379656,3.415633,-4.372922,8.085876,0.012782796,-0.0018641578,-0.0077229394,3.4426737,-4.412365,8.157132"
748,"749,-0.12396219,-0.26901382,0.43757463,3.421439,-4.354749,8.093226,-0.0014646954,0.0009320789,0.0047935485,3.4534414,-4.369892,8.1637125"
749,"750,-0.12396219,-0.26901382,0.43757463,3.421439,-4.354749,8.093226,-0.0014646954,0.0009320789,0.0047935485,3.4594233,-4.403392,8.152945"
750,"751,-0.12396219,-0.26901382,0.43757463,3.421439,-4.354749,8.093226,-0.0014646954,0.0009320789,0.0047935485,3.4594233,-4.403392,8.152945"
751,"752,-0.12396219,-0.26901382,0.43757463,3.421439,-4.354749,8.093226,-0.0014646954,0.0009320789,0.0047935485,3.4594233,-4.403392,8.152945"
752,"753,-0.12328593,-0.26862782,0.43654773,3.4237115,-4.3667026,8.08582,-0.0014646954,0.0009320789,0.0047935485,3.4594233,-4.403392,8.152945"
753,"754,-0.12328593,-0.26862782,0.43654773,3.4237115,-4.3667026,8.08582,-0.0014646954,0.0009320789,0.0047935485,3.4594233,-4.403392,8.152945"
754,"755,-0.12328593,-0.26862782,0.43654773,3.4237115,-4.3667026,8.08582,-0.010519176,0.004260932,0.010252868,3.4594233,-4.403392,8.152945"
755,"756,-0.12328593,-0.26862782,0.43654773,3.4237115,-4.3667026,8.08582,-0.010519176,0.004260932,0.010252868,3.434897,-4.4231324,8.157731"
756,"757,-0.12328593,-0.26862782,0.43654773,3.4237115,-4.3667026,8.08582,-0.010519176,0.004260932,0.010252868,3.434897,-4.4231324,8.157731"
757,"758,-0.12328593,-0.26862782,0.43654773,3.4237115,-4.3667026,8.08582,-0.010519176,0.004260932,0.010252868,3.434897,-4.4231324,8.157731"
758,"759,-0.12352063,-0.2692221,0.4374134,3.4111981,-4.3748665,8.086696,-0.010519176,0.004260932,0.010252868,3.434897,-4.4231324,8.157731"
759,"760,-0.12352063,-0.2692221,0.4374134,3.4111981,-4.3748665,8.086696,-0.010519176,0.004260932,0.010252868,3.434897,-4.4231324,8.157731"
760,"761,-0.12352063,-0.2692221,0.4374134,3.4111981,-4.3748665,8.086696,0.0026630824,0.0054593193,-0.001065233,3.434897,-4.4231324,8.157731"
761,"762,-0.12352063,-0.2692221,0.4374134,3.4111981,-4.3748665,8.086696,0.0026630824,0.0054593193,-0.001065233,3.426522,-4.4189453,8.156534"
762,"763,-0.12352063,-0.2692221,0.4374134,3.4111981,-4.3748665,8.086696,0.0026630824,0.0054593193,-0.001065233,3.426522,-4.4189453,8.156534"
763,"764,-0.12352063,-0.2692221,0.4374134,3.4111981,-4.3748665,8.086696,0.0026630824,0.0054593193,-0.001065233,3.426522,-4.4189453,8.156534"
764,"765,-0.124166206,-0.26884195,0.4375653,3.4016404,-4.38289,8.086378,0.0026630824,0.0054593193,-0.001065233,3.426522,-4.4189453,8.156534"
765,"766,-0.124166206,-0.26884195,0.4375653,3.4016404,-4.38289,8.086378,0.0026630824,0.0054593193,-0.001065233,3.426522,-4.4189453,8.156534"
766,"767,-0.124166206,-0.26884195,0.4375653,3.4016404,-4.38289,8.086378,0.001065233,-0.001065233,-0.003195699,3.426522,-4.4189453,8.156534"
767,"768,-0.124166206,-0.26884195,0.4375653,3.4016404,-4.38289,8.086378,0.001065233,-0.001065233,-0.003195699,3.429513,-4.423731,8.155337"
768,"769,-0.124166206,-0.26884195,0.4375653,3.4016404,-4.38289,8.086378,0.001065233,-0.001065233,-0.003195699,3.429513,-4.423731,8.155337"
769,"770,-0.124166206,-0.26884195,0.4375653,3.4016404,-4.38289,8.086378,0.001065233,-0.001065233,-0.003195699,3.429513,-4.423731,8.155337"
770,"771,-0.1247059,-0.26862225,0.43780112,3.40258,-4.3714056,8.092196,0.001065233,-0.001065233,-0.003195699,3.429513,-4.423731,8.155337"
771,"772,-0.1247059,-0.26862225,0.43780112,3.40258,-4.3714056,8.092196,0.001065233,-0.001065233,-0.003195699,3.429513,-4.423731,8.155337"
772,"773,-0.1247059,-0.26862225,0.43780112,3.40258,-4.3714056,8.092196,0.010119714,0.0026630824,-0.008521864,3.429513,-4.423731,8.155337"
773,"774,-0.1247059,-0.26862225,0.43780112,3.40258,-4.3714056,8.092196,0.010119714,0.0026630824,-0.008521864,3.431906,-4.386044,8.17448"
774,"775,-0.1247059,-0.26862225,0.43780112,3.40258,-4.3714056,8.092196,0.010119714,0.0026630824,-0.008521864,3.431906,-4.386044,8.17448"
775,"776,-0.1247059,-0.26862225,0.43780112,3.40258,-4.3714056,8.092196,0.010119714,0.0026630824,-0.008521864,3.431906,-4.386044,8.17448"
776,"777,-0.12437345,-0.26822385,0.4370633,3.404776,-4.364182,8.095172,0.010119714,0.0026630824,-0.008521864,3.431906,-4.386044,8.17448"
777,"778,-0.12437345,-0.26822385,0.4370633,3.404776,-4.364182,8.095172,0.010119714,0.0026630824,-0.008521864,3.431906,-4.386044,8.17448"
778,"779,-0.12437345,-0.26822385,0.4370633,3.404776,-4.364182,8.095172,0.0009320789,-0.0033288533,-0.002130466,3.431906,-4.386044,8.17448"
779,"780,-0.12437345,-0.26822385,0.4370633,3.404776,-4.364182,8.095172,0.0009320789,-0.0033288533,-0.002130466,3.4504502,-4.3782673,8.164909"
780,"781,-0.12437345,-0.26822385,0.4370633,3.404776,-4.364182,8.095172,0.0009320789,-0.0033288533,-0.002130466,3.4504502,-4.3782673,8.164909"
781,"782,-0.12437345,-0.26822385,0.4370633,3.404776,-4.364182,8.095172,0.0009320789,-0.0033288533,-0.002130466,3.4504502,-4.3782673,8.164909"
782,"783,-0.12410833,-0.26806387,0.43665078,3.4104161,-4.3519154,8.0994,0.0009320789,-0.0033288533,-0.002130466,3.4504502,-4.3782673,8.164909"
783,"784,-0.12410833,-0.26806387,0.43665078,3.4104161,-4.3519154,8.0994,0.0009320789,-0.0033288533,-0.002130466,3.4504502,-4.3782673,8.164909"
784,"785,-0.12410833,-0.26806387,0.43665078,3.4104161,-4.3519154,8.0994,0.00026630826,0.008921326,0.0015978495,3.4504502,-4.3782673,8.164909"
785,"786,-0.12410833,-0.26806387,0.43665078,3.4104161,-4.3519154,8.0994,0.00026630826,0.008921326,0.0015978495,3.4199417,-4.3932223,8.172088"
786,"787,-0.12410833,-0.26806387,0.43665078,3.4104161,-4.3519154,8.0994,0.00026630826,0.008921326,0.0015978495,3.4199417,-4.3932223,8.172088"
787,"788,-0.12410833,-0.26806387,0.43665078,3.4104161,-4.3519154,8.0994,0.00026630826,0.008921326,0.0015978495,3.4199417,-4.3932223,8.172088"
788,"789,-0.12359136,-0.26790056,0.4360126,3.4019804,-4.3556237,8.100954,0.00026630826,0.008921326,0.0015978495,3.4199417,-4.3932223,8.172088"
789,"790,-0.12359136,-0.26790056,0.4360126,3.4019804,-4.3556237,8.100954,0.00026630826,0.008921326,0.0015978495,3.4199417,-4.3932223,8.172088"
790,"791,-0.12359136,-0.26790056,0.4360126,3.4019804,-4.3556237,8.100954,-0.0009320789,-0.001065233,0.0035951615,3.4199417,-4.3932223,8.172088"
791,"792,-0.12359136,-0.26790056,0.4360126,3.4019804,-4.3556237,8.100954,-0.0009320789,-0.001065233,0.0035951615,3.4211383,-4.371089,8.176873"
792,"793,-0.12359136,-0.26790056,0.4360126,3.4019804,-4.3556237,8.100954,-0.0009320789,-0.001065233,0.0035951615,3.4211383,-4.371089,8.176873"
793,"794,-0.12359136,-0.26790056,0.4360126,3.4019804,-4.3556237,8.100954,-0.0009320789,-0.001065233,0.0035951615,3.4211383,-4.371089,8.176873"
794,"795,-0.12397972,-0.26757303,0.4359926,3.3961806,-4.351349,8.105683,-0.0009320789,-0.001065233,0.0035951615,3.4211383,-4.371089,8.176873"
795,"796,-0.12397972,-0.26757303,0.4359926,3.3961806,-4.351349,8.105683,0.0019973118,-0.0018641578,-0.001065233,3.4211383,-4.371089,8.176873"
796,"797,-0.12397972,-0.26757303,0.4359926,3.3961806,-4.351349,8.105683,0.0019973118,-0.0018641578,-0.001065233,3.4211383,-4.371089,8.176873"
797,"798,-0.12397972,-0.26757303,0.4359926,3.3961806,-4.351349,8.105683,0.0019973118,-0.0018641578,-0.001065233,3.4241292,-4.393821,8.17448"
798,"799,-0.12397972,-0.26757303,0.4359926,3.3961806,-4.351349,8.105683,0.0019973118,-0.0018641578,-0.001065233,3.4241292,-4.393821,8.17448"
799,"800,-0.12397972,-0.26757303,0.4359926,3.3961806,-4.351349,8.105683,0.0019973118,-0.0018641578,-0.001065233,3.4241292,-4.393821,8.17448"
800,"801,-0.12406674,-0.26708165,0.43552434,3.3979785,-4.353944,8.103537,0.0019973118,-0.0018641578,-0.001065233,3.4241292,-4.393821,8.17448"
801,"802,-0.12406674,-0.26708165,0.43552434,3.3979785,-4.353944,8.103537,0.0019973118,-0.0018641578,-0.001065233,3.4241292,-4.393821,8.17448"
802,"803,-0.12406674,-0.26708165,0.43552434,3.3979785,-4.353944,8.103537,0.0030625449,-0.0046603945,-0.0018641578,3.4241292,-4.393821,8.17448"
803,"804,-0.12406674,-0.26708165,0.43552434,3.3979785,-4.353944,8.103537,0.0030625449,-0.0046603945,-0.0018641578,3.4157543,-4.3686957,8.184649"
804,"805,-0.12406674,-0.26708165,0.43552434,3.3979785,-4.353944,8.103537,0.0030625449,-0.0046603945,-0.0018641578,3.4157543,-4.3686957,8.184649"
805,"806,-0.12406674,-0.26708165,0.43552434,3.3979785,-4.353944,8.103537,0.0030625449,-0.0046603945,-0.0018641578,3.4157543,-4.3686957,8.184649"
806,"807,-0.12407331,-0.26728344,0.43575403,3.4027443,-4.3394537,8.109307,0.0030625449,-0.0046603945,-0.0018641578,3.4157543,-4.3686957,8.184649"
807,"808,-0.12407331,-0.26728344,0.43575403,3.4027443,-4.3394537,8.109307,0.003195699,-0.0038614697,-0.0038614697,3.4157543,-4.3686957,8.184649"
808,"809,-0.12407331,-0.26728344,0.43575403,3.4027443,-4.3394537,8.109307,0.003195699,-0.0038614697,-0.0038614697,3.4157543,-4.3686957,8.184649"
809,"810,-0.12407331,-0.26728344,0.43575403,3.4027443,-4.3394537,8.109307,0.003195699,-0.0038614697,-0.0038614697,3.4654055,-4.3782673,8.166105"
810,"811,-0.12407331,-0.26728344,0.43575403,3.4027443,-4.3394537,8.109307,0.003195699,-0.0038614697,-0.0038614697,3.4654055,-4.3782673,8.166105"
811,"812,-0.12407331,-0.26728344,0.43575403,3.4027443,-4.3394537,8.109307,0.003195699,-0.0038614697,-0.0038614697,3.4654055,-4.3782673,8.166105"
812,"813,-0.1235262,-0.2669863,0.43494248,3.4128144,-4.338083,8.105807,0.003195699,-0.0038614697,-0.0038614697,3.4654055,-4.3782673,8.166105"
813,"814,-0.1235262,-0.2669863,0.43494248,3.4128144,-4.338083,8.105807,-0.0037283157,0.0069240145,0.0029293909,3.4654055,-4.3782673,8.166105"
814,"815,-0.1235262,-0.2669863,0.43494248,3.4128144,-4.338083,8.105807,-0.0037283157,0.0069240145,0.0029293909,3.4654055,-4.3782673,8.166105"
815,"816,-0.1235262,-0.2669863,0.43494248,3.4128144,-4.338083,8.105807,-0.0037283157,0.0069240145,0.0029293909,3.429513,-4.3728833,8.181659"
816,"817,-0.1235262,-0.2669863,0.43494248,3.4128144,-4.338083,8.105807,-0.0037283157,0.0069240145,0.0029293909,3.429513,-4.3728833,8.181659"
817,"818,-0.1235262,-0.2669863,0.43494248,3.4128144,-4.338083,8.105807,-0.0037283157,0.0069240145,0.0029293909,3.429513,-4.3728833,8.181659"
818,"819,-0.123143554,-0.2674967,0.43517074,3.404488,-4.336872,8.109957,-0.0037283157,0.0069240145,0.0029293909,3.429513,-4.3728833,8.181659"
819,"820,-0.123143554,-0.2674967,0.43517074,3.404488,-4.336872,8.109957,-0.0037283157,0.0069240145,0.0029293909,3.429513,-4.3728833,8.181659"
820,"821,-0.123143554,-0.2674967,0.43517074,3.404488,-4.336872,8.109957,0.00079892477,0.002130466,0.00026630826,3.429513,-4.3728833,8.181659"
821,"822,-0.123143554,-0.2674967,0.43517074,3.404488,-4.336872,8.109957,0.00079892477,0.002130466,0.00026630826,3.426522,-4.3722854,8.183454"
822,"823,-0.123143554,-0.2674967,0.43517074,3.404488,-4.336872,8.109957,0.00079892477,0.002130466,0.00026630826,3.426522,-4.3722854,8.183454"
823,"824,-0.123143554,-0.2674967,0.43517074,3.404488,-4.336872,8.109957,0.00079892477,0.002130466,0.00026630826,3.426522,-4.3722854,8.183454"
824,"825,-0.123397805,-0.2669837,0.43482667,3.4001324,-4.34162,8.109242,0.00079892477,0.002130466,0.00026630826,3.426522,-4.3722854,8.183454"
825,"826,-0.123397805,-0.2669837,0.43482667,3.4001324,-4.34162,8.109242,-0.0011983871,0.0023967742,0.0014646954,3.426522,-4.3722854,8.183454"
826,"827,-0.123397805,-0.2669837,0.43482667,3.4001324,-4.34162,8.109242,-0.0011983871,0.0023967742,0.0014646954,3.426522,-4.3722854,8.183454"
827,"828,-0.123397805,-0.2669837,0.43482667,3.4001324,-4.34162,8.109242,-0.0011983871,0.0023967742,0.0014646954,3.4187453,-4.3782673,8.179266"
828,"829,-0.123397805,-0.2669837,0.43482667,3.4001324,-4.34162,8.109242,-0.0011983871,0.0023967742,0.0014646954,3.4187453,-4.3782673,8.179266"
829,"830,-0.123397805,-0.2669837,0.43482667,3.4001324,-4.34162,8.109242,-0.0011983871,0.0023967742,0.0014646954,3.4187453,-4.3782673,8.179266"
830,"831,-0.123673424,-0.2669243,0.4350033,3.3947718,-4.3383865,8.113218,-0.0011983871,0.0023967742,0.0014646954,3.4187453,-4.3782673,8.179266"
831,"832,-0.123673424,-0.2669243,0.4350033,3.3947718,-4.3383865,8.113218,0.0046603945,0.0045272405,-0.0034620073,3.4187453,-4.3782673,8.179266"
832,"833,-0.123673424,-0.2669243,0.4350033,3.3947718,-4.3383865,8.113218,0.0046603945,0.0045272405,-0.0034620073,3.4187453,-4.3782673,8.179266"
833,"834,-0.123673424,-0.2669243,0.4350033,3.3947718,-4.3383865,8.113218,0.0046603945,0.0045272405,-0.0034620073,3.409174,-4.3651066,8.187641"
834,"835,-0.123673424,-0.2669243,0.4350033,3.3947718,-4.3383865,8.113218,0.0046603945,0.0045272405,-0.0034620073,3.409174,-4.3651066,8.187641"
