,gravity.x,gravity.y,gravity.z,userAcceleration.x,userAcceleration.y,userAcceleration.z
0,0.593808,0.347762,-0.7255689999999999,-0.006376,0.007951,-0.006059
1,0.593884,0.347736,-0.7255199999999999,-0.007656,0.011349,-0.0062299999999999
2,0.593956,0.347698,-0.725479,-0.007759,0.011479,-0.009705
3,0.5939989999999999,0.347621,-0.725481,-0.007192,0.012395,-0.009245
4,0.5938939999999999,0.347451,-0.725648,-0.008765,0.013099,-0.009413
5,0.59365,0.347176,-0.725979,-0.009406,0.0116189999999999,-0.0067319999999999
6,0.593357,0.346853,-0.7263729999999999,-0.008702,0.010782,-0.008094
7,0.5930810000000001,0.346514,-0.7267600000000001,-0.006442,0.0081459999999999,-0.005967
8,0.592857,0.346195,-0.727096,-0.003807,0.00546,-0.00554
9,0.5927439999999999,0.34594,-0.727309,-0.001481,0.0022199999999999,-0.006364
10,0.5927859999999999,0.345773,-0.727354,-0.000806,0.002936,-0.006441
11,0.592893,0.345634,-0.727333,-0.002027,0.003549,-0.005424
12,0.5929369999999999,0.345479,-0.727371,-0.003399,0.0060079999999999,-0.001786
13,0.592947,0.345326,-0.727435,-0.002859,0.007519,-0.002393
14,0.593025,0.345199,-0.727432,-0.002754,0.008103,-0.007706
15,0.593118,0.34508,-0.727413,-0.005715,0.009153,-0.0055119999999999
16,0.59318,0.345005,-0.727398,-0.005808,0.0076409999999999,-0.004994
17,0.593212,0.344967,-0.7273890000000001,-0.005108,0.008854,-0.007794
18,0.5932529999999999,0.344896,-0.7273890000000001,-0.00524,0.010725,-0.005002
19,0.5933,0.3448469999999999,-0.727374,-0.0054399999999999,0.009553,-0.0055969999999999
20,0.593313,0.344786,-0.7273930000000001,-0.00556,0.008653,-0.008325
21,0.593283,0.344617,-0.727498,-0.004874,0.006534,-0.004573
22,0.59317,0.344441,-0.727672,-0.003968,0.007793,-0.004307
23,0.5929760000000001,0.344381,-0.727859,-0.002583,0.006251,-0.005905
24,0.592908,0.344258,-0.727973,-0.005871,0.007396,-0.005806
25,0.592863,0.344153,-0.728059,-0.00688,0.007882,-0.007628
26,0.5927560000000001,0.344104,-0.72817,-0.0052159999999999,0.011853,-0.005626
27,0.592683,0.343964,-0.728295,-0.005266,0.011093,-0.005134
28,0.59268,0.343855,-0.728349,-0.005064,0.009203,-0.005705
29,0.592696,0.343859,-0.728334,-0.005004,0.004438,-0.002913
30,0.5928140000000001,0.343827,-0.7282529999999999,-0.004435,0.006667,-0.005344
31,0.592882,0.343806,-0.728208,-0.004365,0.0062619999999999,-0.004992
32,0.592889,0.343873,-0.728171,-0.0037619999999999,0.008727,-0.003763
33,0.593032,0.343942,-0.728021,-0.0046689999999999,0.009543,-0.002264
34,0.593274,0.344046,-0.727775,-0.004209,0.012811,-0.004403
35,0.59353,0.344157,-0.727514,-0.0069209999999999,0.016408,-0.008601
36,0.5937560000000001,0.344129,-0.7273430000000001,-0.0079709999999999,0.015872,-0.009184
37,0.593701,0.343976,-0.72746,-0.009701,0.01308,-0.006243
38,0.593435,0.343842,-0.7277399999999999,-0.002431,0.012222,-0.004925
39,0.593209,0.343615,-0.728032,-0.0017929999999999,0.010999,-0.003978
40,0.593009,0.343474,-0.7282609999999999,-0.005026,0.005723,-0.003749
41,0.592925,0.343317,-0.728403,-0.004485,0.006079,-0.005117
42,0.592893,0.343182,-0.7284930000000001,-0.003339,0.0045049999999999,-0.004524
43,0.592889,0.343131,-0.728521,-0.0037159999999999,0.005166,-0.005625
44,0.592933,0.343092,-0.728503,-0.003303,0.008546,-0.005628
45,0.593055,0.3430559999999999,-0.728421,-0.003486,0.007271,-0.0060609999999999
46,0.593199,0.343074,-0.728295,-0.005568,0.010212,-0.007377
47,0.5933229999999999,0.343087,-0.7281880000000001,-0.006271,0.010947,-0.0038979999999999
48,0.593443,0.343138,-0.728066,-0.0067269999999999,0.009401,-0.005638
49,0.593596,0.343208,-0.727908,-0.007704,0.00869,-0.005292
50,0.5936359999999999,0.343279,-0.727843,-0.00454,0.0081459999999999,-0.005327
51,0.593618,0.343359,-0.727819,-0.004064,0.006021,-0.005533
52,0.5936130000000001,0.343504,-0.727755,-0.003037,0.007585,-0.004453
53,0.5936100000000001,0.343707,-0.727662,-0.0015539999999999,0.0142949999999999,-0.005157
54,0.593549,0.3438489999999999,-0.727644,0.002353,0.0160599999999999,-0.004625
55,0.593498,0.34385,-0.7276859999999999,-0.00016,0.014259,-0.006445
56,0.593406,0.3437429999999999,-0.727811,-0.0044469999999999,0.01107,-0.001254
57,0.5931529999999999,0.343646,-0.728063,-0.0083299999999999,0.01135,-0.003047
58,0.5928220000000001,0.343573,-0.728367,-0.01012,0.009073,-0.005581
59,0.592667,0.343464,-0.728545,-0.008728,0.011746,-0.011537
60,0.592733,0.343348,-0.728545,-0.0073599999999999,0.010472,-0.0073409999999999
61,0.593011,0.343284,-0.72835,-0.008248,0.005899,-0.006224
62,0.593378,0.343302,-0.728042,-0.0109959999999999,0.003881,-0.002564
63,0.5937439999999999,0.343353,-0.727719,-0.009836,0.0068819999999999,-0.005527
64,0.594187,0.34342,-0.727326,-0.008402,0.005441,-0.0061329999999999
65,0.594586,0.343564,-0.726932,-0.005536,0.012393,-0.003689
66,0.595126,0.34364,-0.726453,-0.006076,0.012317,-0.004168
67,0.595622,0.343717,-0.726011,-0.005321,0.01784,-0.00545
68,0.596075,0.343737,-0.725629,-0.003546,0.016065,-0.003207
69,0.596426,0.343617,-0.725398,-0.003897,0.0161849999999999,-0.003438
70,0.596748,0.343506,-0.725186,0.005166,0.01207,-0.002551
71,0.5970409999999999,0.34337,-0.725009,0.000691,0.008727,0.0005059999999999
72,0.597352,0.343179,-0.724843,-0.001999,0.00881,0.000448
73,0.5976239999999999,0.343062,-0.7246739999999999,-0.0014939999999999,0.0076159999999999,-0.000149
74,0.597709,0.343063,-0.724604,-0.004065,0.008118,-0.0035909999999999
75,0.597619,0.342971,-0.724722,-0.0035479999999999,0.006913,-0.00329
76,0.597413,0.3428469999999999,-0.72495,-0.004243,0.008426,-0.005885
77,0.59711,0.342692,-0.725273,-0.004428,0.009176,-0.005562
78,0.5967279999999999,0.342558,-0.725651,-0.002352,0.009615,-0.004177
79,0.596378,0.342491,-0.725969,-0.000858,0.009651,-0.002851
80,0.596094,0.342492,-0.726202,-0.002573,0.010093,-0.004297
81,0.595931,0.342526,-0.72632,-0.004806,0.01073,-0.005949
82,0.5958680000000001,0.342558,-0.7263569999999999,-0.005795,0.009889,-0.004646
83,0.595867,0.342564,-0.7263539999999999,-0.006527,0.011867,-0.005472
84,0.595881,0.342528,-0.72636,-0.0066939999999999,0.008226,-0.006367
85,0.595889,0.342528,-0.7263539999999999,-0.0070819999999999,0.008379,-0.003901
86,0.595925,0.34263,-0.726276,-0.007775,0.007849,-0.006817
87,0.595966,0.342758,-0.726183,-0.009052,0.009781,-0.006453
88,0.596013,0.342904,-0.726075,-0.012624,0.012915,-0.00589
89,0.596158,0.34302,-0.725901,-0.008481,0.015393,-0.004828
90,0.596318,0.343131,-0.7257170000000001,-3.6e-05,0.009912,-0.000159
91,0.596458,0.343253,-0.725544,0.000924,0.006875,-0.001919
92,0.596541,0.343384,-0.725414,-0.002699,0.008926,-0.0015
93,0.596579,0.343546,-0.725306,-0.003103,0.0132509999999999,-0.004552
94,0.5966560000000001,0.343645,-0.725196,-0.004874,0.013151,-0.007333
95,0.596687,0.343707,-0.72514,-0.007225,0.014371,-0.0094939999999999
96,0.596577,0.3437409999999999,-0.7252149999999999,-0.007817,0.011575,-0.008245
97,0.59644,0.343742,-0.725327,-0.012242,0.00895,-0.007964
98,0.5963609999999999,0.343751,-0.725388,-0.010362,0.006759,-0.002517
99,0.596438,0.3438199999999999,-0.725292,-0.004778,0.003958,-0.001942
100,0.5966239999999999,0.343996,-0.725056,-0.002187,0.009093,-0.00404
101,0.5968,0.34413,-0.724847,-0.00456,0.012681,-0.0026609999999999
102,0.596965,0.3442429999999999,-0.724657,-0.009364,0.01591,-0.0064519999999999
103,0.597173,0.344301,-0.724458,-0.010168,0.017333,-0.006987
104,0.597348,0.3442989999999999,-0.7243149999999999,-0.0121739999999999,0.01854,-0.0065349999999999
105,0.5974659999999999,0.344237,-0.724247,-0.00982,0.0143439999999999,-0.0052759999999999
106,0.5976199999999999,0.344139,-0.724167,-0.0036409999999999,0.013038,-0.005951
107,0.597762,0.343993,-0.724119,-0.000716,0.009339,-0.0034969999999999
108,0.59785,0.343842,-0.724118,-0.002894,0.009323,-0.004016
109,0.597982,0.3437119999999999,-0.72407,-0.002783,0.007072,-0.000875
110,0.59822,0.343685,-0.723887,0.000459,0.0076939999999999,-0.003499
111,0.598599,0.343707,-0.723563,-0.002896,0.007795,-0.004037
112,0.59895,0.3437469999999999,-0.723254,-0.005657,0.008471,-0.004789
113,0.599151,0.343781,-0.723071,-0.011047,0.017044,-0.010572
114,0.599043,0.343736,-0.723182,-0.00984,0.01866,-0.008828
115,0.598731,0.343715,-0.72345,-0.001471,0.01595,-0.003249
116,0.598484,0.3436909999999999,-0.723666,0.004666,0.012907,-0.002912
117,0.59829,0.343653,-0.7238439999999999,0.0063549999999999,0.0080159999999999,-2e-06
118,0.598152,0.343621,-0.723974,0.0067519999999999,0.006386,0.002752
119,0.597956,0.343602,-0.7241449999999999,0.003515,0.005855,-0.000617
120,0.597715,0.343627,-0.7243310000000001,0.00075,0.0053869999999999,0.000561
121,0.597567,0.3437489999999999,-0.724396,-0.0006889999999999,0.005357,0.000519
122,0.597536,0.343938,-0.7243310000000001,-0.004366,0.005289,-0.006443
123,0.59753,0.344151,-0.7242350000000001,-0.007625,0.007,-0.007225
124,0.5974109999999999,0.344331,-0.724248,-0.011352,0.010528,-0.007762
125,0.597129,0.344461,-0.7244189999999999,-0.010962,0.00997,-0.006828
126,0.596811,0.344545,-0.724641,-0.008218,0.014235,-0.00479
127,0.596571,0.344654,-0.724787,-0.0081,0.015285,-0.00524
128,0.5963649999999999,0.344842,-0.724867,-0.005377,0.012748,-0.005511
129,0.596082,0.345099,-0.7249770000000001,-0.004682,0.011103,-0.006514
130,0.595643,0.345376,-0.725206,-0.00522,0.014823,-0.00743
131,0.595023,0.345497,-0.725657,-0.006659,0.015755,-0.002034
132,0.594395,0.345471,-0.726184,-0.003254,0.0147889999999999,-0.0037049999999999
133,0.594023,0.345365,-0.726538,0.0002299999999999,0.008761,-0.0037619999999999
134,0.593992,0.34525,-0.726619,-0.002759,0.008509,-0.0001419999999999
135,0.59425,0.345316,-0.726376,-0.0036119999999999,0.010275,-0.001468
136,0.594745,0.345571,-0.72585,-0.008319,0.0121409999999999,-0.005733
137,0.5952310000000001,0.34578,-0.725352,-0.008546,0.013824,-0.00762
138,0.5955729999999999,0.345902,-0.725012,-0.00962,0.014816,-0.007593
139,0.595881,0.345894,-0.724763,-0.012187,0.01757,-0.010878
140,0.595925,0.345693,-0.724823,-0.012886,0.0194039999999999,-0.007064
141,0.595586,0.345259,-0.725308,-0.01093,0.019166,-0.006107
142,0.5949220000000001,0.344723,-0.726108,-0.011762,0.012272,-0.004757
143,0.594173,0.344165,-0.726985,-0.007809,0.00784,-0.004247
144,0.593601,0.3437,-0.727672,-0.006718,0.006047,-0.001164
145,0.593316,0.343452,-0.7280220000000001,0.003547,0.0008619999999999,0.0027559999999999
146,0.5935060000000001,0.343362,-0.7279100000000001,0.0008089999999999,0.000404,-0.006099
147,0.593923,0.343383,-0.7275590000000001,-0.001379,0.000108,-0.0059159999999999
148,0.594309,0.3434239999999999,-0.727224,-0.005564,0.005514,0.000372
149,0.594762,0.343453,-0.7268399999999999,-0.006444,0.010123,-0.004834
150,0.595233,0.343507,-0.726429,-0.00098,0.010879,-0.004711
151,0.595655,0.343634,-0.726023,-0.004926,0.014383,-0.0047659999999999
152,0.595966,0.3437969999999999,-0.725691,-0.0034969999999999,0.018127,-0.00435
153,0.596172,0.343964,-0.7254430000000001,-0.003184,0.0210419999999999,-0.006109
154,0.596276,0.344032,-0.725325,-0.002343,0.018196,-0.00313
155,0.5961890000000001,0.344024,-0.7254,0.000582,0.013871,-0.002368
156,0.5959909999999999,0.343863,-0.725639,0.001452,0.012628,-0.0010609999999999
157,0.595694,0.343657,-0.725981,0.0018399999999999,0.009111,-0.001436
158,0.59522,0.343518,-0.726435,-0.002644,0.010196,-0.002874
159,0.594676,0.34328,-0.726993,-0.002101,0.010434,-0.002316
160,0.594108,0.343142,-0.727522,-0.002173,0.005323,-0.0012369999999999
161,0.593615,0.343034,-0.727975,-0.0038179999999999,0.004684,-0.003242
162,0.593353,0.342985,-0.728212,-0.0035549999999999,0.004733,-0.003005
163,0.593238,0.343095,-0.7282529999999999,-0.007896,0.003813,-0.00487
164,0.593224,0.343281,-0.7281770000000001,-0.0076069999999999,0.008235,-0.0054659999999999
165,0.593312,0.343523,-0.727992,-0.006947,0.00865,-0.006353
166,0.593518,0.343756,-0.727713,-0.0091069999999999,0.011422,-0.00715
167,0.593793,0.343966,-0.72739,-0.0106629999999999,0.013151,-0.006512
168,0.5940989999999999,0.344144,-0.727056,-0.006773,0.017291,-0.006495
169,0.594395,0.3442989999999999,-0.726741,-0.006031,0.017532,-0.006261
170,0.5947560000000001,0.344451,-0.7263729999999999,-0.001616,0.014435,-0.001715
171,0.595116,0.344629,-0.725993,0.000709,0.015479,-0.001942
172,0.595456,0.344728,-0.725668,0.002536,0.017057,-0.003717
173,0.595676,0.344704,-0.725499,2.8000000000000003e-05,0.017158,-0.002879
174,0.5956600000000001,0.344561,-0.72558,0.002118,0.015668,-0.002219
175,0.595383,0.344312,-0.725925,-0.0009,0.017428,-0.00227
176,0.5948979999999999,0.344,-0.72647,-4.9e-05,0.015893,-0.005829
177,0.59422,0.343672,-0.7271810000000001,-0.002438,0.011446,-0.005134
178,0.593491,0.34341,-0.727899,-0.002198,0.007314,0.000192
179,0.592846,0.343113,-0.728564,-0.003659,0.006282,-0.001249
180,0.59235,0.342914,-0.729062,-0.00217,0.002316,0.000607
181,0.592061,0.342846,-0.729329,-0.005879,0.001194,-0.002178
182,0.591924,0.34284,-0.729442,-0.008596,0.0033659999999999,-0.0011949999999999
183,0.592039,0.342972,-0.729287,-0.012495,0.003967,-0.006202
184,0.592499,0.343203,-0.728804,-0.01439,0.0052159999999999,-0.0074319999999999
185,0.593233,0.343523,-0.728056,-0.014483,0.012815,-0.009173
186,0.594067,0.34387,-0.7272109999999999,-0.011792,0.019243,-0.009224
187,0.594737,0.344095,-0.726558,-0.00561,0.023687,-0.008062
188,0.59512,0.344154,-0.726216,-0.005017,0.0230949999999999,-0.004848
189,0.595303,0.344079,-0.726101,0.000324,0.024329,-0.002094
190,0.595388,0.343901,-0.726116,0.003855,0.021074,-0.001484
191,0.595322,0.343627,-0.7263,0.005996,0.016587,0.000958
192,0.595006,0.34325,-0.726737,0.006603,0.010433,0.000129
193,0.594527,0.342879,-0.727304,0.0031899999999999,0.005601,0.003717
194,0.594022,0.342523,-0.727884,0.001467,0.00231,-0.001486
195,0.593568,0.3422469999999999,-0.728384,0.000579,0.000801,-0.002588
196,0.593275,0.342087,-0.728698,-0.004514,0.002838,-0.0041659999999999
197,0.59313,0.342034,-0.728841,-0.0065209999999999,0.0064459999999999,-0.003764
198,0.59305,0.342064,-0.728892,-0.010012,0.005745,-0.004857
199,0.5930380000000001,0.342145,-0.7288640000000001,-0.011693,0.009479,-0.004764
200,0.593061,0.342323,-0.728761,-0.009412,0.011803,-0.005675
201,0.5930439999999999,0.342457,-0.728712,-0.007687,0.019039,-0.00548
202,0.592914,0.34245,-0.728821,-0.008884,0.019763,-0.006912
203,0.5926319999999999,0.342379,-0.7290840000000001,-0.0012619999999999,0.020765,-0.005459
204,0.592438,0.342174,-0.729338,-0.0010689999999999,0.02097,-0.0052049999999999
205,0.592321,0.341977,-0.729526,-0.0013779999999999,0.011554,-0.003339
206,0.592329,0.341841,-0.729582,-0.002806,0.0076159999999999,-0.001451
207,0.592446,0.341715,-0.7295470000000001,-0.000314,0.004065,-0.00196
208,0.592616,0.341686,-0.729422,-0.002178,0.002995,-0.0018399999999999
209,0.5928859999999999,0.34173,-0.729182,-0.00646,0.0065829999999999,-0.0045369999999999
210,0.593217,0.341888,-0.728838,-0.007036,0.009033,-0.003492
211,0.593558,0.342055,-0.728482,-0.007484,0.014009,-0.0057399999999999
212,0.593813,0.3422139999999999,-0.7282,-0.006762,0.017802,-0.004634
213,0.593957,0.342315,-0.728035,-0.008309,0.019837,-0.004463
214,0.593966,0.342311,-0.7280300000000001,-0.000963,0.0219159999999999,-0.00105
215,0.593797,0.342175,-0.7282310000000001,0.003325,0.020862,-0.00236
216,0.593471,0.341892,-0.72863,0.0046429999999999,0.013332,0.001045
217,0.593109,0.34158,-0.729071,0.003388,0.006396,-0.000162
218,0.5928220000000001,0.341353,-0.7294109999999999,-0.001513,0.004274,-0.00063
219,0.592638,0.341238,-0.729614,-0.002794,0.002131,-0.000672
220,0.5925239999999999,0.3411949999999999,-0.729726,-0.004039,0.00431,-0.004847
221,0.592407,0.341203,-0.7298180000000001,-0.0046689999999999,0.007003,-0.004938
222,0.592301,0.341223,-0.729895,-0.006912,0.011713,-0.0072879999999999
223,0.592274,0.3412489999999999,-0.729904,-0.0046429999999999,0.012053,-0.0051119999999999
224,0.592274,0.341302,-0.72988,-0.009052,0.014823,-0.006372
225,0.592306,0.341354,-0.729829,-0.004735,0.017624,-0.003981
226,0.59238,0.341418,-0.729739,-0.002216,0.015836,-0.0064819999999999
227,0.5924010000000001,0.341457,-0.729704,-0.003244,0.01299,-0.001467
228,0.5922810000000001,0.341445,-0.729807,-0.000148,0.0132919999999999,-0.003225
229,0.5920569999999999,0.341439,-0.729991,-0.00055,0.014396,-0.0039109999999999
230,0.591871,0.341567,-0.730083,-0.000181,0.0044259999999999,0.001689
231,0.5919949999999999,0.341751,-0.729896,0.000489,0.002045,-0.000268
232,0.592526,0.342066,-0.729316,0.000522,0.004323,-0.002098
233,0.593237,0.342506,-0.728532,-0.00498,0.006584,-0.0053549999999999
234,0.593834,0.342949,-0.727837,-0.006828,0.013633,-0.006263
235,0.594214,0.343317,-0.727353,-0.006415,0.021688,-0.005359
236,0.5943350000000001,0.343533,-0.727152,-0.009802,0.025883,-0.008504
237,0.594213,0.343503,-0.727267,-0.00942,0.021381,-0.008008
238,0.593882,0.343267,-0.727648,-0.007609,0.020243,-0.006101
239,0.59348,0.342931,-0.7281340000000001,-0.001928,0.0167949999999999,-0.002304
240,0.59319,0.342517,-0.7285659999999999,-0.000325,0.0154849999999999,-0.004665
241,0.592863,0.3421909999999999,-0.728985,-0.005003,0.010806,-0.002857
242,0.5924119999999999,0.341819,-0.729525,-0.003896,0.008553,-0.003431
243,0.591862,0.341397,-0.730169,-0.0033299999999999,0.002963,-0.001078
244,0.5913,0.340964,-0.730826,-0.00376,-0.0016699999999999,0.000648
245,0.5908979999999999,0.340652,-0.731297,-0.002291,-0.003112,0.00185
246,0.590925,0.340578,-0.731309,-0.001921,-0.003404,-0.001921
247,0.5912970000000001,0.340812,-0.7309,-0.005467,-0.003303,-0.004376
248,0.591893,0.341254,-0.7302109999999999,-0.007863,0.003213,-0.00241
249,0.592605,0.34178,-0.729387,-0.010147,0.012239,-0.006865
250,0.5932390000000001,0.342251,-0.728651,-0.006325,0.017674,-0.007464
251,0.593762,0.342615,-0.728053,-0.006817,0.022604,-0.002248
252,0.594134,0.34285,-0.727639,-0.002856,0.018234,-0.00312
253,0.594453,0.343018,-0.727299,0.00392,0.023056,-0.0050009999999999
254,0.5947859999999999,0.343172,-0.726954,0.000276,0.021681,-0.003179
255,0.595064,0.343279,-0.726676,0.00247,0.022948,-0.001382
256,0.59511,0.3433219999999999,-0.726618,0.003385,0.018922,-0.004751
257,0.594858,0.343125,-0.7269180000000001,-0.000787,0.012665,-0.00201
258,0.594345,0.342771,-0.727504,0.001114,0.0107599999999999,-0.00179
259,0.593704,0.342448,-0.728179,0.003143,0.006887,0.0018449999999999
260,0.593029,0.342206,-0.728843,0.000493,0.0036799999999999,0.000922
261,0.59243,0.342085,-0.729386,-0.003426,0.0031149999999999,0.000535
262,0.592005,0.342031,-0.729757,-0.008173,0.00767,-0.005534
263,0.5916600000000001,0.342017,-0.730043,-0.006089,0.012659,-0.006254
264,0.591443,0.342017,-0.730218,-0.005185,0.0135889999999999,-0.00672
265,0.591357,0.342025,-0.730284,-0.006045,0.012802,-0.005311
266,0.591254,0.3420289999999999,-0.730366,-0.01174,0.009762,-0.003642
267,0.591162,0.341998,-0.730456,-0.010962,0.010343,-0.004743
268,0.5910890000000001,0.341971,-0.730527,-0.01066,0.011468,-0.006229
269,0.591063,0.341959,-0.730553,-0.005004,0.007543,-0.003913
270,0.591176,0.341942,-0.73047,-0.0049479999999999,0.005699,-0.0071849999999999
271,0.5914659999999999,0.341997,-0.73021,-0.007268,0.006285,-0.0037689999999999
272,0.591842,0.342169,-0.729824,-0.00502,0.013925,-0.0076489999999999
273,0.592192,0.342303,-0.729477,-0.005934,0.015347,-0.006469
274,0.592392,0.342344,-0.729296,-0.004226,0.017398,-0.004408
275,0.592471,0.342325,-0.729241,0.004514,0.017203,-0.000618
276,0.592594,0.342224,-0.7291880000000001,0.003597,0.016449,-0.00209
277,0.592572,0.342118,-0.729256,0.003482,0.014221,-0.000999
278,0.592437,0.342071,-0.729387,0.002411,0.008714,0.000658
279,0.592407,0.342024,-0.729434,0.000183,0.010241,-0.002882
280,0.5923069999999999,0.342004,-0.729525,-0.006781,0.0148379999999999,-0.0041789999999999
281,0.592037,0.341925,-0.72978,-0.005947,0.011636,-0.004305
282,0.5916819999999999,0.341775,-0.7301380000000001,-0.00457,0.006339,-0.00352
283,0.591407,0.341673,-0.730409,-0.007498,0.001055,-0.003737
284,0.591304,0.3416639999999999,-0.730496,-0.005809,0.00233,-0.002353
285,0.591424,0.34176,-0.730354,-0.0067989999999999,0.002677,-0.0028
286,0.591669,0.341991,-0.7300479999999999,-0.005411,0.010411,-0.004449
287,0.591971,0.3422699999999999,-0.7296729999999999,-0.005743,0.017304,-0.002963
288,0.592334,0.342567,-0.729238,-0.005542,0.01635,-0.005335
289,0.592817,0.3428739999999999,-0.728701,-0.002775,0.017508,-0.003721
290,0.59339,0.343126,-0.728116,-0.001257,0.017928,-0.005511
291,0.593801,0.3432449999999999,-0.727725,2.5e-05,0.01819,-0.004621
292,0.593855,0.343223,-0.727691,0.001406,0.018975,-0.0012519999999999
293,0.593553,0.343057,-0.728016,-0.000963,0.015052,-4.2e-05
294,0.593,0.342775,-0.728599,0.003436,0.0137919999999999,0.0008
295,0.592355,0.342431,-0.7292850000000001,-0.001168,0.01081,-0.00094
296,0.5917060000000001,0.342075,-0.729979,-0.002289,0.0043,-0.001039
297,0.5912189999999999,0.341739,-0.730531,-0.010454,0.0012779999999999,-0.0051719999999999
298,0.590802,0.341458,-0.730999,-0.012693,0.0027199999999999,-0.003025
299,0.5904159999999999,0.341276,-0.731396,-0.007301,0.008181,-0.007526
300,0.5901,0.341175,-0.731697,-0.0083439999999999,0.010997,-0.007118
301,0.589902,0.341176,-0.731857,-0.009488,0.00381,-0.006928
302,0.589884,0.341236,-0.7318439999999999,-0.006967,0.000424,-0.002684
303,0.590024,0.341331,-0.731687,-0.006772,0.000344,-0.000308
304,0.59033,0.341505,-0.731358,-0.010466,0.01137,-0.0049549999999999
305,0.590726,0.341675,-0.730959,-0.004559,0.015899,-0.006208
306,0.59101,0.341762,-0.730689,-0.002707,0.015889,-0.007379
307,0.591201,0.341753,-0.730538,-0.000107,0.013563,-0.000633
308,0.591453,0.341803,-0.7303109999999999,0.000573,0.011178,-0.000799
309,0.591803,0.341865,-0.7299979999999999,0.0006799999999999,0.0099569999999999,0.000292
310,0.5921,0.34193,-0.729727,0.000261,0.0136,2.1e-05
311,0.592182,0.3418739999999999,-0.729687,-0.003406,0.018753,-0.001377
312,0.591936,0.341653,-0.7299899999999999,-0.003786,0.017845,-0.004339
313,0.591448,0.341315,-0.730543,-0.005815,0.013528,-0.0017109999999999
314,0.590842,0.34098,-0.73119,-0.002371,0.006494,-0.001217
315,0.590383,0.340719,-0.7316819999999999,-0.003332,0.006144,-0.001335
316,0.590174,0.3405829999999999,-0.7319140000000001,6.6e-05,0.003182,-0.001607
317,0.590175,0.340622,-0.731895,-0.001674,0.00534,-0.002953
318,0.590376,0.340683,-0.731705,-0.003935,0.005081,-0.003967
319,0.590599,0.3407699999999999,-0.731484,-0.006996,0.006657,-0.0043409999999999
320,0.590817,0.340903,-0.731246,-0.007382,0.0096519999999999,-0.006456
321,0.591083,0.341072,-0.730952,-0.0063659999999999,0.010506,-0.003957
322,0.5914689999999999,0.3412719999999999,-0.730546,-0.007637,0.012442,-0.003585
323,0.5918260000000001,0.341499,-0.730151,-0.003814,0.0116049999999999,-0.004957
324,0.592152,0.34168,-0.7298020000000001,-0.00098,0.010707,-0.004313
325,0.592449,0.341866,-0.7294729999999999,-0.001583,0.012092,-0.0036659999999999
326,0.592785,0.342053,-0.729113,-0.002575,0.012851,-0.005506
327,0.593119,0.3422449999999999,-0.728751,-0.002909,0.013193,-0.004586
328,0.593385,0.342425,-0.72845,-0.00258,0.01135,-0.004857
329,0.5935729999999999,0.342553,-0.728237,-0.000921,0.012001,-0.003117
330,0.593715,0.342638,-0.7280810000000001,-0.001185,0.011122,-0.0048439999999999
331,0.593817,0.342731,-0.727954,-0.00025,0.0107689999999999,-0.000684
332,0.593925,0.342817,-0.727826,-0.001731,0.008319,-0.0030399999999999
333,0.594057,0.3429239999999999,-0.727667,-0.000627,0.0099049999999999,-0.002603
334,0.594199,0.343067,-0.727484,-0.0009369999999999,0.013241,-0.002512
335,0.5942649999999999,0.343118,-0.727406,-0.0047409999999999,0.01345,-0.005626
336,0.594093,0.34304,-0.727582,-0.006615,0.013131,-0.000567
337,0.5938180000000001,0.342928,-0.7278600000000001,-0.001578,0.012525,-0.00389
338,0.593609,0.342832,-0.7280760000000001,-0.0036439999999999,0.0129729999999999,-0.005124
339,0.593547,0.3427679999999999,-0.728156,-0.0016129999999999,0.008535,-0.002251
340,0.593532,0.3427409999999999,-0.7281810000000001,-0.0065879999999999,0.011034,-0.005644
341,0.593528,0.342647,-0.728228,-0.00637,0.0093879999999999,-0.00543
342,0.593476,0.342543,-0.72832,-0.008485,0.00966,-0.002134
343,0.593468,0.342462,-0.728364,-0.0053939999999999,0.011328,-0.004927
344,0.59354,0.34246,-0.7283069999999999,-0.004306,0.014916,-0.006495
345,0.593646,0.342454,-0.728223,-0.002139,0.014556,-0.004061
346,0.5936670000000001,0.342343,-0.728258,-0.0038689999999999,0.012439,-0.002851
347,0.593551,0.342204,-0.7284189999999999,-0.003142,0.008931,-0.003072
348,0.593367,0.342022,-0.728654,-0.001952,0.0090829999999999,-0.001464
349,0.593138,0.341892,-0.728901,-0.001112,0.008922,-0.004208
350,0.592969,0.341835,-0.729065,0.000384,0.0089489999999999,-0.003677
351,0.5929300000000001,0.3417929999999999,-0.729117,-0.00153,0.005894,-0.001169
352,0.592972,0.341825,-0.729068,-0.0039369999999999,0.00609,-0.0029879999999999
353,0.59305,0.341878,-0.728979,-0.003832,0.007716,-0.005885
354,0.593055,0.341954,-0.7289399999999999,-0.005942,0.011806,-0.004932
355,0.592996,0.3420289999999999,-0.728952,-0.003686,0.013119,-0.003348
356,0.592958,0.3420829999999999,-0.728958,-0.0038009999999999,0.011768,-0.006012
357,0.592953,0.3421389999999999,-0.7289359999999999,-0.005337,0.011422,-0.00547
358,0.592973,0.342203,-0.728889,-0.0064099999999999,0.0108849999999999,-0.003182
359,0.5930310000000001,0.342254,-0.7288180000000001,-0.004118,0.012055,-0.003116
360,0.593106,0.342292,-0.728739,-0.005475,0.011422,-0.005315
361,0.5932390000000001,0.342328,-0.728614,-0.0068439999999999,0.010272,-0.003518
362,0.593398,0.3423719999999999,-0.728464,-0.005477,0.010823,-0.004584
363,0.593537,0.342431,-0.7283229999999999,-0.005661,0.00904,-0.004297
364,0.593577,0.342496,-0.72826,-0.00268,0.0108209999999999,-0.004497
365,0.593553,0.342517,-0.7282689999999999,-0.001664,0.0133169999999999,-0.002855
366,0.5935189999999999,0.342518,-0.728297,-0.001356,0.012981,-0.0010429999999999
367,0.593481,0.34248,-0.728346,-0.003393,0.012501,-0.004381
368,0.593417,0.342436,-0.728418,-0.002353,0.011995,-0.003912
369,0.593364,0.342384,-0.728486,-0.002604,0.011758,-0.002669
370,0.5933510000000001,0.342376,-0.7285,-0.001158,0.008561,-0.0022129999999999
371,0.593453,0.342393,-0.728409,-0.00277,0.00479,-0.004303
372,0.59359,0.342417,-0.728286,-0.004632,0.00678,-0.003449
373,0.5936670000000001,0.342443,-0.7282109999999999,-0.0077599999999999,0.012339,-0.003722
374,0.593684,0.342453,-0.728193,-0.006022,0.012406,-0.004809
375,0.5937060000000001,0.342468,-0.728168,-0.005693,0.014069,-0.005642
376,0.5937439999999999,0.342459,-0.728141,-0.007166,0.015191,-0.0061579999999999
377,0.5937640000000001,0.34241,-0.7281479999999999,-0.008452,0.013974,-0.00612
378,0.593717,0.342303,-0.728237,-0.006024,0.010786,-0.0036969999999999
379,0.593553,0.342186,-0.728425,-0.003343,0.010109,-0.004272
380,0.593342,0.342052,-0.7286600000000001,-0.001332,0.008717,-0.0031969999999999
381,0.593204,0.341948,-0.728821,0.000531,0.006303,-0.002121
382,0.593183,0.341919,-0.728852,-0.002241,0.0071569999999999,-0.003051
383,0.593241,0.341925,-0.7288020000000001,-0.001474,0.007043,-0.0027199999999999
384,0.593313,0.341949,-0.7287319999999999,-0.002814,0.007859,-0.004835
385,0.593314,0.341993,-0.7287100000000001,-0.002753,0.008181,-0.0023079999999999
386,0.593278,0.342058,-0.728709,-0.003572,0.010176,-0.004811
387,0.593249,0.342131,-0.728698,-0.00397,0.012361,-0.002839
388,0.5932390000000001,0.3422159999999999,-0.728667,-0.003654,0.008126,-0.0028239999999999
389,0.593267,0.342294,-0.728608,-0.004217,0.009742,-1.5e-05
390,0.59334,0.342394,-0.7285010000000001,-0.0064719999999999,0.012358,-0.006912
391,0.5933350000000001,0.342456,-0.728476,-0.006497,0.01286,-0.0056549999999999
392,0.593174,0.342435,-0.728617,-0.005467,0.011279,-0.005789
393,0.59299,0.342371,-0.728797,-0.004764,0.00997,-0.0034119999999999
394,0.592899,0.342352,-0.72888,-0.005176,0.007944,-0.003786
395,0.592925,0.342456,-0.7288100000000001,-0.001876,0.008954,-0.004543
396,0.59307,0.342553,-0.728646,-0.002021,0.0088569999999999,-0.004707
397,0.593173,0.342679,-0.728503,-0.004977,0.009097,-0.0048189999999999
398,0.5932189999999999,0.342711,-0.72845,-0.00626,0.015108,-0.00594
399,0.59313,0.342673,-0.72854,-0.00617,0.0151449999999999,-0.00585
400,0.593052,0.342619,-0.728629,-0.0004769999999999,0.011889,-0.003457
401,0.59311,0.342611,-0.728586,-0.001496,0.009318,-0.001898
402,0.593306,0.3426369999999999,-0.728414,-0.002501,0.0087879999999999,-0.004954
403,0.5935010000000001,0.342651,-0.7282489999999999,-0.00587,0.0072019999999999,-0.004265
404,0.593611,0.342671,-0.72815,-0.003584,0.010341,-0.003326
405,0.593701,0.3426869999999999,-0.728068,-0.002881,0.013758,-0.004292
406,0.5938220000000001,0.342699,-0.727965,-0.004222,0.014311,-0.002596
407,0.593906,0.342705,-0.727893,-0.004703,0.01464,-0.000653
408,0.593909,0.342651,-0.727916,-0.003012,0.013718,-0.002186
409,0.59382,0.342536,-0.728042,-0.000955,0.011986,-0.004044
410,0.593654,0.342437,-0.728225,-0.003184,0.010652,-0.004197
411,0.593425,0.342259,-0.728495,-0.001827,0.011592,-0.004171
412,0.593112,0.34208,-0.728834,-0.001422,0.010978,-0.002459
413,0.592846,0.341979,-0.7290979999999999,0.001484,0.004762,-0.006132
414,0.592691,0.341927,-0.729248,-0.0035039999999999,0.001029,-0.00502
415,0.592592,0.341971,-0.729308,-0.004152,0.006555,-0.004243
416,0.592581,0.342068,-0.729272,-0.004995,0.006809,-0.005271
417,0.592625,0.342205,-0.729171,-0.00565,0.009907,-0.006516
418,0.592709,0.342358,-0.729031,-0.008069,0.011585,-0.006336
419,0.592799,0.342495,-0.728893,-0.007167,0.013401,-0.008091
420,0.592856,0.342613,-0.728792,-0.005484,0.013115,-0.005995
421,0.592881,0.342699,-0.728731,-0.00586,0.014525,-0.003355
422,0.5929439999999999,0.34274,-0.728661,-0.003527,0.0136289999999999,-0.007606
423,0.593061,0.342756,-0.728558,-0.0026829999999999,0.012347,-0.005542
424,0.593146,0.34279,-0.728472,-0.000998,0.010359,-0.003812
425,0.593175,0.342796,-0.728446,-0.002874,0.008995,-0.003106
426,0.59311,0.342757,-0.728517,-0.001405,0.007981,-0.000609
427,0.592979,0.34276,-0.728622,-0.0001909999999999,0.010466,-0.001816
428,0.5928760000000001,0.342754,-0.728709,-0.00108,0.00951,-0.003149
429,0.592838,0.342734,-0.72875,-0.002719,0.013162,-0.006251
430,0.592832,0.342738,-0.7287520000000001,-0.003477,0.014531,-0.0048909999999999
431,0.5928800000000001,0.342763,-0.728701,-0.001099,0.011958,-0.002484
432,0.5929909999999999,0.3427739999999999,-0.7286060000000001,-0.002918,0.0102379999999999,-0.004548
433,0.593075,0.342777,-0.728537,-0.00497,0.008877,-0.004465
434,0.593055,0.342746,-0.728567,-0.008689,0.011014,-0.0034579999999999
435,0.592969,0.342696,-0.728661,-0.004163,0.0123,-0.004432
436,0.592916,0.342623,-0.728738,-0.003881,0.011854,-0.005958
437,0.592932,0.34258,-0.728746,-0.005758,0.0118819999999999,-0.004821
438,0.593015,0.34256,-0.728687,-0.004331,0.012908,-0.004711
439,0.593046,0.342528,-0.728677,-0.0052159999999999,0.013032,-0.005347
440,0.592946,0.342457,-0.728792,-0.0042,0.0083579999999999,-0.003203
441,0.592785,0.342325,-0.728984,-0.004147,0.009375,-0.002781
442,0.592653,0.342238,-0.729132,-0.000521,0.008805,-0.003381
443,0.592666,0.342235,-0.729124,-0.001067,0.007039,-0.003084
444,0.592753,0.342308,-0.729019,-0.002695,0.0079569999999999,-0.003602
445,0.592825,0.342398,-0.7289180000000001,-0.005743,0.009454,-0.002802
446,0.5929,0.342428,-0.728842,-0.004476,0.009882,-0.0034729999999999
447,0.592987,0.342467,-0.728754,-0.006973,0.008531,-0.004233
448,0.593068,0.342531,-0.728657,-0.002172,0.011701,-0.006404
449,0.59312,0.342624,-0.728572,-0.001888,0.011517,-0.002752
450,0.593137,0.342683,-0.72853,-0.001645,0.012786,-0.003724
451,0.5930770000000001,0.342694,-0.7285739999999999,-0.0029739999999999,0.011921,-0.004443
452,0.5930350000000001,0.342686,-0.728612,-0.003542,0.014126,-0.004588
453,0.593007,0.342619,-0.728666,-0.003071,0.0130169999999999,-0.005221
454,0.592913,0.342502,-0.728798,-0.003023,0.012738,-0.007454
455,0.592711,0.342365,-0.7290260000000001,-0.003676,0.007672,-0.005395
456,0.5925819999999999,0.342226,-0.729196,-0.002815,0.006743,-0.003256
457,0.592562,0.342181,-0.729234,-0.003359,0.0055509999999999,-0.002151
458,0.592599,0.342234,-0.729178,-0.001092,0.007726,-0.003427
459,0.5926279999999999,0.342263,-0.729141,-0.002113,0.008598,-0.005203
460,0.592638,0.342259,-0.7291350000000001,-0.00162,0.009807,-0.004309
461,0.592637,0.342271,-0.7291300000000001,-0.006135,0.013487,-0.005184
462,0.59263,0.342238,-0.729151,-0.008294,0.013719,-0.007055
463,0.592575,0.342204,-0.729212,-0.005188,0.015538,-0.00649
464,0.592591,0.342221,-0.729191,-0.001679,0.008792,-0.000439
465,0.592774,0.342262,-0.729023,-0.003434,0.005943,-0.001614
466,0.592996,0.342337,-0.728807,-0.0031219999999999,0.0070129999999999,-0.00218
467,0.593097,0.342387,-0.7287020000000001,-0.004519,0.007589,-0.002835
468,0.593066,0.342434,-0.728705,-0.004595,0.008838,-0.00274
469,0.593043,0.342491,-0.728696,0.000218,0.012687,-0.00249
470,0.593071,0.342565,-0.72864,-0.0029519999999999,0.012355,-0.001875
471,0.5930310000000001,0.342602,-0.728655,-0.004637,0.012013,-0.002623
472,0.592895,0.342598,-0.728767,-0.003432,0.011253,-0.0033799999999999
473,0.59273,0.342585,-0.728907,-0.0006129999999999,0.007238,-0.002767
474,0.592595,0.3425829999999999,-0.729018,-0.002644,0.009483,-0.003572
475,0.592533,0.342621,-0.729051,-0.002948,0.009551,-0.005935
476,0.592511,0.342659,-0.729051,-0.003964,0.009163,-0.003707
477,0.592504,0.342699,-0.729038,-0.00295,0.009322,-0.0044979999999999
478,0.592497,0.342754,-0.729017,-0.005278,0.009434,-0.003328
479,0.592496,0.342813,-0.7289899999999999,-0.003232,0.011115,-0.004408
480,0.592517,0.342855,-0.728953,-0.0034969999999999,0.011805,-0.00472
481,0.592517,0.342897,-0.7289329999999999,-0.003009,0.010801,-0.004221
482,0.592529,0.342902,-0.7289220000000001,-0.001968,0.010522,-0.002493
483,0.592543,0.34289,-0.728916,-0.0032479999999999,0.009115,-0.004071
484,0.592543,0.342893,-0.7289140000000001,-0.00302,0.010165,-0.004225
485,0.5925279999999999,0.342905,-0.728921,-0.00273,0.010291,-0.0043549999999999
486,0.5925239999999999,0.342926,-0.7289140000000001,-0.001062,0.009491,-0.002912
487,0.592513,0.342959,-0.728908,-0.0036149999999999,0.011014,-0.002141
488,0.592495,0.342982,-0.728912,-0.0011099999999999,0.010702,-0.003128
489,0.592485,0.34296,-0.72893,-0.000596,0.012615,-0.0070319999999999
490,0.5924050000000001,0.342934,-0.729007,-0.004728,0.010551,-0.003827
491,0.592308,0.342898,-0.729103,-0.004036,0.009992,-0.003776
492,0.592246,0.34287,-0.729166,-0.002708,0.012003,-0.004034
493,0.592167,0.342863,-0.729234,-0.005085,0.009051,-0.00273
494,0.5921069999999999,0.342826,-0.7293,-0.005666,0.007318,-0.004357
495,0.592061,0.3428219999999999,-0.7293390000000001,-0.003987,0.007626,-0.006546
496,0.592037,0.3428489999999999,-0.729346,-0.000896,0.007676,-0.002267
497,0.5920380000000001,0.342844,-0.7293470000000001,-0.003309,0.010657,-0.003593
498,0.592044,0.342816,-0.729356,-0.005603,0.010242,-0.003295
499,0.592037,0.342786,-0.729376,-0.005931,0.011065,-0.005274
500,0.591982,0.342759,-0.729433,-0.0004759999999999,0.006194,-0.005156
501,0.592043,0.342759,-0.729383,0.000517,0.005095,-0.0019089999999999
502,0.592172,0.3428239999999999,-0.7292489999999999,0.000953,0.00648,-0.001983
503,0.592292,0.342904,-0.729113,-0.002052,0.0068879999999999,-0.001615
504,0.59239,0.342951,-0.729011,-0.005461,0.007467,-0.003304
505,0.592475,0.3430559999999999,-0.728893,-0.005378,0.009086,-0.003773
506,0.592641,0.34318,-0.7287,-0.004353,0.0129909999999999,-0.004897
507,0.592843,0.343301,-0.728478,-0.005044,0.013983,-0.004966
508,0.592933,0.3433739999999999,-0.728371,-0.005393,0.01269,-0.006035
509,0.592873,0.34339,-0.728412,-0.0015949999999999,0.01098,-8.9e-05
510,0.5927979999999999,0.343369,-0.728483,-0.000452,0.011352,0.001295
511,0.592987,0.343398,-0.7283149999999999,0.00206,0.016419,-0.001086
512,0.593642,0.3436329999999999,-0.727671,0.022585,0.021571,0.0135449999999999
513,0.594824,0.343977,-0.726542,0.023905,0.013399,0.010264
514,0.5961350000000001,0.344181,-0.7253689999999999,0.025462,0.01849,0.0065739999999999
515,0.59746,0.344351,-0.724198,0.032865,0.035075,-0.001098
516,0.598635,0.3442719999999999,-0.7232649999999999,0.026563,0.032391,-0.001894
517,0.599461,0.3436619999999999,-0.722871,-0.004017,-0.017169,-0.004363
518,0.5992770000000001,0.34264,-0.723508,-0.025578,-0.031147,-0.005481
519,0.597554,0.341565,-0.7254390000000001,-0.033131,-0.030011,-0.013391
520,0.5941609999999999,0.3405579999999999,-0.728691,-0.046264,-0.0323769999999999,-0.02404
521,0.5894010000000001,0.339524,-0.7330270000000001,-0.045166,-0.04268,-0.021703
522,0.584226,0.33876,-0.737509,-0.03874,-0.031174,-0.019998
523,0.579666,0.338264,-0.741326,-0.029999,0.019661,-0.024803
524,0.576932,0.33794,-0.743603,-0.0287899999999999,0.040066,-0.031604
525,0.575619,0.337615,-0.744767,-0.034451,0.043382,-0.031402
526,0.5751029999999999,0.337422,-0.7452529999999999,-0.0441579999999999,0.013927,-0.012529
527,0.575287,0.337707,-0.744981,-0.049302,0.002777,-0.018065
528,0.575634,0.338548,-0.7443310000000001,-0.036709,0.003157,-0.01162
529,0.576541,0.339903,-0.743011,-0.01247,0.000811,-0.005784
530,0.5782470000000001,0.341396,-0.7409979999999999,-0.009124,0.0007059999999999,-0.001464
531,0.5801569999999999,0.342859,-0.738826,-0.006335,0.003089,0.001048
532,0.58221,0.3443239999999999,-0.736527,0.012028,0.006918,0.010651
533,0.584599,0.345884,-0.7338979999999999,0.007686,0.009066,0.005978
534,0.586856,0.347615,-0.731274,0.010785,0.008342,0.004956
535,0.589317,0.349482,-0.7284,0.015999,0.021749,0.008856
536,0.5918939999999999,0.351182,-0.725487,0.013224,0.02661,0.005104
537,0.594118,0.352608,-0.722973,0.012068,0.023475,0.007259
538,0.59588,0.353835,-0.72092,0.020972,0.029725,0.003406
539,0.596996,0.354706,-0.719568,0.027623,0.032852,0.005899
540,0.5977210000000001,0.355095,-0.718773,0.03236,0.0313639999999999,0.004357
541,0.598325,0.355179,-0.718229,0.028522,0.020019,0.00218
542,0.598332,0.354991,-0.718316,0.019374,0.0144389999999999,0.003137
543,0.597892,0.354561,-0.718895,0.018548,0.01461,0.005211
544,0.597214,0.354015,-0.719727,0.015243,0.008305,0.002045
545,0.5965090000000001,0.353461,-0.720584,0.013797,0.0114069999999999,0.0027489999999999
546,0.595841,0.352904,-0.721409,0.00798,0.015413,0.002293
547,0.595136,0.3522909999999999,-0.72229,0.006335,0.0145,-0.000138
548,0.594179,0.351569,-0.723429,0.002623,0.015465,-0.002325
549,0.592975,0.35075,-0.724813,0.0029879999999999,0.0183599999999999,-0.003489
550,0.5916520000000001,0.3498219999999999,-0.72634,0.001396,0.015016,-0.003472
551,0.5903189999999999,0.348862,-0.727885,-0.000338,0.011993,-0.006429
552,0.589058,0.347903,-0.7293649999999999,-0.00103,0.011594,-0.010671
553,0.587829,0.346909,-0.730827,-0.002578,0.013137,-0.00573
554,0.5866210000000001,0.345915,-0.732268,-0.003949,0.009645,-0.005296
555,0.585498,0.344857,-0.733664,-0.004413,0.009025,-0.007974
556,0.584458,0.3437929999999999,-0.734992,-0.0072489999999999,0.007922,-0.005639
557,0.583717,0.34294,-0.735979,-0.009941,0.001893,-0.006026
558,0.58331,0.342353,-0.736574,-0.010388,0.005318,-0.005568
559,0.58312,0.341944,-0.736915,-0.011403,0.005911,-0.0065239999999999
560,0.582903,0.341596,-0.7372479999999999,-0.005861,0.007342,-0.004939
561,0.582692,0.3412719999999999,-0.737564,-0.00417,0.005072,-0.003814
562,0.5826819999999999,0.341075,-0.737663,-0.002421,-0.000133,-0.000328
563,0.582972,0.341105,-0.73742,-0.003642,0.007437,0.000695
564,0.5835560000000001,0.341334,-0.7368520000000001,-0.000838,0.005254,-0.000437
565,0.584146,0.3416099999999999,-0.736256,-0.002939,0.006778,-0.00352
566,0.584486,0.341811,-0.735893,-0.004393,0.011995,-0.004128
567,0.584544,0.341898,-0.735807,-0.003245,0.0133569999999999,-0.004321
568,0.584491,0.341908,-0.7358439999999999,0.0010949999999999,0.01234,-0.002239
569,0.584477,0.341941,-0.7358399999999999,0.0033979999999999,0.011895,0.000839
570,0.584609,0.342034,-0.735692,0.002702,0.010077,-0.000697
571,0.584839,0.342227,-0.73542,0.001495,0.00842,-0.0009699999999999
572,0.585134,0.342456,-0.735079,0.002437,0.006879,-0.004439
573,0.5852609999999999,0.342661,-0.7348819999999999,0.000479,0.005392,-0.004147
574,0.5851109999999999,0.342823,-0.734926,0.000445,0.007748,-0.002623
575,0.584817,0.342989,-0.735082,0.000678,0.006925,-0.001109
576,0.5845199999999999,0.343198,-0.73522,0.001723,0.008883,-0.005121
577,0.58426,0.3434,-0.735333,0.000701,0.007277,-0.0067319999999999
578,0.584022,0.343538,-0.735458,-0.004249,0.004927,-4.6e-05
579,0.583835,0.343674,-0.735542,-0.005451,0.004043,-0.00132
580,0.583568,0.3437719999999999,-0.7357090000000001,-0.016124,0.0084459999999999,-0.0203789999999999
581,0.582485,0.343721,-0.73659,-0.02412,0.012251,-0.015409
582,0.580633,0.343692,-0.738064,-0.02268,0.0130889999999999,-0.008426
583,0.579074,0.343896,-0.739193,-0.0202509999999999,0.011848,0.0111659999999999
584,0.578306,0.344172,-0.7396659999999999,-0.0017829999999999,0.004552,-0.0089909999999999
585,0.578384,0.34446,-0.739471,-0.005996,-0.003365,-0.010423
586,0.579368,0.344916,-0.738488,-0.012702,-0.019858,-0.008903
587,0.5811970000000001,0.345647,-0.7367060000000001,-0.011998,-0.014012,-0.006046
588,0.583842,0.346761,-0.7340869999999999,-0.0155129999999999,-0.0133099999999999,-0.014006
589,0.586797,0.348201,-0.731042,-0.024999,0.011144,-0.017172
590,0.589738,0.349602,-0.728,-0.024858,0.020973,-0.01521
591,0.592461,0.350836,-0.725191,-0.018135,0.027047,-0.011748
592,0.594943,0.351815,-0.722679,-0.0125,0.0288459999999999,-0.0105209999999999
593,0.5970310000000001,0.352578,-0.720583,-0.007248,0.035834,-0.008558
594,0.598537,0.3529989999999999,-0.719126,-0.00584,0.0392589999999999,-0.008794
595,0.599286,0.352943,-0.718529,-0.002866,0.033455,-0.000588
596,0.59934,0.352387,-0.718757,0.004496,0.026992,0.005088
597,0.59892,0.351538,-0.719522,0.00606,0.021799,0.006586
598,0.598262,0.350614,-0.7205199999999999,0.0139969999999999,0.002398,0.00412
599,0.597459,0.349638,-0.7216600000000001,0.015913,-0.01048,0.000621
600,0.5963470000000001,0.348621,-0.72307,0.015638,-0.015293,0.0069599999999999
601,0.5953149999999999,0.347882,-0.724275,0.00936,-0.016324,0.005327
602,0.594695,0.34745,-0.724992,0.001527,-0.0067819999999999,-0.001448
603,0.594357,0.347275,-0.725353,-0.001889,-0.002304,-0.004567
604,0.594071,0.3471849999999999,-0.72563,-0.008683,0.011274,-0.010301
605,0.593699,0.3470519999999999,-0.7259979999999999,-0.013316,0.013818,-0.008423
606,0.593226,0.34694,-0.726438,-0.0156509999999999,0.011687,-0.008715
607,0.592626,0.34685,-0.726971,-0.01444,0.016431,-0.010548
608,0.591866,0.346701,-0.7276600000000001,-0.008813,0.012521,-0.008637
609,0.5910880000000001,0.346433,-0.72842,-0.009927,0.011218,-0.009434
610,0.590553,0.346126,-0.729001,-0.011573,0.006459,-0.009372
611,0.590407,0.345972,-0.729191,-0.009032,0.0032869999999999,-0.003734
612,0.590942,0.346109,-0.728693,-0.007415,0.0032719999999999,-0.003851
613,0.5920479999999999,0.346519,-0.727599,-0.007347,0.004266,-0.007798
614,0.593779,0.347146,-0.725888,-0.009565,0.007392,-0.003528
615,0.595931,0.347988,-0.7237180000000001,-0.011275,0.00716,-0.0082
616,0.598174,0.3488699999999999,-0.721439,-0.004089,0.020271,-0.008954
617,0.600364,0.349564,-0.7192810000000001,-0.00257,0.022994,-0.006519
618,0.602242,0.350036,-0.717479,-0.000314,0.025986,-0.006566
619,0.603676,0.3502909999999999,-0.716148,0.006614,0.027837,-0.0019309999999999
620,0.604707,0.350342,-0.715253,0.007049,0.022827,0.00517
621,0.605266,0.350225,-0.714837,0.010304,0.024439,0.003884
622,0.6052569999999999,0.349942,-0.714983,0.015104,0.028415,-0.001326
623,0.604437,0.349227,-0.716026,0.015177,0.030397,-0.002769
624,0.6023430000000001,0.347973,-0.7183970000000001,0.010801,0.033588,-0.001314
625,0.598329,0.346044,-0.722671,0.0325769999999999,0.021357,0.007659
626,0.592997,0.343557,-0.7282310000000001,0.0355889999999999,-0.019842,0.0173539999999999
627,0.58792,0.3410829999999999,-0.733491,0.034364,-0.040897,0.026475
628,0.584767,0.339633,-0.7366779999999999,0.009853,-0.077395,0.020797
629,0.584398,0.339764,-0.7369100000000001,-0.002947,-0.0699429999999999,0.009111
630,0.5867180000000001,0.341541,-0.73424,-0.0139949999999999,-0.0535,-0.003126
631,0.590755,0.344312,-0.729695,-0.036724,0.001849,-0.030392
632,0.594855,0.34718,-0.7249899999999999,-0.039984,0.042225,-0.041489
633,0.597849,0.349391,-0.721457,-0.038675,0.059209,-0.043146
634,0.599059,0.350294,-0.720013,-0.035933,0.090044,-0.034076
635,0.5986279999999999,0.349942,-0.720543,-0.0350899999999999,0.072222,-0.010353
636,0.5973390000000001,0.348814,-0.7221569999999999,-0.028736,0.062304,-0.00233
637,0.596024,0.347655,-0.723801,-0.006455,0.001619,0.006363
638,0.595529,0.346641,-0.724694,-0.003625,-0.006492,0.005135
639,0.595913,0.346136,-0.7246199999999999,-0.001323,-0.012014,0.001674
640,0.596471,0.34606,-0.724197,5.6000000000000006e-05,-0.013129,-0.006272
641,0.59663,0.345956,-0.724116,0.003636,0.007803,-0.0060479999999999
642,0.5959979999999999,0.345501,-0.724854,0.0066019999999999,0.01656,-0.005508
643,0.594558,0.344545,-0.726489,0.012452,-0.001344,0.010897
644,0.592727,0.34343,-0.72851,0.016434,-0.0043799999999999,0.0158479999999999
645,0.591464,0.342644,-0.729905,0.0200319999999999,-0.0101549999999999,0.016648
646,0.59125,0.342519,-0.7301380000000001,0.023252,-0.01714,0.008062
647,0.591839,0.342998,-0.729436,0.005634,-0.008067,0.001286
648,0.59282,0.343848,-0.728237,-0.000672,-0.0035159999999999,-0.0034219999999999
649,0.593906,0.344771,-0.726915,-0.010319,0.016908,-0.01628
650,0.594638,0.3454,-0.726017,-0.0203889999999999,0.021848,-0.016674
651,0.594821,0.345723,-0.7257140000000001,-0.022906,0.020396,-0.012506
652,0.5946739999999999,0.345877,-0.725761,-0.020913,0.015482,-0.0105519999999999
653,0.594571,0.346038,-0.7257680000000001,-0.014523,0.0162509999999999,-0.009675
654,0.5946899999999999,0.346188,-0.7256,-0.011255,0.014881,-0.009004
655,0.594969,0.346351,-0.7252930000000001,-0.012267,0.016107,-0.008213
656,0.595237,0.346489,-0.725007,-0.008994,0.015907,-0.008407
657,0.595491,0.346454,-0.724815,-0.009248,0.0159419999999999,-0.008598
658,0.595543,0.3462989999999999,-0.724846,-0.0014119999999999,0.014999,-0.003746
659,0.595537,0.3460809999999999,-0.724955,-0.000368,0.004092,-0.0011949999999999
660,0.595599,0.345878,-0.725001,-0.002597,0.002205,-5.1e-05
661,0.595585,0.345755,-0.725071,0.002819,0.0042049999999999,-0.001751
662,0.59541,0.345628,-0.725275,0.0046409999999999,0.003188,-0.001287
663,0.595066,0.345483,-0.725627,0.004284,0.002829,0.000285
664,0.594757,0.345437,-0.725902,0.007309,-0.00036,0.003368
665,0.5948060000000001,0.345625,-0.725772,0.005398,0.001192,-0.003689
666,0.5952930000000001,0.345997,-0.725196,0.00154,0.00404,-0.003045
667,0.595983,0.346484,-0.724396,-0.006536,0.013715,-0.0086819999999999
668,0.596675,0.347047,-0.7235560000000001,-0.005397,0.0177599999999999,-0.007553
669,0.5972649999999999,0.347557,-0.722824,-0.00823,0.019951,-0.007751
670,0.597616,0.347851,-0.7223930000000001,-0.010854,0.022663,-0.007145
671,0.597582,0.347839,-0.722427,-0.006106,0.017503,-0.004914
672,0.597395,0.347667,-0.7226640000000001,-0.005873,0.0140729999999999,-0.004188
673,0.597312,0.347545,-0.722792,-0.0013189999999999,0.012654,-0.004091
674,0.597326,0.347478,-0.722812,0.0008029999999999,0.011317,-0.005246
675,0.59733,0.347409,-0.722841,0.001119,0.0138419999999999,-0.005171
676,0.597124,0.347256,-0.7230850000000001,0.002439,0.020786,-0.006529
677,0.5964550000000001,0.346903,-0.723807,-0.001179,0.030004,-0.0015199999999999
678,0.5948979999999999,0.346139,-0.7254520000000001,-0.0008119999999999,0.026435,0.000339
679,0.59245,0.344995,-0.727996,0.008166,-0.003488,0.009658
680,0.590179,0.343921,-0.730345,0.008775,-0.032611,0.01303
681,0.589527,0.343552,-0.7310439999999999,0.009044,-0.040864,0.006298
682,0.590989,0.344264,-0.729528,-0.011155,-0.036311,-0.001047
683,0.594064,0.345937,-0.7262310000000001,-0.023629,-0.0154169999999999,-0.013621
684,0.597739,0.348137,-0.7221529999999999,-0.029212,-0.00486,-0.0227199999999999
685,0.6009260000000001,0.350141,-0.71853,-0.019353,0.042421,-0.02877
686,0.603154,0.351467,-0.716012,-0.020863,0.050999,-0.018302
687,0.604425,0.352063,-0.714645,-0.018747,0.050312,-0.0167539999999999
688,0.604592,0.351941,-0.714565,0.000511,0.053775,-0.002171
689,0.603576,0.351055,-0.715857,-0.000778,0.045993,0.0018219999999999
690,0.601301,0.349355,-0.718599,0.005618,0.037363,0.00609
691,0.5983,0.347527,-0.721982,0.023786,-0.005242,0.018033
692,0.596039,0.346188,-0.724491,0.025086,-0.020322,0.0136759999999999
693,0.595341,0.345677,-0.725309,0.021465,-0.022603,0.009443
694,0.595913,0.345904,-0.72473,0.009311,-0.01813,-0.005296
695,0.5966640000000001,0.346366,-0.723891,-0.0032649999999999,0.005441,-0.009202
696,0.596701,0.346624,-0.723738,-0.003744,0.0115,-0.010378
697,0.5959399999999999,0.346634,-0.72436,-0.003471,0.00943,-0.005697
698,0.59513,0.346607,-0.725038,-0.006904,-0.012882,0.002015
699,0.595116,0.347044,-0.7248399999999999,-0.008431,-0.010313,-0.00099
700,0.596061,0.347943,-0.7236319999999999,-0.014655,0.001971,-0.009248
701,0.59759,0.349171,-0.721777,-0.026911,0.024913,-0.022806
702,0.599217,0.3504239999999999,-0.7198180000000001,-0.031987,0.029611,-0.023483
703,0.600332,0.3512889999999999,-0.7184659999999999,-0.030737,0.0477589999999999,-0.02215
704,0.600163,0.351278,-0.7186130000000001,-0.020848,0.054117,-0.019073
705,0.598198,0.350022,-0.7208600000000001,-0.016212,0.048461,-0.017757
706,0.594583,0.34776,-0.724934,0.010504,-0.003888,0.014668
707,0.591043,0.345519,-0.7288899999999999,0.020026,-0.0367269999999999,0.0242539999999999
708,0.5893390000000001,0.3442909999999999,-0.7308479999999999,0.021043,-0.043922,0.023481
709,0.589951,0.344379,-0.730313,0.016556,-0.035953,0.001797
710,0.592498,0.34546,-0.7277359999999999,-0.003081,-0.026079,-0.0037549999999999
711,0.595856,0.34715,-0.7241810000000001,-0.009644,-0.016233,-0.007982
712,0.599091,0.348954,-0.7206359999999999,-0.001664,0.034774,-0.02883
713,0.6013189999999999,0.3504489999999999,-0.71805,-0.0097819999999999,0.057342,-0.017973
714,0.601962,0.351135,-0.717176,-0.017535,0.064789,-0.016253
715,0.600494,0.350436,-0.718747,-0.014587,0.063275,-0.009281
716,0.5971989999999999,0.348573,-0.7223890000000001,0.0018,0.0317519999999999,0.008384
717,0.593612,0.34647,-0.726346,0.006851,-0.0098459999999999,0.020016
718,0.591246,0.345065,-0.7289399999999999,0.0093239999999999,-0.029452,0.015576
719,0.59082,0.344699,-0.7294579999999999,0.0144199999999999,-0.02779,-0.001712
720,0.591983,0.345101,-0.728325,0.009931,-0.026101,-0.008461
721,0.59359,0.3458719999999999,-0.726649,-0.003517,-0.003403,-0.007512
722,0.594719,0.346528,-0.725412,-0.006661,0.008422,-0.0094819999999999
723,0.59523,0.346756,-0.724884,-0.004318,0.016571,-0.008942
724,0.59536,0.346623,-0.7248399999999999,-0.0095909999999999,0.004238,-0.000135
725,0.595463,0.346575,-0.724779,-0.004337,0.006956,0.005526
726,0.595983,0.3468489999999999,-0.724221,-0.004445,0.008849,-0.000496
727,0.597009,0.347462,-0.7230810000000001,-0.009362,0.023281,-0.007372
728,0.59826,0.348157,-0.721711,-0.010766,0.034076,-0.008407
729,0.599267,0.348592,-0.720665,-0.00979,0.034922,-0.010079
730,0.5993470000000001,0.3483739999999999,-0.720704,-0.013471,0.024566,-0.012283
731,0.59783,0.34748,-0.7223930000000001,0.006418,0.023629,0.002651
732,0.595669,0.346277,-0.7247520000000001,0.0152319999999999,0.016089,0.005499
733,0.593933,0.345234,-0.726672,0.024201,-0.008747,0.0102569999999999
734,0.593037,0.344688,-0.7276630000000001,0.01292,-0.0115269999999999,0.008592
735,0.593043,0.34464,-0.72768,0.009664,-0.0123489999999999,0.005863
736,0.593555,0.344994,-0.7270949999999999,0.006802,-0.00895,-0.004472
737,0.594024,0.345516,-0.726464,-0.004058,0.004261,-0.0058049999999999
738,0.594216,0.346104,-0.7260270000000001,-0.005639,0.006893,-0.0075239999999999
739,0.594296,0.346733,-0.725661,-0.006436,0.014184,-0.008683
740,0.59442,0.347371,-0.725254,-0.010466,0.014735,-0.006786
741,0.594797,0.348051,-0.724619,-0.010844,0.014055,-0.007422
742,0.595063,0.348628,-0.724123,-0.013886,0.019658,-0.005919
743,0.594797,0.349065,-0.7241310000000001,-0.004908,0.020991,-0.0079709999999999
744,0.594327,0.3493179999999999,-0.724395,-0.003156,0.018739,-0.007219
745,0.594072,0.349486,-0.7245229999999999,-0.006517,0.007386,-0.002604
746,0.594028,0.349621,-0.724494,-0.000842,0.007663,0.000236
747,0.594101,0.34963,-0.72443,-0.000915,0.007654,0.000171
748,0.594205,0.349548,-0.724384,0.004061,0.009415,-0.001049
749,0.5941890000000001,0.349323,-0.7245060000000001,-0.0010949999999999,0.010845,-0.00462
750,0.594004,0.349069,-0.72478,-0.005595,0.0115269999999999,-0.0067269999999999
751,0.593643,0.3488469999999999,-0.725182,-0.011795,0.010742,-0.005164
752,0.5932189999999999,0.348643,-0.725627,-0.009036,0.013692,-0.0076489999999999
753,0.592802,0.348363,-0.726102,-0.009489,0.013286,-0.009127
754,0.592462,0.348024,-0.726542,-0.006647,0.0069409999999999,-0.005422
755,0.592118,0.347651,-0.727002,-0.002701,0.007116,-0.002185
756,0.591729,0.3472409999999999,-0.727514,-0.0004509999999999,0.008075,-8.6e-05
757,0.5916140000000001,0.34693,-0.7277560000000001,-0.002136,0.002069,-0.001584
758,0.591913,0.3466909999999999,-0.727626,-0.00445,0.007435,-0.005559
759,0.592331,0.346488,-0.727383,-0.006531,0.01011,-0.004154
760,0.592681,0.346289,-0.727193,-0.0078269999999999,0.010843,-0.005214
761,0.592916,0.346069,-0.727106,-0.00739,0.0115819999999999,-0.004507
762,0.593141,0.345867,-0.727018,-0.006883,0.008229,-0.003069
763,0.593437,0.3456869999999999,-0.726862,-0.0017469999999999,-0.000533,-0.001196
764,0.5938720000000001,0.345575,-0.72656,-0.001953,-0.003671,-0.002215
765,0.5944470000000001,0.345655,-0.726052,-0.001505,-0.000593,-0.002769
766,0.5949800000000001,0.3458989999999999,-0.725499,0.0016239999999999,0.0097989999999999,-0.001109
767,0.595478,0.3462,-0.724947,0.00552,0.014594,-0.0008529999999999
768,0.596011,0.346482,-0.724374,0.0064819999999999,0.017516,0.001107
769,0.5965550000000001,0.346736,-0.723804,0.012881,0.019506,0.002811
770,0.597125,0.346892,-0.723259,0.013364,0.0188,-0.002754
771,0.597424,0.346896,-0.72301,0.011509,0.018003,-0.000271
772,0.597225,0.3468179999999999,-0.723212,0.010258,0.027205,0.003425
773,0.596534,0.346603,-0.723885,0.010186,0.025422,-0.001289
774,0.595433,0.346263,-0.724953,0.012065,0.020283,0.001855
775,0.594199,0.345948,-0.726116,0.007944,0.007659,-0.001057
776,0.593002,0.345661,-0.72723,0.002472,0.000775,-1.9e-05
777,0.5916859999999999,0.34534,-0.728454,0.005116,-0.000507,0.001006
778,0.590433,0.345174,-0.729548,-0.00715,-0.010152,0.000392
779,0.5895,0.345205,-0.730288,-0.008674,-0.014913,-0.001417
780,0.589232,0.345583,-0.730325,-0.011397,-0.013674,-0.003714
781,0.589705,0.346354,-0.729578,-0.0165389999999999,-0.003672,-0.005591
782,0.590653,0.347308,-0.728356,-0.020463,0.00366,-0.0094819999999999
783,0.591807,0.3482929999999999,-0.7269479999999999,-0.019786,0.017079,-0.013424
784,0.592928,0.3492119999999999,-0.725592,-0.017703,0.021531,-0.012995
785,0.593911,0.349908,-0.7244520000000001,-0.015634,0.026923,-0.0100299999999999
786,0.5946739999999999,0.350294,-0.723639,-0.015328,0.026369,-0.00953
787,0.5951390000000001,0.350323,-0.7232430000000001,-0.00879,0.025776,-0.004556
788,0.5953,0.350053,-0.723241,0.00347,0.01567,0.00089
789,0.5953890000000001,0.349587,-0.7233930000000001,0.003381,0.016136,0.001042
790,0.5954520000000001,0.349082,-0.723585,0.00994,0.019448,0.001371
791,0.595364,0.348475,-0.72395,0.011096,0.029485,-0.001163
792,0.5947100000000001,0.347622,-0.724897,0.012177,0.033863,0.000791
793,0.593008,0.346431,-0.726859,0.013087,0.034749,-0.0009699999999999
794,0.5902109999999999,0.344811,-0.729899,0.02101,-0.004327,0.009211
795,0.5870609999999999,0.343094,-0.733241,0.019415,-0.017639,0.012248
796,0.584615,0.34187,-0.7357630000000001,0.011897,-0.041333,0.017868
797,0.58375,0.3415289999999999,-0.736607,-0.001063,-0.042244,0.003895
798,0.584681,0.3421869999999999,-0.735563,-0.011118,-0.037942,-0.003939
799,0.5868359999999999,0.343605,-0.733182,-0.031339,-0.018821,-0.013781
800,0.589585,0.34534,-0.730155,-0.037247,0.009091,-0.023766
801,0.592444,0.3471619999999999,-0.72697,-0.040107,0.00727,-0.0269519999999999
802,0.595201,0.34884,-0.723907,-0.029711,0.0086579999999999,-0.023148
803,0.597601,0.350363,-0.7211890000000001,-0.0177669999999999,0.054162,-0.016314
804,0.598882,0.351164,-0.7197359999999999,-0.023702,0.058245,-0.020758
805,0.5980800000000001,0.3507679999999999,-0.720595,-0.008633,0.0421,0.010085
806,0.596025,0.349703,-0.722812,0.019743,0.0263649999999999,0.024952
807,0.594342,0.348762,-0.724651,0.030155,0.010186,0.029354
808,0.594291,0.348452,-0.724842,0.0363089999999999,-0.020404,0.014621
809,0.595969,0.34876,-0.723314,0.034295,-0.022665,0.0024739999999999
810,0.598456,0.349498,-0.7209,0.028772,-0.015849,-0.006059
811,0.6003649999999999,0.350435,-0.718855,0.014961,0.0316139999999999,-0.004106
812,0.600669,0.35103,-0.71831,0.013817,0.043623,-0.006421
813,0.599294,0.350598,-0.719669,0.013361,0.039661,0.002155
814,0.597144,0.349546,-0.721965,0.015131,0.020632,0.006221
815,0.595266,0.348542,-0.7239979999999999,0.002894,0.008956,0.005507
816,0.5940409999999999,0.347916,-0.725304,-0.0054789999999999,0.006088,0.00013
817,0.5933470000000001,0.347761,-0.725945,-0.015024,0.010469,-0.010489
818,0.592551,0.347819,-0.726568,-0.021705,0.023367,-0.014384
819,0.590989,0.347581,-0.727953,-0.020325,0.028029,-0.0131659999999999
820,0.588649,0.3466639999999999,-0.730283,-0.017192,0.020783,-0.019031
821,0.585938,0.345254,-0.733125,-0.017273,-0.006753,-0.002623
822,0.5836020000000001,0.343859,-0.73564,-0.014159,-0.01874,0.0043619999999999
823,0.582377,0.343,-0.73701,-0.007792,-0.032651,0.003886
824,0.582546,0.3428449999999999,-0.736949,-0.009197,-0.020152,-0.0042159999999999
825,0.583561,0.343263,-0.735951,-0.0138129999999999,-0.010255,-0.006145
826,0.584648,0.343879,-0.7348,-0.00373,0.0205319999999999,-0.005755
827,0.585498,0.344336,-0.733908,-0.001178,0.0205319999999999,-0.005228
828,0.586088,0.344537,-0.7333430000000001,-0.0002109999999999,0.017752,-0.001459
829,0.5867939999999999,0.344589,-0.732754,0.003172,0.0079189999999999,0.001629
830,0.587846,0.3447969999999999,-0.731812,0.003249,0.004446,0.0031739999999999
831,0.589159,0.3452139999999999,-0.730558,0.001936,0.004029,0.001921
832,0.590378,0.345771,-0.729309,0.001525,0.026284,-0.003921
833,0.591202,0.346146,-0.728464,0.005356,0.032928,-0.002783
834,0.5915,0.346219,-0.728187,0.005058,0.032855,-0.00306
835,0.591458,0.345998,-0.728326,0.008533,0.0221199999999999,-0.0008609999999999
836,0.591259,0.345567,-0.728693,0.004658,0.011351,-0.001135
837,0.590889,0.345047,-0.7292390000000001,0.005028,0.011871,-0.000589
838,0.5904159999999999,0.344682,-0.7297939999999999,0.006065,0.0058579999999999,0.000454
839,0.58985,0.3443739999999999,-0.7303970000000001,0.007928,0.004732,0.000874
840,0.589168,0.344024,-0.731112,0.009495,0.002945,0.002505
841,0.588629,0.343717,-0.731691,0.005274,-0.004422,0.002656
842,0.588387,0.343528,-0.731974,0.000587,-0.004996,-0.0023239999999999
843,0.5884159999999999,0.343522,-0.731954,-0.001669,-0.0029,-0.004435
844,0.588713,0.343725,-0.7316189999999999,-0.009062,0.006067,-0.007318
845,0.589155,0.344064,-0.731104,-0.007566,0.011557,-0.008031
846,0.58944,0.344259,-0.7307819999999999,-0.00924,0.019236,-0.0046
847,0.589276,0.344183,-0.73095,-0.011228,0.016779,-0.0064459999999999
848,0.588569,0.34389,-0.731658,-0.001869,0.008863,0.0014939999999999
849,0.587978,0.343671,-0.732236,0.0015,0.007831,0.0025
850,0.587921,0.3437219999999999,-0.7322569999999999,0.0008089999999999,0.004209,-0.00288
851,0.588166,0.343938,-0.731959,0.0021969999999999,0.00387,-0.004003
852,0.588468,0.344141,-0.731621,-0.000135,0.005148,-0.002983
853,0.588647,0.3443219999999999,-0.731392,0.000297,0.00692,-0.0008619999999999
854,0.588892,0.3445539999999999,-0.731085,0.003668,0.010121,-0.001001
855,0.589241,0.3448719999999999,-0.730654,0.00367,0.009682,0.001727
856,0.5896859999999999,0.345246,-0.730119,0.001836,0.010391,0.003358
857,0.5900880000000001,0.345603,-0.7296239999999999,-0.003358,0.015405,-0.002874
858,0.5903010000000001,0.345811,-0.729354,-0.002242,0.016692,-0.001557
859,0.590321,0.345918,-0.729287,0.0016899999999999,0.019362,-0.003852
860,0.590284,0.345989,-0.729283,0.00252,0.014653,-0.00056
861,0.590324,0.346015,-0.729238,0.002862,0.011346,-0.000254
862,0.59038,0.346034,-0.729184,0.002546,0.005621,0.000897
863,0.5903,0.345964,-0.7292810000000001,0.003114,0.006712,-0.000486
864,0.589892,0.3457909999999999,-0.729694,-0.000155,0.0080299999999999,-0.000729
865,0.589324,0.345574,-0.730255,0.001221,0.009681,-0.002167
866,0.588881,0.34539,-0.730699,0.000596,0.009422,0.000536
867,0.5887220000000001,0.345335,-0.730854,3.9e-05,0.00606,-0.002437
868,0.588791,0.345375,-0.730779,-0.0064849999999999,0.009087,-0.006281
869,0.5888399999999999,0.345388,-0.730734,-0.007114,0.006587,-0.007532
870,0.588901,0.345425,-0.730667,-0.006839,0.010776,-0.005417
871,0.588928,0.345416,-0.730649,-0.00856,0.01257,-0.006381
872,0.5887560000000001,0.345279,-0.730853,-0.004222,0.013806,-0.002637
873,0.5885729999999999,0.345127,-0.731072,-0.001766,0.010967,-0.002372
874,0.588471,0.344992,-0.731218,0.001067,0.008844,-0.000609
875,0.58837,0.344878,-0.7313529999999999,0.006571,0.005204,-0.000199
876,0.58823,0.344723,-0.731539,0.005444,0.004719,-0.000883
877,0.588058,0.344611,-0.73173,0.0010689999999999,0.005883,0.001078
878,0.58795,0.34457,-0.731835,-0.000426,0.0059549999999999,0.002191
879,0.587821,0.344596,-0.731927,0.002206,0.008477,0.002282
880,0.587572,0.344604,-0.732123,0.003721,0.015625,-0.003259
881,0.58696,0.344454,-0.732684,-0.000535,0.009581,-0.004559
882,0.586075,0.344131,-0.733545,0.0003509999999999,0.009903,-0.003699
883,0.584763,0.343779,-0.7347560000000001,-0.004364,0.0091569999999999,-0.010178
884,0.582681,0.343346,-0.7366090000000001,-0.003961,0.010246,-0.012231
885,0.579461,0.342914,-0.7393460000000001,-0.016702,0.008618,-0.009098
886,0.5745979999999999,0.342311,-0.74341,-0.001035,0.009023,0.016084
887,0.568778,0.341652,-0.748173,0.000436,-0.004783,0.025044
888,0.5631,0.341062,-0.7527229999999999,0.01356,0.004275,0.016334
889,0.5577840000000001,0.34009,-0.757109,-0.014586,-0.000704,0.003721
890,0.552421,0.339035,-0.761501,-0.01316,0.009094,-0.0114939999999999
891,0.546583,0.338185,-0.766079,-0.007001,0.009563,0.001934
892,0.5415760000000001,0.337288,-0.7700199999999999,-0.011562,0.007622,-0.00386
893,0.538158,0.336375,-0.77281,-0.014858,0.007222,-0.010957
894,0.533538,0.335595,-0.776345,-0.0102379999999999,0.008002,-0.007423
895,0.530281,0.334492,-0.779047,-0.003242,0.016246,-0.02532
896,0.527037,0.333323,-0.781745,-0.03488,-0.021083,-0.0009689999999999
897,0.525515,0.332764,-0.783007,-0.038455,-0.031326,0.006243
898,0.525721,0.333176,-0.782694,0.037908,0.04869,-0.011923
899,0.526181,0.333181,-0.7823829999999999,0.025394,0.067012,-0.048993
900,0.5257109999999999,0.331785,-0.783291,-0.0036009999999999,0.026492,-0.028629
901,0.524701,0.329861,-0.78478,-0.007962,-0.039395,0.023244
902,0.523474,0.328599,-0.786127,0.016352,-0.036424,0.050043
903,0.522093,0.3282239999999999,-0.787201,0.045793,-0.017677,0.05098
904,0.521597,0.328709,-0.787328,0.060801,0.030468,0.001134
905,0.5213760000000001,0.329075,-0.787321,0.029374,0.04124,-0.0126209999999999
906,0.519828,0.3285389999999999,-0.788567,-0.041877,-0.00664,-0.000617
907,0.5168550000000001,0.327373,-0.791003,-0.039164,-0.01379,-0.013288
908,0.513165,0.3259869999999999,-0.793972,-0.0424779999999999,-0.0231,-0.013447
909,0.509828,0.324496,-0.796728,-0.074938,-0.018008,0.011587
910,0.50713,0.323426,-0.798882,-0.022908,0.043029,-0.007774
911,0.504787,0.322081,-0.8009069999999999,-0.079494,0.013308,-0.023235
912,0.504942,0.321483,-0.80105,-0.0182629999999999,0.012852,-0.0168819999999999
913,0.5046970000000001,0.320714,-0.801512,-0.023527,-0.02123,0.000258
914,0.505625,0.32066,-0.800949,-0.040308,-0.00079,-0.003464
915,0.507271,0.321032,-0.799758,-0.027001,0.0085569999999999,-0.001146
916,0.5096689999999999,0.321715,-0.7979569999999999,0.01418,0.037156,0.003828
917,0.51243,0.322472,-0.79588,0.022528,0.022972,-0.013003
918,0.515011,0.3229059999999999,-0.794036,0.0062439999999999,-0.008178,-0.001023
919,0.517403,0.323389,-0.792283,0.019737,0.014334,-0.001617
920,0.5179630000000001,0.323407,-0.791909,0.024212,0.008487,0.007561
921,0.51575,0.322472,-0.793733,0.032819,-0.0004969999999999,0.016328
922,0.512652,0.321334,-0.796197,0.039609,-0.023574,0.034982
923,0.5118020000000001,0.321272,-0.796769,0.021005,0.015596,-0.00151
924,0.511749,0.321651,-0.79665,-0.0083,0.034947,-0.010967
925,0.512486,0.321414,-0.796272,0.039074,0.058286,-0.0662
926,0.512328,0.320556,-0.79672,-0.022139,-0.019683,-0.014865
927,0.513005,0.320123,-0.796458,-0.022817,-0.01925,-0.015127
928,0.514764,0.320436,-0.795196,0.019492,0.040724,-0.017152
929,0.516591,0.320918,-0.793816,0.001354,0.018392,-0.0136639999999999
930,0.5179779999999999,0.321089,-0.792842,-3.4e-05,0.018221,-0.014638
931,0.51895,0.321201,-0.792161,0.012651,0.026531,-0.0017079999999999
932,0.518365,0.320875,-0.792676,0.0189879999999999,-0.0058119999999999,0.021603
933,0.5155689999999999,0.319809,-0.794927,0.021785,-0.004746,0.023854
934,0.51332,0.319228,-0.796614,0.010667,0.00551,-0.00461
935,0.512789,0.319529,-0.796836,-0.048022,0.0438589999999999,-0.026636
936,0.512376,0.319546,-0.797094,-0.047609,0.043842,-0.0263769999999999
937,0.5124489999999999,0.319087,-0.797231,-0.0266089999999999,-0.0114849999999999,-0.015452
938,0.514152,0.318982,-0.796176,0.005364,0.010135,-0.016965
939,0.51626,0.319379,-0.794651,0.003256,0.009738,-0.01849
940,0.518506,0.320344,-0.792798,0.012347,0.022307,-0.01189
941,0.520917,0.321357,-0.790805,0.004977,0.000374,0.00481
942,0.523127,0.322216,-0.788995,0.002768,-0.000484,0.003
943,0.524234,0.322651,-0.788082,0.0052159999999999,0.034908,-0.005024
944,0.5226890000000001,0.3220449999999999,-0.789355,0.0034799999999999,0.0079569999999999,0.0199449999999999
945,0.5203800000000001,0.32133,-0.7911699999999999,-0.007425,-0.026805,0.018953
946,0.519076,0.321271,-0.79205,-0.001208,-0.004315,-0.00275
947,0.518541,0.321501,-0.792307,-0.03705,0.035143,-0.0268
948,0.5177,0.321377,-0.7929069999999999,-0.015411,0.011127,-0.012605
949,0.517998,0.321353,-0.792722,0.023597,0.003461,-0.021411
950,0.5193260000000001,0.321493,-0.791796,0.0160289999999999,0.01333,-0.011366
951,0.5209060000000001,0.321826,-0.790622,0.009581,0.009015,-0.002515
952,0.522662,0.322499,-0.789187,-0.01253,-0.015889,0.007891
953,0.524945,0.3235699999999999,-0.787231,0.04993,0.055214,-0.0177009999999999
954,0.524393,0.32318,-0.787759,0.007772,0.0152139999999999,-0.000388
955,0.5215270000000001,0.322264,-0.790034,-0.039562,-0.054091,0.044398
956,0.519884,0.322196,-0.791144,-0.0475779999999999,0.032846,-0.028681
957,0.518563,0.322213,-0.792003,-0.032097,0.049369,-0.0274089999999999
958,0.5166810000000001,0.321544,-0.793504,0.000104,0.008412,-0.02304
959,0.5159229999999999,0.3210409999999999,-0.7942,0.0021739999999999,-0.007473,-0.020878
960,0.51749,0.321402,-0.793034,0.005826,-0.008139,-0.014675
961,0.520224,0.322661,-0.79073,0.001169,0.0098129999999999,-0.002559
962,0.523601,0.324268,-0.787838,0.005131,0.014934,0.007992
963,0.527547,0.325849,-0.784547,0.042629,0.030093,0.009843
964,0.5306649999999999,0.326545,-0.782151,-0.019755,-0.007514,-0.004684
965,0.532036,0.326304,-0.78132,-0.0318839999999999,-0.0106,0.008889
966,0.5332100000000001,0.326212,-0.780558,-0.034858,-0.0036869999999999,0.013941
967,0.534392,0.326184,-0.77976,-0.035613,0.021823,-0.017816
968,0.534065,0.325459,-0.780287,-0.018318,0.023449,-0.020815
969,0.532767,0.324054,-0.781758,0.005197,0.0165979999999999,-0.010433
970,0.533974,0.322899,-0.781412,0.015266,-0.016274,-0.007436
971,0.538554,0.322555,-0.778405,0.000661,-0.014846,6.9e-05
972,0.545308,0.323129,-0.77345,-0.006825,-0.011254,-0.010669
973,0.553435,0.324394,-0.767121,0.01735,0.0148849999999999,-0.005706
974,0.562638,0.326184,-0.7596310000000001,0.026062,0.025851,0.042377
975,0.571872,0.328638,-0.751636,0.00224,0.01348,0.041797
976,0.580025,0.331576,-0.74406,0.034172,0.016828,0.031383
977,0.591547,0.334282,-0.7337060000000001,0.08129,0.032646,-0.097715
978,0.609805,0.3352179999999999,-0.718167,-0.057025,-0.019742,-0.16164
979,0.625689,0.336677,-0.703675,-0.074389,-0.090888,0.114716
980,0.6368050000000001,0.3415,-0.6912689999999999,-0.0841929999999999,0.0219639999999999,-0.018494
981,0.643225,0.344859,-0.683615,0.034616,0.07845,-0.01893
982,0.6443989999999999,0.345428,-0.682221,0.016246,0.041947,0.0170139999999999
983,0.642066,0.344761,-0.684753,0.014337,0.0246389999999999,0.0271149999999999
984,0.639247,0.343842,-0.6878449999999999,0.014119,-0.013596,0.0510959999999999
985,0.637655,0.343962,-0.689262,0.035517,-0.036375,0.060661
986,0.63639,0.345155,-0.6898350000000001,0.044656,-0.023316,0.0384829999999999
987,0.635135,0.346974,-0.690078,0.028622,0.030162,0.001464
988,0.633892,0.348235,-0.690587,0.001927,0.048738,-0.039897
989,0.631776,0.3481889999999999,-0.692545,-0.031999,0.037416,-0.050375
990,0.628369,0.347039,-0.696213,-0.038632,0.032722,-0.027649
991,0.624374,0.345304,-0.700655,-0.021652,0.007891,-0.023893
992,0.6211399999999999,0.3436079999999999,-0.704353,-0.008347,-0.016216,-0.005501
993,0.619486,0.342496,-0.706349,-0.015772,-0.029675,0.0045969999999999
994,0.619151,0.3421949999999999,-0.706788,-0.0138199999999999,-0.02733,0.007753
995,0.620264,0.342482,-0.705673,0.007406,-0.009367,0.000167
996,0.622287,0.343004,-0.7036359999999999,0.007459,0.002196,-0.01188
997,0.624496,0.343237,-0.701562,-0.002807,0.0222419999999999,-0.023735
998,0.626155,0.343113,-0.700142,-0.035701,0.026974,-0.006859
999,0.626972,0.342994,-0.699469,-0.037175,0.022073,-0.006403
1000,0.627368,0.342838,-0.69919,-0.028369,0.0226409999999999,-0.021269
1001,0.627674,0.34257,-0.699048,-0.029483,0.0077569999999999,-0.016452
1002,0.628088,0.34246,-0.698729,-0.030172,0.009743,-0.016053
1003,0.628534,0.34258,-0.6982689999999999,-0.0105069999999999,0.005214,-0.005374
1004,0.629062,0.342756,-0.697707,0.003659,0.016436,-0.00821
1005,0.629546,0.342704,-0.697296,0.00998,0.014733,-0.00882
1006,0.629776,0.342404,-0.697235,0.002517,0.003574,0.005402
1007,0.62946,0.342091,-0.697674,0.002147,-0.002019,0.0111349999999999
1008,0.6289279999999999,0.34184,-0.698278,0.006464,-0.007977,0.0044
1009,0.628718,0.341677,-0.698547,0.005072,-0.016649,0.0039049999999999
1010,0.629109,0.341828,-0.69812,0.003139,-0.016358,0.007797
1011,0.6299020000000001,0.342517,-0.697066,0.000515,-0.004657,0.004912
1012,0.630959,0.343509,-0.695621,0.0047979999999999,0.0157889999999999,-0.008893
1013,0.632051,0.344466,-0.694155,0.002227,0.026003,-0.012754
1014,0.632782,0.344965,-0.69324,0.002884,0.034399,-0.017957
1015,0.6327,0.344862,-0.693366,0.002173,0.042085,-0.0073019999999999
1016,0.631771,0.344317,-0.694483,0.005131,0.03227,-0.002706
1017,0.6303270000000001,0.343539,-0.696178,0.009077,0.02136,-0.001698
1018,0.628833,0.342825,-0.697879,0.0151949999999999,-0.006705,0.013248
1019,0.6280640000000001,0.342343,-0.698808,0.009845,-0.012387,0.009065
1020,0.628369,0.3422409999999999,-0.698583,0.0051909999999999,-0.016023,0.004965
1021,0.629444,0.342665,-0.697408,-0.007633,-0.020902,-0.007869
1022,0.630416,0.343414,-0.69616,-0.012588,-0.007003,-0.009254
1023,0.630727,0.344139,-0.69552,-0.009236,0.00869,-0.01029
1024,0.6303949999999999,0.344425,-0.695679,-0.009683,0.0183979999999999,-0.006668
1025,0.629844,0.344455,-0.696163,0.000176,0.022458,0.002957
1026,0.6296069999999999,0.344522,-0.696345,0.001421,0.021994,0.002131
1027,0.629876,0.344719,-0.6960029999999999,0.007697,0.011543,6.500000000000001e-05
1028,0.630657,0.34508,-0.695117,-0.003811,0.013928,-0.004666
1029,0.631529,0.345494,-0.6941189999999999,-0.004683,0.013515,-0.005664
1030,0.6320859999999999,0.3457389999999999,-0.693489,-0.003333,0.0221199999999999,-0.01223
1031,0.6320100000000001,0.345572,-0.693643,-0.008352,0.017449,-0.007178
1032,0.6313350000000001,0.34518,-0.6944520000000001,-0.002428,0.01305,-0.000265
1033,0.630609,0.344771,-0.695314,0.001715,0.000459,0.000643
1034,0.630322,0.344546,-0.6956859999999999,-0.00137,-0.007953,0.000801
1035,0.630562,0.344644,-0.6954199999999999,-0.001503,-0.005334,-0.00183
1036,0.630937,0.344919,-0.694943,-0.003251,0.003165,-0.008716
1037,0.630971,0.345136,-0.694804,-0.005529,0.010028,-0.005757
1038,0.630733,0.345263,-0.6949569999999999,-0.003887,0.016111,-0.004124
1039,0.6304770000000001,0.3452639999999999,-0.6951890000000001,-0.00035,0.016461,-0.005494
1040,0.630326,0.345175,-0.6953699999999999,-0.001664,0.010705,-0.003696
1041,0.6303479999999999,0.345118,-0.695379,-0.003486,0.007665,-0.000849
1042,0.630494,0.345116,-0.695248,0.001083,0.006309,-0.001728
1043,0.630526,0.345151,-0.6952010000000001,0.004102,0.010287,-0.001591
1044,0.630444,0.345142,-0.69528,0.002231,0.013332,-0.003817
1045,0.630364,0.345095,-0.695376,0.001259,0.010038,-0.0052619999999999
1046,0.6302399999999999,0.34503,-0.69552,0.000619,0.0038009999999999,-0.001425
1047,0.63008,0.344991,-0.695684,0.001741,0.00294,-0.002878
1048,0.6300180000000001,0.345045,-0.695714,-0.000532,0.004778,-0.000545
1049,0.630008,0.3452389999999999,-0.695627,-0.0033909999999999,0.0085209999999999,-0.005271
1050,0.629988,0.345496,-0.695517,-0.005065,0.0161669999999999,-0.006052
1051,0.629891,0.345679,-0.6955140000000001,-0.005059,0.016,-0.005414
1052,0.629596,0.3457159999999999,-0.695763,-0.003116,0.01317,-0.005699
1053,0.629151,0.34564,-0.696203,0.001113,0.008258,-0.003367
1054,0.628707,0.345555,-0.696646,0.0010539999999999,0.011058,-0.002267
1055,0.62831,0.345495,-0.697034,-0.001158,0.006449,0.000608
1056,0.627953,0.345519,-0.697344,-0.000938,0.005082,-0.000806
1057,0.62773,0.345603,-0.697503,0.000245,-0.004004,-0.0017
1058,0.627867,0.345803,-0.69728,-0.0026379999999999,-0.002816,-0.001236
1059,0.62846,0.346209,-0.696545,-0.00436,-0.00223,-0.005771
1060,0.62929,0.346786,-0.695508,-0.0065629999999999,0.008759,-0.012241
1061,0.629988,0.347357,-0.694589,-0.003447,0.018915,-0.006811
1062,0.6303350000000001,0.34776,-0.6940729999999999,-0.003306,0.021991,-0.006458
1063,0.630112,0.347792,-0.694259,-0.005326,0.023927,-0.004578
1064,0.629484,0.347408,-0.695022,0.001025,0.0165909999999999,-0.00145
1065,0.628847,0.3468699999999999,-0.695867,0.000822,0.013604,0.000615
1066,0.628408,0.346454,-0.69647,-0.003972,0.002103,0.00308
1067,0.628264,0.346253,-0.696699,-0.001616,0.00148,-0.003084
1068,0.6285310000000001,0.346225,-0.696473,-0.00344,0.002637,-0.0117489999999999
1069,0.6289710000000001,0.346267,-0.696055,-0.007801,0.0033729999999999,-0.010656
1070,0.629229,0.34625,-0.6958300000000001,-0.007891,0.011767,-0.008958
1071,0.62921,0.34607,-0.695936,-0.005492,0.010421,-0.00664
1072,0.6289680000000001,0.3457909999999999,-0.696294,-0.0024879999999999,0.009434,0.001455
1073,0.6288090000000001,0.345585,-0.6965399999999999,0.001364,0.0068319999999999,-0.0004969999999999
1074,0.628889,0.345534,-0.696493,0.001604,0.008562,-0.002375
1075,0.629085,0.345568,-0.696299,0.000202,0.010237,-0.002371
1076,0.629238,0.345573,-0.6961579999999999,-0.002224,0.01072,-0.005243
1077,0.629191,0.345497,-0.696238,-0.002925,0.012535,-0.0045369999999999
1078,0.628915,0.345308,-0.696581,7.000000000000001e-06,0.008985,-0.0045299999999999
1079,0.628621,0.34508,-0.69696,0.001964,0.007123,0.000473
1080,0.62846,0.344918,-0.697185,9.6e-05,0.005424,-0.001515
1081,0.628404,0.344828,-0.69728,0.002913,0.0065209999999999,-0.002686
1082,0.628373,0.344794,-0.6973239999999999,-0.00551,0.004495,-0.001315
1083,0.628344,0.344823,-0.697336,-0.002261,0.006175,4e-05
1084,0.628368,0.3449239999999999,-0.6972649999999999,-0.0036119999999999,0.0111849999999999,-0.0071569999999999
1085,0.62839,0.344987,-0.697214,-0.004794,0.009932,-0.007376
1086,0.628315,0.344961,-0.697295,-0.006534,0.010508,-0.008394
1087,0.6281760000000001,0.344896,-0.6974520000000001,-0.003771,0.011473,-0.005017
1088,0.628067,0.344838,-0.697579,-0.002807,0.013713,-0.0015789999999999
1089,0.627961,0.344776,-0.697704,-0.0012519999999999,0.010891,0.002071
1090,0.627762,0.344666,-0.6979380000000001,0.00093,0.010085,-0.001327
1091,0.627498,0.344553,-0.698231,-0.0008349999999999,0.008719,-0.001934
1092,0.627205,0.3443969999999999,-0.698572,0.000206,0.010416,-0.004538
1093,0.6269359999999999,0.344229,-0.698896,-0.000318,0.002923,-0.003619
1094,0.626783,0.344122,-0.699086,-0.000364,0.002649,-0.001598
1095,0.626872,0.344123,-0.699005,-0.000468,-3.7e-05,-0.002151
1096,0.627182,0.3442679999999999,-0.698655,-0.005448,0.002503,-0.004195
1097,0.627627,0.344489,-0.6981470000000001,-0.006579,0.008645,-0.0062299999999999
1098,0.628007,0.344717,-0.697693,-0.004838,0.01655,-0.0056159999999999
1099,0.6281899999999999,0.344812,-0.697481,-0.001542,0.018363,-0.001493
1100,0.628205,0.344802,-0.697472,-0.00203,0.018555,-0.001472
1101,0.628141,0.344697,-0.6975819999999999,0.000415,0.015105,-0.0045509999999999
1102,0.628015,0.344537,-0.697774,-0.000131,0.013358,-0.004405
1103,0.6278560000000001,0.344323,-0.698023,-0.000735,0.009193,-0.003622
1104,0.6276430000000001,0.344078,-0.698335,-0.001514,0.0064319999999999,-0.002105
1105,0.627442,0.343867,-0.69862,0.001617,0.005972,-0.004795
1106,0.627286,0.343696,-0.6988439999999999,0.001239,0.002495,-0.003045
1107,0.6271479999999999,0.343582,-0.699024,0.0009029999999999,0.003327,-0.000821
1108,0.6270220000000001,0.343535,-0.69916,-0.001549,0.006532,-0.000684
1109,0.626958,0.343517,-0.699226,-0.001516,0.007023,-0.0007099999999999
1110,0.626943,0.3435539999999999,-0.699221,-0.000966,0.007001,-0.0017059999999999
1111,0.626918,0.343641,-0.6992010000000001,-0.001399,0.009966,-0.004061
1112,0.626875,0.343721,-0.6992010000000001,-0.003217,0.011427,-0.004214
1113,0.626779,0.343771,-0.699261,-0.000498,0.009332,-0.005496
1114,0.626695,0.343783,-0.699331,-0.002351,0.009961,-0.006327
1115,0.626666,0.343802,-0.699348,-0.005435,0.007364,-0.00245
1116,0.6267010000000001,0.343869,-0.699284,-0.0064,0.009281,-0.0017809999999999
1117,0.6267020000000001,0.343946,-0.699245,0.000556,0.004992,-0.001622
1118,0.626677,0.344003,-0.69924,-0.002836,0.010367,-0.002069
1119,0.626722,0.344063,-0.6991689999999999,-0.002882,0.0103069999999999,-0.00214
1120,0.626922,0.3441369999999999,-0.6989529999999999,-0.0035859999999999,0.008417,-0.006003
1121,0.627099,0.344221,-0.698753,-0.003427,0.008989,-0.003899
1122,0.627145,0.344276,-0.698685,-0.000482,0.010827,-0.003036
1123,0.6270180000000001,0.344251,-0.698811,0.000728,0.009951,-0.0019489999999999
1124,0.626735,0.344134,-0.6991229999999999,0.001347,0.01019,-0.000111
1125,0.626497,0.344052,-0.699377,-0.0010689999999999,0.010196,-0.000345
1126,0.626344,0.344065,-0.699507,0.004332,0.009298,-0.000566
1127,0.6263270000000001,0.344105,-0.699503,0.0019079999999999,0.005169,-0.002218
1128,0.626387,0.344165,-0.6994199999999999,4.8e-05,0.006299,-8.9e-05
1129,0.62648,0.344244,-0.699298,-0.000259,0.0052439999999999,-0.0052619999999999
1130,0.626595,0.344346,-0.699144,-0.004601,0.010101,-0.001097
1131,0.626734,0.344484,-0.698951,-0.003947,0.011534,-0.00483
1132,0.626862,0.344616,-0.698771,-0.003785,0.013828,-0.0053
1133,0.62692,0.344715,-0.698671,-0.006651,0.012723,-0.005553
1134,0.626866,0.344703,-0.698725,-0.004506,0.011833,-0.005575
1135,0.62671,0.344666,-0.6988840000000001,-0.0028239999999999,0.014069,-0.002731
1136,0.626559,0.344588,-0.6990569999999999,0.00044,0.009309,-0.002389
1137,0.62645,0.344469,-0.699214,-0.002442,0.008467,-0.001714
1138,0.6263350000000001,0.344395,-0.699353,-0.001122,0.005733,-3.4e-05
1139,0.6262449999999999,0.344366,-0.699448,0.0009369999999999,0.0065099999999999,-0.002975
1140,0.626273,0.344356,-0.6994279999999999,0.002557,0.006184,-0.001469
1141,0.626384,0.344417,-0.699298,0.00066,0.0085799999999999,-0.001736
1142,0.6264649999999999,0.344482,-0.699194,-0.0009,0.009064,-0.002069
1143,0.6264460000000001,0.344517,-0.6991930000000001,8e-05,0.009319,-0.001322
1144,0.626398,0.344571,-0.69921,-0.001901,0.008548,-0.00242
1145,0.62634,0.344636,-0.69923,-0.000653,0.007598,-0.000767
1146,0.6263449999999999,0.3447179999999999,-0.6991850000000001,-0.002428,0.007974,-0.003299
1147,0.626386,0.344869,-0.699074,-0.002133,0.009654,-0.00283
1148,0.626433,0.345019,-0.6989569999999999,-0.002669,0.0122659999999999,-0.00461
1149,0.6264569999999999,0.34508,-0.698906,-0.004463,0.010343,-0.004814
1150,0.626459,0.345091,-0.6988989999999999,-0.00332,0.010973,-0.001998
1151,0.626404,0.345141,-0.698923,-0.000672,0.010678,-0.001257
1152,0.626312,0.345172,-0.69899,0.000214,0.010342,-0.002945
1153,0.6262479999999999,0.345206,-0.6990310000000001,-0.001447,0.011331,-0.00266
1154,0.626229,0.345203,-0.69905,-0.002892,0.008618,0.000106
1155,0.626121,0.345183,-0.699156,0.000588,0.010286,-0.001756
1156,0.625977,0.345123,-0.6993149999999999,-0.0044259999999999,0.011673,-0.004848
1157,0.625913,0.345022,-0.699422,-0.002271,0.010736,-0.0068769999999999
1158,0.6258739999999999,0.344968,-0.699483,-0.004506,0.009097,-0.004313
1159,0.6259319999999999,0.34501,-0.6994100000000001,0.000685,0.007696,0.001382
1160,0.626084,0.345057,-0.6992520000000001,-0.0017239999999999,0.0120299999999999,-0.005094
1161,0.6262810000000001,0.344987,-0.69911,-1.4e-05,0.011687,-0.006808
1162,0.626363,0.344866,-0.699096,-0.004445,0.010648,-0.000291
1163,0.626314,0.344771,-0.699186,-0.000582,0.01317,-0.000582
1164,0.626272,0.344686,-0.6992659999999999,0.000299,0.013361,-0.001357
1165,0.626302,0.344603,-0.69928,-0.003118,0.008989,-0.001007
1166,0.6262800000000001,0.344498,-0.6993520000000001,0.001971,0.012161,-0.000538
1167,0.6261369999999999,0.344344,-0.699555,0.002113,0.012314,-0.000335
1168,0.625908,0.344127,-0.699867,0.001213,0.010198,-0.000649
1169,0.625672,0.343861,-0.7002079999999999,0.001555,0.008984,0.001905
1170,0.625425,0.343665,-0.700525,0.001802,0.009179,0.002222
1171,0.625208,0.343577,-0.700763,0.00263,0.006918,0.000109
1172,0.625075,0.343519,-0.70091,0.0013599999999999,0.0070209999999999,-0.002871
1173,0.625004,0.343481,-0.700991,0.001431,0.007059,-0.00279
1174,0.6248739999999999,0.34344,-0.7011270000000001,-0.002224,0.008931,-0.003249
1175,0.624739,0.343376,-0.701279,-0.002135,0.009178,-0.001022
1176,0.624708,0.34336,-0.701314,-0.003325,0.008828,-0.003627
1177,0.624782,0.343405,-0.701226,-0.005367,0.011728,-0.006385
1178,0.624853,0.343458,-0.701137,-0.002768,0.013124,-0.002431
1179,0.624877,0.34345,-0.7011189999999999,-0.001205,0.011317,-0.002143
1180,0.624869,0.343405,-0.701149,-0.001334,0.012918,-0.000572
1181,0.624858,0.343362,-0.70118,0.000478,0.009833,-0.001213
1182,0.624866,0.3433199999999999,-0.7011930000000001,-0.000263,0.0118129999999999,-0.002131
1183,0.624799,0.343262,-0.701281,0.000583,0.010467,-0.000867
1184,0.6246520000000001,0.343163,-0.7014600000000001,0.0002109999999999,0.008185,-0.000825
1185,0.6245850000000001,0.343086,-0.701558,0.001834,0.008598,-0.00085
1186,0.6246430000000001,0.343066,-0.701516,-0.00126,0.009443,-0.00373
1187,0.624794,0.343076,-0.701376,-0.002159,0.010486,-0.0039759999999999
1188,0.624948,0.343086,-0.701235,-0.003686,0.011025,-0.002806
1189,0.625119,0.343115,-0.701068,0.001971,0.012919,-0.00343
1190,0.625203,0.343178,-0.700963,0.003688,0.014778,-0.000972
1191,0.625142,0.343192,-0.701009,0.002742,0.012597,0.003179
1192,0.624942,0.343113,-0.701227,0.0018739999999999,0.011089,0.002466
1193,0.62465,0.342962,-0.701561,0.004272,0.008448,0.001885
1194,0.6244850000000001,0.342852,-0.701761,0.002926,0.005658,0.001566
1195,0.624545,0.342884,-0.701693,-0.001086,0.006558,-0.002226
1196,0.624811,0.342987,-0.7014050000000001,-0.003779,0.008758,-0.0081599999999999
1197,0.62513,0.343101,-0.7010649999999999,-0.007882,0.01011,-0.006775
1198,0.6253029999999999,0.343196,-0.700864,-0.0081459999999999,0.015461,-0.008716
1199,0.625225,0.343169,-0.700947,-0.004925,0.016679,-0.004727
1200,0.624887,0.343018,-0.701322,-0.002909,0.0140069999999999,0.000714
1201,0.624559,0.342867,-0.701688,-0.00081,0.012297,0.0001199999999999
1202,0.624394,0.342761,-0.701886,0.002391,0.008389,-0.000781
1203,0.624394,0.3426889999999999,-0.701922,0.000819,0.005898,-0.004606
1204,0.624456,0.342611,-0.701905,-0.0016539999999999,0.0051979999999999,-0.001327
1205,0.6245649999999999,0.34257,-0.701828,-0.001869,0.006155,-0.001465
1206,0.624657,0.342576,-0.701743,2.2e-05,0.008727,-0.002389
1207,0.6246729999999999,0.342598,-0.7017180000000001,0.000327,0.00962,-0.0017579999999999
1208,0.6245930000000001,0.342578,-0.701799,0.000331,0.0148289999999999,0.000795
1209,0.624388,0.342532,-0.702004,-0.000243,0.0132419999999999,0.002968
1210,0.62412,0.342477,-0.7022689999999999,0.003977,0.010993,0.001341
1211,0.623925,0.342476,-0.702443,-0.000588,0.003517,-0.0024519999999999
1212,0.62389,0.342537,-0.702445,0.0001189999999999,0.003654,-0.001443
1213,0.624052,0.342661,-0.70224,-0.006696,0.004842,-0.004425
1214,0.624258,0.342809,-0.701984,-0.007818,0.009577,-0.003781
1215,0.624412,0.342938,-0.701784,-0.007804,0.01067,-0.002546
1216,0.624483,0.343049,-0.701667,-0.002901,0.0148759999999999,-0.000909
1217,0.624545,0.343107,-0.701584,-0.002779,0.015337,-0.002381
1218,0.6245689999999999,0.343101,-0.701565,0.0002319999999999,0.012398,-0.001286
1219,0.624525,0.343103,-0.7016020000000001,0.000597,0.010199,0.001071
1220,0.6244310000000001,0.343075,-0.7017,0.0036049999999999,0.009708,-0.00202
1221,0.624341,0.342996,-0.701819,0.001284,0.011175,-0.002893
1222,0.6242800000000001,0.342908,-0.701916,-0.000318,0.012225,-0.0030399999999999
1223,0.6242,0.342802,-0.7020390000000001,0.0008,0.0096,-0.0006129999999999
1224,0.624178,0.342683,-0.702117,0.000822,0.009719,-0.000535
1225,0.624261,0.342676,-0.7020460000000001,-0.000192,0.0051329999999999,0.002949
1226,0.624437,0.342733,-0.701862,0.001326,0.004924,-5.8e-05
1227,0.624685,0.3428239999999999,-0.701597,-0.00147,0.005671,-3.3e-05
1228,0.625024,0.342989,-0.701214,0.000846,0.010481,0.000439
1229,0.6254689999999999,0.343188,-0.700719,-0.00166,0.016339,-0.002299
1230,0.625885,0.343371,-0.700259,-0.0022429999999999,0.016934,-0.004713
1231,0.626106,0.343472,-0.700012,0.001992,0.023502,-0.002686
1232,0.625803,0.343366,-0.700334,0.0029809999999999,0.023058,0.000597
1233,0.6247560000000001,0.342909,-0.701493,0.004929,0.019915,0.0038759999999999
1234,0.6232949999999999,0.342259,-0.703108,0.008847,0.002147,0.006132
1235,0.6222340000000001,0.341738,-0.704299,0.00539,-0.007006,0.006698
1236,0.62208,0.341675,-0.704466,-0.000483,-0.012726,0.001493
1237,0.62267,0.342026,-0.703775,-0.011983,-0.00502,-0.007895
1238,0.6235,0.342557,-0.7027800000000001,-0.014431,0.003268,-0.009928
1239,0.624214,0.34312,-0.701872,-0.013526,0.007009,-0.010713
1240,0.624727,0.343607,-0.701176,-0.007418,0.022269,-0.007839
1241,0.625037,0.343933,-0.7007399999999999,-0.005393,0.0280459999999999,-0.002537
1242,0.625142,0.34404,-0.7005939999999999,-0.000814,0.0244449999999999,-0.00099
1243,0.625041,0.34398,-0.7007140000000001,0.001851,0.0185539999999999,0.004761
1244,0.624942,0.343882,-0.70085,0.0044979999999999,0.012563,0.004408
1245,0.624972,0.343801,-0.700863,0.005811,0.006464,-0.001102
1246,0.625063,0.343731,-0.700816,0.007078,0.005436,-0.000798
1247,0.625091,0.343584,-0.700863,0.005127,0.0062229999999999,-0.000309
1248,0.624871,0.343354,-0.701172,0.005118,0.004775,0.001633
1249,0.624379,0.343089,-0.7017399999999999,0.005657,0.00594,0.006779
1250,0.623896,0.342921,-0.7022520000000001,0.006063,0.006551,0.006039
1251,0.623672,0.342891,-0.702465,0.004196,0.008001,0.00404
1252,0.623753,0.343001,-0.70234,-0.0003399999999999,0.010606,-0.0017469999999999
1253,0.6238520000000001,0.343144,-0.702181,-0.006528,0.0124459999999999,-0.007658
1254,0.6237689999999999,0.343202,-0.702228,-0.005452,0.0132129999999999,-0.007337
1255,0.623629,0.3431909999999999,-0.702357,-0.008914,0.011515,-0.00942
1256,0.623388,0.3431639999999999,-0.702584,-0.0036829999999999,0.017859,-0.004555
1257,0.623005,0.34309,-0.70296,-0.003299,0.017933,-0.004178
1258,0.6225569999999999,0.342964,-0.703418,0.003679,0.008095,0.001102
1259,0.622386,0.34284,-0.703629,0.003026,-0.000692,0.004853
1260,0.622725,0.342875,-0.703313,0.002687,-0.000727,0.0045369999999999
1261,0.623562,0.343183,-0.7024199999999999,-0.003995,-0.004209,-0.002032
1262,0.624614,0.34364,-0.7012609999999999,-0.005825,-0.0034,-0.003222
1263,0.625599,0.344119,-0.700148,-0.002994,0.009793,-0.008531
1264,0.626288,0.344469,-0.6993590000000001,-0.00498,0.024839,-0.010907
1265,0.6265229999999999,0.344567,-0.6991,-0.0048189999999999,0.033698,-0.000729
1266,0.626347,0.344433,-0.699324,-0.002538,0.031192,0.000273
1267,0.62584,0.344073,-0.699956,0.003173,0.019422,0.002873
1268,0.625189,0.343575,-0.700781,0.012064,0.001564,0.004629
1269,0.6245310000000001,0.343045,-0.701627,0.0120349999999999,0.000842,0.003934
1270,0.6239359999999999,0.342551,-0.702397,0.008083,-8.2e-05,0.004079
1271,0.623579,0.342208,-0.702882,-0.00134,0.0002299999999999,-0.004287
1272,0.623414,0.342006,-0.703126,-0.0031899999999999,0.002064,-0.003722
1273,0.623216,0.341904,-0.7033510000000001,-0.0028399999999999,0.004516,-0.003146
1274,0.622913,0.341876,-0.703633,0.001996,0.006818,-0.001826
1275,0.622768,0.341886,-0.703757,-7.2e-05,0.006609,-0.0006349999999999
1276,0.622865,0.341996,-0.7036180000000001,-0.002427,0.013244,-0.003459
1277,0.623067,0.342198,-0.70334,-0.002309,0.0144,-0.007155
1278,0.623265,0.342411,-0.7030609999999999,-0.003621,0.015072,-0.004092
1279,0.6233310000000001,0.342535,-0.702941,-0.003443,0.0101409999999999,-0.003708
1280,0.623309,0.342586,-0.702937,-0.001849,0.009663,-0.002202
1281,0.623252,0.342644,-0.702959,-0.00045,0.006828,-0.000212
1282,0.6231720000000001,0.342712,-0.702997,0.000516,0.008591,0.001261
1283,0.623104,0.342802,-0.703013,0.001133,0.009126,0.002803
1284,0.623051,0.342908,-0.703009,0.002971,0.01047,-0.001612
1285,0.623019,0.342954,-0.703014,0.002454,0.011539,-0.000553
1286,0.622996,0.34299,-0.703017,0.001348,0.010647,-0.001268
1287,0.622942,0.343025,-0.703048,-0.002428,0.009331,-0.0014039999999999
1288,0.622794,0.343052,-0.703166,0.001443,0.008144,-0.000356
1289,0.622646,0.343065,-0.703291,0.001637,0.010054,-7.8e-05
1290,0.6225350000000001,0.34305,-0.703396,-0.002022,0.009138,-0.002018
1291,0.622421,0.343033,-0.703505,-0.000915,0.008011,-0.000947
1292,0.62232,0.343032,-0.703595,-0.001074,0.0083629999999999,-0.001086
1293,0.622258,0.343096,-0.703619,-0.003606,0.009154,-0.0033049999999999
1294,0.622216,0.34314,-0.703635,-0.002496,0.009918,-0.0025109999999999
1295,0.62212,0.343149,-0.703715,-0.003895,0.012808,-0.00356
1296,0.622019,0.343124,-0.703817,0.000235,0.013321,-0.002955
1297,0.622053,0.343066,-0.703815,-0.000212,0.011106,1.8e-05
1298,0.622224,0.343051,-0.70367,0.000487,0.008588,-0.001179
1299,0.62247,0.343076,-0.703441,0.001034,0.009646,5.6000000000000006e-05
1300,0.622713,0.343099,-0.7032149999999999,0.00157,0.010036,-0.002107
1301,0.622901,0.343107,-0.703045,-2.2e-05,0.009875,-0.000523
1302,0.6230220000000001,0.34308,-0.702951,-0.001852,0.010405,2.4e-05
1303,0.623124,0.343046,-0.7028760000000001,-0.002717,0.010713,-0.002629
1304,0.623189,0.343013,-0.702835,-0.001485,0.009465,3.1e-05
1305,0.623184,0.342976,-0.702858,-0.002517,0.00793,-0.000923
1306,0.6231439999999999,0.342954,-0.702904,0.000574,0.010668,-0.001655
1307,0.623073,0.342911,-0.7029880000000001,0.002614,0.012451,-0.0019379999999999
1308,0.622974,0.342859,-0.703101,0.001004,0.009008,0.001044
1309,0.622888,0.34286,-0.703177,0.002616,0.007009,0.001395
1310,0.622843,0.342925,-0.703184,0.004476,0.006898,0.000196
1311,0.622901,0.342992,-0.703101,0.002496,0.008952,-2.4e-05
1312,0.623019,0.34307,-0.702958,0.0015689999999999,0.008859,-0.001098
1313,0.623121,0.343157,-0.702825,-0.00215,0.009367,-0.001643
1314,0.623199,0.343271,-0.7027,-0.0035549999999999,0.010947,0.000155
1315,0.623258,0.34341,-0.70258,-0.002088,0.009984,-0.0010949999999999
1316,0.62327,0.343572,-0.70249,0.0002189999999999,0.010158,-0.0021609999999999
1317,0.623271,0.343682,-0.702435,-0.0012619999999999,0.009009,-0.0033909999999999
1318,0.623323,0.343803,-0.70233,-0.000428,0.009148,-0.002336
1319,0.623409,0.343929,-0.702191,0.00153,0.011036,-0.0027949999999999
1320,0.623504,0.344034,-0.702056,0.00145,0.010825,-0.003724
1321,0.623577,0.344124,-0.701947,0.000248,0.010735,-0.002551
1322,0.62361,0.3442,-0.7018810000000001,0.001451,0.008736,0.000343
1323,0.6235970000000001,0.3442659999999999,-0.701859,0.002975,0.0097989999999999,-0.001907
1324,0.623609,0.344335,-0.701815,0.000933,0.01237,-0.001401
1325,0.6236109999999999,0.344379,-0.701792,-0.001495,0.010723,-0.000601
1326,0.623575,0.34438,-0.701824,-0.0015199999999999,0.010341,-0.002186
1327,0.6235109999999999,0.344369,-0.701886,0.000162,0.0094819999999999,-0.000888
1328,0.623387,0.344346,-0.7020069999999999,-0.000889,0.007354,-0.000492
1329,0.623166,0.344306,-0.7022229999999999,-0.000867,0.008355,0.001371
1330,0.623041,0.344279,-0.702346,0.000723,0.0099379999999999,-0.003266
1331,0.6231220000000001,0.344258,-0.702285,-0.005431,0.009715,-0.004685
1332,0.623259,0.344238,-0.702174,-0.004225,0.012009,-0.002508
1333,0.623314,0.3442449999999999,-0.702121,-0.001854,0.0120019999999999,-0.0038729999999999
1334,0.623371,0.344228,-0.702079,0.0035369999999999,0.011455,-0.0019309999999999
1335,0.623668,0.344176,-0.7018409999999999,-0.000606,0.010606,-0.000262
1336,0.624079,0.3441869999999999,-0.7014699999999999,0.0004179999999999,0.005529,0.001839
1337,0.62459,0.344253,-0.700983,-0.000567,0.009141,-0.0008
1338,0.625215,0.344355,-0.700375,-0.001787,0.010183,-0.0018039999999999
1339,0.625903,0.344518,-0.69968,0.000592,0.016307,-0.00584
1340,0.626105,0.344577,-0.69947,0.002969,0.0220919999999999,-0.002358
1341,0.625371,0.3443219999999999,-0.7002520000000001,0.002726,0.0295329999999999,-0.001164
1342,0.6236619999999999,0.34348,-0.702187,0.012264,0.015895,0.007714
1343,0.6216020000000001,0.342388,-0.704543,0.01115,-0.005519,0.012145
1344,0.6200979999999999,0.3415829999999999,-0.706257,0.007343,-0.013153,0.0135229999999999
1345,0.619537,0.341338,-0.706868,0.001954,-0.018218,-0.002895
1346,0.619868,0.341545,-0.706477,-0.00999,-0.011131,-0.010915
1347,0.62087,0.3420809999999999,-0.705337,-0.015645,-0.007181,-0.015869
1348,0.622067,0.342777,-0.703943,-0.017758,0.015225,-0.017859
1349,0.623093,0.343407,-0.702728,-0.012863,0.0248639999999999,-0.01175
1350,0.623765,0.343855,-0.701912,-0.010728,0.0271019999999999,-0.0070269999999999
1351,0.624081,0.344089,-0.701516,-0.00285,0.025082,0.001962
1352,0.624276,0.344178,-0.701299,8.3e-05,0.022308,0.009099
1353,0.624421,0.344202,-0.701158,0.004958,0.020636,0.008196
1354,0.624462,0.344131,-0.701156,0.0072209999999999,0.0128479999999999,0.001892
1355,0.6243609999999999,0.343912,-0.701354,0.009367,0.0104739999999999,-0.000413
1356,0.624091,0.343545,-0.701774,0.009301,0.007743,-0.000939
1357,0.6237189999999999,0.343088,-0.702328,0.007736,-0.003153,0.004605
1358,0.623323,0.342711,-0.702863,0.010496,-0.002455,0.003278
1359,0.623046,0.342475,-0.703224,0.008103,0.001015,0.005378
1360,0.622937,0.342431,-0.703342,0.005649,0.003577,0.004901
1361,0.622954,0.3425559999999999,-0.703266,0.000886,0.010196,4.9e-05
1362,0.622946,0.3427409999999999,-0.703183,-0.003515,0.0132919999999999,-0.003665
1363,0.622887,0.342909,-0.703153,-0.006005,0.014711,-0.004168
1364,0.622803,0.343019,-0.703174,-0.009033,0.014022,-0.0097159999999999
1365,0.622674,0.343036,-0.703279,-0.007669,0.012005,-0.007872
1366,0.622522,0.342991,-0.703437,-0.006417,0.01054,-0.00361
1367,0.62232,0.342897,-0.703661,-0.003835,0.008269,-0.001829
1368,0.622175,0.342821,-0.7038260000000001,-0.003401,0.011961,-0.004914
1369,0.622136,0.342767,-0.703887,0.0012619999999999,0.010215,-0.002579
1370,0.622258,0.342731,-0.703797,0.001567,0.009183,-0.000259
1371,0.622559,0.342726,-0.703533,-0.000473,0.008958,-0.0024
1372,0.622916,0.342736,-0.703212,-0.001013,0.004966,-0.001317
1373,0.623152,0.342778,-0.702983,0.003557,0.009105,0.001811
1374,0.623263,0.342842,-0.702853,0.003202,0.007683,0.002902
1375,0.623274,0.34289,-0.70282,0.005282,0.010473,-0.000397
1376,0.623314,0.342902,-0.702779,0.001243,0.013208,-5.7e-05
1377,0.623428,0.342931,-0.702663,0.000565,0.013057,-0.003742
1378,0.623564,0.342969,-0.7025239999999999,0.000551,0.009342,-0.000296
1379,0.623563,0.342977,-0.702521,0.000384,0.00857,-0.0008939999999999
1380,0.62342,0.342927,-0.702673,-0.0001899999999999,0.008651,-0.002589
1381,0.623212,0.342856,-0.702892,-0.001096,0.009592,0.00056
1382,0.623054,0.3428199999999999,-0.7030489999999999,-0.00106,0.01123,-0.0038909999999999
1383,0.622976,0.342794,-0.7031310000000001,-0.001974,0.0133,-0.0041909999999999
1384,0.622911,0.342755,-0.7032069999999999,-0.0010689999999999,0.011554,-0.002618
1385,0.6228020000000001,0.342686,-0.703337,-0.001022,0.011775,-0.00313
1386,0.622707,0.342604,-0.703461,-0.002468,0.010667,-0.002715
1387,0.6226149999999999,0.342501,-0.703592,-0.001644,0.0065439999999999,-0.00086
1388,0.622598,0.342454,-0.703631,0.000601,0.009155,-0.000837
1389,0.622667,0.34247,-0.703562,0.002394,0.006911,0.001536
1390,0.622743,0.342526,-0.703467,0.001326,0.006869,-0.002084
1391,0.6227520000000001,0.342595,-0.703426,0.0008289999999999,0.008037,0.000896
1392,0.622764,0.342656,-0.703385,0.000923,0.0086319999999999,0.000825
1393,0.622746,0.34276,-0.7033510000000001,0.0027429999999999,0.011275,-0.000247
1394,0.622764,0.342894,-0.70327,0.00277,0.008653,-0.000649
1395,0.622951,0.343005,-0.70305,0.001805,0.007764,0.001527
1396,0.623354,0.343223,-0.7025859999999999,-0.005724,0.008858,-0.004796
1397,0.62387,0.343511,-0.701987,-0.004775,0.011332,-0.002557
1398,0.624409,0.3438,-0.7013659999999999,-0.007908,0.014675,-0.007756
1399,0.624919,0.344021,-0.700803,-0.006404,0.0186199999999999,-0.004153
1400,0.625292,0.344171,-0.700396,-0.001223,0.019156,-0.002729
1401,0.625438,0.344169,-0.700267,0.002247,0.017571,-0.002522
1402,0.625346,0.344053,-0.700407,0.005895,0.0146349999999999,0.002531
1403,0.625155,0.343832,-0.700685,0.003278,0.010431,0.002245
1404,0.624818,0.343532,-0.701133,0.006179,0.010258,0.001777
1405,0.624267,0.34317,-0.701801,0.008988,0.011674,0.001194
1406,0.62366,0.342781,-0.70253,0.008313,0.0053939999999999,0.00412
1407,0.623235,0.342477,-0.703056,0.004603,0.000846,0.0037
1408,0.623106,0.342346,-0.703234,0.001985,-0.00473,-0.001234
1409,0.623222,0.342364,-0.703122,-0.003853,-0.0066709999999999,-0.0018039999999999
1410,0.62349,0.342565,-0.7027869999999999,-0.005417,-0.000951,-0.00281
1411,0.6239520000000001,0.342922,-0.702202,-0.010716,0.011677,-0.008277
1412,0.6244270000000001,0.343326,-0.7015819999999999,-0.012611,0.019833,-0.010652
1413,0.624742,0.343652,-0.701142,-0.011705,0.024634,-0.009459
1414,0.624933,0.3437969999999999,-0.700901,-0.007654,0.024794,-0.006359
1415,0.62497,0.343806,-0.700864,-0.002976,0.019781,-0.0038179999999999
1416,0.624841,0.343651,-0.701055,0.001609,0.015358,-0.001353
1417,0.624534,0.343403,-0.70145,0.006218,0.009961,0.002292
1418,0.6241979999999999,0.343116,-0.701889,0.008935,0.00512,0.003754
1419,0.6239680000000001,0.342863,-0.702217,0.00625,0.004275,0.002113
1420,0.623771,0.34269,-0.702477,0.005425,0.000984,0.0001909999999999
1421,0.6235970000000001,0.342575,-0.702687,0.0007469999999999,0.001541,0.001652
1422,0.6234270000000001,0.342542,-0.702854,-0.000716,0.001818,-0.000805
1423,0.623293,0.342607,-0.702942,0.000426,0.004317,0.0022429999999999
1424,0.6232489999999999,0.3427739999999999,-0.7028979999999999,-0.001103,0.008681,-0.003492
1425,0.623268,0.342961,-0.7027899999999999,-0.0001149999999999,0.009044,-0.003264
1426,0.623309,0.343157,-0.702659,-0.001803,0.013227,-0.003411
1427,0.623351,0.343306,-0.702548,-0.005416,0.01378,-0.003384
1428,0.623351,0.3433739999999999,-0.702516,-0.006911,0.015497,-0.005187
1429,0.62334,0.343385,-0.70252,-0.004611,0.012328,-0.004175
1430,0.623272,0.343321,-0.702611,-0.002178,0.012743,-0.001948
1431,0.6231359999999999,0.343198,-0.702792,-0.001645,0.011965,-0.003018
1432,0.62295,0.343064,-0.703022,-0.003016,0.0106349999999999,-0.005657
1433,0.622799,0.342891,-0.70324,-0.00079,0.012959,-0.002784
1434,0.62271,0.3427449999999999,-0.70339,-0.001937,0.008101,-0.001642
1435,0.62267,0.34265,-0.703472,0.001094,0.0049299999999999,-0.00153
1436,0.622692,0.342624,-0.703465,0.002018,0.003903,-0.003963
1437,0.622676,0.3426389999999999,-0.703472,0.001057,0.008222,0.0012779999999999
1438,0.622599,0.342669,-0.703525,0.003133,0.008573,0.002735
1439,0.622529,0.342685,-0.703579,-0.000703,0.011105,0.001049
1440,0.622499,0.342698,-0.7036,-0.000291,0.013,0.000643
1441,0.6224810000000001,0.342724,-0.703603,0.002198,0.010028,-0.001704
1442,0.622599,0.3427949999999999,-0.703464,0.001318,0.006585,-0.001385
1443,0.622847,0.34294,-0.703174,-0.001051,0.005693,-0.003751
1444,0.623125,0.343114,-0.702843,-0.003832,0.006084,-0.001106
1445,0.623351,0.34326,-0.7025710000000001,-0.0041189999999999,0.007875,-0.001149
1446,0.623422,0.343411,-0.702434,-0.00451,0.010364,-0.002095
1447,0.623424,0.343539,-0.7023699999999999,0.000524,0.012937,-0.003578
1448,0.62346,0.34365,-0.702284,-0.001359,0.014627,-0.0034049999999999
1449,0.6235609999999999,0.343724,-0.7021569999999999,-0.0033979999999999,0.013637,-0.0032719999999999
1450,0.62365,0.34379,-0.7020460000000001,-0.000283,0.011496,-0.00291
1451,0.623682,0.343803,-0.702012,-0.001184,0.011224,-0.002715
1452,0.62362,0.343776,-0.70208,0.000373,0.008504,-0.00225
1453,0.623482,0.343762,-0.702209,0.003089,0.00806,-0.000397
1454,0.623302,0.3437449999999999,-0.702378,0.003713,0.0065049999999999,0.000748
1455,0.623186,0.343769,-0.702468,0.004149,0.005444,0.00267
1456,0.623212,0.343854,-0.702403,0.001589,0.004885,-0.0015609999999999
1457,0.623301,0.344031,-0.702238,0.000234,0.00512,-0.003039
1458,0.623476,0.344238,-0.701982,-0.000734,0.006775,-0.001937
1459,0.623642,0.344447,-0.701731,-0.004028,0.010671,-0.002828
1460,0.623703,0.344638,-0.701583,-0.002914,0.010983,-0.003632
1461,0.623727,0.344817,-0.7014739999999999,-0.001184,0.014909,-0.0017579999999999
1462,0.623757,0.344917,-0.701398,-9e-06,0.01188,-0.00159
1463,0.623765,0.344991,-0.701354,-0.000398,0.009959,-0.002412
1464,0.623776,0.345035,-0.7013229999999999,-0.000851,0.010662,-0.001558
1465,0.623812,0.345067,-0.701276,8.9e-05,0.01057,-0.0017579999999999
1466,0.623891,0.3450789999999999,-0.701199,0.000193,0.009794,-0.001346
1467,0.623953,0.345084,-0.701142,-0.000143,0.010934,-0.0037229999999999
1468,0.6239239999999999,0.345019,-0.701199,-0.000588,0.01019,-0.0024289999999999
1469,0.623693,0.34489,-0.701468,0.000849,0.009358,0.001975
1470,0.623434,0.344735,-0.701774,0.002893,0.008201,-0.001671
1471,0.623257,0.344605,-0.701995,0.00159,0.0088799999999999,-0.00203
1472,0.623161,0.344545,-0.7021109999999999,-0.002204,0.010634,-0.003822
1473,0.623053,0.344461,-0.7022470000000001,-0.00524,0.010108,-0.004585
1474,0.622925,0.344335,-0.7024229999999999,-0.003022,0.009715,-0.003479
1475,0.6227600000000001,0.344233,-0.702619,0.0052759999999999,0.004933,-0.002246
1476,0.6227050000000001,0.344197,-0.7026859999999999,0.004661,0.0052899999999999,-0.0008359999999999
1477,0.622907,0.3442429999999999,-0.702484,0.002246,0.00622,0.000183
1478,0.623174,0.344376,-0.702182,-0.001927,0.008758,-0.0009119999999999
1479,0.623379,0.344464,-0.701956,-0.00285,0.00896,-0.001047
1480,0.623491,0.344494,-0.701843,-0.002702,0.01215,-0.001633
1481,0.6235729999999999,0.344504,-0.701765,-0.000404,0.0136199999999999,-0.004351
1482,0.623674,0.344499,-0.701677,-0.000932,0.011351,-0.002439
1483,0.623703,0.344467,-0.701667,-0.000519,0.0121459999999999,-0.001351
1484,0.62365,0.344376,-0.701759,-0.000389,0.0107879999999999,-0.0002819999999999
1485,0.6235539999999999,0.344259,-0.701902,0.001431,0.009913,-9.4e-05
1486,0.623484,0.344154,-0.702015,0.0001419999999999,0.009774,-0.000194
1487,0.623456,0.344071,-0.7020810000000001,0.000399,0.009307,-0.001075
1488,0.623418,0.344014,-0.702142,-0.000676,0.008631,-0.0018679999999999
1489,0.623325,0.343948,-0.702257,0.002026,0.005966,0.000704
1490,0.623196,0.343912,-0.70239,0.002995,0.006399,0.001371
1491,0.62312,0.343896,-0.702465,0.000278,0.010017,-0.000187
1492,0.623129,0.343901,-0.702455,-0.003454,0.007127,-0.003005
1493,0.623199,0.343936,-0.702375,-0.001907,0.009717,-0.003222
1494,0.62321,0.344029,-0.7023189999999999,-0.001704,0.011744,-0.004086
1495,0.6231909999999999,0.34407,-0.702317,-0.001182,0.009201,-0.003509
1496,0.623237,0.344094,-0.702264,-0.00367,0.009132,-0.002051
1497,0.623269,0.344145,-0.7022109999999999,-0.000481,0.01024,-0.004744
1498,0.623252,0.344179,-0.702209,0.0007099999999999,0.009855,-0.000535
1499,0.623308,0.344221,-0.702138,-0.002993,0.008013,-0.003855
1500,0.623425,0.344265,-0.702013,-0.0033539999999999,0.010166,-0.002897
1501,0.6234930000000001,0.344287,-0.701942,0.001248,0.006344,-0.001259
1502,0.623468,0.3442719999999999,-0.701971,0.0030269999999999,0.008878,-0.000787
1503,0.623422,0.344265,-0.702016,0.000891,0.007755,-0.000789
1504,0.623168,0.344296,-0.702227,-0.0066209999999999,0.017582,-0.005003
1505,0.622301,0.344206,-0.7030390000000001,-0.007295,0.005343,0.000479
1506,0.621224,0.344058,-0.704063,-0.0037159999999999,0.00517,0.001563
1507,0.62031,0.343979,-0.704906,0.000661,0.007354,0.000469
1508,0.619633,0.344019,-0.705483,0.003307,0.01325,0.001198
1509,0.6191,0.344151,-0.705886,0.005564,0.015438,0.002029
1510,0.618769,0.344275,-0.706116,0.010794,0.017953,0.000946
1511,0.6187819999999999,0.344365,-0.7060609999999999,0.009026,0.01475,-0.003427
1512,0.618938,0.344298,-0.705957,0.008565,0.007921,0.000695
1513,0.619201,0.34409,-0.7058270000000001,0.003907,0.0071819999999999,0.000688
1514,0.619585,0.343909,-0.705579,0.0004559999999999,0.003259,-0.00011
1515,0.6201840000000001,0.343831,-0.70509,-0.001348,0.005397,-0.001254
1516,0.620959,0.34384,-0.704403,-0.004077,0.0076,-0.003803
1517,0.621733,0.343837,-0.703721,-0.007384,0.010579,-0.0051719999999999
1518,0.622305,0.343794,-0.703237,-0.010412,0.0103629999999999,-0.004374
1519,0.622516,0.343677,-0.703108,-0.00722,0.009564,-0.004412
1520,0.622408,0.34351,-0.703285,-0.0047469999999999,0.005077,-0.003075
1521,0.622111,0.343331,-0.703635,-0.002314,0.006705,-0.000971
1522,0.621772,0.343197,-0.704,-0.000586,0.00774,-0.001978
1523,0.621486,0.343105,-0.7042970000000001,0.00179,0.006825,-0.001971
1524,0.6213380000000001,0.343051,-0.704454,-0.000504,0.010175,-0.003157
1525,0.621266,0.343046,-0.704519,0.001475,0.010454,-0.002863
1526,0.621263,0.343022,-0.704534,-0.000917,0.006573,-0.001764
1527,0.621337,0.343011,-0.7044739999999999,-0.001067,0.005972,-0.001108
1528,0.621468,0.343091,-0.7043189999999999,-0.001702,0.009815,-0.002575
1529,0.621586,0.3431909999999999,-0.704167,-0.001957,0.010202,-0.003215
1530,0.621654,0.343281,-0.704063,-0.002437,0.009838,-0.003686
1531,0.621734,0.343365,-0.703951,-0.002258,0.008213,-0.0034159999999999
1532,0.621837,0.343475,-0.703807,-0.0017809999999999,0.008927,-0.0006
1533,0.621881,0.343602,-0.703705,0.00199,0.009044,-0.001586
1534,0.6219210000000001,0.343713,-0.703616,0.0005,0.0103819999999999,-0.002286
1535,0.621983,0.343796,-0.70352,-0.001744,0.010497,-0.0010539999999999
1536,0.622042,0.34388,-0.703427,0.001325,0.01078,0.00018
1537,0.622135,0.343979,-0.7032970000000001,0.0019649999999999,0.011962,-0.001903
1538,0.622286,0.3440539999999999,-0.703126,0.00099,0.010255,-0.002211
1539,0.6224810000000001,0.3441059999999999,-0.702928,0.0007639999999999,0.008936,-0.003019
1540,0.6225890000000001,0.344151,-0.702811,0.0,0.013637,-0.002069
1541,0.6226119999999999,0.344156,-0.7027869999999999,-3.9e-05,0.014898,-0.00165
1542,0.622496,0.344058,-0.702939,-0.000181,0.012265,-0.004108
1543,0.622219,0.343879,-0.703271,0.000797,0.013284,-0.002448
1544,0.621845,0.3436909999999999,-0.7036939999999999,0.002576,0.010008,-0.00175
1545,0.621533,0.343514,-0.704056,0.004046,0.009162,-3.1e-05
1546,0.621454,0.343443,-0.70416,0.004644,0.0042439999999999,0.001508
1547,0.621583,0.343456,-0.70404,0.000227,0.003972,-0.000687
1548,0.621833,0.343484,-0.703805,8.4e-05,0.0037909999999999,-0.001715
1549,0.622117,0.343588,-0.703504,-0.002427,0.00715,-0.0006889999999999
1550,0.6224390000000001,0.343755,-0.703137,-0.004794,0.013316,-0.007159
1551,0.622781,0.343896,-0.702765,-0.005136,0.013175,-0.007531
1552,0.623069,0.343984,-0.702467,-0.007942,0.0131639999999999,-0.0046409999999999
1553,0.6232409999999999,0.344031,-0.702292,-0.003932,0.014444,-0.003809
1554,0.623214,0.344038,-0.7023119999999999,0.000886,0.013674,-0.0024
1555,0.62302,0.343933,-0.7025359999999999,0.003827,0.011871,-0.000345
1556,0.622682,0.343784,-0.702908,0.005263,0.0135919999999999,-0.000385
1557,0.6221399999999999,0.343542,-0.7035060000000001,0.00637,0.012568,-0.00235
1558,0.621159,0.343136,-0.7045710000000001,-0.0003399999999999,0.006306,0.002407
1559,0.619981,0.342634,-0.705851,-0.000459,-0.007856,0.004084
1560,0.619624,0.342456,-0.7062510000000001,0.0003259999999999,-0.0096,0.001249
1561,0.620562,0.342809,-0.705255,-0.002353,-0.009481,-0.010703
1562,0.622362,0.343671,-0.703246,-0.0132919999999999,0.00339,-0.0147099999999999
1563,0.624185,0.3447679999999999,-0.701091,-0.011148,0.016087,-0.017904
1564,0.624922,0.345607,-0.70002,-0.002302,0.0427899999999999,-0.009757
1565,0.624141,0.345643,-0.700699,-0.005153,0.032943,0.010422
1566,0.622512,0.345034,-0.702446,0.004869,0.028288,0.014794
1567,0.621476,0.344357,-0.703695,0.010528,0.006992,0.009862
1568,0.621538,0.3441099999999999,-0.70376,0.008268,-0.009363,0.002771
1569,0.622391,0.344426,-0.702851,0.006271,-0.0079849999999999,-0.006332
1570,0.623269,0.345003,-0.7017899999999999,-0.002801,0.0013109999999999,-0.014687
1571,0.6234850000000001,0.345386,-0.7014090000000001,-0.0010789999999999,0.018261,-0.012443
1572,0.6229819999999999,0.345364,-0.701866,-0.002239,0.020236,-0.00634
1573,0.622239,0.345105,-0.702653,-0.001328,0.00101,0.008241
1574,0.6218819999999999,0.344966,-0.703037,-0.002146,-0.004848,0.006107
1575,0.622046,0.345097,-0.702828,-0.002523,-0.004704,0.002968
1576,0.6224770000000001,0.34545,-0.7022729999999999,-0.0091349999999999,0.013025,-0.008878
1577,0.622836,0.345788,-0.701788,-0.009372,0.027458,-0.013041
1578,0.6228670000000001,0.345895,-0.701708,-0.005282,0.029425,-0.015257
1579,0.622541,0.345705,-0.70209,-0.000791,0.016631,-0.005978
1580,0.621983,0.3452909999999999,-0.702788,0.001674,0.010804,0.000838
1581,0.621456,0.344836,-0.7034779999999999,0.007237,0.008024,0.000322
1582,0.620754,0.344418,-0.7043010000000001,-0.008739,-0.002835,-0.001936
1583,0.619378,0.344036,-0.7056979999999999,-0.007104,0.008976,-0.0056359999999999
1584,0.616397,0.343558,-0.7085359999999999,-0.0076019999999999,0.013238,-0.013449
1585,0.611736,0.342829,-0.712915,-0.02943,0.011267,0.00245
1586,0.6045159999999999,0.3418469999999999,-0.719514,-0.020257,0.0041,-0.004454
1587,0.5948,0.340419,-0.728236,-0.016644,-0.008723,-0.007542
1588,0.583746,0.33854,-0.737991,-0.093344,-0.009164,-0.00975
1589,0.570479,0.3362429999999999,-0.749329,-0.058684,-0.082658,0.1169289999999999
1590,0.5540510000000001,0.335157,-0.762035,0.054515,-0.03909,0.081966
1591,0.540607,0.33463,-0.771859,0.1130029999999999,0.02595,-0.032402
1592,0.53272,0.333839,-0.777664,0.005915,0.027001,-0.039948
1593,0.531612,0.333398,-0.77861,0.073353,0.026358,-0.046814
1594,0.533737,0.335184,-0.7763869999999999,0.039368,0.013556,-0.027248
1595,0.538029,0.338086,-0.772154,-0.038411,0.072345,-0.027879
1596,0.540068,0.339621,-0.770054,-0.076307,0.078668,-0.026912
1597,0.537922,0.338508,-0.772044,-0.077259,0.011345,-0.021291
1598,0.5339109999999999,0.336108,-0.775868,-0.111517,-0.017306,-0.002087
1599,0.5321560000000001,0.332833,-0.7784810000000001,-0.037863,-0.017815,-0.012642
1600,0.529931,0.329966,-0.7812140000000001,0.159919,0.0145919999999999,-0.055425
1601,0.528381,0.328984,-0.7826770000000001,0.071488,0.034755,0.010201
1602,0.528303,0.3286239999999999,-0.78288,0.035463,0.025334,-0.025164
1603,0.5297189999999999,0.328282,-0.782067,0.00855,-0.004124,0.004753
1604,0.532496,0.328132,-0.780242,0.003042,-0.004783,-0.00258
1605,0.536407,0.328216,-0.777523,0.006593,0.003067,-0.00301
1606,0.541441,0.328463,-0.773921,-0.006178,0.010404,-0.007223
1607,0.547477,0.328825,-0.769509,0.021569,0.0247669999999999,-0.017525
1608,0.55467,0.329218,-0.76417,0.025271,0.025625,-0.024877
1609,0.5630029999999999,0.329505,-0.757927,0.037644,0.013527,-0.0140759999999999
1610,0.572712,0.329943,-0.750426,0.017834,-0.011736,-0.000826
1611,0.585255,0.330786,-0.740309,0.029354,-0.022009,-0.006609
1612,0.6028479999999999,0.332529,-0.725258,0.069958,0.016134,0.014854
1613,0.620858,0.335358,-0.708569,-0.055947,0.02446,0.094678
1614,0.6290859999999999,0.338788,-0.699624,-0.098446,0.031863,0.016717
1615,0.627579,0.3395,-0.700631,-0.016999,-0.030159,-0.004936
1616,0.625414,0.338214,-0.703184,0.004224,-0.009784,-0.017015
1617,0.624962,0.337285,-0.704032,-0.018013,0.006434,-0.001992
1618,0.6245,0.337577,-0.7043020000000001,-0.0392029999999999,0.040597,-0.003721
1619,0.624005,0.338286,-0.704401,-0.033688,0.0355689999999999,-0.013113
1620,0.6231760000000001,0.338515,-0.705025,-0.033866,0.040941,-0.040138
1621,0.622562,0.338157,-0.705738,-0.029102,0.011926,-0.031444
1622,0.623291,0.337564,-0.705378,-0.02948,-0.002405,-0.015035
1623,0.62439,0.337306,-0.70453,-0.019714,-0.010997,0.003617
1624,0.6248090000000001,0.337561,-0.704036,0.027779,0.008143,0.015544
1625,0.62471,0.3375849999999999,-0.704112,0.029358,0.005905,0.002543
1626,0.62451,0.337048,-0.704547,0.019213,-0.002346,0.006961
1627,0.624888,0.33639,-0.704527,-0.000101,-0.010782,0.0138979999999999
1628,0.626434,0.336395,-0.703149,0.000488,-0.005721,0.000848
1629,0.628602,0.337063,-0.7008909999999999,0.001235,-0.005871,-0.006156
1630,0.630179,0.337931,-0.699055,0.004419,0.014044,-0.012905
1631,0.6304109999999999,0.338383,-0.698626,-0.00268,0.020031,-0.00308
1632,0.629684,0.338325,-0.69931,0.006836,0.019768,0.009078
1633,0.628972,0.338064,-0.700076,0.013087,0.011835,0.0037719999999999
1634,0.6286689999999999,0.337779,-0.7004859999999999,0.011346,0.004689,0.002244
1635,0.628877,0.33771,-0.700333,0.007095,-0.000338,0.004044
1636,0.629343,0.337867,-0.699838,0.013937,0.012597,-0.018469
1637,0.629272,0.337841,-0.699914,-0.0043939999999999,0.006397,-0.0284339999999999
1638,0.627599,0.337582,-0.701539,-0.008794,0.004963,-0.019072
1639,0.6231760000000001,0.337013,-0.705743,-0.0512309999999999,0.007973,-0.010993
1640,0.614271,0.336056,-0.713959,-0.05612,0.00507,0.024063
1641,0.6,0.334471,-0.7267239999999999,-0.043726,-0.014403,0.068384
1642,0.583604,0.332546,-0.740823,-0.032884,-0.012355,0.041666
1643,0.567666,0.329548,-0.754422,-0.009027,0.039882,0.022122
1644,0.55545,0.325454,-0.765216,0.0335699999999999,0.041734,-0.0342839999999999
1645,0.548535,0.321449,-0.771868,0.073139,0.0001909999999999,-0.0501389999999999
1646,0.545934,0.319458,-0.7745340000000001,0.044917,-0.033386,-0.033099
1647,0.54537,0.319825,-0.774779,-0.007818,-0.034959,-0.031419
1648,0.546375,0.3215469999999999,-0.773358,-0.030506,-0.032911,0.034145
1649,0.547875,0.323998,-0.77127,-0.015954,0.011497,-0.0196229999999999
1650,0.550822,0.32592,-0.768356,0.003927,0.0141979999999999,-0.0188139999999999
1651,0.554213,0.327412,-0.7652770000000001,-0.011793,0.015743,0.004596
1652,0.556634,0.3285079999999999,-0.763047,-0.084084,0.107299,-0.041625
1653,0.555214,0.327243,-0.7646229999999999,-0.047279,0.085034,-0.024149
1654,0.5521560000000001,0.324567,-0.767971,0.09883,0.013354,0.003856
1655,0.548384,0.3220639999999999,-0.771718,0.002199,-0.023694,-0.0105239999999999
1656,0.548082,0.321728,-0.772072,-0.0379959999999999,0.007328,0.017373
1657,0.549144,0.322252,-0.771099,-1.1e-05,0.055449,0.014049
1658,0.5521119999999999,0.322916,-0.768698,0.020215,0.036383,-0.020364
1659,0.5549069999999999,0.323058,-0.7666229999999999,0.0132229999999999,0.01877,-0.025705
1660,0.556682,0.3223519999999999,-0.765633,0.009496,-0.002039,-0.015434
1661,0.5573520000000001,0.3211219999999999,-0.765662,0.021307,0.000182,-0.009988
1662,0.557717,0.31986,-0.7659239999999999,0.026099,0.000224,0.002527
1663,0.560447,0.319324,-0.764153,0.064873,-0.020587,0.024483
1664,0.5687180000000001,0.320444,-0.757545,0.077675,-0.057276,0.025566
1665,0.5832069999999999,0.32371,-0.745037,0.018218,-0.034586,-0.0128669999999999
1666,0.6048520000000001,0.32866,-0.725352,0.007484,0.023833,-0.048146
1667,0.629544,0.333765,-0.7016220000000001,0.161594,0.0778259999999999,0.003395
1668,0.654699,0.336921,-0.6766479999999999,-0.094121,0.026193,-0.119327
1669,0.671524,0.335861,-0.660493,-0.096802,-0.079209,0.083253
1670,0.678737,0.33255,-0.654771,-0.076305,0.019119,0.097382
1671,0.68107,0.330228,-0.653522,-0.062845,-0.034375,-0.073575
1672,0.680584,0.327529,-0.655384,-0.0012779999999999,-0.077621,0.026157
1673,0.6793,0.326852,-0.657051,0.018637,-0.051721,0.022057
1674,0.678541,0.328911,-0.656808,0.032503,-0.050255,0.0196159999999999
1675,0.679297,0.332375,-0.654278,-0.011755,0.024802,-0.015216
1676,0.681005,0.335931,-0.650676,-0.021734,0.069663,-0.031544
1677,0.679971,0.33863,-0.650359,-0.0163509999999999,0.089013,-0.034593
1678,0.675405,0.339368,-0.654717,-0.001638,0.082202,-0.023978
1679,0.668629,0.338183,-0.662243,-0.001301,0.03755,-0.00098
1680,0.662045,0.336135,-0.669856,-0.002423,0.016709,0.004192
1681,0.656979,0.334288,-0.675742,-0.0002109999999999,-0.0297839999999999,0.017478
1682,0.653925,0.333607,-0.679034,0.0259,-0.020252,0.015688
1683,0.653521,0.334106,-0.679177,0.031888,-0.004852,0.006402
1684,0.654853,0.334715,-0.677592,0.002206,0.018511,-0.011647
1685,0.6565310000000001,0.3347739999999999,-0.675937,-0.011878,0.000522,-0.023297
1686,0.658516,0.33463,-0.674075,-0.019021,-0.0130669999999999,-0.033186
1687,0.6609010000000001,0.334957,-0.671574,-0.039685,-0.034297,-0.011059
1688,0.663676,0.336153,-0.668231,0.0065209999999999,-0.016619,-0.0172699999999999
1689,0.666764,0.337576,-0.664429,0.003433,-0.018042,-0.021072
1690,0.669738,0.338761,-0.660825,-0.002486,0.018569,-0.005831
1691,0.6720689999999999,0.339661,-0.657991,-0.018199,0.031326,0.002046
1692,0.673268,0.340423,-0.656369,-0.016361,0.038529,0.001111
1693,0.673528,0.341105,-0.6557470000000001,0.000788,0.043539,-0.000442
1694,0.673363,0.341496,-0.655714,0.0175099999999999,0.032635,0.003904
1695,0.673271,0.341641,-0.655732,0.016533,0.016315,0.01262
1696,0.673423,0.3417929999999999,-0.655496,0.008583,0.01012,0.016718
1697,0.673569,0.341913,-0.655284,0.006943,0.004263,0.013606
1698,0.673764,0.342009,-0.655033,0.007205,0.007264,0.003224
1699,0.674046,0.342169,-0.654659,0.00439,0.006418,-0.006229
1700,0.674246,0.342335,-0.654367,0.003152,0.000637,-0.015052
1701,0.674496,0.34237,-0.654091,-0.0004849999999999,0.001563,-0.018684
1702,0.674541,0.342208,-0.654129,-0.006741,0.0063939999999999,-0.0118409999999999
1703,0.67433,0.341956,-0.654478,-0.008742,0.012216,-0.00757
1704,0.6740229999999999,0.341778,-0.654888,-0.008221,0.011021,-0.005696
1705,0.673791,0.341719,-0.655157,-0.002953,0.0088209999999999,-0.005579
1706,0.673589,0.341674,-0.655388,0.00149,0.007188,-0.005546
1707,0.673196,0.341491,-0.655887,-0.000512,0.00197,-0.001492
1708,0.6726439999999999,0.341284,-0.656561,-0.001394,0.0017329999999999,0.002646
1709,0.6721520000000001,0.341202,-0.657108,0.005384,0.008163,0.001819
1710,0.671697,0.341207,-0.657569,0.0091799999999999,0.012537,0.000633
1711,0.671255,0.341267,-0.65799,0.010553,0.015712,-0.002136
1712,0.6708029999999999,0.341431,-0.658366,0.008762,0.015762,0.001978
1713,0.670365,0.3417409999999999,-0.658651,0.012573,0.002894,0.0002189999999999
1714,0.670093,0.342163,-0.658709,0.006726,-0.013382,0.004275
1715,0.6700550000000001,0.342643,-0.658499,0.000493,-0.006675,-0.001398
1716,0.6701779999999999,0.343037,-0.6581670000000001,-0.0108609999999999,0.015804,-0.002737
1717,0.670457,0.343282,-0.657755,-0.0197919999999999,0.027018,-0.013921
1718,0.670729,0.343368,-0.657433,-0.02133,0.029557,-0.017845
1719,0.670413,0.3430809999999999,-0.6579050000000001,-0.015125,0.022977,-0.007028
1720,0.6695810000000001,0.34239,-0.659111,-0.001857,0.015718,-0.009224
1721,0.668668,0.341476,-0.660511,-0.002423,0.021409,-0.009288
1722,0.6676300000000001,0.340484,-0.662071,-0.004026,0.018922,-0.005287
1723,0.666512,0.339516,-0.663693,-0.001381,0.009545,0.001126
1724,0.665381,0.3385869999999999,-0.6653,0.005929,-0.004176,0.005067
1725,0.664593,0.337869,-0.666452,0.00626,-0.012643,0.00474
1726,0.664136,0.337472,-0.667108,0.008791,-0.013406,-0.000495
1727,0.663733,0.337288,-0.667602,0.007227,-0.013711,0.001663
1728,0.66356,0.337331,-0.6677529999999999,0.00682,-0.012776,0.0015539999999999
1729,0.66379,0.337669,-0.667353,-0.003802,-0.00785,-0.001989
1730,0.664231,0.338281,-0.666604,-0.004838,0.004431,-0.010551
1731,0.664846,0.33902,-0.665614,-0.008764,0.008637,-0.013936
1732,0.665502,0.339669,-0.664628,-0.01563,0.022788,-0.009429
1733,0.666031,0.3401619999999999,-0.663845,-0.017578,0.028505,-0.005909
1734,0.666439,0.340591,-0.663215,-0.011318,0.034378,-0.006493
1735,0.6666350000000001,0.3408989999999999,-0.66286,-0.0008939999999999,0.024686,-0.005978
