,gravity.x,gravity.y,gravity.z,userAcceleration.x,userAcceleration.y,userAcceleration.z
0,-0.462517,0.285146,0.8395,0.045556,0.005961,0.016594
1,-0.462545,0.284234,0.839794,0.0229699999999999,0.0119849999999999,0.014103
2,-0.4617189999999999,0.283913,0.840356,0.048282,0.02024,-0.002023
3,-0.4609069999999999,0.284848,0.8404860000000001,0.0513309999999999,0.037006,-0.007234
4,-0.458974,0.285775,0.8412290000000001,0.053716,0.052024,-0.014553
5,-0.4574439999999999,0.286442,0.841834,0.011078,-3.5e-05,-0.024909
6,-0.4567779999999999,0.286507,0.842174,-0.018609,-0.010338,-0.031886
7,-0.4563899999999999,0.286326,0.8424459999999999,-0.05391,-0.032694,-0.043206
8,-0.455883,0.286785,0.842565,-0.070026,-0.059048,-0.002263
9,-0.456809,0.285886,0.842368,-0.073495,-0.0612309999999999,-0.000251
10,-0.4599689999999999,0.283366,0.8415,-0.0676799999999999,-0.0832779999999999,0.001411
11,-0.464675,0.279567,0.840184,-0.06804,-0.077999,0.03831
12,-0.4687659999999999,0.274629,0.83954,-0.0599049999999999,-0.0144509999999999,0.009459
13,-0.4751869999999999,0.267788,0.8381379999999999,-0.104235,0.032016,-0.086444
14,-0.483805,0.259771,0.835727,-0.1020409999999999,0.000956,-0.07384
15,-0.488291,0.250259,0.8360200000000001,-0.12972,0.0047,-0.082037
16,-0.491133,0.241202,0.837017,-0.078493,0.070673,-0.032284
17,-0.492717,0.233842,0.838173,-0.009266,0.0344379999999999,-0.011925
18,-0.496939,0.227843,0.837333,0.038366,-0.108793,0.010659
19,-0.50455,0.221304,0.8345299999999999,0.00748,-0.140478,0.067676
20,-0.5115930000000001,0.2139889999999999,0.832147,0.026455,-0.124298,0.0772159999999999
21,-0.515967,0.2076489999999999,0.831052,0.2375239999999999,-0.131553,-0.009168
22,-0.51653,0.205105,0.831334,0.216908,-0.082027,0.00587
23,-0.517509,0.206792,0.830306,0.14994,-0.086446,0.048661
24,-0.518224,0.210808,0.828849,0.105138,-0.113839,0.054849
25,-0.516273,0.215889,0.828758,0.05201,-0.133552,0.019371
26,-0.512918,0.2231389999999999,0.8289209999999999,-0.0076359999999999,-0.053278,0.006162
27,-0.50805,0.2307929999999999,0.829823,-0.126075,0.114224,0.053035
28,-0.505397,0.236445,0.829852,-0.131856,0.09786,0.084012
29,-0.505529,0.240801,0.8285170000000001,-0.1137799999999999,0.000623,0.036076
30,-0.508854,0.245671,0.825044,-0.028774,-0.061086,-0.0567029999999999
31,-0.5117430000000001,0.253184,0.820976,-0.018256,0.0286149999999999,-0.0284649999999999
32,-0.51199,0.261424,0.818235,-0.015812,0.067861,0.005831
33,-0.512249,0.267134,0.816227,-0.021046,0.0757,0.016491
34,-0.513447,0.270376,0.814404,0.017475,-0.016836,-0.00253
35,-0.514933,0.273773,0.8123279999999999,-0.010671,-0.092758,-0.019985
36,-0.515139,0.277821,0.810821,-0.065,-0.0995679999999999,-0.029754
37,-0.5122140000000001,0.2822909999999999,0.81113,-0.119057,-0.032779,0.007489
38,-0.507732,0.285494,0.812826,-0.06841,-0.028612,0.0134069999999999
39,-0.5024430000000001,0.288106,0.815187,-0.032591,-0.032796,0.0004559999999999
40,-0.497071,0.290594,0.8175939999999999,-0.021484,-0.033025,0.000567
41,-0.491056,0.293557,0.820166,-0.021456,-0.004006,0.020959
42,-0.483826,0.297005,0.8232149999999999,-0.017608,0.0240699999999999,0.031277
43,-0.47558,0.300466,0.826757,-0.010107,0.037257,0.021036
44,-0.466726,0.303588,0.8306540000000001,0.013585,0.040391,-0.000179
45,-0.457679,0.306451,0.834627,0.0427009999999999,0.0339579999999999,-0.038072
46,-0.4487609999999999,0.30956,0.8383139999999999,0.037613,0.0535389999999999,-0.019665
47,-0.439752,0.3131239999999999,0.841758,0.0177699999999999,0.058397,-0.002967
48,-0.429695,0.31615,0.8458110000000001,0.01342,0.0619169999999999,-0.00702
49,-0.4190399999999999,0.31832,0.850331,0.0405,0.0414519999999999,-0.037648
50,-0.408798,0.320188,0.8546040000000001,0.057846,-0.000822,-0.050466
51,-0.399409,0.322232,0.858268,0.046076,-0.0093049999999999,-0.034644
52,-0.390988,0.324636,0.861234,0.031582,-0.034109,-0.011335
53,-0.382746,0.32718,0.8639700000000001,0.019099,-0.023896,0.003935
54,-0.37519,0.328905,0.866625,0.0273959999999999,-0.033632,-0.0072959999999999
55,-0.368963,0.329786,0.8689610000000001,0.049032,-0.039076,-0.022769
56,-0.365241,0.330293,0.87034,0.088401,-0.071047,-0.026391
57,-0.363211,0.331163,0.870859,0.0698299999999999,-0.08275,-0.014872
58,-0.362185,0.33241,0.870812,0.030886,-0.081998,0.003929
59,-0.362568,0.333949,0.870064,0.032413,-0.084605,0.000572
60,-0.364138,0.334806,0.869078,0.0468779999999999,-0.085172,-0.002989
61,-0.366407,0.335239,0.867956,0.037931,-0.084308,-0.004919
62,-0.36941,0.335608,0.86654,0.03538,-0.074713,0.000174
63,-0.374428,0.33541,0.86446,0.027367,-0.075218,0.008709
64,-0.3804909999999999,0.33475,0.862065,0.048994,-0.096576,-0.014195
65,-0.387685,0.334161,0.8590840000000001,0.0309949999999999,-0.093789,-0.014372
66,-0.39552,0.333578,0.8557319999999999,-0.018726,-0.088323,0.020076
67,-0.403815,0.33289,0.852118,-0.0386279999999999,-0.076436,0.022409
68,-0.412222,0.331796,0.848512,-0.03628,-0.058145,0.031309
69,-0.420867,0.329889,0.8450049999999999,-0.018907,-0.041025,0.025082
70,-0.429975,0.327225,0.841448,-0.001421,-0.040864,-0.014147
71,-0.439611,0.324363,0.837569,-0.005656,-0.037223,-0.032698
72,-0.449551,0.321248,0.833483,-0.0244479999999999,-0.019674,-0.0127739999999999
73,-0.459684,0.318061,0.829168,-0.045489,-0.016822,0.016856
74,-0.469463,0.315135,0.824794,-0.06931,-0.0150099999999999,0.024556
75,-0.478808,0.31215,0.8205459999999999,-0.065671,-0.01729,0.021709
76,-0.487325,0.309175,0.816649,-0.052973,-0.032533,-0.002897
77,-0.494652,0.305998,0.813434,-0.0644909999999999,-0.031431,-0.008671
78,-0.501452,0.302731,0.810488,-0.067426,-0.02229,0.00662
79,-0.507524,0.2993119999999999,0.807974,-0.069411,-0.017299,0.014871
80,-0.513051,0.295956,0.805717,-0.063075,-0.032056,0.0021899999999999
81,-0.517803,0.292677,0.803874,-0.048421,-0.031996,-0.012614
82,-0.52207,0.289472,0.8022729999999999,-0.037179,-0.031629,-0.031888
83,-0.525625,0.286753,0.800928,-0.026361,-0.031657,-0.02453
84,-0.527853,0.284551,0.800248,-0.0380649999999999,-0.021337,-0.003144
85,-0.529671,0.282387,0.799812,-0.046165,-0.008248,0.005806
86,-0.531354,0.2801599999999999,0.79948,-0.0272399999999999,-0.016061,-0.001735
87,-0.532088,0.2778739999999999,0.7997890000000001,-0.016374,-0.022229,-0.010131
88,-0.5321100000000001,0.27566,0.8005399999999999,-0.00744,-0.0240419999999999,-0.008777
89,-0.531748,0.2732699999999999,0.801599,-0.008886,-0.024246,-0.007654
90,-0.53081,0.270706,0.803089,-0.0110599999999999,-0.018951,-0.005482
91,-0.529628,0.2680619999999999,0.804755,0.003688,-0.030437,-0.016516
92,-0.527463,0.26581,0.806921,0.0277839999999999,-0.023118,-0.013037
93,-0.524145,0.263824,0.809729,0.029806,-0.0215449999999999,0.008218
94,-0.5206729999999999,0.261501,0.812717,0.017804,-0.0158199999999999,0.0091209999999999
95,-0.519606,0.258613,0.814322,-0.026231,0.0003129999999999,0.049372
96,-0.520814,0.254607,0.814812,-0.001662,0.007767,0.052131
97,-0.521781,0.250335,0.815517,0.041587,-0.027236,0.003559
98,-0.52254,0.247151,0.8160029999999999,0.026019,-0.041264,-0.000726
99,-0.523626,0.24529,0.815867,0.014135,-0.032842,0.010473
100,-0.524273,0.244152,0.8157939999999999,0.003246,-0.0285449999999999,0.02318
101,-0.524604,0.242856,0.815968,-0.003381,-0.037137,0.008922
102,-0.525456,0.2416199999999999,0.815787,-0.002895,-0.036832,0.0033049999999999
103,-0.526442,0.240269,0.815549,-0.009462,-0.038899,0.002963
104,-0.527899,0.239261,0.8149029999999999,-0.011148,-0.042392,0.00692
105,-0.5297029999999999,0.2383159999999999,0.814009,-0.003958,-0.0444839999999999,0.0076459999999999
106,-0.5314949999999999,0.237414,0.813104,0.001313,-0.02965,0.002082
107,-0.533027,0.2368739999999999,0.812258,0.006614,-0.024594,0.000349
108,-0.5342100000000001,0.236126,0.811699,0.006179,-0.025769,0.002342
109,-0.5352060000000001,0.235682,0.811171,0.002125,-0.024912,0.00583
110,-0.536122,0.235523,0.810613,-0.001125,-0.026173,0.005854
111,-0.536907,0.235343,0.810146,-0.007222,-0.028648,0.000966
112,-0.537633,0.235413,0.8096439999999999,-0.00941,-0.0273899999999999,-0.002134
113,-0.538118,0.235508,0.809294,-0.009108,-0.026005,-0.005781
114,-0.538366,0.235556,0.8091149999999999,-0.009959,-0.028555,-0.0059689999999999
115,-0.538524,0.235605,0.808996,-0.008458,-0.028451,-0.003622
116,-0.538504,0.235823,0.808946,-0.010034,-0.0279829999999999,-0.003266
117,-0.538331,0.2358989999999999,0.8090390000000001,-0.011611,-0.025648,-0.003832
118,-0.5380510000000001,0.236007,0.809193,-0.0080159999999999,-0.021285,-0.006398
119,-0.537696,0.236034,0.8094210000000001,-0.007927,-0.024058,-0.003513
120,-0.537209,0.236123,0.809719,-0.007637,-0.0251699999999999,-0.0023309999999999
121,-0.536767,0.23601,0.810045,-0.00138,-0.023791,-0.002275
122,-0.5362279999999999,0.236004,0.810405,-0.00253,-0.027843,0.001638
123,-0.535668,0.235979,0.810782,-8.3e-05,-0.023424,0.001703
124,-0.5351319999999999,0.235884,0.811164,0.0038659999999999,-0.026747,-0.000907
125,-0.5345489999999999,0.23578,0.811578,0.00362,-0.030687,0.005332
126,-0.5340550000000001,0.235758,0.81191,0.0015539999999999,-0.0275519999999999,0.009028
127,-0.533687,0.235792,0.812142,0.002025,-0.024366,0.003638
128,-0.533313,0.235801,0.812385,0.000888,-0.025504,0.002389
129,-0.532939,0.235732,0.81265,0.0031079999999999,-0.022414,0.0008869999999999
130,-0.532632,0.235598,0.812891,0.00747,-0.020205,0.0016539999999999
131,-0.53232,0.235336,0.813171,0.005235,-0.0229949999999999,-0.00267
132,-0.5321239999999999,0.235153,0.8133520000000001,0.004459,-0.022231,0.001635
133,-0.532054,0.2349349999999999,0.813461,0.00294,-0.023418,0.0003509999999999
134,-0.531977,0.234719,0.813575,0.000193,-0.027214,-0.00138
135,-0.53194,0.2346599999999999,0.813616,-0.001416,-0.028712,0.003157
136,-0.531926,0.234614,0.813639,-0.0042229999999999,-0.03065,0.002386
137,-0.5319149999999999,0.23449,0.813681,0.001474,-0.027748,-3.6e-05
138,-0.531985,0.234449,0.8136479999999999,0.00252,-0.02905,0.000866
139,-0.532058,0.234456,0.813599,-0.0034799999999999,-0.025121,0.000229
140,-0.532161,0.234386,0.813551,-0.000782,-0.02438,-0.000868
141,-0.5322319999999999,0.2344409999999999,0.813489,0.000143,-0.0258079999999999,-0.002316
142,-0.532261,0.234395,0.813483,-0.00053,-0.02599,-0.001243
143,-0.532287,0.2343579999999999,0.813477,-0.000366,-0.026747,0.000107
144,-0.532313,0.234335,0.813467,0.003077,-0.028234,0.001001
145,-0.532304,0.234339,0.813472,0.002931,-0.024806,0.00063
146,-0.5323140000000001,0.234259,0.813489,-0.000538,-0.025824,0.001834
147,-0.532341,0.234302,0.813459,-0.001503,-0.02486,0.0018789999999999
148,-0.5323939999999999,0.234283,0.81343,-0.002747,-0.025177,0.000261
149,-0.532503,0.234301,0.813353,-0.003386,-0.028094,0.000475
150,-0.532645,0.234384,0.813236,-0.003549,-0.0300839999999999,0.002179
151,-0.532824,0.234615,0.813052,-0.003263,-0.0294149999999999,0.002545
152,-0.5330020000000001,0.234746,0.812897,4.4e-05,-0.0270279999999999,0.002441
153,-0.5331739999999999,0.234915,0.812736,-0.002013,-0.028525,0.000145
154,-0.533278,0.235076,0.8126220000000001,-0.001878,-0.0280899999999999,0.001907
155,-0.5333640000000001,0.234967,0.812597,0.003121,-0.01843,-0.001623
156,-0.533373,0.235026,0.812574,0.004549,-0.017664,-0.002454
157,-0.533323,0.2349699999999999,0.812623,0.001691,-0.023666,-0.001115
158,-0.5333479999999999,0.234889,0.81263,0.002785,-0.02418,0.001411
159,-0.533391,0.234861,0.81261,0.003483,-0.02812,0.002454
160,-0.533459,0.2347949999999999,0.812584,0.001736,-0.027031,0.001503
161,-0.533569,0.234748,0.812525,0.0022429999999999,-0.0276709999999999,0.0035299999999999
162,-0.533665,0.234585,0.812509,-0.0008039999999999,-0.025692,-0.000177
163,-0.533736,0.23448,0.812493,0.001662,-0.025404,-0.000496
164,-0.533795,0.234389,0.81248,-0.000522,-0.02597,0.000341
165,-0.5338,0.234339,0.812491,-0.00157,-0.025171,0.000452
166,-0.533849,0.234327,0.812462,-0.001139,-0.0258009999999999,0.000145
167,-0.533888,0.234346,0.812431,-0.002535,-0.029207,0.001122
168,-0.533906,0.234388,0.812408,-0.003143,-0.028013,0.003358
169,-0.5339,0.234438,0.812397,-0.001073,-0.026277,0.000607
170,-0.5338689999999999,0.234479,0.812405,0.000757,-0.027661,-0.0004849999999999
171,-0.53379,0.2345989999999999,0.812422,-0.001442,-0.025874,-0.000685
172,-0.533748,0.234577,0.8124560000000001,-6.500000000000001e-05,-0.023167,0.002455
173,-0.533682,0.234619,0.812487,0.003577,-0.02414,0.003111
174,-0.533606,0.234623,0.8125359999999999,0.00228,-0.02512,0.001566
175,-0.533561,0.234645,0.8125600000000001,-3.9e-05,-0.0248819999999999,0.000688
176,-0.533533,0.234658,0.812574,0.000925,-0.024743,0.001589
177,-0.533499,0.2346619999999999,0.812596,0.00109,-0.0267759999999999,0.000667
178,-0.533483,0.234663,0.812606,-0.000484,-0.025983,0.0035399999999999
179,-0.533504,0.23464,0.812599,-0.000721,-0.023993,-0.00013
180,-0.533523,0.23462,0.812592,0.001052,-0.0253159999999999,-0.000672
181,-0.5335340000000001,0.234644,0.812578,-0.0018809999999999,-0.026605,0.002668
182,-0.533543,0.23471,0.812554,0.000538,-0.028106,0.002495
183,-0.533575,0.234779,0.812512,-0.000498,-0.02758,7.900000000000001e-05
184,-0.533617,0.234844,0.812466,0.001588,-0.0245629999999999,0.003193
185,-0.533683,0.234905,0.812405,-0.000177,-0.023861,0.004734
186,-0.533806,0.234931,0.812316,0.003106,-0.026542,0.000412
187,-0.53395,0.234928,0.8122229999999999,0.00392,-0.025074,-0.001691
188,-0.533968,0.234932,0.8122090000000001,0.000307,-0.025948,0.004548
189,-0.534028,0.23506,0.812133,-0.002273,-0.025053,0.002793
190,-0.534041,0.235113,0.8121079999999999,0.00064,-0.026098,0.002665
191,-0.534017,0.2351599999999999,0.8121109999999999,0.00173,-0.026695,-0.0007099999999999
192,-0.534039,0.2352159999999999,0.81208,0.003476,-0.022921,0.000664
193,-0.534107,0.235169,0.81205,0.0026739999999999,-0.026154,-0.0014269999999999
194,-0.534158,0.235111,0.812033,0.000986,-0.029148,-5.2e-05
195,-0.534158,0.235086,0.812041,-0.0016239999999999,-0.026254,0.000475
196,-0.5340689999999999,0.235062,0.812106,0.000286,-0.024552,0.002866
197,-0.534007,0.234946,0.81218,0.00265,-0.026404,-0.002656
198,-0.533989,0.234953,0.81219,0.0017929999999999,-0.026182,0.001943
199,-0.534008,0.234959,0.812175,-0.000218,-0.0271959999999999,0.003147
200,-0.534045,0.234956,0.8121510000000001,0.002002,-0.026643,0.000806
201,-0.5341100000000001,0.235046,0.812083,0.002463,-0.027938,-0.000376
202,-0.5341359999999999,0.235061,0.812062,-0.001157,-0.02838,-3.5e-05
203,-0.534143,0.2350239999999999,0.812068,0.001352,-0.025231,0.001042
204,-0.5341319999999999,0.235104,0.812051,0.000563,-0.0263339999999999,0.001395
205,-0.534112,0.23509,0.8120689999999999,0.002893,-0.027067,0.001744
206,-0.534122,0.23517,0.8120390000000001,0.000354,-0.025285,0.0009029999999999
207,-0.5341199999999999,0.235153,0.812045,0.000917,-0.024918,0.000699
208,-0.5341090000000001,0.235166,0.812048,0.001714,-0.0263029999999999,0.001077
209,-0.5340779999999999,0.235225,0.812051,0.001653,-0.0263319999999999,0.000983
210,-0.534064,0.235182,0.812072,-0.000619,-0.0280139999999999,0.0008089999999999
211,-0.534077,0.235188,0.812062,0.000386,-0.026249,0.000942
212,-0.534057,0.2351929999999999,0.812074,0.0007769999999999,-0.026026,0.001173
213,-0.534012,0.235199,0.812102,0.0009609999999999,-0.0242,0.001008
214,-0.533946,0.2352119999999999,0.812142,0.002253,-0.023878,0.005806
215,-0.533862,0.235235,0.81219,0.001117,-0.025,-4.1e-05
216,-0.533776,0.235246,0.812244,0.00042,-0.025698,0.000729
217,-0.533683,0.235254,0.812303,0.001518,-0.026605,-0.000215
218,-0.5335880000000001,0.235273,0.8123600000000001,0.000919,-0.026808,0.001682
219,-0.5334909999999999,0.235319,0.8124100000000001,0.001265,-0.0280589999999999,0.002501
220,-0.533425,0.235362,0.812441,-0.000709,-0.025798,0.002195
221,-0.533406,0.2354099999999999,0.8124399999999999,0.0018809999999999,-0.026075,0.0021809999999999
222,-0.5335310000000001,0.2354699999999999,0.81234,0.002632,-0.024777,0.000953
223,-0.533783,0.2355449999999999,0.812153,-0.001358,-0.030238,0.0052299999999999
224,-0.534083,0.235729,0.811902,-0.001912,-0.028118,0.010653
225,-0.534522,0.23605,0.81152,-0.00242,-0.027187,0.005115
226,-0.534972,0.236337,0.81114,-0.002046,-0.026742,-7.4e-05
227,-0.535242,0.2364929999999999,0.810916,0.004739,-0.025571,-0.00452
228,-0.535461,0.236644,0.8107270000000001,0.005981,-0.024455,-0.002454
229,-0.5355409999999999,0.236651,0.810673,0.007862,-0.02463,-0.001728
230,-0.535601,0.236538,0.810665,0.004077,-0.023022,0.0033299999999999
231,-0.535663,0.2364949999999999,0.8106369999999999,0.003742,-0.024566,0.004427
232,-0.5357430000000001,0.236411,0.810608,0.000709,-0.024497,0.003189
233,-0.535844,0.236307,0.8105720000000001,0.001084,-0.028666,0.001287
234,-0.535982,0.236265,0.810493,0.000277,-0.027785,0.002496
235,-0.536101,0.236267,0.8104140000000001,0.000686,-0.0258029999999999,0.001064
236,-0.536223,0.236159,0.810365,-0.000566,-0.030608,0.0007469999999999
237,-0.536321,0.236244,0.810275,-0.000285,-0.031837,0.001447
238,-0.536377,0.236303,0.8102199999999999,-0.000976,-0.0289509999999999,0.002722
239,-0.536406,0.236294,0.810204,0.002135,-0.028546,0.001548
240,-0.536413,0.236379,0.810175,0.000524,-0.027013,0.0035759999999999
241,-0.536424,0.236423,0.8101550000000001,3.2e-05,-0.028248,0.002468
242,-0.536441,0.236453,0.810134,0.001422,-0.0268279999999999,-0.000289
243,-0.5364479999999999,0.236528,0.810107,0.003886,-0.02669,-0.0002319999999999
244,-0.5364140000000001,0.236623,0.810102,0.0015019999999999,-0.026815,0.0027949999999999
245,-0.536412,0.236611,0.810106,0.0071,-0.025505,0.002333
246,-0.536473,0.2366619999999999,0.8100510000000001,0.004795,-0.024641,0.004249
247,-0.5365260000000001,0.236663,0.810016,0.00256,-0.025436,0.001813
248,-0.536583,0.236532,0.810016,0.0010609999999999,-0.026113,0.0008359999999999
249,-0.536652,0.2365,0.80998,-0.001358,-0.0259279999999999,0.000338
250,-0.536696,0.236458,0.809963,-0.000657,-0.027977,-0.001873
251,-0.536687,0.236303,0.810014,0.003865,-0.0293329999999999,0.004301
252,-0.5366890000000001,0.236312,0.81001,-0.000634,-0.02922,0.004061
253,-0.536695,0.2362969999999999,0.8100109999999999,0.000638,-0.028625,0.002962
254,-0.536708,0.236172,0.8100390000000001,0.001155,-0.028942,0.003193
255,-0.536691,0.2362409999999999,0.8100310000000001,0.001504,-0.027607,0.003782
256,-0.536667,0.236288,0.810032,0.000855,-0.029379,0.0032
257,-0.536629,0.236306,0.810052,0.002251,-0.030114,0.000602
258,-0.536582,0.236392,0.810058,0.0006929999999999,-0.027972,0.0017699999999999
259,-0.536543,0.236501,0.8100510000000001,-0.000185,-0.0246319999999999,-0.000893
260,-0.536537,0.236557,0.8100390000000001,-0.00309,-0.024506,0.005803
261,-0.536519,0.236688,0.810013,-0.000377,-0.023919,0.005386
262,-0.536596,0.236705,0.8099569999999999,0.004399,-0.027614,-0.000188
263,-0.5366989999999999,0.236748,0.809876,-0.000289,-0.0273209999999999,0.002075
264,-0.536626,0.236785,0.809913,0.002202,-0.029189,0.000893
265,-0.536559,0.236838,0.809942,0.002715,-0.029135,0.004084
266,-0.536517,0.236865,0.809962,0.002291,-0.025149,0.002462
267,-0.53651,0.236839,0.809974,0.004253,-0.026558,0.003595
268,-0.536537,0.236813,0.809963,0.006645,-0.027905,0.002201
269,-0.536505,0.2367969999999999,0.8099890000000001,0.004629,-0.025234,0.004495
270,-0.536483,0.236816,0.809998,0.00479,-0.027206,0.004776
271,-0.536484,0.236786,0.810006,0.0017239999999999,-0.0292519999999999,0.003867
272,-0.536484,0.236823,0.809995,0.001282,-0.029898,-0.0002109999999999
273,-0.536507,0.236876,0.809964,0.001031,-0.029372,0.003589
274,-0.536514,0.236956,0.809936,0.001968,-0.02553,-0.000152
275,-0.5364869999999999,0.2369949999999999,0.8099430000000001,-0.001142,-0.024913,0.001794
276,-0.536399,0.236996,0.81,-0.0014119999999999,-0.025432,0.001264
277,-0.536259,0.237005,0.81009,0.000813,-0.027181,0.001876
278,-0.536162,0.237039,0.810144,0.0034159999999999,-0.029,0.003546
279,-0.53609,0.23709,0.810178,0.0009339999999999,-0.027632,0.000186
280,-0.536039,0.2371059999999999,0.8102060000000001,0.003859,-0.0295709999999999,0.001745
281,-0.536035,0.2371349999999999,0.8102,0.005289,-0.031355,0.003185
282,-0.536032,0.237206,0.810182,0.006964,-0.030663,0.006103
283,-0.536047,0.2371579999999999,0.810187,0.008199,-0.028265,0.006815
284,-0.536096,0.237143,0.810159,0.006174,-0.025427,0.004951
285,-0.53617,0.237094,0.810125,0.001532,-0.027988,0.0028179999999999
286,-0.536235,0.2370929999999999,0.810082,-0.0004469999999999,-0.029772,0.0016699999999999
287,-0.536273,0.237092,0.8100569999999999,-0.000593,-0.030656,0.00255
288,-0.536299,0.23714,0.810026,0.000319,-0.030399,0.004992
289,-0.536325,0.237148,0.810006,0.001505,-0.0293079999999999,0.0017929999999999
290,-0.536358,0.237186,0.8099729999999999,0.000439,-0.0275,0.000696
291,-0.536367,0.237298,0.8099350000000001,0.001577,-0.027963,9.3e-05
292,-0.536377,0.237316,0.809923,-0.001739,-0.027569,1.3e-05
293,-0.536366,0.237404,0.809905,0.002018,-0.025886,-6e-05
294,-0.5363319999999999,0.237459,0.8099109999999999,0.001801,-0.0278339999999999,0.002329
295,-0.536285,0.237481,0.809936,0.00357,-0.028955,0.002747
296,-0.5362600000000001,0.237457,0.80996,0.003224,-0.031814,0.005714
297,-0.536242,0.23754,0.809947,0.00069,-0.031867,0.008184
298,-0.5362210000000001,0.2375949999999999,0.809945,0.0014,-0.02829,0.0075599999999999
299,-0.536259,0.2376059999999999,0.809916,0.003499,-0.028484,0.004629
300,-0.536342,0.237707,0.8098310000000001,0.0020399999999999,-0.029394,0.004469
301,-0.5363829999999999,0.237826,0.809769,0.00202,-0.0295579999999999,0.003799
302,-0.536473,0.237834,0.809707,0.001424,-0.0256759999999999,0.0051119999999999
303,-0.53657,0.237953,0.809608,0.002985,-0.025612,0.003472
304,-0.536675,0.237854,0.809567,0.005898,-0.029313,0.000171
305,-0.536824,0.237789,0.809488,-0.00056,-0.0273089999999999,0.003592
306,-0.536887,0.2378239999999999,0.809435,0.000434,-0.0265509999999999,0.004377
307,-0.536931,0.2377409999999999,0.809431,0.0002029999999999,-0.032251,0.002931
308,-0.536953,0.237757,0.809412,-0.000721,-0.032221,2.1e-05
309,-0.536914,0.2377909999999999,0.8094279999999999,0.0011769999999999,-0.032164,0.003117
310,-0.53688,0.2378,0.809449,0.005019,-0.030768,0.0034479999999999
311,-0.536833,0.237871,0.809459,0.003431,-0.03026,0.0045969999999999
312,-0.536748,0.2379599999999999,0.809489,0.003652,-0.030654,0.000997
313,-0.536636,0.2380239999999999,0.8095439999999999,0.006332,-0.0321829999999999,0.003581
314,-0.536522,0.238086,0.809602,0.004372,-0.0284,0.002685
315,-0.53635,0.238119,0.809706,0.006687,-0.0249689999999999,0.002169
316,-0.536161,0.2380949999999999,0.8098380000000001,0.008039,-0.027478,0.002219
317,-0.5359430000000001,0.238044,0.809998,0.003045,-0.028587,0.002258
318,-0.535733,0.23798,0.810156,-0.000583,-0.029148,0.0027559999999999
319,-0.5355300000000001,0.2379,0.810314,0.001854,-0.0317389999999999,0.002919
320,-0.535335,0.237819,0.810466,0.000392,-0.031643,0.002888
321,-0.535112,0.23776,0.8106300000000001,-0.0001199999999999,-0.0310029999999999,0.003243
322,-0.534864,0.237721,0.810805,0.004164,-0.031499,0.002732
323,-0.534647,0.23775,0.810941,0.002023,-0.026767,0.0049159999999999
324,-0.534468,0.237792,0.811046,0.002043,-0.032561,0.005116
325,-0.534345,0.237836,0.8111149999999999,0.000394,-0.033612,0.007229
326,-0.5342210000000001,0.237917,0.8111729999999999,0.002192,-0.031023,0.006179
327,-0.534116,0.238137,0.811177,0.0009289999999999,-0.0311819999999999,0.007701
328,-0.5340739999999999,0.23834,0.811145,0.004091,-0.028898,0.005368
329,-0.534037,0.238481,0.811128,0.006541,-0.027757,0.002959
330,-0.533993,0.238682,0.8110970000000001,0.0045439999999999,-0.0275769999999999,0.004088
331,-0.533953,0.238821,0.811082,0.005495,-0.027731,0.001295
332,-0.533933,0.238858,0.8110850000000001,0.00401,-0.029324,0.003338
333,-0.53398,0.23893,0.811032,0.003249,-0.031838,0.005435
334,-0.534012,0.239052,0.810975,0.002594,-0.0311819999999999,0.00714
335,-0.534061,0.239115,0.810924,-0.003185,-0.027826,0.008931
336,-0.53415,0.239258,0.810823,-0.003692,-0.027924,0.0071239999999999
337,-0.534119,0.2393219999999999,0.810825,0.000428,-0.028399,0.001584
338,-0.534031,0.239228,0.81091,0.0121959999999999,-0.026719,-0.010434
339,-0.533985,0.239025,0.811,0.015522,-0.028332,-0.008983
340,-0.534049,0.238678,0.81106,0.013129,-0.035019,0.002569
341,-0.533995,0.2385159999999999,0.8111430000000001,0.001006,-0.039755,0.020491
342,-0.533933,0.238596,0.811161,-0.00101,-0.036523,0.021969
343,-0.534022,0.238867,0.8110229999999999,0.001597,-0.035757,0.011349
344,-0.534172,0.239205,0.810825,0.001854,-0.030083,-0.0027649999999999
345,-0.534331,0.239569,0.810612,-2e-06,-0.031104,-0.002461
346,-0.5343829999999999,0.23994,0.8104680000000001,-0.003581,-0.027125,-0.003553
347,-0.534347,0.2402659999999999,0.810395,0.001846,-0.027391,-0.004563
348,-0.534231,0.240519,0.810396,0.0055299999999999,-0.031199,0.001692
349,-0.53405,0.2407639999999999,0.810443,0.003701,-0.0307269999999999,0.0050479999999999
350,-0.533934,0.240925,0.810472,0.001143,-0.027836,0.015471
351,-0.533857,0.241167,0.810451,0.0018739999999999,-0.026965,0.0130509999999999
352,-0.533917,0.241284,0.810376,0.003583,-0.026501,0.0061979999999999
353,-0.534079,0.2412409999999999,0.810283,0.00521,-0.02658,-0.004603
354,-0.534215,0.241271,0.810184,0.002614,-0.026717,-0.001712
355,-0.534261,0.241135,0.810194,0.000172,-0.029923,-0.000502
356,-0.534325,0.240967,0.8102020000000001,-0.001625,-0.0384829999999999,0.011209
357,-0.534377,0.241024,0.8101510000000001,-0.004777,-0.039119,0.012694
358,-0.534371,0.241085,0.810137,-0.00103,-0.037258,0.007551
359,-0.534315,0.241175,0.810146,0.006209,-0.034586,0.003636
360,-0.534262,0.241269,0.810153,0.007178,-0.03021,0.003674
361,-0.534277,0.241407,0.810102,0.009772,-0.0283329999999999,0.007586
362,-0.534324,0.241544,0.81003,0.009696,-0.0265779999999999,0.00276
363,-0.534431,0.2415989999999999,0.809944,0.011817,-0.031089,0.00164
364,-0.53459,0.241643,0.809826,0.004835,-0.032918,0.008671
365,-0.5346890000000001,0.241787,0.809718,-0.000544,-0.029934,0.009344
366,-0.534822,0.2418789999999999,0.809602,-0.003722,-0.0309879999999999,0.00328
367,-0.535014,0.2419619999999999,0.80945,-5.1e-05,-0.0298949999999999,0.001676
368,-0.535172,0.242031,0.809325,0.002747,-0.029125,-0.000762
369,-0.535403,0.2420989999999999,0.8091520000000001,0.005328,-0.030993,0.0007379999999999
370,-0.535594,0.242137,0.809014,0.002757,-0.032801,0.003943
371,-0.53566,0.2421469999999999,0.808968,0.004349,-0.034612,0.006279
372,-0.535691,0.242173,0.8089390000000001,0.001709,-0.032441,0.00466
373,-0.535675,0.2421989999999999,0.808941,0.002701,-0.032131,0.003621
374,-0.5356310000000001,0.2421989999999999,0.80897,0.004609,-0.029827,0.005208
375,-0.535515,0.242186,0.80905,0.00483,-0.028089,0.003297
376,-0.535387,0.24211,0.809157,0.005083,-0.030685,0.004731
377,-0.535248,0.242053,0.809267,1.5e-05,-0.03403,0.004332
378,-0.5351779999999999,0.24205,0.809314,-0.002007,-0.035919,0.004529
379,-0.535208,0.242132,0.8092699999999999,-0.001215,-0.037695,0.007289
380,-0.535203,0.242196,0.809254,0.000916,-0.033181,0.0036729999999999
381,-0.5351899999999999,0.242277,0.809239,0.003528,-0.032102,0.004451
382,-0.5351090000000001,0.2423539999999999,0.8092689999999999,0.005415,-0.029967,0.004055
383,-0.53499,0.242328,0.809355,0.007219,-0.02991,0.00496
384,-0.534867,0.242356,0.8094279999999999,0.005875,-0.029588,0.00472
385,-0.5347529999999999,0.242369,0.8095,0.002679,-0.032576,0.005686
386,-0.534675,0.242309,0.809569,0.003806,-0.036453,0.008028
387,-0.5346350000000001,0.242328,0.8095899999999999,0.0034,-0.035266,0.005046
388,-0.53462,0.2423699999999999,0.809587,0.003599,-0.035247,0.008101
389,-0.534669,0.242358,0.809558,0.005647,-0.031543,0.009534
390,-0.534747,0.2424059999999999,0.809492,0.004443,-0.029317,0.004931
391,-0.5348229999999999,0.24243,0.809434,0.003695,-0.031661,0.001204
392,-0.53488,0.242497,0.809376,0.00389,-0.033192,0.0030629999999999
393,-0.53491,0.242576,0.809333,0.003828,-0.032569,0.006142
394,-0.5348510000000001,0.242662,0.809347,-0.001175,-0.0309769999999999,0.002329
395,-0.5349010000000001,0.242693,0.809304,0.000295,-0.033495,0.006767
396,-0.534957,0.242771,0.809244,0.001601,-0.036243,0.0068569999999999
397,-0.534991,0.24289,0.809186,0.003879,-0.035508,0.007983
398,-0.535296,0.243,0.808952,0.0064719999999999,-0.03992,0.01072
399,-0.5358470000000001,0.243177,0.808533,0.003941,-0.038725,0.0098269999999999
400,-0.536664,0.243256,0.807968,-0.000247,-0.039063,0.010621
401,-0.5375909999999999,0.243121,0.807392,-0.0038369999999999,-0.021197,0.003994
402,-0.538616,0.2429579999999999,0.806758,0.003856,-0.022347,-0.001597
403,-0.5394939999999999,0.242601,0.806279,-0.006176,-0.02289,-0.008687
404,-0.54,0.242253,0.806044,0.001151,-0.030706,-0.002425
405,-0.539891,0.241901,0.8062229999999999,-0.00677,-0.031742,-0.002451
406,-0.539399,0.241666,0.806623,0.00441,-0.038785,0.013262
407,-0.5391,0.2415389999999999,0.8068609999999999,0.016303,-0.0444569999999999,0.009789
408,-0.538712,0.241393,0.807164,0.018052,-0.050368,0.0088
409,-0.5383140000000001,0.241309,0.807454,0.018859,-0.042976,0.005076
410,-0.538018,0.241552,0.807579,0.016411,-0.03092,0.017418
411,-0.5380520000000001,0.241808,0.80748,0.01759,-0.029025,0.014328
412,-0.538397,0.24183,0.807243,0.018179,-0.030649,0.004158
413,-0.538771,0.241777,0.80701,0.016066,-0.024217,0.003858
414,-0.539141,0.241684,0.80679,0.012789,-0.025314,0.00275
415,-0.539675,0.241505,0.806487,0.000124,-0.032612,0.004381
416,-0.54028,0.241254,0.8061560000000001,-0.011218,-0.034451,0.003399
417,-0.5408149999999999,0.241061,0.805856,-0.020983,-0.032718,-0.002527
418,-0.541226,0.240942,0.805615,-0.0136289999999999,-0.03417,-0.004559
419,-0.541397,0.240898,0.8055140000000001,-0.0063939999999999,-0.033272,-0.003176
420,-0.541373,0.240914,0.805525,-0.009302,-0.039635,0.005464
421,-0.5411779999999999,0.240967,0.8056399999999999,-0.004384,-0.035813,0.00422
422,-0.540916,0.240983,0.805812,0.005577,-0.038377,0.00536
423,-0.54066,0.241038,0.805968,0.003322,-0.0360819999999999,0.011125
424,-0.5403979999999999,0.2412159999999999,0.80609,0.004113,-0.033055,0.012956
425,-0.5402939999999999,0.2413989999999999,0.8061050000000001,0.011837,-0.0309649999999999,0.007143
426,-0.540099,0.241471,0.806214,0.014388,-0.033844,0.005508
427,-0.53983,0.241497,0.806387,0.013936,-0.034176,0.0076549999999999
428,-0.539683,0.241441,0.806502,0.01121,-0.0354779999999999,0.014711
429,-0.539606,0.241457,0.8065479999999999,0.008646,-0.035189,0.01204
430,-0.539655,0.241459,0.806515,0.009732,-0.0338329999999999,0.00684
431,-0.5398270000000001,0.241426,0.8064100000000001,0.005846,-0.032655,0.003802
432,-0.5400159999999999,0.2414369999999999,0.80628,0.004005,-0.029874,0.000971
433,-0.540212,0.241401,0.8061590000000001,0.00295,-0.03263,-0.000724
434,-0.540335,0.241292,0.806109,-0.002359,-0.032567,0.004514
435,-0.540483,0.2412639999999999,0.806018,0.000856,-0.034569,0.002835
436,-0.540596,0.241207,0.805959,0.004417,-0.037991,0.004298
437,-0.540661,0.241179,0.805923,-0.001805,-0.036513,0.0066069999999999
438,-0.540667,0.241285,0.805888,-0.000455,-0.037275,0.00733
439,-0.540715,0.241402,0.805821,0.003346,-0.03788,0.005519
440,-0.540696,0.241575,0.805782,0.005036,-0.03575,0.003682
441,-0.540582,0.24173,0.805812,0.004601,-0.033783,0.010915
442,-0.540474,0.2418699999999999,0.8058420000000001,0.007225,-0.0356019999999999,0.012045
443,-0.540493,0.241975,0.805797,0.009548,-0.031938,0.007359
444,-0.540546,0.241998,0.805754,0.008761,-0.033548,0.004396
445,-0.540504,0.241967,0.805791,0.004279,-0.034203,0.0017649999999999
446,-0.540399,0.2418679999999999,0.805892,-0.002707,-0.037156,0.00702
447,-0.5402899999999999,0.241848,0.80597,-0.001137,-0.03471,0.004241
448,-0.540239,0.241772,0.806028,0.003542,-0.040707,0.0071129999999999
449,-0.540208,0.241857,0.806022,0.000917,-0.037404,0.008751
450,-0.540153,0.242019,0.8060109999999999,0.007072,-0.0332779999999999,0.009861
451,-0.54008,0.242159,0.806017,0.015132,-0.033617,0.004407
452,-0.540058,0.242207,0.806017,0.012348,-0.034886,0.009977
453,-0.540096,0.2422619999999999,0.805975,0.010662,-0.0349709999999999,0.012598
454,-0.540198,0.242246,0.805913,0.0082,-0.035123,0.007228
455,-0.54046,0.242236,0.805739,0.006174,-0.037875,0.0032359999999999
456,-0.540578,0.242179,0.8056770000000001,0.001546,-0.035057,0.00226
457,-0.540608,0.24209,0.805685,0.001698,-0.037455,-0.001119
458,-0.5407609999999999,0.242011,0.805606,0.0035299999999999,-0.04119,0.003003
459,-0.5409189999999999,0.241905,0.805531,-0.005727,-0.037956,-0.000294
460,-0.541143,0.241884,0.805387,-0.004038,-0.0347009999999999,-0.011212
461,-0.54128,0.242141,0.805218,0.004338,-0.031875,-0.0379899999999999
462,-0.5409579999999999,0.243048,0.805161,0.019474,-0.037649,-0.043458
463,-0.539932,0.245179,0.805204,0.010651,-0.063233,-0.0431029999999999
464,-0.537273,0.248824,0.805864,-0.077214,-0.000121,0.266707
465,-0.5366029999999999,0.248322,0.806465,-0.063113,0.003753,0.053048
466,-0.537409,0.245168,0.8068930000000001,0.0848179999999999,-0.092092,-0.075112
467,-0.539507,0.244903,0.8055720000000001,0.092317,-0.050354,-0.0275879999999999
468,-0.5408109999999999,0.24577,0.804433,0.029245,-0.007611,0.005412
469,-0.54035,0.245788,0.804737,-0.003428,-0.038254,-0.006199
470,-0.540535,0.245646,0.804656,-0.010856,-0.044902,0.014223
471,-0.540457,0.245952,0.804615,-0.019495,-0.042247,0.025143
472,-0.5398850000000001,0.246028,0.804976,-0.0264149999999999,-0.040172,0.0244
473,-0.540014,0.245963,0.804909,-0.000559,-0.030402,0.017403
474,-0.540667,0.245954,0.804473,9.4e-05,-0.030393,0.017838
475,-0.5413680000000001,0.245797,0.80405,0.01053,-0.035821,-0.012638
476,-0.541505,0.245884,0.8039310000000001,-0.005278,-0.037891,-0.006903
477,-0.541077,0.246231,0.8041119999999999,-0.009109,-0.036956,0.002269
478,-0.540723,0.2464039999999999,0.804298,-0.0079379999999999,-0.037374,0.017648
479,-0.540646,0.246326,0.804373,0.014889,-0.037067,0.015894
480,-0.5406770000000001,0.2462599999999999,0.804372,0.019117,-0.040373,0.015178
481,-0.540779,0.2463219999999999,0.804285,0.017311,-0.039749,0.01026
482,-0.540826,0.246468,0.804208,0.0057009999999999,-0.040673,0.002525
483,-0.540812,0.2467219999999999,0.80414,0.002588,-0.041262,0.005797
484,-0.540767,0.2470159999999999,0.804079,0.0014759999999999,-0.038429,0.010603
485,-0.540736,0.247103,0.8040729999999999,0.009258,-0.032808,0.009144
486,-0.540906,0.247107,0.803958,0.009915,-0.033652,0.005399
487,-0.5410159999999999,0.247051,0.803901,0.003892,-0.039181,0.007638
488,-0.54113,0.246976,0.803848,0.004661,-0.035749,0.0073709999999999
489,-0.5413899999999999,0.246823,0.803719,0.005059,-0.041912,0.007164
490,-0.541636,0.246641,0.803609,0.000147,-0.042341,0.008784
491,-0.5418470000000001,0.246534,0.8035,-0.003747,-0.035078,0.008863
492,-0.542076,0.246441,0.803374,0.004677,-0.033581,0.004106
493,-0.542303,0.246241,0.8032819999999999,0.009573,-0.033167,0.004793
494,-0.5425300000000001,0.245982,0.803208,0.003742,-0.034694,0.007064
495,-0.542738,0.24569,0.803157,-0.004061,-0.038292,0.00179
496,-0.542612,0.2454579999999999,0.803313,-0.002341,-0.04717,-0.00746
497,-0.542126,0.24522,0.803714,0.000347,-0.049496,0.011197
498,-0.541651,0.244979,0.804107,0.009073,-0.051299,0.030594
499,-0.541213,0.244732,0.804478,0.009872,-0.041332,0.028835
500,-0.5409510000000001,0.244655,0.8046770000000001,0.023037,-0.040507,0.013393
501,-0.540856,0.24499,0.804639,0.0147789999999999,-0.033442,0.009219
502,-0.540995,0.2455239999999999,0.804384,0.00207,-0.032908,0.011855
503,-0.541127,0.245973,0.804157,-0.003642,-0.035799,-0.000202
504,-0.54137,0.246342,0.8038810000000001,-0.004834,-0.034061,-0.00571
505,-0.541574,0.246604,0.803663,-0.0130669999999999,-0.027472,-0.010084
506,-0.541709,0.24668,0.803549,-0.00657,-0.0287389999999999,-0.002493
507,-0.541684,0.246509,0.803618,0.003949,-0.036121,0.0028239999999999
508,-0.5415479999999999,0.246202,0.803804,0.010527,-0.0390029999999999,0.0068489999999999
509,-0.541377,0.24581,0.80404,0.007091,-0.04299,0.0141979999999999
510,-0.5412319999999999,0.245411,0.8042590000000001,0.009006,-0.04427,0.0203409999999999
511,-0.541144,0.2451239999999999,0.8044060000000001,0.017402,-0.041648,0.012305
512,-0.541117,0.244867,0.804503,0.017176,-0.0427339999999999,0.005983
513,-0.541033,0.244644,0.8046270000000001,0.019381,-0.043625,0.0088799999999999
514,-0.540896,0.2444469999999999,0.804779,0.017122,-0.047319,0.011871
515,-0.540853,0.24431,0.80485,0.018697,-0.050615,0.019903
516,-0.5409609999999999,0.244306,0.804778,0.010901,-0.047269,0.022599
517,-0.5412640000000001,0.244439,0.804534,0.007481,-0.042321,0.011048
518,-0.541463,0.2445679999999999,0.804361,-0.011913,-0.040039,-9e-06
519,-0.541512,0.244983,0.804201,-0.01551,-0.034655,-0.002993
520,-0.541582,0.245479,0.804003,-0.0140669999999999,-0.027217,-0.008395
521,-0.541569,0.245775,0.803922,-0.010525,-0.033083,-0.002515
522,-0.541275,0.246008,0.804049,-0.00882,-0.034689,0.003401
523,-0.540913,0.246212,0.80423,-0.003613,-0.030529,0.005554
524,-0.540655,0.246299,0.804376,0.005987,-0.030372,0.0114349999999999
525,-0.540415,0.246206,0.804566,0.009501,-0.037054,0.012329
526,-0.540334,0.246058,0.804666,0.0146229999999999,-0.045939,0.00962
527,-0.540319,0.2459739999999999,0.804702,0.019155,-0.042544,0.017533
528,-0.540482,0.246018,0.804578,0.024735,-0.047776,0.01462
529,-0.540717,0.24602,0.80442,0.021018,-0.052417,0.012734
530,-0.540866,0.246114,0.804292,0.02788,-0.058965,0.010176
531,-0.541201,0.24615,0.804056,0.028078,-0.043819,-0.005106
532,-0.541402,0.2463719999999999,0.803852,0.021535,-0.051685,-0.0199169999999999
533,-0.541234,0.2474599999999999,0.803632,-0.054576,-0.034401,0.037295
534,-0.541352,0.248979,0.803083,-0.045913,-0.017534,0.064746
535,-0.542043,0.249146,0.802565,0.01328,-0.046296,0.038423
536,-0.542593,0.248634,0.8023520000000001,0.040533,-0.038764,-0.0213
537,-0.542651,0.248546,0.8023399999999999,0.031177,-0.034892,-0.01903
538,-0.542733,0.248692,0.802239,-0.002478,-0.041036,0.003242
539,-0.543014,0.248831,0.802006,-0.001221,-0.049185,0.003246
540,-0.5431600000000001,0.249025,0.8018460000000001,0.000909,-0.037661,0.007983
541,-0.542888,0.249146,0.801994,-0.003804,-0.034943,0.012048
542,-0.542652,0.249067,0.802178,-0.003658,-0.036909,0.013084
543,-0.542732,0.248946,0.802161,-0.0038829999999999,-0.037276,0.016717
544,-0.542946,0.2487329999999999,0.802084,0.010215,-0.041656,0.006678
545,-0.543046,0.248521,0.802082,0.015946,-0.045655,0.004757
546,-0.543058,0.248463,0.802092,0.0100069999999999,-0.043705,0.005693
547,-0.543036,0.24848,0.8021010000000001,0.008994,-0.0450949999999999,0.009239
548,-0.542942,0.2485619999999999,0.80214,0.0038179999999999,-0.042354,0.013458
549,-0.542884,0.248661,0.802148,0.002021,-0.040287,0.016746
550,-0.542994,0.2486989999999999,0.8020609999999999,0.0051979999999999,-0.03857,0.0065629999999999
551,-0.543108,0.24866,0.801996,0.005007,-0.043124,0.004843
552,-0.543151,0.248717,0.80195,0.004898,-0.040526,0.007972
553,-0.543222,0.248883,0.80185,0.00271,-0.04118,0.011138
554,-0.543315,0.249051,0.8017340000000001,0.002269,-0.042081,0.011544
555,-0.543489,0.249228,0.801561,0.002031,-0.043387,0.0116709999999999
556,-0.5437109999999999,0.2494289999999999,0.801348,0.002635,-0.041681,0.007643
557,-0.543912,0.249574,0.801167,0.002453,-0.035325,-0.0003549999999999
558,-0.544048,0.249578,0.8010729999999999,0.0098079999999999,-0.037405,-0.000108
559,-0.544025,0.249516,0.801108,0.012897,-0.039967,0.009271
560,-0.5439470000000001,0.2495369999999999,0.801154,0.009539,-0.042094,0.019326
561,-0.543966,0.249657,0.801104,0.012136,-0.045036,0.021375
562,-0.544158,0.249844,0.8009149999999999,0.012069,-0.051297,0.016468
563,-0.544335,0.2500719999999999,0.800724,0.008843,-0.040095,0.010662
564,-0.544469,0.250398,0.800531,0.006963,-0.038469,0.008078
565,-0.544574,0.2506219999999999,0.800389,0.0073739999999999,-0.033871,0.004085
566,-0.544605,0.250576,0.800383,-0.00224,-0.031826,-0.005767
567,-0.54468,0.250454,0.800371,-0.006605,-0.036129,-0.003633
568,-0.544692,0.250249,0.800427,-0.012284,-0.041082,0.005054
569,-0.544583,0.2501219999999999,0.800541,-0.005344,-0.045807,0.009563
570,-0.5443819999999999,0.250139,0.800672,-0.005545,-0.045824,0.009432
571,-0.544142,0.2501469999999999,0.800833,0.006209,-0.0463649999999999,0.0105069999999999
572,-0.543812,0.250232,0.801031,0.012165,-0.044467,0.01124
573,-0.543489,0.250342,0.801216,0.01581,-0.0420899999999999,0.0133289999999999
574,-0.543241,0.250434,0.801355,0.014738,-0.040412,0.014013
575,-0.543117,0.2504619999999999,0.801431,0.01649,-0.040852,0.013296
576,-0.5430560000000001,0.250424,0.801484,0.011547,-0.041867,0.012039
577,-0.543049,0.250365,0.801507,0.010334,-0.040679,0.010093
578,-0.5430560000000001,0.250247,0.801538,0.003597,-0.0433529999999999,0.011801
579,-0.543158,0.250202,0.801484,0.002722,-0.044666,0.008941
580,-0.543333,0.250146,0.8013819999999999,0.001295,-0.040033,0.007761
581,-0.54342,0.250039,0.8013560000000001,0.000848,-0.039544,0.002523
582,-0.543525,0.249986,0.801301,0.003028,-0.038667,0.002654
583,-0.543706,0.24989,0.801207,-4.1e-05,-0.045376,0.002427
584,-0.543774,0.249909,0.8011560000000001,-0.001194,-0.050461,0.0070409999999999
585,-0.543629,0.2500429999999999,0.8012130000000001,0.000569,-0.051175,0.01089
586,-0.543377,0.250257,0.8013170000000001,0.007382,-0.051252,0.017546
587,-0.543129,0.250607,0.801376,0.010491,-0.047527,0.018021
588,-0.542852,0.251005,0.8014399999999999,0.016347,-0.045255,0.010465
589,-0.542589,0.251438,0.8014819999999999,0.0178389999999999,-0.039448,0.014726
590,-0.542405,0.251904,0.8014600000000001,0.0164349999999999,-0.036755,0.013741
591,-0.542299,0.252165,0.80145,0.016649,-0.035903,0.006442
592,-0.5423439999999999,0.252335,0.801366,0.015412,-0.035767,0.008005
593,-0.542456,0.252417,0.8012640000000001,0.008109,-0.03768,0.009893
594,-0.542679,0.252404,0.801117,0.000962,-0.042459,0.008652
595,-0.542984,0.252319,0.800938,-0.007187,-0.044387,0.008022
596,-0.543279,0.252213,0.800772,-0.008494,-0.043732,0.006327
597,-0.5434760000000001,0.25213,0.800664,-0.008877,-0.043741,0.004436
598,-0.543623,0.252091,0.8005770000000001,-0.003511,-0.046082,0.006049
599,-0.5437069999999999,0.2521219999999999,0.80051,-0.001642,-0.0445259999999999,0.009274
600,-0.543723,0.252229,0.800465,0.001456,-0.043901,0.00735
601,-0.543687,0.25234,0.8004560000000001,0.004517,-0.04334,0.010167
602,-0.543611,0.2524639999999999,0.8004680000000001,0.006486,-0.043067,0.012215
603,-0.5434720000000001,0.2526,0.800519,0.007232,-0.041724,0.009768
604,-0.543347,0.252619,0.8005979999999999,0.011136,-0.044443,0.012497
605,-0.5432319999999999,0.252668,0.80066,0.01099,-0.043912,0.015044
606,-0.543144,0.252693,0.800711,0.009941,-0.042213,0.0105069999999999
607,-0.543126,0.252698,0.800722,0.008763,-0.043561,0.01103
608,-0.543121,0.252686,0.800729,0.0065,-0.044877,0.012
609,-0.543129,0.252771,0.8006979999999999,0.0074379999999999,-0.044793,0.011848
610,-0.543145,0.252861,0.800658,0.007012,-0.044502,0.010026
611,-0.5431520000000001,0.252948,0.800625,0.002457,-0.0445589999999999,0.009723
612,-0.5431630000000001,0.253106,0.8005680000000001,0.002392,-0.045083,0.008834
613,-0.543145,0.253258,0.800532,0.006021,-0.043831,0.009084
614,-0.543112,0.25334,0.80053,0.00762,-0.0451639999999999,0.0121079999999999
615,-0.543076,0.253508,0.800501,0.004761,-0.043608,0.013403
616,-0.5430560000000001,0.253713,0.80045,0.0034289999999999,-0.043966,0.01379
617,-0.543135,0.253789,0.800372,0.006971,-0.044622,0.008817
618,-0.543186,0.253934,0.800291,0.005619,-0.045301,0.00905
619,-0.5431630000000001,0.254059,0.8002670000000001,0.006679,-0.0448449999999999,0.010264
620,-0.543194,0.254112,0.800229,0.0076409999999999,-0.044807,0.011844
621,-0.543287,0.254162,0.8001510000000001,0.008314,-0.046276,0.010778
622,-0.543351,0.254136,0.8001149999999999,0.007127,-0.044831,0.009287
623,-0.543438,0.25414,0.800054,0.004895,-0.04421,0.01002
624,-0.543519,0.254189,0.799984,0.005585,-0.045266,0.011616
625,-0.543589,0.254257,0.799913,0.005702,-0.0462949999999999,0.009672
626,-0.543616,0.254274,0.79989,0.006201,-0.045931,0.01229
627,-0.54362,0.254368,0.799858,0.007716,-0.04607,0.010414
628,-0.5436380000000001,0.254443,0.799822,0.0035229999999999,-0.045047,0.009214
629,-0.543672,0.254505,0.79978,0.005296,-0.046452,0.0089819999999999
630,-0.5436529999999999,0.254653,0.799746,0.005674,-0.045821,0.009931
631,-0.5436300000000001,0.254825,0.799707,0.0070849999999999,-0.045505,0.010199
632,-0.5436310000000001,0.2548829999999999,0.799687,0.005713,-0.042999,0.011257
633,-0.543612,0.255002,0.799662,0.006197,-0.044141,0.008794
634,-0.543588,0.2550679999999999,0.799658,0.008416,-0.0450459999999999,0.010965
635,-0.543555,0.255087,0.799674,0.0086579999999999,-0.044363,0.011376
636,-0.54355,0.255146,0.799658,0.006074,-0.0447269999999999,0.008813
637,-0.54351,0.255182,0.799675,0.006904,-0.0465029999999999,0.009316
638,-0.543434,0.25518,0.799726,0.006188,-0.047188,0.0129419999999999
639,-0.543376,0.255259,0.79974,0.006862,-0.045207,0.011784
640,-0.543325,0.255344,0.799747,0.008306,-0.04578,0.010647
641,-0.5432600000000001,0.2554079999999999,0.799771,0.010332,-0.046332,0.011631
642,-0.543196,0.255475,0.799793,0.008544,-0.046536,0.012051
643,-0.54315,0.255564,0.799796,0.007444,-0.042948,0.0096519999999999
644,-0.5431050000000001,0.255621,0.799809,0.010085,-0.04154,0.009853
645,-0.543068,0.255598,0.799841,0.0044329999999999,-0.044355,0.010355
646,-0.543053,0.255612,0.799847,0.000328,-0.042523,0.006305
647,-0.5430590000000001,0.255608,0.799845,7.5e-05,-0.046517,0.0080769999999999
648,-0.5429930000000001,0.255608,0.7998890000000001,0.003549,-0.047005,0.010352
649,-0.542845,0.255625,0.799984,0.003554,-0.047404,0.010929
650,-0.542782,0.255644,0.800021,0.00642,-0.048781,0.01283
651,-0.542726,0.255656,0.8000550000000001,0.008302,-0.046855,0.011316
652,-0.542655,0.2556199999999999,0.8001149999999999,0.007376,-0.046727,0.01031
653,-0.542603,0.255582,0.800162,0.00795,-0.0443389999999999,0.010858
654,-0.5425449999999999,0.2555489999999999,0.800212,0.0068239999999999,-0.04629,0.012181
655,-0.5424720000000001,0.2554869999999999,0.800281,0.009452,-0.046075,0.011517
656,-0.5424,0.255436,0.800347,0.009853,-0.047932,0.010933
657,-0.542346,0.255425,0.800387,0.007053,-0.0503459999999999,0.011778
658,-0.5423020000000001,0.255463,0.800405,0.005162,-0.04715,0.0121409999999999
659,-0.542309,0.255502,0.800387,0.006497,-0.047983,0.011411
660,-0.5423140000000001,0.255546,0.800369,0.0066849999999999,-0.047233,0.010971
661,-0.542301,0.255594,0.800362,0.005513,-0.04754,0.008369
662,-0.542284,0.255602,0.800371,0.006868,-0.044909,0.012403
663,-0.5422640000000001,0.255661,0.800367,0.007031,-0.045654,0.013613
664,-0.542226,0.255635,0.8004,0.005452,-0.046193,0.0092769999999999
665,-0.542186,0.255611,0.800434,0.005046,-0.047893,0.0114709999999999
666,-0.542171,0.255648,0.800431,0.004405,-0.0478079999999999,0.011535
667,-0.542148,0.255676,0.800438,0.0069,-0.045944,0.01078
668,-0.542115,0.25567,0.800461,0.0072489999999999,-0.045954,0.011718
669,-0.542092,0.255734,0.8004560000000001,0.008187,-0.046169,0.011311
670,-0.542071,0.255746,0.800467,0.007937,-0.047754,0.011164
671,-0.5420550000000001,0.255735,0.800481,0.004167,-0.0480019999999999,0.01234
672,-0.542036,0.25578,0.800479,0.005659,-0.049664,0.012234
673,-0.542008,0.255798,0.800493,0.006272,-0.046906,0.008589
674,-0.541985,0.255852,0.800492,0.0076069999999999,-0.046227,0.0122069999999999
675,-0.541984,0.255876,0.800485,0.009712,-0.048723,0.011725
676,-0.54199,0.2559079999999999,0.80047,0.00601,-0.048739,0.013906
677,-0.542021,0.255953,0.8004359999999999,0.00424,-0.047853,0.013056
678,-0.5421060000000001,0.256065,0.800342,0.004981,-0.045737,0.011181
679,-0.542115,0.256134,0.8003140000000001,0.006516,-0.048645,0.010004
680,-0.542101,0.256198,0.800303,0.010088,-0.046771,0.013052
681,-0.542134,0.256305,0.800246,0.010015,-0.0454899999999999,0.0123299999999999
682,-0.5421729999999999,0.25636,0.8002020000000001,0.008115,-0.047498,0.012771
683,-0.542234,0.25631,0.800178,0.0091069999999999,-0.048531,0.012597
684,-0.542319,0.256348,0.800107,0.007835,-0.0485079999999999,0.010364
685,-0.542385,0.256323,0.800071,0.004344,-0.047445,0.012353
686,-0.5424479999999999,0.256326,0.800027,0.005232,-0.048761,0.011008
687,-0.5424899999999999,0.2563539999999999,0.7999890000000001,0.00567,-0.046561,0.010756
688,-0.5425180000000001,0.256409,0.799953,0.006675,-0.049683,0.011983
689,-0.542561,0.25648,0.7999,0.0065349999999999,-0.047053,0.010647
690,-0.542614,0.256585,0.7998310000000001,0.005489,-0.0467,0.011098
691,-0.54267,0.256692,0.799758,0.006247,-0.047479,0.011963
692,-0.54272,0.256801,0.799689,0.007121,-0.048427,0.011788
693,-0.54277,0.256926,0.799615,0.005859,-0.047881,0.0118319999999999
694,-0.542786,0.256992,0.799583,0.0064709999999999,-0.047626,0.012459
695,-0.542826,0.257073,0.79953,0.006876,-0.04696,0.0129539999999999
696,-0.542886,0.257166,0.799459,0.0073939999999999,-0.047099,0.012827
697,-0.542956,0.257226,0.799392,0.00664,-0.046807,0.012376
698,-0.543018,0.257279,0.799333,0.009616,-0.0482649999999999,0.014037
699,-0.543093,0.257327,0.799266,0.0075099999999999,-0.051059,0.0104269999999999
700,-0.543141,0.257343,0.7992279999999999,0.004323,-0.049442,0.0127689999999999
701,-0.543211,0.257368,0.799172,0.0050799999999999,-0.049009,0.01139
702,-0.543235,0.257423,0.799138,0.004753,-0.047202,0.013469
703,-0.543266,0.257452,0.799108,0.006996,-0.046529,0.012034
704,-0.54332,0.257431,0.799078,0.007783,-0.046493,0.009318
705,-0.543339,0.257369,0.799085,0.00829,-0.046935,0.009601
706,-0.543358,0.257266,0.7991050000000001,0.007943,-0.050967,0.01663
707,-0.543351,0.257211,0.799128,0.005799,-0.0523309999999999,0.021185
708,-0.543412,0.25732,0.7990510000000001,0.007951,-0.051006,0.018225
709,-0.543503,0.257421,0.798956,0.009934,-0.053304,0.013406
710,-0.543571,0.257511,0.7988810000000001,0.011909,-0.048054,0.012139
711,-0.5436880000000001,0.2576969999999999,0.798742,0.012819,-0.047706,0.015146
712,-0.543823,0.257844,0.798603,0.009384,-0.048387,0.0130879999999999
713,-0.5440010000000001,0.257884,0.7984680000000001,0.007991,-0.049754,0.010492
714,-0.54422,0.257946,0.798299,0.005585,-0.048596,0.011333
715,-0.544396,0.258059,0.798142,0.006784,-0.049136,0.012069
716,-0.5445270000000001,0.2580969999999999,0.798041,0.006396,-0.048136,0.0132539999999999
717,-0.54465,0.258187,0.797928,0.007053,-0.046594,0.012253
718,-0.5447390000000001,0.258237,0.797851,0.008255,-0.048856,0.0115819999999999
719,-0.544825,0.258285,0.797776,0.004268,-0.048537,0.012496
720,-0.544912,0.25841,0.7976770000000001,0.002218,-0.050234,0.011588
721,-0.544959,0.258513,0.797611,0.001731,-0.050505,0.011501
722,-0.544972,0.258585,0.797579,0.005925,-0.0504709999999999,0.010786
723,-0.544938,0.258651,0.7975810000000001,0.006303,-0.049315,0.011837
724,-0.5448970000000001,0.258711,0.7975899999999999,0.006399,-0.048796,0.013568
725,-0.544845,0.258695,0.797629,0.008072,-0.049543,0.012323
726,-0.544795,0.258723,0.797654,0.008907,-0.047694,0.012618
727,-0.5447310000000001,0.258713,0.797701,0.009193,-0.0492709999999999,0.011884
728,-0.544674,0.258673,0.7977529999999999,0.008648,-0.0493529999999999,0.013419
729,-0.544616,0.258675,0.7977920000000001,0.007018,-0.051247,0.012343
730,-0.544568,0.258693,0.797819,0.005688,-0.0516159999999999,0.013094
731,-0.544529,0.258752,0.797826,0.003498,-0.0535519999999999,0.0153
732,-0.54448,0.258826,0.7978350000000001,0.00644,-0.050513,0.014787
733,-0.5444319999999999,0.2589059999999999,0.797842,0.008315,-0.049205,0.012842
734,-0.5443939999999999,0.258976,0.797846,0.009665,-0.049076,0.014898
735,-0.544358,0.2590659999999999,0.797842,0.009995,-0.048907,0.013178
736,-0.544331,0.259161,0.797829,0.008168,-0.05068,0.013008
737,-0.5443180000000001,0.259244,0.797812,0.008185,-0.053373,0.017023
738,-0.544301,0.259371,0.797782,0.0037579999999999,-0.053485,0.017205
739,-0.544354,0.259554,0.797687,0.004727,-0.050921,0.013928
740,-0.544446,0.259747,0.797561,0.005918,-0.05119,0.0123
741,-0.544447,0.259928,0.797501,0.011259,-0.04983,0.0115959999999999
742,-0.5444869999999999,0.260092,0.797421,0.011802,-0.048468,0.013065
743,-0.544571,0.260212,0.797325,0.010223,-0.048466,0.016365
744,-0.544683,0.260214,0.797248,0.00968,-0.048956,0.012811
745,-0.544791,0.260203,0.7971779999999999,0.0066739999999999,-0.051082,0.009173
746,-0.544849,0.260182,0.797145,0.002826,-0.049748,0.013509
747,-0.544882,0.260185,0.797121,0.003577,-0.0532299999999999,0.012587
748,-0.5448689999999999,0.260204,0.7971229999999999,0.007073,-0.053508,0.0139879999999999
749,-0.5448310000000001,0.260258,0.797133,0.007691,-0.054645,0.014147
750,-0.5448189999999999,0.260362,0.797107,0.010456,-0.0539409999999999,0.015378
751,-0.544833,0.260506,0.797049,0.009235,-0.049263,0.0145659999999999
752,-0.5448350000000001,0.260607,0.7970149999999999,0.007268,-0.050356,0.01225
753,-0.544848,0.260762,0.796954,0.005999,-0.05045,0.011243
754,-0.544844,0.260881,0.796918,0.009337,-0.051179,0.012393
755,-0.544817,0.2610139999999999,0.7968930000000001,0.0069599999999999,-0.050778,0.015241
756,-0.5447850000000001,0.261169,0.7968649999999999,0.006104,-0.050857,0.014903
757,-0.5448,0.261246,0.79683,0.008255,-0.052658,0.011962
758,-0.5448149999999999,0.261334,0.79679,0.006104,-0.050946,0.014031
759,-0.544846,0.261476,0.796722,0.005524,-0.050889,0.013412
760,-0.5448689999999999,0.261573,0.796675,0.006249,-0.052482,0.013505
761,-0.544878,0.261632,0.79665,0.0079519999999999,-0.050953,0.012004
762,-0.544892,0.26177,0.7965949999999999,0.008744,-0.051061,0.013158
763,-0.544908,0.261899,0.796542,0.007982,-0.050671,0.012738
764,-0.544909,0.261923,0.796534,0.005557,-0.0512909999999999,0.0137539999999999
765,-0.544906,0.262024,0.796504,0.0081319999999999,-0.051148,0.012594
766,-0.54492,0.262109,0.796467,0.008298,-0.0517059999999999,0.0108
767,-0.544891,0.262151,0.7964720000000001,0.00235,-0.0510759999999999,0.016623
768,-0.544874,0.262312,0.796431,0.004301,-0.050795,0.016146
769,-0.544928,0.262438,0.7963520000000001,0.0055,-0.050921,0.012761
770,-0.544918,0.262555,0.7963210000000001,0.009411,-0.051907,0.013692
771,-0.544875,0.262714,0.796298,0.011,-0.050343,0.012708
772,-0.544867,0.262781,0.796281,0.011939,-0.051538,0.013671
773,-0.544816,0.262795,0.796311,0.00908,-0.049599,0.0150289999999999
774,-0.544728,0.262706,0.796402,0.008183,-0.051006,0.010605
775,-0.544616,0.2625699999999999,0.796523,0.006866,-0.0516019999999999,0.01085
776,-0.544512,0.262484,0.796622,0.006075,-0.053027,0.0134669999999999
777,-0.544395,0.262398,0.7967310000000001,0.005637,-0.0541769999999999,0.014655
778,-0.544261,0.262352,0.796838,0.008281,-0.056816,0.016486
779,-0.544154,0.262338,0.796916,0.008158,-0.0562679999999999,0.018468
780,-0.5440649999999999,0.262367,0.796967,0.009885,-0.053139,0.0139009999999999
781,-0.544028,0.262399,0.796982,0.009559,-0.054193,0.015106
782,-0.543968,0.262444,0.7970079999999999,0.007942,-0.052025,0.011373
783,-0.543916,0.2625139999999999,0.7970189999999999,0.00757,-0.052416,0.015084
784,-0.5438649999999999,0.262518,0.797053,0.0065569999999999,-0.051535,0.016805
785,-0.5438270000000001,0.262548,0.7970689999999999,0.007298,-0.052069,0.014379
786,-0.543812,0.262583,0.797068,0.008167,-0.052424,0.0135699999999999
787,-0.543798,0.26256,0.797085,0.009298,-0.0533919999999999,0.012927
788,-0.543779,0.262582,0.797092,0.008561,-0.0546049999999999,0.0144009999999999
789,-0.543774,0.262588,0.797093,0.005352,-0.053146,0.01385
790,-0.5437649999999999,0.262605,0.797094,0.008242,-0.054872,0.014552
791,-0.543768,0.262635,0.797082,0.008352,-0.051407,0.014366
792,-0.543769,0.262663,0.797071,0.009009,-0.053572,0.01346
793,-0.543771,0.262675,0.7970659999999999,0.008477,-0.052287,0.014473
794,-0.54377,0.26268,0.797064,0.009362,-0.0529179999999999,0.013711
795,-0.543779,0.262732,0.797041,0.0067769999999999,-0.0536409999999999,0.013124
796,-0.543799,0.262786,0.79701,0.00701,-0.055571,0.016009
797,-0.5438350000000001,0.262835,0.79697,0.0065569999999999,-0.053225,0.015484
798,-0.543903,0.2629849999999999,0.796874,0.005939,-0.052597,0.015656
799,-0.5440050000000001,0.263076,0.796775,0.008467,-0.0528559999999999,0.010369
800,-0.5440229999999999,0.263077,0.796762,0.010728,-0.051361,0.014334
801,-0.544021,0.263142,0.7967420000000001,0.0102069999999999,-0.052601,0.016338
802,-0.544043,0.263171,0.796717,0.009039,-0.053012,0.0168509999999999
803,-0.544094,0.2631219999999999,0.7966979999999999,0.008892,-0.054291,0.014627
804,-0.544149,0.263106,0.796665,0.008337,-0.055358,0.013836
805,-0.544186,0.263078,0.7966489999999999,0.007306,-0.054048,0.012631
806,-0.544212,0.2630699999999999,0.7966340000000001,0.00727,-0.0544669999999999,0.0153009999999999
807,-0.544222,0.263059,0.796632,0.0076459999999999,-0.054395,0.014877
808,-0.544191,0.2630699999999999,0.7966479999999999,0.006654,-0.0553679999999999,0.016202
809,-0.544191,0.263071,0.7966489999999999,0.008638,-0.055445,0.016141
810,-0.5442100000000001,0.263164,0.796605,0.0084739999999999,-0.056163,0.016033
811,-0.544215,0.263236,0.7965770000000001,0.007579,-0.05477,0.017021
812,-0.544209,0.263284,0.796566,0.009556,-0.056085,0.015171
813,-0.544201,0.263392,0.796535,0.0107689999999999,-0.054225,0.0145759999999999
814,-0.544195,0.2635,0.796504,0.010686,-0.053966,0.014119
815,-0.544172,0.263501,0.79652,0.007001,-0.054135,0.015324
816,-0.5441729999999999,0.263556,0.7965,0.009597,-0.053733,0.016046
817,-0.5441819999999999,0.263582,0.7964859999999999,0.007133,-0.054186,0.0148389999999999
818,-0.544169,0.263576,0.796496,0.00886,-0.054485,0.012815
819,-0.544179,0.263658,0.796463,0.00887,-0.054567,0.0128479999999999
820,-0.544186,0.263679,0.796451,0.009289,-0.054222,0.0155
821,-0.544201,0.263718,0.796427,0.006893,-0.055451,0.015233
822,-0.544205,0.263824,0.796389,0.0068969999999999,-0.055557,0.0152719999999999
823,-0.544207,0.263829,0.7963859999999999,0.008364,-0.0539899999999999,0.015518
824,-0.544187,0.263844,0.796395,0.008832,-0.054662,0.015831
825,-0.544193,0.263923,0.7963640000000001,0.010288,-0.0536419999999999,0.0152819999999999
826,-0.544201,0.263967,0.7963439999999999,0.009197,-0.054388,0.015653
827,-0.544215,0.263969,0.796333,0.0074569999999999,-0.057335,0.0148849999999999
828,-0.544241,0.264055,0.796287,0.004309,-0.057924,0.016702
829,-0.544269,0.264106,0.796251,0.005893,-0.054695,0.01689
830,-0.544345,0.264189,0.796172,0.008151,-0.056746,0.013703
831,-0.544347,0.264243,0.796154,0.009984,-0.055686,0.0135229999999999
832,-0.5443319999999999,0.264341,0.796131,0.009587,-0.054182,0.017941
833,-0.544346,0.2644309999999999,0.796091,0.009312,-0.05537,0.0149439999999999
834,-0.544374,0.264433,0.796071,0.007219,-0.054945,0.015132
835,-0.544408,0.264408,0.796057,0.008443,-0.054707,0.011484
836,-0.544434,0.264391,0.796045,0.007187,-0.055559,0.013358
837,-0.54446,0.264415,0.7960189999999999,0.007778,-0.055309,0.015642
838,-0.544457,0.264381,0.796033,0.006082,-0.057548,0.0143
839,-0.5444359999999999,0.264427,0.796032,0.0088069999999999,-0.057289,0.015125
840,-0.544439,0.264499,0.7960050000000001,0.009893,-0.057483,0.015991
841,-0.544428,0.264578,0.795987,0.010386,-0.057288,0.016895
842,-0.5444140000000001,0.264681,0.795962,0.0091659999999999,-0.056413,0.017575
843,-0.544395,0.264755,0.7959510000000001,0.010582,-0.056991,0.016366
844,-0.544379,0.264814,0.795942,0.010001,-0.054884,0.017596
845,-0.544387,0.264873,0.795916,0.011245,-0.05479,0.017347
846,-0.5443979999999999,0.264916,0.795895,0.010478,-0.055123,0.015705
847,-0.544403,0.264962,0.7958770000000001,0.007599,-0.056084,0.016013
848,-0.5444,0.265001,0.7958649999999999,0.007779,-0.055162,0.017108
849,-0.544401,0.265051,0.795849,0.007261,-0.056784,0.01627
850,-0.544419,0.265084,0.795825,0.009064,-0.054833,0.014173
851,-0.5444359999999999,0.265072,0.795817,0.008914,-0.055096,0.015386
852,-0.544453,0.2651219999999999,0.795788,0.0071909999999999,-0.056031,0.015201
853,-0.544466,0.2651699999999999,0.795764,0.0065629999999999,-0.059528,0.018934
854,-0.5444869999999999,0.265255,0.795721,0.007865,-0.060558,0.015543
855,-0.544499,0.26537,0.795674,0.006062,-0.059559,0.015743
856,-0.544511,0.265444,0.7956409999999999,0.011095,-0.059222,0.015867
857,-0.544523,0.2655369999999999,0.795602,0.011473,-0.055087,0.013953
858,-0.544545,0.2656949999999999,0.795534,0.010808,-0.054482,0.015303
859,-0.544575,0.265776,0.7954859999999999,0.009129,-0.056517,0.0151069999999999
860,-0.544612,0.265852,0.7954359999999999,0.005184,-0.056776,0.017751
861,-0.54469,0.26602,0.795327,0.003201,-0.0566539999999999,0.017509
862,-0.544782,0.266138,0.7952239999999999,0.007719,-0.054682,0.016086
863,-0.544788,0.266213,0.795195,0.011097,-0.0572279999999999,0.015703
864,-0.544771,0.266368,0.795154,0.011904,-0.055965,0.016553
865,-0.544825,0.266499,0.7950729999999999,0.011027,-0.058033,0.017274
866,-0.544908,0.266452,0.795031,0.011248,-0.0576659999999999,0.015974
867,-0.54501,0.266484,0.79495,0.0096709999999999,-0.057927,0.016741
868,-0.545071,0.266526,0.794896,0.00639,-0.059815,0.016262
869,-0.545095,0.266571,0.794864,0.009267,-0.0596159999999999,0.018216
870,-0.545107,0.26666,0.794825,0.00783,-0.0585759999999999,0.019155
871,-0.545098,0.266734,0.7948069999999999,0.008447,-0.0581309999999999,0.016366
872,-0.545122,0.266846,0.7947529999999999,0.009828,-0.059708,0.016054
873,-0.5451550000000001,0.266979,0.794686,0.007923,-0.057994,0.017097
874,-0.545161,0.267078,0.7946479999999999,0.007533,-0.0587809999999999,0.01654
875,-0.5451600000000001,0.267205,0.794607,0.009607,-0.058709,0.015757
876,-0.545169,0.267339,0.794556,0.010577,-0.0572559999999999,0.015823
877,-0.545188,0.267451,0.794505,0.008384,-0.057566,0.015996
878,-0.545216,0.267547,0.794453,0.01154,-0.056487,0.016643
879,-0.5452560000000001,0.267648,0.794392,0.010314,-0.05665,0.018413
880,-0.545295,0.267755,0.794329,0.010124,-0.057626,0.017759
881,-0.5453479999999999,0.267852,0.7942600000000001,0.009169,-0.0582419999999999,0.0177669999999999
882,-0.545405,0.267976,0.794179,0.008494,-0.056672,0.018275
883,-0.545438,0.268049,0.794132,0.007626,-0.057997,0.016964
884,-0.545479,0.268129,0.794077,0.00866,-0.0580309999999999,0.016409
885,-0.545523,0.268265,0.794,0.008704,-0.0581669999999999,0.016485
886,-0.545545,0.268294,0.793975,0.008588,-0.0569289999999999,0.017731
887,-0.545557,0.26839,0.793934,0.008234,-0.0588259999999999,0.016949
888,-0.545573,0.268517,0.793879,0.008815,-0.05877,0.015538
889,-0.5455939999999999,0.268548,0.793855,0.011399,-0.057733,0.0151199999999999
890,-0.545592,0.268578,0.793846,0.010482,-0.057488,0.019035
891,-0.545556,0.268607,0.79386,0.008355,-0.0546179999999999,0.017098
892,-0.545565,0.268631,0.7938470000000001,0.007326,-0.058121,0.0143349999999999
893,-0.545543,0.268655,0.793854,0.007854,-0.0581299999999999,0.014206
894,-0.545452,0.2686659999999999,0.793912,0.010936,-0.057759,0.017031
895,-0.545416,0.268648,0.7939430000000001,0.010092,-0.057329,0.017199
896,-0.5454,0.268619,0.793964,0.008443,-0.0632669999999999,0.019269
897,-0.5453819999999999,0.268572,0.793992,0.009783,-0.0585039999999999,0.016036
898,-0.545389,0.268501,0.794011,0.007913,-0.058662,0.016627
899,-0.545387,0.268467,0.7940229999999999,0.0075299999999999,-0.060673,0.015562
900,-0.545381,0.26843,0.79404,0.008088,-0.0587899999999999,0.0135009999999999
901,-0.545287,0.268455,0.794096,0.009902,-0.059715,0.017519
902,-0.5452060000000001,0.268479,0.794143,0.011774,-0.061814,0.01799
903,-0.545153,0.268524,0.794165,0.009844,-0.060273,0.021723
904,-0.545151,0.268594,0.794142,0.007493,-0.059396,0.018602
905,-0.545165,0.26864,0.794117,0.007629,-0.0609679999999999,0.017208
906,-0.545113,0.268732,0.794121,0.0114069999999999,-0.059305,0.014946
907,-0.545027,0.268814,0.7941520000000001,0.009642,-0.059204,0.016654
908,-0.54496,0.268853,0.794185,0.008354,-0.055871,0.018437
909,-0.544934,0.268896,0.794188,0.009198,-0.0564169999999999,0.014771
910,-0.544924,0.268936,0.794181,0.00899,-0.059555,0.018639
911,-0.544905,0.268932,0.794197,0.0096569999999999,-0.060665,0.016793
912,-0.544914,0.269012,0.794164,0.00962,-0.061477,0.016062
913,-0.5449039999999999,0.269096,0.794143,0.008542,-0.061134,0.0170449999999999
914,-0.544872,0.269076,0.794171,0.009915,-0.060061,0.018115
915,-0.5448609999999999,0.269132,0.7941600000000001,0.009903,-0.0589419999999999,0.016371
916,-0.544841,0.269169,0.794162,0.012202,-0.059682,0.01817
917,-0.5448310000000001,0.269188,0.7941630000000001,0.009598,-0.060188,0.017254
918,-0.544836,0.269269,0.794132,0.0073,-0.063077,0.016385
919,-0.544849,0.269355,0.794094,0.007923,-0.060798,0.017353
920,-0.544898,0.26946,0.794025,0.010276,-0.0624889999999999,0.016446
921,-0.544959,0.269578,0.793944,0.009802,-0.062104,0.019594
922,-0.5450020000000001,0.2696489999999999,0.79389,0.007206,-0.0574299999999999,0.020273
923,-0.54508,0.269736,0.7938069999999999,0.0090689999999999,-0.056815,0.015656
924,-0.545183,0.269842,0.7937,0.009737,-0.059057,0.014832
925,-0.5451729999999999,0.2699,0.7936880000000001,0.010261,-0.0594049999999999,0.01811
926,-0.545164,0.269973,0.79367,0.010175,-0.060775,0.019029
927,-0.545192,0.270009,0.793637,0.010356,-0.061757,0.020725
928,-0.545201,0.269997,0.7936350000000001,0.010686,-0.060112,0.016027
929,-0.545205,0.269943,0.793651,0.009377,-0.059632,0.0159039999999999
930,-0.545199,0.269966,0.793647,0.0082569999999999,-0.060676,0.0181659999999999
931,-0.545191,0.269987,0.7936449999999999,0.0076849999999999,-0.061201,0.017513
932,-0.54515,0.269951,0.793686,0.005736,-0.062233,0.01831
933,-0.54511,0.270046,0.79368,0.009145,-0.061702,0.01853
934,-0.545104,0.270123,0.793659,0.011001,-0.062298,0.018795
935,-0.545098,0.270185,0.793642,0.011788,-0.061338,0.018691
936,-0.545075,0.270328,0.793609,0.009812,-0.061908,0.019013
937,-0.545059,0.270395,0.793597,0.011978,-0.0584809999999999,0.017468
938,-0.545044,0.270521,0.793563,0.011002,-0.059462,0.018082
939,-0.54504,0.2706179999999999,0.793534,0.01289,-0.05994,0.0174409999999999
940,-0.545036,0.270676,0.793517,0.007301,-0.0612799999999999,0.0178389999999999
941,-0.545039,0.2707489999999999,0.793491,0.008997,-0.060819,0.018933
942,-0.5450550000000001,0.27084,0.793449,0.010464,-0.061749,0.021417
943,-0.545078,0.270863,0.793425,0.008717,-0.0626419999999999,0.018969
944,-0.5451060000000001,0.270915,0.793388,0.009629,-0.064433,0.016686
945,-0.545136,0.271013,0.793334,0.008713,-0.062212,0.016923
946,-0.545141,0.271066,0.793312,0.007712,-0.062966,0.019584
947,-0.545164,0.271148,0.793269,0.010008,-0.0627279999999999,0.019323
948,-0.5451729999999999,0.271251,0.793227,0.012595,-0.061886,0.019258
949,-0.545168,0.271306,0.793212,0.011431,-0.0613909999999999,0.0163889999999999
950,-0.545179,0.271413,0.793167,0.009413,-0.060461,0.019958
951,-0.545194,0.271526,0.7931189999999999,0.010083,-0.060527,0.018298
952,-0.545211,0.271516,0.79311,0.008651,-0.065278,0.0196949999999999
953,-0.545219,0.2715619999999999,0.793089,0.005943,-0.0604409999999999,0.019426
954,-0.545243,0.27168,0.793032,0.006256,-0.0603299999999999,0.017759
955,-0.545307,0.271739,0.792968,0.010731,-0.0616409999999999,0.015931
956,-0.545271,0.271778,0.792979,0.0106489999999999,-0.061069,0.0183
957,-0.545234,0.271845,0.792982,0.009391,-0.061686,0.021212
958,-0.545266,0.271914,0.792936,0.010369,-0.063814,0.022128
959,-0.545303,0.271959,0.792895,0.009292,-0.063341,0.01843
960,-0.545374,0.271984,0.792838,0.0109959999999999,-0.062786,0.018716
961,-0.545456,0.272046,0.79276,0.011856,-0.063351,0.018687
962,-0.54551,0.27204,0.792725,0.009911,-0.062553,0.019943
963,-0.545573,0.272081,0.792668,0.009547,-0.061738,0.0183669999999999
964,-0.545607,0.2720849999999999,0.792643,0.008726,-0.063956,0.0188039999999999
965,-0.545661,0.272148,0.7925840000000001,0.010581,-0.066216,0.017917
966,-0.545713,0.272263,0.792508,0.008985,-0.064897,0.017199
967,-0.545746,0.27234,0.792459,0.007462,-0.062562,0.021276
968,-0.545774,0.272386,0.792424,0.011701,-0.062563,0.019603
969,-0.5458270000000001,0.272496,0.79235,0.012074,-0.062352,0.018181
970,-0.545866,0.272556,0.7923020000000001,0.012084,-0.063052,0.02064
971,-0.5458890000000001,0.2726389999999999,0.792258,0.011511,-0.0628919999999999,0.016885
972,-0.545913,0.272733,0.792209,0.007797,-0.063611,0.018612
973,-0.545928,0.27281,0.7921729999999999,0.010131,-0.062376,0.02228
974,-0.5459470000000001,0.272837,0.79215,0.01102,-0.063456,0.018168
975,-0.545978,0.272901,0.792107,0.010074,-0.063459,0.020439
976,-0.546006,0.272937,0.792075,0.01027,-0.063967,0.0178919999999999
977,-0.546053,0.27297,0.79203,0.0098129999999999,-0.06365,0.019112
978,-0.546094,0.273049,0.791975,0.008023,-0.063134,0.020189
979,-0.546072,0.2731159999999999,0.791967,0.007315,-0.065077,0.019999
980,-0.546111,0.273097,0.791946,0.010543,-0.0630299999999999,0.018463
981,-0.5461550000000001,0.2731179999999999,0.791909,0.011319,-0.066209,0.01612
982,-0.546177,0.273134,0.7918890000000001,0.0099379999999999,-0.067064,0.016568
983,-0.5461520000000001,0.273146,0.791902,0.008264,-0.06523,0.019972
984,-0.5461689999999999,0.273306,0.7918350000000001,0.007778,-0.06484,0.020284
985,-0.546225,0.273347,0.791783,0.010229,-0.065126,0.0204729999999999
986,-0.546192,0.273414,0.791782,0.013142,-0.063666,0.019558
987,-0.546182,0.273517,0.7917529999999999,0.015085,-0.062732,0.0214789999999999
988,-0.546193,0.273557,0.791732,0.011647,-0.065183,0.0191199999999999
989,-0.5462090000000001,0.273534,0.791728,0.0104269999999999,-0.063558,0.01595
990,-0.5462359999999999,0.273514,0.791716,0.0114,-0.0636289999999999,0.0192889999999999
991,-0.5462560000000001,0.273472,0.791717,0.010001,-0.063663,0.020082
992,-0.546315,0.27348,0.791673,0.009022,-0.06619,0.0231919999999999
993,-0.54633,0.273516,0.79165,0.009755,-0.0647,0.021994
994,-0.54632,0.273491,0.791666,0.011286,-0.064858,0.019644
995,-0.5463399999999999,0.27355,0.791632,0.008406,-0.066244,0.018671
996,-0.546361,0.273615,0.7915949999999999,0.009389,-0.065195,0.020234
997,-0.5463859999999999,0.273681,0.791555,0.010634,-0.064331,0.021067
998,-0.546345,0.273717,0.791571,0.011326,-0.0646409999999999,0.018991
999,-0.546333,0.2737719999999999,0.79156,0.010582,-0.064757,0.017919
1000,-0.54633,0.273835,0.7915399999999999,0.012013,-0.0643929999999999,0.020624
1001,-0.546359,0.273894,0.7915,0.008624,-0.064467,0.018147
1002,-0.546396,0.273934,0.79146,0.010309,-0.066384,0.018904
1003,-0.5464439999999999,0.273975,0.791413,0.008694,-0.0638,0.020782
1004,-0.546489,0.27404,0.791359,0.01144,-0.067238,0.019798
1005,-0.546552,0.274126,0.7912859999999999,0.009931,-0.066271,0.020756
1006,-0.54662,0.274211,0.791209,0.012715,-0.063594,0.020284
1007,-0.546668,0.27428,0.7911520000000001,0.010535,-0.063556,0.0209509999999999
1008,-0.546729,0.274399,0.7910689999999999,0.010703,-0.064942,0.019509
1009,-0.546745,0.274466,0.791035,0.008751,-0.066015,0.017498
1010,-0.54677,0.274532,0.790995,0.012422,-0.0668899999999999,0.019903
1011,-0.546821,0.274674,0.7909109999999999,0.0119849999999999,-0.066101,0.018537
1012,-0.5468649999999999,0.27479,0.79084,0.011754,-0.064341,0.021355
1013,-0.5468770000000001,0.274805,0.790826,0.008303,-0.063486,0.020911
1014,-0.54693,0.274972,0.790732,0.006205,-0.064324,0.020426
1015,-0.547037,0.275101,0.790613,0.008905,-0.0636289999999999,0.018423
1016,-0.547076,0.275174,0.79056,0.011691,-0.063336,0.020093
1017,-0.547054,0.275357,0.790512,0.011668,-0.06352,0.020141
1018,-0.547095,0.275421,0.790461,0.01171,-0.063461,0.023351
1019,-0.547191,0.275443,0.790387,0.010707,-0.065421,0.020587
1020,-0.547295,0.27545,0.790312,0.012048,-0.067137,0.018892
1021,-0.547381,0.275471,0.790246,0.009158,-0.067921,0.018211
1022,-0.547449,0.275515,0.790183,0.010111,-0.067553,0.0198449999999999
1023,-0.5475,0.2755849999999999,0.7901229999999999,0.00795,-0.067913,0.021416
1024,-0.547513,0.275658,0.790089,0.010617,-0.070274,0.023388
1025,-0.547502,0.275725,0.7900729999999999,0.0097209999999999,-0.065916,0.021038
1026,-0.547542,0.275884,0.78999,0.009715,-0.064611,0.020145
1027,-0.5475979999999999,0.275999,0.7899109999999999,0.00968,-0.067426,0.021307
1028,-0.547592,0.276096,0.789881,0.008927,-0.066486,0.019384
1029,-0.547606,0.276225,0.789826,0.011336,-0.065974,0.020385
1030,-0.547632,0.276327,0.789772,0.01008,-0.065435,0.02256
1031,-0.547657,0.276416,0.789723,0.01099,-0.0663639999999999,0.021174
1032,-0.547686,0.27652,0.789666,0.0107599999999999,-0.065506,0.02056
1033,-0.547715,0.276563,0.78963,0.010896,-0.065839,0.021802
1034,-0.5477850000000001,0.276621,0.789562,0.011072,-0.065897,0.019032
1035,-0.5478390000000001,0.2767239999999999,0.789488,0.010898,-0.068807,0.02112
1036,-0.547872,0.276757,0.789453,0.009496,-0.067299,0.021521
1037,-0.547896,0.276834,0.7894100000000001,0.011152,-0.067575,0.020862
1038,-0.547895,0.276924,0.789378,0.012541,-0.070137,0.020375
1039,-0.547864,0.276915,0.789402,0.010221,-0.065062,0.020183
1040,-0.54779,0.276915,0.789454,0.013366,-0.064833,0.020269
1041,-0.547663,0.276921,0.7895399999999999,0.011622,-0.065526,0.021556
1042,-0.54756,0.276904,0.789618,0.008634,-0.066592,0.021082
1043,-0.547496,0.276915,0.7896569999999999,0.008601,-0.068571,0.020874
1044,-0.547453,0.276935,0.78968,0.012862,-0.069171,0.019661
1045,-0.54735,0.276966,0.789741,0.011477,-0.070499,0.022225
1046,-0.547273,0.277021,0.789776,0.012315,-0.066938,0.023091
1047,-0.547248,0.277053,0.789782,0.010337,-0.067962,0.024778
1048,-0.547218,0.27702,0.789814,0.011573,-0.068753,0.020519
1049,-0.547215,0.27697,0.789834,0.0098459999999999,-0.069633,0.021308
1050,-0.547214,0.277019,0.789817,0.006442,-0.071773,0.021493
1051,-0.547161,0.2771369999999999,0.789813,0.007518,-0.06919,0.024686
1052,-0.547046,0.277304,0.789834,0.008914,-0.068549,0.021827
1053,-0.546952,0.277467,0.789842,0.012253,-0.065522,0.02246
1054,-0.546918,0.277485,0.789859,0.012342,-0.060871,0.021283
1055,-0.546944,0.277408,0.789868,0.01339,-0.06441,0.018405
1056,-0.547004,0.277307,0.789862,0.013831,-0.065911,0.019678
1057,-0.547027,0.277132,0.789906,0.011612,-0.066866,0.020565
1058,-0.547081,0.276918,0.789944,0.009361,-0.069918,0.028385
1059,-0.547205,0.276794,0.7899010000000001,0.0086,-0.066299,0.0279089999999999
1060,-0.547405,0.276648,0.789814,0.0056869999999999,-0.066458,0.027447
1061,-0.547596,0.2763739999999999,0.789778,0.009647,-0.074561,0.016832
1062,-0.547692,0.276276,0.789744,0.007989,-0.071305,0.012563
1063,-0.5476270000000001,0.276372,0.789756,0.0124409999999999,-0.073873,0.010659
1064,-0.547545,0.276462,0.7897810000000001,0.013854,-0.0688049999999999,0.028654
1065,-0.547503,0.276501,0.789797,0.014956,-0.069165,0.0300279999999999
1066,-0.547523,0.276419,0.789812,0.016883,-0.070654,0.024687
1067,-0.547556,0.27635,0.789813,0.017328,-0.068053,0.020718
1068,-0.54762,0.27641,0.789748,0.015683,-0.06883,0.019853
1069,-0.547767,0.2765,0.789614,0.013771,-0.068965,0.0177289999999999
1070,-0.547941,0.276569,0.789469,0.014341,-0.069217,0.0190639999999999
1071,-0.548091,0.276581,0.789361,0.013927,-0.0694429999999999,0.018119
1072,-0.548217,0.276601,0.789266,0.009796,-0.06867,0.024455
1073,-0.548363,0.2766119999999999,0.789161,0.004982,-0.070253,0.0237509999999999
1074,-0.548561,0.276688,0.7889970000000001,0.0064319999999999,-0.071229,0.023824
1075,-0.548713,0.276792,0.788855,0.0076209999999999,-0.071119,0.023813
1076,-0.54875,0.276896,0.7887930000000001,0.009734,-0.072504,0.020686
1077,-0.548841,0.276986,0.788698,0.010343,-0.071496,0.0203229999999999
1078,-0.548905,0.277078,0.788621,0.0101319999999999,-0.069071,0.021163
1079,-0.548922,0.277213,0.788562,0.0123159999999999,-0.068244,0.018903
1080,-0.548929,0.2772949999999999,0.788528,0.010431,-0.067243,0.018311
1081,-0.548899,0.277345,0.7885310000000001,0.008189,-0.070726,0.023511
1082,-0.5488149999999999,0.277455,0.78855,0.009997,-0.073354,0.025536
1083,-0.548697,0.277667,0.788559,0.008856,-0.069521,0.02414
1084,-0.548571,0.2778199999999999,0.7885909999999999,0.013293,-0.068698,0.019392
1085,-0.548457,0.277987,0.788612,0.01559,-0.070788,0.021676
1086,-0.548337,0.2781969999999999,0.788621,0.009778,-0.068602,0.023482
1087,-0.5482060000000001,0.27841,0.7886380000000001,0.01099,-0.070005,0.024168
1088,-0.54806,0.278605,0.788671,0.008265,-0.072336,0.021403
1089,-0.5479229999999999,0.278845,0.7886810000000001,0.0086319999999999,-0.070257,0.019928
1090,-0.547723,0.279002,0.788764,-3.7e-05,-0.068812,0.02253
1091,-0.547466,0.279156,0.788888,0.004055,-0.0695,0.019004
1092,-0.547149,0.279358,0.789037,0.010254,-0.066177,0.0167949999999999
1093,-0.546796,0.27957,0.789207,0.011319,-0.066375,0.0217979999999999
1094,-0.546458,0.279642,0.789415,0.020213,-0.066339,0.029692
1095,-0.546239,0.279475,0.789626,0.024083,-0.065211,0.0270389999999999
1096,-0.546269,0.279095,0.7897390000000001,0.02567,-0.068936,0.022822
1097,-0.546528,0.278605,0.789733,0.021672,-0.074778,0.022615
1098,-0.546934,0.278261,0.789574,0.021665,-0.072939,0.02169
1099,-0.547408,0.277907,0.78937,0.019454,-0.072096,0.023436
1100,-0.548148,0.277597,0.7889649999999999,0.014549,-0.071115,0.021811
1101,-0.549129,0.277371,0.788362,0.014126,-0.073498,0.024809
1102,-0.55019,0.277176,0.78769,0.010273,-0.084961,0.031188
1103,-0.5511550000000001,0.277325,0.786963,0.007088,-0.089199,0.037011
1104,-0.5517380000000001,0.27793,0.786341,0.005291,-0.084097,0.0328269999999999
1105,-0.552088,0.278808,0.7857850000000001,0.000376,-0.073089,0.029919
1106,-0.552337,0.279734,0.785281,0.005493,-0.06576,0.0154849999999999
1107,-0.5524359999999999,0.280536,0.784925,0.003211,-0.060916,0.008211
1108,-0.5525399999999999,0.281195,0.784616,0.00565,-0.05802,0.005667
1109,-0.552601,0.281622,0.78442,0.010472,-0.0621549999999999,0.014149
1110,-0.552537,0.281813,0.784396,0.013047,-0.063399,0.017774
1111,-0.552445,0.281853,0.784447,0.013596,-0.066521,0.020943
1112,-0.552325,0.281754,0.784567,0.003557,-0.0677649999999999,0.026971
1113,-0.5522560000000001,0.281615,0.784666,0.004557,-0.068175,0.023898
1114,-0.552321,0.281467,0.784672,0.0009449999999999,-0.071033,0.016536
1115,-0.5524020000000001,0.281423,0.7846310000000001,0.000507,-0.068243,0.020148
1116,-0.552365,0.281471,0.78464,-0.002521,-0.067344,0.0154389999999999
1117,-0.5521550000000001,0.281437,0.7848,0.001679,-0.068913,0.015325
1118,-0.551724,0.281375,0.785126,0.009473,-0.069995,0.014359
1119,-0.551217,0.28121,0.7855409999999999,0.017785,-0.072851,0.01994
1120,-0.550762,0.28101,0.785931,0.018032,-0.075749,0.037647
1121,-0.550315,0.280773,0.78633,0.022101,-0.082103,0.03673
1122,-0.550026,0.280613,0.786589,0.030617,-0.086445,0.035554
1123,-0.549879,0.280683,0.786667,0.029462,-0.080732,0.0371089999999999
1124,-0.549784,0.280792,0.786694,0.019618,-0.072632,0.028018
1125,-0.5498109999999999,0.280866,0.7866489999999999,0.019584,-0.073087,0.022219
1126,-0.549916,0.280918,0.786558,0.015599,-0.064762,0.0214409999999999
1127,-0.549959,0.280965,0.786511,0.010713,-0.063329,0.018253
1128,-0.550109,0.281021,0.7863859999999999,0.012359,-0.065949,0.0183319999999999
1129,-0.550214,0.280942,0.786341,0.005673,-0.0690279999999999,0.020651
1130,-0.550346,0.280833,0.786287,0.002968,-0.068843,0.018904
1131,-0.55043,0.280724,0.786267,0.004089,-0.072869,0.017901
1132,-0.550477,0.280625,0.786271,0.00525,-0.077653,0.023788
1133,-0.550495,0.280653,0.786248,0.004856,-0.073286,0.029273
1134,-0.550535,0.280709,0.7862,0.006483,-0.071694,0.026285
1135,-0.550601,0.280675,0.786166,0.013507,-0.074636,0.019926
1136,-0.550507,0.28073,0.786212,0.011903,-0.0726919999999999,0.023648
1137,-0.5504319999999999,0.280835,0.7862279999999999,0.014116,-0.0725669999999999,0.025067
1138,-0.550441,0.280807,0.786231,0.014125,-0.072479,0.026407
1139,-0.550451,0.280733,0.786251,0.013402,-0.075182,0.02213
1140,-0.5504760000000001,0.2806659999999999,0.786257,0.014099,-0.074352,0.022703
1141,-0.550469,0.280596,0.786287,0.013558,-0.074068,0.025587
1142,-0.550469,0.280598,0.7862859999999999,0.012856,-0.073292,0.024123
1143,-0.550478,0.280607,0.786277,0.012117,-0.073591,0.0234
1144,-0.550453,0.280564,0.786309,0.0124129999999999,-0.073167,0.026511
1145,-0.550347,0.280601,0.78637,0.009545,-0.07412,0.024512
1146,-0.550266,0.280699,0.786393,0.00896,-0.0717899999999999,0.022033
1147,-0.5502090000000001,0.280819,0.7863899999999999,0.011162,-0.073681,0.020846
1148,-0.550175,0.280962,0.786362,0.013097,-0.069963,0.024307
1149,-0.5502130000000001,0.281074,0.786295,0.013653,-0.070488,0.023794
1150,-0.5502600000000001,0.281071,0.786263,0.013334,-0.070682,0.026588
1151,-0.550312,0.281073,0.786226,0.013737,-0.071906,0.024961
1152,-0.5503819999999999,0.281079,0.786175,0.0102659999999999,-0.076627,0.021869
1153,-0.5504,0.2811099999999999,0.786151,0.006287,-0.073392,0.025861
1154,-0.550355,0.281119,0.786179,0.010759,-0.0716919999999999,0.025802
1155,-0.550391,0.281146,0.786144,0.01235,-0.071964,0.02512
1156,-0.5504720000000001,0.281126,0.786095,0.013072,-0.073149,0.023766
1157,-0.550542,0.281072,0.786065,0.0163169999999999,-0.076238,0.0201639999999999
1158,-0.550654,0.281127,0.785967,0.010158,-0.076888,0.020827
1159,-0.550624,0.281211,0.785957,0.00819,-0.076087,0.024132
1160,-0.550454,0.2812429999999999,0.786065,0.009514,-0.07679,0.024619
1161,-0.5502670000000001,0.2813489999999999,0.786158,0.010915,-0.075126,0.025412
1162,-0.55009,0.281513,0.7862239999999999,0.01533,-0.074726,0.020921
1163,-0.5499229999999999,0.281549,0.786327,0.013729,-0.0741059999999999,0.030583
1164,-0.5497810000000001,0.2817199999999999,0.786365,0.013678,-0.073621,0.034848
1165,-0.549786,0.281821,0.786326,0.016033,-0.073004,0.030782
1166,-0.549952,0.281815,0.786211,0.024699,-0.073822,0.023374
1167,-0.550109,0.281838,0.786094,0.021651,-0.073143,0.022302
1168,-0.550229,0.281852,0.7860050000000001,0.012433,-0.068046,0.022848
1169,-0.550383,0.28181,0.7859119999999999,0.009367,-0.0730389999999999,0.016227
1170,-0.550559,0.28184,0.785778,0.00965,-0.078456,0.020176
1171,-0.5507569999999999,0.2818989999999999,0.785618,0.0079709999999999,-0.074929,0.0272329999999999
1172,-0.550924,0.281842,0.785522,0.009237,-0.07356,0.020814
1173,-0.5511,0.281902,0.7853760000000001,0.009413,-0.07362,0.020959
1174,-0.551288,0.281901,0.785246,0.00928,-0.074824,0.025866
1175,-0.551376,0.281854,0.785201,0.007614,-0.0796289999999999,0.0299089999999999
1176,-0.551428,0.281839,0.78517,0.009268,-0.079264,0.026948
1177,-0.551435,0.281856,0.785159,0.011625,-0.078563,0.020429
1178,-0.551389,0.281991,0.785142,0.010648,-0.074564,0.0237409999999999
1179,-0.551242,0.282201,0.78517,0.010761,-0.073567,0.026552
1180,-0.551117,0.28235,0.785204,0.016022,-0.072328,0.027174
1181,-0.55106,0.282485,0.785196,0.018528,-0.070999,0.027381
1182,-0.551063,0.28258,0.785159,0.018928,-0.07178,0.025387
1183,-0.5511189999999999,0.282527,0.78514,0.012178,-0.072887,0.024888
1184,-0.551201,0.282537,0.785079,0.013085,-0.076039,0.027498
1185,-0.551294,0.282491,0.78503,0.012537,-0.076513,0.022587
1186,-0.5513859999999999,0.282449,0.784981,0.011148,-0.077585,0.021782
1187,-0.551508,0.282502,0.784877,0.011285,-0.077455,0.027074
1188,-0.5516770000000001,0.282619,0.784716,0.012142,-0.078471,0.027906
1189,-0.5518609999999999,0.282653,0.784573,0.011609,-0.076934,0.022632
1190,-0.5519930000000001,0.282723,0.784456,0.008902,-0.075752,0.024549
1191,-0.552064,0.2828489999999999,0.784361,0.009599,-0.075666,0.02437
1192,-0.552076,0.282937,0.784321,0.010694,-0.075616,0.028469
1193,-0.552096,0.283058,0.784263,0.013643,-0.073753,0.024102
1194,-0.552118,0.283183,0.784203,0.011575,-0.07542,0.022408
1195,-0.552132,0.283238,0.784172,0.012627,-0.076253,0.027244
1196,-0.5521229999999999,0.283335,0.784144,0.01155,-0.075892,0.027685
1197,-0.5521689999999999,0.283474,0.784061,0.011229,-0.076199,0.0261649999999999
1198,-0.552197,0.2835519999999999,0.784013,0.013455,-0.077558,0.022871
1199,-0.552167,0.283596,0.7840189999999999,0.013913,-0.073696,0.026833
1200,-0.552199,0.283708,0.7839550000000001,0.013946,-0.073809,0.026897
1201,-0.5522600000000001,0.283678,0.7839229999999999,0.014648,-0.074708,0.024793
1202,-0.552351,0.283615,0.783881,0.010221,-0.077622,0.021463
1203,-0.552463,0.283629,0.7837970000000001,0.009891,-0.079238,0.021958
1204,-0.552541,0.283619,0.783745,0.011617,-0.078068,0.025856
1205,-0.5525939999999999,0.283647,0.783698,0.010816,-0.078264,0.026452
1206,-0.552613,0.283742,0.783652,0.011979,-0.078434,0.0246979999999999
1207,-0.5526,0.283859,0.783618,0.013201,-0.0777279999999999,0.027097
1208,-0.552573,0.283982,0.783592,0.013602,-0.074357,0.027382
1209,-0.552571,0.28413,0.78354,0.014332,-0.07478,0.023253
1210,-0.552575,0.284209,0.783508,0.011682,-0.0749799999999999,0.023316
1211,-0.552611,0.284251,0.783468,0.0130139999999999,-0.078624,0.024439
1212,-0.552639,0.284401,0.783393,0.012738,-0.079323,0.024315
1213,-0.552643,0.284542,0.7833399999999999,0.0141,-0.076443,0.026292
1214,-0.552625,0.284623,0.783323,0.01164,-0.072953,0.026309
1215,-0.552625,0.2847449999999999,0.783278,0.011503,-0.0738679999999999,0.022615
1216,-0.552674,0.28484,0.7832100000000001,0.013962,-0.076191,0.02456
1217,-0.5527,0.2849489999999999,0.783151,0.010067,-0.076239,0.025503
1218,-0.552713,0.285096,0.783089,0.01008,-0.076387,0.025566
1219,-0.552666,0.285159,0.783099,0.014702,-0.0773799999999999,0.024701
1220,-0.5526479999999999,0.2852429999999999,0.783082,0.0129439999999999,-0.0745649999999999,0.02684
1221,-0.552653,0.285334,0.783045,0.014261,-0.075495,0.0280209999999999
1222,-0.552635,0.28535,0.7830520000000001,0.012001,-0.077739,0.028243
1223,-0.552618,0.285404,0.783044,0.012136,-0.076679,0.026938
1224,-0.552618,0.285503,0.783008,0.009512,-0.077159,0.0260279999999999
1225,-0.552608,0.285551,0.782998,0.013225,-0.077146,0.025596
1226,-0.552562,0.2855789999999999,0.7830189999999999,0.013393,-0.078456,0.03006
1227,-0.552503,0.285638,0.783039,0.0130889999999999,-0.07586,0.029064
1228,-0.552504,0.285757,0.782996,0.012907,-0.077841,0.027429
1229,-0.552617,0.285881,0.78287,0.012731,-0.079369,0.023892
1230,-0.552661,0.286037,0.782782,0.0155979999999999,-0.081234,0.025277
1231,-0.552604,0.286171,0.7827729999999999,0.018028,-0.077462,0.02843
1232,-0.552707,0.286255,0.78267,0.0141789999999999,-0.075714,0.0289
1233,-0.552872,0.2862679999999999,0.7825489999999999,0.015595,-0.076459,0.028486
1234,-0.5529729999999999,0.286188,0.782507,0.007776,-0.076899,0.023996
1235,-0.553134,0.286222,0.78238,0.009067,-0.076658,0.023513
1236,-0.553254,0.286252,0.782285,0.007996,-0.07855,0.023547
1237,-0.5533399999999999,0.286274,0.782216,0.0121409999999999,-0.07758,0.025187
1238,-0.5533640000000001,0.28639,0.7821560000000001,0.013005,-0.078962,0.028009
1239,-0.553326,0.2865,0.782142,0.012448,-0.079133,0.0292589999999999
1240,-0.553335,0.286601,0.782099,0.015982,-0.077052,0.026312
1241,-0.5533100000000001,0.286652,0.782098,0.014049,-0.073975,0.024924
1242,-0.553189,0.286686,0.782171,0.0146449999999999,-0.076648,0.025065
1243,-0.553035,0.286642,0.782295,0.0143539999999999,-0.074637,0.02282
1244,-0.552862,0.286586,0.782439,0.012792,-0.075695,0.028627
1245,-0.5526909999999999,0.286582,0.78256,0.0126209999999999,-0.075691,0.028505
1246,-0.552574,0.286486,0.782678,0.014855,-0.080538,0.0284339999999999
1247,-0.552519,0.286427,0.7827390000000001,0.011229,-0.0787539999999999,0.027717
1248,-0.552512,0.28645,0.7827350000000001,0.011222,-0.078778,0.0277199999999999
1249,-0.552484,0.286409,0.782771,0.010079,-0.078538,0.025747
1250,-0.552435,0.286425,0.782799,0.011923,-0.076647,0.025521
1251,-0.552396,0.28649,0.782802,0.009809,-0.076834,0.026448
1252,-0.552385,0.286465,0.7828189999999999,0.016909,-0.079525,0.0255759999999999
1253,-0.552461,0.286538,0.7827390000000001,0.015916,-0.081719,0.027762
1254,-0.55257,0.286709,0.7826,0.012531,-0.0789,0.033242
1255,-0.552554,0.286734,0.782601,0.016986,-0.081595,0.022285
1256,-0.552678,0.286767,0.782502,0.011861,-0.081994,0.02893
1257,-0.552846,0.286977,0.7823060000000001,0.009847,-0.077474,0.031232
1258,-0.5529890000000001,0.287162,0.782137,0.007426,-0.076865,0.027754
1259,-0.55311,0.287252,0.782018,0.009928,-0.078939,0.026118
1260,-0.553125,0.287392,0.7819560000000001,0.008783,-0.075845,0.02647
1261,-0.553139,0.287504,0.7819050000000001,0.012535,-0.07765,0.024186
1262,-0.553212,0.287488,0.78186,0.0171699999999999,-0.076581,0.025269
1263,-0.553266,0.287506,0.7818149999999999,0.015271,-0.077194,0.0256339999999999
1264,-0.5532729999999999,0.287442,0.781834,0.0130669999999999,-0.080166,0.024364
1265,-0.553231,0.287355,0.781896,0.010796,-0.079179,0.028285
1266,-0.553189,0.28733,0.781934,0.011243,-0.07891,0.029574
1267,-0.553167,0.287304,0.781959,0.0133569999999999,-0.079082,0.025322
1268,-0.5531689999999999,0.287279,0.781967,0.013343,-0.080309,0.0289149999999999
1269,-0.553186,0.287321,0.781939,0.0132389999999999,-0.080702,0.029355
1270,-0.553176,0.287326,0.781945,0.013931,-0.082278,0.027122
1271,-0.553177,0.287356,0.781934,0.0145569999999999,-0.07976,0.024875
1272,-0.5530649999999999,0.28741,0.781993,0.013743,-0.077769,0.0265089999999999
1273,-0.552987,0.287521,0.782008,0.0105519999999999,-0.078689,0.027105
1274,-0.552977,0.287646,0.7819689999999999,0.012221,-0.076464,0.029677
1275,-0.553027,0.287715,0.781908,0.0149259999999999,-0.07867,0.0276019999999999
1276,-0.5530609999999999,0.287694,0.781891,0.016044,-0.079198,0.023438
1277,-0.553041,0.287772,0.781876,0.011949,-0.076651,0.0285029999999999
1278,-0.553044,0.287784,0.78187,0.010182,-0.078296,0.027456
1279,-0.553085,0.287717,0.7818649999999999,0.012482,-0.079526,0.024486
1280,-0.553096,0.287731,0.781852,0.00996,-0.078686,0.026498
1281,-0.553124,0.2877679999999999,0.781818,0.011666,-0.079715,0.025525
1282,-0.553138,0.2877639999999999,0.78181,0.013404,-0.078474,0.026387
1283,-0.553147,0.287794,0.781792,0.013138,-0.07942,0.024955
1284,-0.553127,0.2878679999999999,0.78178,0.01112,-0.080318,0.0268899999999999
1285,-0.553118,0.287913,0.78177,0.015338,-0.081537,0.029586
1286,-0.553182,0.287979,0.7817,0.0128069999999999,-0.078507,0.025383
1287,-0.553192,0.288134,0.781637,0.0128169999999999,-0.078661,0.025446
1288,-0.5531550000000001,0.28824,0.781624,0.011254,-0.078844,0.030235
1289,-0.553229,0.288402,0.781511,0.01139,-0.079189,0.034422
1290,-0.553334,0.288446,0.7814220000000001,0.016072,-0.078439,0.025799
1291,-0.553288,0.288377,0.781479,0.015294,-0.079911,0.024322
1292,-0.553183,0.288335,0.781569,0.010855,-0.077871,0.029023
1293,-0.553171,0.2883719999999999,0.781564,0.010843,-0.077908,0.0290279999999999
1294,-0.553196,0.288274,0.781583,0.012868,-0.082143,0.0272089999999999
1295,-0.553221,0.288189,0.781597,0.012633,-0.0816,0.028294
1296,-0.553218,0.288147,0.781614,0.01266,-0.080139,0.026537
1297,-0.5532090000000001,0.288094,0.78164,0.016465,-0.081627,0.024817
1298,-0.553225,0.288067,0.781638,0.013522,-0.08186,0.030251
1299,-0.5532600000000001,0.288137,0.7815880000000001,0.013557,-0.0819299999999999,0.030302
1300,-0.553304,0.288169,0.7815449999999999,0.014852,-0.083259,0.027018
1301,-0.553327,0.288253,0.781497,0.013349,-0.082152,0.030468
1302,-0.5533100000000001,0.28835,0.781474,0.0133169999999999,-0.083348,0.029317
1303,-0.553277,0.288388,0.781483,0.011941,-0.0816009999999999,0.026989
1304,-0.553272,0.288482,0.781451,0.014668,-0.082138,0.031537
1305,-0.553298,0.28864,0.781375,0.014144,-0.0808,0.02908
1306,-0.553294,0.288722,0.7813479999999999,0.015025,-0.078974,0.02746
1307,-0.553281,0.288786,0.7813329999999999,0.0148289999999999,-0.079558,0.026376
1308,-0.553322,0.288885,0.781267,0.0137259999999999,-0.080099,0.027968
1309,-0.553373,0.288902,0.781225,0.014921,-0.081291,0.030542
1310,-0.553404,0.288964,0.781181,0.0136699999999999,-0.081521,0.030388
1311,-0.553447,0.288981,0.781143,0.014461,-0.081492,0.027817
1312,-0.553493,0.289016,0.781098,0.010112,-0.080321,0.027069
1313,-0.553559,0.289099,0.7810199999999999,0.011506,-0.082526,0.0256209999999999
1314,-0.553633,0.289228,0.78092,0.012648,-0.082914,0.024546
1315,-0.5536840000000001,0.289279,0.7808649999999999,0.013599,-0.08179,0.030841
1316,-0.553719,0.289376,0.7808039999999999,0.013115,-0.079049,0.029255
1317,-0.553726,0.289405,0.780788,0.01242,-0.080222,0.027119
1318,-0.5537380000000001,0.2893739999999999,0.78079,0.012235,-0.084784,0.031817
1319,-0.553758,0.289444,0.78075,0.011995,-0.084,0.0318569999999999
1320,-0.553743,0.289519,0.780733,0.0121319999999999,-0.0815419999999999,0.027082
1321,-0.553775,0.289579,0.780688,0.0134759999999999,-0.0812659999999999,0.0272339999999999
1322,-0.5537569999999999,0.289618,0.780686,0.016709,-0.080344,0.027267
1323,-0.553708,0.289689,0.780695,0.016385,-0.079057,0.028311
1324,-0.553717,0.289659,0.7807,0.017813,-0.079194,0.029282
1325,-0.5537569999999999,0.289674,0.780666,0.016357,-0.084061,0.026463
1326,-0.553773,0.289604,0.78068,0.0144669999999999,-0.08326,0.023778
1327,-0.553764,0.289516,0.7807189999999999,0.0091019999999999,-0.082409,0.0285769999999999
1328,-0.553802,0.289512,0.7806930000000001,0.01123,-0.083152,0.028862
1329,-0.553862,0.28949,0.78066,0.0147229999999999,-0.085037,0.031856
1330,-0.553867,0.28948,0.780659,0.01247,-0.084402,0.0281029999999999
1331,-0.55384,0.289545,0.780655,0.014763,-0.084909,0.026291
1332,-0.553813,0.28968,0.780624,0.012996,-0.083564,0.029816
1333,-0.5537890000000001,0.2897949999999999,0.7805979999999999,0.014528,-0.084518,0.028011
1334,-0.5538069999999999,0.289936,0.780533,0.014882,-0.0827519999999999,0.029358
1335,-0.553801,0.290119,0.780469,0.01515,-0.081791,0.0303829999999999
1336,-0.553775,0.290216,0.780451,0.014332,-0.081522,0.0282959999999999
1337,-0.5537890000000001,0.290269,0.780421,0.014406,-0.082032,0.026997
1338,-0.55388,0.290385,0.7803140000000001,0.014497,-0.082148,0.027105
1339,-0.5539109999999999,0.2903929999999999,0.780288,0.012422,-0.0815,0.029969
1340,-0.553905,0.290436,0.780276,0.01144,-0.08429,0.029401
1341,-0.553896,0.290536,0.780246,0.012438,-0.082589,0.0313079999999999
1342,-0.553874,0.290569,0.780249,0.013118,-0.083263,0.028162
1343,-0.553841,0.290621,0.7802520000000001,0.0129629999999999,-0.0827659999999999,0.030279
1344,-0.553822,0.290771,0.7802100000000001,0.015065,-0.083709,0.0295899999999999
1345,-0.55381,0.290881,0.780177,0.015084,-0.08324,0.029485
1346,-0.553758,0.290963,0.780184,0.014283,-0.083489,0.030424
1347,-0.553708,0.291117,0.780161,0.0146,-0.083704,0.029729
1348,-0.55367,0.291199,0.780157,0.013829,-0.08226,0.029093
1349,-0.553649,0.29131,0.780131,0.012526,-0.081395,0.031301
1350,-0.553639,0.291358,0.780121,0.015965,-0.081946,0.030518
1351,-0.5536220000000001,0.2913949999999999,0.780119,0.01459,-0.085127,0.031816
1352,-0.5536260000000001,0.29148,0.780084,0.0110689999999999,-0.082907,0.0295779999999999
1353,-0.553723,0.291635,0.7799560000000001,0.011319,-0.083811,0.026638
1354,-0.55377,0.29175,0.77988,0.015761,-0.0847639999999999,0.028942
1355,-0.553721,0.291861,0.7798729999999999,0.015574,-0.082999,0.032093
1356,-0.553744,0.291977,0.779813,0.014194,-0.084289,0.0315579999999999
1357,-0.553874,0.291994,0.779714,0.016612,-0.083788,0.029993
1358,-0.554005,0.291993,0.779623,0.013859,-0.082307,0.02743
1359,-0.554109,0.292003,0.779544,0.013856,-0.0849419999999999,0.027447
1360,-0.5542189999999999,0.291933,0.779493,0.010487,-0.0856649999999999,0.028811
1361,-0.554316,0.291986,0.779404,0.012187,-0.0869539999999999,0.030563
1362,-0.554322,0.292033,0.779382,0.011765,-0.085078,0.030448
1363,-0.554283,0.292067,0.779396,0.013267,-0.083724,0.028495
1364,-0.554276,0.292176,0.77936,0.013199,-0.085588,0.029462
1365,-0.554276,0.292296,0.779315,0.015519,-0.084395,0.031613
1366,-0.554229,0.292356,0.7793260000000001,0.0166009999999999,-0.08473,0.029313
1367,-0.554171,0.292471,0.779324,0.013415,-0.085547,0.0286899999999999
1368,-0.55414,0.292595,0.7792979999999999,0.013903,-0.08355,0.031187
1369,-0.554086,0.292687,0.779303,0.017846,-0.079338,0.02862
1370,-0.5539930000000001,0.292774,0.779335,0.018684,-0.080616,0.0291519999999999
1371,-0.553867,0.292775,0.779424,0.018955,-0.083394,0.031474
1372,-0.5537270000000001,0.292743,0.7795350000000001,0.018708,-0.081622,0.031332
1373,-0.553674,0.292679,0.779596,0.012902,-0.084427,0.0305839999999999
1374,-0.553629,0.292634,0.779645,0.008296,-0.0861519999999999,0.030368
1375,-0.5535359999999999,0.292531,0.77975,0.011895,-0.0864299999999999,0.027455
1376,-0.5534180000000001,0.292518,0.7798390000000001,0.010922,-0.084922,0.026008
1377,-0.553276,0.292488,0.7799520000000001,0.0120159999999999,-0.085441,0.028673
1378,-0.553114,0.292452,0.780079,0.014051,-0.085237,0.030208
1379,-0.552995,0.292468,0.780158,0.0141009999999999,-0.085544,0.031961
1380,-0.5529350000000001,0.292547,0.7801710000000001,0.01404,-0.085623,0.031948
1381,-0.552917,0.29252,0.7801939999999999,0.016693,-0.0869539999999999,0.034168
1382,-0.552892,0.292604,0.78018,0.013799,-0.084215,0.031893
1383,-0.5528890000000001,0.292665,0.780159,0.011675,-0.085145,0.028892
1384,-0.552901,0.292692,0.780141,0.0143419999999999,-0.086042,0.028239
1385,-0.5528270000000001,0.292741,0.780175,0.016511,-0.085252,0.0321269999999999
1386,-0.552801,0.292867,0.780147,0.016485,-0.085378,0.032155
1387,-0.5528489999999999,0.292883,0.7801060000000001,0.014809,-0.084188,0.031417
1388,-0.552936,0.2928489999999999,0.780057,0.015094,-0.085452,0.026568
1389,-0.553,0.292864,0.7800060000000001,0.012092,-0.08536,0.029107
1390,-0.5530229999999999,0.292879,0.779984,0.010817,-0.085238,0.0287779999999999
1391,-0.55303,0.292828,0.779998,0.015936,-0.086452,0.030777
1392,-0.553022,0.2928159999999999,0.7800090000000001,0.015806,-0.085266,0.030919
1393,-0.553041,0.2928,0.780001,0.012605,-0.085311,0.030957
1394,-0.553099,0.292768,0.779972,0.014555,-0.086408,0.030636
1395,-0.553179,0.292825,0.779894,0.0147419999999999,-0.0880669999999999,0.029448
1396,-0.553229,0.2928719999999999,0.77984,0.0154479999999999,-0.088099,0.028067
1397,-0.553198,0.292906,0.77985,0.016409,-0.085615,0.0303149999999999
1398,-0.553171,0.293051,0.7798149999999999,0.016382,-0.08576,0.03035
1399,-0.553171,0.293061,0.7798109999999999,0.014047,-0.083482,0.0303079999999999
1400,-0.553168,0.29306,0.779813,0.015433,-0.085342,0.02901
1401,-0.553176,0.293148,0.7797729999999999,0.016784,-0.087201,0.028836
1402,-0.553192,0.293173,0.779752,0.015228,-0.086142,0.0305959999999999
1403,-0.5532520000000001,0.2932369999999999,0.779686,0.0180199999999999,-0.084878,0.028908
1404,-0.553327,0.293301,0.779609,0.015225,-0.085949,0.030907
1405,-0.553401,0.293352,0.7795380000000001,0.015452,-0.085313,0.0300019999999999
1406,-0.5534680000000001,0.293376,0.7794800000000001,0.011598,-0.084377,0.033707
1407,-0.553516,0.2934489999999999,0.779418,0.008975,-0.086464,0.032013
1408,-0.5535640000000001,0.293465,0.779378,0.012656,-0.085762,0.029125
1409,-0.553595,0.293471,0.779353,0.015311,-0.085707,0.027562
1410,-0.553624,0.293543,0.779305,0.017048,-0.0861,0.0296089999999999
1411,-0.553666,0.293557,0.77927,0.0152449999999999,-0.087029,0.030452
1412,-0.5537,0.2936,0.77923,0.010838,-0.0885669999999999,0.0328269999999999
1413,-0.553709,0.293686,0.7791899999999999,0.010038,-0.087982,0.034179
1414,-0.553758,0.293692,0.779153,0.0148639999999999,-0.086676,0.028693
1415,-0.553821,0.293773,0.7790779999999999,0.0163,-0.086726,0.030141
1416,-0.5537880000000001,0.293857,0.7790699999999999,0.017152,-0.0847509999999999,0.031172
1417,-0.553773,0.2938969999999999,0.779066,0.014573,-0.084821,0.032748
1418,-0.553805,0.293968,0.7790159999999999,0.01694,-0.085411,0.03298
1419,-0.553854,0.293933,0.778995,0.014806,-0.086444,0.0287589999999999
1420,-0.553899,0.293892,0.778979,0.013631,-0.0839309999999999,0.0278449999999999
1421,-0.553946,0.293887,0.7789470000000001,0.014929,-0.085437,0.031005
1422,-0.553976,0.2938739999999999,0.77893,0.012869,-0.0877889999999999,0.031556
1423,-0.55398,0.293852,0.778935,0.015924,-0.088225,0.032374
1424,-0.553977,0.293908,0.7789159999999999,0.0138009999999999,-0.090265,0.030181
1425,-0.553979,0.293998,0.77888,0.0150689999999999,-0.087654,0.03272
1426,-0.553987,0.294079,0.778845,0.013978,-0.087491,0.031595
1427,-0.553988,0.2941539999999999,0.778816,0.012927,-0.086314,0.0315019999999999
1428,-0.553977,0.294271,0.77878,0.0135419999999999,-0.086721,0.030913
1429,-0.553959,0.294335,0.778768,0.014683,-0.085793,0.031458
1430,-0.5539609999999999,0.294416,0.778737,0.0148379999999999,-0.08595,0.031291
1431,-0.553974,0.294522,0.778688,0.015277,-0.086621,0.0303029999999999
1432,-0.553956,0.294591,0.778674,0.013169,-0.086903,0.031201
1433,-0.55395,0.29467,0.778648,0.013316,-0.086571,0.032143
1434,-0.553945,0.294724,0.7786310000000001,0.013845,-0.085252,0.0315649999999999
1435,-0.553938,0.2947329999999999,0.778632,0.015837,-0.087885,0.0302209999999999
1436,-0.553934,0.294711,0.778644,0.014596,-0.0874809999999999,0.030545
1437,-0.553948,0.294803,0.7786,0.014611,-0.087574,0.0305889999999999
1438,-0.553975,0.2948,0.778582,0.014546,-0.091049,0.033369
1439,-0.553932,0.2948489999999999,0.778594,0.0166699999999999,-0.088916,0.031907
1440,-0.553932,0.294963,0.77855,0.0166699999999999,-0.08903,0.031951
1441,-0.553905,0.294986,0.778561,0.013682,-0.088352,0.033542
1442,-0.553953,0.295056,0.778501,0.014173,-0.089245,0.03142
1443,-0.553999,0.295123,0.778443,0.013044,-0.0907309999999999,0.030929
1444,-0.553986,0.29521,0.77842,0.011856,-0.088026,0.032799
1445,-0.5540149999999999,0.295302,0.778365,0.014815,-0.089567,0.029314
1446,-0.554068,0.29549,0.7782560000000001,0.014868,-0.089755,0.029422
1447,-0.554048,0.295603,0.778226,0.017946,-0.088267,0.031085
1448,-0.554049,0.295744,0.778173,0.018328,-0.086363,0.033946
1449,-0.554107,0.295842,0.778094,0.015792,-0.086522,0.0327579999999999
1450,-0.554183,0.295877,0.778027,0.0139,-0.088006,0.028873
1451,-0.554258,0.295905,0.777963,0.013624,-0.087302,0.028433
1452,-0.5543170000000001,0.295937,0.777909,0.0138199999999999,-0.08793,0.031997
1453,-0.5543520000000001,0.29599,0.7778649999999999,0.014496,-0.088394,0.029493
1454,-0.554346,0.296015,0.7778579999999999,0.014368,-0.089502,0.032902
1455,-0.554339,0.296155,0.7778109999999999,0.0150319999999999,-0.088926,0.0316829999999999
1456,-0.554366,0.296301,0.777736,0.017378,-0.090628,0.03304
1457,-0.5543819999999999,0.296408,0.777683,0.013443,-0.088538,0.031917
1458,-0.5543640000000001,0.296567,0.7776350000000001,0.014615,-0.087735,0.0307759999999999
1459,-0.554334,0.296701,0.777605,0.0133949999999999,-0.086923,0.029432
1460,-0.5543,0.296792,0.777595,0.015283,-0.087518,0.029687
1461,-0.554286,0.296933,0.77755,0.015666,-0.087933,0.031593
1462,-0.554255,0.297043,0.77753,0.014582,-0.086503,0.032284
1463,-0.554234,0.297111,0.77752,0.015324,-0.088554,0.032554
1464,-0.5542279999999999,0.297279,0.777461,0.014051,-0.088905,0.032857
1465,-0.554215,0.29736,0.777439,0.01587,-0.087857,0.033123
1466,-0.5542279999999999,0.297461,0.777392,0.012938,-0.089942,0.031294
1467,-0.554232,0.297553,0.777353,0.01375,-0.090262,0.032873
1468,-0.554239,0.2976519999999999,0.7773100000000001,0.014474,-0.0906049999999999,0.032596
1469,-0.554251,0.297773,0.777254,0.013678,-0.090437,0.034117
1470,-0.554267,0.297878,0.7772020000000001,0.0150669999999999,-0.089168,0.033055
1471,-0.554284,0.297958,0.777158,0.015603,-0.088974,0.03261
1472,-0.5543140000000001,0.29806,0.777098,0.014091,-0.08816,0.031221
1473,-0.554327,0.298152,0.777053,0.013647,-0.09074,0.02945
1474,-0.5543279999999999,0.298198,0.777034,0.013541,-0.092799,0.037312
1475,-0.554334,0.2983449999999999,0.7769729999999999,0.013624,-0.08965,0.035923
1476,-0.5543600000000001,0.298478,0.776904,0.012139,-0.090669,0.032285
1477,-0.5544399999999999,0.298599,0.7768,0.016354,-0.087707,0.031733
1478,-0.554439,0.29878,0.7767310000000001,0.016094,-0.088529,0.031405
1479,-0.5543939999999999,0.298892,0.77672,0.019284,-0.087131,0.032346
1480,-0.5543710000000001,0.298854,0.776752,0.017277,-0.085017,0.032178
1481,-0.5543520000000001,0.2987619999999999,0.7768010000000001,0.016205,-0.0877179999999999,0.031656
1482,-0.554327,0.298638,0.776866,0.01505,-0.088799,0.029301
1483,-0.554309,0.298505,0.77693,0.013309,-0.090833,0.0300459999999999
1484,-0.554298,0.298448,0.7769590000000001,0.012718,-0.091539,0.032641
1485,-0.554269,0.2983929999999999,0.7770020000000001,0.014336,-0.0914529999999999,0.031424
1486,-0.554232,0.298346,0.777046,0.015459,-0.092338,0.0328899999999999
1487,-0.554161,0.298346,0.777097,0.0151289999999999,-0.092718,0.033038
1488,-0.554109,0.298385,0.777119,0.014223,-0.087417,0.033214
1489,-0.554099,0.298392,0.7771239999999999,0.014853,-0.088797,0.031791
1490,-0.554068,0.298411,0.777138,0.013846,-0.090357,0.032386
1491,-0.554036,0.298551,0.777107,0.0138129999999999,-0.090498,0.032417
1492,-0.554009,0.298608,0.777104,0.014947,-0.090585,0.0336259999999999
1493,-0.553998,0.298638,0.777101,0.01544,-0.089806,0.03372
1494,-0.553994,0.2987599999999999,0.777058,0.0154349999999999,-0.089928,0.0337639999999999
1495,-0.553984,0.298765,0.7770640000000001,0.015043,-0.089582,0.035223
1496,-0.5540149999999999,0.298743,0.77705,0.016493,-0.090445,0.031116
1497,-0.554068,0.298793,0.776993,0.015143,-0.092204,0.034988
1498,-0.554129,0.298807,0.776944,0.015036,-0.0903559999999999,0.034244
1499,-0.554179,0.298825,0.7769010000000001,0.012766,-0.092663,0.032852
1500,-0.554232,0.298855,0.7768510000000001,0.0155509999999999,-0.092541,0.0307959999999999
1501,-0.5542819999999999,0.298892,0.7768010000000001,0.013327,-0.092304,0.031686
1502,-0.554316,0.298892,0.776777,0.012827,-0.091113,0.032214
1503,-0.5543560000000001,0.298939,0.77673,0.017262,-0.091297,0.033115
1504,-0.554391,0.298944,0.7767029999999999,0.0154349999999999,-0.0898679999999999,0.0320279999999999
1505,-0.554437,0.298884,0.7766930000000001,0.014703,-0.09344,0.034906
1506,-0.5544520000000001,0.298955,0.776655,0.0137259999999999,-0.09142,0.034227
1507,-0.5545140000000001,0.29901,0.77659,0.013559,-0.091521,0.034552
1508,-0.5545800000000001,0.299007,0.776543,0.017196,-0.09251,0.029487
1509,-0.554565,0.29908,0.776526,0.016708,-0.093193,0.030466
1510,-0.554559,0.299132,0.77651,0.016824,-0.090086,0.034998
1511,-0.554619,0.299179,0.77645,0.01487,-0.090408,0.033151
1512,-0.554693,0.2992059999999999,0.776386,0.016485,-0.089062,0.031735
1513,-0.55476,0.299136,0.776366,0.013149,-0.092181,0.031373
1514,-0.554806,0.299172,0.776319,0.013623,-0.0922019999999999,0.031222
1515,-0.554855,0.299179,0.776281,0.0144039999999999,-0.090424,0.031931
1516,-0.554879,0.299148,0.7762760000000001,0.01394,-0.092574,0.034073
1517,-0.5548850000000001,0.299198,0.776252,0.0146629999999999,-0.093815,0.033379
1518,-0.554905,0.299268,0.776211,0.016712,-0.093885,0.033863
1519,-0.554918,0.299361,0.776165,0.0146039999999999,-0.092528,0.0354649999999999
1520,-0.554932,0.299434,0.776127,0.01587,-0.091808,0.031947
1521,-0.5549270000000001,0.29951,0.7761020000000001,0.015696,-0.091136,0.032141
1522,-0.554918,0.299569,0.776085,0.015627,-0.091806,0.034645
1523,-0.554922,0.299683,0.776039,0.014211,-0.0912169999999999,0.0347209999999999
1524,-0.554905,0.299752,0.776025,0.0137669999999999,-0.093224,0.0322029999999999
1525,-0.554887,0.299777,0.7760279999999999,0.015763,-0.093127,0.033512
1526,-0.554883,0.299867,0.775996,0.016401,-0.092759,0.034307
1527,-0.55491,0.299915,0.7759590000000001,0.017587,-0.092319,0.034207
1528,-0.554928,0.299915,0.775946,0.015133,-0.093097,0.034433
1529,-0.554938,0.29999,0.77591,0.014777,-0.0916309999999999,0.034072
1530,-0.5549810000000001,0.300059,0.775853,0.0163,-0.093348,0.035792
1531,-0.555005,0.300077,0.775828,0.0161259999999999,-0.0919929999999999,0.035695
1532,-0.555017,0.300115,0.775807,0.0151,-0.093084,0.033687
1533,-0.555017,0.300154,0.775792,0.016259,-0.094297,0.033733
1534,-0.5550189999999999,0.300209,0.7757689999999999,0.016933,-0.091011,0.034304
1535,-0.555006,0.300229,0.77577,0.015547,-0.093595,0.0346389999999999
1536,-0.5550229999999999,0.30032,0.7757229999999999,0.0155639999999999,-0.093686,0.034686
1537,-0.555014,0.300352,0.775718,0.015112,-0.092558,0.034966
1538,-0.555042,0.300411,0.775674,0.012791,-0.092449,0.0318209999999999
1539,-0.555091,0.3004699999999999,0.775617,0.013358,-0.0917149999999999,0.033343
1540,-0.555085,0.300565,0.775584,0.015031,-0.09271,0.035725
1541,-0.5551020000000001,0.300646,0.775541,0.018511,-0.091326,0.036974
1542,-0.555171,0.300708,0.775468,0.017985,-0.091586,0.037307
1543,-0.5552239999999999,0.300692,0.775436,0.019397,-0.093722,0.03006
1544,-0.5552819999999999,0.300637,0.775416,0.011429,-0.0957269999999999,0.032598
1545,-0.555358,0.300707,0.775334,0.011505,-0.095797,0.03268
1546,-0.5554100000000001,0.300712,0.775295,0.0138909999999999,-0.094566,0.036244
1547,-0.5554279999999999,0.300767,0.7752600000000001,0.017556,-0.095429,0.0357139999999999
1548,-0.555437,0.300855,0.77522,0.021196,-0.096189,0.033542
1549,-0.555441,0.3009989999999999,0.7751600000000001,0.017188,-0.094349,0.034364
1550,-0.555453,0.301154,0.775092,0.015826,-0.093665,0.036813
1551,-0.555474,0.30129,0.7750229999999999,0.016075,-0.0965169999999999,0.035691
1552,-0.555465,0.301466,0.774961,0.013321,-0.095106,0.032991
1553,-0.5554439999999999,0.301569,0.774937,0.018869,-0.092569,0.032833
1554,-0.555439,0.30172,0.774882,0.01746,-0.091377,0.034291
1555,-0.555461,0.301832,0.774822,0.015422,-0.092619,0.035313
1556,-0.555488,0.3019139999999999,0.774772,0.013496,-0.094486,0.034082
1557,-0.555495,0.302082,0.774702,0.015868,-0.095997,0.033816
1558,-0.555483,0.302238,0.774649,0.0151389999999999,-0.094078,0.034845
1559,-0.5554979999999999,0.302346,0.774596,0.014772,-0.093712,0.034394
1560,-0.555531,0.302498,0.774513,0.015004,-0.093788,0.034294
1561,-0.555556,0.3025989999999999,0.774455,0.013763,-0.094042,0.033726
1562,-0.55555,0.302671,0.774432,0.016503,-0.095198,0.033399
1563,-0.55556,0.3027809999999999,0.774382,0.013827,-0.09311,0.035264
1564,-0.555551,0.302796,0.774383,0.017877,-0.093644,0.034836
1565,-0.5555329999999999,0.3029199999999999,0.7743479999999999,0.0154939999999999,-0.096422,0.03507
1566,-0.5555140000000001,0.303012,0.774325,0.014208,-0.095279,0.035077
1567,-0.55553,0.303102,0.774279,0.017398,-0.094163,0.032774
1568,-0.55557,0.303219,0.774204,0.018277,-0.095318,0.031872
1569,-0.5555859999999999,0.3033099999999999,0.774157,0.012877,-0.094417,0.038679
1570,-0.555642,0.303461,0.774057,0.01159,-0.095377,0.035834
1571,-0.555729,0.303597,0.773941,0.014667,-0.093941,0.034515
1572,-0.555723,0.303736,0.773891,0.0140669999999999,-0.093699,0.034519
1573,-0.555719,0.303838,0.773854,0.016595,-0.096059,0.0350759999999999
1574,-0.555806,0.303952,0.7737470000000001,0.017887,-0.093457,0.037563
1575,-0.5558770000000001,0.303998,0.773678,0.014465,-0.092999,0.0329319999999999
1576,-0.555945,0.303969,0.773641,0.014075,-0.094145,0.034266
1577,-0.556012,0.304012,0.773576,0.014752,-0.09547,0.0360399999999999
1578,-0.5560470000000001,0.304062,0.773532,0.0135819999999999,-0.093841,0.036831
1579,-0.556048,0.30407,0.773528,0.014102,-0.096673,0.035386
1580,-0.555995,0.30407,0.773566,0.018046,-0.096108,0.033838
1581,-0.555902,0.304088,0.7736270000000001,0.017724,-0.093914,0.037241
1582,-0.555833,0.304085,0.7736770000000001,0.015855,-0.094047,0.034032
1583,-0.55579,0.304098,0.773703,0.016499,-0.093985,0.033441
1584,-0.555717,0.304115,0.773749,0.0143039999999999,-0.095757,0.033975
1585,-0.5556439999999999,0.304149,0.773788,0.0147199999999999,-0.095119,0.03447
1586,-0.555601,0.304165,0.773813,0.014646,-0.095791,0.03475
1587,-0.555549,0.304173,0.7738470000000001,0.016624,-0.094197,0.034839
1588,-0.555493,0.304164,0.773891,0.016873,-0.093394,0.033207
1589,-0.5554560000000001,0.304137,0.773929,0.0154169999999999,-0.095534,0.034513
1590,-0.555437,0.304157,0.773935,0.015566,-0.09473,0.035132
1591,-0.5554180000000001,0.304112,0.7739659999999999,0.017057,-0.097615,0.036016
1592,-0.555397,0.304063,0.774001,0.016671,-0.095537,0.036241
1593,-0.555401,0.304073,0.773994,0.016995,-0.097789,0.03463
1594,-0.55538,0.30408,0.774007,0.015753,-0.0968649999999999,0.035181
1595,-0.555345,0.304071,0.774036,0.014528,-0.095941,0.03709
1596,-0.555299,0.304122,0.774049,0.015031,-0.097884,0.035933
1597,-0.555241,0.304161,0.774075,0.013951,-0.095314,0.033054
1598,-0.555199,0.304152,0.774109,0.015313,-0.097487,0.035919
1599,-0.55515,0.304215,0.774119,0.0135389999999999,-0.097855,0.038335
1600,-0.555138,0.304315,0.774089,0.013954,-0.097498,0.037526
1601,-0.555189,0.3044179999999999,0.774012,0.012328,-0.098424,0.03626
1602,-0.5552279999999999,0.30457,0.773924,0.014182,-0.099309,0.034914
1603,-0.555204,0.304724,0.773881,0.015241,-0.095983,0.036468
1604,-0.5553,0.304798,0.773783,0.020388,-0.0937539999999999,0.0362759999999999
1605,-0.555525,0.3048909999999999,0.773584,0.0203689999999999,-0.09519,0.036337
1606,-0.555801,0.304852,0.773401,0.0180509999999999,-0.09547,0.034444
1607,-0.5560430000000001,0.304695,0.773289,0.017164,-0.092613,0.029949
1608,-0.5561590000000001,0.304556,0.7732600000000001,0.018882,-0.093237,0.032663
1609,-0.5562159999999999,0.30427,0.773332,0.021457,-0.098856,0.034225
1610,-0.5563060000000001,0.304055,0.773352,0.017259,-0.10177,0.037317
1611,-0.5563560000000001,0.303852,0.7733949999999999,0.0132039999999999,-0.1045109999999999,0.038144
1612,-0.5563140000000001,0.303723,0.773476,0.004266,-0.099255,0.038047
1613,-0.556174,0.303794,0.7735489999999999,0.005286,-0.097328,0.036129
1614,-0.556014,0.3038599999999999,0.773637,0.014602,-0.100872,0.034087
1615,-0.555882,0.304023,0.7736689999999999,0.0138889999999999,-0.091316,0.035657
1616,-0.55579,0.304317,0.773619,0.01566,-0.0924789999999999,0.0352339999999999
1617,-0.555776,0.304484,0.773564,0.019811,-0.089336,0.0328629999999999
1618,-0.555729,0.304535,0.7735770000000001,0.018864,-0.092956,0.033338
1619,-0.555722,0.304481,0.7736029999999999,0.019452,-0.096,0.036777
1620,-0.555796,0.304381,0.7735890000000001,0.017862,-0.09767,0.040605
1621,-0.555932,0.304214,0.773556,0.017938,-0.099837,0.038791
1622,-0.5561159999999999,0.30412,0.773462,0.016885,-0.101178,0.039603
1623,-0.556257,0.304094,0.77337,0.015974,-0.099519,0.036368
1624,-0.556393,0.304073,0.77328,0.014966,-0.097591,0.034627
1625,-0.556547,0.304192,0.773123,0.015134,-0.098488,0.036661
1626,-0.556707,0.304383,0.772932,0.014806,-0.099869,0.035601
1627,-0.55681,0.304554,0.77279,0.0112319999999999,-0.095722,0.037574
1628,-0.556778,0.304785,0.772721,0.00969,-0.093375,0.037872
1629,-0.556688,0.30495,0.772721,0.012575,-0.092776,0.031524
1630,-0.556709,0.304875,0.772736,0.028755,-0.097248,0.0281209999999999
1631,-0.556867,0.304813,0.772646,0.023892,-0.103596,0.037611
1632,-0.5570350000000001,0.30489,0.772494,0.014906,-0.104298,0.048962
1633,-0.55721,0.305089,0.772289,0.015768,-0.1072289999999999,0.045383
1634,-0.557184,0.305394,0.772188,0.023706,-0.096333,0.041029
1635,-0.557148,0.305838,0.772038,0.024495,-0.092734,0.044032
1636,-0.5573130000000001,0.306132,0.771803,0.0274209999999999,-0.087885,0.040422
1637,-0.557717,0.3062,0.7714850000000001,0.028695,-0.088122,0.027877
1638,-0.558264,0.306059,0.771146,0.023763,-0.087202,0.028491
1639,-0.5588890000000001,0.305775,0.7708050000000001,0.018315,-0.092259,0.031181
1640,-0.5595180000000001,0.305374,0.770508,0.003168,-0.095825,0.0355529999999999
1641,-0.560247,0.304929,0.770155,0.0012259999999999,-0.096479,0.033266
1642,-0.560875,0.304532,0.7698550000000001,-0.002342,-0.102079,0.031842
1643,-0.561282,0.304288,0.769655,-0.001767,-0.108075,0.033385
1644,-0.5614279999999999,0.304336,0.769529,-0.001621,-0.108123,0.03351
1645,-0.561316,0.304383,0.769592,0.01145,-0.103974,0.035629
1646,-0.5610229999999999,0.304542,0.769744,0.0202819999999999,-0.104621,0.039369
1647,-0.560693,0.304752,0.7699010000000001,0.023126,-0.101276,0.0417439999999999
1648,-0.56043,0.30501,0.769991,0.030218,-0.099169,0.042555
1649,-0.560228,0.3052809999999999,0.77003,0.0282459999999999,-0.097975,0.043233
1650,-0.560076,0.30557,0.770027,0.025774,-0.099195,0.0393149999999999
1651,-0.5599890000000001,0.305842,0.769981,0.023521,-0.097148,0.037224
1652,-0.559923,0.306107,0.769925,0.016603,-0.09729,0.036975
1653,-0.5599270000000001,0.306417,0.769799,0.019659,-0.096471,0.034873
1654,-0.559902,0.306633,0.769731,0.013469,-0.093331,0.033873
1655,-0.5598770000000001,0.3067,0.769722,0.013307,-0.095609,0.034935
1656,-0.559902,0.306734,0.769691,0.012478,-0.096895,0.0365529999999999
1657,-0.5599529999999999,0.306712,0.769662,0.010011,-0.097086,0.033545
1658,-0.559984,0.306654,0.769663,0.010149,-0.092878,0.03005
1659,-0.5599529999999999,0.30656,0.7697229999999999,0.010133,-0.093623,0.034141
1660,-0.559896,0.306315,0.7698619999999999,0.013585,-0.098231,0.035131
1661,-0.559901,0.3059699999999999,0.769995,0.017481,-0.1063549999999999,0.040262
1662,-0.55994,0.305746,0.770055,0.0149259999999999,-0.106222,0.045009
1663,-0.5599569999999999,0.305693,0.7700640000000001,0.013768,-0.106749,0.0439769999999999
1664,-0.559968,0.305736,0.770038,0.0164349999999999,-0.107753,0.04208
1665,-0.559946,0.305928,0.769977,0.0227449999999999,-0.103307,0.04118
1666,-0.559876,0.306165,0.769935,0.0294649999999999,-0.096234,0.038796
1667,-0.559887,0.3064679999999999,0.769806,0.030499,-0.092127,0.039444
1668,-0.5599729999999999,0.306639,0.769675,0.028952,-0.092421,0.032586
1669,-0.5601550000000001,0.306669,0.7695310000000001,0.024007,-0.0942669999999999,0.029587
1670,-0.560396,0.30663,0.769371,0.019274,-0.096486,0.030525
1671,-0.560575,0.3065449999999999,0.7692760000000001,0.006101,-0.098018,0.036358
1672,-0.560692,0.3064679999999999,0.769221,0.005958,-0.100093,0.032964
1673,-0.560712,0.306483,0.7692,0.0088019999999999,-0.101833,0.0314129999999999
1674,-0.560657,0.30651,0.76923,0.010135,-0.104652,0.032665
1675,-0.560528,0.306591,0.769291,0.016949,-0.099819,0.036418
1676,-0.560358,0.306744,0.769355,0.0193729999999999,-0.0985679999999999,0.038858
1677,-0.560163,0.306846,0.769456,0.019956,-0.101127,0.038772
1678,-0.559996,0.3069449999999999,0.769538,0.0178669999999999,-0.1061849999999999,0.045846
1679,-0.559863,0.307173,0.769544,0.0173669999999999,-0.105727,0.041308
1680,-0.559754,0.307456,0.769511,0.020875,-0.100165,0.037512
1681,-0.559616,0.307692,0.769516,0.0206,-0.099974,0.036041
1682,-0.559515,0.308014,0.769461,0.020498,-0.100296,0.0360959999999999
1683,-0.559361,0.308173,0.769509,0.0130199999999999,-0.095572,0.038001
1684,-0.559208,0.308194,0.769612,0.013493,-0.095059,0.0306959999999999
1685,-0.559082,0.308205,0.769699,0.0129699999999999,-0.096963,0.031876
1686,-0.558988,0.308208,0.769766,0.011197,-0.097347,0.0340209999999999
1687,-0.558851,0.308259,0.769845,0.008772,-0.0927289999999999,0.033026
1688,-0.558628,0.308214,0.770025,0.016743,-0.093584,0.038645
1689,-0.558462,0.307979,0.770239,0.018896,-0.1009019999999999,0.035211
1690,-0.5583560000000001,0.307701,0.770426,0.018546,-0.103691,0.038061
1691,-0.5583100000000001,0.307483,0.770547,0.0218259999999999,-0.103992,0.040107
1692,-0.55834,0.307334,0.770584,0.019735,-0.1060859999999999,0.044251
1693,-0.558305,0.30723,0.77065,0.019105,-0.109339,0.04568
1694,-0.558281,0.307186,0.7706850000000001,0.0165629999999999,-0.10844,0.036108
1695,-0.558282,0.3074409999999999,0.770583,0.0157409999999999,-0.105155,0.03351
1696,-0.558177,0.307775,0.770526,0.018382,-0.098897,0.036603
1697,-0.557844,0.308019,0.77067,0.021681,-0.096715,0.040029
1698,-0.557511,0.308146,0.770861,0.025711,-0.096965,0.043562
1699,-0.557462,0.308199,0.770875,0.025144,-0.090639,0.0407089999999999
1700,-0.557595,0.308078,0.770828,0.028268,-0.096743,0.03685
1701,-0.557863,0.307829,0.770733,0.02762,-0.098723,0.038028
1702,-0.5582239999999999,0.307537,0.770588,0.023296,-0.110638,0.045009
1703,-0.558826,0.307505,0.770165,0.026294,-0.112574,0.0442269999999999
1704,-0.5596,0.307672,0.769536,0.0199419999999999,-0.111078,0.04597
1705,-0.56023,0.307929,0.768975,0.004093,-0.111213,0.044975
1706,-0.5607439999999999,0.308342,0.7684340000000001,-0.020906,-0.097191,0.021498
1707,-0.56116,0.308843,0.7679279999999999,-0.020062,-0.093084,0.014222
1708,-0.56126,0.309249,0.7676930000000001,-0.001347,-0.088225,0.022743
1709,-0.5609609999999999,0.309706,0.767727,0.004534,-0.088896,0.030872
1710,-0.560349,0.3100449999999999,0.768037,0.014893,-0.089067,0.036269
1711,-0.559779,0.310063,0.768446,0.036799,-0.100117,0.0403
1712,-0.5592630000000001,0.309886,0.768892,0.04019,-0.1053109999999999,0.043455
1713,-0.5588609999999999,0.3096239999999999,0.7692899999999999,0.037392,-0.114418,0.044797
1714,-0.5585,0.309467,0.7696149999999999,0.028379,-0.110035,0.051308
1715,-0.5582560000000001,0.309515,0.769772,0.02426,-0.1114869999999999,0.049457
1716,-0.558077,0.309655,0.769846,0.020815,-0.1091849999999999,0.046347
1717,-0.5579350000000001,0.309822,0.769882,0.023526,-0.1015549999999999,0.0420839999999999
1718,-0.557786,0.310082,0.769885,0.025269,-0.099892,0.041943
1719,-0.557668,0.310298,0.769884,0.0290579999999999,-0.096996,0.040923
1720,-0.5577489999999999,0.310457,0.7697609999999999,0.0226689999999999,-0.095888,0.039291
1721,-0.558024,0.310484,0.76955,0.025004,-0.094771,0.039852
1722,-0.558489,0.3103889999999999,0.769252,0.034654,-0.105265,0.039022
1723,-0.55933,0.310101,0.768757,0.028935,-0.111508,0.096096
1724,-0.562083,0.309098,0.767151,0.043055,-0.074021,0.13681
1725,-0.564704,0.305534,0.766654,-0.023156,-0.100838,-0.156592
1726,-0.560299,0.305551,0.769872,-0.066441,-0.133752,0.126353
1727,-0.5599350000000001,0.310475,0.768166,0.000395,-0.1037329999999999,0.204247
1728,-0.563327,0.312413,0.764893,0.04967,-0.067936,0.151596
1729,-0.562042,0.311051,0.7663909999999999,0.080978,-0.107056,-0.005649
1730,-0.559052,0.310084,0.768965,0.020279,-0.077204,0.043962
