,gravity.x,gravity.y,gravity.z,userAcceleration.x,userAcceleration.y,userAcceleration.z
0,-0.721147,0.33127,0.6084470000000001,0.0032359999999999,-0.006502,0.001889
1,-0.7211310000000001,0.331438,0.608374,0.0066989999999999,-0.005388,0.003198
2,-0.721133,0.331527,0.608323,0.011249,-0.003478,0.004943
3,-0.721151,0.331569,0.608278,0.011129,-0.003154,0.0055369999999999
4,-0.721164,0.3315329999999999,0.608282,0.00838,-0.005422,0.0033049999999999
5,-0.721156,0.331496,0.6083109999999999,0.007167,-0.006178,0.0031079999999999
6,-0.721204,0.331499,0.6082529999999999,0.008085,-0.008593,0.003319
7,-0.721221,0.331513,0.608225,0.007842,-0.007996,0.002752
8,-0.721212,0.33152,0.608232,0.006612,-0.0100019999999999,0.005064
9,-0.721236,0.3315869999999999,0.608167,0.006347,-0.00894,0.004565
10,-0.721271,0.331662,0.608085,0.006885,-0.0081,0.002694
11,-0.721275,0.331739,0.608038,0.007576,-0.008786,0.001535
12,-0.7212729999999999,0.331841,0.607985,0.008367,-0.008003,0.003267
13,-0.721208,0.331844,0.60806,0.0085,-0.0079,0.0013
14,-0.721122,0.331863,0.608152,0.006705,-0.0051119999999999,0.0034659999999999
15,-0.721054,0.331804,0.608264,0.005234,-0.000185,0.004697
16,-0.721025,0.331689,0.608362,0.00551,-0.004449,0.002844
17,-0.721063,0.331567,0.608383,0.00512,-0.0105989999999999,0.0006259999999999
18,-0.721061,0.331496,0.608425,0.001273,-0.01187,0.001835
19,-0.721014,0.331515,0.608471,0.01087,-0.007601,0.003559
20,-0.7209770000000001,0.331494,0.608526,0.011763,-0.0100069999999999,0.003793
21,-0.7209260000000001,0.33142,0.608627,0.012201,-0.008117,0.004913
22,-0.720882,0.33125,0.60877,0.005291,-0.005399,0.006815
23,-0.720905,0.3311679999999999,0.608788,0.006199,-0.005423,0.003852
24,-0.7209770000000001,0.331138,0.6087199999999999,0.007735,-0.007682,0.002089
25,-0.7210300000000001,0.331078,0.60869,0.007941,-0.006356,0.003752
26,-0.721089,0.330992,0.608666,0.008687,-0.00868,0.005241
27,-0.721121,0.330902,0.6086779999999999,0.0085659999999999,-0.007675,0.002269
28,-0.721117,0.3307719999999999,0.6087520000000001,0.006487,-0.007851,0.0017059999999999
29,-0.721116,0.330671,0.608807,0.0067,-0.00987,0.00336
30,-0.7210979999999999,0.330635,0.608848,0.007384,-0.011238,0.003151
31,-0.721059,0.330623,0.608902,0.0064129999999999,-0.010707,0.004349
32,-0.721039,0.330665,0.608901,0.007111,-0.008934,0.004456
33,-0.721017,0.330761,0.608875,0.005654,-0.008572,0.003552
34,-0.720996,0.33074,0.608911,0.009464,-0.005758,0.0044469999999999
35,-0.720952,0.330687,0.608992,0.009267,-0.005385,0.005113
36,-0.720915,0.330608,0.609078,0.006422,-0.009487,0.002769
37,-0.720897,0.33058,0.609114,0.009441,-0.007826,0.005052
38,-0.720885,0.330573,0.6091310000000001,0.012008,-0.010596,0.003875
39,-0.720861,0.330579,0.609156,0.00762,-0.012433,0.005452
40,-0.720903,0.330625,0.609082,0.007829,-0.009687,0.008594
41,-0.720985,0.3307739999999999,0.608904,0.0064769999999999,-0.010554,0.00395
42,-0.721051,0.330941,0.608734,0.00868,-0.009988,0.002304
43,-0.721089,0.331028,0.608642,0.0090829999999999,-0.006657,0.0064239999999999
44,-0.721087,0.3310389999999999,0.608639,0.005664,-0.00914,0.003971
45,-0.721102,0.331095,0.608591,0.0058,-0.008676,0.002493
46,-0.72109,0.3311469999999999,0.608577,0.002492,-0.00258,0.0055119999999999
47,-0.721076,0.331184,0.6085729999999999,0.006263,-0.0096969999999999,0.003243
48,-0.721102,0.331214,0.608527,0.006716,-0.011893,0.003992
49,-0.721104,0.331264,0.608498,0.003895,-0.012142,0.005455
50,-0.72109,0.331341,0.608472,0.011633,-0.009609,0.0062439999999999
51,-0.721076,0.331424,0.6084430000000001,0.012107,-0.007541,0.005097
52,-0.721055,0.331434,0.608463,0.009843,-0.008558,0.011853
53,-0.721065,0.331406,0.608467,0.007564,-0.005936,0.00866
54,-0.721137,0.331429,0.6083689999999999,0.007681,-0.007744,0.004974
55,-0.721168,0.331428,0.608332,0.0100629999999999,-0.008674,0.00411
56,-0.721156,0.331357,0.6083850000000001,0.009639,-0.009351,0.0068489999999999
57,-0.72116,0.331325,0.608399,0.006926,-0.0114849999999999,0.007553
58,-0.72115,0.331283,0.608433,0.008092,-0.011276,0.004024
59,-0.721192,0.331327,0.60836,0.007279,-0.0112129999999999,0.004998
60,-0.721222,0.331424,0.608271,0.008057,-0.011935,0.004476
61,-0.721246,0.3315059999999999,0.6081979999999999,0.007898,-0.00953,0.00458
62,-0.721294,0.33164,0.608069,0.008281,-0.0098319999999999,0.005319
63,-0.721324,0.33175,0.607974,0.0081739999999999,-0.00921,0.005094
64,-0.721312,0.331834,0.607942,0.007231,-0.008485,0.00273
65,-0.7212930000000001,0.331906,0.607925,0.008159,-0.010815,0.004181
66,-0.721259,0.3319539999999999,0.607939,0.008734,-0.008758,0.0066549999999999
67,-0.721201,0.331943,0.608013,0.007594,-0.011341,0.005757
68,-0.721167,0.331958,0.608046,0.009466,-0.0097989999999999,0.006502
69,-0.7211489999999999,0.331976,0.608056,0.009815,-0.0109769999999999,0.006552
70,-0.7210949999999999,0.331961,0.608129,0.008952,-0.010244,0.007029
71,-0.721055,0.331978,0.608167,0.009034,-0.011162,0.007678
72,-0.72104,0.332027,0.608158,0.008958,-0.010494,0.007503
73,-0.7210449999999999,0.332101,0.608112,0.011054,-0.0111019999999999,0.008267
74,-0.721056,0.332202,0.6080439999999999,0.011095,-0.010578,0.006977
75,-0.721082,0.332258,0.6079829999999999,0.009061,-0.012556,0.004719
76,-0.721076,0.332327,0.607952,0.006293,-0.009467,0.006183
77,-0.721069,0.332377,0.607935,0.004592,-0.006617,0.00878
78,-0.721123,0.332412,0.60785,0.004967,-0.006652,0.008513
79,-0.721232,0.332448,0.6077020000000001,0.008814,-0.012059,0.001276
80,-0.7212810000000001,0.332475,0.607629,0.010176,-0.0128639999999999,0.003638
81,-0.72127,0.332521,0.607617,0.011461,-0.011201,0.007174
82,-0.721234,0.332549,0.607645,0.008297,-0.012527,0.005606
83,-0.721229,0.332577,0.607635,0.0103069999999999,-0.010205,0.0082709999999999
84,-0.721249,0.332607,0.607596,0.009243,-0.0085709999999999,0.006784
85,-0.721276,0.332613,0.60756,0.004357,-0.010195,0.008544
86,-0.721326,0.332611,0.6075020000000001,0.005994,-0.009598,0.006848
87,-0.7213510000000001,0.3326389999999999,0.607457,0.010719,-0.011579,0.0088
88,-0.721359,0.332649,0.607442,0.009719,-0.012214,0.0057469999999999
89,-0.721342,0.33265,0.6074609999999999,0.009214,-0.011224,0.007147
90,-0.721338,0.332703,0.607437,0.007273,-0.0118409999999999,0.005752
91,-0.721326,0.332761,0.607418,0.008985,-0.009717,0.0077849999999999
92,-0.721329,0.332851,0.607367,0.0086819999999999,-0.010921,0.008463
93,-0.721354,0.332965,0.607274,0.010462,-0.011233,0.0067709999999999
94,-0.721344,0.333022,0.607254,0.008407,-0.01036,0.006973
95,-0.721301,0.33302,0.607306,0.008212,-0.010556,0.008508
96,-0.72128,0.3330579999999999,0.607309,0.006986,-0.011434,0.008596
97,-0.72127,0.33311,0.6072930000000001,0.008318,-0.012706,0.006919
98,-0.7212609999999999,0.333157,0.607279,0.0085379999999999,-0.012768,0.006735
99,-0.721259,0.333211,0.607251,0.0094819999999999,-0.0113569999999999,0.0069299999999999
100,-0.721252,0.3332219999999999,0.607254,0.007186,-0.012406,0.008133
101,-0.72123,0.333221,0.60728,0.006966,-0.011245,0.007908
102,-0.721208,0.333303,0.607262,0.005189,-0.01032,0.0070409999999999
103,-0.7211890000000001,0.333356,0.607255,0.009168,-0.011594,0.008971
104,-0.721192,0.333464,0.607193,0.009278,-0.012709,0.007905
105,-0.7212270000000001,0.333559,0.6070979999999999,0.008641,-0.008089,0.008563
106,-0.7212529999999999,0.333592,0.607049,0.008698,-0.014149,0.006293
107,-0.721255,0.333658,0.607011,0.00957,-0.011133,0.006469
108,-0.721237,0.333685,0.607017,0.006622,-0.008123,0.010048
109,-0.721252,0.333657,0.607016,0.006591,-0.0116049999999999,0.0078219999999999
110,-0.721314,0.3336429999999999,0.606949,0.00882,-0.01449,0.004867
111,-0.721374,0.333669,0.606863,0.010162,-0.015462,0.008539
112,-0.7214109999999999,0.333736,0.6067819999999999,0.013159,-0.012813,0.007018
113,-0.7214430000000001,0.333802,0.606708,0.014549,-0.012559,0.008511
114,-0.72149,0.333821,0.606641,0.01159,-0.012166,0.010074
115,-0.721512,0.333802,0.606625,0.009476,-0.011201,0.008518
116,-0.721545,0.333822,0.606576,0.005999,-0.0137539999999999,0.007941
117,-0.721597,0.333881,0.606482,0.00802,-0.012439,0.006143
118,-0.721635,0.333965,0.606391,0.009019,-0.010967,0.0076989999999999
119,-0.7216560000000001,0.3340349999999999,0.606328,0.008612,-0.013219,0.0085709999999999
120,-0.721668,0.334082,0.606286,0.008259,-0.013175,0.006629
121,-0.721685,0.33415,0.60623,0.00852,-0.014707,0.005281
122,-0.721683,0.33426,0.606171,0.00806,-0.015305,0.00978
123,-0.7216560000000001,0.334385,0.6061340000000001,0.008994,-0.013935,0.008581
124,-0.7216279999999999,0.334512,0.606097,0.00799,-0.013055,0.008451
125,-0.721617,0.334659,0.606029,0.008619,-0.0122099999999999,0.009419
126,-0.721587,0.334826,0.605973,0.0068959999999999,-0.0099049999999999,0.0073849999999999
127,-0.721535,0.334966,0.605957,0.011651,-0.010976,0.0077519999999999
128,-0.721433,0.335052,0.606032,0.00903,-0.0098409999999999,0.009889
129,-0.721352,0.335153,0.606072,0.008706,-0.012246,0.010765
130,-0.7213109999999999,0.335291,0.6060439999999999,0.006559,-0.0129639999999999,0.007847
131,-0.721291,0.335445,0.6059829999999999,0.0094069999999999,-0.012996,0.008336
132,-0.721283,0.3356139999999999,0.605899,0.01059,-0.013058,0.007718
133,-0.721236,0.3357449999999999,0.6058819999999999,0.010283,-0.0129449999999999,0.009444
134,-0.721197,0.335862,0.6058640000000001,0.012136,-0.014908,0.010484
135,-0.72118,0.336011,0.605801,0.0128669999999999,-0.011136,0.011722
136,-0.72115,0.336119,0.605777,0.0118909999999999,-0.011977,0.010602
137,-0.721119,0.336159,0.6057899999999999,0.008549,-0.016137,0.0111069999999999
138,-0.721101,0.336288,0.60574,0.007097,-0.014144,0.008823
139,-0.721092,0.33643,0.6056729999999999,0.004952,-0.00945,0.010477
140,-0.721122,0.336576,0.6055560000000001,0.003913,-0.014112,0.008061
141,-0.721225,0.336751,0.605336,0.008868,-0.015172,0.001902
142,-0.721271,0.336933,0.605179,0.011204,-0.015385,0.006378
143,-0.721221,0.337092,0.605151,0.014449,-0.0160009999999999,0.008313
144,-0.72115,0.337229,0.605159,0.015827,-0.0154669999999999,0.0089
145,-0.721078,0.337257,0.605229,0.008187,-0.010368,0.010326
146,-0.721047,0.3373489999999999,0.605214,0.0063409999999999,-0.009239,0.009654
147,-0.721067,0.33745,0.6051340000000001,0.005003,-0.0123769999999999,0.008803
148,-0.721071,0.33752,0.6050909999999999,0.009355,-0.0129039999999999,0.007229
149,-0.721042,0.337615,0.605071,0.012882,-0.012832,0.012574
150,-0.72101,0.337669,0.6050800000000001,0.009248,-0.01432,0.007591
151,-0.721,0.337729,0.605058,0.008353,-0.0154939999999999,0.009062
152,-0.720992,0.337839,0.605005,0.0102989999999999,-0.016016,0.009146
153,-0.720954,0.337957,0.604985,0.009772,-0.013616,0.009563
154,-0.720938,0.338101,0.6049220000000001,0.008856,-0.011502,0.011014
155,-0.7209260000000001,0.3382239999999999,0.604867,0.009073,-0.0116099999999999,0.009314
156,-0.720907,0.33834,0.604824,0.010077,-0.0131449999999999,0.009372
157,-0.720893,0.338455,0.6047779999999999,0.010627,-0.014542,0.009557
158,-0.7208859999999999,0.338581,0.604716,0.00769,-0.0131569999999999,0.009268
159,-0.720882,0.338681,0.6046630000000001,0.009014,-0.0153169999999999,0.011136
160,-0.720869,0.338801,0.604613,0.006696,-0.013438,0.009142
161,-0.720879,0.338931,0.604527,0.008309,-0.0125,0.008998
162,-0.720908,0.339064,0.6044189999999999,0.00994,-0.013578,0.006711
163,-0.72091,0.339154,0.6043649999999999,0.010369,-0.0100069999999999,0.011373
164,-0.720895,0.339279,0.604312,0.011469,-0.011932,0.010221
165,-0.72088,0.339333,0.6043,0.0139699999999999,-0.014596,0.0095909999999999
166,-0.720828,0.339364,0.604345,0.00748,-0.0140159999999999,0.010447
167,-0.720802,0.339442,0.604332,0.006004,-0.007838,0.0110239999999999
168,-0.720858,0.339548,0.604206,0.007815,-0.007059,0.011898
169,-0.72091,0.339609,0.604109,0.012139,-0.016245,0.0070819999999999
170,-0.7209270000000001,0.339652,0.604066,0.013682,-0.01493,0.007781
171,-0.720903,0.339647,0.604097,0.016832,-0.014452,0.009474
172,-0.720857,0.339581,0.6041890000000001,0.0128639999999999,-0.009319,0.010069
173,-0.7208640000000001,0.339429,0.604266,0.008339,-0.008359,0.012525
174,-0.7209409999999999,0.33923,0.604284,0.005869,-0.011227,0.010767
175,-0.721032,0.3390559999999999,0.604274,0.010781,-0.015158,0.006489
176,-0.7210529999999999,0.338846,0.604366,0.014068,-0.019831,0.008305
177,-0.7210409999999999,0.338658,0.604486,0.014055,-0.019643,0.008184
178,-0.7210300000000001,0.338518,0.604577,0.00521,-0.014269,0.0134949999999999
179,-0.721094,0.338493,0.604514,0.0046479999999999,-0.016106,0.004998
180,-0.721167,0.338602,0.604367,0.010931,-0.0158479999999999,0.006992
181,-0.721191,0.338734,0.604264,0.011032,-0.015874,0.011443
182,-0.721188,0.338832,0.604214,0.009228,-0.014811,0.005649
183,-0.721132,0.338917,0.604233,0.009432,-0.013981,0.004776
184,-0.7209479999999999,0.338945,0.604436,0.007997,-0.011019,0.005183
185,-0.720703,0.338924,0.604741,0.006881,-0.009547,0.0095319999999999
186,-0.72053,0.338938,0.604939,0.009196,-0.010935,0.009426
187,-0.720429,0.338907,0.6050770000000001,0.008058,-0.013483,0.0105239999999999
188,-0.720283,0.338818,0.605302,0.013068,-0.015362,0.0073989999999999
189,-0.720101,0.3387199999999999,0.6055729999999999,0.0139699999999999,-0.013418,0.010973
190,-0.719959,0.3386,0.605808,0.009998,-0.017509,0.009594
191,-0.7199270000000001,0.338565,0.605865,0.0096,-0.015216,0.009705
192,-0.719909,0.338545,0.6058979999999999,0.013625,-0.011839,0.012236
193,-0.719851,0.338497,0.6059939999999999,0.0159629999999999,-0.015377,0.012689
194,-0.719882,0.338422,0.605999,0.011614,-0.0161259999999999,0.0150789999999999
195,-0.7199409999999999,0.338333,0.605979,0.010193,-0.0128479999999999,0.011071
196,-0.720002,0.338221,0.60597,0.007294,-0.010325,0.012347
197,-0.720104,0.338111,0.605909,0.012142,-0.016288,0.004671
198,-0.720208,0.338032,0.605831,0.0108569999999999,-0.0171699999999999,0.004994
199,-0.720255,0.337982,0.6058020000000001,0.00947,-0.01538,0.009432
200,-0.720295,0.33799,0.60575,0.009784,-0.014152,0.0075159999999999
201,-0.720349,0.338017,0.605671,0.009839,-0.0134479999999999,0.008419
202,-0.720417,0.338047,0.605574,0.007328,-0.010304,0.007219
203,-0.72048,0.338014,0.605518,0.008429,-0.010468,0.009472
204,-0.720529,0.337904,0.60552,0.009714,-0.0122659999999999,0.007486
205,-0.720549,0.337735,0.60559,0.010604,-0.0155909999999999,0.0075689999999999
206,-0.7205020000000001,0.337552,0.605749,0.012204,-0.015546,0.011301
207,-0.720418,0.337365,0.605952,0.008672,-0.016701,0.010289
208,-0.720374,0.337241,0.606074,0.00936,-0.01551,0.01238
209,-0.720392,0.3371719999999999,0.6060909999999999,0.0102329999999999,-0.01393,0.0105469999999999
210,-0.720424,0.337152,0.606064,0.0076409999999999,-0.0142759999999999,0.012802
211,-0.7204510000000001,0.337133,0.606042,0.010185,-0.014746,0.008704
212,-0.7204470000000001,0.3371159999999999,0.606057,0.01218,-0.012287,0.008475
213,-0.720428,0.337101,0.606087,0.011535,-0.014058,0.010368
214,-0.720436,0.337111,0.606072,0.008522,-0.014937,0.010947
215,-0.720454,0.337142,0.606035,0.009455,-0.012999,0.009153
216,-0.7205010000000001,0.337223,0.605934,0.0090599999999999,-0.012958,0.0085069999999999
217,-0.720514,0.337229,0.605915,0.011118,-0.012477,0.008954
218,-0.720493,0.337178,0.605969,0.010288,-0.0112959999999999,0.010578
219,-0.7204689999999999,0.337133,0.606023,0.009974,-0.012609,0.0089819999999999
220,-0.7204470000000001,0.337044,0.6060989999999999,0.010608,-0.012703,0.010112
221,-0.7204189999999999,0.336923,0.6062,0.011603,-0.014154,0.010134
222,-0.720436,0.336794,0.606252,0.01165,-0.01671,0.010188
223,-0.7204,0.336708,0.606341,0.008486,-0.016838,0.008985
224,-0.72035,0.336675,0.6064189999999999,0.0068489999999999,-0.009602,0.011424
225,-0.720356,0.3366889999999999,0.6064039999999999,0.007877,-0.010533,0.012005
226,-0.720383,0.336701,0.606364,0.006592,-0.016145,0.006291
227,-0.720394,0.3367469999999999,0.6063270000000001,0.0116379999999999,-0.015885,0.012341
228,-0.720385,0.336835,0.6062890000000001,0.015459,-0.015287,0.011753
229,-0.7203470000000001,0.336882,0.6063069999999999,0.015101,-0.014586,0.010789
230,-0.720328,0.336847,0.606349,0.010306,-0.010431,0.015127
231,-0.7203689999999999,0.336827,0.6063109999999999,0.010225,-0.010289,0.012952
232,-0.720414,0.336744,0.606304,0.010758,-0.014433,0.008152
233,-0.7205050000000001,0.336679,0.606232,0.010117,-0.014474,0.008011
234,-0.720565,0.336613,0.606196,0.010665,-0.01566,0.008366
235,-0.7205520000000001,0.336511,0.60627,0.011202,-0.0146419999999999,0.009621
236,-0.720544,0.33642,0.60633,0.007608,-0.0124,0.009835
237,-0.7205600000000001,0.336386,0.60633,0.006586,-0.015066,0.010293
238,-0.7205739999999999,0.336346,0.6063350000000001,0.008462,-0.013119,0.0100439999999999
239,-0.720591,0.336356,0.606309,0.0090739999999999,-0.0136479999999999,0.011413
240,-0.720568,0.336311,0.6063609999999999,0.011904,-0.013862,0.0091939999999999
241,-0.7205229999999999,0.336254,0.606446,0.007388,-0.013394,0.011565
242,-0.7205020000000001,0.336246,0.606477,0.011349,-0.012928,0.010055
243,-0.720507,0.33626,0.606463,0.010378,-0.013003,0.009916
244,-0.720467,0.336255,0.606513,0.012627,-0.014966,0.012186
245,-0.720437,0.336271,0.606539,0.0111939999999999,-0.013456,0.014234
246,-0.720418,0.336315,0.606538,0.010152,-0.0149039999999999,0.012709
247,-0.720416,0.336338,0.606528,0.011249,-0.014057,0.011469
248,-0.720438,0.33643,0.60645,0.010736,-0.011845,0.010646
249,-0.7204520000000001,0.336489,0.606401,0.013543,-0.012392,0.011168
250,-0.720444,0.33648,0.6064149999999999,0.0121459999999999,-0.014627,0.011017
251,-0.720448,0.336468,0.606416,0.009755,-0.01231,0.011687
252,-0.720454,0.336445,0.606422,0.011744,-0.01244,0.009621
253,-0.7204470000000001,0.336389,0.606462,0.01099,-0.014718,0.009078
254,-0.7204050000000001,0.336337,0.60654,0.0079569999999999,-0.015338,0.0087099999999999
255,-0.720364,0.33629,0.606614,0.005856,-0.009523,0.013015
256,-0.720377,0.336284,0.6066020000000001,0.00886,-0.013102,0.009563
257,-0.720453,0.336268,0.606521,0.009043,-0.013727,0.007401
258,-0.720496,0.336266,0.606472,0.012915,-0.016228,0.012562
259,-0.720485,0.3362469999999999,0.606495,0.0145669999999999,-0.0170939999999999,0.011531
260,-0.720459,0.336235,0.606532,0.014694,-0.015907,0.011174
261,-0.72045,0.336214,0.606553,0.013083,-0.012941,0.014434
262,-0.72044,0.33621,0.606568,0.009457,-0.01222,0.012497
263,-0.720477,0.336186,0.606537,0.0094939999999999,-0.012272,0.010544
264,-0.7205520000000001,0.33621,0.6064350000000001,0.011857,-0.014921,0.010051
265,-0.720593,0.3361909999999999,0.6063970000000001,0.014325,-0.015436,0.007815
266,-0.720572,0.336126,0.6064579999999999,0.009818,-0.015706,0.010623
267,-0.720567,0.33607,0.606494,0.008989,-0.014186,0.013028
268,-0.720564,0.336021,0.606525,0.00894,-0.015434,0.008419
269,-0.720538,0.33602,0.6065560000000001,0.010669,-0.014624,0.008449
270,-0.720527,0.336063,0.606545,0.010383,-0.014591,0.010047
271,-0.720517,0.336091,0.606542,0.011517,-0.013902,0.010416
272,-0.7205,0.3360829999999999,0.606568,0.011027,-0.0132979999999999,0.009887
273,-0.72049,0.33608,0.606581,0.009949,-0.0138139999999999,0.010515
274,-0.7204520000000001,0.336069,0.606632,0.0128259999999999,-0.014749,0.011746
275,-0.720418,0.3360309999999999,0.606692,0.010366,-0.012927,0.013318
276,-0.720432,0.336007,0.606689,0.009205,-0.0123069999999999,0.011796
277,-0.720424,0.335977,0.606716,0.011226,-0.016015,0.012211
278,-0.72042,0.335906,0.606759,0.01168,-0.017105,0.010795
279,-0.720432,0.335878,0.606761,0.009647,-0.014162,0.010519
280,-0.7204510000000001,0.335867,0.606744,0.011025,-0.01583,0.012442
281,-0.720481,0.33589,0.606696,0.0099709999999999,-0.014402,0.011834
282,-0.720504,0.335901,0.606662,0.010772,-0.014169,0.010846
283,-0.720511,0.335878,0.606668,0.011648,-0.013124,0.0099239999999999
284,-0.720507,0.335875,0.6066739999999999,0.012941,-0.014754,0.010849
285,-0.720513,0.335839,0.606686,0.01342,-0.015252,0.008853
286,-0.7204659999999999,0.335794,0.6067670000000001,0.009315,-0.0142,0.009917
287,-0.720421,0.3357719999999999,0.6068319999999999,0.006249,-0.010256,0.014125
288,-0.7204430000000001,0.335773,0.606804,0.0064849999999999,-0.008366,0.01577
289,-0.72051,0.335784,0.606719,0.0089769999999999,-0.016876,0.00998
290,-0.720568,0.335806,0.606638,0.01436,-0.017615,0.009573
291,-0.720576,0.335844,0.606607,0.014353,-0.015455,0.012274
292,-0.72053,0.33582,0.6066739999999999,0.013728,-0.0155539999999999,0.012055
293,-0.7205020000000001,0.3357739999999999,0.606733,0.0120209999999999,-0.012165,0.012881
294,-0.7205159999999999,0.335748,0.606731,0.009288,-0.013696,0.013005
295,-0.720551,0.335688,0.6067229999999999,0.008621,-0.013056,0.010083
296,-0.720595,0.335644,0.606694,0.010573,-0.016247,0.010463
297,-0.720625,0.3356369999999999,0.606662,0.012068,-0.016346,0.007428
298,-0.720617,0.335592,0.606697,0.011266,-0.016501,0.0105209999999999
299,-0.720596,0.3355849999999999,0.606725,0.011535,-0.0162639999999999,0.010661
300,-0.720597,0.335608,0.606709,0.008515,-0.0134949999999999,0.0095319999999999
301,-0.7205779999999999,0.335608,0.606733,0.009839,-0.013602,0.009997
302,-0.720547,0.33565,0.606747,0.009899,-0.013811,0.0104409999999999
303,-0.720513,0.335698,0.6067600000000001,0.012352,-0.013875,0.010946
304,-0.720503,0.335729,0.606755,0.011992,-0.014836,0.01002
305,-0.720481,0.3357219999999999,0.606785,0.0116189999999999,-0.012739,0.011746
306,-0.720468,0.33571,0.606807,0.011056,-0.014543,0.010701
307,-0.720429,0.335665,0.606877,0.00937,-0.015765,0.011775
308,-0.720409,0.335598,0.606939,0.011592,-0.013562,0.012659
309,-0.720398,0.335566,0.60697,0.011948,-0.0148259999999999,0.01188
310,-0.720406,0.335537,0.606977,0.009712,-0.014415,0.010531
311,-0.720398,0.335525,0.606993,0.011718,-0.014618,0.012315
312,-0.720388,0.335511,0.607012,0.009512,-0.013032,0.011304
313,-0.720395,0.3355059999999999,0.607008,0.008023,-0.014949,0.010164
314,-0.7204050000000001,0.335507,0.606995,0.009712,-0.013318,0.01181
315,-0.7204149999999999,0.3355059999999999,0.606984,0.011568,-0.014659,0.012126
316,-0.7204050000000001,0.335508,0.6069939999999999,0.010276,-0.013258,0.010529
317,-0.7204010000000001,0.335487,0.607011,0.011737,-0.012473,0.0107409999999999
318,-0.720386,0.335502,0.60702,0.009982,-0.012153,0.010564
319,-0.7203970000000001,0.335508,0.607004,0.011397,-0.013944,0.0120299999999999
320,-0.7203609999999999,0.335486,0.607058,0.011606,-0.013693,0.009351
321,-0.720337,0.335464,0.6070979999999999,0.010804,-0.012619,0.012134
322,-0.72031,0.335412,0.607159,0.007373,-0.009607,0.012516
323,-0.720338,0.335405,0.607129,0.006898,-0.011568,0.01012
324,-0.7204050000000001,0.335423,0.607039,0.0102,-0.017384,0.010789
325,-0.720425,0.335471,0.6069899999999999,0.015423,-0.017875,0.010549
326,-0.720383,0.335548,0.606997,0.014283,-0.016822,0.012144
327,-0.720329,0.335608,0.607028,0.012688,-0.014075,0.012494
328,-0.720302,0.335671,0.6070260000000001,0.010753,-0.012642,0.013412
329,-0.720329,0.33574,0.606955,0.0108569999999999,-0.011887,0.013132
330,-0.720407,0.335816,0.60682,0.010843,-0.0135509999999999,0.010291
331,-0.72048,0.335851,0.606715,0.012304,-0.015035,0.011022
332,-0.720482,0.335887,0.606692,0.011345,-0.015162,0.010923
333,-0.720442,0.335908,0.6067279999999999,0.010573,-0.012742,0.011497
334,-0.7204119999999999,0.335942,0.606746,0.008757,-0.015568,0.010365
335,-0.720409,0.3360059999999999,0.6067130000000001,0.008907,-0.015816,0.010139
336,-0.7204149999999999,0.336084,0.6066630000000001,0.009492,-0.0137729999999999,0.010448
337,-0.7203970000000001,0.3361409999999999,0.606653,0.0136099999999999,-0.013402,0.012793
338,-0.7203729999999999,0.336211,0.606642,0.011206,-0.013243,0.011796
339,-0.7203350000000001,0.33626,0.6066600000000001,0.010954,-0.012957,0.010131
340,-0.7203,0.336281,0.606691,0.009912,-0.015922,0.011412
341,-0.720271,0.336358,0.6066819999999999,0.011912,-0.014184,0.012489
342,-0.720248,0.336479,0.606642,0.010318,-0.014411,0.009477
343,-0.7202310000000001,0.336581,0.606607,0.012589,-0.013324,0.011039
344,-0.720237,0.336674,0.6065470000000001,0.013099,-0.014546,0.0109909999999999
345,-0.720248,0.336791,0.6064689999999999,0.011126,-0.01335,0.010535
346,-0.7202270000000001,0.336836,0.6064689999999999,0.010648,-0.013288,0.0110239999999999
347,-0.7202189999999999,0.336919,0.606432,0.0092819999999999,-0.012731,0.011122
348,-0.720224,0.336985,0.6063890000000001,0.009683,-0.014719,0.011454
349,-0.7202390000000001,0.337078,0.60632,0.012735,-0.01556,0.011737
350,-0.720254,0.33716,0.6062569999999999,0.011758,-0.013307,0.01
351,-0.7202609999999999,0.337213,0.60622,0.011017,-0.013284,0.010312
352,-0.720247,0.337286,0.606197,0.010805,-0.015188,0.009739
353,-0.720216,0.337356,0.6061949999999999,0.0102849999999999,-0.013779,0.011145
354,-0.720198,0.337394,0.606196,0.0130289999999999,-0.01525,0.010381
355,-0.720163,0.337425,0.606219,0.009134,-0.015327,0.012555
356,-0.720128,0.337494,0.606223,0.00919,-0.012466,0.012139
357,-0.720122,0.337572,0.606187,0.007415,-0.0079519999999999,0.0130759999999999
358,-0.720156,0.337667,0.6060939999999999,0.009691,-0.0152639999999999,0.009522
359,-0.720204,0.3377489999999999,0.605991,0.011953,-0.018275,0.008695
360,-0.72018,0.337864,0.605954,0.014385,-0.015965,0.013324
361,-0.72012,0.337969,0.6059680000000001,0.015561,-0.0171979999999999,0.010914
362,-0.720072,0.338088,0.605959,0.014902,-0.013732,0.010603
363,-0.720096,0.338176,0.605881,0.013019,-0.010234,0.014099
364,-0.720171,0.338251,0.60575,0.009981,-0.0124,0.013452
365,-0.720254,0.338294,0.605627,0.010797,-0.0153879999999999,0.009302
366,-0.720302,0.338319,0.605557,0.011775,-0.016588,0.009906
367,-0.720288,0.338356,0.605553,0.013119,-0.015861,0.010536
368,-0.720251,0.338379,0.605584,0.00968,-0.014618,0.009635
369,-0.720255,0.338446,0.605542,0.010172,-0.015097,0.011249
370,-0.72025,0.3385039999999999,0.6055149999999999,0.0089769999999999,-0.0125,0.009598
371,-0.720198,0.338569,0.605539,0.009352,-0.013481,0.011679
372,-0.720147,0.338661,0.605549,0.011437,-0.014503,0.012005
373,-0.720093,0.33875,0.605564,0.014725,-0.01418,0.01315
374,-0.720059,0.338858,0.605545,0.01202,-0.015936,0.013444
375,-0.720015,0.338958,0.60554,0.011916,-0.014831,0.011037
376,-0.719968,0.339043,0.605549,0.012357,-0.015206,0.012097
377,-0.719959,0.339144,0.605504,0.011875,-0.015871,0.012721
378,-0.719946,0.339219,0.605476,0.0123959999999999,-0.01584,0.012887
379,-0.71995,0.339336,0.6054069999999999,0.011805,-0.015895,0.011094
380,-0.719967,0.339436,0.60533,0.012326,-0.015355,0.011141
381,-0.719958,0.339492,0.605309,0.009341,-0.013153,0.0119849999999999
382,-0.719962,0.339577,0.605258,0.011664,-0.013344,0.011442
383,-0.7199760000000001,0.339658,0.6051949999999999,0.011129,-0.0145389999999999,0.0110459999999999
384,-0.7199720000000001,0.339704,0.605174,0.011598,-0.016019,0.009999
385,-0.719962,0.3397679999999999,0.605151,0.011542,-0.016603,0.012205
386,-0.719928,0.3398469999999999,0.605147,0.011615,-0.0128199999999999,0.011308
387,-0.7198939999999999,0.33986,0.60518,0.014175,-0.014985,0.011489
388,-0.719854,0.339873,0.605221,0.01119,-0.014968,0.0114019999999999
389,-0.719815,0.3398989999999999,0.6052529999999999,0.009045,-0.008371,0.0139639999999999
390,-0.719808,0.339889,0.605266,0.010046,-0.010376,0.011738
391,-0.719803,0.3398219999999999,0.6053109999999999,0.0112459999999999,-0.0158479999999999,0.00939
392,-0.719795,0.339775,0.6053470000000001,0.01139,-0.015968,0.011154
393,-0.7197680000000001,0.339715,0.605413,0.01533,-0.014978,0.012125
394,-0.719701,0.3396389999999999,0.605535,0.014791,-0.015665,0.01324
395,-0.719691,0.339537,0.6056050000000001,0.012477,-0.012541,0.0148169999999999
396,-0.71973,0.339401,0.605635,0.011096,-0.009491,0.013322
397,-0.719778,0.339213,0.605684,0.009298,-0.01031,0.0087879999999999
398,-0.719821,0.339038,0.60573,0.011264,-0.015491,0.010984
399,-0.719838,0.338891,0.605793,0.012532,-0.018364,0.010753
400,-0.7198319999999999,0.3387679999999999,0.6058680000000001,0.012526,-0.016075,0.012143
401,-0.719812,0.338696,0.605932,0.010202,-0.0156819999999999,0.011301
402,-0.7198,0.338649,0.6059720000000001,0.00662,-0.014262,0.011612
403,-0.719819,0.338629,0.605961,0.007051,-0.010168,0.010876
404,-0.719828,0.3386099999999999,0.605962,0.010279,-0.0126819999999999,0.012157
405,-0.719799,0.338544,0.606032,0.012767,-0.01431,0.011079
406,-0.719759,0.338444,0.606136,0.012865,-0.015965,0.009068
407,-0.719708,0.338367,0.6062390000000001,0.012372,-0.01453,0.013313
408,-0.7196600000000001,0.338307,0.60633,0.01121,-0.014699,0.013101
409,-0.719622,0.3382469999999999,0.6064069999999999,0.012469,-0.012045,0.012993
410,-0.719594,0.33815,0.606495,0.012594,-0.013138,0.01199
411,-0.7195779999999999,0.338093,0.606546,0.012501,-0.013463,0.012961
412,-0.719567,0.338034,0.606592,0.014153,-0.0146699999999999,0.011618
413,-0.719571,0.337981,0.606617,0.010479,-0.013594,0.012051
414,-0.71959,0.337946,0.606614,0.012772,-0.012415,0.011398
415,-0.7196100000000001,0.337904,0.606613,0.012457,-0.012358,0.01149
416,-0.7196239999999999,0.33783,0.606639,0.012852,-0.01323,0.010198
417,-0.719645,0.337778,0.606643,0.011744,-0.013834,0.009537
418,-0.7196359999999999,0.3376969999999999,0.606697,0.00937,-0.012303,0.009712
419,-0.719607,0.337584,0.606796,0.0142389999999999,-0.018126,0.009812
420,-0.719554,0.33751,0.6069,0.007899,-0.014649,0.01163
421,-0.719503,0.337483,0.6069760000000001,0.0079099999999999,-0.011082,0.012684
422,-0.719499,0.337485,0.606979,0.010195,-0.008261,0.014633
423,-0.71953,0.337446,0.606965,0.011797,-0.014768,0.0097349999999999
424,-0.719561,0.337421,0.606941,0.013674,-0.015018,0.009804
425,-0.719557,0.337412,0.606951,0.016676,-0.013956,0.013838
426,-0.7195,0.337397,0.6070270000000001,0.016909,-0.014582,0.012846
427,-0.719475,0.337328,0.6070939999999999,0.014565,-0.0093099999999999,0.012565
428,-0.719488,0.337238,0.607129,0.010366,-0.010517,0.01456
429,-0.719529,0.3371659999999999,0.60712,0.009202,-0.011574,0.012081
430,-0.719569,0.337055,0.6071340000000001,0.01176,-0.013538,0.0105569999999999
431,-0.7196100000000001,0.336984,0.607125,0.012503,-0.016412,0.011054
432,-0.719615,0.336923,0.607154,0.012248,-0.0141229999999999,0.01072
433,-0.719577,0.336863,0.607232,0.01128,-0.013865,0.012153
434,-0.7195729999999999,0.336848,0.607245,0.0089719999999999,-0.011454,0.01127
435,-0.7196170000000001,0.336829,0.607204,0.007459,-0.012152,0.009175
436,-0.719615,0.336814,0.607213,0.010814,-0.012825,0.0096239999999999
437,-0.719583,0.336787,0.607266,0.0124599999999999,-0.014109,0.0103489999999999
438,-0.719534,0.336754,0.6073430000000001,0.010824,-0.016396,0.011401
439,-0.719485,0.336681,0.607441,0.011431,-0.014477,0.011868
440,-0.719458,0.336653,0.607488,0.010199,-0.0143419999999999,0.01124
441,-0.7194510000000001,0.3366409999999999,0.607504,0.012526,-0.0130479999999999,0.011973
442,-0.719446,0.336593,0.607536,0.010828,-0.0128479999999999,0.012093
443,-0.719443,0.336551,0.607563,0.013373,-0.0143159999999999,0.013424
444,-0.7194649999999999,0.336522,0.6075520000000001,0.011061,-0.013372,0.011222
445,-0.71949,0.336489,0.607542,0.008506,-0.0144219999999999,0.010882
446,-0.7195159999999999,0.336436,0.607539,0.010333,-0.014521,0.011906
447,-0.7195189999999999,0.336381,0.6075659999999999,0.009802,-0.0136889999999999,0.011193
448,-0.719529,0.336313,0.607592,0.012971,-0.0132699999999999,0.012586
449,-0.719536,0.336239,0.6076239999999999,0.011376,-0.013363,0.009701
450,-0.719528,0.336184,0.607664,0.0121,-0.010729,0.012483
451,-0.7195159999999999,0.3361,0.607725,0.013278,-0.014185,0.00902
452,-0.719485,0.336017,0.607807,0.011874,-0.0154449999999999,0.00996
453,-0.7194550000000001,0.335958,0.607875,0.010074,-0.012152,0.012623
454,-0.719426,0.335906,0.607939,0.010045,-0.008147,0.012376
455,-0.7194470000000001,0.335841,0.60795,0.007854,-0.010966,0.014075
456,-0.719513,0.3357989999999999,0.607896,0.010513,-0.01712,0.010711
457,-0.719531,0.335778,0.607887,0.014071,-0.015923,0.01072
458,-0.7195,0.335761,0.6079319999999999,0.013918,-0.014106,0.009851
459,-0.719477,0.3357199999999999,0.607982,0.016413,-0.01463,0.009603
460,-0.719464,0.335658,0.608031,0.012067,-0.0121409999999999,0.01262
461,-0.719498,0.335595,0.6080260000000001,0.011567,-0.011453,0.015128
462,-0.719571,0.335523,0.60798,0.008405,-0.013105,0.013328
463,-0.719611,0.335456,0.607969,0.0121219999999999,-0.013694,0.010623
464,-0.719626,0.335401,0.607981,0.012503,-0.013685,0.0104879999999999
465,-0.719597,0.335344,0.608047,0.011543,-0.0127879999999999,0.010849
466,-0.719568,0.335279,0.608117,0.011026,-0.014463,0.00962
467,-0.719567,0.335259,0.608129,0.010858,-0.013283,0.008159
468,-0.719565,0.335237,0.6081439999999999,0.010931,-0.013994,0.0105849999999999
469,-0.7195229999999999,0.33521,0.608209,0.014491,-0.013142,0.010352
470,-0.719492,0.335171,0.608267,0.012797,-0.014187,0.012033
471,-0.7194649999999999,0.335154,0.60831,0.013349,-0.014719,0.010754
472,-0.719439,0.335132,0.608352,0.012317,-0.01218,0.010026
473,-0.719428,0.3351369999999999,0.608363,0.011908,-0.014077,0.009618
474,-0.719426,0.335146,0.60836,0.013066,-0.012941,0.010399
475,-0.719411,0.33512,0.608392,0.013662,-0.011557,0.0116189999999999
476,-0.7194020000000001,0.3351,0.608413,0.013729,-0.0126209999999999,0.010849
477,-0.719398,0.335083,0.608428,0.011314,-0.0129539999999999,0.010835
478,-0.719379,0.335021,0.608484,0.011218,-0.012603,0.010748
479,-0.719382,0.334975,0.608506,0.009757,-0.012816,0.009764
480,-0.719399,0.334957,0.608496,0.0108569999999999,-0.013103,0.010111
481,-0.7194,0.334896,0.608529,0.013483,-0.012341,0.010719
482,-0.7193970000000001,0.334833,0.608567,0.011634,-0.01275,0.012206
483,-0.719374,0.334788,0.6086189999999999,0.011,-0.010721,0.011773
484,-0.7193510000000001,0.334728,0.608679,0.013907,-0.010326,0.009668
485,-0.71934,0.334686,0.608715,0.012522,-0.015686,0.009174
486,-0.7193109999999999,0.334679,0.608754,0.010616,-0.0131759999999999,0.012385
487,-0.719274,0.3346719999999999,0.6088020000000001,0.010457,-0.010544,0.011956
488,-0.719286,0.334673,0.608787,0.010957,-0.009524,0.01281
489,-0.719333,0.334681,0.608727,0.010562,-0.013896,0.007591
490,-0.719357,0.334701,0.608688,0.01257,-0.0143729999999999,0.010773
491,-0.719341,0.334717,0.608698,0.0154069999999999,-0.012665,0.010061
492,-0.7193189999999999,0.334709,0.608729,0.016331,-0.013725,0.011922
493,-0.71932,0.334661,0.608753,0.014577,-0.010336,0.013256
494,-0.719338,0.334593,0.608769,0.010338,-0.01129,0.011486
495,-0.71938,0.334553,0.608741,0.007421,-0.0118599999999999,0.01127
496,-0.719418,0.334503,0.6087229999999999,0.009549,-0.013992,0.0081129999999999
497,-0.719413,0.334458,0.608755,0.013343,-0.014206,0.008555
498,-0.7193689999999999,0.334403,0.608837,0.0114069999999999,-0.013419,0.011677
499,-0.719325,0.33435,0.608916,0.010951,-0.011887,0.0126959999999999
500,-0.71933,0.334323,0.608925,0.0099189999999999,-0.01488,0.011848
501,-0.719366,0.334359,0.608863,0.010565,-0.015084,0.011224
502,-0.719386,0.334395,0.608819,0.012797,-0.013869,0.011497
503,-0.719376,0.334442,0.608804,0.013215,-0.012543,0.011328
504,-0.7193689999999999,0.334459,0.608803,0.012246,-0.013521,0.011192
505,-0.719344,0.334441,0.608843,0.011275,-0.011687,0.011381
506,-0.719314,0.334389,0.608907,0.0108019999999999,-0.012032,0.009181
507,-0.719256,0.334332,0.609005,0.013217,-0.01315,0.010944
508,-0.7192149999999999,0.334258,0.609096,0.012916,-0.013655,0.010625
509,-0.719197,0.334238,0.609128,0.010487,-0.014108,0.011141
510,-0.719199,0.334204,0.6091449999999999,0.013846,-0.014136,0.011049
511,-0.7191890000000001,0.334186,0.609166,0.012097,-0.0140259999999999,0.011012
512,-0.719173,0.334184,0.609187,0.011684,-0.0137639999999999,0.011602
513,-0.71917,0.334188,0.6091880000000001,0.01014,-0.0118459999999999,0.010487
514,-0.71918,0.3342,0.60917,0.01102,-0.012575,0.010764
515,-0.71918,0.3341989999999999,0.60917,0.012927,-0.013307,0.010642
516,-0.7191810000000001,0.334185,0.609176,0.011433,-0.012576,0.012375
517,-0.71917,0.3341699999999999,0.6091979999999999,0.01339,-0.013827,0.010324
518,-0.719166,0.33415,0.609214,0.013981,-0.012784,0.012322
519,-0.719179,0.334122,0.609214,0.0119189999999999,-0.011658,0.011285
520,-0.719151,0.334122,0.609248,0.011677,-0.013809,0.010015
521,-0.7191270000000001,0.3341449999999999,0.609263,0.00909,-0.011925,0.010168
522,-0.719125,0.3341639999999999,0.609256,0.008645,-0.0096709999999999,0.012158
523,-0.719143,0.334136,0.6092489999999999,0.009823,-0.012832,0.009525
524,-0.719174,0.334132,0.609214,0.011899,-0.01295,0.010217
525,-0.719186,0.334167,0.6091810000000001,0.0130699999999999,-0.013961,0.009288
526,-0.71915,0.334161,0.609226,0.014667,-0.013895,0.011212
527,-0.719116,0.3341469999999999,0.609274,0.012237,-0.012461,0.012827
528,-0.719089,0.334094,0.6093350000000001,0.012317,-0.011432,0.011133
529,-0.719068,0.33404,0.609388,0.011564,-0.009959,0.011873
530,-0.719091,0.334014,0.609376,0.009191,-0.01274,0.01007
531,-0.719129,0.334014,0.6093310000000001,0.010877,-0.013046,0.009351
532,-0.719136,0.334001,0.60933,0.014287,-0.013475,0.010559
533,-0.719118,0.333975,0.6093649999999999,0.0138419999999999,-0.012808,0.0125069999999999
534,-0.719109,0.333931,0.6094,0.011422,-0.012642,0.010351
535,-0.719117,0.333896,0.60941,0.010148,-0.011844,0.013134
536,-0.7191390000000001,0.333896,0.609383,0.009254,-0.013004,0.011115
537,-0.719146,0.333888,0.609379,0.012359,-0.014491,0.011119
538,-0.7191529999999999,0.333899,0.609366,0.0127319999999999,-0.0130979999999999,0.012902
539,-0.7191420000000001,0.333884,0.609386,0.0145979999999999,-0.013236,0.009969
540,-0.7191350000000001,0.333868,0.609404,0.011005,-0.012762,0.011126
541,-0.719126,0.333866,0.6094149999999999,0.008524,-0.012379,0.012823
542,-0.719115,0.333859,0.60943,0.010772,-0.01376,0.0114799999999999
543,-0.7191,0.333856,0.609449,0.011977,-0.0133,0.010637
544,-0.719089,0.333847,0.609467,0.012241,-0.012527,0.011139
545,-0.719079,0.333834,0.609486,0.011804,-0.0120109999999999,0.010936
546,-0.719056,0.333839,0.6095109999999999,0.011597,-0.01197,0.009828
547,-0.719019,0.33384,0.609554,0.011316,-0.011742,0.012272
548,-0.718971,0.333846,0.609607,0.0099569999999999,-0.013915,0.011426
549,-0.718945,0.33384,0.609641,0.012768,-0.0133289999999999,0.011498
550,-0.718928,0.333846,0.609658,0.012462,-0.011565,0.01226
551,-0.718928,0.333853,0.609654,0.012034,-0.0140139999999999,0.0131639999999999
552,-0.718934,0.333865,0.60964,0.013505,-0.014941,0.008692
553,-0.7189300000000001,0.333877,0.609638,0.0111349999999999,-0.0102379999999999,0.011791
554,-0.718938,0.333854,0.609641,0.011739,-0.013313,0.010248
555,-0.718915,0.333844,0.6096729999999999,0.012922,-0.013608,0.009483
556,-0.718905,0.33383,0.609693,0.010333,-0.012236,0.011325
557,-0.718913,0.333817,0.609691,0.008235,-0.010362,0.013661
558,-0.718968,0.333792,0.609639,0.011342,-0.0128389999999999,0.00999
559,-0.719008,0.3337719999999999,0.609603,0.011641,-0.017579,0.006821
560,-0.719005,0.333808,0.609587,0.0131639999999999,-0.015998,0.010836
561,-0.718963,0.333858,0.6096090000000001,0.012039,-0.0146449999999999,0.009211
562,-0.71895,0.333943,0.609578,0.014726,-0.0130199999999999,0.012416
563,-0.718966,0.334021,0.609517,0.015413,-0.011847,0.014369
564,-0.718966,0.334043,0.609504,0.01369,-0.0137,0.01133
565,-0.7189989999999999,0.334047,0.609463,0.010487,-0.012941,0.011249
566,-0.719025,0.3340639999999999,0.6094229999999999,0.013855,-0.015918,0.011289
567,-0.719024,0.334108,0.6094,0.011276,-0.013002,0.012472
568,-0.719011,0.3341699999999999,0.609382,0.011522,-0.013461,0.011986
569,-0.719025,0.334238,0.609328,0.011734,-0.012598,0.012483
570,-0.7190310000000001,0.334314,0.609279,0.012747,-0.013651,0.0098
571,-0.719025,0.334402,0.6092380000000001,0.011002,-0.013678,0.008606
572,-0.7189939999999999,0.3345079999999999,0.609217,0.010269,-0.011662,0.009588
573,-0.718952,0.334604,0.609213,0.011448,-0.011255,0.013163
574,-0.71892,0.334712,0.609192,0.011934,-0.01179,0.0129699999999999
575,-0.718884,0.334812,0.609178,0.011563,-0.012638,0.010618
576,-0.718869,0.334906,0.6091439999999999,0.012403,-0.0138919999999999,0.011293
577,-0.718838,0.3349789999999999,0.609142,0.011639,-0.011584,0.0119519999999999
578,-0.7188180000000001,0.335061,0.60912,0.011787,-0.013345,0.0110739999999999
579,-0.7188100000000001,0.335126,0.609093,0.011947,-0.014173,0.0109629999999999
580,-0.718771,0.335185,0.609106,0.013052,-0.0138509999999999,0.011683
581,-0.718758,0.335266,0.609079,0.010872,-0.012145,0.011557
582,-0.718751,0.335365,0.609032,0.011903,-0.013008,0.0108569999999999
583,-0.7187680000000001,0.335473,0.608953,0.011493,-0.014077,0.0105239999999999
584,-0.718781,0.335592,0.6088720000000001,0.010437,-0.0127,0.010894
585,-0.718791,0.3357159999999999,0.608792,0.012569,-0.01374,0.0103489999999999
586,-0.718774,0.335833,0.608748,0.010583,-0.013888,0.010607
587,-0.718754,0.335912,0.6087279999999999,0.01067,-0.011327,0.010245
588,-0.718742,0.335952,0.608721,0.012962,-0.0144789999999999,0.011061
589,-0.7187180000000001,0.336036,0.6087020000000001,0.009276,-0.014152,0.0109719999999999
590,-0.7187060000000001,0.336138,0.6086600000000001,0.008654,-0.008104,0.010129
591,-0.7187060000000001,0.3362489999999999,0.6086,0.009554,-0.010031,0.0132419999999999
592,-0.718727,0.336337,0.608527,0.0089489999999999,-0.0155819999999999,0.0066459999999999
593,-0.718722,0.336446,0.608474,0.0104549999999999,-0.016103,0.009736
594,-0.71865,0.336576,0.608487,0.016303,-0.013516,0.01105
595,-0.718576,0.336726,0.608491,0.0142759999999999,-0.013606,0.013305
596,-0.7185520000000001,0.336868,0.608441,0.015778,-0.011276,0.0152169999999999
597,-0.718587,0.336972,0.608342,0.0107459999999999,-0.007932,0.011409
598,-0.718641,0.337045,0.608237,0.012098,-0.010613,0.010965
599,-0.718695,0.337097,0.608143,0.010764,-0.0138699999999999,0.009487
600,-0.718695,0.337146,0.608115,0.011496,-0.013462,0.010216
601,-0.7186600000000001,0.337202,0.608126,0.013186,-0.0134259999999999,0.010633
602,-0.71864,0.337265,0.608116,0.011304,-0.013092,0.011009
603,-0.71865,0.337345,0.60806,0.01023,-0.013111,0.006899
604,-0.718634,0.337455,0.6080180000000001,0.011358,-0.013343,0.010115
605,-0.718584,0.337582,0.608007,0.0102099999999999,-0.012188,0.011378
606,-0.718528,0.337682,0.608017,0.012901,-0.012487,0.011216
607,-0.7185010000000001,0.337775,0.607997,0.013713,-0.011558,0.011204
608,-0.7184689999999999,0.337873,0.607981,0.011652,-0.0107549999999999,0.010809
609,-0.718428,0.337934,0.607997,0.0119,-0.0132729999999999,0.011678
610,-0.718378,0.338001,0.608019,0.011987,-0.0138889999999999,0.010756
611,-0.7183510000000001,0.338069,0.608012,0.013975,-0.012813,0.011541
612,-0.718326,0.338151,0.607997,0.011356,-0.011384,0.011678
613,-0.718321,0.338235,0.607956,0.012953,-0.013177,0.011734
614,-0.718333,0.338319,0.607895,0.011851,-0.0130009999999999,0.010895
615,-0.718359,0.338391,0.607824,0.012121,-0.012799,0.010737
616,-0.718375,0.338415,0.607791,0.014457,-0.014013,0.009885
617,-0.718368,0.338436,0.607788,0.012359,-0.0135909999999999,0.012924
618,-0.7183729999999999,0.338388,0.607809,0.018086,-0.014154,0.009501
619,-0.718349,0.338293,0.6078899999999999,0.010555,-0.013373,0.00913
620,-0.718308,0.338169,0.608008,0.008225,-0.007266,0.012506
621,-0.718299,0.338039,0.6080909999999999,0.008887,-0.005702,0.009265
622,-0.71829,0.337881,0.608189,0.0097629999999999,-0.012609,0.011501
623,-0.71829,0.337775,0.608248,0.009626,-0.016577,0.009855
624,-0.718275,0.337701,0.608306,0.010282,-0.018319,0.008301
625,-0.718221,0.3376619999999999,0.608391,0.013738,-0.015152,0.011299
626,-0.718176,0.337638,0.6084579999999999,0.014242,-0.0135419999999999,0.013384
627,-0.718172,0.3375869999999999,0.60849,0.0123769999999999,-0.010073,0.0133509999999999
628,-0.718199,0.337486,0.608516,0.010954,-0.01075,0.012471
629,-0.7182470000000001,0.337385,0.6085149999999999,0.010361,-0.012068,0.010046
630,-0.718316,0.3372679999999999,0.608498,0.010522,-0.014972,0.009346
631,-0.7183510000000001,0.3371679999999999,0.608513,0.015638,-0.017618,0.00869
632,-0.718345,0.337067,0.608577,0.013846,-0.014542,0.011541
633,-0.7183229999999999,0.336973,0.608654,0.009201,-0.010969,0.011448
634,-0.718322,0.336892,0.6087,0.008789,-0.012399,0.0104409999999999
635,-0.718333,0.33684,0.608716,0.010371,-0.011599,0.0122709999999999
636,-0.71833,0.336815,0.608733,0.0111,-0.014138,0.009446
637,-0.718312,0.336804,0.608761,0.01209,-0.014111,0.01096
638,-0.718287,0.336804,0.6087899999999999,0.014811,-0.012479,0.00826
639,-0.718258,0.336765,0.608846,0.011486,-0.011631,0.0115
640,-0.718206,0.336729,0.608928,0.012136,-0.0130289999999999,0.010823
641,-0.7181609999999999,0.3366389999999999,0.6090300000000001,0.0133419999999999,-0.0122519999999999,0.011682
642,-0.718123,0.336526,0.609137,0.012694,-0.01066,0.013559
643,-0.718122,0.336438,0.609187,0.010526,-0.014676,0.013158
644,-0.718145,0.336382,0.609191,0.0125329999999999,-0.014727,0.012314
645,-0.718184,0.336339,0.60917,0.013472,-0.012639,0.010917
646,-0.7182189999999999,0.336278,0.609162,0.0120109999999999,-0.0130509999999999,0.012054
647,-0.7182430000000001,0.336206,0.609174,0.011578,-0.013452,0.009722
648,-0.718245,0.336156,0.6091989999999999,0.012053,-0.01151,0.012475
649,-0.718254,0.3360619999999999,0.60924,0.0124129999999999,-0.012759,0.010298
650,-0.718232,0.335967,0.609318,0.013093,-0.014816,0.009457
651,-0.7182,0.335908,0.609387,0.011261,-0.015321,0.010089
652,-0.718171,0.335821,0.6094689999999999,0.009889,-0.009299,0.013013
653,-0.718184,0.335748,0.609495,0.009947,-0.0116969999999999,0.011812
654,-0.718194,0.335708,0.609506,0.012643,-0.016829,0.00936
655,-0.718164,0.335687,0.6095510000000001,0.015054,-0.015832,0.012046
656,-0.718122,0.335704,0.609592,0.015531,-0.015468,0.011838
657,-0.718094,0.335694,0.60963,0.015946,-0.013184,0.013036
658,-0.7180989999999999,0.3356409999999999,0.609653,0.012731,-0.011117,0.01463
659,-0.718152,0.3355869999999999,0.6096199999999999,0.011792,-0.011704,0.012435
660,-0.718224,0.335502,0.609582,0.011086,-0.011557,0.0136169999999999
661,-0.718263,0.335417,0.609582,0.013337,-0.013441,0.007742
662,-0.718277,0.335321,0.609618,0.014466,-0.014658,0.010148
663,-0.718254,0.335214,0.609704,0.015328,-0.0145199999999999,0.0109319999999999
664,-0.718224,0.335117,0.609794,0.008583,-0.011615,0.012642
665,-0.7182430000000001,0.335061,0.609801,0.008435,-0.010858,0.009385
666,-0.718263,0.335028,0.609795,0.009355,-0.012824,0.0086439999999999
667,-0.71824,0.335005,0.609835,0.010339,-0.012419,0.008222
668,-0.718195,0.334968,0.609908,0.013331,-0.012168,0.01059
669,-0.718137,0.334946,0.609989,0.011762,-0.012512,0.012142
670,-0.718094,0.334917,0.610056,0.0121,-0.0135509999999999,0.011923
671,-0.7180810000000001,0.334908,0.610075,0.013461,-0.011025,0.012179
672,-0.7180810000000001,0.334904,0.610078,0.012484,-0.01215,0.013488
673,-0.718068,0.334893,0.6101,0.012303,-0.012245,0.011299
674,-0.718072,0.334854,0.610115,0.01072,-0.012756,0.014
675,-0.718079,0.33483,0.610119,0.012085,-0.012916,0.0125
676,-0.718113,0.334825,0.610082,0.0099379999999999,-0.012178,0.010997
677,-0.7181770000000001,0.334812,0.610013,0.01168,-0.01157,0.010775
678,-0.718234,0.334744,0.6099829999999999,0.013187,-0.011562,0.008577
679,-0.718195,0.334569,0.610125,0.016718,-0.013387,0.008436
680,-0.7180840000000001,0.334342,0.61038,0.013174,-0.014182,0.01024
681,-0.717968,0.334167,0.610613,0.007076,-0.01268,0.013853
682,-0.717904,0.334065,0.610744,0.0099569999999999,-0.0145919999999999,0.011616
683,-0.717862,0.334078,0.610787,0.009809,-0.017503,0.008659
684,-0.7178220000000001,0.334202,0.610766,0.01015,-0.012821,0.010358
685,-0.717828,0.334377,0.610663,0.00657,-0.008479,0.012795
686,-0.717879,0.334576,0.610495,0.00978,-0.010494,0.010187
687,-0.717962,0.334771,0.61029,0.011465,-0.01162,0.009766
688,-0.7180300000000001,0.334903,0.610137,0.0137449999999999,-0.011783,0.010316
689,-0.7180770000000001,0.334879,0.610096,0.018767,-0.008143,0.012341
690,-0.718108,0.33474,0.610137,0.0177599999999999,-0.007118,0.0126959999999999
691,-0.718179,0.334481,0.610196,0.013391,-0.005516,0.014575
692,-0.718259,0.334157,0.610279,0.010724,-0.006718,0.0107689999999999
693,-0.718352,0.33381,0.610359,0.010955,-0.009698,0.009621
694,-0.7183970000000001,0.333461,0.6104970000000001,0.012647,-0.01646,0.006232
695,-0.718348,0.333151,0.610725,0.013544,-0.018423,0.007347
696,-0.7182529999999999,0.332885,0.610982,0.012031,-0.017135,0.011424
697,-0.71816,0.332727,0.6111770000000001,0.006933,-0.016489,0.010329
698,-0.7181029999999999,0.332738,0.6112380000000001,0.007883,-0.016515,0.011732
699,-0.7180989999999999,0.332904,0.611152,0.008154,-0.015948,0.01104
700,-0.718108,0.333171,0.610997,0.013686,-0.013346,0.010646
701,-0.718121,0.333442,0.610833,0.012722,-0.014487,0.009177
702,-0.7181109999999999,0.333654,0.610729,0.014497,-0.010854,0.011143
703,-0.718089,0.333777,0.610688,0.014002,-0.010214,0.011703
704,-0.718051,0.333843,0.610694,0.011997,-0.010692,0.0105519999999999
705,-0.71801,0.333851,0.61074,0.012931,-0.008961,0.010293
706,-0.7179770000000001,0.333784,0.6108140000000001,0.011709,-0.009474,0.011271
707,-0.717947,0.333673,0.610911,0.012152,-0.009363,0.011663
708,-0.717936,0.333539,0.610997,0.011225,-0.01315,0.0095319999999999
709,-0.717917,0.333426,0.611083,0.010046,-0.013479,0.008256
710,-0.717889,0.33335,0.611158,0.0116969999999999,-0.0119849999999999,0.0078
711,-0.71785,0.333306,0.6112270000000001,0.009018,-0.015465,0.00886
712,-0.717812,0.333295,0.6112770000000001,0.010094,-0.01489,0.009206
713,-0.717793,0.333332,0.611279,0.011524,-0.012714,0.01099
714,-0.7178,0.333395,0.611236,0.0108,-0.010473,0.0127879999999999
715,-0.717819,0.333468,0.611174,0.012512,-0.009829,0.010194
716,-0.717846,0.333516,0.611116,0.0137139999999999,-0.011327,0.009413
717,-0.717819,0.333539,0.611136,0.014938,-0.011258,0.012582
718,-0.717812,0.333531,0.6111479999999999,0.014671,-0.010472,0.010723
719,-0.717803,0.333544,0.611151,0.013885,-0.013262,0.009561
720,-0.717806,0.3335619999999999,0.611138,0.01111,-0.0090689999999999,0.012809
721,-0.71783,0.333578,0.611101,0.013942,-0.0114799999999999,0.0097489999999999
722,-0.717821,0.333583,0.611109,0.011126,-0.014949,0.009436
723,-0.717792,0.333604,0.6111310000000001,0.010761,-0.009752,0.010023
724,-0.717801,0.3336469999999999,0.611097,0.007077,-0.0055829999999999,0.010973
725,-0.717855,0.333684,0.6110140000000001,0.008489,-0.013463,0.009454
726,-0.717896,0.333761,0.610925,0.01149,-0.0155699999999999,0.006461
727,-0.717879,0.333879,0.610881,0.011824,-0.0112319999999999,0.01212
728,-0.717852,0.333986,0.610854,0.015093,-0.012209,0.010514
729,-0.7178359999999999,0.334067,0.6108279999999999,0.015215,-0.010794,0.011899
730,-0.717839,0.334103,0.610805,0.014821,-0.007381,0.012334
731,-0.71786,0.334075,0.610795,0.0125379999999999,-0.009902,0.0112909999999999
732,-0.717897,0.3340329999999999,0.610775,0.011918,-0.009723,0.012059
733,-0.717933,0.3340059999999999,0.610746,0.011802,-0.01435,0.0094019999999999
734,-0.717935,0.334019,0.610737,0.014581,-0.016011,0.009517
735,-0.717899,0.334059,0.6107560000000001,0.013736,-0.013991,0.010978
736,-0.71787,0.3341429999999999,0.610744,0.010748,-0.011892,0.012181
737,-0.717875,0.33426,0.6106739999999999,0.006739,-0.0111849999999999,0.010618
738,-0.717884,0.334415,0.610578,0.00774,-0.011279,0.009386
739,-0.717867,0.334569,0.610514,0.013323,-0.010793,0.008718
740,-0.717834,0.3347239999999999,0.610468,0.013061,-0.01197,0.009939
741,-0.7177640000000001,0.334865,0.610472,0.013159,-0.0114849999999999,0.010759
742,-0.7177100000000001,0.3349789999999999,0.610472,0.011656,-0.010135,0.011843
743,-0.7176710000000001,0.335099,0.610453,0.0127459999999999,-0.010423,0.010153
744,-0.717649,0.335229,0.610408,0.010648,-0.011392,0.0108989999999999
745,-0.717647,0.335352,0.6103430000000001,0.0139879999999999,-0.011759,0.011255
746,-0.717654,0.335456,0.610278,0.013156,-0.011771,0.01077
747,-0.717663,0.335564,0.610208,0.01202,-0.010811,0.010824
748,-0.717677,0.335688,0.610123,0.011317,-0.012583,0.01068
749,-0.717716,0.335804,0.610015,0.010837,-0.012074,0.012376
750,-0.7177439999999999,0.335942,0.6099060000000001,0.012376,-0.010365,0.007708
751,-0.717757,0.336036,0.609839,0.015365,-0.012519,0.009423
752,-0.717722,0.336082,0.6098560000000001,0.015604,-0.010947,0.008659
753,-0.717642,0.336071,0.609954,0.012961,-0.012387,0.010697
754,-0.717555,0.336056,0.610065,0.01089,-0.0107689999999999,0.010922
755,-0.717485,0.336086,0.610132,0.013231,-0.0134849999999999,0.010718
756,-0.717417,0.336125,0.610191,0.016214,-0.0147599999999999,0.008767
757,-0.717294,0.336125,0.6103350000000001,0.0135129999999999,-0.01479,0.012605
758,-0.71721,0.336179,0.610404,0.009736,-0.009457,0.010797
759,-0.7171649999999999,0.336196,0.6104470000000001,0.013399,-0.006987,0.008556
760,-0.7170949999999999,0.336117,0.610572,0.0091939999999999,-0.009869,0.008477
761,-0.716967,0.336017,0.610779,0.004961,-0.011829,0.01178
762,-0.716895,0.336043,0.610848,0.00286,-0.013106,0.01432
763,-0.716964,0.336259,0.610649,0.0046229999999999,-0.007584,0.0140159999999999
764,-0.717176,0.336513,0.610259,0.015714,-0.003871,0.0127879999999999
765,-0.717438,0.3366409999999999,0.60988,0.020248,-0.005403,0.012221
766,-0.717618,0.336521,0.609734,0.023633,-0.008549,0.009651
767,-0.717689,0.336181,0.609838,0.016547,-0.00502,0.01211
768,-0.717759,0.335634,0.610057,0.016617,-0.0044729999999999,0.0118909999999999
769,-0.717712,0.33501,0.610456,0.014938,-0.012897,0.009356
770,-0.7176,0.334393,0.610926,0.010889,-0.024716,0.007787
771,-0.717454,0.333921,0.611355,0.006455,-0.022627,0.009647
772,-0.717327,0.3337179999999999,0.6116149999999999,0.008587,-0.022698,0.009448
773,-0.7172189999999999,0.333793,0.611701,0.010646,-0.022437,0.006692
774,-0.717179,0.3340869999999999,0.611588,0.005143,-0.017619,0.010268
775,-0.71724,0.334581,0.611246,0.002945,-0.013567,0.01293
776,-0.71739,0.3351739999999999,0.610746,0.009825,-0.008697,0.0109129999999999
777,-0.7175729999999999,0.335682,0.610251,0.0144479999999999,-0.005573,0.010919
778,-0.717719,0.335964,0.609924,0.02265,-0.003735,0.0091709999999999
779,-0.717755,0.335941,0.6098939999999999,0.020368,-0.00153,0.012634
780,-0.71772,0.335658,0.6100909999999999,0.017098,-0.002421,0.0122239999999999
781,-0.7176779999999999,0.335158,0.6104149999999999,0.014324,-0.0013109999999999,0.008771
782,-0.717526,0.334499,0.610955,0.013683,-0.009273,0.005576
783,-0.717283,0.333801,0.611622,0.008223,-0.012893,0.005093
784,-0.717026,0.333165,0.61227,0.008728,-0.020284,0.009251
785,-0.716843,0.332778,0.612694,0.005753,-0.020202,0.01165
786,-0.716806,0.332771,0.61274,0.001718,-0.018989,0.009986
787,-0.716912,0.333056,0.612462,0.0073939999999999,-0.015704,0.010128
788,-0.7170810000000001,0.333497,0.612024,0.010095,-0.015336,0.012641
789,-0.717288,0.333973,0.611522,0.0152919999999999,-0.011967,0.014744
790,-0.717527,0.334363,0.611029,0.019575,-0.005063,0.014627
791,-0.717754,0.33459,0.610639,0.018855,-0.003749,0.012714
792,-0.717907,0.334588,0.61046,0.016674,-0.001534,0.010512
793,-0.718005,0.334308,0.6104970000000001,0.016788,-0.004138,0.007835
794,-0.717949,0.333778,0.610853,0.017861,-0.008643,0.002703
795,-0.717719,0.333101,0.611492,0.00962,-0.011247,0.005467
796,-0.717449,0.33243,0.612174,0.005261,-0.016634,0.008462
797,-0.717258,0.331989,0.612637,8e-05,-0.020283,0.013477
798,-0.717213,0.331873,0.6127520000000001,0.000797,-0.019663,0.009547
799,-0.7172569999999999,0.332034,0.612613,0.0072959999999999,-0.020053,0.008114
800,-0.717324,0.332414,0.612328,0.0141229999999999,-0.015229,0.012733
801,-0.717424,0.332863,0.6119680000000001,0.017854,-0.011559,0.012269
802,-0.7175699999999999,0.333265,0.611579,0.0194039999999999,-0.007215,0.015253
803,-0.717704,0.333548,0.611266,0.016227,-0.0036229999999999,0.013078
804,-0.717804,0.333638,0.6111,0.016845,0.0002089999999999,0.011276
805,-0.717854,0.333468,0.6111340000000001,0.015919,0.00015,0.011287
806,-0.717831,0.333067,0.611379,0.013211,-0.007673,0.005107
807,-0.717727,0.332582,0.611765,0.009902,-0.015108,0.006353
808,-0.717587,0.332176,0.61215,0.008602,-0.015312,0.0091569999999999
809,-0.717438,0.331962,0.61244,0.008011,-0.01908,0.008135
810,-0.71735,0.331941,0.6125550000000001,0.007023,-0.019441,0.00799
811,-0.717301,0.3320909999999999,0.612532,0.009385,-0.0153789999999999,0.010515
812,-0.717341,0.332374,0.61233,0.009242,-0.011588,0.011556
813,-0.717445,0.332713,0.612025,0.01258,-0.010142,0.010076
814,-0.717554,0.333016,0.6117319999999999,0.015512,-0.010674,0.01011
815,-0.717608,0.333215,0.61156,0.019228,-0.009378,0.011014
816,-0.717591,0.333273,0.611549,0.016144,-0.00794,0.011208
817,-0.717551,0.3332239999999999,0.611622,0.009391,-0.006396,0.0116379999999999
818,-0.7175279999999999,0.333097,0.611719,0.009245,-0.010053,0.009237
819,-0.717483,0.332975,0.611839,0.011718,-0.013059,0.008248
820,-0.7174189999999999,0.332892,0.611958,0.008938,-0.012701,0.009837
821,-0.7173930000000001,0.332887,0.611992,0.007554,-0.011888,0.011589
822,-0.71743,0.332945,0.611917,0.007362,-0.012129,0.009086
823,-0.7174590000000001,0.33304,0.611831,0.008948,-0.011019,0.009187
824,-0.717433,0.333137,0.611809,0.012797,-0.008964,0.010139
825,-0.717384,0.33324,0.6118100000000001,0.012306,-0.013233,0.009604
826,-0.7173390000000001,0.333414,0.6117670000000001,0.00895,-0.012019,0.0117989999999999
827,-0.717317,0.333679,0.611648,0.013673,-0.009872,0.008011
828,-0.717306,0.333976,0.611499,0.013036,-0.012291,0.009045
829,-0.71729,0.334275,0.611356,0.013386,-0.010178,0.012042
830,-0.717288,0.334538,0.611213,0.015827,-0.012074,0.012445
831,-0.717298,0.334787,0.611065,0.012327,-0.0111939999999999,0.0104099999999999
832,-0.717292,0.335034,0.6109359999999999,0.01168,-0.013013,0.011348
833,-0.717259,0.335312,0.610823,0.0114019999999999,-0.0127409999999999,0.0088209999999999
834,-0.7171810000000001,0.335604,0.610754,0.013705,-0.012331,0.011178
835,-0.717119,0.335877,0.610677,0.012773,-0.013978,0.009822
836,-0.7170770000000001,0.336165,0.610568,0.008611,-0.012145,0.011014
837,-0.7170880000000001,0.336501,0.610371,0.0099189999999999,-0.0034479999999999,0.009182
838,-0.71711,0.336776,0.610193,0.010872,-0.001556,0.007833
839,-0.7171350000000001,0.336931,0.610078,0.012987,-0.010942,0.009017
840,-0.717126,0.336985,0.610058,0.015161,-0.014933,0.006993
841,-0.717094,0.337014,0.6100800000000001,0.016013,-0.013955,0.012936
842,-0.717069,0.3370039999999999,0.610115,0.015165,-0.0088939999999999,0.011025
843,-0.717025,0.336911,0.610218,0.015868,-0.003583,0.010128
844,-0.716943,0.336572,0.6105010000000001,0.01893,-0.006525,0.007404
845,-0.7166779999999999,0.33608,0.611083,0.008442,-0.011739,0.0067599999999999
846,-0.7164010000000001,0.33566,0.611639,0.006928,-0.015332,0.010111
847,-0.716175,0.335413,0.612039,0.000995,-0.0135139999999999,0.0154479999999999
848,-0.716159,0.335366,0.612083,0.006793,-0.010705,0.011574
849,-0.716151,0.335282,0.612139,0.013102,-0.003297,0.0064069999999999
850,-0.716167,0.335065,0.612239,0.0140949999999999,-0.005856,0.012334
851,-0.71624,0.334787,0.612305,0.008583,-0.018656,0.011673
852,-0.716266,0.334663,0.6123430000000001,0.009982,-0.019706,0.010613
853,-0.716333,0.334755,0.612213,0.011255,-0.01783,0.01062
854,-0.716295,0.334791,0.6122380000000001,0.025148,-0.0137919999999999,0.006643
855,-0.715852,0.334478,0.612927,0.019898,-0.009649,0.003925
856,-0.7151270000000001,0.334108,0.613974,-0.0058049999999999,-0.008745,0.012827
857,-0.714776,0.334043,0.614418,-0.005011,-0.0125709999999999,0.014687
858,-0.714765,0.3341119999999999,0.614394,0.01962,-0.013692,0.010378
859,-0.714551,0.334106,0.614646,0.023739,-0.022186,0.007653
860,-0.7144159999999999,0.3341969999999999,0.614753,0.013427,-0.012801,0.015633
861,-0.714426,0.334305,0.614682,0.008661,-0.003678,0.009677
862,-0.714424,0.334392,0.614636,0.013588,-0.010951,0.004977
863,-0.714603,0.334626,0.614302,0.008258,-0.010804,0.014055
864,-0.714858,0.334818,0.6139,0.0142199999999999,-0.004892,0.010505
865,-0.715009,0.334889,0.613685,0.016691,-0.005711,0.008767
866,-0.715076,0.334791,0.613662,0.011066,-0.010618,0.005601
867,-0.7149840000000001,0.334584,0.6138819999999999,0.012637,-0.013921,0.00477
868,-0.714771,0.334328,0.614269,0.010623,-0.01458,0.005634
869,-0.714608,0.33411,0.614576,0.0067379999999999,-0.009281,0.0192889999999999
870,-0.7147399999999999,0.334042,0.61446,0.008258,-0.011242,0.016507
871,-0.715095,0.3341909999999999,0.613966,0.010978,-0.0129319999999999,0.008562
872,-0.715418,0.334407,0.6134729999999999,0.020197,-0.010783,0.006736
873,-0.715593,0.334458,0.61324,0.01964,-0.012025,0.0071519999999999
874,-0.71567,0.334418,0.613172,0.0133689999999999,-0.00933,0.008243
875,-0.7157439999999999,0.33431,0.6131439999999999,0.007492,-0.008657,0.010025
876,-0.715805,0.334275,0.613092,0.009674,-0.009736,0.0114349999999999
877,-0.7158899999999999,0.334284,0.612988,0.0120019999999999,-0.011927,0.01305
878,-0.71602,0.334313,0.61282,0.014543,-0.012887,0.010379
879,-0.716144,0.334358,0.6126510000000001,0.017551,-0.014213,0.009907
880,-0.716208,0.334377,0.612567,0.017981,-0.012661,0.01373
881,-0.716288,0.334331,0.612498,0.014185,-0.008342,0.012319
882,-0.7164010000000001,0.334279,0.612394,0.005677,-0.011861,0.008135
883,-0.716494,0.334305,0.612271,0.0001699999999999,-0.012482,0.004413
884,-0.716572,0.33441,0.612123,0.006962,-0.009748,0.0019219999999999
885,-0.716579,0.334503,0.612063,0.010097,-0.012161,0.005002
886,-0.716508,0.334554,0.612119,0.010133,-0.0095269999999999,0.008334
887,-0.716394,0.334544,0.612258,0.012674,-0.006145,0.008073
888,-0.716276,0.334483,0.612429,0.014418,-0.009364,0.010496
889,-0.716188,0.334424,0.6125649999999999,0.012117,-0.009534,0.014068
890,-0.716205,0.334357,0.612581,0.013064,-0.006919,0.015105
891,-0.7162970000000001,0.334275,0.6125189999999999,0.013812,-0.011063,0.010711
892,-0.716372,0.3341719999999999,0.612487,0.01253,-0.012883,0.011033
893,-0.7164020000000001,0.334061,0.612512,0.013262,-0.011368,0.011939
894,-0.716403,0.333962,0.6125659999999999,0.0147419999999999,-0.012292,0.012572
895,-0.716376,0.333906,0.612626,0.01644,-0.016447,0.0092
896,-0.716403,0.333891,0.612603,0.0154449999999999,-0.012312,0.008994
897,-0.716458,0.333886,0.612541,0.0155,-0.0123069999999999,0.009056
898,-0.7164659999999999,0.333887,0.612532,0.011205,-0.010278,0.007219
899,-0.7164699999999999,0.333902,0.6125189999999999,0.0048,-0.006372,0.007613
900,-0.7165159999999999,0.333926,0.612452,0.006555,-0.005496,0.009756
901,-0.7165819999999999,0.333942,0.612366,0.010054,-0.010531,0.006439
902,-0.7165819999999999,0.333965,0.6123529999999999,0.011076,-0.011974,0.006376
903,-0.716534,0.33396,0.61241,0.015652,-0.010458,0.011766
904,-0.7164510000000001,0.3339,0.61254,0.017629,-0.010795,0.011758
905,-0.716388,0.333781,0.612679,0.0155979999999999,-0.0090739999999999,0.01345
906,-0.716387,0.333654,0.61275,0.014055,-0.008275,0.012037
907,-0.716461,0.333507,0.612742,0.012451,-0.008099,0.012563
908,-0.716549,0.333314,0.612745,0.011212,-0.0139789999999999,0.0096
909,-0.7166279999999999,0.33316,0.612736,0.012878,-0.014633,0.009517
910,-0.716688,0.3330639999999999,0.6127199999999999,0.009382,-0.0149639999999999,0.008969
911,-0.716703,0.333018,0.612727,0.010175,-0.013011,0.0103959999999999
912,-0.716769,0.333017,0.61265,0.010623,-0.011865,0.011724
913,-0.7168329999999999,0.3330349999999999,0.612567,0.011587,-0.010601,0.00842
914,-0.716878,0.333056,0.6125010000000001,0.011678,-0.011798,0.008104
915,-0.7168939999999999,0.333095,0.612462,0.012197,-0.011394,0.010386
916,-0.716865,0.333082,0.612503,0.00843,-0.009306,0.005538
917,-0.716774,0.3330579999999999,0.6126229999999999,0.011116,-0.006612,0.007937
918,-0.7166939999999999,0.3329539999999999,0.6127729999999999,0.014775,-0.009818,0.00913
919,-0.71663,0.332813,0.612926,0.012299,-0.010715,0.011845
920,-0.716639,0.332712,0.612969,0.012247,-0.012277,0.01496
921,-0.716657,0.332662,0.612975,0.01048,-0.011144,0.011491
922,-0.716658,0.3326469999999999,0.612983,0.012221,-0.010229,0.007821
923,-0.716623,0.332602,0.613047,0.010294,-0.011206,0.008352
924,-0.71658,0.3325619999999999,0.613118,0.012372,-0.010297,0.0091349999999999
925,-0.716534,0.332509,0.613201,0.013211,-0.0131729999999999,0.01273
926,-0.7165020000000001,0.332489,0.61325,0.013453,-0.012008,0.011414
927,-0.716521,0.3324809999999999,0.613232,0.012236,-0.011649,0.011112
928,-0.716558,0.332478,0.613189,0.013296,-0.012471,0.011368
929,-0.716576,0.332509,0.613152,0.008827,-0.009206,0.008171
930,-0.716591,0.33252,0.613128,0.00985,-0.007279,0.010545
931,-0.716611,0.332501,0.613116,0.008527,-0.008236,0.010175
932,-0.716629,0.332458,0.613119,0.010925,-0.012466,0.007456
933,-0.716645,0.332439,0.61311,0.011857,-0.012981,0.009372
934,-0.7166399999999999,0.332455,0.613107,0.013942,-0.011639,0.010855
935,-0.716622,0.332449,0.613132,0.013314,-0.009512,0.0110599999999999
936,-0.716608,0.33243,0.613159,0.012994,-0.0082569999999999,0.0129699999999999
937,-0.7166060000000001,0.332399,0.613178,0.011436,-0.007661,0.010449
938,-0.7166239999999999,0.33235,0.613183,0.009654,-0.007704,0.009101
939,-0.71668,0.332293,0.6131489999999999,0.0123489999999999,-0.008394,0.010493
940,-0.716696,0.332258,0.6131479999999999,0.012793,-0.010343,0.007625
941,-0.716691,0.332215,0.613178,0.014222,-0.0121459999999999,0.008206
942,-0.716676,0.332185,0.613211,0.012544,-0.0118269999999999,0.01124
943,-0.716679,0.3321719999999999,0.613214,0.009068,-0.010959,0.009879
944,-0.716687,0.3321969999999999,0.6131909999999999,0.012066,-0.010419,0.009718
945,-0.716692,0.332227,0.613168,0.0117209999999999,-0.011228,0.008337
946,-0.716681,0.332256,0.613166,0.013159,-0.00854,0.011422
947,-0.716663,0.33226,0.6131850000000001,0.011371,-0.010513,0.010701
948,-0.7166359999999999,0.33225,0.613222,0.011558,-0.0110829999999999,0.010664
949,-0.716594,0.332248,0.613272,0.013255,-0.009754,0.010004
950,-0.716567,0.332267,0.613294,0.013503,-0.009848,0.009188
951,-0.7165590000000001,0.332251,0.613312,0.013297,-0.01113,0.011063
952,-0.716561,0.332232,0.61332,0.014366,-0.010577,0.010444
953,-0.716558,0.332219,0.61333,0.0129449999999999,-0.009847,0.010373
954,-0.716558,0.332192,0.613344,0.011541,-0.012765,0.00897
955,-0.71654,0.332185,0.6133689999999999,0.010287,-0.011247,0.008411
956,-0.716539,0.332175,0.6133770000000001,0.012102,-0.010199,0.012325
957,-0.716558,0.332167,0.613359,0.010962,-0.009093,0.011
958,-0.7165560000000001,0.332162,0.6133649999999999,0.01305,-0.01252,0.008614
959,-0.716527,0.332153,0.613402,0.011235,-0.009094,0.010117
960,-0.7165020000000001,0.3321179999999999,0.613451,0.013835,-0.011576,0.00868
961,-0.716448,0.3320929999999999,0.613528,0.011339,-0.009354,0.008039
962,-0.716408,0.332083,0.61358,0.010079,-0.007605,0.010337
963,-0.716395,0.332074,0.613599,0.010097,-0.007169,0.011843
964,-0.716418,0.3320349999999999,0.613594,0.009326,-0.009175,0.010277
965,-0.716436,0.332022,0.61358,0.010701,-0.0139379999999999,0.007819
966,-0.716439,0.332038,0.613568,0.01455,-0.01377,0.009617
967,-0.716409,0.3320889999999999,0.613576,0.016335,-0.0138819999999999,0.00825
968,-0.7163619999999999,0.332144,0.6136010000000001,0.015465,-0.011648,0.01085
969,-0.716337,0.3321969999999999,0.6136010000000001,0.008954,-0.009382,0.0112459999999999
970,-0.716359,0.332255,0.613544,0.007314,-0.0080209999999999,0.009228
971,-0.7164189999999999,0.332322,0.613437,0.010502,-0.010255,0.0101129999999999
972,-0.71648,0.332392,0.613328,0.012928,-0.011133,0.007873
973,-0.716501,0.332455,0.61327,0.015558,-0.0117,0.009273
974,-0.716487,0.332492,0.613266,0.0125989999999999,-0.011753,0.007981
975,-0.716478,0.332521,0.613261,0.009019,-0.009797,0.008138
976,-0.716478,0.332581,0.613229,0.0098129999999999,-0.010345,0.010413
977,-0.716463,0.332636,0.613215,0.0127739999999999,-0.010935,0.009084
978,-0.716433,0.332683,0.613225,0.013018,-0.011516,0.00912
979,-0.716392,0.332744,0.613241,0.012717,-0.011043,0.008829
980,-0.7163510000000001,0.332807,0.613254,0.013058,-0.010313,0.010144
981,-0.716322,0.332881,0.6132479999999999,0.0107549999999999,-0.009883,0.0094939999999999
982,-0.71629,0.332962,0.613241,0.012768,-0.009094,0.007944
983,-0.716238,0.333023,0.613269,0.012884,-0.01091,0.0125849999999999
984,-0.716213,0.3331119999999999,0.61325,0.012859,-0.010999,0.012604
985,-0.7161890000000001,0.3331989999999999,0.6132310000000001,0.012591,-0.011559,0.011754
986,-0.716186,0.333281,0.613189,0.015106,-0.01068,0.009507
987,-0.716205,0.333367,0.613121,0.015124,-0.010765,0.009575
988,-0.716221,0.333417,0.613075,0.0104099999999999,-0.0105569999999999,0.0085069999999999
989,-0.716213,0.333484,0.6130479999999999,0.011043,-0.010791,0.009618
990,-0.716195,0.333573,0.61302,0.011773,-0.009964,0.010088
991,-0.716174,0.333677,0.612988,0.0112629999999999,-0.012037,0.007542
992,-0.716146,0.333784,0.612962,0.010045,-0.011076,0.008513
993,-0.716114,0.333887,0.6129439999999999,0.009876,-0.009302,0.011598
994,-0.716095,0.33396,0.612926,0.013809,-0.011969,0.009236
995,-0.7160479999999999,0.334021,0.6129479999999999,0.011336,-0.010764,0.0083439999999999
996,-0.716002,0.334117,0.612949,0.009764,-0.006465,0.009304
997,-0.715975,0.334226,0.612921,0.009295,-0.006742,0.01127
998,-0.7159810000000001,0.334318,0.6128640000000001,0.0116049999999999,-0.010099,0.009634
999,-0.715954,0.334419,0.6128399999999999,0.0117299999999999,-0.013603,0.008009
1000,-0.715897,0.3345309999999999,0.612846,0.014801,-0.011793,0.010445
1001,-0.715828,0.334656,0.612858,0.017098,-0.010819,0.009503
1002,-0.715812,0.334781,0.612809,0.015083,-0.010226,0.011917
1003,-0.715842,0.334851,0.612735,0.0109319999999999,-0.005811,0.012234
1004,-0.715896,0.334903,0.612643,0.010406,-0.00716,0.008893
1005,-0.7159399999999999,0.334931,0.612576,0.011045,-0.010621,0.0061979999999999
1006,-0.715959,0.334984,0.612524,0.0114,-0.012718,0.0081269999999999
1007,-0.715935,0.33505,0.612517,0.010719,-0.009977,0.009569
1008,-0.715902,0.335122,0.612516,0.009038,-0.010735,0.008486
1009,-0.7158770000000001,0.335226,0.612488,0.009304,-0.009695,0.007034
1010,-0.715845,0.335348,0.612459,0.010309,-0.010153,0.008574
1011,-0.715785,0.33551,0.6124390000000001,0.009746,-0.010909,0.009097
1012,-0.7157020000000001,0.335675,0.6124470000000001,0.0123629999999999,-0.009244,0.011226
1013,-0.715643,0.33582,0.612436,0.013784,-0.011662,0.009833
1014,-0.715585,0.335925,0.612446,0.014672,-0.010501,0.012066
1015,-0.715538,0.336011,0.612453,0.013253,-0.009382,0.009221
1016,-0.715495,0.336079,0.612466,0.015559,-0.009052,0.008261
1017,-0.715471,0.3361139999999999,0.612476,0.013475,-0.012567,0.010556
1018,-0.715478,0.336144,0.612451,0.012933,-0.012062,0.010046
1019,-0.715494,0.336194,0.612404,0.0134069999999999,-0.0101599999999999,0.010475
1020,-0.715508,0.3362429999999999,0.612362,0.011147,-0.0092319999999999,0.011265
1021,-0.715516,0.336255,0.612345,0.012986,-0.0097629999999999,0.010763
1022,-0.7155189999999999,0.336231,0.612354,0.012775,-0.008015,0.007091
1023,-0.715494,0.3361639999999999,0.61242,0.011393,-0.009626,0.008994
1024,-0.715445,0.33609,0.6125189999999999,0.011053,-0.009018,0.006195
1025,-0.71542,0.335966,0.6126149999999999,0.015484,-0.010206,0.008601
1026,-0.715404,0.335796,0.612727,0.015361,-0.010433,0.008184
1027,-0.71535,0.335613,0.612889,0.009646,-0.0102189999999999,0.009562
1028,-0.715303,0.335416,0.613053,0.01027,-0.006879,0.011535
1029,-0.715255,0.3352199999999999,0.613215,0.010437,-0.007126,0.009573
1030,-0.715225,0.335084,0.613325,0.009094,-0.01349,0.010302
1031,-0.715226,0.335024,0.6133569999999999,0.010758,-0.014407,0.008668
1032,-0.715225,0.335026,0.6133569999999999,0.016846,-0.014271,0.010789
1033,-0.71521,0.335022,0.6133770000000001,0.01738,-0.010482,0.012356
1034,-0.715218,0.334958,0.6134029999999999,0.015526,-0.006711,0.010209
1035,-0.715259,0.334833,0.613422,0.011723,-0.008097,0.014355
1036,-0.715325,0.3346949999999999,0.613421,0.008812,-0.00628,0.010282
1037,-0.715399,0.334555,0.613412,0.011862,-0.008643,0.009711
1038,-0.71545,0.334444,0.613414,0.011958,-0.010408,0.008596
1039,-0.715463,0.33434,0.6134539999999999,0.011667,-0.011769,0.007762
1040,-0.715438,0.334252,0.613532,0.010039,-0.009819,0.007379
1041,-0.7154159999999999,0.334181,0.613595,0.0101549999999999,-0.010237,0.00933
1042,-0.715404,0.334109,0.613648,0.0088609999999999,-0.006854,0.009078
1043,-0.7153729999999999,0.3340599999999999,0.613711,0.009547,-0.009918,0.0068489999999999
1044,-0.715336,0.33403,0.613771,0.010487,-0.010513,0.006698
1045,-0.715302,0.333974,0.613842,0.013932,-0.010686,0.010548
1046,-0.715263,0.333916,0.613919,0.012519,-0.010216,0.011279
1047,-0.715225,0.333825,0.6140140000000001,0.013656,-0.009667,0.010559
1048,-0.715194,0.333761,0.614084,0.010162,-0.01061,0.01145
1049,-0.7151850000000001,0.3336969999999999,0.614128,0.011877,-0.008121,0.009865
1050,-0.715183,0.3336469999999999,0.614158,0.014041,-0.010115,0.010979
1051,-0.715191,0.33359,0.614179,0.012417,-0.011767,0.009677
1052,-0.715209,0.333543,0.614183,0.0139,-0.009156,0.008192
1053,-0.715238,0.333501,0.614173,0.013074,-0.0089,0.007455
1054,-0.7152729999999999,0.333428,0.614172,0.0132919999999999,-0.0108569999999999,0.0081879999999999
1055,-0.7153,0.33336,0.6141770000000001,0.012374,-0.008104,0.006719
1056,-0.71531,0.333293,0.614201,0.012475,-0.010005,0.006893
1057,-0.71528,0.333241,0.614264,0.010767,-0.009312,0.008783
1058,-0.715255,0.333175,0.614329,0.012588,-0.009292,0.008184
1059,-0.71522,0.333111,0.614404,0.0085849999999999,-0.011425,0.0075439999999999
1060,-0.715176,0.3331,0.6144609999999999,0.007473,-0.007783,0.008327
1061,-0.715188,0.333123,0.614434,0.009225,-0.003884,0.012915
1062,-0.715268,0.3331139999999999,0.614347,0.0106629999999999,-0.006759,0.012286
1063,-0.7153689999999999,0.333069,0.6142529999999999,0.012351,-0.009675,0.008031
1064,-0.715429,0.333003,0.61422,0.019109,-0.01121,0.010505
1065,-0.715379,0.332804,0.614386,0.023805,-0.012797,0.0067079999999999
1066,-0.715179,0.332517,0.6147739999999999,0.015304,-0.010877,0.008959
1067,-0.715016,0.332257,0.615104,0.0071909999999999,-0.010282,0.013283
1068,-0.714979,0.332088,0.6152380000000001,0.004988,-0.010036,0.008297
1069,-0.715005,0.332102,0.6152,0.007272,-0.01182,0.008259
1070,-0.715042,0.3322219999999999,0.615093,0.008606,-0.014107,0.0049479999999999
1071,-0.7150340000000001,0.332444,0.614983,0.008674,-0.015809,0.004661
1072,-0.714987,0.3326969999999999,0.6149,0.011587,-0.009455,0.007704
1073,-0.714915,0.333,0.61482,0.01034,-0.0075299999999999,0.011264
1074,-0.714899,0.333289,0.614681,0.010844,-0.004981,0.0090829999999999
1075,-0.714979,0.333521,0.614462,0.007277,-0.000696,0.009943
1076,-0.715132,0.333634,0.614224,0.010725,-0.0003509999999999,0.0105469999999999
1077,-0.715282,0.333566,0.614086,0.016338,0.000251,0.009434
1078,-0.715406,0.333284,0.6140939999999999,0.017301,-0.000719,0.007991
1079,-0.71548,0.33284,0.6142479999999999,0.013789,-0.0044859999999999,0.008783
1080,-0.715531,0.332305,0.614478,0.013382,-0.007353,0.00805
1081,-0.715605,0.331793,0.614668,0.011687,-0.010061,0.01024
1082,-0.715676,0.33134,0.614831,0.00927,-0.013682,0.007483
1083,-0.7157819999999999,0.330988,0.614897,0.009117,-0.013285,0.008287
1084,-0.715878,0.3307719999999999,0.6149020000000001,0.012142,-0.014396,0.007504
1085,-0.71591,0.330671,0.6149180000000001,0.013121,-0.01872,0.0072739999999999
1086,-0.715908,0.330669,0.6149220000000001,0.012326,-0.019161,0.006675
1087,-0.7158479999999999,0.330773,0.614938,0.013913,-0.0178,0.008277
1088,-0.715789,0.330919,0.614927,0.015365,-0.010164,0.008792
1089,-0.715705,0.3310909999999999,0.6149319999999999,0.017432,-0.010367,0.010404
1090,-0.715597,0.33121,0.614993,0.015799,-0.009418,0.010328
1091,-0.715476,0.331359,0.615054,0.0148389999999999,-0.010497,0.009031
1092,-0.715354,0.331484,0.6151300000000001,0.011863,-0.008394,0.0076879999999999
1093,-0.715234,0.331595,0.61521,0.011391,-0.009436,0.0095459999999999
1094,-0.715114,0.331703,0.615291,0.0091659999999999,-0.00959,0.00742
1095,-0.715012,0.331825,0.615344,0.0091709999999999,-0.004615,0.007428
1096,-0.71495,0.331943,0.6153529999999999,0.009521,0.000424,0.010105
1097,-0.714923,0.331972,0.6153689999999999,0.0119049999999999,-0.005144,0.0078
1098,-0.7148800000000001,0.331921,0.615445,0.009283,-0.009381,0.005755
1099,-0.714799,0.331884,0.61556,0.008439,-0.010168,0.009653
1100,-0.714733,0.331893,0.615632,0.009563,-0.0076739999999999,0.009017
1101,-0.714742,0.331906,0.615614,0.011739,-0.008298,0.008806
1102,-0.714793,0.331929,0.6155430000000001,0.011119,-0.004414,0.01051
1103,-0.714893,0.331896,0.615444,0.011524,-0.0009789999999999,0.011158
1104,-0.715013,0.331762,0.615376,0.013796,-0.0039109999999999,0.007564
1105,-0.715117,0.331501,0.615396,0.012556,-0.0070379999999999,0.007391
1106,-0.7151609999999999,0.331184,0.6155149999999999,0.014447,-0.010352,0.008234
1107,-0.71517,0.33081,0.6157060000000001,0.012411,-0.010482,0.008973
1108,-0.715192,0.330492,0.615851,0.010556,-0.012179,0.010813
1109,-0.715244,0.330235,0.6159279999999999,0.0114939999999999,-0.012852,0.00715
1110,-0.715302,0.330077,0.615946,0.011414,-0.014205,0.005956
1111,-0.715337,0.330019,0.6159359999999999,0.0104269999999999,-0.013811,0.008057
1112,-0.7153520000000001,0.33004,0.615908,0.0130509999999999,-0.0105519999999999,0.00955
1113,-0.715363,0.330119,0.615853,0.013016,-0.010188,0.008873
1114,-0.715386,0.33021,0.615777,0.012032,-0.008448,0.009498
1115,-0.7153970000000001,0.330244,0.615745,0.012028,-0.008589,0.00869
1116,-0.715377,0.330258,0.615761,0.012008,-0.008603,0.008675
1117,-0.715329,0.330258,0.6158170000000001,0.0122189999999999,-0.009274,0.009366
1118,-0.715264,0.330243,0.6159,0.012276,-0.008924,0.008505
1119,-0.715204,0.3302199999999999,0.615981,0.011744,-0.009678,0.0088659999999999
1120,-0.715129,0.330201,0.616078,0.0111799999999999,-0.009354,0.0068769999999999
1121,-0.715056,0.330183,0.616172,0.00743,-0.006834,0.007409
1122,-0.714989,0.330188,0.616246,0.010826,-0.009738,0.00645
1123,-0.7149300000000001,0.33019,0.616314,0.010614,-0.010412,0.0100439999999999
1124,-0.714888,0.330229,0.6163420000000001,0.010893,-0.009794,0.008292
1125,-0.7148479999999999,0.330283,0.61636,0.010182,-0.00788,0.009525
1126,-0.714837,0.330327,0.6163489999999999,0.014672,-0.009267,0.009902
1127,-0.714811,0.330375,0.6163529999999999,0.013425,-0.007194,0.008052
1128,-0.7147789999999999,0.330393,0.6163810000000001,0.010754,-0.008356,0.007245
1129,-0.7147560000000001,0.33036,0.616425,0.007923,-0.004265,0.009444
1130,-0.714766,0.330317,0.616437,0.009627,-0.008403,0.009158
1131,-0.714811,0.330294,0.616398,0.010862,-0.012362,0.007091
1132,-0.714845,0.330282,0.6163649999999999,0.014208,-0.0107319999999999,0.009367
1133,-0.714871,0.33025,0.616352,0.0153169999999999,-0.009022,0.006421
1134,-0.714904,0.330192,0.616345,0.014937,-0.006965,0.008533
1135,-0.714923,0.3301159999999999,0.616363,0.01102,-0.008614,0.008393
1136,-0.714965,0.33005,0.616351,0.01248,-0.008639,0.010999
1137,-0.7150270000000001,0.330011,0.6162989999999999,0.011124,-0.009332,0.00719
1138,-0.715105,0.329974,0.616228,0.0129259999999999,-0.010912,0.006178
1139,-0.7151350000000001,0.329932,0.616216,0.013719,-0.010123,0.007533
1140,-0.715142,0.329856,0.6162489999999999,0.0119099999999999,-0.009147,0.006111
1141,-0.715144,0.329785,0.616284,0.010188,-0.009381,0.006702
1142,-0.715147,0.329739,0.616305,0.00984,-0.010388,0.007169
1143,-0.715154,0.329727,0.616304,0.010289,-0.010315,0.0068189999999999
1144,-0.715132,0.329751,0.616316,0.0121599999999999,-0.01011,0.007402
1145,-0.715086,0.329778,0.616356,0.012907,-0.0094349999999999,0.008324
1146,-0.715032,0.329813,0.616399,0.012731,-0.009531,0.009776
1147,-0.7149840000000001,0.329833,0.616444,0.011798,-0.008986,0.00938
1148,-0.714935,0.329872,0.61648,0.013427,-0.009376,0.008718
1149,-0.714899,0.329895,0.616509,0.012995,-0.009766,0.009941
1150,-0.714842,0.32991,0.616567,0.012861,-0.008926,0.008967
1151,-0.714808,0.329912,0.6166050000000001,0.012125,-0.007875,0.009081
1152,-0.714792,0.329908,0.616626,0.010766,-0.008893,0.00697
1153,-0.714788,0.329904,0.616632,0.009923,-0.007333,0.00614
1154,-0.7147640000000001,0.329879,0.6166729999999999,0.010358,-0.0074909999999999,0.006481
1155,-0.7147479999999999,0.329867,0.616698,0.009197,-0.007495,0.008836
1156,-0.714747,0.329857,0.6167050000000001,0.010737,-0.008766,0.008875
1157,-0.714737,0.329859,0.616715,0.011231,-0.008341,0.008834
1158,-0.7147399999999999,0.329862,0.616712,0.011523,-0.008862,0.009463
1159,-0.7147100000000001,0.329831,0.6167630000000001,0.012531,-0.010128,0.00659
1160,-0.71463,0.329821,0.616861,0.008911,-0.007036,0.010169
1161,-0.71459,0.32984,0.616896,0.0088709999999999,-0.007056,0.010134
1162,-0.714607,0.329878,0.6168560000000001,0.011269,-0.0064519999999999,0.011943
1163,-0.714653,0.329924,0.6167779999999999,0.012306,-0.012465,0.007016
1164,-0.714685,0.330036,0.616682,0.012338,-0.012577,0.0071129999999999
1165,-0.714669,0.330155,0.616637,0.012947,-0.011078,0.007844
1166,-0.714649,0.330265,0.6166010000000001,0.0156889999999999,-0.008274,0.009925
1167,-0.714657,0.330358,0.616542,0.014965,-0.006215,0.009266
1168,-0.714696,0.33038,0.616484,0.011465,-0.007306,0.009325
1169,-0.714754,0.330396,0.61641,0.009279,-0.00784,0.009399
1170,-0.71482,0.330419,0.61632,0.010231,-0.010228,0.007566
1171,-0.7148680000000001,0.330461,0.616242,0.010614,-0.010789,0.005614
1172,-0.714862,0.330516,0.61622,0.01253,-0.01002,0.007514
1173,-0.71483,0.330572,0.616226,0.011095,-0.008001,0.008667
1174,-0.7148180000000001,0.330605,0.616223,0.010076,-0.009117,0.007572
1175,-0.714802,0.330686,0.6161979999999999,0.009068,-0.0087099999999999,0.007994
1176,-0.7147720000000001,0.330791,0.6161760000000001,0.011189,-0.009731,0.008275
1177,-0.71473,0.330923,0.616154,0.010445,-0.010717,0.006984
1178,-0.714689,0.331021,0.616149,0.013685,-0.00636,0.008546
1179,-0.714641,0.3311,0.616162,0.011165,-0.008789,0.00835
1180,-0.7145859999999999,0.33115,0.6162,0.008165,-0.009067,0.009761
1181,-0.7145600000000001,0.331253,0.616174,0.011512,-0.007965,0.009696
1182,-0.714562,0.331373,0.616109,0.0136639999999999,-0.007581,0.009669
1183,-0.7145520000000001,0.331455,0.6160760000000001,0.0139759999999999,-0.008732,0.0081
1184,-0.714538,0.3315349999999999,0.61605,0.011917,-0.011253,0.008065
1185,-0.7145279999999999,0.331617,0.6160180000000001,0.011571,-0.0075049999999999,0.008997
1186,-0.714527,0.331727,0.6159600000000001,0.009053,-0.008043,0.0067819999999999
1187,-0.714547,0.331849,0.6158710000000001,0.011025,-0.009339,0.0071
1188,-0.714575,0.331972,0.615772,0.012229,-0.010057,0.006756
1189,-0.714572,0.332081,0.615718,0.011645,-0.0066409999999999,0.0092819999999999
1190,-0.714555,0.332178,0.615686,0.014009,-0.009134,0.009101
1191,-0.714537,0.332255,0.615665,0.0117019999999999,-0.010844,0.006726
1192,-0.714512,0.332385,0.6156229999999999,0.008458,-0.006656,0.0063409999999999
1193,-0.714498,0.332526,0.615563,0.008398,-0.00463,0.009437
1194,-0.714531,0.332637,0.6154649999999999,0.010582,-0.005611,0.006681
1195,-0.714562,0.33274,0.615373,0.014336,-0.00695,0.003722
1196,-0.714522,0.332759,0.61541,0.016768,-0.012065,0.0085989999999999
1197,-0.7144050000000001,0.33273,0.6155609999999999,0.016025,-0.011319,0.009912
1198,-0.714241,0.332703,0.615766,0.016685,-0.012695,0.009615
1199,-0.71409,0.3327199999999999,0.615931,0.009363,-0.012514,0.009939
1200,-0.714023,0.332839,0.615945,0.002276,-0.009002,0.0111
1201,-0.7140770000000001,0.333125,0.6157279999999999,0.002651,-0.009486,0.009241
1202,-0.714201,0.333561,0.615348,0.004896,-0.012272,0.0089959999999999
1203,-0.714316,0.334065,0.614942,0.007849,-0.010578,0.00571
1204,-0.7143609999999999,0.334493,0.6146560000000001,0.015249,-0.004293,0.008742
1205,-0.71438,0.334768,0.614484,0.014383,-0.001256,0.008059
1206,-0.7144149999999999,0.33487,0.614388,0.014631,-0.00293,0.007178
1207,-0.714445,0.334834,0.614372,0.012816,-0.003016,0.007851
1208,-0.714464,0.334715,0.614414,0.011736,-0.004957,0.010693
1209,-0.714457,0.334525,0.614526,0.01269,-0.006842,0.007712
1210,-0.7144199999999999,0.334248,0.6147199999999999,0.01308,-0.008869,0.005931
1211,-0.714349,0.333976,0.61495,0.011727,-0.010917,0.0070739999999999
1212,-0.714234,0.333784,0.615188,0.009141,-0.014784,0.0071719999999999
1213,-0.714121,0.333721,0.6153529999999999,0.011103,-0.0164139999999999,0.0069
1214,-0.714022,0.333779,0.615437,0.00963,-0.016915,0.01086
1215,-0.713986,0.334,0.615358,0.007077,-0.016815,0.008986
1216,-0.713997,0.334367,0.615146,0.010094,-0.01323,0.007703
1217,-0.7140489999999999,0.334827,0.614835,0.01039,-0.011478,0.010317
1218,-0.7141,0.335285,0.614527,0.01247,-0.009617,0.007833
1219,-0.7141270000000001,0.33564,0.614301,0.017518,-0.007729,0.009066
1220,-0.7141350000000001,0.335825,0.61419,0.018029,-0.00471,0.008383
1221,-0.71412,0.335769,0.614239,0.022958,-0.00328,0.009266
1222,-0.714046,0.335542,0.614449,0.0155139999999999,-0.006837,0.007759
1223,-0.713987,0.335223,0.614691,0.005994,-0.00072,0.008569
1224,-0.713962,0.3348489999999999,0.614924,0.005527,-0.004358,0.004781
1225,-0.7139449999999999,0.334488,0.615142,0.00464,-0.010727,0.002687
1226,-0.713916,0.334182,0.615341,0.006305,-0.014907,0.00351
1227,-0.71383,0.333984,0.615548,0.011208,-0.015518,0.0053939999999999
1228,-0.713733,0.333894,0.6157090000000001,0.0148949999999999,-0.013399,0.008391
1229,-0.7136859999999999,0.333899,0.615761,0.012498,-0.00878,0.009331
1230,-0.713689,0.333911,0.615751,0.0132639999999999,-0.004978,0.012072
1231,-0.713755,0.333856,0.615704,0.012079,-0.008936,0.010227
1232,-0.713816,0.333768,0.615681,0.012629,-0.007566,0.009868
1233,-0.71387,0.333651,0.615682,0.012424,-0.010729,0.006037
1234,-0.7138899999999999,0.333551,0.615714,0.014366,-0.011148,0.0095459999999999
1235,-0.713896,0.333424,0.615775,0.011961,-0.0119519999999999,0.0111019999999999
1236,-0.713919,0.333303,0.6158140000000001,0.0086579999999999,-0.008275,0.008729
1237,-0.713972,0.333213,0.615801,0.007856,-0.009056,0.006499
1238,-0.71401,0.3331469999999999,0.615791,0.009573,-0.007754,0.003594
1239,-0.714039,0.333069,0.6158,0.010487,-0.009507,0.006743
1240,-0.714029,0.332993,0.615853,0.011056,-0.011902,0.002098
1241,-0.714015,0.332969,0.6158819999999999,0.009455,-0.00965,0.008065
1242,-0.713992,0.332945,0.6159220000000001,0.010699,-0.008436,0.007842
1243,-0.7139449999999999,0.332916,0.615992,0.0109719999999999,-0.009766,0.007193
1244,-0.713912,0.332868,0.616056,0.0127549999999999,-0.009489,0.00873
1245,-0.7138760000000001,0.332812,0.616128,0.0129169999999999,-0.008792,0.009696
1246,-0.7138439999999999,0.332733,0.616208,0.013817,-0.0064849999999999,0.009159
1247,-0.713812,0.3326429999999999,0.616294,0.009665,-0.008776,0.011575
1248,-0.713827,0.33257,0.616316,0.00968,-0.008702,0.011553
1249,-0.713857,0.3325329999999999,0.6163029999999999,0.012715,-0.009886,0.007553
1250,-0.713879,0.332493,0.6162979999999999,0.011395,-0.005757,0.007115
1251,-0.71392,0.332432,0.616284,0.011436,-0.005696,0.007129
1252,-0.713923,0.33236,0.616319,0.011393,-0.011132,0.006301
1253,-0.7139310000000001,0.332309,0.616337,0.008823,-0.0059689999999999,0.007595
1254,-0.713939,0.332257,0.616355,0.009914,-0.007458,0.010903
1255,-0.713954,0.332182,0.616378,0.008739,-0.0075209999999999,0.006928
1256,-0.713996,0.332096,0.6163770000000001,0.010947,-0.01244,0.004457
1257,-0.714001,0.332066,0.616387,0.011349,-0.011937,0.004768
1258,-0.7139800000000001,0.332067,0.6164109999999999,0.0154939999999999,-0.009206,0.008818
1259,-0.713958,0.332048,0.616448,0.013686,-0.008928,0.008491
1260,-0.71394,0.332013,0.616487,0.0125849999999999,-0.006009,0.0068349999999999
1261,-0.713957,0.331975,0.6164890000000001,0.009733,-0.006673,0.00903
1262,-0.714016,0.331905,0.6164569999999999,0.01112,-0.005153,0.009306
1263,-0.714074,0.331822,0.6164350000000001,0.012582,-0.008931,0.007772
1264,-0.714083,0.331712,0.616483,0.013781,-0.011034,0.007128
1265,-0.714029,0.3316,0.616606,0.013696,-0.010799,0.0083319999999999
1266,-0.713974,0.331514,0.6167159999999999,0.008438,-0.008028,0.00775
1267,-0.713935,0.331429,0.616807,0.006965,-0.010476,0.006743
1268,-0.7139260000000001,0.331441,0.616811,0.006895,-0.009022,0.0085709999999999
1269,-0.7138939999999999,0.331463,0.6168359999999999,0.0136379999999999,-0.011548,0.00589
1270,-0.713856,0.331446,0.6168899999999999,0.009739,-0.011316,0.009179
1271,-0.713843,0.331484,0.616885,0.013724,-0.0099049999999999,0.007749
1272,-0.713831,0.331467,0.616908,0.012201,-0.006973,0.009206
1273,-0.7138180000000001,0.331399,0.616958,0.01135,-0.007592,0.0077819999999999
1274,-0.713821,0.331361,0.616975,0.010879,-0.007814,0.0083
1275,-0.713834,0.331325,0.61698,0.012296,-0.01057,0.00831
1276,-0.713852,0.331285,0.61698,0.012558,-0.008684,0.007837
1277,-0.713874,0.331264,0.616966,0.012213,-0.00671,0.009637
1278,-0.7139260000000001,0.331215,0.6169319999999999,0.010251,-0.0064769999999999,0.007198
1279,-0.7139479999999999,0.331137,0.6169479999999999,0.01061,-0.014486,0.003017
1280,-0.713908,0.3311949999999999,0.616963,0.007609,-0.0076019999999999,0.008693
1281,-0.713965,0.3312989999999999,0.616842,0.014594,-0.008698,0.007289
1282,-0.713972,0.331359,0.616803,0.013059,-0.0106959999999999,0.005298
1283,-0.713932,0.331432,0.6168100000000001,0.008289,-0.007351,0.006206
1284,-0.713918,0.331492,0.616793,0.010214,-0.002329,0.006421
1285,-0.713923,0.331501,0.616783,0.012675,-0.0050079999999999,0.00811
1286,-0.71394,0.331487,0.616771,0.011211,-0.008702,0.0066879999999999
1287,-0.713952,0.331451,0.616777,0.011773,-0.0092769999999999,0.0064379999999999
1288,-0.713935,0.331394,0.616826,0.01612,-0.009663,0.009684
1289,-0.713884,0.3313,0.6169359999999999,0.013475,-0.008577,0.007545
1290,-0.713863,0.331192,0.6170180000000001,0.011867,-0.0068959999999999,0.008654
1291,-0.713865,0.331115,0.617056,0.009077,-0.007918,0.008295
1292,-0.713912,0.331054,0.617035,0.010589,-0.007339,0.0071719999999999
1293,-0.713967,0.331016,0.616992,0.011895,-0.010856,0.005414
1294,-0.713972,0.330978,0.617007,0.01454,-0.01181,0.004499
1295,-0.713918,0.330958,0.6170800000000001,0.010473,-0.0077769999999999,0.0088659999999999
1296,-0.7138979999999999,0.330961,0.617101,0.0103,-0.008848,0.00735
1297,-0.713912,0.3310059999999999,0.617061,0.0074909999999999,-0.008512,0.00829
1298,-0.713914,0.3310659999999999,0.6170260000000001,0.0130169999999999,-0.007625,0.006311
1299,-0.713918,0.3311199999999999,0.616993,0.011327,-0.008442,0.008053
1300,-0.713913,0.3311679999999999,0.6169720000000001,0.0118409999999999,-0.007316,0.006273
1301,-0.713912,0.331185,0.6169640000000001,0.0111989999999999,-0.007973,0.008265
1302,-0.7139220000000001,0.331187,0.6169520000000001,0.012369,-0.0076549999999999,0.006354
1303,-0.713914,0.331164,0.616975,0.010605,-0.008197,0.007568
1304,-0.713892,0.331119,0.617023,0.011408,-0.008533,0.009411
1305,-0.713884,0.331045,0.617073,0.012865,-0.009192,0.008187
1306,-0.713925,0.331104,0.616993,0.007504,-0.009709,0.00848
1307,-0.714105,0.331386,0.616633,0.002832,-0.0035659999999999,0.012319
1308,-0.714605,0.331997,0.615725,0.0016989999999999,-0.007565,0.012556
1309,-0.7155,0.332926,0.614182,0.00563,-0.0068,0.009079
1310,-0.7165729999999999,0.334101,0.61229,0.008245,-0.013834,0.009765
1311,-0.717957,0.335526,0.609885,-0.004852,-0.006089,0.0101409999999999
1312,-0.719114,0.336942,0.607737,0.02284,-0.011029,0.0155229999999999
1313,-0.720145,0.33805,0.6058979999999999,0.022177,-0.0146699999999999,-0.020373
1314,-0.7204189999999999,0.338756,0.605179,0.011175,-0.009136,0.002747
1315,-0.720536,0.3391,0.604847,0.012208,-0.0001409999999999,0.011212
1316,-0.720618,0.3392969999999999,0.604638,0.014747,-0.005602,0.0178289999999999
1317,-0.7207939999999999,0.33952,0.6043029999999999,0.018356,-0.016217,0.010962
1318,-0.720924,0.339753,0.604016,0.015709,-0.01236,0.0088069999999999
1319,-0.721009,0.3400019999999999,0.603776,0.012268,-0.008093,0.013808
1320,-0.721112,0.340203,0.603538,0.011167,-0.006936,0.008293
1321,-0.721264,0.340343,0.603278,0.012875,-0.004985,0.007592
1322,-0.721422,0.340413,0.603049,0.012286,-0.0046429999999999,0.004647
1323,-0.721538,0.340404,0.602915,0.011242,-0.005627,0.004538
1324,-0.721647,0.340427,0.602772,0.00842,-0.008304,0.00468
1325,-0.721753,0.340504,0.602601,0.007886,-0.006474,0.005187
1326,-0.721863,0.340569,0.602433,0.007111,-0.006508,0.003326
1327,-0.721965,0.340651,0.6022649999999999,0.005534,-0.0081459999999999,0.0071709999999999
1328,-0.722023,0.340757,0.6021350000000001,0.009941,-0.006879,0.0084
1329,-0.7220340000000001,0.340887,0.6020479999999999,0.014713,-0.008123,0.011096
1330,-0.7220409999999999,0.341034,0.601956,0.013927,-0.007705,0.010669
1331,-0.722068,0.341156,0.601854,0.011131,-0.00415,0.008558
1332,-0.722087,0.341215,0.6017979999999999,0.0140639999999999,-0.004347,0.0063869999999999
1333,-0.722057,0.341202,0.601842,0.0135909999999999,-0.004746,0.007624
1334,-0.7219760000000001,0.341143,0.6019720000000001,0.008796,-0.002917,0.005083
1335,-0.721929,0.340981,0.602121,0.010458,-0.002861,0.0048119999999999
1336,-0.721839,0.340752,0.602359,0.0129,-0.005593,0.003934
1337,-0.72173,0.34046,0.602654,0.011876,-0.009192,0.008003
1338,-0.721661,0.340196,0.602885,0.009351,-0.011873,0.00977
1339,-0.7216279999999999,0.340062,0.603001,0.007639,-0.011525,0.009029
1340,-0.721605,0.340011,0.603057,0.015901,-0.010574,0.0085
1341,-0.721584,0.340049,0.603059,0.015881,-0.010612,0.008498
1342,-0.721565,0.340113,0.603047,0.013084,-0.005182,0.010707
1343,-0.721558,0.340133,0.603043,0.008805,-0.002991,0.008163
1344,-0.7215560000000001,0.340113,0.603058,0.010099,-0.005442,0.006653
1345,-0.721565,0.340092,0.603059,0.008568,-0.00716,0.004333
1346,-0.721557,0.340102,0.603063,0.009994,-0.011611,0.009974
1347,-0.7215739999999999,0.340234,0.602967,0.010316,-0.0114069999999999,0.011962
1348,-0.7216279999999999,0.340466,0.602772,0.011636,-0.008984,0.007824
1349,-0.721742,0.340688,0.60251,0.014512,-0.003453,0.008757
1350,-0.721912,0.340852,0.602213,0.014454,-0.003297,0.00826
1351,-0.722096,0.340922,0.601953,0.010655,-0.001871,0.009131
1352,-0.722248,0.340893,0.6017859999999999,0.0127599999999999,-0.003979,0.00678
1353,-0.722336,0.3408,0.6017319999999999,0.007035,-0.003184,0.0064069999999999
1354,-0.722399,0.340665,0.601733,0.0025039999999999,-0.004529,0.002805
1355,-0.722403,0.340526,0.601807,0.002478,-0.005062,0.002746
1356,-0.7223189999999999,0.340389,0.601985,0.0122659999999999,-0.007625,0.002873
1357,-0.722146,0.340286,0.602251,0.005319,-0.005859,0.005872
1358,-0.722003,0.340177,0.602485,0.007999,-0.008969,0.0035789999999999
1359,-0.721897,0.340123,0.602643,0.0169099999999999,-0.011082,0.009982
1360,-0.721816,0.3401119999999999,0.602745,0.020415,-0.010064,0.017403
1361,-0.72178,0.340133,0.602777,0.015512,-0.01068,0.0113739999999999
1362,-0.721819,0.340185,0.602701,0.004259,-0.0086579999999999,0.003821
1363,-0.721846,0.340313,0.602595,0.007277,-0.009533,0.002736
1364,-0.72178,0.340461,0.602592,0.017755,-0.00524,0.009087
1365,-0.7216060000000001,0.340566,0.602741,0.012027,-0.003575,0.007672
1366,-0.7214619999999999,0.340603,0.602892,0.003689,-0.009533,0.0055829999999999
1367,-0.7213470000000001,0.340661,0.602997,0.007465,-0.0019309999999999,0.0053869999999999
1368,-0.7212,0.340721,0.603139,0.017343,0.000786,0.009776
1369,-0.721078,0.3406969999999999,0.603298,0.016717,-0.001037,0.014027
1370,-0.721129,0.3406099999999999,0.6032850000000001,0.0131669999999999,-0.003834,0.012376
1371,-0.721317,0.340519,0.603114,0.012424,-0.005542,0.010747
1372,-0.721498,0.340419,0.602953,0.01793,-0.004649,0.0079329999999999
1373,-0.721378,0.340089,0.603282,0.026676,-0.019562,0.0029649999999999
1374,-0.721111,0.33964,0.603854,0.023769,-0.0051979999999999,-0.023867
1375,-0.71921,0.3381639999999999,0.606941,0.037692,0.009248,-0.055702
1376,-0.717601,0.331701,0.612387,0.043453,0.017557,0.130762
1377,-0.717123,0.326701,0.615627,-0.004877,-0.130458,-0.079632
1378,-0.71282,0.33028,0.618707,-0.147593,0.083385,-0.062784
1379,-0.713846,0.331572,0.616831,-0.018316,0.018557,0.048147
1380,-0.713863,0.331908,0.616631,0.022701,0.002641,0.056129
1381,-0.714478,0.3321429999999999,0.615792,0.069199,-0.03571,0.0307379999999999
1382,-0.715304,0.3319269999999999,0.61495,0.052492,-0.0220509999999999,-0.00472
1383,-0.715906,0.331808,0.614312,0.023005,-0.014166,-0.009682
1384,-0.716183,0.3319809999999999,0.613895,0.023877,-0.008143,0.017223
1385,-0.716172,0.33184,0.613984,0.019822,-0.002876,0.013046
1386,-0.716249,0.331489,0.614085,0.006364,0.000466,0.0065969999999999
1387,-0.7163470000000001,0.330947,0.614262,-0.000847,0.003006,0.010341
1388,-0.716241,0.330377,0.614693,0.001077,-0.009347,-0.0038229999999999
1389,-0.71604,0.330026,0.615116,0.00025,-0.013452,-0.002568
1390,-0.716058,0.330119,0.615045,0.0008939999999999,-0.022029,0.013541
1391,-0.71621,0.3304809999999999,0.6146739999999999,0.018959,-0.0132199999999999,0.000362
1392,-0.71633,0.330846,0.6143390000000001,0.0146539999999999,-0.018407,0.005458
1393,-0.716433,0.331332,0.6139560000000001,0.006228,-0.006167,0.0043
1394,-0.716497,0.331819,0.613618,0.011114,-0.0027329999999999,0.007888
1395,-0.716613,0.332152,0.6133029999999999,0.017562,-0.0016769999999999,0.006692
1396,-0.716639,0.332201,0.613247,0.020441,-0.001147,0.002934
1397,-0.716571,0.331971,0.61345,0.019672,-0.001572,0.00421
1398,-0.7163619999999999,0.331568,0.613912,0.011864,-0.007913,0.006251
1399,-0.7161,0.3311739999999999,0.6144310000000001,0.005727,-0.011915,0.0068769999999999
1400,-0.715878,0.330942,0.6148140000000001,0.00311,-0.0095459999999999,0.0090879999999999
1401,-0.7158,0.330904,0.614925,0.00564,-0.011888,0.0112959999999999
1402,-0.715805,0.33105,0.6148399999999999,0.008865,-0.015498,0.009366
1403,-0.715824,0.331349,0.614658,0.01012,-0.016789,0.004788
1404,-0.7158140000000001,0.33174,0.6144569999999999,0.011408,-0.013472,0.006575
1405,-0.715765,0.332103,0.614319,0.014349,-0.007899,0.009231
1406,-0.7157220000000001,0.332394,0.614212,0.01809,-0.0070459999999999,0.011734
1407,-0.715741,0.332572,0.614093,0.018002,-0.004325,0.009106
1408,-0.715827,0.332683,0.613933,0.012809,-0.0036119999999999,0.010624
1409,-0.716001,0.332702,0.6137199999999999,0.0088019999999999,-0.005539,0.005345
1410,-0.716162,0.332679,0.613545,0.010641,-0.008033,0.004787
1411,-0.716209,0.332628,0.613518,0.010077,-0.008959,0.003349
1412,-0.716158,0.332573,0.613607,0.0057079999999999,-0.007759,0.004161
1413,-0.716125,0.33249,0.613689,0.006301,-0.00673,0.004429
1414,-0.71606,0.332461,0.61378,0.0059159999999999,-0.008517,0.0037119999999999
1415,-0.715979,0.332519,0.613843,0.009604,-0.01152,0.004657
1416,-0.715888,0.3326409999999999,0.613884,0.008734,-0.010085,0.006553
1417,-0.715793,0.332819,0.613899,0.010288,-0.0080819999999999,0.007363
1418,-0.715746,0.332969,0.613872,0.0126209999999999,-0.006202,0.010533
1419,-0.715716,0.333068,0.613853,0.012988,-0.007904,0.007348
1420,-0.7157,0.333134,0.6138359999999999,0.0141319999999999,-0.007817,0.0072879999999999
1421,-0.715687,0.3331909999999999,0.61382,0.012669,-0.006546,0.010753
1422,-0.715711,0.3332199999999999,0.6137779999999999,0.012692,-0.007979,0.009483
1423,-0.715759,0.3332469999999999,0.613707,0.0131069999999999,-0.01005,0.009843
1424,-0.715834,0.333286,0.613598,0.010313,-0.008426,0.0077849999999999
1425,-0.715913,0.333362,0.613464,0.012086,-0.008884,0.004913
1426,-0.715985,0.333504,0.613302,0.010159,-0.008248,0.00625
1427,-0.71603,0.333625,0.6131840000000001,0.012569,-0.009543,0.006231
1428,-0.716071,0.333727,0.613079,0.011054,-0.006945,0.006336
1429,-0.716072,0.333865,0.613002,0.00698,-0.00371,0.007252
1430,-0.71607,0.334004,0.612927,0.008841,-0.005177,0.006382
1431,-0.716055,0.3341449999999999,0.6128680000000001,0.009329,-0.006798,0.005785
1432,-0.716012,0.334258,0.612857,0.012673,-0.011031,0.003903
1433,-0.715899,0.3343239999999999,0.612954,0.012484,-0.010273,0.009086
1434,-0.715765,0.334411,0.613063,0.013326,-0.010329,0.01064
1435,-0.715669,0.334495,0.613128,0.014787,-0.006859,0.008637
1436,-0.71563,0.334573,0.613133,0.013252,-0.004419,0.010723
1437,-0.715634,0.334568,0.6131300000000001,0.012616,-0.002445,0.011489
1438,-0.715675,0.334469,0.613136,0.012794,-0.006497,0.008064
1439,-0.715721,0.334341,0.613152,0.012443,-0.0074819999999999,0.005439
1440,-0.715727,0.334188,0.613228,0.013472,-0.007909,0.006874
1441,-0.715715,0.334,0.613344,0.011079,-0.00795,0.007459
1442,-0.715698,0.3338,0.613472,0.007019,-0.009612,0.007637
1443,-0.715708,0.3336699999999999,0.613532,0.007715,-0.008276,0.0066459999999999
1444,-0.715737,0.3336179999999999,0.613526,0.0096519999999999,-0.011352,0.006668
1445,-0.715734,0.333642,0.613516,0.010046,-0.010567,0.004679
1446,-0.7157399999999999,0.333692,0.613482,0.010647,-0.008481,0.008421
1447,-0.715747,0.333717,0.61346,0.012806,-0.006431,0.006291
1448,-0.71573,0.333696,0.613491,0.012483,-0.006716,0.00684
1449,-0.715709,0.333667,0.613532,0.011317,-0.004993,0.00889
1450,-0.715715,0.33358,0.613572,0.0127879999999999,-0.007194,0.008681
1451,-0.715721,0.333484,0.613618,0.011772,-0.00899,0.0077959999999999
1452,-0.715757,0.333405,0.6136199999999999,0.011518,-0.007095,0.0101599999999999
1453,-0.715783,0.333328,0.613631,0.01133,-0.007294,0.007325
1454,-0.715803,0.33324,0.6136560000000001,0.0126319999999999,-0.00983,0.004692
1455,-0.7157859999999999,0.333173,0.613711,0.01086,-0.0118079999999999,0.00633
1456,-0.715809,0.333167,0.613689,0.0108069999999999,-0.006461,0.007741
1457,-0.715849,0.333095,0.613681,0.013899,-0.009059,0.007199
1458,-0.7158220000000001,0.33303,0.613747,0.010485,-0.009528,0.0082469999999999
1459,-0.715777,0.3330329999999999,0.613798,0.005175,-0.0067849999999999,0.0070819999999999
1460,-0.715787,0.333068,0.6137670000000001,0.0086489999999999,-0.005141,0.009417
1461,-0.715842,0.3331139999999999,0.613678,0.011694,-0.0078269999999999,0.00885
1462,-0.7158680000000001,0.33316,0.613622,0.012346,-0.010025,0.007609
1463,-0.715866,0.333185,0.61361,0.016495,-0.01005,0.007179
1464,-0.715832,0.3331949999999999,0.613645,0.016796,-0.008366,0.006564
1465,-0.715792,0.333157,0.613711,0.0152,-0.007183,0.008817
1466,-0.715766,0.333094,0.613776,0.01174,-0.006418,0.011224
1467,-0.715816,0.333014,0.6137600000000001,0.008602,-0.005927,0.007532
1468,-0.715939,0.332987,0.613631,0.008511,-0.0069069999999999,0.0099189999999999
1469,-0.716086,0.332942,0.613484,0.011939,-0.011699,0.005581
1470,-0.716154,0.332909,0.613422,0.013411,-0.009377,0.005032
1471,-0.716113,0.332848,0.613502,0.0079069999999999,-0.007378,0.010384
1472,-0.716105,0.332827,0.613524,0.005884,-0.0049759999999999,0.0085469999999999
1473,-0.716154,0.332833,0.613462,0.0060409999999999,-0.005562,0.008334
1474,-0.7162350000000001,0.332883,0.61334,0.0149259999999999,-0.011258,0.006884
1475,-0.716274,0.332923,0.613272,0.018871,-0.009849,0.00567
1476,-0.716182,0.332884,0.613401,0.017299,-0.010832,0.009249
1477,-0.7160340000000001,0.3327719999999999,0.613635,0.009903,-0.0077599999999999,0.0108609999999999
1478,-0.715912,0.332684,0.613825,0.007706,-0.00848,0.010809
1479,-0.7158479999999999,0.332662,0.613912,0.0087099999999999,-0.0098319999999999,0.010249
1480,-0.715807,0.332743,0.613916,0.009737,-0.011195,0.00788
1481,-0.715812,0.332899,0.6138239999999999,0.0082469999999999,-0.0095959999999999,0.009009
1482,-0.715852,0.333122,0.613658,0.0097819999999999,-0.010276,0.0090829999999999
1483,-0.715912,0.333354,0.613462,0.011429,-0.003489,0.008028
1484,-0.716013,0.33355,0.613237,0.011973,-0.0037619999999999,0.009276
1485,-0.716166,0.333685,0.612985,0.0152539999999999,-0.004508,0.0077269999999999
1486,-0.7163,0.333681,0.612831,0.014579,-0.002215,0.00869
1487,-0.716413,0.333547,0.612772,0.014921,-0.003378,0.010626
1488,-0.716547,0.333257,0.6127739999999999,0.017374,-0.007054,0.006656
1489,-0.7166140000000001,0.332895,0.612893,0.01117,-0.010125,0.008323
1490,-0.716629,0.332545,0.613066,0.00914,-0.008219,0.007982
1491,-0.716623,0.332243,0.613236,0.010584,-0.009016,0.007568
1492,-0.716587,0.332003,0.613408,0.010456,-0.014315,0.008312
1493,-0.716537,0.331879,0.613533,0.010452,-0.018769,0.007286
1494,-0.7164510000000001,0.331935,0.6136050000000001,0.01241,-0.017116,0.007519
1495,-0.716318,0.332094,0.6136729999999999,0.015299,-0.013857,0.0103959999999999
1496,-0.716241,0.332348,0.613626,0.011819,-0.010845,0.011694
1497,-0.716246,0.332677,0.613442,0.0116709999999999,-0.008672,0.013786
1498,-0.71632,0.332985,0.6131880000000001,0.012386,-0.00515,0.0123
1499,-0.716454,0.333242,0.612892,0.0139389999999999,-0.003195,0.0100019999999999
1500,-0.716588,0.333402,0.612649,0.0154,-0.004606,0.007835
1501,-0.716673,0.333409,0.612545,0.015853,-0.003895,0.007801
1502,-0.716703,0.333283,0.612577,0.009489,-0.004349,0.008318
1503,-0.716742,0.333046,0.612661,0.010001,-0.00605,0.008631
1504,-0.716805,0.332776,0.612733,0.009332,-0.005094,0.008361
1505,-0.716824,0.332496,0.6128640000000001,0.0124319999999999,-0.010978,0.004827
1506,-0.716803,0.332232,0.613031,0.0131139999999999,-0.011523,0.0067959999999999
1507,-0.716725,0.332034,0.613229,0.01093,-0.012652,0.008017
1508,-0.716615,0.331884,0.6134390000000001,0.009203,-0.011404,0.009669
1509,-0.716513,0.331848,0.613578,0.008277,-0.011032,0.01069
1510,-0.716453,0.3319,0.6136199999999999,0.01107,-0.010779,0.011853
1511,-0.716437,0.332046,0.61356,0.009741,-0.012938,0.0112719999999999
1512,-0.716488,0.3322489999999999,0.61339,0.014843,-0.00835,0.0101599999999999
1513,-0.7165520000000001,0.332453,0.613204,0.016143,-0.007944,0.01085
1514,-0.716618,0.332606,0.6130439999999999,0.016728,-0.005885,0.01011
1515,-0.716666,0.332662,0.612958,0.016119,-0.005757,0.009784
1516,-0.716684,0.332628,0.612954,0.010202,-0.005357,0.009208
1517,-0.716717,0.332516,0.6129760000000001,0.013546,-0.005017,0.009064
1518,-0.716688,0.332353,0.6130979999999999,0.01132,-0.011095,0.007462
1519,-0.716711,0.332276,0.613113,0.01151,-0.008225,0.008667
1520,-0.716727,0.332194,0.613138,0.011008,-0.010005,0.007712
1521,-0.7167020000000001,0.332106,0.613216,0.0117,-0.011137,0.007802
1522,-0.716658,0.332068,0.613288,0.011961,-0.011068,0.009637
1523,-0.716607,0.332097,0.613332,0.010567,-0.0069319999999999,0.010005
1524,-0.716581,0.332163,0.613326,0.013136,-0.004298,0.012971
1525,-0.716588,0.3322219999999999,0.613286,0.012471,-0.005882,0.010509
1526,-0.716592,0.332268,0.6132569999999999,0.012613,-0.0101549999999999,0.009195
1527,-0.716581,0.332296,0.613255,0.017637,-0.011235,0.0136979999999999
1528,-0.716577,0.332333,0.613239,0.016962,-0.00964,0.010739
1529,-0.716585,0.33236,0.613215,0.015733,-0.009515,0.013586
1530,-0.716635,0.332355,0.613159,0.0148069999999999,-0.005786,0.014466
1531,-0.716703,0.3322969999999999,0.613111,0.010969,-0.006033,0.011156
1532,-0.716803,0.332236,0.613027,0.011359,-0.007361,0.009623
1533,-0.716901,0.332203,0.612931,0.01225,-0.010426,0.0054009999999999
1534,-0.716952,0.332169,0.612889,0.012957,-0.010697,0.009288
1535,-0.716943,0.332134,0.612919,0.012185,-0.008159,0.006939
1536,-0.716895,0.3320849999999999,0.613002,0.009757,-0.008995,0.009602
1537,-0.716896,0.332104,0.612991,0.010582,-0.010525,0.010484
1538,-0.71692,0.332158,0.612933,0.015061,-0.00794,0.009336
1539,-0.71691,0.332225,0.612908,0.013312,-0.0097299999999999,0.010475
1540,-0.716873,0.332281,0.612921,0.015396,-0.008352,0.012827
1541,-0.716858,0.332344,0.612904,0.0130009999999999,-0.010719,0.012981
1542,-0.7168720000000001,0.332384,0.612866,0.012191,-0.010881,0.011341
1543,-0.716857,0.332414,0.6128680000000001,0.015075,-0.00937,0.01053
1544,-0.716849,0.332452,0.612857,0.015021,-0.007714,0.011685
1545,-0.716871,0.3324789999999999,0.6128170000000001,0.01576,-0.008459,0.011176
1546,-0.716905,0.332491,0.61277,0.0152909999999999,-0.008608,0.011756
1547,-0.71695,0.332475,0.612727,0.011567,-0.009523,0.008901
1548,-0.716996,0.332468,0.612677,0.013581,-0.0100959999999999,0.00802
1549,-0.717042,0.332458,0.612629,0.013444,-0.0097349999999999,0.007458
1550,-0.717063,0.332439,0.612614,0.011848,-0.007808,0.009335
1551,-0.7170949999999999,0.332425,0.612585,0.010613,-0.007992,0.006892
1552,-0.717114,0.332424,0.612563,0.012173,-0.009197,0.011964
1553,-0.717115,0.332396,0.612576,0.012022,-0.008101,0.0079069999999999
1554,-0.717083,0.332397,0.6126149999999999,0.014537,-0.007979,0.010554
1555,-0.717087,0.332416,0.612599,0.01413,-0.008518,0.012919
1556,-0.717061,0.332413,0.612632,0.015294,-0.011917,0.010797
1557,-0.7169989999999999,0.332439,0.612691,0.01218,-0.011623,0.010829
1558,-0.716969,0.332471,0.612708,0.010762,-0.0082519999999999,0.008661
1559,-0.716974,0.3325349999999999,0.612668,0.0120629999999999,-0.005753,0.013202
1560,-0.717067,0.332615,0.612516,0.011898,-0.008595,0.013018
1561,-0.717147,0.3326989999999999,0.6123770000000001,0.013824,-0.011913,0.008625
1562,-0.717187,0.332766,0.612294,0.014947,-0.011248,0.012126
1563,-0.7171649999999999,0.332777,0.612313,0.016985,-0.011275,0.009544
1564,-0.717134,0.332787,0.612344,0.0140539999999999,-0.007744,0.012412
1565,-0.71716,0.332782,0.612314,0.01048,-0.008106,0.014059
1566,-0.71726,0.332802,0.612187,0.009801,-0.008034,0.011242
1567,-0.71738,0.332836,0.612028,0.0141479999999999,-0.010845,0.008914
1568,-0.717453,0.332856,0.611931,0.014648,-0.0121319999999999,0.0084459999999999
1569,-0.7174689999999999,0.332857,0.611912,0.013779,-0.01201,0.006924
1570,-0.717446,0.332851,0.611942,0.010705,-0.009472,0.010449
1571,-0.717446,0.332879,0.611926,0.008705,-0.010186,0.010922
1572,-0.717443,0.332975,0.611876,0.014486,-0.0097489999999999,0.012559
1573,-0.71744,0.333079,0.6118239999999999,0.013644,-0.010173,0.011223
1574,-0.717433,0.333209,0.611761,0.015727,-0.011187,0.012491
1575,-0.717438,0.333334,0.611687,0.014893,-0.011313,0.013633
1576,-0.717441,0.333447,0.611621,0.014484,-0.009289,0.01141
1577,-0.7174560000000001,0.333539,0.611554,0.013934,-0.009885,0.0118129999999999
1578,-0.7174689999999999,0.3336389999999999,0.611484,0.013611,-0.007925,0.011289
1579,-0.71748,0.33373,0.611421,0.013806,-0.008702,0.01219
1580,-0.717518,0.3337989999999999,0.61134,0.014271,-0.010785,0.012775
1581,-0.71755,0.333867,0.611264,0.014761,-0.009648,0.012592
1582,-0.717596,0.333959,0.61116,0.0143949999999999,-0.010228,0.009079
1583,-0.717649,0.334065,0.611039,0.012403,-0.008824,0.010039
1584,-0.717703,0.334163,0.6109220000000001,0.0136169999999999,-0.009548,0.012155
1585,-0.717724,0.3342469999999999,0.610851,0.013958,-0.009281,0.011036
1586,-0.717738,0.334293,0.610809,0.013438,-0.01215,0.00943
1587,-0.717724,0.334359,0.610789,0.0121269999999999,-0.010934,0.008306
1588,-0.717699,0.334453,0.610766,0.012362,-0.010814,0.012372
1589,-0.7176939999999999,0.334547,0.6107199999999999,0.017651,-0.0106489999999999,0.010572
1590,-0.7177020000000001,0.3346389999999999,0.6106600000000001,0.014653,-0.011717,0.008953
1591,-0.717691,0.334729,0.610624,0.010797,-0.008466,0.011248
1592,-0.717707,0.334819,0.610556,0.012858,-0.005397,0.012323
1593,-0.7177520000000001,0.334892,0.610463,0.011331,-0.007469,0.01298
1594,-0.717831,0.334981,0.610321,0.014889,-0.014165,0.009583
1595,-0.717851,0.335095,0.6102350000000001,0.016541,-0.013974,0.008005
1596,-0.717834,0.335235,0.610178,0.015655,-0.011947,0.013007
1597,-0.717807,0.335383,0.6101270000000001,0.017505,-0.011973,0.012813
1598,-0.717821,0.335484,0.610056,0.014666,-0.008442,0.01441
1599,-0.7178939999999999,0.335555,0.60993,0.013487,-0.007476,0.0142
1600,-0.718006,0.335619,0.6097640000000001,0.012592,-0.0078599999999999,0.009727
1601,-0.7180949999999999,0.335646,0.609645,0.013581,-0.011534,0.010076
1602,-0.718134,0.335682,0.609579,0.013834,-0.0124549999999999,0.009089
1603,-0.718125,0.335733,0.6095619999999999,0.013993,-0.0116049999999999,0.0112719999999999
1604,-0.7180989999999999,0.335785,0.609564,0.011968,-0.008087,0.012033
1605,-0.718092,0.335876,0.609522,0.010801,-0.010177,0.010214
1606,-0.71806,0.336002,0.60949,0.013165,-0.010181,0.009422
1607,-0.718016,0.336135,0.60947,0.014357,-0.011168,0.012173
1608,-0.71796,0.3362489999999999,0.6094729999999999,0.016315,-0.0104739999999999,0.011865
1609,-0.717905,0.336386,0.609462,0.014658,-0.010184,0.011098
1610,-0.7178640000000001,0.3365309999999999,0.60943,0.015548,-0.009444,0.013189
1611,-0.717839,0.33666,0.609388,0.015111,-0.008001,0.01404
1612,-0.7178399999999999,0.336744,0.609341,0.015646,-0.010893,0.0114019999999999
1613,-0.7178140000000001,0.336833,0.609322,0.014002,-0.010371,0.012809
1614,-0.71782,0.336955,0.609247,0.016084,-0.01057,0.012198
1615,-0.7178680000000001,0.33704,0.6091449999999999,0.0143159999999999,-0.0117069999999999,0.01201
1616,-0.7179,0.3371369999999999,0.609053,0.015599,-0.010355,0.011629
1617,-0.717955,0.337219,0.608943,0.013991,-0.0095819999999999,0.010442
1618,-0.717996,0.337208,0.6089,0.017282,-0.0093569999999999,0.010668
1619,-0.717987,0.33718,0.608927,0.014419,-0.009299,0.0120299999999999
1620,-0.717967,0.337092,0.6089979999999999,0.014903,-0.009684,0.012859
1621,-0.717921,0.33693,0.609142,0.014858,-0.00856,0.012074
1622,-0.7178479999999999,0.336669,0.609372,0.01834,-0.0126489999999999,0.009967
1623,-0.7176779999999999,0.336379,0.6097319999999999,0.01466,-0.0155629999999999,0.009714
1624,-0.7175050000000001,0.336206,0.610032,0.007254,-0.006662,0.014464
1625,-0.717432,0.336092,0.6101810000000001,0.012292,-0.0069299999999999,0.016193
1626,-0.71743,0.335946,0.610263,0.016395,-0.012277,0.011792
1627,-0.71738,0.335818,0.610392,0.0183599999999999,-0.014911,0.008642
1628,-0.7172569999999999,0.335723,0.610589,0.016208,-0.0131669999999999,0.01316
1629,-0.717179,0.335723,0.610681,0.015335,-0.009627,0.016028
1630,-0.717201,0.335696,0.6106689999999999,0.015998,-0.012118,0.01491
1631,-0.71723,0.335696,0.610635,0.014884,-0.006716,0.011267
1632,-0.717301,0.335595,0.610608,0.014435,-0.0067989999999999,0.012744
1633,-0.7173729999999999,0.335435,0.610611,0.014508,-0.014543,0.011933
1634,-0.717433,0.335357,0.610583,0.01379,-0.011855,0.00958
1635,-0.717468,0.335276,0.610586,0.015869,-0.009486,0.0115
1636,-0.717475,0.3351639999999999,0.610639,0.0139379999999999,-0.008794,0.010669
1637,-0.717495,0.335044,0.61068,0.0098079999999999,-0.010322,0.011466
1638,-0.717551,0.334957,0.610662,0.010169,-0.010311,0.010416
1639,-0.717601,0.334939,0.610615,0.012721,-0.009835,0.010433
1640,-0.7175739999999999,0.334892,0.610672,0.014418,-0.010887,0.011414
1641,-0.717533,0.334818,0.6107600000000001,0.012898,-0.010065,0.0137669999999999
1642,-0.717501,0.334768,0.610825,0.014925,-0.010274,0.0121459999999999
1643,-0.717479,0.33471,0.610883,0.016307,-0.010033,0.011447
1644,-0.717427,0.334675,0.610963,0.016881,-0.01102,0.012801
1645,-0.7173579999999999,0.334621,0.611074,0.0155,-0.010768,0.01353
1646,-0.717295,0.334565,0.611178,0.014079,-0.011612,0.016721
1647,-0.717342,0.334572,0.611119,0.014523,-0.009178,0.016368
1648,-0.7174010000000001,0.334556,0.611059,0.014947,-0.010993,0.012171
1649,-0.717434,0.334518,0.6110399999999999,0.015362,-0.011261,0.008787
1650,-0.717429,0.334483,0.611066,0.015052,-0.0115769999999999,0.009876
1651,-0.717446,0.334465,0.611056,0.014275,-0.010978,0.011533
1652,-0.717484,0.334443,0.6110220000000001,0.013047,-0.008103,0.013429
1653,-0.717537,0.334386,0.610991,0.017266,-0.010381,0.008348
1654,-0.717536,0.3343,0.611039,0.0135419999999999,-0.0105849999999999,0.011917
1655,-0.7174729999999999,0.334242,0.6111449999999999,0.0109909999999999,-0.010771,0.009918
1656,-0.717396,0.3341699999999999,0.611276,0.010837,-0.006869,0.014716
1657,-0.717368,0.33408,0.611358,0.013602,-0.011998,0.013749
1658,-0.717357,0.333994,0.611418,0.014018,-0.014262,0.010347
1659,-0.7173510000000001,0.333954,0.6114470000000001,0.014684,-0.0152129999999999,0.014011
1660,-0.7173149999999999,0.333948,0.6114930000000001,0.017425,-0.012827,0.013752
1661,-0.717302,0.333962,0.6115010000000001,0.018602,-0.011025,0.014094
1662,-0.71735,0.333932,0.611462,0.01569,-0.0085989999999999,0.016666
1663,-0.717324,0.333914,0.611502,0.014275,-0.005561,0.011988
1664,-0.7173970000000001,0.333845,0.6114539999999999,0.013219,-0.010633,0.015805
1665,-0.717531,0.333769,0.611337,0.0153979999999999,-0.011595,0.014884
1666,-0.717605,0.333737,0.611268,0.0143729999999999,-0.015118,0.009825
1667,-0.7176640000000001,0.333707,0.611215,0.017103,-0.01132,0.0136479999999999
1668,-0.717654,0.333667,0.6112479999999999,0.013705,-0.0109129999999999,0.011463
1669,-0.717704,0.3336679999999999,0.611189,0.011863,-0.0079239999999999,0.014543
1670,-0.717759,0.333611,0.611157,0.012529,-0.010536,0.010502
1671,-0.7177600000000001,0.333557,0.6111850000000001,0.01732,-0.0112459999999999,0.010824
1672,-0.7177020000000001,0.333499,0.6112850000000001,0.011312,-0.008517,0.01431
1673,-0.717658,0.333456,0.611359,0.014183,-0.011251,0.011719
1674,-0.717603,0.333438,0.611434,0.0133949999999999,-0.010806,0.01677
1675,-0.717596,0.333415,0.6114539999999999,0.017203,-0.010372,0.011974
1676,-0.7175560000000001,0.333414,0.6115010000000001,0.016415,-0.0118959999999999,0.012766
1677,-0.7175560000000001,0.333408,0.611505,0.018337,-0.011005,0.014624
1678,-0.717558,0.333378,0.6115189999999999,0.017805,-0.011235,0.014321
1679,-0.71758,0.333347,0.6115109999999999,0.015859,-0.010273,0.01265
1680,-0.717646,0.333347,0.611433,0.015925,-0.010272,0.012728
1681,-0.717692,0.333287,0.6114109999999999,0.015941,-0.009816,0.011331
1682,-0.717693,0.3331989999999999,0.611459,0.015499,-0.0096519999999999,0.013221
1683,-0.71772,0.3330849999999999,0.6114890000000001,0.015526,-0.009537,0.01319
1684,-0.717747,0.333002,0.611502,0.01244,-0.0067989999999999,0.012216
1685,-0.717858,0.332939,0.611405,0.01574,-0.015053,0.014251
1686,-0.7179810000000001,0.332889,0.6112890000000001,0.011575,-0.014117,0.013253
1687,-0.718008,0.332952,0.611222,0.010153,-0.013372,0.010192
1688,-0.717957,0.332974,0.611271,0.014145,-0.0073209999999999,0.011165
1689,-0.717858,0.332964,0.6113930000000001,0.0108569999999999,-0.0103629999999999,0.01051
1690,-0.717791,0.333043,0.611428,0.010074,-0.0113569999999999,0.013557
1691,-0.717858,0.333125,0.611304,0.015374,-0.01237,0.0171599999999999
1692,-0.717962,0.3331929999999999,0.6111449999999999,0.023657,-0.0114,0.016586
1693,-0.718005,0.333203,0.611089,0.022875,-0.011182,0.012888
1694,-0.7179479999999999,0.333071,0.611228,0.019065,-0.010394,0.013116
1695,-0.717851,0.33299,0.611386,0.010835,-0.0064519999999999,0.014758
1696,-0.717899,0.332948,0.6113529999999999,0.009174,-0.006242,0.016592
1697,-0.718064,0.3328489999999999,0.611212,0.015458,-0.011453,0.010904
1698,-0.718145,0.332762,0.611165,0.020146,-0.01663,0.011134
1699,-0.718145,0.332675,0.611212,0.016363,-0.011874,0.009379
1700,-0.718146,0.3326199999999999,0.61124,0.011313,-0.010598,0.011593
1701,-0.7181770000000001,0.3326179999999999,0.611204,0.011313,-0.010124,0.010592
1702,-0.7182029999999999,0.332637,0.611163,0.01903,-0.0106769999999999,0.011594
1703,-0.7181850000000001,0.332653,0.611176,0.01448,-0.011257,0.0092
1704,-0.718133,0.3326909999999999,0.611216,0.012933,-0.0083349999999999,0.011358
1705,-0.71807,0.332712,0.611279,0.016883,-0.011804,0.012439
1706,-0.718003,0.332723,0.611352,0.0182349999999999,-0.011464,0.014533
1707,-0.717935,0.3327199999999999,0.611434,0.015588,-0.009935,0.012773
1708,-0.717906,0.3327219999999999,0.611467,0.016291,-0.0089909999999999,0.015746
1709,-0.717913,0.332687,0.611476,0.0173819999999999,-0.011322,0.0125469999999999
1710,-0.717913,0.3326639999999999,0.611488,0.01311,-0.009742,0.016182
1711,-0.717934,0.332649,0.611472,0.0133599999999999,-0.010186,0.012597
1712,-0.717971,0.332638,0.611436,0.0165389999999999,-0.011837,0.012603
1713,-0.717987,0.3326139999999999,0.61143,0.0159,-0.009493,0.011907
1714,-0.717992,0.332626,0.611417,0.013509,-0.01036,0.014407
1715,-0.718047,0.332619,0.6113569999999999,0.014586,-0.008721,0.013826
1716,-0.718094,0.332602,0.6113109999999999,0.015488,-0.008337,0.011095
1717,-0.718082,0.332551,0.611352,0.015049,-0.013536,0.010825
1718,-0.718039,0.332516,0.611421,0.01055,-0.009106,0.012617
1719,-0.718015,0.332509,0.6114539999999999,0.014096,-0.008657,0.014446
1720,-0.718029,0.332516,0.611434,0.013347,-0.0087239999999999,0.016801
1721,-0.7180810000000001,0.332551,0.611354,0.015505,-0.011796,0.012502
1722,-0.718124,0.3325619999999999,0.611297,0.016525,-0.012723,0.011399
1723,-0.71813,0.332539,0.6113029999999999,0.018759,-0.011936,0.012797
1724,-0.718052,0.332502,0.611414,0.015888,-0.011961,0.0137229999999999
1725,-0.7179949999999999,0.33245,0.611509,0.013268,-0.010627,0.010973
1726,-0.717914,0.33244,0.61161,0.012591,-0.0096709999999999,0.012978
1727,-0.717942,0.332492,0.611549,0.015259,-0.005633,0.01484
1728,-0.718051,0.33252,0.611405,0.01401,-0.009904,0.017684
1729,-0.7181390000000001,0.332542,0.6112890000000001,0.017028,-0.0123819999999999,0.011193
1730,-0.718187,0.332567,0.611219,0.0164349999999999,-0.006487,0.011966
1731,-0.718187,0.3325369999999999,0.6112350000000001,0.0147409999999999,-0.01079,0.01262
1732,-0.7182109999999999,0.33247,0.611243,0.0148569999999999,-0.009548,0.013055
1733,-0.7182310000000001,0.332423,0.611244,0.011367,-0.010906,0.0132979999999999
1734,-0.718288,0.332423,0.6111770000000001,0.013256,-0.010234,0.015303
1735,-0.718346,0.332415,0.611114,0.017891,-0.010287,0.012482
1736,-0.7183229999999999,0.332346,0.611178,0.018876,-0.010844,0.011503
1737,-0.718234,0.332256,0.611332,0.014346,-0.0110739999999999,0.012065
1738,-0.7181069999999999,0.3321719999999999,0.611527,0.013822,-0.011325,0.012694
1739,-0.718003,0.332092,0.611693,0.015503,-0.013321,0.012514
1740,-0.7179,0.33213,0.611791,0.011342,-0.016075,0.013346
