,gravity.x,gravity.y,gravity.z,userAcceleration.x,userAcceleration.y,userAcceleration.z
0,0.513944,0.453874,-0.727912,-0.01193,0.017943,-0.03196
1,0.510815,0.45797,-0.727549,0.063282,0.259651,-0.051549
2,0.5120899999999999,0.45796,-0.726659,0.063166,0.067583,-0.060024
3,0.512822,0.456241,-0.727223,0.0395149999999999,-0.037464,-0.016704
4,0.514176,0.45488,-0.72712,-0.032487,-0.097717,0.040612
5,0.516432,0.454659,-0.725658,-0.035017,-0.052055,-0.004185
6,0.516953,0.4557609999999999,-0.724595,0.008636,0.045642,-0.043655
7,0.515899,0.456046,-0.725166,0.035248,0.067712,-0.036278
8,0.515646,0.454823,-0.726114,0.032724,0.011883,-0.028235
9,0.5161640000000001,0.4528029999999999,-0.727008,0.010142,-0.030348,-0.0052
10,0.517228,0.4506819999999999,-0.7275689999999999,-0.003159,-0.040465,0.017501
11,0.518564,0.449556,-0.7273149999999999,-0.013986,-0.035799,0.005406
12,0.5196109999999999,0.449528,-0.726584,-0.006062,-0.014637,-0.0147949999999999
13,0.519967,0.450151,-0.7259439999999999,0.009437,0.0030039999999999,-0.0227139999999999
14,0.5199050000000001,0.450905,-0.7255199999999999,0.010704,-0.004661,-0.022984
15,0.520026,0.451471,-0.7250810000000001,0.005502,-0.007852,-0.003053
16,0.520733,0.452035,-0.724222,0.00095,0.000388,0.011453
17,0.521502,0.452739,-0.723228,-0.002947,0.017506,0.019615
18,0.521788,0.453281,-0.7226819999999999,-0.003874,0.021908,0.012523
19,0.52136,0.453412,-0.722909,0.001116,0.015063,0.00036
20,0.520436,0.453101,-0.723769,0.00999,0.004067,-0.010865
21,0.519608,0.45193,-0.7250949999999999,0.0167539999999999,-0.000865,-0.021319
22,0.518946,0.450717,-0.7263229999999999,0.013418,0.003277,-0.032588
23,0.5189199999999999,0.448957,-0.72743,0.016373,0.020525,-0.037889
24,0.519031,0.446492,-0.728867,0.002087,0.032527,-0.0534049999999999
25,0.518429,0.442676,-0.731618,-0.0030789999999999,0.015378,0.007528
26,0.517176,0.438814,-0.734824,-0.019938,-0.0073569999999999,0.00225
27,0.5161279999999999,0.436406,-0.736993,-0.023956,-0.01479,0.014901
28,0.5159,0.435677,-0.737583,0.01268,-0.030282,0.031269
29,0.5168590000000001,0.436459,-0.736449,0.019884,-0.027386,-0.011019
30,0.517903,0.4365199999999999,-0.735679,0.018779,-0.017605,-0.029077
31,0.517257,0.435183,-0.736924,0.002671,0.028348,0.019822
32,0.515694,0.433224,-0.73917,-0.012962,0.009769,0.0151259999999999
33,0.51378,0.431741,-0.741367,-0.014452,-0.0065239999999999,0.010639
34,0.512217,0.431396,-0.742649,-0.005229,-0.017105,0.0052829999999999
35,0.511293,0.432447,-0.742674,0.002928,-0.0195289999999999,-0.008058
36,0.510907,0.434094,-0.7419789999999999,0.015552,-0.0125239999999999,-0.028071
37,0.5107470000000001,0.435224,-0.7414270000000001,0.022853,0.005099,-0.017469
38,0.5104350000000001,0.4359989999999999,-0.741186,-0.0009289999999999,0.024694,-0.005518
39,0.5094609999999999,0.436659,-0.741467,-0.011384,0.032579,0.013913
40,0.508025,0.437842,-0.741755,-0.008361,0.034143,0.017131
41,0.506814,0.439069,-0.741858,0.013572,0.026675,0.0172639999999999
42,0.505884,0.440088,-0.741889,0.036169,0.018408,0.0064
43,0.505646,0.4401069999999999,-0.7420399999999999,0.053711,0.007479,0.009359
44,0.50629,0.439535,-0.741941,0.015256,0.011042,-0.035937
45,0.507087,0.438251,-0.742155,-0.013954,-0.0070069999999999,-0.050981
46,0.5076189999999999,0.437403,-0.742292,-0.029744,-0.029459,-0.043581
47,0.508047,0.437733,-0.741805,-0.026861,-0.0536539999999999,-0.011934
48,0.5080439999999999,0.438743,-0.74121,-0.028872,-0.0476899999999999,0.0009599999999999
49,0.5082840000000001,0.44085,-0.739794,-0.067534,-0.025109,0.025408
50,0.50878,0.4442109999999999,-0.737438,-0.061027,0.0004759999999999,-0.01244
51,0.509616,0.447818,-0.7346739999999999,-0.025256,0.023358,-0.036505
52,0.510517,0.450472,-0.732422,-0.000157,0.042036,-0.035202
53,0.511258,0.451292,-0.7314,0.000705,0.0559559999999999,-0.002716
54,0.511899,0.450556,-0.731405,0.005358,0.053885,0.031698
55,0.512736,0.449284,-0.7316010000000001,0.017171,0.043102,0.051365
56,0.513185,0.448139,-0.731989,0.03601,0.041638,0.054041
57,0.512918,0.4470699999999999,-0.732829,0.041205,0.022031,0.029475
58,0.512211,0.446056,-0.733941,0.0438649999999999,-0.007823,-0.002738
59,0.51161,0.445561,-0.7346600000000001,0.057848,-0.03687,-0.0309339999999999
60,0.511309,0.4457239999999999,-0.734771,0.052778,-0.04042,-0.047303
61,0.5112270000000001,0.446255,-0.734506,0.0300329999999999,-0.032711,-0.043891
62,0.511528,0.446751,-0.7339939999999999,0.007545,-0.0297589999999999,-0.032592
63,0.5118060000000001,0.447603,-0.7332810000000001,-0.003795,-0.0273,-0.025065
64,0.511788,0.4486279999999999,-0.732667,-0.016457,0.008952,0.00406
65,0.5110359999999999,0.450298,-0.732167,-0.013385,0.024891,0.010717
66,0.510112,0.451814,-0.731878,-0.009547,0.0279069999999999,0.0109769999999999
67,0.509578,0.453018,-0.7315050000000001,-0.015346,0.01326,0.006987
68,0.5095649999999999,0.453909,-0.730962,-0.023618,0.005014,0.012059
69,0.509504,0.45424,-0.730799,-0.0142189999999999,0.021758,0.009318
70,0.509342,0.454097,-0.731,0.003689,0.044453,0.001768
71,0.5092840000000001,0.4537609999999999,-0.73125,0.005929,0.033101,-0.007825
72,0.5093340000000001,0.4532859999999999,-0.73151,0.002537,0.025383,-0.007031
73,0.509356,0.452902,-0.7317319999999999,-0.00963,0.005014,0.014477
74,0.5096470000000001,0.4525979999999999,-0.7317170000000001,-0.008732,0.00631,0.0128139999999999
75,0.509951,0.452376,-0.731643,-0.0011619999999999,0.011125,0.004577
76,0.509795,0.452379,-0.73175,0.018708,0.002837,-0.010926
77,0.509196,0.452455,-0.73212,0.013784,-0.007829,-0.0035979999999999
78,0.508749,0.452693,-0.732283,0.011911,-0.011378,-0.000215
79,0.508758,0.453083,-0.732036,0.003495,-0.0099379999999999,-0.0118459999999999
80,0.5088020000000001,0.453431,-0.7317899999999999,0.0027949999999999,-0.004151,-0.015113
81,0.508495,0.4537529999999999,-0.731804,-0.0016129999999999,0.002881,-0.013436
82,0.508039,0.454053,-0.731934,-0.001615,0.01285,0.001786
83,0.507614,0.4544109999999999,-0.732007,0.005584,0.020137,0.0029879999999999
84,0.507355,0.454668,-0.7320270000000001,0.008026,0.025053,0.003496
85,0.507167,0.454752,-0.732105,0.010258,0.020331,0.004078
86,0.507053,0.454655,-0.732245,0.010388,0.010555,0.006003
87,0.5070279999999999,0.454458,-0.732384,0.008201,0.008891,0.010277
88,0.507101,0.454181,-0.7325050000000001,0.008966,0.002286,0.0089489999999999
89,0.507316,0.454117,-0.732396,0.012918,-0.003311,-0.007121
90,0.507513,0.45407,-0.7322890000000001,0.01272,-0.003264,-0.007229
91,0.507714,0.4541189999999999,-0.732119,0.001014,0.0062689999999999,-0.012083
92,0.5079020000000001,0.454072,-0.732017,-0.007872,0.008147,-0.002358
93,0.5081,0.454172,-0.7318180000000001,-0.00807,0.008048,-0.002557
94,0.5084390000000001,0.454255,-0.73153,-0.00435,0.015715,-0.002509
95,0.508605,0.4543819999999999,-0.731336,-0.000976,0.018427,-0.0016809999999999
96,0.508574,0.454376,-0.731362,-0.002318,0.012863,-0.001762
97,0.508552,0.454349,-0.731394,-0.001289,0.0125849999999999,0.006067
98,0.508725,0.454193,-0.73137,0.001117,0.014694,0.002626
99,0.509009,0.453856,-0.731382,0.001443,0.011339,-0.001207
100,0.5091939999999999,0.453475,-0.73149,0.007026,0.003633,-0.000901
101,0.50927,0.45319,-0.731614,0.007697,0.001217,-0.0017699999999999
102,0.50939,0.453018,-0.731636,0.0092859999999999,0.003281,-0.00518
103,0.509575,0.452879,-0.731593,0.008582,0.006884,-0.001408
104,0.509822,0.452739,-0.731509,0.00823,0.008092,-0.000959
105,0.5101359999999999,0.452693,-0.731318,0.013561,0.004567,0.000407
106,0.5104270000000001,0.452904,-0.730984,0.010798,0.0003129999999999,-0.006443
107,0.510699,0.4529689999999999,-0.730754,0.001661,0.015552,-0.012639
108,0.511242,0.452499,-0.730666,-0.0190539999999999,0.021973,-0.002168
109,0.51218,0.451758,-0.730467,-0.0291779999999999,0.013345,0.01483
110,0.5134479999999999,0.451204,-0.729919,-0.009115,0.00041,0.0058439999999999
111,0.514414,0.45092,-0.729414,0.00527,-0.001503,0.001555
112,0.514479,0.4509729999999999,-0.7293350000000001,0.012025,-0.001083,-0.002461
113,0.514104,0.451403,-0.729334,0.027995,-0.0082569999999999,-0.0050409999999999
114,0.5139130000000001,0.4519069999999999,-0.729156,0.024768,-0.00307,-0.001786
115,0.5141720000000001,0.452323,-0.728716,0.0181,0.007852,-0.002226
116,0.51457,0.4527069999999999,-0.728196,0.0075239999999999,0.016638,-0.000869
117,0.514734,0.453201,-0.727773,0.004233,0.017762,-0.0008039999999999
118,0.514799,0.45365,-0.7274470000000001,-0.000181,0.024759,0.007369
119,0.514933,0.453903,-0.727195,-0.000193,0.0299079999999999,0.0071319999999999
120,0.515184,0.453733,-0.727123,-0.006441,0.031619,0.0082659999999999
121,0.515426,0.453193,-0.727288,-0.014053,0.0198759999999999,0.002313
122,0.515645,0.452385,-0.727636,-0.011784,0.0149909999999999,-0.004557
123,0.515879,0.45133,-0.728125,-0.010264,0.011698,-0.005243
124,0.5161279999999999,0.450158,-0.7286739999999999,-0.004837,0.005042,-0.004709
125,0.516385,0.449017,-0.729196,-0.001431,0.001147,-0.0058509999999999
126,0.516522,0.448111,-0.7296560000000001,-0.000256,0.001077,-0.004795
127,0.516558,0.447414,-0.730058,0.00157,0.0036049999999999,-0.001998
128,0.516532,0.4467859999999999,-0.7304609999999999,0.004358,0.003928,0.000466
129,0.516608,0.44615,-0.730796,0.005853,0.002031,-0.0007099999999999
130,0.5167619999999999,0.445592,-0.731028,0.007866,0.00413,0.001825
131,0.516867,0.445219,-0.73118,0.011254,0.005342,0.001429
132,0.51693,0.445034,-0.7312489999999999,0.010032,0.002675,-0.000624
133,0.516965,0.445018,-0.731234,0.0097989999999999,0.002019,0.000124
134,0.516988,0.445143,-0.731142,0.009868,-0.000135,-0.0007769999999999
135,0.516946,0.445368,-0.731034,0.008627,-0.00059,-0.002151
136,0.516829,0.4458569999999999,-0.730819,0.006792,5e-05,-0.005983
137,0.516621,0.44652,-0.730561,-0.001347,0.009168,-0.00415
138,0.5163270000000001,0.447237,-0.73033,-0.0008089999999999,0.011244,-0.0035409999999999
139,0.5160560000000001,0.4479149999999999,-0.730106,-0.004856,0.01673,-0.003857
140,0.515853,0.448525,-0.729875,-0.009444,0.023002,0.00316
141,0.5157010000000001,0.449042,-0.729664,-0.009293,0.0224849999999999,0.002949
142,0.515552,0.449402,-0.729548,-0.010318,0.018326,0.003688
143,0.515375,0.4496199999999999,-0.729539,-0.005777,0.012386,0.000825
144,0.515166,0.449697,-0.729639,-0.003738,0.010722,-0.001181
145,0.514999,0.449776,-0.729709,0.002274,0.00692,-0.005399
146,0.514941,0.449871,-0.72969,0.006268,0.016895,-0.002304
147,0.515018,0.4498279999999999,-0.729662,0.004071,0.020783,0.000475
148,0.515044,0.449686,-0.729733,0.002992,0.016852,0.006954
149,0.51507,0.449533,-0.729808,0.005178,0.010702,0.005076
150,0.51505,0.449535,-0.729821,0.005229,0.0065049999999999,0.006494
151,0.5149779999999999,0.449546,-0.729865,0.00495,0.009576,0.0051189999999999
152,0.5148199999999999,0.449503,-0.730003,0.0048189999999999,0.009115,0.000328
153,0.5145430000000001,0.449425,-0.730246,0.006942,0.007942,-0.001703
154,0.5141680000000001,0.449452,-0.730494,0.0038979999999999,0.0117299999999999,-0.001196
155,0.513804,0.449511,-0.7307130000000001,0.003698,0.01457,-0.003784
156,0.5134770000000001,0.449564,-0.730911,-1.9e-05,0.015783,-0.003098
157,0.513241,0.449676,-0.731007,-0.004253,0.014359,-0.003093
158,0.513084,0.449737,-0.7310800000000001,-0.004646,0.010041,0.000169
159,0.5130170000000001,0.449661,-0.731174,-0.007478,0.008393,8e-05
160,0.5129819999999999,0.44956,-0.73126,-0.005124,0.007136,0.0008529999999999
161,0.512904,0.44947,-0.731371,-0.0042829999999999,0.00863,-0.002165
162,0.5127390000000001,0.449481,-0.73148,-0.00044,0.008497,0.000172
163,0.512556,0.449504,-0.731593,0.004152,0.014103,0.0004379999999999
164,0.512416,0.4494899999999999,-0.7317,0.005407,0.012332,0.001232
165,0.5123489999999999,0.449455,-0.731768,0.003963,0.013359,0.002078
166,0.512356,0.4494399999999999,-0.731773,0.001454,0.009712,0.004402
167,0.51242,0.449392,-0.731758,0.0014039999999999,0.010554,0.000511
168,0.5125149999999999,0.4493319999999999,-0.7317279999999999,0.002393,0.010247,0.001884
169,0.5126,0.449308,-0.731683,0.000736,0.006533,-0.000266
170,0.51273,0.449384,-0.731545,0.002605,0.011828,-0.002067
171,0.512942,0.449455,-0.7313529999999999,-0.0003689999999999,0.0167159999999999,-0.002503
172,0.5130899999999999,0.4494609999999999,-0.731246,0.001482,0.0155199999999999,0.002242
173,0.513211,0.449418,-0.731187,0.001346,0.010222,0.000719
174,0.513229,0.449431,-0.731166,0.002014,0.010118,0.0023
175,0.513195,0.449451,-0.731178,0.0003549999999999,0.008847,0.002632
176,0.513163,0.449442,-0.731206,-0.0004219999999999,0.009039,0.000707
177,0.5131680000000001,0.449456,-0.731194,-0.002212,0.010673,0.00158
178,0.5132329999999999,0.449502,-0.73112,0.003994,0.0141669999999999,0.000651
179,0.513338,0.449543,-0.7310220000000001,0.0026379999999999,0.013104,0.0017739999999999
180,0.51348,0.449572,-0.730904,0.00123,0.012175,0.001168
181,0.513684,0.449656,-0.730708,-0.000363,0.010717,-0.0008439999999999
182,0.513954,0.449737,-0.7304689999999999,-0.0054399999999999,0.015885,0.00206
183,0.51417,0.449777,-0.730292,-0.002176,0.012412,0.004356
184,0.5143449999999999,0.4498979999999999,-0.7300949999999999,0.0018449999999999,0.008324,3.8e-05
185,0.514542,0.449972,-0.7299100000000001,0.00122,0.012415,-0.001016
186,0.514776,0.449991,-0.729733,-0.000601,0.011968,-0.002048
187,0.514957,0.45,-0.7296,-0.003742,0.015561,0.000535
188,0.515195,0.449891,-0.729499,-0.002148,0.016891,0.003303
189,0.5154529999999999,0.449526,-0.729542,-0.002132,0.0161569999999999,0.003926
190,0.515683,0.449088,-0.729649,-0.00166,0.016885,0.004292
191,0.5158659999999999,0.448779,-0.7297100000000001,0.0026739999999999,0.010389,-0.004192
192,0.516079,0.448346,-0.729825,0.005085,0.011631,-0.002566
193,0.516219,0.447696,-0.730125,0.006516,0.01405,-0.000146
194,0.516153,0.4471199999999999,-0.730525,0.004599,0.005212,0.00059
195,0.5159060000000001,0.446625,-0.731002,0.000665,0.003433,0.011062
196,0.515867,0.4463819999999999,-0.731178,-0.007612,0.003355,-0.0037159999999999
197,0.515124,0.446304,-0.731749,0.002789,0.017578,0.005736
198,0.513645,0.446417,-0.732719,0.055615,-0.029943,0.002892
199,0.5145850000000001,0.446385,-0.732079,0.0212879999999999,-0.019001,0.019356
200,0.5175569999999999,0.446758,-0.7297520000000001,0.025564,0.005222,-0.0335839999999999
201,0.521945,0.4470449999999999,-0.726444,0.003201,0.003882,-0.038403
202,0.522799,0.447427,-0.725594,-0.0493339999999999,0.023657,0.015923
203,0.519842,0.448273,-0.727195,-0.0003259999999999,0.032059,0.041755
204,0.5164949999999999,0.449555,-0.728787,0.014053,0.054412,0.041973
205,0.516406,0.449431,-0.7289260000000001,-0.0017879999999999,0.0488139999999999,-0.002916
206,0.517989,0.44801,-0.728677,-0.006362,0.002414,-0.01647
207,0.5187350000000001,0.446502,-0.729072,-0.012464,-0.016952,-0.020089
208,0.518296,0.445822,-0.729801,-0.000398,-0.008688,-0.015072
209,0.517969,0.445468,-0.7302489999999999,0.0040799999999999,0.001417,-0.007895
210,0.5183260000000001,0.44525,-0.730129,0.008805,0.011004,0.000316
211,0.518634,0.445111,-0.7299939999999999,0.0149349999999999,0.012775,0.011687
212,0.518407,0.445125,-0.730147,0.015468,0.012868,0.0191639999999999
213,0.517979,0.445233,-0.7303850000000001,0.013805,0.012195,0.015007
214,0.517777,0.445431,-0.7304069999999999,0.001098,0.008182,-0.000519
215,0.5177970000000001,0.445688,-0.730237,-0.0079239999999999,0.0047659999999999,-0.008609
216,0.517571,0.4459189999999999,-0.730255,-0.013711,0.008182,-0.010101
217,0.5171020000000001,0.446056,-0.730504,-0.004804,0.020604,0.0047659999999999
218,0.516512,0.446088,-0.730902,-0.00072,0.015063,0.009436
219,0.516183,0.446204,-0.731063,0.003989,0.008707,0.002304
220,0.516061,0.44646,-0.730993,0.0009369999999999,0.011181,-5.6000000000000006e-05
221,0.515933,0.446739,-0.730913,-0.0066709999999999,0.015068,-0.004591
222,0.51568,0.446959,-0.730957,-0.007318,0.01523,-0.003982
223,0.515407,0.447245,-0.730975,5e-05,0.010336,-0.004849
224,0.515169,0.447513,-0.730978,-9.4e-05,0.0101129999999999,0.000479
225,0.5150680000000001,0.447688,-0.730943,0.001838,0.008596,-0.001418
226,0.515045,0.447759,-0.730915,-0.0008849999999999,0.025293,0.011753
227,0.515051,0.447533,-0.73105,-0.0048579999999999,0.032875,0.019685
228,0.515037,0.4471229999999999,-0.73131,-0.003974,0.0273649999999999,0.019091
229,0.514972,0.446883,-0.731503,0.008328,-0.002455,-0.004017
230,0.514958,0.446892,-0.731507,0.0191,-0.005028,-0.007293
231,0.515374,0.447007,-0.7311439999999999,0.019325,9e-05,-0.010525
232,0.516572,0.447154,-0.730208,0.019408,0.0035299999999999,-0.010424
233,0.5178659999999999,0.447139,-0.7293,-0.011869,0.044392,0.00231
234,0.5184979999999999,0.4464399999999999,-0.729279,-0.036274,0.056886,0.0196229999999999
235,0.518768,0.445222,-0.729831,-0.037353,0.050338,0.02515
236,0.518522,0.44403,-0.730731,-0.015974,0.004853,0.013431
237,0.5177039999999999,0.4434729999999999,-0.731649,-0.001041,-0.012062,0.0009519999999999
238,0.5168689999999999,0.44342,-0.732271,0.00872,-0.024307,-0.007872
239,0.516247,0.444054,-0.7323270000000001,0.028523,-0.01783,-0.035313
240,0.516155,0.444507,-0.732116,0.026005,-0.007114,-0.029237
241,0.5166810000000001,0.444821,-0.731554,0.018506,0.003299,-0.020521
242,0.517402,0.445024,-0.730921,-0.0066599999999999,0.0427839999999999,0.0158479999999999
243,0.517634,0.445059,-0.730735,-0.012279,0.059763,0.035011
244,0.517288,0.444893,-0.7310810000000001,-0.015243,0.0544659999999999,0.036379
245,0.516772,0.444749,-0.731534,-0.001239,0.0054009999999999,0.0072299999999999
246,0.516065,0.444828,-0.731985,0.0002009999999999,-0.002735,-0.002238
247,0.515093,0.444972,-0.732582,0.003386,-0.008144,-0.005806
248,0.514135,0.445345,-0.733028,0.013224,-0.018557,-0.022389
249,0.513808,0.445661,-0.733065,0.0156259999999999,-0.0092129999999999,-0.019468
250,0.514173,0.446083,-0.732553,0.023898,0.012902,-0.003195
251,0.5145850000000001,0.446144,-0.732226,-0.022078,0.056069,0.002871
252,0.514789,0.445787,-0.732301,-0.026676,0.054701,0.010407
253,0.514671,0.445288,-0.732687,-0.01696,0.0275209999999999,0.019659
254,0.5143260000000001,0.444996,-0.733107,-0.002027,0.017345,0.012999
255,0.513957,0.444759,-0.733509,0.004735,0.006886,0.006656
256,0.513567,0.4448729999999999,-0.7337130000000001,0.0148449999999999,-0.019458,-0.01705
257,0.513416,0.445053,-0.7337090000000001,0.01553,-0.0142979999999999,-0.020655
258,0.5135850000000001,0.4450689999999999,-0.733581,0.0056869999999999,0.011001,-0.003952
259,0.514119,0.4447029999999999,-0.73343,-0.006856,0.032913,0.016572
260,0.51466,0.44416,-0.733379,-0.014049,0.046837,0.019878
261,0.514845,0.443889,-0.733414,-0.014127,0.0351449999999999,0.013153
262,0.514632,0.443976,-0.7335109999999999,0.0102709999999999,0.006525,-0.006892
263,0.514275,0.444221,-0.733612,0.015022,0.003685,-0.003143
264,0.514352,0.44416,-0.733595,0.01142,0.005593,-0.006456
265,0.514782,0.444017,-0.73338,0.004002,0.018461,0.000638
266,0.515251,0.4436989999999999,-0.733243,0.0004349999999999,0.023953,0.0076879999999999
267,0.515583,0.443328,-0.733234,-0.002751,0.0236819999999999,0.00864
268,0.515798,0.442979,-0.733294,-0.003743,0.020308,0.0034969999999999
269,0.516029,0.4426779999999999,-0.733313,-0.002143,0.012202,0.000556
270,0.51626,0.4424189999999999,-0.7333069999999999,0.001684,0.011804,-0.000611
271,0.516594,0.442183,-0.733214,-0.000496,0.012605,-0.004045
272,0.516904,0.441882,-0.7331770000000001,0.004093,0.012586,-0.001213
273,0.517196,0.441467,-0.733221,0.0026089999999999,0.00531,0.000463
274,0.517537,0.441039,-0.7332380000000001,-0.001744,0.004762,0.004356
275,0.517813,0.44078,-0.7331989999999999,-0.004919,0.010758,0.006347
276,0.518008,0.4406029999999999,-0.733168,-0.003527,0.012431,0.007078
277,0.518113,0.440496,-0.733158,0.001983,0.0134069999999999,0.000858
278,0.5182180000000001,0.440436,-0.73312,0.0097209999999999,0.013177,0.000179
279,0.518285,0.44031,-0.7331479999999999,0.010081,0.0148289999999999,-0.001334
280,0.518382,0.440138,-0.733183,0.001149,0.014269,0.004163
281,0.5184810000000001,0.439997,-0.733197,-0.004427,0.009954,0.005643
282,0.518424,0.440005,-0.733232,-0.003471,0.006208,0.006273
283,0.518154,0.440231,-0.733288,0.005833,0.002839,-0.000324
284,0.517795,0.440532,-0.7333609999999999,0.0055969999999999,0.011541,-0.00077
285,0.517576,0.440766,-0.733375,0.004915,0.012222,0.001105
286,0.517519,0.441055,-0.733241,0.002867,0.014863,0.003078
287,0.517412,0.4414689999999999,-0.733067,0.000532,0.020765,-0.003261
288,0.517207,0.441901,-0.732952,-0.001475,0.0217219999999999,-0.005543
289,0.516991,0.442284,-0.732873,-0.003411,0.018897,-0.000694
290,0.516849,0.442636,-0.7327600000000001,-0.004413,0.015722,0.0066709999999999
291,0.516766,0.442871,-0.732677,-0.0030329999999999,0.0154569999999999,0.009518
292,0.516686,0.442963,-0.7326779999999999,0.00135,0.013824,0.010282
293,0.5166430000000001,0.442956,-0.732712,0.001042,0.013022,0.0044259999999999
294,0.516687,0.442813,-0.732768,0.000998,0.013165,0.004481
295,0.5167149999999999,0.44269,-0.732823,-0.000357,0.01991,0.004246
296,0.516759,0.4425409999999999,-0.7328819999999999,-0.0018969999999999,0.01533,-0.001753
297,0.516703,0.442457,-0.7329720000000001,0.004461,0.009691,-0.005737
298,0.516574,0.442521,-0.733024,0.007687,0.00505,-0.001671
299,0.516521,0.4427529999999999,-0.732921,0.005482,-0.004185,-0.004414
300,0.5164880000000001,0.443218,-0.732664,0.0029059999999999,-0.0020559999999999,-0.004351
301,0.516479,0.443834,-0.732297,-0.000838,0.011534,0.002332
302,0.516501,0.4443689999999999,-0.731957,0.002618,0.035871,0.010079
303,0.516571,0.444705,-0.731703,0.007415,0.0335209999999999,0.009886
304,0.516579,0.444827,-0.7316229999999999,0.005287,0.03085,0.008097
305,0.5165270000000001,0.4446779999999999,-0.731751,-0.00078,0.018961,0.010056
306,0.5165930000000001,0.4442609999999999,-0.731958,-0.0017,0.018691,0.01072
307,0.5167069999999999,0.443804,-0.732154,0.0012369999999999,0.015699,0.004371
308,0.5167390000000001,0.443266,-0.7324579999999999,0.004181,0.00873,0.003408
309,0.5166970000000001,0.442755,-0.732796,0.001842,0.0056549999999999,-0.001365
310,0.516645,0.442439,-0.733024,0.003069,0.006795,-0.002953
311,0.516653,0.442305,-0.733099,0.006754,0.006547,-0.006189
312,0.51677,0.4423359999999999,-0.7329979999999999,0.009368,0.011445,-0.001911
313,0.51689,0.442418,-0.732863,0.007768,0.017314,-0.001802
314,0.516958,0.442456,-0.732793,-0.000524,0.017321,0.007222
315,0.517046,0.442478,-0.7327170000000001,-9.4e-05,0.014782,0.008138
316,0.517197,0.442597,-0.732539,-0.0083319999999999,0.0202639999999999,0.010539
317,0.517307,0.442644,-0.732433,-0.011768,0.019621,0.008205
318,0.517303,0.442607,-0.7324579999999999,-0.0082239999999999,0.013325,0.0035299999999999
319,0.517235,0.4426449999999999,-0.732483,0.003365,0.008343,-0.000457
320,0.5171560000000001,0.442725,-0.73249,0.007349,0.011727,-0.005104
321,0.5171359999999999,0.4427029999999999,-0.732518,0.0051719999999999,0.01854,-0.005824
322,0.517055,0.4426609999999999,-0.7326010000000001,0.00832,0.020733,0.0068319999999999
323,0.516804,0.442663,-0.732777,0.006405,0.015421,0.004612
324,0.516502,0.442706,-0.7329640000000001,0.003045,0.010587,0.004051
325,0.516414,0.4428189999999999,-0.732957,0.0065349999999999,0.011329,0.004579
326,0.516424,0.442957,-0.732867,0.001948,0.011694,0.010989
327,0.5164380000000001,0.443071,-0.732788,-0.003789,0.0134569999999999,0.008286
328,0.516411,0.443176,-0.732744,-0.007637,0.0117489999999999,0.002534
329,0.516299,0.443316,-0.732738,-0.013034,0.012434,-0.000539
330,0.516081,0.443461,-0.732803,-0.010222,0.012426,-0.001755
331,0.515962,0.44366,-0.7327670000000001,0.002226,0.017064,-0.001761
332,0.516098,0.443712,-0.732639,0.00351,0.019239,0.003773
333,0.516359,0.443568,-0.732543,0.0032329999999999,0.017477,0.008925
334,0.516596,0.443349,-0.732508,0.001089,0.016734,0.016352
335,0.516787,0.4429979999999999,-0.732586,0.0040869999999999,0.021067,0.0159419999999999
336,0.5169060000000001,0.4424899999999999,-0.732809,0.004716,0.0220789999999999,0.011999
337,0.51685,0.441872,-0.733221,0.010646,0.017433,-0.000742
338,0.516714,0.4412899999999999,-0.733667,0.010279,0.010034,-0.006185
339,0.516563,0.4408729999999999,-0.734024,0.010109,0.006881,-0.00499
340,0.5163449999999999,0.4407689999999999,-0.73424,0.0025,0.005626,-0.0064819999999999
341,0.516131,0.440881,-0.734323,0.000653,0.004568,-0.008032
342,0.515935,0.441196,-0.734272,-0.002675,0.008068,-0.007214
343,0.515841,0.441596,-0.7340979999999999,-0.0011769999999999,0.0080349999999999,-0.0032979999999999
344,0.5158020000000001,0.4420729999999999,-0.733838,-0.00033,0.01389,0.002225
345,0.515709,0.442521,-0.733633,-0.004448,0.020888,0.006125
346,0.515459,0.442874,-0.733595,-0.000658,0.0194669999999999,0.005141
347,0.515054,0.443188,-0.73369,0.0005099999999999,0.016162,0.007448
348,0.514667,0.443442,-0.733809,0.002408,0.018289,0.010069
349,0.514338,0.443607,-0.7339399999999999,0.002859,0.015393,0.008079
350,0.514151,0.4436239999999999,-0.73406,0.003625,0.013469,0.0055899999999999
351,0.5139819999999999,0.443615,-0.7341850000000001,0.004146,0.0132639999999999,0.004799
352,0.513741,0.443694,-0.734305,0.007378,0.012391,0.000968
353,0.513495,0.4438189999999999,-0.734402,0.004418,0.015593,0.003994
354,0.513279,0.44395,-0.7344729999999999,0.003048,0.0130199999999999,0.000999
355,0.5130560000000001,0.444129,-0.734521,0.001058,0.009378,-0.001227
356,0.51274,0.444401,-0.734577,0.001679,0.010173,0.000705
357,0.512386,0.4447069999999999,-0.734639,0.001652,0.014858,0.001455
358,0.511918,0.4449479999999999,-0.734819,-0.0016489999999999,0.029051,0.004076
359,0.511416,0.4449609999999999,-0.735161,0.001508,0.025635,0.006508
360,0.510853,0.444838,-0.735627,-0.009754,0.011812,0.0047009999999999
361,0.510338,0.444518,-0.736178,-0.023201,0.002443,-0.0057659999999999
362,0.509981,0.444297,-0.736558,-0.023729,-0.005988,-0.018095
363,0.509741,0.444472,-0.736618,-0.015219,-0.009032,-0.015243
364,0.509504,0.444997,-0.736466,0.0138729999999999,0.003123,-0.003845
365,0.509123,0.445588,-0.736372,0.033907,0.0133509999999999,0.009901
366,0.508767,0.446295,-0.736189,0.034537,0.018472,0.012267
367,0.508434,0.447258,-0.735835,0.0240219999999999,0.015159,0.01353
368,0.507979,0.448464,-0.735416,0.014162,0.0174479999999999,0.017154
369,0.507336,0.4496989999999999,-0.735105,0.00835,0.025841,0.016218
370,0.506717,0.450859,-0.734822,0.003385,0.029213,0.003681
371,0.506182,0.4518279999999999,-0.734595,0.00073,0.023513,-0.001153
372,0.505696,0.45242,-0.7345659999999999,-0.000889,0.020084,-0.002678
373,0.505301,0.452575,-0.734742,-0.012107,0.021775,0.002076
374,0.505055,0.452339,-0.735056,-0.021672,0.027886,0.007792
375,0.505025,0.451841,-0.735383,-0.025365,0.029955,0.007829
376,0.505084,0.451347,-0.735646,-0.019152,0.016243,-0.0031079999999999
377,0.5051439999999999,0.450924,-0.7358640000000001,-0.006426,0.010013,-0.005179
378,0.50521,0.450528,-0.736061,-0.000618,0.007586,-0.0046159999999999
379,0.505268,0.4501979999999999,-0.736224,0.0072599999999999,0.0096099999999999,0.000262
380,0.5054029999999999,0.449928,-0.736296,0.006972,0.008339,0.00392
381,0.5054930000000001,0.449762,-0.736336,0.0068819999999999,0.008505,0.00396
382,0.505416,0.449783,-0.736376,0.01587,0.006333,0.005159
383,0.505263,0.449876,-0.736424,0.01848,0.012709,0.0065959999999999
384,0.505066,0.4500149999999999,-0.736474,0.0186759999999999,0.01257,0.0066459999999999
385,0.504919,0.45011,-0.736516,0.013193,0.01867,0.0071769999999999
386,0.504814,0.4502,-0.736534,0.0094069999999999,0.014872,0.003974
387,0.5046619999999999,0.450331,-0.736558,0.004631,0.01317,0.004105
388,0.504467,0.450495,-0.736591,0.000873,0.012014,0.000995
389,0.504286,0.450694,-0.736594,-0.004484,0.012578,-0.001108
390,0.5041359999999999,0.450937,-0.736548,-0.008606,0.013159,-0.003137
391,0.504004,0.451183,-0.736487,-0.009344,0.0165139999999999,0.001151
392,0.503909,0.45132,-0.736468,-0.011202,0.018758,-0.001126
393,0.5038520000000001,0.451372,-0.736475,-0.006553,0.017424,-0.001669
394,0.503797,0.451362,-0.73652,0.0004759999999999,0.0163509999999999,0.00216
395,0.5037020000000001,0.451272,-0.736639,0.005576,0.013633,0.007666
396,0.503742,0.45108,-0.736729,0.006207,0.013519,0.003865
397,0.503845,0.450941,-0.736744,0.008636,0.012911,0.006489
398,0.503913,0.450772,-0.736801,0.008554,0.016467,0.009186
399,0.5039359999999999,0.450536,-0.73693,0.010667,0.0156199999999999,0.008734
400,0.5040180000000001,0.450271,-0.737035,0.0059,0.013246,0.001959
401,0.504119,0.4501,-0.73707,0.005509,0.011859,0.0016579999999999
402,0.504153,0.450009,-0.737103,0.001127,0.012775,-0.000507
403,0.504184,0.449957,-0.737114,0.000531,0.013392,-0.0012289999999999
404,0.50422,0.449929,-0.737106,-0.003045,0.012352,-0.00238
405,0.504205,0.449943,-0.737108,-0.00181,0.012322,-0.0013109999999999
406,0.504139,0.449967,-0.737138,-0.001545,0.011947,0.001451
407,0.504125,0.44998,-0.73714,0.00059,0.013826,0.002978
408,0.504084,0.45003,-0.737137,0.0015,0.015623,0.004685
409,0.503981,0.450103,-0.737164,0.005297,0.014802,0.0030629999999999
410,0.503869,0.450204,-0.737179,0.004417,0.0150979999999999,0.002376
411,0.503821,0.4503069999999999,-0.7371489999999999,0.003763,0.015193,0.00227
412,0.503793,0.450417,-0.7371,0.0032259999999999,0.015662,0.006525
413,0.503704,0.450493,-0.737115,0.003406,0.01107,0.00573
414,0.503551,0.4506529999999999,-0.737121,0.003438,0.009247,0.003997
415,0.503363,0.450947,-0.73707,0.000925,0.010326,0.000696
416,0.503078,0.451239,-0.737085,0.001851,0.012567,-0.004461
417,0.5027119999999999,0.45158,-0.7371260000000001,0.004032,0.010639,-0.005931
418,0.502362,0.452047,-0.737079,0.004963,0.011805,-0.000469
419,0.502066,0.452582,-0.736953,0.002771,0.01333,0.002517
420,0.501821,0.453157,-0.736766,0.003947,0.014632,0.005031
421,0.501606,0.453722,-0.7365649999999999,0.001873,0.012785,0.0051649999999999
422,0.50145,0.454251,-0.736345,0.002136,0.019275,0.008058
423,0.5013529999999999,0.4545979999999999,-0.736196,0.0022329999999999,0.018928,0.007909
424,0.5013529999999999,0.4546489999999999,-0.736165,-0.002879,0.0220509999999999,0.0109909999999999
425,0.50149,0.454468,-0.736183,-0.004771,0.019287,0.00454
426,0.5017189999999999,0.4542239999999999,-0.736178,-0.002803,0.02005,0.0013449999999999
427,0.5020060000000001,0.453909,-0.7361770000000001,0.0010609999999999,0.023523,0.007631
428,0.5023880000000001,0.453293,-0.736295,0.000328,0.023864,0.007368
429,0.502895,0.452474,-0.736453,-0.00114,0.022212,0.005786
430,0.503391,0.45181,-0.7365229999999999,0.002072,0.008655,-0.003727
431,0.503772,0.451333,-0.736554,0.003751,0.013053,0.001172
432,0.5040439999999999,0.450711,-0.736749,0.003478,0.013675,0.001366
433,0.504391,0.45001,-0.7369399999999999,-0.001996,0.014208,0.000444
434,0.504788,0.4494479999999999,-0.737011,0.001697,0.008163,-0.002643
435,0.505026,0.449093,-0.737065,0.006464,0.008869,-0.004436
436,0.505023,0.44881,-0.737239,0.011548,0.012906,0.005503
437,0.505039,0.448405,-0.737474,0.00462,0.0109909999999999,0.009752
438,0.505312,0.448132,-0.737453,0.004346,0.011264,0.009731
439,0.505602,0.4480939999999999,-0.7372770000000001,0.001417,0.013408,0.002017
440,0.5058279999999999,0.448006,-0.737176,-0.000823,0.014015,-0.003547
441,0.5061899999999999,0.447867,-0.737012,-0.001307,0.014322,-0.003069
442,0.506642,0.4478399999999999,-0.736718,-0.005482,0.012869,-0.0029059999999999
443,0.507016,0.447817,-0.736474,-0.009778,0.014143,-0.007087
444,0.507323,0.44782,-0.7362609999999999,-0.011168,0.012827,-0.010459
445,0.507529,0.4479149999999999,-0.736062,-0.00141,0.011589,-0.0029059999999999
446,0.507629,0.448024,-0.735927,0.002152,0.016652,0.006587
447,0.507728,0.448072,-0.735829,0.005257,0.021609,0.010456
448,0.50785,0.448176,-0.735681,0.008004,0.015325,0.01359
449,0.5079739999999999,0.448351,-0.7354890000000001,0.01055,0.012602,0.014572
450,0.508004,0.448481,-0.7353890000000001,0.0110239999999999,0.015234,0.015097
451,0.507984,0.448527,-0.735374,0.001156,0.017079,0.010185
452,0.507717,0.4484229999999999,-0.735622,0.0016359999999999,0.012469,0.006725
453,0.507128,0.4483819999999999,-0.736053,0.001982,0.006253,0.0014039999999999
454,0.506358,0.4485369999999999,-0.7364890000000001,0.007726,-0.005788,-0.010017
455,0.505704,0.448909,-0.736712,0.009128,-0.00291,-0.009932
456,0.505362,0.449456,-0.736613,0.004175,0.003974,-0.009053
457,0.505287,0.4500989999999999,-0.736271,-0.010414,0.028096,-0.004924
458,0.505274,0.450677,-0.735927,-0.016947,0.0380319999999999,-0.002766
459,0.505228,0.451039,-0.735737,-0.0190669999999999,0.035671,-0.001552
460,0.505384,0.4510109999999999,-0.735646,-0.022535,0.027657,0.005208
461,0.505854,0.450636,-0.735554,-0.018061,0.022753,0.009052
462,0.506426,0.449925,-0.735596,-0.013155,0.021511,0.0088349999999999
463,0.506881,0.449139,-0.735762,0.00557,0.010944,0.005232
464,0.507308,0.448337,-0.735957,0.0131389999999999,0.014646,0.009456
465,0.507725,0.4475229999999999,-0.736165,0.013805,0.0173669999999999,0.009618
466,0.508152,0.446916,-0.7362390000000001,0.0134849999999999,0.003508,-2.8000000000000003e-05
467,0.5085649999999999,0.446482,-0.736217,0.013392,0.003561,-0.000309
468,0.508937,0.44626,-0.7360939999999999,0.009434,0.004225,-0.000905
469,0.509355,0.44618,-0.735854,0.007094,0.01198,-0.002031
470,0.509671,0.446135,-0.735663,0.000492,0.012743,0.0026
471,0.50984,0.446087,-0.735574,-0.00218,0.012623,0.0056549999999999
472,0.510005,0.446127,-0.735436,-0.004618,0.0138789999999999,0.001442
473,0.510126,0.44625,-0.7352770000000001,-0.004236,0.019525,-0.00308
474,0.510185,0.4463189999999999,-0.735194,-0.001121,0.01825,-0.002828
475,0.510239,0.446339,-0.7351449999999999,-0.004013,0.013652,0.0016699999999999
476,0.510424,0.446404,-0.734977,-0.007983,0.014458,0.0025399999999999
477,0.5106430000000001,0.4465479999999999,-0.734737,-0.010659,0.016236,0.00288
478,0.5107729999999999,0.4467359999999999,-0.734532,-0.011292,0.01202,-0.0001629999999999
479,0.510779,0.447001,-0.734367,0.004968,0.007803,-0.002923
480,0.510763,0.447281,-0.734208,0.00564,0.010574,-0.000335
481,0.5107149999999999,0.447527,-0.7340909999999999,0.007199,0.017149,0.007056
482,0.5106149999999999,0.447785,-0.734003,0.008565,0.015869,0.007181
483,0.510497,0.4481229999999999,-0.733879,0.008683,0.015531,0.007058
484,0.510275,0.44851,-0.733797,0.0095459999999999,0.015296,0.003527
485,0.510041,0.448913,-0.733714,0.006637,0.012452,-0.00179
486,0.509787,0.449306,-0.733649,0.00712,0.01334,-0.003015
487,0.509542,0.449725,-0.733563,-0.000783,0.022992,-0.0008119999999999
488,0.50926,0.450108,-0.733524,-0.004438,0.02763,4e-06
489,0.508933,0.4504039999999999,-0.7335689999999999,-0.005027,0.025151,-1.3e-05
490,0.508602,0.450561,-0.7337020000000001,-0.008114,0.019776,0.005034
491,0.5083770000000001,0.450571,-0.7338520000000001,-0.0063479999999999,0.012579,0.006939
492,0.508444,0.450568,-0.733807,-0.001379,0.014108,0.007672
493,0.508729,0.450493,-0.7336560000000001,0.003554,0.019157,0.008756
494,0.508929,0.450259,-0.7336600000000001,0.006192,0.020963,0.010165
495,0.508965,0.4499039999999999,-0.733853,0.002433,0.014009,0.008816
496,0.509062,0.44956,-0.733997,-0.0016769999999999,0.0065099999999999,-0.005612
497,0.509267,0.449362,-0.7339760000000001,-0.003667,0.00773,-0.012957
498,0.509474,0.449154,-0.7339600000000001,-0.007643,0.013721,-0.015766
499,0.509814,0.448921,-0.733866,-0.01839,0.018822,-0.007711
500,0.510337,0.448668,-0.733658,-0.0165319999999999,0.020525,-0.003556
501,0.511033,0.448468,-0.733295,-0.013047,0.017337,0.0033759999999999
502,0.51173,0.448255,-0.732939,0.001041,0.017886,0.009672
503,0.512428,0.4479479999999999,-0.732639,0.00573,0.0165449999999999,0.010059
504,0.513171,0.4475149999999999,-0.732384,0.006467,0.01594,0.007637
505,0.51384,0.447029,-0.732211,0.0037229999999999,0.018928,0.004398
506,0.514536,0.446478,-0.732059,0.001944,0.022028,0.007572
507,0.5151060000000001,0.44581,-0.732065,-0.0022429999999999,0.02146,0.012812
508,0.51559,0.4451029999999999,-0.732155,-0.003657,0.010662,0.008156
509,0.5159600000000001,0.44448,-0.732273,0.001832,0.0071959999999999,-0.002453
510,0.516339,0.443949,-0.7323270000000001,0.002094,0.003546,-0.005221
511,0.516735,0.4435,-0.73232,0.0073129999999999,0.0159729999999999,-0.008616
512,0.517009,0.442974,-0.732445,0.004155,0.016193,-0.00486
513,0.517176,0.442382,-0.732685,0.003988,0.016786,-0.004619
514,0.517455,0.4419939999999999,-0.732722,0.000688,0.01638,-0.002248
515,0.517768,0.441851,-0.732587,0.001214,0.011457,0.0052159999999999
516,0.5180100000000001,0.441838,-0.732424,0.000972,0.0114709999999999,0.005053
517,0.518234,0.441916,-0.732218,-0.003799,0.010858,0.0034729999999999
518,0.5183939999999999,0.442082,-0.732005,-0.0044469999999999,0.008556,-0.0018969999999999
519,0.5184,0.442405,-0.731805,-0.002943,0.008522,-0.0018989999999999
520,0.518213,0.442822,-0.731685,0.0010279999999999,0.017154,0.000988
521,0.517883,0.443234,-0.7316699999999999,0.000825,0.015064,-4e-06
522,0.517455,0.4436449999999999,-0.7317239999999999,9.3e-05,0.018604,-0.000897
523,0.5170020000000001,0.4440479999999999,-0.731799,-0.001789,0.017179,-0.0034
524,0.5166270000000001,0.444383,-0.731861,9.7e-05,0.017455,-8.8e-05
525,0.516342,0.444577,-0.7319439999999999,-0.004761,0.0270259999999999,0.003062
526,0.516125,0.444615,-0.732074,-0.008877,0.017222,0.002124
527,0.516053,0.4445449999999999,-0.732168,-0.006363,0.0134169999999999,-0.004404
528,0.516041,0.444341,-0.7323,-0.008564,0.013835,-0.006378
529,0.515947,0.444138,-0.7324890000000001,-0.008272,0.0152889999999999,0.001776
530,0.51577,0.443984,-0.732707,-0.008842,0.013642,0.000499
531,0.515342,0.443917,-0.7330479999999999,-0.008171,0.01348,0.002701
532,0.5148050000000001,0.443928,-0.7334189999999999,0.002895,0.019924,-0.000834
533,0.5145460000000001,0.443729,-0.733721,-0.006077,0.022534,0.001193
534,0.5145390000000001,0.443439,-0.733901,0.002734,0.0192379999999999,0.008056
535,0.51413,0.443543,-0.734125,0.0212699999999999,0.020935,0.011118
536,0.513594,0.4436489999999999,-0.734436,0.015718,0.017365,0.018402
537,0.5134489999999999,0.443382,-0.734699,0.0298709999999999,-0.006813,0.022785
538,0.5139050000000001,0.44309,-0.734557,0.00909,-0.003163,0.01573
539,0.5151,0.4432439999999999,-0.733626,-0.013528,0.008249,-0.020204
540,0.515642,0.443712,-0.732962,-0.0301379999999999,0.011214,-0.028558
541,0.514417,0.44427,-0.733484,-0.018278,0.007512,-0.018835
542,0.51252,0.445216,-0.7342390000000001,-0.002708,0.023534,-0.008926
543,0.511451,0.446126,-0.7344310000000001,-0.002357,0.02975,-0.00797
544,0.5112260000000001,0.4465399999999999,-0.734337,-0.014399,0.021172,-0.0054399999999999
545,0.511197,0.446605,-0.734317,-0.017178,0.019033,0.001926
546,0.5110939999999999,0.4466029999999999,-0.73439,-0.011659,0.017386,0.006225
547,0.511154,0.446627,-0.734334,-0.00412,0.022871,0.015004
548,0.511465,0.446485,-0.7342029999999999,-0.0015019999999999,0.0277129999999999,0.0131639999999999
549,0.5116970000000001,0.4460739999999999,-0.734291,0.000357,0.026887,0.009926
550,0.511598,0.445579,-0.734661,0.006911,0.016381,0.0134539999999999
551,0.511491,0.445043,-0.73506,0.007018,0.0169169999999999,0.013853
552,0.511618,0.4446029999999999,-0.7352380000000001,0.007623,0.0077129999999999,0.003106
553,0.511898,0.444177,-0.735301,0.003315,0.002875,-0.007421
554,0.5120819999999999,0.443842,-0.735375,0.00133,0.002767,-0.0106579999999999
555,0.512071,0.443843,-0.735382,0.000319,0.001149,-0.011551
556,0.511954,0.444292,-0.735193,0.001993,0.012114,-0.006919
557,0.511785,0.444906,-0.734938,-0.001089,0.020914,-0.00461
558,0.511616,0.4454979999999999,-0.734697,-0.002156,0.0201389999999999,-0.002806
559,0.511493,0.4460159999999999,-0.7344689999999999,-0.007495,0.016874,0.001895
560,0.511418,0.446413,-0.73428,-0.0092819999999999,0.019148,0.0064659999999999
561,0.511447,0.44659,-0.734152,-0.011264,0.019901,0.004751
562,0.511478,0.446584,-0.7341340000000001,-0.008884,0.023722,0.005664
563,0.51149,0.446388,-0.734245,-0.003647,0.021736,0.00573
564,0.5115310000000001,0.446084,-0.734401,-0.003428,0.022056,0.007503
565,0.511568,0.4457529999999999,-0.734576,0.002653,0.015063,0.0027649999999999
566,0.511658,0.4453539999999999,-0.7347560000000001,0.001999,0.010914,0.004684
567,0.511757,0.445112,-0.734834,-0.00135,0.008639,0.0056619999999999
568,0.511741,0.44515,-0.7348210000000001,0.003624,0.002665,-0.0053219999999999
569,0.5115649999999999,0.445391,-0.734798,0.008165,0.0015689999999999,-0.009724
570,0.511274,0.445845,-0.734725,0.004793,-0.000349,-0.010331
571,0.510975,0.446474,-0.7345510000000001,0.001049,0.008848,-0.006141
572,0.51072,0.44722,-0.734275,-0.003167,0.0146639999999999,-0.001504
573,0.510472,0.448036,-0.73395,-0.005467,0.0176169999999999,-0.000349
574,0.510231,0.4487359999999999,-0.733689,-0.004189,0.02923,0.0074319999999999
575,0.510076,0.449176,-0.733528,-0.008855,0.035276,0.010094
576,0.510049,0.449266,-0.733492,-0.009515,0.031691,0.009248
577,0.510075,0.449084,-0.733585,-0.006016,0.025587,0.007542
578,0.5101100000000001,0.448721,-0.733783,-0.000237,0.0207919999999999,0.004352
579,0.510221,0.4481239999999999,-0.73407,0.000384,0.019847,0.003525
580,0.510401,0.447427,-0.73437,0.000723,0.0138,0.004252
581,0.5106470000000001,0.446799,-0.734582,0.003162,0.0038079999999999,-0.002754
582,0.510824,0.446308,-0.734757,0.0031219999999999,0.002285,-0.00618
583,0.5108229999999999,0.446054,-0.734912,0.004589,0.005362,-0.006543
584,0.5108,0.446059,-0.734925,0.005863,0.008897,-0.0079189999999999
585,0.510839,0.446306,-0.734748,0.003276,0.01132,-0.005624
586,0.510896,0.446593,-0.734534,-0.002061,0.0195009999999999,0.0008609999999999
587,0.51089,0.446892,-0.734356,-0.004145,0.0187449999999999,0.001995
588,0.51088,0.447144,-0.734209,-0.004411,0.019882,0.001849
589,0.510891,0.447327,-0.7340899999999999,-0.0061909999999999,0.02243,0.006399
590,0.51098,0.4473069999999999,-0.7340409999999999,-0.005014,0.022557,0.004945
591,0.511062,0.4470909999999999,-0.734115,-0.006439,0.02024,0.0074769999999999
592,0.511155,0.446709,-0.734283,-0.004807,0.0140449999999999,0.006408
593,0.5113,0.446284,-0.73444,-0.001458,0.012304,0.007344
594,0.511416,0.445883,-0.734604,-0.00223,0.01092,0.0032189999999999
595,0.511524,0.4456819999999999,-0.73465,0.008221,-0.001239,-0.013092
596,0.5115460000000001,0.445809,-0.734557,0.007863,0.0022649999999999,-0.017838
597,0.5114489999999999,0.446177,-0.734402,0.00967,0.006811,-0.0175199999999999
598,0.511332,0.446652,-0.734194,0.0029809999999999,0.023639,-0.004514
599,0.511336,0.44711,-0.733913,-0.000151,0.024402,0.000988
600,0.511446,0.447443,-0.733633,-0.00522,0.026312,0.011038
601,0.5115970000000001,0.447567,-0.733453,-0.007736,0.024846,0.013085
602,0.511794,0.447392,-0.733421,-0.00479,0.023281,0.007988
603,0.5120359999999999,0.446906,-0.733549,-0.002636,0.021127,0.005445
604,0.512267,0.446167,-0.733838,-0.004363,0.0209199999999999,0.002408
605,0.5124810000000001,0.445334,-0.734193,-0.001236,0.013345,-0.0021809999999999
606,0.5127229999999999,0.444538,-0.734507,-0.003156,0.012173,-0.004354
607,0.513019,0.443837,-0.7347239999999999,0.004925,-0.001119,-0.005877
608,0.513297,0.443329,-0.734837,0.00422,0.002976,-0.005504
609,0.513497,0.442967,-0.734915,0.005088,0.004771,-0.00654
610,0.513688,0.442788,-0.7348899999999999,0.000838,0.008888,0.001186
611,0.513897,0.44273,-0.7347779999999999,0.000263,0.011142,0.0048439999999999
612,0.514075,0.442802,-0.734611,-0.002097,0.01104,0.002677
613,0.514169,0.442982,-0.734436,-0.003656,0.014552,0.00325
614,0.514217,0.443129,-0.734314,-0.008175,0.015871,0.001785
615,0.51426,0.443262,-0.734204,-0.0077909999999999,0.015997,0.002804
616,0.5143979999999999,0.443395,-0.7340270000000001,-0.0071189999999999,0.021296,0.0022
617,0.514544,0.443374,-0.733937,-0.003222,0.0182349999999999,0.000157
618,0.514656,0.443275,-0.733919,-0.002342,0.014855,0.000871
619,0.51474,0.443217,-0.7338939999999999,-0.002289,0.012975,-0.001839
620,0.514886,0.443162,-0.733826,-0.000863,0.015441,0.0015869999999999
621,0.515092,0.443037,-0.7337560000000001,-0.0032049999999999,0.014726,0.000343
622,0.51527,0.442876,-0.733729,-0.0047409999999999,0.012019,0.000834
623,0.5153939999999999,0.4427239999999999,-0.733733,0.0017109999999999,0.011377,0.002898
624,0.515447,0.4426239999999999,-0.7337560000000001,0.002482,0.0078,0.0013039999999999
625,0.515406,0.442616,-0.7337899999999999,0.0011949999999999,0.008312,0.004328
626,0.515297,0.4427609999999999,-0.733779,9.9e-05,0.008167,-9.2e-05
627,0.515149,0.4430439999999999,-0.733712,0.000919,0.0085849999999999,-0.002173
628,0.514996,0.4434369999999999,-0.733582,0.002124,0.012419,-0.004287
629,0.514842,0.443875,-0.733425,0.00176,0.013553,-0.00095
630,0.514721,0.444318,-0.7332420000000001,0.00098,0.013277,-0.002629
631,0.514636,0.444749,-0.7330409999999999,-0.0024289999999999,0.015319,0.002053
632,0.5145890000000001,0.4451989999999999,-0.732801,-0.00467,0.020957,0.0008359999999999
633,0.5145029999999999,0.445587,-0.732625,-0.004722,0.0254509999999999,0.003407
634,0.514436,0.4458029999999999,-0.732541,-0.002976,0.024549,0.003247
635,0.51449,0.4458149999999999,-0.732495,-0.004282,0.019364,0.004742
636,0.5145930000000001,0.445642,-0.732528,-0.004843,0.019171,0.005996
637,0.514674,0.445391,-0.7326229999999999,-0.001384,0.013623,0.003589
638,0.514716,0.445165,-0.7327319999999999,0.0021449999999999,0.014171,-0.0016579999999999
639,0.5147520000000001,0.4449399999999999,-0.732843,0.002277,0.013403,-0.002493
640,0.514787,0.444739,-0.7329399999999999,0.0039049999999999,0.011193,-0.003007
641,0.514834,0.444652,-0.7329600000000001,0.004163,0.010854,-0.0060079999999999
642,0.514848,0.444661,-0.732945,0.003813,0.011836,-0.004101
643,0.51485,0.444764,-0.732881,0.001385,0.018645,-0.0017989999999999
644,0.514821,0.4448539999999999,-0.732847,-0.002614,0.016038,0.003019
645,0.514822,0.444924,-0.732804,-0.003454,0.016136,0.003342
646,0.514863,0.4449939999999999,-0.7327319999999999,-0.001222,0.019331,0.003957
647,0.514879,0.444924,-0.732763,-0.004106,0.021003,0.003134
648,0.514853,0.444737,-0.732895,-0.001898,0.017452,0.001191
649,0.5148010000000001,0.444553,-0.7330439999999999,-0.001053,0.012616,-0.001621
650,0.514791,0.444345,-0.7331770000000001,-0.000646,0.01232,-0.002251
651,0.514848,0.444106,-0.7332810000000001,-0.002549,0.0113379999999999,0.001088
652,0.514891,0.443893,-0.733379,-0.006392,0.010513,0.003048
653,0.514857,0.443713,-0.733513,-0.003718,0.007978,0.0019
654,0.514776,0.443636,-0.7336159999999999,-0.0014089999999999,0.009,-0.001186
655,0.514567,0.443738,-0.733701,0.002157,0.00748,-0.005404
656,0.5142720000000001,0.443972,-0.7337670000000001,0.0024519999999999,0.0072459999999999,-0.005339
657,0.513953,0.444421,-0.733718,0.001153,0.012946,-0.001664
658,0.513707,0.444963,-0.733561,-0.002355,0.015638,-0.0016829999999999
659,0.51348,0.4455119999999999,-0.733387,-0.003592,0.01689,0.004719
660,0.5132869999999999,0.446017,-0.733216,-0.003003,0.016492,0.0034939999999999
661,0.513083,0.446482,-0.733075,-0.003333,0.017233,0.005582
662,0.5128729999999999,0.446834,-0.733008,-0.005671,0.017812,0.0064459999999999
663,0.5126689999999999,0.4470729999999999,-0.733005,-0.007161,0.022608,0.004978
664,0.512484,0.447134,-0.733097,-0.005053,0.023295,0.003483
665,0.5123,0.447029,-0.7332890000000001,-0.005556,0.018074,0.002592
666,0.512103,0.4468649999999999,-0.733527,-0.004153,0.014454,0.002433
667,0.511933,0.446734,-0.733726,-0.000474,0.0068489999999999,-0.002541
668,0.511772,0.446671,-0.733877,0.005242,0.003341,-0.008509
669,0.511626,0.446708,-0.733956,0.0072489999999999,0.004052,-0.010017
670,0.5115,0.446891,-0.7339319999999999,0.000875,0.00866,-0.005692
671,0.511404,0.447194,-0.733815,0.000589,0.010387,-0.0034439999999999
672,0.5113479999999999,0.4476449999999999,-0.733578,-0.001766,0.014086,-0.0004
673,0.511281,0.4481779999999999,-0.7333,-0.001088,0.017948,0.002541
674,0.51115,0.4486949999999999,-0.733075,-0.002803,0.018652,0.005399
675,0.511026,0.449106,-0.7329100000000001,-0.002679,0.01824,0.005233
676,0.510976,0.449367,-0.732784,-0.008138,0.028813,0.007458
677,0.5109100000000001,0.449378,-0.732823,-0.006027,0.023339,0.008489
678,0.510781,0.449268,-0.732981,-0.004418,0.018414,0.004756
679,0.510605,0.449108,-0.733201,0.00093,0.009418,-0.004653
680,0.51054,0.448955,-0.733341,0.003834,0.0153699999999999,-0.004635
681,0.51058,0.448712,-0.7334609999999999,-0.0026609999999999,0.017108,-0.001265
682,0.510622,0.4483789999999999,-0.733636,-0.006594,0.009812,-0.001227
683,0.510609,0.44809,-0.733822,-0.001912,0.008057,-0.002568
684,0.510574,0.447909,-0.733956,-0.001877,0.008237,-0.002433
685,0.5105270000000001,0.447845,-0.734028,0.004381,0.0097819999999999,-0.0042229999999999
686,0.510506,0.4478649999999999,-0.7340300000000001,-0.000237,0.0131949999999999,-0.0004059999999999
687,0.5104920000000001,0.4479109999999999,-0.734012,-0.002023,0.01324,-1.2e-05
688,0.5104989999999999,0.4479899999999999,-0.733959,-0.00113,0.013772,0.002193
689,0.510484,0.448109,-0.733897,-0.0002299999999999,0.013423,0.001963
690,0.51043,0.448212,-0.733871,-0.001015,0.013671,0.0036009999999999
691,0.510365,0.448255,-0.7338899999999999,-0.001347,0.0152919999999999,0.003864
692,0.510324,0.448239,-0.733928,-0.003611,0.018756,0.003551
693,0.510305,0.448127,-0.73401,-0.0035909999999999,0.019555,0.002641
694,0.510307,0.447989,-0.734092,-0.004585,0.014947,0.00164
695,0.5103489999999999,0.447825,-0.734164,-0.005039,0.011953,-0.001249
696,0.510408,0.4476449999999999,-0.734233,-0.003968,0.012483,-0.002385
697,0.510443,0.447538,-0.734273,-0.0022949999999999,0.004534,-0.0011539999999999
698,0.5104529999999999,0.4475149999999999,-0.7342810000000001,0.00148,0.00323,-0.003924
699,0.510472,0.4475989999999999,-0.734216,0.001415,0.004489,-0.003622
700,0.510463,0.4477899999999999,-0.734106,0.004308,0.014551,-0.002665
701,0.5105350000000001,0.447999,-0.7339289999999999,0.001215,0.022262,0.001705
702,0.510658,0.448155,-0.733748,-0.0020829999999999,0.018978,0.003401
703,0.5108550000000001,0.448244,-0.733556,-0.005835,0.0182629999999999,0.001241
704,0.5110859999999999,0.4482939999999999,-0.733364,-0.002175,0.0190669999999999,0.0016899999999999
705,0.511343,0.448193,-0.733247,-0.001531,0.022068,0.002351
706,0.511574,0.447997,-0.733206,0.001258,0.012529,-0.002039
707,0.511798,0.447806,-0.733166,0.0026829999999999,0.014764,-0.002231
708,0.512037,0.447577,-0.733139,0.001421,0.0198759999999999,0.000229
709,0.512376,0.447242,-0.733107,-0.005097,0.0155419999999999,0.002913
710,0.512683,0.4468939999999999,-0.733104,-0.002109,0.0085659999999999,0.001567
711,0.5128729999999999,0.446658,-0.733115,-0.000361,0.010373,0.000388
712,0.513009,0.4464579999999999,-0.7331409999999999,0.004279,0.012373,-0.001478
713,0.513125,0.446268,-0.733176,0.00134,0.011831,-0.001794
714,0.513239,0.446144,-0.733172,0.000433,0.01014,-0.004224
715,0.513307,0.4461739999999999,-0.733106,-0.003587,0.012078,-0.003619
716,0.513367,0.446252,-0.733017,-0.00351,0.013129,-0.001343
717,0.513419,0.446358,-0.732916,-0.000495,0.014503,-0.0021149999999999
718,0.513488,0.446447,-0.732813,-0.005141,0.018565,0.001444
719,0.513602,0.446502,-0.7327,-0.005652,0.020723,0.003879
720,0.5136850000000001,0.446509,-0.732637,-0.004835,0.019509,0.004671
721,0.513678,0.4464909999999999,-0.732653,-0.000785,0.012783,0.001925
722,0.513519,0.446531,-0.73274,0.005142,0.006304,-0.000674
723,0.513335,0.446621,-0.7328140000000001,0.005524,0.004001,0.001979
724,0.5131479999999999,0.446746,-0.732869,0.002889,0.0069739999999999,-0.000483
725,0.513042,0.446877,-0.7328640000000001,-0.000148,0.01461,-0.001511
726,0.512966,0.447007,-0.732837,-7.2e-05,0.01448,-0.001538
727,0.512949,0.4471279999999999,-0.732775,-0.00326,0.019135,-0.003003
728,0.513049,0.447219,-0.73265,-0.005038,0.017182,-0.000474
729,0.513252,0.447279,-0.732471,-0.006966,0.014284,-0.002041
730,0.513523,0.4472939999999999,-0.732272,-0.004627,0.013399,-0.001538
731,0.5138010000000001,0.4473109999999999,-0.732066,-0.001289,0.008133,-0.00063
732,0.514143,0.447355,-0.731799,-0.0016309999999999,0.008089,-0.000898
733,0.514475,0.4475689999999999,-0.7314350000000001,0.006734,0.0083629999999999,-0.006114
734,0.514846,0.447839,-0.731009,0.004624,0.015418,-0.006631
735,0.515262,0.448076,-0.730571,-0.0004759999999999,0.015593,-6.6e-05
736,0.515764,0.448159,-0.730165,-0.005586,0.020912,0.012956
737,0.5160600000000001,0.448079,-0.730005,-0.005821,0.0223949999999999,0.0128259999999999
738,0.516107,0.447927,-0.730065,-0.004678,0.021068,0.011651
739,0.5160020000000001,0.447793,-0.730221,-0.000789,0.013816,0.00372
740,0.515893,0.447581,-0.730428,0.001532,0.011464,-0.002131
741,0.515911,0.447237,-0.730626,0.000797,0.013121,-0.007594
742,0.516011,0.4468109999999999,-0.730816,-0.0008289999999999,0.01283,-0.008381
743,0.516153,0.446374,-0.7309829999999999,-0.005167,0.01023,-0.003789
744,0.516339,0.4460159999999999,-0.73107,-0.003827,0.0126629999999999,-0.001779
745,0.516493,0.445796,-0.7310949999999999,-0.0022719999999999,0.014837,-0.002135
746,0.516567,0.445621,-0.73115,-0.000667,0.007428,-0.0018059999999999
747,0.516677,0.445511,-0.731139,0.000794,0.0025329999999999,-0.002397
748,0.516796,0.445601,-0.731,0.0038179999999999,0.00139,-0.004886
749,0.5169819999999999,0.445726,-0.730793,-0.000671,0.012648,-0.003277
750,0.51718,0.445777,-0.730621,-0.003783,0.019738,-0.002655
751,0.517303,0.445766,-0.730541,-0.0103,0.03066,0.011348
752,0.517306,0.445717,-0.7305689999999999,-0.011386,0.026955,0.009393
753,0.517142,0.4457069999999999,-0.730691,0.003549,0.004107,-0.006171
754,0.516918,0.445789,-0.730799,0.011158,-0.00043,-0.008397
755,0.5168659999999999,0.4458439999999999,-0.730803,0.008509,0.006778,-0.001619
756,0.517099,0.445727,-0.730709,0.003714,0.013547,0.001003
757,0.517405,0.445622,-0.730557,-0.005915,0.019481,-0.000416
758,0.5175420000000001,0.44561,-0.730467,-0.010721,0.0234,0.006575
759,0.517501,0.4456029999999999,-0.7305,-0.005324,0.0196229999999999,0.0028239999999999
760,0.51737,0.445568,-0.730614,-0.000432,0.014485,-0.001289
761,0.517211,0.445493,-0.730772,0.0034189999999999,0.006106,-0.0034189999999999
762,0.517163,0.445339,-0.7309,-0.000516,0.010548,-0.0002549999999999
763,0.517288,0.445053,-0.7309859999999999,-0.006149,0.019425,0.001006
764,0.51749,0.444691,-0.731063,-0.007862,0.024501,0.001632
765,0.517537,0.444317,-0.7312569999999999,-0.008458,0.012532,0.009212
766,0.5174,0.443983,-0.731557,-0.004201,0.003023,0.00501
767,0.517157,0.443878,-0.731793,0.0016879999999999,-0.0038909999999999,-0.000187
768,0.516934,0.4439909999999999,-0.7318819999999999,0.003696,-0.004523,-0.007513
769,0.5167470000000001,0.444334,-0.7318060000000001,0.002449,0.001344,-0.0183009999999999
770,0.516555,0.444781,-0.7316699999999999,-0.001098,0.008145,-0.015309
771,0.5164,0.445284,-0.7314729999999999,-0.006146,0.013746,-0.007083
772,0.5162800000000001,0.445863,-0.731205,-0.00302,0.018325,0.004933
773,0.516099,0.446497,-0.730946,0.000198,0.022528,0.011815
774,0.51582,0.4470979999999999,-0.730775,0.0004759999999999,0.021927,0.011644
775,0.515491,0.447641,-0.730675,0.004804,0.017584,0.003747
776,0.515195,0.448063,-0.730625,0.006534,0.01852,0.003483
777,0.51498,0.4482649999999999,-0.730653,0.004902,0.019722,0.002931
778,0.514886,0.448227,-0.730743,7.000000000000001e-06,0.026275,0.0018149999999999
779,0.514885,0.447995,-0.7308859999999999,-0.003731,0.017551,-0.000972
780,0.5149229999999999,0.447663,-0.731062,-0.0037689999999999,0.017882,-0.000796
781,0.514939,0.447376,-0.7312270000000001,0.002471,0.009793,-0.006124
782,0.514935,0.447013,-0.731452,0.000705,0.011193,-0.0013369999999999
783,0.514957,0.446577,-0.7317020000000001,0.000683,0.011629,-0.001086
784,0.5150060000000001,0.446204,-0.731895,-0.004432,0.013253,0.001533
785,0.5150560000000001,0.445902,-0.7320439999999999,-0.00999,0.0160419999999999,9.5e-05
786,0.51502,0.445665,-0.732213,-0.005392,0.015776,-0.002391
787,0.514991,0.445492,-0.73234,-0.003928,0.010166,-0.003088
788,0.5149739999999999,0.445387,-0.7324149999999999,0.003199,0.006075,-0.004142
789,0.514943,0.4452899999999999,-0.732496,0.00323,0.0061719999999999,-0.004061
790,0.514809,0.4453649999999999,-0.732545,0.005653,0.005883,-0.001586
791,0.5147609999999999,0.445527,-0.73248,0.001505,0.010329,0.003415
792,0.514811,0.445677,-0.7323529999999999,0.00173,0.015901,0.001457
793,0.514794,0.445791,-0.7322960000000001,-0.003655,0.01333,0.002361
794,0.51466,0.445941,-0.732299,-0.003261,0.012128,0.001189
795,0.5145270000000001,0.446083,-0.732306,-0.001999,0.009148,-7e-05
796,0.514429,0.446246,-0.732275,-0.003336,0.014615,-0.002314
797,0.514312,0.446404,-0.7322609999999999,-0.00328,0.012504,-0.003075
798,0.514159,0.446518,-0.732299,-0.0016469999999999,0.011612,-0.0028699999999999
799,0.5139859999999999,0.446601,-0.7323689999999999,0.000128,0.012001,0.000619
800,0.513877,0.446679,-0.732399,-0.000129,0.0144419999999999,8.4e-05
801,0.513828,0.446773,-0.732376,0.0009119999999999,0.015004,-0.001496
802,0.513772,0.446885,-0.732347,0.00016,0.0150289999999999,0.000185
803,0.513656,0.446997,-0.73236,-0.001464,0.013849,0.000808
804,0.513542,0.4471,-0.7323770000000001,0.000572,0.011534,0.002275
805,0.5134380000000001,0.447208,-0.732384,-0.001643,0.0125239999999999,0.001045
806,0.513315,0.4472859999999999,-0.7324229999999999,0.0006929999999999,0.0131479999999999,0.000947
807,0.513166,0.44737,-0.732475,0.000582,0.013171,-0.001549
808,0.513016,0.4474899999999999,-0.732507,-0.000656,0.010487,-0.0015019999999999
809,0.512904,0.447637,-0.732496,-0.002131,0.0135449999999999,-0.004229
810,0.512821,0.447784,-0.732464,-0.001819,0.015045,-0.004902
811,0.51271,0.447895,-0.732474,-0.00238,0.017437,-0.000192
812,0.512616,0.44793,-0.732518,-0.002316,0.017463,0.000173
813,0.5125569999999999,0.4479229999999999,-0.732564,-0.001662,0.015135,0.000691
814,0.512514,0.447868,-0.732628,-0.00104,0.013512,0.003334
815,0.5124529999999999,0.447759,-0.732737,0.002058,0.012813,0.001429
816,0.5123840000000001,0.44759,-0.732888,0.002127,0.012981,0.00158
817,0.512302,0.44746,-0.733025,0.003048,0.009739,-0.003395
818,0.512295,0.447403,-0.733064,0.005405,0.011581,-0.0029579999999999
819,0.5123479999999999,0.447389,-0.7330369999999999,0.000851,0.013686,-0.00497
820,0.512332,0.447341,-0.7330770000000001,-0.003757,0.0137949999999999,-0.001786
821,0.512264,0.447358,-0.733114,-0.002849,0.0102989999999999,-0.000605
822,0.512181,0.447434,-0.733126,-0.001759,0.010284,0.0009939999999999
823,0.512116,0.4475119999999999,-0.733124,-0.003372,0.014722,-0.000824
824,0.51208,0.447507,-0.733152,-0.006388,0.013033,0.0018739999999999
825,0.512049,0.447459,-0.7332029999999999,-0.004252,0.012075,0.001467
826,0.512001,0.4474229999999999,-0.733258,-0.000495,0.011668,0.00018
827,0.511972,0.447339,-0.733329,0.00086,0.012225,-0.001504
828,0.511968,0.44727,-0.733374,-6.7e-05,0.01176,-0.0008179999999999
829,0.511985,0.447245,-0.733378,-3.7e-05,0.01061,-0.000249
830,0.512027,0.447263,-0.733337,-0.00011,0.012652,-0.000184
831,0.51203,0.4473,-0.733313,-0.001547,0.010799,-0.0008939999999999
832,0.511987,0.447355,-0.733309,0.001227,0.010607,0.0003529999999999
833,0.511984,0.447412,-0.733276,0.001017,0.0144409999999999,0.0018
834,0.51198,0.44745,-0.733256,0.000609,0.017225,0.003199
835,0.511996,0.44747,-0.733233,0.000288,0.011179,-1.3e-05
836,0.512,0.447475,-0.7332270000000001,0.000649,0.009603,-0.004032
837,0.511995,0.4475399999999999,-0.73319,0.000563,0.006851,-0.003565
838,0.512034,0.4476229999999999,-0.733112,0.002019,0.009912,-0.003551
839,0.512143,0.447679,-0.733002,-0.001538,0.014372,-0.000305
840,0.512274,0.447714,-0.7328899999999999,-0.003592,0.016611,0.00236
841,0.512386,0.447739,-0.732796,-0.00433,0.018494,0.003243
842,0.5124380000000001,0.447754,-0.73275,-0.0021079999999999,0.016968,0.001519
843,0.512393,0.447756,-0.732781,0.000226,0.0088939999999999,-0.002357
844,0.51237,0.4477609999999999,-0.732794,0.002218,0.012048,0.003012
845,0.512417,0.447777,-0.73275,0.002673,0.0116189999999999,-0.0017929999999999
846,0.5124890000000001,0.447751,-0.732716,-0.000938,0.014315,-0.002498
847,0.512437,0.4476949999999999,-0.732788,0.000991,0.013212,0.004058
848,0.5123770000000001,0.447686,-0.732835,0.000303,0.009254,0.004517
849,0.5123479999999999,0.447693,-0.732851,-0.000416,0.011932,0.002428
850,0.512325,0.4477069999999999,-0.732858,0.000248,0.012071,0.0002379999999999
851,0.512262,0.447697,-0.732909,-0.000222,0.013821,-0.000963
852,0.512207,0.447651,-0.732975,-0.003128,0.013577,0.000553
853,0.512202,0.4476279999999999,-0.732992,-0.001277,0.014057,-0.000849
854,0.512202,0.447603,-0.733008,-0.001276,0.012953,-0.000192
855,0.5121859999999999,0.447597,-0.7330220000000001,-0.00323,0.012044,-0.002375
856,0.5121560000000001,0.44765,-0.733011,0.000173,0.010907,0.000223
857,0.512153,0.447709,-0.732977,0.00242,0.013274,0.000616
858,0.5121640000000001,0.447733,-0.732955,0.002363,0.012899,0.000289
859,0.5121399999999999,0.447767,-0.732951,0.000647,0.010638,-2e-05
860,0.512129,0.447792,-0.732943,-7.4e-05,0.012841,-0.000959
861,0.512108,0.447858,-0.732917,0.001442,0.013583,-0.001016
862,0.51208,0.447943,-0.732885,0.001637,0.012186,-0.0019329999999999
863,0.512054,0.448008,-0.732863,0.000275,0.014165,-0.000611
864,0.512063,0.4480409999999999,-0.732837,-0.000634,0.012744,0.001713
865,0.5120939999999999,0.4480659999999999,-0.7328,-0.001413,0.0068439999999999,-0.002948
866,0.512134,0.448127,-0.732735,-0.001422,0.013283,-0.000908
867,0.5121680000000001,0.4481699999999999,-0.732684,-0.001456,0.01324,-0.000958
868,0.5121479999999999,0.4482399999999999,-0.7326560000000001,-1.8e-05,0.017077,-0.001643
869,0.512083,0.448329,-0.732647,0.001986,0.010579,-0.0010869999999999
870,0.512046,0.448376,-0.732643,0.002022,0.010532,-0.001091
871,0.512142,0.4484729999999999,-0.732518,0.002049,0.012297,-0.000743
872,0.512353,0.448467,-0.7323729999999999,0.005866,0.016758,0.003278
873,0.512497,0.44828,-0.732387,-0.001221,0.019448,0.001064
874,0.512576,0.4480369999999999,-0.732481,-0.001773,0.013099,0.004484
875,0.512604,0.447833,-0.732586,-0.000733,0.012128,0.0011099999999999
876,0.5126890000000001,0.447626,-0.732653,0.001594,0.014136,-0.001615
877,0.512831,0.447317,-0.732742,-0.001616,0.011759,3.1e-05
878,0.513016,0.4469729999999999,-0.732823,-0.003052,0.008227,-0.001796
879,0.513209,0.446654,-0.7328819999999999,-0.002131,0.008683,-0.001753
880,0.5133810000000001,0.446414,-0.732908,-0.001388,0.0081,-0.003725
881,0.513513,0.446227,-0.7329289999999999,-0.000146,0.008149,-0.002285
882,0.5136029999999999,0.446156,-0.732909,0.000695,0.00996,-0.002244
883,0.513703,0.446142,-0.7328479999999999,-0.000138,0.010676,-0.001985
884,0.513814,0.4461279999999999,-0.732779,-0.000554,0.007715,0.001104
885,0.513896,0.446141,-0.7327130000000001,0.000981,0.008357,-0.002135
886,0.513931,0.446201,-0.732651,0.0008699999999999,0.009991,0.000352
887,0.5139600000000001,0.446244,-0.7326050000000001,0.001055,0.014129,-0.000229
888,0.513979,0.446297,-0.732559,-0.0024129999999999,0.0143349999999999,0.001267
889,0.513997,0.446327,-0.732529,-0.003483,0.012978,0.001297
890,0.514001,0.446355,-0.732509,-0.002328,0.011775,0.001201
891,0.5139819999999999,0.4464189999999999,-0.732483,0.000529,0.010154,-0.00267
892,0.5139670000000001,0.446451,-0.732474,0.000941,0.011495,-0.003137
893,0.513949,0.446477,-0.732471,-0.000323,0.012248,-0.000882
894,0.5139630000000001,0.446524,-0.732432,0.00064,0.013025,0.003154
895,0.5139729999999999,0.446578,-0.7323930000000001,-0.001979,0.010164,0.001466
896,0.513947,0.4466479999999999,-0.732368,-0.001099,0.012275,-0.00306
897,0.5139560000000001,0.446789,-0.732276,0.002462,0.0138889999999999,-0.001809
898,0.514004,0.4468319999999999,-0.732216,-0.002636,0.018317,-0.00248
899,0.5139819999999999,0.4467899999999999,-0.7322569999999999,-0.002263,0.012652,0.00191
900,0.5139819999999999,0.446751,-0.7322810000000001,-0.00144,0.009975,0.001598
901,0.513989,0.446726,-0.732291,-0.002164,0.011709,0.001074
902,0.514007,0.446684,-0.732304,-0.000594,0.0103629999999999,-0.00056
903,0.513989,0.446626,-0.7323529999999999,0.000522,0.010863,0.000221
904,0.513955,0.446565,-0.732413,0.002128,0.011519,0.002708
905,0.5139319999999999,0.4465229999999999,-0.732455,-0.000291,0.012645,0.001254
906,0.5139239999999999,0.446504,-0.7324729999999999,-0.0004349999999999,0.013061,0.001317
907,0.5139090000000001,0.4465739999999999,-0.73244,-0.001,0.007695,-0.001172
908,0.513875,0.4467239999999999,-0.732372,-0.000677,0.010964,-0.003849
909,0.513863,0.4468819999999999,-0.732284,-0.0004509999999999,0.008364,-0.002503
910,0.51385,0.447079,-0.732173,-0.002421,0.011493,-0.001867
911,0.513764,0.447322,-0.732085,-0.001557,0.010426,-0.002519
912,0.513653,0.447578,-0.732006,-0.001141,0.010994,-0.004047
913,0.5135390000000001,0.447827,-0.731934,-0.001469,0.016055,0.000138
914,0.513471,0.448013,-0.7318680000000001,-0.000669,0.016327,0.002208
915,0.513476,0.448093,-0.731815,-0.002444,0.017818,0.002583
916,0.51352,0.448103,-0.7317779999999999,0.002029,0.014818,0.00073
917,0.513595,0.448014,-0.731781,0.002442,0.013305,0.001083
918,0.5137,0.447839,-0.7318140000000001,0.002337,0.01348,0.001116
919,0.513814,0.447655,-0.731846,-0.000783,0.008918,-0.000454
920,0.5139319999999999,0.447421,-0.731907,0.001754,0.01193,-0.001049
921,0.514004,0.4472239999999999,-0.731977,-0.000179,0.009533,0.001126
922,0.514073,0.447147,-0.731975,0.0010789999999999,0.005733,-0.002095
923,0.514105,0.4472069999999999,-0.731915,0.001993,0.016248,-0.007709
924,0.514083,0.44725,-0.731905,0.002015,0.016205,-0.007719
925,0.514013,0.447283,-0.731934,0.001581,0.0120069999999999,-0.001709
926,0.513931,0.447374,-0.7319359999999999,-0.001892,0.011061,0.001772
927,0.513922,0.4474649999999999,-0.731887,-0.001883,0.01097,0.001723
928,0.513901,0.447514,-0.731871,-0.003235,0.0125379999999999,0.0048049999999999
929,0.5138659999999999,0.447477,-0.731919,-0.001354,0.013247,0.003861
930,0.513814,0.447376,-0.732017,-0.001302,0.013347,0.003959
931,0.513807,0.44726,-0.732092,0.001207,0.013647,0.0008609999999999
932,0.513841,0.4471229999999999,-0.732152,0.001723,0.009145,-0.001734
933,0.513878,0.447052,-0.73217,0.00103,0.008819,-0.00512
934,0.513914,0.447057,-0.7321409999999999,-0.001326,0.009395,-0.005621
935,0.513911,0.447086,-0.732126,-0.001124,0.008221,-0.005225
936,0.513892,0.447164,-0.732092,-2.2e-05,0.008997,-0.002543
937,0.513863,0.4472899999999999,-0.732035,-0.000466,0.0071769999999999,-0.00234
938,0.5138199999999999,0.447431,-0.731979,0.000828,0.00928,0.00093
939,0.513757,0.447563,-0.731943,-0.000924,0.0151139999999999,-5.2e-05
940,0.513687,0.4476699999999999,-0.7319260000000001,-0.001312,0.013893,0.0010609999999999
941,0.5136470000000001,0.447731,-0.731917,-5.1e-05,0.011696,0.0017989999999999
942,0.5136189999999999,0.447721,-0.731943,0.000343,0.0132919999999999,-0.001303
943,0.513616,0.447685,-0.731967,0.0008039999999999,0.011238,-0.000394
944,0.513624,0.447646,-0.731985,-0.000181,0.011506,-0.002039
945,0.5136390000000001,0.447625,-0.7319869999999999,-1.3e-05,0.009147,-0.001442
946,0.513663,0.447611,-0.731979,-0.001853,0.007818,-0.002686
947,0.513675,0.447606,-0.731973,-0.000354,0.007731,-0.004202
948,0.513757,0.447672,-0.731876,-0.000452,0.007528,-0.0019039999999999
949,0.513846,0.447735,-0.731775,-0.000814,0.013446,-0.004279
950,0.5138510000000001,0.447722,-0.73178,-0.0024219999999999,0.014803,-0.001542
951,0.5138229999999999,0.447733,-0.731792,-0.000624,0.0101219999999999,-0.00037
952,0.5137970000000001,0.447773,-0.7317859999999999,0.0004849999999999,0.010754,-0.0003
953,0.513843,0.4477939999999999,-0.731741,0.000241,0.0137229999999999,-0.0002839999999999
954,0.513825,0.447759,-0.731775,-0.001374,0.011256,0.0021449999999999
955,0.5137970000000001,0.44772,-0.7318180000000001,0.002866,0.008609,0.000205
956,0.513793,0.447688,-0.7318399999999999,0.002473,0.012624,-6.3e-05
957,0.513789,0.44763,-0.731879,0.005971,0.012865,-0.0014119999999999
958,0.513791,0.447608,-0.731891,0.000842,0.0096519999999999,0.000629
959,0.513803,0.447604,-0.731885,0.000159,0.010022,-0.000308
960,0.513796,0.447629,-0.731874,-0.002703,0.009478,-0.000746
961,0.513753,0.447683,-0.7318720000000001,-0.0004019999999999,0.007456,-0.000687
962,0.513644,0.4477649999999999,-0.731899,-0.000139,0.007237,-0.002095
963,0.513533,0.447867,-0.731913,0.000154,0.008081,-0.0044909999999999
964,0.513428,0.4479609999999999,-0.73193,-0.0026089999999999,0.013571,-0.001392
965,0.513364,0.448077,-0.731904,-0.002439,0.01283,-0.001296
966,0.513323,0.448186,-0.731866,0.000776,0.012325,0.0004669999999999
967,0.513282,0.448272,-0.731842,0.000161,0.0108799999999999,0.000793
968,0.513254,0.448293,-0.7318479999999999,0.000113,0.01092,-0.001535
969,0.513252,0.4482819999999999,-0.7318560000000001,0.000649,0.011496,0.001083
970,0.513254,0.448259,-0.73187,-0.001077,0.01158,0.000913
971,0.513256,0.448235,-0.731883,0.000493,0.010047,-0.0019579999999999
972,0.513256,0.448215,-0.731895,0.002598,0.0108609999999999,-0.001366
973,0.513247,0.448235,-0.731888,0.0019809999999999,0.006309,-0.003036
974,0.513299,0.448283,-0.731823,0.002662,0.008031,-0.001133
975,0.513368,0.4483229999999999,-0.73175,0.001876,0.015209,-0.003296
976,0.513361,0.448306,-0.731765,0.000494,0.011456,-0.000535
977,0.5133409999999999,0.448327,-0.7317670000000001,0.000499,0.005867,-0.000365
978,0.513316,0.4483479999999999,-0.731771,-0.0002089999999999,0.010942,0.00118
979,0.5133340000000001,0.448342,-0.731762,-0.000776,0.011833,0.000302
980,0.5133220000000001,0.4482899999999999,-0.731803,-0.002961,0.010816,-0.002191
981,0.513328,0.448221,-0.7318399999999999,-0.0019149999999999,0.0103209999999999,-0.001772
982,0.51334,0.4481529999999999,-0.731874,0.001247,0.011442,-0.002471
983,0.513365,0.448077,-0.731903,0.001238,0.010419,-0.002716
984,0.513401,0.448033,-0.731904,-0.000629,0.009791,-0.001006
985,0.513408,0.448054,-0.7318859999999999,-0.000896,0.009404,-0.000551
986,0.513437,0.448079,-0.731851,0.000235,0.008784,-0.002708
987,0.513444,0.448118,-0.731822,-0.000337,0.008608,-0.0016989999999999
988,0.513402,0.448184,-0.731812,0.001353,0.008069,-0.001694
989,0.5133449999999999,0.448263,-0.731803,0.002341,0.012156,-0.001718
990,0.513301,0.448329,-0.731793,0.0015609999999999,0.0135389999999999,-7.900000000000001e-05
991,0.513254,0.4484069999999999,-0.7317779999999999,0.001074,0.013156,-0.0006129999999999
992,0.51323,0.448457,-0.7317640000000001,-0.001008,0.011809,-0.001634
993,0.5132369999999999,0.448477,-0.731747,-0.000771,0.009012,-0.001697
994,0.513213,0.448497,-0.7317520000000001,-0.000441,0.008962,-0.001051
995,0.513175,0.448527,-0.7317600000000001,0.001153,0.0103959999999999,-0.001883
996,0.513115,0.4485659999999999,-0.731779,-0.001045,0.010098,-0.001223
997,0.513081,0.448618,-0.73177,-0.000493,0.010199,-0.002025
998,0.513059,0.44865,-0.731766,-0.002348,0.007999,-0.002182
999,0.513005,0.4487029999999999,-0.731771,-0.001073,0.009061,0.000997
1000,0.512951,0.448806,-0.731746,0.001652,0.0071569999999999,-0.001286
1001,0.512949,0.448956,-0.731655,0.002676,0.012836,-0.001942
1002,0.512976,0.449034,-0.731589,0.002237,0.01407,0.000144
1003,0.512949,0.4490659999999999,-0.731588,0.000646,0.012009,0.000341
1004,0.512911,0.449143,-0.731567,-0.001559,0.008087,-0.001068
1005,0.512863,0.449238,-0.731543,-0.000381,0.006115,-0.000604
1006,0.512841,0.449343,-0.7314930000000001,-0.001336,0.011747,-0.002012
1007,0.512761,0.449392,-0.73152,-0.00031,0.011011,-0.000536
1008,0.512676,0.449467,-0.731534,-0.0016589999999999,0.0100819999999999,-0.000766
1009,0.51258,0.449572,-0.731536,0.000146,0.012128,-0.000688
1010,0.512491,0.449652,-0.731549,0.000143,0.009058,-0.000339
1011,0.512406,0.449783,-0.731528,0.001723,0.007019,-0.001397
1012,0.512307,0.449976,-0.731479,0.001853,0.00884,-0.0038729999999999
1013,0.512174,0.450183,-0.731445,0.00223,0.0091989999999999,-0.000137
1014,0.511992,0.450396,-0.731441,0.0037549999999999,0.008603,-0.000737
1015,0.511814,0.450622,-0.731426,0.001782,0.009888,-0.000507
1016,0.51165,0.4508529999999999,-0.731398,0.000984,0.010435,-0.002107
1017,0.5114770000000001,0.4510619999999999,-0.731391,0.000715,0.010516,-0.003396
1018,0.511309,0.451245,-0.731396,0.000502,0.012134,-0.002521
1019,0.511081,0.4514189999999999,-0.731448,-0.002261,0.008679,-0.002637
1020,0.510864,0.451568,-0.731507,-0.001434,0.009767,-0.002288
1021,0.510656,0.451737,-0.731548,0.000956,0.011001,-0.002613
1022,0.510479,0.4518729999999999,-0.731588,-0.000286,0.010056,-0.003428
1023,0.510281,0.452047,-0.731618,0.000522,0.010431,0.0001419999999999
1024,0.5100939999999999,0.452254,-0.7316199999999999,0.002128,0.007829,0.0004799999999999
1025,0.509942,0.452437,-0.731614,0.002449,0.010164,-0.000442
1026,0.50983,0.452549,-0.7316229999999999,-0.000216,0.010693,-0.000982
1027,0.509721,0.452671,-0.7316229999999999,-0.001725,0.010312,-0.0009519999999999
1028,0.5096069999999999,0.452838,-0.731598,0.0012109999999999,0.010327,0.001526
1029,0.509459,0.452964,-0.7316239999999999,0.002061,0.014428,-0.000462
1030,0.509242,0.453029,-0.731735,0.000951,0.01061,-0.001816
1031,0.509115,0.453058,-0.731805,0.001657,0.010397,-0.001609
1032,0.5089600000000001,0.453028,-0.731931,0.001935,0.008596,-0.0018329999999999
1033,0.50883,0.452971,-0.732057,0.001439,0.010529,-0.000442
1034,0.508656,0.452946,-0.732194,0.001812,0.010753,-0.002258
1035,0.5084350000000001,0.452949,-0.732345,0.0017579999999999,0.008309,-0.001633
1036,0.5082,0.453004,-0.732474,0.004435,0.006698,0.00141
1037,0.5080100000000001,0.4530659999999999,-0.732568,0.001999,0.008391,-0.002601
1038,0.507837,0.453194,-0.732608,-0.000711,0.009834,-0.0026969999999999
1039,0.507655,0.4533939999999999,-0.732611,-0.001444,0.009023,-0.00329
1040,0.507456,0.4536449999999999,-0.732593,-0.001124,0.008757,-0.0023769999999999
1041,0.5072399999999999,0.453876,-0.7326,0.002953,0.008145,-0.0018059999999999
1042,0.507033,0.454132,-0.732585,0.002428,0.008103,-0.001622
1043,0.506818,0.4543689999999999,-0.732586,0.001299,0.010856,-0.000492
1044,0.506579,0.454558,-0.732635,-6.3e-05,0.013521,-0.000474
1045,0.506317,0.454733,-0.732707,-0.001495,0.011073,0.000453
1046,0.506134,0.454947,-0.7327,-0.002014,0.00773,-0.000149
1047,0.505981,0.455208,-0.732644,-0.0007469999999999,0.009331,-0.001716
1048,0.505822,0.455491,-0.732578,0.001853,0.008864,-0.004101
1049,0.505683,0.455817,-0.732472,0.001046,0.0070129999999999,-0.00291
1050,0.50557,0.456139,-0.732349,0.002548,0.007514,-0.0045899999999999
1051,0.505341,0.4564859999999999,-0.732291,3e-05,0.0087239999999999,0.000723
1052,0.50508,0.45683,-0.732256,-0.001357,0.011126,0.000704
1053,0.504744,0.457172,-0.732274,0.001313,0.007977,-0.005488
1054,0.504558,0.457556,-0.732162,0.003727,0.01011,-0.003693
1055,0.504504,0.458039,-0.7318979999999999,0.0009429999999999,0.007995,0.000926
1056,0.504346,0.4584569999999999,-0.731745,-0.000944,0.012445,-0.0008289999999999
1057,0.504108,0.458743,-0.73173,-0.010074,0.016949,0.002802
1058,0.5040359999999999,0.458709,-0.731801,-0.009727,0.0196539999999999,0.0049479999999999
1059,0.5041220000000001,0.4583689999999999,-0.731955,-0.010744,0.021764,0.008093
1060,0.50417,0.457953,-0.732182,-0.004078,0.021234,0.005299
1061,0.5041869999999999,0.457445,-0.732488,0.001657,0.012831,0.000508
1062,0.504296,0.456879,-0.732766,0.004935,0.009674,-0.002433
1063,0.504406,0.456337,-0.733028,0.010486,0.000985,-0.004521
1064,0.504408,0.455839,-0.733336,0.005632,-0.001539,-0.0035259999999999
1065,0.504369,0.4554109999999999,-0.733629,0.004405,0.001834,-0.001768
1066,0.504412,0.455058,-0.7338180000000001,-0.001376,0.010365,-0.000267
1067,0.504562,0.454787,-0.733884,-0.000243,0.014436,-0.002124
1068,0.504688,0.454597,-0.733915,0.0003779999999999,0.012154,-0.002017
1069,0.504703,0.454468,-0.733984,-0.0002009999999999,0.005691,-0.004587
1070,0.504687,0.4543899999999999,-0.734043,-0.000445,0.002565,-0.002788
1071,0.504699,0.454337,-0.734068,-0.0008539999999999,0.005456,-0.0013449999999999
1072,0.504718,0.454276,-0.734092,-0.003009,0.0113,-0.003395
1073,0.504624,0.4542319999999999,-0.7341850000000001,-0.002869,0.01255,-0.003059
1074,0.504496,0.4541739999999999,-0.734308,-0.0037329999999999,0.014744,-0.000906
1075,0.504488,0.4540649999999999,-0.7343810000000001,-0.000536,0.010901,-0.0001159999999999
1076,0.504612,0.4539479999999999,-0.734368,0.003582,0.008012,-0.0001139999999999
1077,0.504738,0.45382,-0.73436,0.003456,0.00814,-0.000122
1078,0.504779,0.453633,-0.734448,0.003568,0.010112,0.000134
1079,0.5047689999999999,0.4534319999999999,-0.73458,0.000404,0.008406,-0.002389
1080,0.504784,0.453255,-0.7346779999999999,0.0034409999999999,0.0071629999999999,-0.003314
1081,0.504833,0.453254,-0.734645,0.007725,0.0076069999999999,-0.002507
1082,0.504846,0.453285,-0.734617,0.0035619999999999,0.009453,-0.004793
1083,0.504839,0.4532529999999999,-0.734641,0.001616,0.009256,-0.000863
1084,0.504885,0.45318,-0.7346550000000001,-0.00339,0.008841,0.001943
1085,0.504911,0.453081,-0.734697,-0.00215,0.01396,0.000429
1086,0.504921,0.452982,-0.7347520000000001,-0.000466,0.013555,-0.0033159999999999
1087,0.504904,0.452859,-0.7348399999999999,-0.0004019999999999,0.010672,-0.000664
1088,0.504894,0.452765,-0.734904,-0.0008039999999999,0.008477,-0.001164
1089,0.504925,0.4526489999999999,-0.734954,0.001697,0.008166,-0.002595
1090,0.5049640000000001,0.4525079999999999,-0.735015,0.00088,0.00817,-0.001542
1091,0.505003,0.45236,-0.735079,-0.00125,0.008029,-0.001249
1092,0.505045,0.452268,-0.735107,0.0001889999999999,0.010394,-0.002411
1093,0.505111,0.4522069999999999,-0.735099,-0.001006,0.009844,-0.001901
1094,0.505204,0.452163,-0.735062,0.00029,0.011796,-0.00035
1095,0.505278,0.452107,-0.735045,0.001604,0.009212,-0.000154
1096,0.505314,0.4520369999999999,-0.735063,-6.500000000000001e-05,0.009862,-0.00041
1097,0.505356,0.451953,-0.7350869999999999,-7.7e-05,0.011075,0.000376
1098,0.505438,0.451901,-0.735062,0.001169,0.011051,-0.002517
1099,0.5055069999999999,0.451833,-0.735056,-0.000197,0.011912,-0.001455
1100,0.50556,0.451764,-0.735062,0.002084,0.009189,0.000123
1101,0.505599,0.45168,-0.7350869999999999,0.001161,0.008754,-0.002019
1102,0.5056579999999999,0.4515729999999999,-0.735113,-8.9e-05,0.010936,-4.1e-05
1103,0.50576,0.451485,-0.735096,-0.000557,0.012703,-0.0020559999999999
1104,0.505858,0.4513859999999999,-0.735089,0.000642,0.011352,-0.001987
1105,0.505998,0.451298,-0.735047,-0.000521,0.0066799999999999,-0.002349
1106,0.506116,0.451254,-0.734993,-7.4e-05,0.008005,-0.001381
1107,0.506165,0.4512319999999999,-0.734973,0.000839,0.006043,-0.002515
1108,0.506239,0.451271,-0.734897,0.0008869999999999,0.011802,0.000843
1109,0.5063840000000001,0.4512739999999999,-0.734796,-0.0016539999999999,0.016316,-0.002112
1110,0.506545,0.451206,-0.734727,-0.001433,0.013424,-0.000914
1111,0.506717,0.45113,-0.7346550000000001,0.000714,0.011715,-0.005152
1112,0.5068060000000001,0.451083,-0.7346229999999999,-0.001084,0.009275,-0.0030789999999999
1113,0.506888,0.4510229999999999,-0.734603,-0.000724,0.010937,-0.00377
1114,0.507049,0.450879,-0.73458,-0.000869,0.009433,0.000251
1115,0.50722,0.450747,-0.7345430000000001,-0.001269,0.008436,-7.6e-05
1116,0.50735,0.450664,-0.734505,-0.000636,0.008626,-0.000511
1117,0.507472,0.450608,-0.734454,0.000462,0.010848,-0.001325
1118,0.507586,0.450545,-0.734414,-0.001238,0.011033,-0.004966
1119,0.507716,0.45048,-0.734364,0.000798,0.007849,-0.005153
1120,0.50781,0.450475,-0.734302,0.0027949999999999,0.010309,-0.003506
1121,0.507925,0.4504829999999999,-0.734218,0.000604,0.01192,-0.001164
1122,0.5080399999999999,0.45047,-0.734146,-0.000838,0.010956,-0.002426
1123,0.5081439999999999,0.450462,-0.734079,0.000263,0.007164,-0.000739
1124,0.5082409999999999,0.4505159999999999,-0.733979,-0.000123,0.009155,-0.0009
1125,0.508337,0.4506199999999999,-0.733848,0.001062,0.009646,-0.002968
1126,0.508387,0.450742,-0.733739,-0.001749,0.009676,-0.000575
1127,0.5084960000000001,0.450839,-0.733604,-0.000546,0.01164,-0.000466
1128,0.508656,0.450874,-0.733472,-0.001179,0.0114069999999999,-0.000553
1129,0.508788,0.4509109999999999,-0.7333569999999999,-0.002013,0.009645,-0.001018
1130,0.508885,0.450957,-0.7332609999999999,0.001491,0.009843,-0.0007469999999999
1131,0.508951,0.450985,-0.7331979999999999,0.001562,0.010227,-0.002794
1132,0.5090279999999999,0.450995,-0.733138,-2.6e-05,0.01069,-0.0024879999999999
1133,0.509112,0.450993,-0.7330810000000001,-0.0007509999999999,0.009929,-0.00256
1134,0.50922,0.451008,-0.7329979999999999,0.000698,0.0131949999999999,-0.002003
1135,0.509266,0.451033,-0.73295,-0.00246,0.008623,-0.004781
1136,0.509302,0.451112,-0.732876,0.001059,0.009719,-0.006122
1137,0.50938,0.451241,-0.732743,-0.00056,0.014244,-0.003524
1138,0.509446,0.451276,-0.732675,-0.001603,0.011477,0.00216
1139,0.509523,0.451201,-0.732668,-0.000917,0.012605,0.000307
1140,0.509641,0.451129,-0.732631,-0.002393,0.0100069999999999,-0.000646
1141,0.509783,0.451057,-0.732575,-0.001101,0.011604,-0.003066
1142,0.509894,0.45096,-0.732558,-0.001562,0.011656,-0.001893
1143,0.509958,0.450847,-0.732583,-0.0020239999999999,0.0080299999999999,-0.004981
1144,0.510012,0.45074,-0.732612,0.001264,0.010365,-0.00271
1145,0.5100899999999999,0.4506529999999999,-0.732611,0.001827,0.009995,-0.003213
1146,0.510197,0.450571,-0.732586,0.000133,0.010549,-0.001545
1147,0.510314,0.450488,-0.732556,-0.00125,0.006833,-0.001819
1148,0.510429,0.450463,-0.732491,-0.000389,0.0080629999999999,-0.0018989999999999
1149,0.510525,0.450507,-0.7323970000000001,0.000171,0.011544,-0.004602
1150,0.51061,0.4505479999999999,-0.732313,-0.002187,0.012175,-0.000963
1151,0.510677,0.4505369999999999,-0.732273,-0.001247,0.010248,-0.000408
1152,0.510703,0.450508,-0.732273,-0.0008759999999999,0.009804,-0.002392
1153,0.510683,0.450484,-0.732301,-0.003924,0.013047,-0.001036
1154,0.510659,0.450433,-0.732349,-0.000222,0.0125329999999999,0.000202
1155,0.51071,0.450355,-0.732362,-0.00041,0.0081409999999999,-0.000365
1156,0.510778,0.450287,-0.732356,-0.000265,0.009873,-0.003133
1157,0.510817,0.450229,-0.7323649999999999,-0.001646,0.00903,-0.002849
1158,0.510829,0.4501699999999999,-0.7323930000000001,-0.002223,0.00831,-0.005797
1159,0.510862,0.450122,-0.7324,-0.002286,0.009092,-0.003333
1160,0.51094,0.450092,-0.732363,-0.003814,0.0097159999999999,-0.000364
1161,0.511012,0.450076,-0.732323,-0.0009109999999999,0.010465,-0.000465
1162,0.511063,0.450074,-0.7322890000000001,0.001068,0.007049,-0.003307
1163,0.511084,0.450101,-0.732258,-0.002172,0.010486,-0.0024219999999999
1164,0.511096,0.4500989999999999,-0.73225,-0.003314,0.01032,-0.003208
1165,0.5110640000000001,0.450118,-0.7322609999999999,-0.001207,0.011369,-0.003365
1166,0.511026,0.450154,-0.7322649999999999,-0.000375,0.009181,-0.001789
1167,0.510993,0.450163,-0.732283,-0.002402,0.009233,-0.002534
1168,0.5110180000000001,0.450202,-0.7322420000000001,-0.00052,0.007576,-0.002881
1169,0.511099,0.450289,-0.732132,0.000681,0.012983,-0.005143
1170,0.511142,0.450263,-0.732118,-0.00275,0.0111939999999999,-0.000533
1171,0.511189,0.450205,-0.73212,-0.000981,0.009954,-0.0016899999999999
1172,0.5112399999999999,0.4501439999999999,-0.732122,-0.001521,0.010336,-0.002741
1173,0.5112770000000001,0.450106,-0.73212,-0.00435,0.00923,-0.003445
1174,0.511318,0.450021,-0.732143,-0.003353,0.0096189999999999,-0.003743
1175,0.5113489999999999,0.449943,-0.73217,-0.001919,0.007348,-0.003166
1176,0.511412,0.4498649999999999,-0.732173,0.001481,0.007456,-0.0019879999999999
1177,0.511494,0.4498,-0.732156,0.000133,0.0101,-0.003043
1178,0.511571,0.449729,-0.732146,-0.001225,0.008447,-0.002351
1179,0.511627,0.449712,-0.732117,-0.000168,0.008708,-0.0036
1180,0.511683,0.449731,-0.732067,-0.000452,0.0088569999999999,-0.0030559999999999
1181,0.511729,0.449758,-0.7320180000000001,-0.000681,0.009959,-0.003425
1182,0.511777,0.449759,-0.731984,-0.002149,0.011331,-0.002193
1183,0.5118149999999999,0.449771,-0.73195,-0.000233,0.010052,-0.002105
1184,0.5118229999999999,0.449799,-0.731927,-0.003462,0.011322,-0.003394
1185,0.511813,0.449843,-0.731907,0.0001189999999999,0.01146,-0.003399
1186,0.511793,0.4498819999999999,-0.731897,-0.0018899999999999,0.011788,-0.002997
1187,0.51175,0.449926,-0.7319,-0.0014199999999999,0.009822,-0.004138
1188,0.511717,0.449945,-0.731911,-0.0009599999999999,0.0100159999999999,-0.0037
1189,0.5116850000000001,0.449957,-0.731927,-0.0023309999999999,0.0091349999999999,-0.004249
1190,0.51164,0.44998,-0.731943,-0.002577,0.010026,-0.003698
1191,0.511602,0.449989,-0.731965,-0.001516,0.009072,-0.0036149999999999
1192,0.5115689999999999,0.450022,-0.731967,-0.003039,0.010229,-0.00079
1193,0.5115460000000001,0.450063,-0.731959,-0.003016,0.0115769999999999,-0.004369
1194,0.5115029999999999,0.450105,-0.731962,-0.004789,0.012282,-0.001925
1195,0.511464,0.4501479999999999,-0.731963,-0.0026449999999999,0.010698,-0.002977
1196,0.511464,0.450163,-0.731954,-0.00176,0.011598,-0.002009
1197,0.511474,0.45016,-0.7319479999999999,-0.003464,0.009587,-0.000169
1198,0.511468,0.450175,-0.7319439999999999,-0.001565,0.011068,-0.002736
1199,0.511464,0.450176,-0.731946,-0.003011,0.008839,-0.00275
1200,0.511463,0.450177,-0.731946,-0.001179,0.007937,-0.005817
1201,0.511488,0.450242,-0.731888,0.001802,0.012069,-0.002761
1202,0.5115729999999999,0.450276,-0.731809,-0.00112,0.0164449999999999,-0.004122
1203,0.5116,0.450226,-0.73182,-0.003437,0.014572,-0.0043549999999999
1204,0.5115930000000001,0.450202,-0.7318399999999999,-0.0019649999999999,0.008249,-0.003191
1205,0.511583,0.450212,-0.731841,-0.005037,0.010542,-0.001893
1206,0.511586,0.45021,-0.7318399999999999,-0.002751,0.010575,-0.0031609999999999
1207,0.511578,0.450158,-0.731877,-0.004254,0.0095129999999999,-0.002574
1208,0.511579,0.450092,-0.7319180000000001,-0.004209,0.009717,-0.002579
1209,0.511584,0.450038,-0.731947,0.0007599999999999,0.012502,-0.002367
1210,0.511622,0.449982,-0.731955,0.001638,0.011047,-0.004251
1211,0.5116539999999999,0.44992,-0.73197,-0.0011099999999999,0.007584,-0.003076
1212,0.511691,0.449929,-0.731939,-0.000644,0.007865,-0.004313
1213,0.511728,0.449966,-0.731891,-0.0018399999999999,0.010895,-0.003904
1214,0.5117520000000001,0.449991,-0.731859,-0.001132,0.00965,-0.004027
1215,0.511729,0.450011,-0.731862,-0.000452,0.009095,-0.002802
1216,0.5117079999999999,0.4500439999999999,-0.731857,-0.000661,0.010756,-0.003297
1217,0.511696,0.450101,-0.73183,-0.001351,0.009555,-0.0032619999999999
1218,0.511679,0.450158,-0.731807,-0.00199,0.012931,-0.00446
1219,0.511659,0.450206,-0.731791,-0.00084,0.0119519999999999,-0.002172
1220,0.511646,0.450229,-0.7317859999999999,-0.002003,0.01077,-0.004282
1221,0.511642,0.450234,-0.7317859999999999,-0.0029289999999999,0.010719,-0.002955
1222,0.511612,0.450244,-0.7318020000000001,-0.0047909999999999,0.009931,-0.00175
1223,0.511586,0.45026,-0.731809,-0.0013779999999999,0.00877,-0.003985
1224,0.511558,0.450289,-0.731811,-0.001685,0.009092,-0.003189
1225,0.511522,0.45033,-0.731811,-0.002062,0.0090049999999999,-0.003068
1226,0.511505,0.4503689999999999,-0.731799,-0.000534,0.010736,-0.002531
1227,0.511509,0.450374,-0.731793,0.0002399999999999,0.010243,-0.003238
1228,0.511518,0.450396,-0.731773,-0.000852,0.010419,-0.003777
1229,0.511506,0.450418,-0.731768,-0.002183,0.009467,-0.001524
1230,0.51151,0.450409,-0.731771,-0.001851,0.011093,-0.003734
1231,0.511471,0.450413,-0.731796,-0.004254,0.009396,-0.003632
1232,0.511479,0.450418,-0.731787,-0.002613,0.010383,-0.004297
1233,0.511549,0.4504979999999999,-0.731688,-0.002363,0.0108209999999999,-0.004792
1234,0.5116,0.450534,-0.731631,-0.0009339999999999,0.011609,-0.006696
1235,0.5115810000000001,0.4505369999999999,-0.731642,-0.0015869999999999,0.006586,-0.002977
1236,0.5115609999999999,0.450588,-0.731625,0.000554,0.00475,-0.005268
1237,0.511486,0.450659,-0.731634,-0.003841,0.011209,-0.002512
1238,0.511443,0.450705,-0.731635,-0.004912,0.012537,-0.000939
1239,0.511335,0.450735,-0.731692,-0.006254,0.01034,-0.001218
1240,0.5111859999999999,0.450841,-0.731731,-0.000367,0.007044,-0.006947
1241,0.511042,0.450996,-0.731737,0.005117,0.008004,-0.0076739999999999
1242,0.5109100000000001,0.45113,-0.731746,0.001877,0.008984,-0.005238
1243,0.5108189999999999,0.451296,-0.731707,6e-05,0.009703,-0.003477
1244,0.510733,0.451526,-0.731625,-0.003775,0.008862,-0.002307
1245,0.510621,0.451808,-0.731529,-0.002351,0.009267,-0.005929
1246,0.510429,0.4521229999999999,-0.7314689999999999,-0.001274,0.007334,-0.003868
1247,0.510225,0.452428,-0.7314229999999999,-0.000566,0.00796,-0.002678
1248,0.510034,0.4527229999999999,-0.7313729999999999,-0.000833,0.0084739999999999,-0.001964
1249,0.5098779999999999,0.4529609999999999,-0.731334,-0.003454,0.011775,-0.00121
1250,0.509727,0.4531449999999999,-0.731326,-0.005821,0.015849,-0.002698
1251,0.5095569999999999,0.45327,-0.731366,-0.002355,0.016502,-0.001742
1252,0.509413,0.453304,-0.731446,-0.006865,0.015614,0.001206
1253,0.509309,0.453293,-0.731525,-0.004518,0.01242,0.000598
1254,0.509236,0.453229,-0.7316159999999999,-0.002278,0.012805,-0.0026829999999999
1255,0.509161,0.453114,-0.73174,-0.00025,0.009807,-0.004924
1256,0.509085,0.453014,-0.731854,0.005884,0.0036509999999999,-0.006107
1257,0.509101,0.452909,-0.731908,0.00451,0.005755,-0.005
1258,0.509261,0.4527989999999999,-0.731865,0.003496,0.011633,-0.003304
1259,0.50946,0.452656,-0.731815,-0.005157,0.0144,-0.000653
1260,0.509606,0.4525079999999999,-0.731804,-0.0074849999999999,0.010627,0.000237
1261,0.509633,0.452479,-0.731804,-0.005986,0.0048119999999999,-0.0038369999999999
1262,0.509632,0.452582,-0.73174,-0.000889,0.010369,-0.007945
1263,0.509659,0.452672,-0.731666,0.002044,0.010478,-0.0072099999999999
1264,0.50968,0.452625,-0.73168,-0.003058,0.009472,-0.002389
1265,0.509721,0.4525899999999999,-0.7316729999999999,-0.002535,0.007539,-0.003709
1266,0.509726,0.452635,-0.731642,-0.000922,0.00879,-0.003114
1267,0.509678,0.452694,-0.731639,-0.001042,0.011723,-0.002171
1268,0.509634,0.452687,-0.7316739999999999,0.000696,0.011318,0.000259
1269,0.5095970000000001,0.452621,-0.731741,0.000108,0.011292,-0.0015199999999999
1270,0.509627,0.452518,-0.731784,0.002717,0.011472,-0.002835
1271,0.509666,0.452428,-0.731812,0.0007559999999999,0.010905,-0.001586
1272,0.50967,0.452341,-0.731863,-0.001842,0.010199,-0.001657
1273,0.50967,0.452294,-0.731892,0.001148,0.006981,-0.0037799999999999
1274,0.509727,0.452259,-0.731874,-0.00193,0.009411,-0.005171
1275,0.509815,0.452225,-0.731834,-0.000125,0.009048,-0.0043869999999999
1276,0.5098560000000001,0.452212,-0.731813,-0.003691,0.008634,-0.004164
1277,0.509843,0.452222,-0.731816,-0.003495,0.011722,-0.0024059999999999
1278,0.509829,0.452235,-0.7318180000000001,-0.003756,0.011189,-0.003518
1279,0.509814,0.452276,-0.731803,-0.002948,0.007883,-0.003457
1280,0.509799,0.452326,-0.731783,-0.001849,0.009329,-0.0050799999999999
1281,0.509776,0.4523939999999999,-0.731757,-0.000971,0.010497,-0.002832
1282,0.509779,0.452453,-0.731718,0.0009789999999999,0.012147,-0.000582
1283,0.50981,0.4524609999999999,-0.731692,-0.001692,0.009637,-0.001676
1284,0.5098229999999999,0.452471,-0.731676,-0.0010789999999999,0.009077,-0.000776
1285,0.509844,0.452499,-0.731644,0.001249,0.009476,-0.002471
1286,0.509885,0.452456,-0.731642,-0.002012,0.011869,-0.00258
1287,0.509935,0.452335,-0.7316819999999999,-0.00374,0.0138669999999999,-0.002723
1288,0.5099739999999999,0.452177,-0.731753,-0.001216,0.013293,-0.003538
1289,0.509995,0.4519729999999999,-0.7318640000000001,-0.004074,0.010277,-0.000481
1290,0.510042,0.4518029999999999,-0.7319359999999999,-0.003634,0.00416,-0.00575
1291,0.5101220000000001,0.451758,-0.731908,-0.001303,0.004968,-0.00561
1292,0.51021,0.451733,-0.731862,0.001219,0.00896,-0.008616
1293,0.510258,0.45165,-0.73188,-0.001957,0.0071049999999999,-0.00602
1294,0.5103,0.451629,-0.7318640000000001,-0.001556,0.003617,-0.004632
1295,0.510305,0.451708,-0.731811,-0.002187,0.007734,-0.004471
1296,0.510322,0.451839,-0.731719,-0.000724,0.0073739999999999,-0.0024579999999999
1297,0.5103,0.4519579999999999,-0.731661,0.0003509999999999,0.009193,-0.002668
1298,0.5102479999999999,0.45201,-0.731665,-0.004785,0.015488,0.0016539999999999
1299,0.510241,0.451957,-0.7317020000000001,-0.002627,0.0143819999999999,0.000547
1300,0.5102369999999999,0.451909,-0.731735,-0.001738,0.009837,-0.002045
1301,0.510205,0.451872,-0.73178,0.001285,0.005861,-0.005967
1302,0.510213,0.45183,-0.7318,0.0031379999999999,0.0069099999999999,-0.007183
1303,0.5102909999999999,0.4517859999999999,-0.731773,0.000176,0.00877,-0.006539
1304,0.510376,0.451763,-0.7317279999999999,-0.003296,0.009861,-0.004096
1305,0.510387,0.451776,-0.731712,-0.001888,0.007666,-0.0034409999999999
1306,0.510364,0.451852,-0.731681,-0.005542,0.008811,-0.002404
1307,0.510321,0.451966,-0.731641,-0.000922,0.007034,-0.004886
1308,0.510279,0.4520659999999999,-0.7316090000000001,0.001241,0.009558,-0.004719
1309,0.510289,0.452135,-0.731559,-0.004979,0.008772,-0.004449
1310,0.510343,0.4522239999999999,-0.731466,-0.002836,0.011231,-0.0015199999999999
1311,0.51036,0.452288,-0.7314149999999999,-0.00267,0.012312,-0.003021
1312,0.510346,0.452291,-0.7314229999999999,-0.0019079999999999,0.0115909999999999,-0.003395
1313,0.510292,0.452264,-0.731477,-0.000145,0.010855,-0.0018
1314,0.510252,0.452206,-0.731541,-0.0009289999999999,0.009693,-0.004147
1315,0.510249,0.452114,-0.7316,-0.003688,0.006626,-0.000105
1316,0.510242,0.452018,-0.731665,-0.002093,0.007882,-0.002146
1317,0.510149,0.451978,-0.731754,0.000502,0.009677,-0.00256
1318,0.510005,0.451927,-0.7318859999999999,0.001073,0.003121,-0.0046869999999999
1319,0.509981,0.4519319999999999,-0.731899,0.002333,0.0072819999999999,-0.006779
1320,0.51007,0.4519869999999999,-0.731803,-0.0002279999999999,0.0115599999999999,-0.006371
1321,0.510162,0.451978,-0.731744,-0.00621,0.01459,-0.003104
1322,0.510146,0.4519609999999999,-0.731766,-0.002273,0.007222,-0.0027
1323,0.510119,0.4519859999999999,-0.731769,-0.000872,0.004953,-0.001187
1324,0.510081,0.4520399999999999,-0.731763,-0.000498,0.008516,-0.001849
1325,0.510091,0.452027,-0.731763,-0.002309,0.011565,-0.002825
1326,0.510116,0.451928,-0.731807,-0.002304,0.010017,-0.001469
1327,0.5101829999999999,0.451818,-0.731829,-0.0010119999999999,0.00857,-0.002592
1328,0.5102300000000001,0.451719,-0.731857,0.000558,0.010424,-0.004608
1329,0.510243,0.451622,-0.731908,0.000621,0.0073319999999999,-0.00497
1330,0.510289,0.4515369999999999,-0.731928,0.00027,0.006837,-0.001989
1331,0.510367,0.451525,-0.731881,-0.000525,0.007856,-0.005881
1332,0.510452,0.451538,-0.7318140000000001,-0.000244,0.007889,-0.004529
1333,0.510484,0.4515369999999999,-0.731792,0.000334,0.006044,-0.002766
1334,0.5104770000000001,0.451582,-0.731769,-0.001124,0.010591,-0.002652
1335,0.510488,0.4516239999999999,-0.7317359999999999,-0.001912,0.010198,0.000489
1336,0.510498,0.451643,-0.7317170000000001,-0.001388,0.010012,-0.0031
1337,0.5105109999999999,0.45164,-0.7317100000000001,-0.002653,0.012273,-0.001841
1338,0.510517,0.451615,-0.731721,-0.0024,0.012466,-0.000793
1339,0.51053,0.45155,-0.7317520000000001,-0.001726,0.0129889999999999,-0.002134
1340,0.5105310000000001,0.451475,-0.731798,-0.002337,0.008303,-0.003599
1341,0.510518,0.4514,-0.731854,-0.000386,0.006837,-0.002704
1342,0.5105430000000001,0.451323,-0.731883,-0.000732,0.005555,-0.003225
1343,0.5105770000000001,0.451256,-0.731901,-0.000445,0.008186,-0.002916
1344,0.510606,0.451196,-0.7319180000000001,-0.002305,0.009711,-0.001282
1345,0.510614,0.451154,-0.731938,-0.004861,0.0112629999999999,-0.002956
1346,0.510606,0.451135,-0.731955,-0.003327,0.007788,-0.004129
1347,0.510626,0.451128,-0.731945,-0.001837,0.006468,-0.006488
1348,0.510707,0.45119,-0.731851,-0.000316,0.010175,-0.005485
1349,0.51081,0.4512199999999999,-0.7317600000000001,-0.004188,0.0153169999999999,-0.003423
1350,0.510827,0.451161,-0.731785,-0.004861,0.013606,-0.00494
1351,0.51079,0.451166,-0.731808,-0.0002,0.00617,-0.002826
1352,0.510758,0.451192,-0.7318140000000001,0.000716,0.007854,-0.0034159999999999
1353,0.5108,0.451183,-0.7317899999999999,0.001514,0.010563,-0.002813
1354,0.5108199999999999,0.451081,-0.731839,-0.0035409999999999,0.009857,-0.0009029999999999
1355,0.510863,0.4509189999999999,-0.731909,-0.001723,0.012628,-0.001978
1356,0.510969,0.450775,-0.731924,-0.002562,0.012986,-0.000971
1357,0.511049,0.450655,-0.731942,-0.001467,0.009032,-0.005256
1358,0.5110640000000001,0.450561,-0.731989,-0.001878,0.0066989999999999,-0.0062159999999999
1359,0.5110359999999999,0.450539,-0.732023,0.000256,0.006248,-0.004718
1360,0.511033,0.4505699999999999,-0.732005,0.001448,0.006492,-0.005559
1361,0.511039,0.450596,-0.731985,0.000267,0.00819,-0.005564
1362,0.5110210000000001,0.4506409999999999,-0.73197,-0.0018809999999999,0.009839,-0.003565
1363,0.511016,0.450687,-0.731945,-0.002379,0.011303,-0.002704
1364,0.5110239999999999,0.450709,-0.7319260000000001,-0.003043,0.0113879999999999,-0.003807
1365,0.511019,0.4507279999999999,-0.7319180000000001,-0.0015279999999999,0.011018,-0.004196
1366,0.511005,0.450737,-0.731923,-0.003238,0.0115129999999999,-0.004543
1367,0.510997,0.450712,-0.731943,-0.002803,0.009004,-0.002447
1368,0.510996,0.450679,-0.7319640000000001,-0.002603,0.008381,-0.00351
1369,0.510983,0.450664,-0.731982,-0.001629,0.010533,-0.004712
1370,0.510957,0.450651,-0.732009,0.000533,0.00957,-0.0051119999999999
1371,0.5109520000000001,0.450633,-0.732023,-0.000805,0.011693,-0.003909
1372,0.510993,0.4506189999999999,-0.732003,-0.002128,0.010364,-0.002052
1373,0.511023,0.450593,-0.7319979999999999,-0.0028899999999999,0.008636,-0.002117
1374,0.5110180000000001,0.4505619999999999,-0.732021,-0.002244,0.012466,-0.002461
1375,0.5109630000000001,0.450552,-0.732065,-0.00135,0.005823,-0.003363
1376,0.510943,0.450574,-0.732066,0.001905,0.0128199999999999,-0.005697
1377,0.51097,0.450615,-0.7320220000000001,0.0012519999999999,0.0125659999999999,-0.003299
1378,0.511011,0.450546,-0.732036,-0.002832,0.016861,-0.002202
1379,0.5110399999999999,0.450393,-0.73211,-0.0019,0.00882,-0.001274
1380,0.511165,0.450269,-0.7320989999999999,-0.003551,0.0070069999999999,-0.0009789999999999
1381,0.511266,0.450212,-0.732063,-0.0002029999999999,0.002989,-0.008751
1382,0.511309,0.450185,-0.732049,0.002195,0.001292,-0.004843
1383,0.5112899999999999,0.450159,-0.732078,0.0014349999999999,0.003454,-0.005303
1384,0.511338,0.450107,-0.7320770000000001,-0.000275,0.008267,-0.001215
1385,0.511378,0.45016,-0.732017,-0.000498,0.0128379999999999,-0.002541
1386,0.511375,0.45031,-0.7319260000000001,-0.003547,0.014305,-0.003715
1387,0.511329,0.450528,-0.731824,-0.001777,0.012073,-0.00664
1388,0.511271,0.450759,-0.731722,0.000448,0.008607,-0.0045299999999999
1389,0.511239,0.4509149999999999,-0.731648,-5.5e-05,0.005689,-0.0050149999999999
1390,0.511235,0.451055,-0.7315649999999999,-0.0010869999999999,0.004572,-0.002779
1391,0.511193,0.4512,-0.7315050000000001,-0.005196,0.007998,0.000487
1392,0.511117,0.4513729999999999,-0.7314510000000001,-0.004129,0.011655,-0.000833
1393,0.511011,0.451534,-0.731427,-0.005151,0.013142,-0.0020629999999999
1394,0.5109020000000001,0.451681,-0.731412,-0.002754,0.01153,-0.004519
1395,0.5108159999999999,0.451794,-0.731402,-0.00134,0.010639,-0.006147
1396,0.510745,0.451908,-0.731382,-6.4e-05,0.00787,-0.00484
1397,0.5106689999999999,0.452036,-0.731355,-0.001926,0.0058649999999999,-0.003631
1398,0.5106149999999999,0.452138,-0.73133,-0.000208,0.006358,-0.00335
1399,0.510552,0.452218,-0.731324,-0.00013,0.009559,0.001314
1400,0.510473,0.452285,-0.731338,-0.002157,0.012452,0.000869
1401,0.510366,0.452343,-0.731377,-0.00411,0.01395,-0.000542
1402,0.51022,0.452371,-0.7314609999999999,-0.002041,0.010749,-0.002136
1403,0.510097,0.4523649999999999,-0.73155,-0.0014449999999999,0.006314,-0.0038469999999999
1404,0.510045,0.452395,-0.7315689999999999,0.00085,0.004392,-0.008009
1405,0.510081,0.452455,-0.731507,-0.002421,0.009826,-0.005142
1406,0.510204,0.452442,-0.731429,-0.002101,0.015652,-0.007402
1407,0.510229,0.452359,-0.731462,-0.0017,0.014407,-0.002059
1408,0.5102140000000001,0.452254,-0.731538,-0.002996,0.0131389999999999,-0.001662
1409,0.510191,0.4521479999999999,-0.7316189999999999,-0.00305,0.012192,0.0015019999999999
1410,0.510209,0.452057,-0.7316630000000001,-0.005036,0.011718,-0.000331
1411,0.51017,0.451938,-0.7317640000000001,-0.00074,0.006406,-0.002855
1412,0.510102,0.451801,-0.731896,0.000152,0.004391,-0.0044469999999999
1413,0.510117,0.451634,-0.731989,-0.000366,0.007427,-0.003332
1414,0.510184,0.4514649999999999,-0.732046,0.000955,0.004636,-0.00445
1415,0.510209,0.451379,-0.732082,-0.001023,0.00521,-0.004475
1416,0.510161,0.451412,-0.7320949999999999,0.0005809999999999,0.006077,-0.00463
1417,0.510065,0.451538,-0.7320840000000001,-0.002344,0.009018,-0.006304
1418,0.509934,0.4517229999999999,-0.73206,-0.00055,0.0097019999999999,-0.0040079999999999
1419,0.5098199999999999,0.451902,-0.7320300000000001,-0.000909,0.0087,-0.003749
1420,0.509741,0.452074,-0.731978,-0.001563,0.009703,-0.00084
1421,0.509667,0.4521949999999999,-0.731955,-0.001671,0.010558,-0.000878
1422,0.509601,0.4522609999999999,-0.731961,-0.002933,0.012354,-0.000186
1423,0.509558,0.452263,-0.731989,-0.003302,0.013267,-0.00321
1424,0.509534,0.452229,-0.7320270000000001,-0.004377,0.013011,-0.002882
1425,0.5095569999999999,0.4521479999999999,-0.732062,-0.002461,0.0122379999999999,-0.0066159999999999
1426,0.509618,0.452058,-0.732075,-0.001927,0.009963,-0.006161
1427,0.509674,0.4519899999999999,-0.7320770000000001,0.001038,0.005713,-0.004388
1428,0.5097649999999999,0.4519229999999999,-0.732056,0.0014199999999999,0.008572,-0.002564
1429,0.509847,0.451837,-0.732051,-0.001042,0.0099239999999999,-2e-05
1430,0.5099100000000001,0.4517569999999999,-0.732057,0.001214,0.009378,-0.002288
1431,0.509926,0.451711,-0.732074,-5.3e-05,0.009058,-0.002499
1432,0.509954,0.45164,-0.7320979999999999,-0.002783,0.009893,-0.003879
1433,0.5100319999999999,0.451606,-0.732065,-0.003624,0.013436,0.000329
1434,0.510104,0.451542,-0.732055,-0.0031609999999999,0.013409,-0.002275
1435,0.510101,0.451421,-0.7321310000000001,-0.004974,0.011423,-0.006028
1436,0.5100979999999999,0.4513149999999999,-0.7321979999999999,-0.000714,0.00271,-0.004908
1437,0.5101720000000001,0.4512069999999999,-0.732214,0.00028,0.004497,-0.003016
1438,0.510317,0.4510989999999999,-0.732179,-0.00197,0.007351,-0.002806
1439,0.5104380000000001,0.450995,-0.732159,-0.003114,0.007455,-0.0037119999999999
1440,0.51045,0.450924,-0.732194,-0.002195,0.0070989999999999,-0.002837
1441,0.510366,0.450935,-0.732246,0.0041,0.0086439999999999,-0.004143
1442,0.510256,0.4509939999999999,-0.732286,0.001616,0.01124,-0.001753
1443,0.510165,0.451033,-0.732325,-7.900000000000001e-05,0.011674,-0.001104
1444,0.510093,0.4510979999999999,-0.732336,-0.000312,0.008833,0.00115
1445,0.510054,0.451185,-0.732309,0.002352,0.009783,-0.003378
1446,0.5100319999999999,0.451287,-0.732262,0.000603,0.008628,-0.004097
1447,0.509973,0.451375,-0.7322489999999999,-0.0016719999999999,0.007075,-0.0044
1448,0.509937,0.451426,-0.7322420000000001,-0.003009,0.0080769999999999,-0.006253
1449,0.5099229999999999,0.451495,-0.73221,-0.005589,0.008664,-0.003951
1450,0.509915,0.45156,-0.732175,-0.005353,0.012139,-0.0072209999999999
1451,0.5099090000000001,0.451582,-0.732165,-0.002585,0.011705,-0.005246
1452,0.509957,0.451551,-0.732151,-0.002999,0.012713,-0.006176
1453,0.510049,0.4514579999999999,-0.7321439999999999,-0.003335,0.008014,-0.003116
1454,0.510147,0.451352,-0.732142,-0.001983,0.007312,-0.001852
1455,0.5102260000000001,0.451251,-0.7321489999999999,0.000165,0.0076879999999999,-0.002699
1456,0.510315,0.451135,-0.732158,-0.0016179999999999,0.010459,-0.000843
1457,0.510404,0.450996,-0.732182,0.002032,0.0104,-0.003078
1458,0.510506,0.450855,-0.732197,0.000846,0.010479,-0.002193
1459,0.510578,0.45072,-0.7322310000000001,-0.0020629999999999,0.007989,-0.003152
1460,0.51057,0.450667,-0.732269,-0.002804,0.001406,-0.004929
1461,0.5104850000000001,0.4507899999999999,-0.732252,-0.000643,0.004487,-0.004061
1462,0.510368,0.450966,-0.732225,-3.8e-05,0.0085069999999999,-0.00627
1463,0.5101760000000001,0.45114,-0.732252,-0.002699,0.009584,-0.005602
1464,0.5100180000000001,0.451367,-0.732222,-0.001641,0.008884,-0.004197
1465,0.509891,0.451603,-0.732165,-0.0007509999999999,0.01054,-0.002408
1466,0.5098739999999999,0.451735,-0.7320949999999999,-0.001985,0.012208,-0.002463
1467,0.509888,0.451808,-0.7320409999999999,-0.0041659999999999,0.0127459999999999,0.0031739999999999
1468,0.509899,0.451783,-0.732049,-0.004345,0.0112909999999999,-0.000755
1469,0.5099100000000001,0.451683,-0.732103,-0.004371,0.011681,-0.0021809999999999
1470,0.5099229999999999,0.451545,-0.732179,-0.003239,0.0115129999999999,-0.003966
1471,0.509945,0.451427,-0.732236,-0.0023309999999999,0.0074659999999999,-0.0079379999999999
1472,0.509949,0.4513899999999999,-0.732256,0.00209,0.0049549999999999,-0.0055369999999999
1473,0.509959,0.451396,-0.732245,0.0037579999999999,0.005803,-0.005472
1474,0.509943,0.451403,-0.732252,0.004339,0.008406,-0.002855
1475,0.509957,0.45142,-0.732232,0.001808,0.010814,0.000207
1476,0.510009,0.451449,-0.732178,-0.000594,0.011198,0.001282
1477,0.510103,0.451421,-0.7321300000000001,-0.0039229999999999,0.013926,-0.001116
1478,0.510191,0.451391,-0.732087,-0.0069099999999999,0.011637,-0.004409
1479,0.510188,0.451331,-0.732126,-0.008449,0.011483,-0.005408
1480,0.510162,0.451244,-0.7321979999999999,-0.005035,0.0085799999999999,-0.0059159999999999
1481,0.510146,0.451137,-0.732274,-0.00212,0.0088849999999999,-0.0068
1482,0.510155,0.451035,-0.7323310000000001,0.000648,0.007598,-0.005385
1483,0.510159,0.450989,-0.7323569999999999,0.000766,0.007248,-0.003803
1484,0.5101680000000001,0.451004,-0.732341,0.002802,0.008239,-0.000233
1485,0.510201,0.451045,-0.7322930000000001,0.0033179999999999,0.010198,-0.000174
1486,0.510224,0.451083,-0.732254,0.00032,0.010053,0.002045
1487,0.510253,0.4511439999999999,-0.732196,-0.0002279999999999,0.004651,-0.00044
1488,0.5102,0.451264,-0.732159,0.0012289999999999,0.002471,-0.003162
1489,0.510171,0.45145,-0.732065,0.000373,0.007885,-0.003775
1490,0.510199,0.4515689999999999,-0.731971,-0.002677,0.020721,-0.002816
1491,0.510229,0.45148,-0.732005,-0.009253,0.017666,-0.001882
1492,0.510228,0.451351,-0.732086,-0.006291,0.010929,-0.002121
1493,0.510228,0.451258,-0.732143,-0.00533,0.009497,-0.001805
1494,0.510242,0.451138,-0.7322069999999999,-0.004016,0.007831,-0.003861
1495,0.510239,0.450995,-0.732297,-0.000519,0.002816,-0.004535
1496,0.510211,0.450847,-0.732408,-0.000659,0.004277,-0.002455
1497,0.510188,0.450779,-0.732466,0.002355,0.005291,-0.003313
1498,0.5101640000000001,0.450805,-0.732466,0.003599,0.009003,-0.004441
1499,0.510167,0.450934,-0.7323850000000001,0.00146,0.006937,-0.003607
1500,0.5102260000000001,0.451129,-0.732224,0.001889,0.008237,-0.002747
1501,0.510311,0.451316,-0.732049,-0.0024219999999999,0.0105519999999999,8.499999999999999e-05
1502,0.510367,0.4514609999999999,-0.731921,-0.001166,0.006455,-0.004026
1503,0.510325,0.451629,-0.731847,-0.001566,0.007233,-0.003047
1504,0.5102800000000001,0.451735,-0.731813,-0.002879,0.013704,-0.001204
1505,0.510308,0.4517229999999999,-0.731801,-0.002694,0.015608,-0.001216
1506,0.510365,0.451627,-0.73182,-0.004888,0.0174129999999999,-0.000373
1507,0.5104029999999999,0.45146,-0.731897,-0.0063289999999999,0.016786,0.000573
1508,0.510441,0.451222,-0.732017,-0.005375,0.012736,-0.003915
1509,0.510494,0.4509979999999999,-0.732118,-0.003109,0.00675,-0.003829
1510,0.510538,0.450824,-0.7321949999999999,5.2e-05,0.003949,-0.006651
1511,0.510566,0.450672,-0.732268,-0.000358,0.004193,-0.006638
1512,0.510595,0.450581,-0.732304,0.001139,0.003978,-0.00439
1513,0.510652,0.450568,-0.732273,-0.001924,0.006067,-0.0020559999999999
1514,0.5106539999999999,0.450627,-0.7322350000000001,-0.002856,0.008403,-0.002491
1515,0.510617,0.450742,-0.73219,0.000308,0.009311,-0.0039549999999999
1516,0.5105569999999999,0.450872,-0.732151,-0.001127,0.009196,-0.002575
1517,0.510525,0.451017,-0.732085,0.001377,0.0067769999999999,-0.0018329999999999
1518,0.510541,0.4512069999999999,-0.731956,-0.001218,0.010188,-0.000878
1519,0.510579,0.451304,-0.73187,-0.003346,0.016485,-0.002932
1520,0.510519,0.45135,-0.731883,-0.003546,0.007863,-0.002461
1521,0.510478,0.451399,-0.7318819999999999,-0.00207,0.007951,-0.00437
1522,0.5104420000000001,0.451446,-0.731878,0.000224,0.0103769999999999,-0.000498
1523,0.51043,0.451402,-0.731913,-0.001046,0.012114,-0.001821
1524,0.510409,0.4512779999999999,-0.732005,-0.0034659999999999,0.01085,-0.004247
1525,0.510424,0.451156,-0.732069,-0.0041979999999999,0.01294,-0.0009019999999999
1526,0.510432,0.451034,-0.732139,0.000615,0.009141,-0.004265
1527,0.5103850000000001,0.450955,-0.73222,0.002494,0.00571,-0.004657
1528,0.510333,0.450926,-0.732275,0.00137,0.00577,-0.004481
1529,0.510368,0.450945,-0.732238,0.000359,0.006651,-0.0014039999999999
1530,0.510488,0.450945,-0.732154,8.6e-05,0.008833,-0.003243
1531,0.5105770000000001,0.450934,-0.7320989999999999,-0.002444,0.008951,-0.002382
1532,0.510628,0.450942,-0.732058,-0.0020989999999999,0.008775,-0.001889
1533,0.510646,0.450971,-0.732028,-0.003704,0.010806,-0.003781
1534,0.510645,0.451025,-0.731996,-0.003824,0.010325,-0.003264
1535,0.510634,0.4510949999999999,-0.73196,-0.001098,0.009751,-0.003438
1536,0.510681,0.451134,-0.731904,-0.003646,0.010216,-0.002654
1537,0.510783,0.45113,-0.731835,-0.000575,0.010738,-0.003211
1538,0.510896,0.4510699999999999,-0.731793,-0.000246,0.009898,-0.002048
1539,0.5109640000000001,0.4509859999999999,-0.731797,0.000221,0.008029,-0.003249
1540,0.510988,0.450945,-0.7318060000000001,0.00186,0.0062689999999999,-0.003836
1541,0.511037,0.450913,-0.731791,0.0016579999999999,0.011734,-0.004949
1542,0.511151,0.450868,-0.73174,0.0007509999999999,0.0107409999999999,-0.0032
1543,0.51125,0.450814,-0.731704,-0.003895,0.010185,-0.002671
1544,0.511317,0.45074,-0.731703,-0.003749,0.012288,-0.001955
1545,0.511351,0.450679,-0.7317170000000001,-0.002333,0.007024,-0.005344
1546,0.511367,0.450651,-0.731722,-0.000335,0.010592,-0.004728
1547,0.511414,0.450659,-0.731684,-0.001129,0.010858,-0.005849
1548,0.511462,0.450604,-0.731685,-0.003299,0.013706,-0.005513
1549,0.511447,0.450509,-0.731754,-0.003009,0.004722,-0.00079
1550,0.511418,0.450437,-0.7318180000000001,0.001872,0.0077379999999999,-0.002557
1551,0.5113979999999999,0.450379,-0.7318680000000001,-0.001159,0.009521,-0.002904
1552,0.511436,0.450338,-0.731867,-0.001396,0.0114849999999999,0.002039
1553,0.511478,0.450258,-0.731887,-0.003314,0.009031,0.000365
1554,0.511498,0.4501779999999999,-0.7319220000000001,-0.003014,0.007326,-0.002896
1555,0.511513,0.450151,-0.731928,-9.9e-05,0.007078,-0.004171
1556,0.511525,0.450139,-0.7319260000000001,4.1e-05,0.006282,-0.0043409999999999
1557,0.511521,0.450152,-0.7319220000000001,-0.002121,0.009687,-0.001247
1558,0.511525,0.4502,-0.7318899999999999,-0.001011,0.010494,-0.002363
1559,0.511544,0.450233,-0.7318560000000001,-0.001031,0.006295,-0.0047009999999999
1560,0.511541,0.450299,-0.731817,0.000696,0.007083,-0.003825
1561,0.511537,0.450362,-0.7317819999999999,-0.00261,0.010515,-0.00415
1562,0.511575,0.450402,-0.73173,-0.002633,0.0131139999999999,0.000377
1563,0.511596,0.450429,-0.731699,-0.005431,0.0115459999999999,-0.002401
1564,0.511609,0.4504399999999999,-0.731683,-0.005047,0.009063,-0.003119
1565,0.5116149999999999,0.4504579999999999,-0.731667,-0.001133,0.009534,-0.004279
1566,0.511625,0.450412,-0.731689,-0.000196,0.010998,-0.003037
1567,0.511696,0.450296,-0.731711,-0.003624,0.008886,-0.000498
1568,0.511827,0.4502029999999999,-0.731676,-0.002672,0.008293,-0.004225
1569,0.511945,0.450181,-0.731607,-0.002561,0.006346,-0.005713
1570,0.511996,0.450211,-0.731553,-0.001635,0.007033,-0.006271
1571,0.511997,0.450271,-0.7315149999999999,0.000103,0.010056,-0.003119
1572,0.5119779999999999,0.45031,-0.7315050000000001,9.2e-05,0.011375,-0.0039229999999999
1573,0.51197,0.4503439999999999,-0.7314890000000001,0.001076,0.013951,-0.000185
1574,0.5119279999999999,0.450339,-0.731522,0.001164,0.00744,-0.000915
1575,0.511868,0.4503279999999999,-0.731571,0.0009339999999999,0.006993,0.002811
1576,0.5117659999999999,0.450354,-0.731625,0.001173,0.00924,0.001218
1577,0.511663,0.4503479999999999,-0.7317020000000001,0.000925,0.010117,-0.002231
1578,0.511518,0.450324,-0.7318180000000001,0.001208,0.0063409999999999,-0.004449
1579,0.5114609999999999,0.450314,-0.7318640000000001,-0.00168,0.007572,-0.003457
1580,0.511486,0.450335,-0.731833,-0.006756,0.008161,-0.0038229999999999
1581,0.511519,0.450352,-0.7318,-0.00688,0.0074569999999999,-0.005749
1582,0.5114850000000001,0.4503529999999999,-0.731823,-0.0073799999999999,0.007853,-0.006779
1583,0.51141,0.450385,-0.7318560000000001,-0.00584,0.012887,-0.002382
1584,0.511366,0.450375,-0.731893,-0.006026,0.01479,-0.002009
1585,0.511366,0.45028,-0.731951,-0.005247,0.01081,-0.004804
1586,0.511422,0.450186,-0.73197,-0.000543,0.009302,-0.001581
1587,0.5115029999999999,0.450113,-0.731958,0.000658,0.008948,-0.001852
1588,0.511541,0.450059,-0.731965,0.004175,0.005843,-0.002655
1589,0.511545,0.450008,-0.731993,0.0028899999999999,0.006245,-0.000673
1590,0.511552,0.449995,-0.731996,0.0048049999999999,0.005739,-0.003401
1591,0.511605,0.450034,-0.7319359999999999,-0.001534,0.008722,-0.000852
1592,0.5116470000000001,0.4500989999999999,-0.731866,-0.001271,0.010747,-0.000922
1593,0.511667,0.450164,-0.731812,-0.004404,0.010331,-0.002548
1594,0.511678,0.450227,-0.731765,-0.003042,0.010192,-0.006531
1595,0.51168,0.4502779999999999,-0.731733,-0.004967,0.009012,-0.006976
1596,0.511716,0.450347,-0.731665,-0.0030489999999999,0.011506,-0.0036409999999999
1597,0.511756,0.450387,-0.731612,-0.004249,0.011787,-0.003434
1598,0.511796,0.450364,-0.731599,-0.002625,0.008528,-0.004501
1599,0.5117970000000001,0.450324,-0.731622,-0.000658,0.0075159999999999,-0.003729
1600,0.511794,0.4503029999999999,-0.731638,0.003068,0.005783,-0.00527
1601,0.51178,0.450306,-0.731645,0.003204,0.008312,-0.000533
1602,0.511848,0.450275,-0.731617,-0.00045,0.012998,-0.000606
1603,0.511857,0.450193,-0.731661,-0.001557,0.010394,-0.003538
1604,0.511821,0.450157,-0.731709,0.000356,0.0091019999999999,-0.00227
1605,0.511871,0.4501529999999999,-0.731676,0.0007639999999999,0.011608,-0.001158
1606,0.511996,0.450112,-0.731614,-0.002719,0.011223,-0.005538
1607,0.512046,0.4500369999999999,-0.731625,-0.0034549999999999,0.003195,-0.005313
1608,0.512061,0.449984,-0.731647,-0.002143,0.001097,-0.0037049999999999
1609,0.512033,0.449981,-0.731668,-0.0004969999999999,0.00763,-0.002127
1610,0.512034,0.449995,-0.7316590000000001,-0.003092,0.010195,-0.002365
1611,0.512045,0.449981,-0.7316600000000001,-0.002798,0.009629,-0.0036609999999999
1612,0.512054,0.449953,-0.731671,-0.001464,0.01129,-0.003833
1613,0.5120560000000001,0.449918,-0.731691,-0.001115,0.008334,-0.00247
1614,0.512051,0.449905,-0.731703,-0.001279,0.007691,-0.0016649999999999
1615,0.512054,0.449932,-0.731684,-0.000686,0.008564,-0.001837
1616,0.512076,0.44998,-0.731639,-0.000709,0.0094159999999999,-0.001027
1617,0.512061,0.4500119999999999,-0.73163,0.000528,0.0053409999999999,-0.003951
1618,0.511993,0.450096,-0.731626,0.0024879999999999,0.005012,-0.0031
1619,0.511926,0.450204,-0.7316060000000001,0.000922,0.010062,-0.00312
1620,0.51195,0.450292,-0.731535,-0.00365,0.0129639999999999,-0.000765
1621,0.512023,0.450374,-0.731434,-0.003982,0.011113,-0.002133
1622,0.512105,0.450466,-0.73132,-0.004644,0.0122569999999999,-0.004398
1623,0.5121479999999999,0.450554,-0.7312350000000001,-0.003374,0.009743,-0.003658
1624,0.512162,0.4505649999999999,-0.731219,-0.001343,0.009595,-0.003476
1625,0.512182,0.4505149999999999,-0.731236,-0.002447,0.00818,-0.000332
1626,0.512204,0.450453,-0.731259,-0.00253,0.006319,-0.000171
1627,0.51223,0.450377,-0.731287,0.000572,0.007814,-0.0022949999999999
1628,0.51226,0.450312,-0.731306,-0.0002819999999999,0.008901,-0.004336
1629,0.5122979999999999,0.450264,-0.731309,0.001786,0.010353,-0.007522
1630,0.51235,0.450208,-0.7313069999999999,0.001978,0.0088069999999999,-0.0038759999999999
1631,0.512433,0.450175,-0.731269,-0.0017059999999999,0.005697,-0.002694
1632,0.512505,0.450161,-0.731228,-0.002846,0.005848,-0.005741
1633,0.512576,0.450208,-0.7311489999999999,-0.001437,0.010699,-0.00109
1634,0.512618,0.450269,-0.731082,-0.003966,0.015811,-0.002332
1635,0.512556,0.450273,-0.731123,-0.002821,0.010695,-0.004076
1636,0.512433,0.450233,-0.731233,-0.000516,0.00747,-0.00305
1637,0.512425,0.4501529999999999,-0.731288,-0.000508,0.0075489999999999,-0.002995
1638,0.5125029999999999,0.4500659999999999,-0.731287,-0.002157,0.009345,-0.002401
1639,0.512551,0.449976,-0.731309,-0.002908,0.004248,-0.004958
1640,0.512544,0.449877,-0.731374,-0.001115,0.006711,-0.003489
1641,0.512506,0.4498279999999999,-0.731431,0.001852,0.006944,-0.005782
1642,0.512475,0.449831,-0.7314510000000001,0.002341,0.0088019999999999,-0.0036869999999999
1643,0.512479,0.449854,-0.731434,-0.00311,0.0101219999999999,-0.001964
1644,0.512536,0.449896,-0.7313689999999999,-0.00277,0.0081879999999999,-0.002228
1645,0.512587,0.4499399999999999,-0.731306,-0.002211,0.007885,-0.002779
1646,0.512582,0.449997,-0.731274,-0.000299,0.009109,-0.003742
1647,0.512528,0.450064,-0.731271,-0.002136,0.009363,-0.000983
1648,0.512484,0.450103,-0.731278,-0.00162,0.01027,-0.001174
1649,0.512459,0.4501229999999999,-0.731283,-0.001442,0.010907,-0.001749
1650,0.512451,0.450108,-0.731298,-0.0017239999999999,0.011195,-0.002833
1651,0.51244,0.450083,-0.731321,0.001049,0.010519,-0.0021379999999999
1652,0.5124,0.450057,-0.7313649999999999,-0.002222,0.008699,-0.004398
1653,0.5123840000000001,0.450003,-0.731409,-0.003137,0.010019,-0.001562
1654,0.512365,0.449962,-0.731448,-0.0026609999999999,0.00887,-0.003385
1655,0.5123300000000001,0.449938,-0.731487,-0.002397,0.006681,-0.004612
1656,0.512274,0.449928,-0.731533,-0.00138,0.006203,-0.002782
1657,0.512217,0.449932,-0.7315699999999999,-0.001963,0.009373,-0.002866
1658,0.512173,0.449922,-0.731607,0.001103,0.010039,-0.002585
1659,0.512185,0.449913,-0.731604,0.001334,0.01197,-0.002924
1660,0.512177,0.449888,-0.731625,-0.003144,0.006548,-0.005695
1661,0.512205,0.449924,-0.731584,-0.001646,0.009488,-0.003676
1662,0.512249,0.449989,-0.7315119999999999,0.0007059999999999,0.011376,-0.004953
1663,0.512325,0.4500159999999999,-0.7314430000000001,-0.002315,0.012661,-0.004412
1664,0.512372,0.450063,-0.7313810000000001,-0.00079,0.00732,-0.005374
1665,0.512446,0.4501189999999999,-0.731295,0.001912,0.003342,-0.004942
1666,0.512532,0.45019,-0.731191,0.001033,0.003057,-0.002971
1667,0.512656,0.450277,-0.73105,-0.000922,0.00564,-0.000716
1668,0.512749,0.45037,-0.730928,-0.002953,0.0144889999999999,0.001115
1669,0.5127550000000001,0.450433,-0.730884,-0.007079,0.018729,0.00275
1670,0.512684,0.450397,-0.730956,-0.004871,0.0154539999999999,0.001449
1671,0.5126,0.450317,-0.731064,0.000294,0.009751,-0.004592
1672,0.512595,0.450229,-0.731122,0.001382,0.007153,-0.004184
1673,0.512705,0.4501189999999999,-0.731113,0.002218,0.005753,-0.003994
1674,0.512872,0.449947,-0.731102,-0.0004669999999999,0.004811,-0.006325
1675,0.512946,0.4498479999999999,-0.731111,-0.000571,0.001996,-0.002654
1676,0.512883,0.4498399999999999,-0.73116,-0.001149,0.006047,-0.002315
1677,0.512817,0.449909,-0.731164,-0.0007469999999999,0.0081599999999999,-0.002601
1678,0.5128020000000001,0.450022,-0.731104,-0.000824,0.0076349999999999,-0.001821
1679,0.512811,0.450115,-0.7310409999999999,-0.0025109999999999,0.008808,-0.00283
1680,0.51278,0.450193,-0.731015,-0.0038229999999999,0.0078459999999999,-0.003849
1681,0.512727,0.45028,-0.7309979999999999,-0.00081,0.008888,-0.0033159999999999
1682,0.512696,0.450323,-0.7309939999999999,-0.003922,0.00886,-0.002176
1683,0.512679,0.450356,-0.730985,-0.003813,0.008399,-0.002627
1684,0.5126350000000001,0.450374,-0.731005,-0.002274,0.009572,-0.00282
1685,0.512571,0.4503819999999999,-0.731045,-0.000349,0.009854,-0.001972
1686,0.512494,0.450379,-0.7311,0.000796,0.008407,-0.004419
1687,0.5124310000000001,0.450381,-0.731143,0.0019579999999999,0.005933,-0.004239
1688,0.512432,0.4503649999999999,-0.7311529999999999,0.001438,0.007063,-0.00191
1689,0.512533,0.450363,-0.7310840000000001,0.001048,0.0108799999999999,0.0016829999999999
1690,0.512595,0.4504109999999999,-0.73101,-0.001364,0.012083,-0.005424
1691,0.512572,0.450447,-0.731004,-0.001403,0.010277,-0.002562
1692,0.512472,0.450499,-0.731042,-0.0010279999999999,0.006654,-0.002921
1693,0.512413,0.450553,-0.73105,-0.002144,0.009545,-0.002394
1694,0.512443,0.4505619999999999,-0.731024,-0.004005,0.010452,-0.002878
1695,0.512519,0.450505,-0.731005,-0.005195,0.012019,-0.000562
1696,0.512552,0.45042,-0.731035,-0.004647,0.009114,-0.00186
1697,0.512575,0.450314,-0.7310840000000001,-0.002947,0.007953,-0.001643
1698,0.512604,0.450206,-0.7311300000000001,0.001022,0.008763,-0.005656
1699,0.512634,0.450127,-0.731158,-0.000687,0.005043,-0.003889
1700,0.512622,0.4500939999999999,-0.731186,-0.000553,0.00622,-0.005645
1701,0.5126029999999999,0.450086,-0.731205,0.0014349999999999,0.005129,-0.005581
1702,0.5125970000000001,0.450109,-0.7311949999999999,0.002982,0.008707,-0.002082
1703,0.5126,0.450127,-0.731182,-0.000545,0.009239,-0.001316
1704,0.512605,0.450184,-0.7311439999999999,-0.00055,0.009182,-0.001355
