,gravity.x,gravity.y,gravity.z,userAcceleration.x,userAcceleration.y,userAcceleration.z
0,0.434079,0.161244,-0.8863270000000001,-0.01904,0.0145979999999999,0.03539
1,0.4298689999999999,0.161761,-0.888282,0.003633,0.0076269999999999,0.026298
2,0.4252319999999999,0.162599,-0.890359,0.0028989999999999,0.012267,0.018792
3,0.4209569999999999,0.163444,-0.8922329999999999,0.010806,0.016747,0.009223
4,0.416508,0.1636119999999999,-0.894288,0.014843,-0.002006,0.002137
5,0.411814,0.163147,-0.896544,0.020437,-0.019882,0.003981
6,0.407206,0.162644,-0.8987379999999999,-0.007945,-0.0568549999999999,0.026316
7,0.402563,0.161781,-0.900982,-0.004095,-0.058158,0.0033229999999999
8,0.398957,0.1613079999999999,-0.902669,0.008269,-0.030036,-0.027613
9,0.396715,0.16139,-0.903643,0.017409,0.0090049999999999,-0.142927
10,0.395545,0.163046,-0.903858,0.0216,0.0375459999999999,0.00951
11,0.394818,0.165028,-0.903816,-0.071194,-0.069524,0.114449
12,0.392277,0.165125,-0.904904,-0.098301,-0.0975429999999999,0.0408139999999999
13,0.39024,0.167389,-0.905369,-0.018216,-0.028991,-0.089336
14,0.391769,0.174321,-0.903398,-0.06311,0.016322,-0.163832
15,0.396878,0.180772,-0.8998940000000001,-0.046231,0.108321,-0.288842
16,0.406229,0.187108,-0.894409,-0.099725,0.224987,-0.0611419999999999
17,0.416642,0.190959,-0.8887870000000001,-0.2084659999999999,0.084722,-0.031516
18,0.426835,0.19417,-0.883238,-0.007493,-0.017122,0.118086
19,0.441031,0.198314,-0.875307,-0.026129,-0.153178,0.143266
20,0.452937,0.201477,-0.8684780000000001,0.061651,-0.182617,0.168481
21,0.462476,0.20146,-0.86344,0.06087,-0.196852,0.151099
22,0.466553,0.198945,-0.861828,0.120224,-0.183015,0.149532
23,0.4670399999999999,0.195042,-0.862456,0.181168,-0.122928,0.141555
24,0.465255,0.191352,-0.864246,0.220887,-0.008765,0.119342
25,0.459017,0.186833,-0.868559,0.227155,0.04533,0.095076
26,0.449395,0.181322,-0.8747370000000001,0.224189,0.1186349999999999,-0.087451
27,0.433247,0.175114,-0.884099,0.109752,0.152996,-0.106303
28,0.414297,0.167786,-0.8945420000000001,0.049387,0.119521,-0.290364
29,0.397288,0.16291,-0.903118,-0.014475,0.191888,-0.264652
30,0.385596,0.160682,-0.908568,-0.0787419999999999,0.2164849999999999,-0.204789
31,0.378447,0.1596,-0.911759,-0.101363,0.140891,-0.134536
32,0.372668,0.159594,-0.914138,-0.08623,0.131987,-0.05211
33,0.367484,0.1607299999999999,-0.916035,-0.122642,0.122199,0.0184669999999999
34,0.3613449999999999,0.162143,-0.918226,-0.097322,0.069089,0.069715
35,0.354032,0.1628609999999999,-0.920943,-0.106764,0.034069,0.1187119999999999
36,0.346878,0.161711,-0.923864,-0.103714,0.012133,0.131261
37,0.339557,0.158314,-0.927166,-0.047031,-0.081867,0.099178
38,0.33192,0.153117,-0.930798,-0.000834,-0.131953,0.109661
39,0.325139,0.146837,-0.934196,0.004298,-0.164735,0.104713
40,0.319986,0.14079,-0.936903,-0.016275,-0.233029,0.087812
41,0.3150179999999999,0.1358849999999999,-0.939307,-0.027069,-0.260031,0.070686
42,0.312327,0.132868,-0.940637,-0.011912,-0.19816,0.0384759999999999
43,0.313618,0.133182,-0.940162,-0.070424,-0.083316,0.034355
44,0.318234,0.136388,-0.93815,-0.064373,-0.044057,0.046472
45,0.328204,0.1406109999999999,-0.934082,-0.056964,0.002516,-0.005615
46,0.340303,0.145445,-0.928999,0.014907,0.033724,-0.022173
47,0.352805,0.14972,-0.923641,0.035562,0.0347899999999999,-0.036748
48,0.363066,0.154192,-0.918916,0.066499,0.049802,-0.0145099999999999
49,0.371588,0.158708,-0.914731,0.036874,0.058577,-0.000628
50,0.380481,0.162554,-0.910389,0.016323,0.061979,0.011387
51,0.389009,0.165331,-0.906276,0.037719,0.066145,-0.004368
52,0.396403,0.167006,-0.902758,0.047032,0.073656,-0.030393
53,0.4017179999999999,0.167423,-0.900328,0.044129,0.073376,-0.038667
54,0.404276,0.1668599999999999,-0.8992870000000001,0.049947,0.070734,-0.046712
55,0.405207,0.165486,-0.899122,0.0378779999999999,0.056987,-0.028963
56,0.405645,0.163882,-0.8992180000000001,0.018015,0.04852,-0.012937
57,0.406402,0.162679,-0.8990950000000001,0.001297,0.00268,0.011476
58,0.407366,0.161105,-0.898942,0.008345,-0.014453,-0.000487
59,0.407876,0.159339,-0.899025,0.00968,-0.0171729999999999,-0.012031
60,0.408109,0.157911,-0.899172,0.006503,-0.01782,-0.012739
61,0.408823,0.1569829999999999,-0.8990100000000001,-0.005167,-0.009614,-0.008888
62,0.410217,0.156717,-0.8984209999999999,0.001633,-0.022806,-0.015458
63,0.4123449999999999,0.156995,-0.8973979999999999,0.009073,-0.018247,-0.032061
64,0.415133,0.1580109999999999,-0.895933,0.002561,-0.004965,-0.01784
65,0.418652,0.1597049999999999,-0.893993,-0.006085,0.008554,0.010845
66,0.423468,0.161923,-0.891322,0.0063869999999999,0.026691,0.0114849999999999
67,0.42768,0.163656,-0.888991,-0.003257,0.0315649999999999,0.0093829999999999
68,0.430729,0.164771,-0.8873120000000001,-0.004062,0.010843,-0.020113
69,0.434442,0.165974,-0.885275,0.006797,0.012172,-0.001627
70,0.437062,0.166574,-0.8838719999999999,-0.000798,0.015555,0.0035009999999999
71,0.43981,0.167458,-0.88234,-0.028814,-0.005578,-0.0150139999999999
72,0.444538,0.16887,-0.879698,-0.02718,-0.01262,-0.014147
73,0.449801,0.170933,-0.876618,-0.017428,-0.013829,-0.0018149999999999
74,0.454447,0.173424,-0.8737280000000001,-0.030832,-0.006843,-0.005926
75,0.459046,0.175843,-0.870836,0.007217,0.010161,-0.003875
76,0.46201,0.17772,-0.868885,-0.007725,0.002731,-0.00259
77,0.4636939999999999,0.178647,-0.8677969999999999,0.011053,0.021503,-0.004823
78,0.464787,0.179392,-0.867058,0.019069,0.021582,0.007714
79,0.466091,0.180025,-0.8662270000000001,0.014546,0.022047,0.013642
80,0.467192,0.180361,-0.8655639999999999,0.002855,0.01341,0.012567
81,0.4679779999999999,0.180455,-0.8651190000000001,0.0095459999999999,0.006572,-0.001473
82,0.468504,0.180619,-0.864801,0.008105,0.006362,-0.003089
83,0.4688779999999999,0.18085,-0.864549,0.004587,0.0092129999999999,0.002275
84,0.469107,0.180994,-0.864395,0.004236,0.011786,0.0027
85,0.4691649999999999,0.1811,-0.864341,0.004895,0.01145,0.0017469999999999
86,0.46925,0.181197,-0.864275,0.003361,0.013032,-0.000792
87,0.469396,0.181316,-0.8641700000000001,0.00416,0.0137069999999999,-0.001751
88,0.469417,0.181497,-0.8641209999999999,0.004369,0.020301,-0.000594
89,0.469413,0.181601,-0.864101,0.002816,0.0211419999999999,-0.000996
90,0.469434,0.181577,-0.8640950000000001,0.006792,0.021777,-0.007579
91,0.469253,0.181574,-0.864194,0.0092319999999999,0.015402,-0.00603
92,0.4688479999999999,0.181533,-0.8644229999999999,0.0115599999999999,0.010987,-0.00101
93,0.468356,0.181584,-0.8646780000000001,0.012067,0.005871,0.0037619999999999
94,0.4678819999999999,0.1817359999999999,-0.8649030000000001,0.00041,-0.006245,0.011113
95,0.467484,0.181804,-0.8651040000000001,-0.012482,0.0018969999999999,0.008338
96,0.466363,0.182822,-0.8654940000000001,-0.298746,0.1932309999999999,0.043778
97,0.4581229999999999,0.183808,-0.869676,0.178107,-0.116944,0.0657669999999999
98,0.460321,0.182844,-0.868718,0.005057,0.2473929999999999,-0.2330429999999999
99,0.470501,0.1801819999999999,-0.863807,-0.0083579999999999,0.010126,-0.226556
100,0.46889,0.181426,-0.8644219999999999,-0.028857,-0.005202,0.158657
101,0.463502,0.184729,-0.866625,-0.001786,0.015268,0.114443
102,0.465962,0.185697,-0.8650979999999999,0.019253,0.060443,-0.037886
103,0.467063,0.184927,-0.86467,0.049051,0.045557,-0.115265
104,0.467782,0.183814,-0.864518,0.038428,0.0391629999999999,-0.086974
105,0.468808,0.183832,-0.863958,-0.027204,-0.019662,0.048498
106,0.468481,0.184679,-0.8639549999999999,-0.0175069999999999,-0.016221,0.039324
107,0.469203,0.185684,-0.863348,-0.009562,-0.002686,0.011877
108,0.471063,0.186797,-0.862093,-0.000849,0.020616,-0.013731
109,0.471554,0.187084,-0.861763,0.0147889999999999,0.034611,-0.01574
110,0.4709609999999999,0.186493,-0.862215,0.010408,0.033127,-0.008482
111,0.4708,0.185924,-0.862426,0.00268,0.017308,-0.0032049999999999
112,0.471321,0.186048,-0.862115,-0.008293,0.000552,-0.005774
113,0.472617,0.186596,-0.8612860000000001,-0.008277,-0.001263,-0.0068629999999999
114,0.474315,0.187723,-0.860107,-0.008403,-0.006937,-0.005676
115,0.475997,0.189081,-0.85888,-0.003936,0.0025989999999999,0.007058
116,0.4774,0.1903099999999999,-0.857828,-0.003997,0.010694,0.003123
117,0.478625,0.19135,-0.856914,-0.00603,0.015895,-0.001957
118,0.4796899999999999,0.1922299999999999,-0.8561209999999999,-0.016845,0.02118,-0.0045509999999999
119,0.4806899999999999,0.1930069999999999,-0.8553850000000001,-0.013954,0.021638,-0.005912
120,0.481375,0.193573,-0.854872,-0.005606,0.027756,0.004393
121,0.481056,0.193581,-0.85505,-0.0297009999999999,0.0284959999999999,0.013802
122,0.480576,0.193082,-0.855432,-0.051835,0.0257899999999999,0.007227
123,0.482216,0.192313,-0.854683,-0.029411,0.0198449999999999,-0.026482
124,0.484308,0.191869,-0.853599,0.0079099999999999,0.049616,-0.044549
125,0.485489,0.192149,-0.852865,0.034973,0.0641679999999999,-0.01594
126,0.486591,0.192462,-0.852166,0.045651,0.039914,0.0342639999999999
127,0.4868229999999999,0.191657,-0.852215,0.0530789999999999,-0.0032259999999999,0.034405
128,0.4864699999999999,0.190241,-0.852734,0.045528,-0.0362339999999999,0.004879
129,0.487055,0.18983,-0.852491,0.0289509999999999,-0.023937,0.002424
130,0.488202,0.190872,-0.8516020000000001,0.011508,-0.022721,0.023278
131,0.489666,0.192164,-0.8504700000000001,-0.012341,-0.0134069999999999,0.020025
132,0.491204,0.193191,-0.84935,-0.0346,0.025086,-0.006867
133,0.492304,0.193961,-0.8485370000000001,-0.029383,0.039132,-0.019856
134,0.492332,0.194475,-0.848403,-0.008537,0.040022,-0.034425
135,0.491405,0.195002,-0.8488190000000001,0.004079,0.050711,-0.033413
136,0.490209,0.1955609999999999,-0.849382,0.0092269999999999,0.051723,-0.012801
137,0.48923,0.195843,-0.849882,-0.0127739999999999,0.033787,0.016645
138,0.488324,0.195748,-0.850424,-0.021176,0.005713,0.022436
139,0.487725,0.195327,-0.850865,-0.011254,-0.004272,-5.7e-05
140,0.487481,0.194795,-0.851126,-0.005059,-0.0077379999999999,-0.012353
141,0.4873439999999999,0.19472,-0.8512219999999999,-0.000787,-0.007434,-0.0015
142,0.487232,0.195154,-0.851187,0.012006,-0.0156949999999999,0.016913
143,0.486907,0.195871,-0.851208,0.0299079999999999,-0.015619,0.036343
144,0.4864479999999999,0.196576,-0.851308,0.036334,-0.011609,0.043798
145,0.485678,0.196732,-0.851712,0.036386,0.032913,0.032086
146,0.484832,0.196273,-0.852299,0.037827,0.011903,-0.0139879999999999
147,0.4837439999999999,0.195995,-0.852981,0.042562,-0.053463,0.016174
148,0.4808979999999999,0.197204,-0.854311,-0.048129,-0.017943,0.03296
149,0.480376,0.197355,-0.854569,-0.05049,0.071292,-0.070571
150,0.48101,0.195243,-0.854698,-0.001411,0.051873,-0.093544
151,0.479797,0.194902,-0.855457,-0.0068049999999999,0.003646,0.028446
152,0.4785779999999999,0.196481,-0.8557790000000001,-0.00403,-0.017679,0.040654
153,0.479335,0.197409,-0.855141,0.003621,0.0149319999999999,0.019768
154,0.479575,0.197682,-0.854943,0.0138789999999999,0.025447,-0.017936
155,0.4801149999999999,0.19763,-0.8546520000000001,0.005084,0.03528,-0.0230639999999999
156,0.48055,0.197258,-0.8544940000000001,-0.020207,0.0306779999999999,-0.000135
157,0.480489,0.197034,-0.8545799999999999,-0.025243,0.021456,-0.002933
158,0.480851,0.196779,-0.8544350000000001,-0.021165,0.018096,-0.007
159,0.4811479999999999,0.1963339999999999,-0.8543700000000001,-0.016472,0.014894,-0.001953
160,0.4807909999999999,0.195634,-0.8547319999999999,-0.0080439999999999,0.0254199999999999,0.010203
161,0.480401,0.194289,-0.855258,-0.006021,0.026307,0.0034049999999999
162,0.4801979999999999,0.192673,-0.8557370000000001,-0.004033,0.031601,-0.008567
163,0.480135,0.191108,-0.856124,-0.007906,0.027658,-0.014696
164,0.480539,0.18965,-0.8562209999999999,-0.008081,0.028367,-0.014049
165,0.481427,0.188603,-0.8559530000000001,-0.0120209999999999,0.015025,-0.01508
166,0.482465,0.187813,-0.855543,-0.006604,0.012444,-0.011294
167,0.483664,0.1872839999999999,-0.854981,-0.004508,0.006884,0.001405
168,0.485054,0.186943,-0.854268,0.002037,0.007637,0.008839
169,0.486385,0.186672,-0.85357,0.010853,0.010975,0.009469
170,0.4876689999999999,0.186405,-0.8528959999999999,0.019518,0.005963,0.002478
171,0.4887859999999999,0.186328,-0.852273,0.0195,0.00697,0.010522
172,0.4897399999999999,0.186447,-0.8517,0.008231,0.008545,0.015976
173,0.490534,0.1865369999999999,-0.8512219999999999,0.006215,0.008149,0.010554
174,0.491052,0.186449,-0.850943,0.004813,0.009885,-0.003213
175,0.491131,0.186453,-0.8508969999999999,0.005268,0.0170069999999999,0.001165
176,0.490927,0.18657,-0.850989,0.00419,0.021713,0.003119
177,0.4904979999999999,0.186531,-0.851244,0.002421,0.022362,0.00458
178,0.489934,0.186281,-0.8516239999999999,0.005717,0.02429,-0.001052
179,0.489303,0.185978,-0.8520530000000001,0.007722,0.024913,-0.00073
180,0.4886939999999999,0.185796,-0.852442,0.0053549999999999,0.023372,0.001414
181,0.488159,0.18567,-0.852776,0.003907,0.0191639999999999,0.004159
182,0.487655,0.185553,-0.85309,-0.003402,0.016717,-0.004271
183,0.487208,0.185349,-0.853389,-0.003627,0.016936,-0.005848
184,0.486851,0.1852339999999999,-0.853618,-0.004521,0.0150979999999999,-0.005574
185,0.486638,0.185273,-0.8537309999999999,-0.007802,0.014861,-0.00543
186,0.486535,0.185377,-0.853767,-0.009072,0.01198,-0.005059
187,0.486776,0.185601,-0.8535809999999999,-0.012579,0.011909,-0.00407
188,0.487297,0.185951,-0.853208,-0.004464,0.022683,-0.001559
189,0.488092,0.1862329999999999,-0.852691,8.2e-05,0.023941,-0.000214
190,0.488902,0.186413,-0.852188,0.001821,0.034092,0.002167
191,0.4897399999999999,0.186346,-0.851722,0.0149139999999999,0.015879,0.003852
192,0.490342,0.186137,-0.8514200000000001,0.009032,0.019582,0.0044659999999999
193,0.490677,0.185744,-0.8513139999999999,0.004944,0.023011,0.004695
194,0.490938,0.185531,-0.851209,-0.0126819999999999,0.0176699999999999,-9.4e-05
195,0.490884,0.185366,-0.8512770000000001,-0.013955,0.0116099999999999,0.001301
196,0.4905899999999999,0.18565,-0.851384,-0.021047,0.010486,0.001805
197,0.4903869999999999,0.18641,-0.8513350000000001,-0.024475,0.007026,-0.003477
198,0.490328,0.187096,-0.8512190000000001,-0.019076,0.008674,-0.006402
199,0.490137,0.187502,-0.85124,-0.007974,0.010359,0.007993
200,0.4901189999999999,0.187629,-0.8512209999999999,-0.008766,0.014062,0.009989
201,0.490608,0.187827,-0.8508959999999999,0.001976,0.01896,0.003835
202,0.491655,0.188576,-0.850126,0.024596,0.022468,0.002714
203,0.493482,0.1898119999999999,-0.848791,0.031756,0.028068,0.00466
204,0.4958909999999999,0.1912,-0.847074,0.031406,0.0355,0.003461
205,0.4986069999999999,0.192751,-0.845126,0.016637,0.034513,0.001101
206,0.502182,0.194621,-0.842576,0.008193,0.031972,-0.000106
207,0.506279,0.197363,-0.839482,2.3e-05,0.021921,0.001286
208,0.510426,0.200989,-0.836103,-0.039235,0.025116,0.005674
209,0.514363,0.205182,-0.832665,-0.009404,0.014133,0.001992
210,0.518592,0.2095409999999999,-0.8289479999999999,-0.015906,0.023644,-0.003343
211,0.52187,0.2133449999999999,-0.825915,-0.005589,0.016834,-0.011198
212,0.524528,0.21666,-0.823364,-0.013526,-0.002686,-0.013992
213,0.5260640000000001,0.219518,-0.821626,-0.007188,0.00857,-0.014846
214,0.526149,0.221413,-0.8210620000000001,-0.042842,0.0304639999999999,0.010454
215,0.52608,0.221993,-0.82095,-0.033282,0.025749,0.006344
216,0.525474,0.221725,-0.8214100000000001,-0.023582,0.009843,-0.0230569999999999
217,0.524748,0.221565,-0.821917,-0.014281,0.0167919999999999,-0.012617
218,0.523998,0.221531,-0.8224049999999999,-0.0219229999999999,0.010144,0.00371
219,0.523068,0.2210239999999999,-0.823133,-0.036252,-0.000565,-0.004549
220,0.521871,0.219933,-0.824184,-0.035314,0.0018989999999999,-0.006825
221,0.5204,0.218955,-0.8253739999999999,-0.01329,0.005364,-0.001531
222,0.51881,0.2185219999999999,-0.8264889999999999,0.019826,0.003753,0.003201
223,0.5173760000000001,0.218416,-0.827415,0.039463,0.017027,0.015007
224,0.516083,0.218411,-0.828224,0.037719,0.0428949999999999,0.033683
225,0.5146029999999999,0.217948,-0.829266,0.031829,0.059762,0.031231
226,0.512563,0.216588,-0.8308840000000001,0.029154,0.069316,0.005811
227,0.509994,0.214546,-0.832992,0.021957,0.0748679999999999,-0.0202639999999999
228,0.507211,0.212441,-0.8352280000000001,0.018012,0.077797,-0.02166
229,0.504922,0.210533,-0.837095,-0.00361,0.056389,-0.023577
230,0.503074,0.2087,-0.838666,-0.007698,0.020914,-0.015491
231,0.501815,0.207451,-0.8397290000000001,-0.010375,0.0002819999999999,-0.010246
232,0.501508,0.207057,-0.84001,-0.015393,-0.016047,0.003966
233,0.502016,0.207367,-0.8396299999999999,-0.022982,-0.025772,0.0187069999999999
234,0.502699,0.207975,-0.8390709999999999,-0.011534,-0.0082989999999999,0.019277
235,0.503268,0.20829,-0.838651,-0.00548,0.015831,0.009931
236,0.503368,0.207982,-0.8386680000000001,0.000416,0.025981,-0.009477
237,0.502872,0.207478,-0.83909,-0.001544,0.029232,-0.010473
238,0.5022760000000001,0.206956,-0.839576,-0.00394,0.032485,-0.0077909999999999
239,0.5017159999999999,0.206312,-0.8400690000000001,0.002449,0.032152,0.013561
240,0.500811,0.20533,-0.840849,0.008878,0.039955,0.013258
241,0.499606,0.203835,-0.841929,0.012403,0.047569,0.010966
242,0.4981609999999999,0.202256,-0.8431649999999999,0.0025559999999999,0.016677,0.0024519999999999
243,0.496852,0.200787,-0.8442879999999999,0.002461,0.01427,-0.0069849999999999
244,0.496184,0.199928,-0.844884,0.004716,0.009193,-0.0114849999999999
245,0.4962569999999999,0.200074,-0.844807,-0.00764,0.001464,-0.003094
246,0.496738,0.200711,-0.8443729999999999,-0.012104,0.0046869999999999,0.00456
247,0.497497,0.201664,-0.843699,-0.01239,0.0211599999999999,0.004603
248,0.49823,0.20238,-0.843094,-0.002549,0.036588,-0.009384
249,0.49863,0.20292,-0.842728,0.003979,0.0441649999999999,-0.007629
250,0.4987109999999999,0.203197,-0.842614,0.001091,0.032231,0.004067
251,0.498481,0.203185,-0.8427530000000001,-0.00164,0.0287029999999999,0.006342
252,0.49796,0.202784,-0.8431569999999999,-0.005712,0.026204,0.005068
253,0.4972939999999999,0.20217,-0.843698,-0.012431,0.021448,-0.005942
254,0.496455,0.201343,-0.84439,-0.009196,0.016812,-0.011308
255,0.4954689999999999,0.2006599999999999,-0.8451299999999999,-0.006883,0.020287,-0.0122
256,0.49462,0.200365,-0.845698,-0.005729,0.026381,-0.004629
257,0.494076,0.200133,-0.8460709999999999,-0.003277,0.023576,0.002382
258,0.49353,0.199817,-0.846464,-0.003097,0.016675,0.009519
259,0.492777,0.1994109999999999,-0.8469979999999999,0.002935,0.01055,0.013502
260,0.4919199999999999,0.199047,-0.847582,0.0075159999999999,0.012593,0.012911
261,0.49113,0.198674,-0.8481270000000001,0.010823,0.013393,0.011229
262,0.490303,0.19837,-0.848677,0.008858,0.023142,0.00923
263,0.489589,0.198092,-0.8491540000000001,0.0072069999999999,0.025571,0.004977
264,0.48916,0.197893,-0.849447,-0.000345,0.027067,0.007208
265,0.4888699999999999,0.197694,-0.8496600000000001,-0.005335,0.027724,0.003408
266,0.48857,0.19742,-0.8498969999999999,-0.006865,0.0269459999999999,0.002088
267,0.488183,0.196981,-0.8502209999999999,-0.0086,0.025889,0.001115
268,0.487621,0.19647,-0.850662,-0.01115,0.022952,6.1e-05
269,0.486951,0.195909,-0.851175,-0.009152,0.021529,-0.000723
270,0.4862899999999999,0.195343,-0.8516819999999999,-0.012246,0.02089,0.003919
271,0.485592,0.194645,-0.852241,-0.013286,0.0219229999999999,0.0022949999999999
272,0.4847649999999999,0.1937559999999999,-0.852914,-0.0070269999999999,0.016647,-0.010032
273,0.4838119999999999,0.193009,-0.8536239999999999,-0.0046409999999999,0.016052,-0.016906
274,0.48307,0.192642,-0.8541270000000001,-0.011726,0.020859,-0.006957
275,0.48271,0.192478,-0.854367,-0.013044,0.021816,0.004788
276,0.482498,0.192192,-0.8545510000000001,-0.009521,0.0271529999999999,0.009001
277,0.482362,0.191769,-0.854723,-0.007936,0.031543,0.0016649999999999
278,0.482356,0.1912859999999999,-0.854834,-0.008128,0.03494,-0.002771
279,0.482358,0.190709,-0.8549629999999999,0.000842,0.029017,-0.001803
280,0.482051,0.190136,-0.8552629999999999,0.005681,0.026661,-0.001961
281,0.481508,0.189744,-0.855656,0.005171,0.021438,-0.000454
282,0.481062,0.189529,-0.8559540000000001,0.00554,0.01294,0.002591
283,0.480735,0.1894559999999999,-0.8561549999999999,0.013345,0.012983,0.004974
284,0.480639,0.189412,-0.856218,0.00749,0.022487,0.011202
285,0.4808449999999999,0.189457,-0.856093,-0.000681,0.035717,0.005751
286,0.481058,0.189388,-0.855988,-0.006281,0.039021,-0.0021969999999999
287,0.481163,0.1890079999999999,-0.8560129999999999,-0.005485,0.039783,-0.008825
288,0.48096,0.188365,-0.8562690000000001,-0.006625,0.036824,-0.005197
289,0.4804819999999999,0.187726,-0.856677,-0.001997,0.029223,-0.001279
290,0.4800069999999999,0.186975,-0.857108,-0.003094,0.020468,0.003058
291,0.47955,0.18627,-0.857517,-0.0014609999999999,0.016061,0.001514
292,0.479068,0.185644,-0.857922,-0.003924,0.009837,0.002621
293,0.478709,0.185186,-0.8582219999999999,-0.005595,0.012796,0.003561
294,0.478597,0.184879,-0.85835,-0.004309,0.013836,-0.002017
295,0.478714,0.184644,-0.8583360000000001,-0.0052179999999999,0.023776,-0.005739
296,0.478717,0.184513,-0.8583620000000001,-0.003482,0.032391,-0.001563
297,0.478674,0.184439,-0.858402,0.0016879999999999,0.033472,0.005023
298,0.4787,0.1842329999999999,-0.858432,0.003447,0.031298,0.004306
299,0.478587,0.183891,-0.858568,0.007573,0.027687,0.011308
300,0.4782079999999999,0.183335,-0.8588979999999999,0.010394,0.022278,0.009304
301,0.47755,0.182596,-0.8594209999999999,0.012959,0.0149449999999999,0.0061649999999999
302,0.476705,0.181911,-0.860035,0.016993,0.020145,0.002323
303,0.47601,0.181333,-0.860542,0.01868,0.026568,0.001808
304,0.475302,0.180915,-0.861022,0.009104,0.0223009999999999,0.008208
305,0.474641,0.1807099999999999,-0.8614290000000001,0.001723,0.021988,0.007227
306,0.474307,0.180588,-0.8616379999999999,-0.0018039999999999,0.021469,0.006093
307,0.474037,0.180482,-0.861809,-0.004875,0.025695,0.001686
308,0.473638,0.180374,-0.862051,-0.006368,0.022125,-0.0049229999999999
309,0.473221,0.180173,-0.8623219999999999,-0.0144509999999999,0.021335,-0.003858
310,0.472752,0.179993,-0.862617,-0.027302,0.023941,-0.006981
311,0.472477,0.17991,-0.862785,-0.021289,0.0371769999999999,-0.010246
312,0.4723979999999999,0.179549,-0.8629040000000001,-0.014207,0.036333,-0.018383
313,0.472184,0.179191,-0.8630950000000001,-0.0153669999999999,0.035973,-0.013645
314,0.471814,0.179166,-0.863303,-0.005047,0.028994,0.002539
315,0.471776,0.178807,-0.863397,-0.00501,0.029354,0.002634
316,0.4714779999999999,0.178414,-0.863642,-0.0077329999999999,0.023704,0.001367
317,0.471058,0.17799,-0.863958,-0.007465,0.021137,-4e-05
318,0.47081,0.1774599999999999,-0.864203,-0.010589,0.0167849999999999,-0.003382
319,0.470634,0.17715,-0.8643620000000001,-0.0131139999999999,0.014546,-0.002871
320,0.470488,0.177,-0.8644719999999999,-0.003585,0.021059,-0.003189
321,0.4702989999999999,0.176833,-0.864609,-0.007225,0.019502,-0.000213
322,0.469914,0.176707,-0.8648440000000001,-0.0121959999999999,0.017523,0.003394
323,0.469527,0.176538,-0.865089,-0.015501,0.02503,0.002678
324,0.469202,0.17618,-0.8653379999999999,-0.015177,0.025389,0.002927
325,0.46874,0.175772,-0.8656719999999999,0.003443,0.026956,-0.006139
326,0.468149,0.175491,-0.8660479999999999,0.007651,0.025818,0.002797
327,0.4676329999999999,0.175338,-0.866358,0.0066099999999999,0.0271,0.004663
328,0.467227,0.175121,-0.8666209999999999,0.006162,0.030293,0.00865
329,0.466706,0.174814,-0.8669629999999999,0.002441,0.028906,0.005788
330,0.466208,0.174526,-0.867289,0.007684,0.028462,0.00561
331,0.465912,0.1743829999999999,-0.867477,0.005874,0.025294,0.002258
332,0.465752,0.174438,-0.867552,0.005622,0.028763,0.001966
333,0.465709,0.17452,-0.8675579999999999,0.00095,0.030451,-0.002116
334,0.465733,0.174589,-0.867532,-0.006215,0.0303209999999999,-0.001975
335,0.465733,0.174538,-0.867542,-0.008641,0.030662,-0.003109
336,0.465702,0.174484,-0.8675700000000001,-0.0097989999999999,0.029236,-0.003081
337,0.4655939999999999,0.174295,-0.8676649999999999,-0.010379,0.026922,-0.003367
338,0.46541,0.174051,-0.867813,-0.007708,0.025442,-0.003906
339,0.465206,0.173793,-0.867974,-0.009395,0.020909,-0.000922
340,0.465088,0.173592,-0.868078,-0.007004,0.021873,-0.002299
341,0.4650319999999999,0.173503,-0.8681260000000001,-0.003148,0.0281259999999999,-0.000512
342,0.465003,0.1734369999999999,-0.8681540000000001,-0.000602,0.027674,-0.001734
343,0.46506,0.1733589999999999,-0.868139,-0.000445,0.026607,0.002676
344,0.4651409999999999,0.1733289999999999,-0.868102,-0.000817,0.022136,0.002745
345,0.4652949999999999,0.173354,-0.868014,0.001364,0.026917,0.001239
346,0.465413,0.173402,-0.867942,-0.0018969999999999,0.027022,0.000754
347,0.465522,0.173424,-0.867878,-0.004371,0.026801,-0.001171
348,0.465661,0.173422,-0.8678049999999999,-0.006051,0.025812,0.001685
349,0.465782,0.173482,-0.867728,-0.005089,0.0274,-0.0006349999999999
350,0.465864,0.173503,-0.8676799999999999,-0.004407,0.02802,-0.001385
351,0.46591,0.173521,-0.8676510000000001,-0.0057659999999999,0.024553,0.00086
352,0.465935,0.173515,-0.8676389999999999,-0.006615,0.025856,0.000146
353,0.465948,0.17352,-0.8676309999999999,-0.004598,0.0268279999999999,-0.001433
354,0.465934,0.173504,-0.867641,-0.006828,0.02605,0.000469
355,0.465865,0.173433,-0.867693,-0.00299,0.02841,0.0007639999999999
356,0.4657229999999999,0.173364,-0.8677819999999999,-0.005106,0.0265709999999999,-0.000443
357,0.465628,0.173264,-0.8678530000000001,-0.005149,0.02684,0.000147
358,0.465563,0.173184,-0.8679040000000001,-0.004748,0.025958,0.000396
359,0.4655289999999999,0.173154,-0.8679290000000001,-0.004256,0.025302,-0.0004639999999999
360,0.465559,0.173126,-0.8679180000000001,-0.0048649999999999,0.025101,-0.002489
361,0.465581,0.1731359999999999,-0.8679040000000001,-0.005575,0.028036,-0.0022129999999999
362,0.46561,0.1731619999999999,-0.867884,-0.00452,0.025797,0.000101
363,0.465595,0.17319,-0.867886,-0.003681,0.027631,-0.000522
364,0.46561,0.1731589999999999,-0.867884,-0.004779,0.027341,-0.000249
365,0.4656079999999999,0.173189,-0.8678790000000001,-0.002077,0.027495,-0.001887
366,0.465613,0.173215,-0.867872,-0.001166,0.0305819999999999,-0.0031149999999999
367,0.465632,0.173291,-0.8678459999999999,-0.004344,0.029407,0.004153
368,0.465647,0.17328,-0.867841,-0.002832,0.027236,0.001294
369,0.465643,0.173168,-0.867865,-0.0025989999999999,0.027241,-5.5e-05
370,0.46562,0.1731619999999999,-0.867878,-0.003538,0.026621,0.000859
371,0.465638,0.173174,-0.867866,-0.003342,0.025663,0.000587
372,0.465678,0.173191,-0.867842,-0.0024519999999999,0.029491,0.001295
373,0.465689,0.173193,-0.867835,-0.004324,0.0289399999999999,-0.000299
374,0.465696,0.173145,-0.867841,-0.004896,0.028058,0.001828
375,0.465712,0.173037,-0.8678540000000001,-0.004347,0.027357,0.000896
376,0.465715,0.172996,-0.8678610000000001,-0.005449,0.029916,-0.00244
377,0.465707,0.172915,-0.8678809999999999,-0.005181,0.027524,-7e-05
378,0.465715,0.172833,-0.867893,-0.004854,0.025684,-0.000408
379,0.4657239999999999,0.17274,-0.867906,-0.003643,0.025685,-0.0001199999999999
380,0.465692,0.172706,-0.86793,-0.004877,0.03016,-0.002309
381,0.465693,0.172653,-0.867941,-0.004374,0.028671,0.00115
382,0.465676,0.172569,-0.867967,-0.0025559999999999,0.027458,1.6e-05
383,0.4656899999999999,0.172498,-0.867973,-0.004096,0.026523,-0.001305
384,0.465761,0.172469,-0.867941,-0.004335,0.029008,0.000357
385,0.465842,0.17244,-0.8679030000000001,-0.004981,0.027511,-0.000261
386,0.465893,0.1724099999999999,-0.8678819999999999,-0.004086,0.028533,-0.000359
387,0.465926,0.172392,-0.867867,-0.006255,0.0278339999999999,-0.0018219999999999
388,0.465991,0.172391,-0.867833,-0.004367,0.0284899999999999,0.000676
389,0.466055,0.172318,-0.867813,-0.00469,0.029327,0.001282
390,0.4661119999999999,0.172264,-0.867793,-0.003725,0.0286029999999999,-0.000661
391,0.466161,0.172229,-0.8677729999999999,-0.003423,0.029751,0.000403
392,0.466226,0.172205,-0.867743,-0.0037479999999999,0.026937,0.001914
393,0.4663029999999999,0.172165,-0.86771,-0.002573,0.027268,0.001911
394,0.4663279999999999,0.1721349999999999,-0.8677030000000001,-0.001347,0.028945,0.000454
395,0.466375,0.172095,-0.867685,-0.002859,0.026819,0.0021609999999999
396,0.4664069999999999,0.172059,-0.867675,-0.002601,0.0282589999999999,0.000503
397,0.4664149999999999,0.172046,-0.867674,-0.0052179999999999,0.029431,0.000272
398,0.46645,0.172029,-0.867658,-0.003406,0.0303339999999999,-0.000872
399,0.466442,0.171986,-0.8676709999999999,-0.005611,0.028835,0.000651
400,0.466391,0.171923,-0.867711,-0.006018,0.0286839999999999,9.6e-05
401,0.466322,0.17188,-0.867756,-0.005964,0.027644,-0.001003
402,0.46629,0.171825,-0.867784,-0.00491,0.028355,-0.002287
403,0.4662659999999999,0.171824,-0.867798,-0.006519,0.0291649999999999,-0.000901
404,0.466254,0.1718559999999999,-0.8677969999999999,-0.006736,0.030461,0.00032
405,0.466246,0.171853,-0.8678020000000001,-0.004775,0.028236,0.000188
406,0.466254,0.17182,-0.8678049999999999,-0.004264,0.0275519999999999,-0.002908
407,0.4662489999999999,0.17182,-0.867807,-0.003999,0.0287259999999999,-0.003897
408,0.466255,0.171897,-0.8677889999999999,-0.00283,0.032174,-0.001245
409,0.466306,0.171932,-0.8677549999999999,-0.004636,0.032749,0.001712
410,0.466311,0.171968,-0.8677450000000001,-0.006823,0.028105,0.0031969999999999
411,0.466319,0.171891,-0.867756,-0.004435,0.0288839999999999,0.001255
412,0.466319,0.1719,-0.8677540000000001,-0.005733,0.026037,-0.002562
413,0.466379,0.171986,-0.8677040000000001,-0.001963,0.029994,-0.000582
414,0.466538,0.172077,-0.8676010000000001,-0.004533,0.028897,-0.001021
415,0.466657,0.172179,-0.867517,-0.005368,0.031663,0.000436
416,0.46673,0.172195,-0.867474,-0.0054259999999999,0.03157,0.0018739999999999
417,0.466775,0.1721369999999999,-0.8674620000000001,-0.005548,0.031354,0.000824
418,0.466784,0.172042,-0.867475,-0.005115,0.031831,-0.0002
419,0.466789,0.171945,-0.867492,-0.0029219999999999,0.027426,-0.001603
420,0.466809,0.171846,-0.867501,-0.005429,0.02696,0.002572
421,0.46686,0.171791,-0.8674850000000001,-0.004991,0.027489,-0.000466
422,0.466926,0.171772,-0.867453,-0.005028,0.029629,0.000128
423,0.466923,0.171773,-0.8674540000000001,-0.0032689999999999,0.030238,0.001945
424,0.466885,0.171741,-0.867481,-0.0055509999999999,0.029751,-0.001248
425,0.466839,0.171693,-0.867516,-0.0059159999999999,0.0294329999999999,-0.001839
426,0.466835,0.171647,-0.867526,-0.005852,0.030562,0.00069
427,0.4668489999999999,0.171621,-0.867524,-0.007499,0.027399,-0.000213
428,0.466862,0.1716089999999999,-0.8675200000000001,-0.006779,0.0288,-0.002811
429,0.466883,0.171566,-0.867517,-0.005091,0.028691,0.0008179999999999
430,0.466897,0.171616,-0.867499,-0.005868,0.029144,-0.001016
431,0.466905,0.171631,-0.867492,-0.00586,0.0283199999999999,0.002014
432,0.46691,0.1716329999999999,-0.867489,-0.004965,0.029905,-0.000583
433,0.4669109999999999,0.1716339999999999,-0.8674879999999999,-0.005592,0.0289269999999999,-0.001714
434,0.4669529999999999,0.171613,-0.8674700000000001,-0.0038179999999999,0.029605,0.001213
435,0.466985,0.171588,-0.8674569999999999,-0.0026609999999999,0.029294,0.000376
436,0.466989,0.1716369999999999,-0.867445,-0.004221,0.027154,-0.000505
437,0.467037,0.171628,-0.8674209999999999,-0.004818,0.029192,-0.000132
438,0.4670439999999999,0.171631,-0.867417,-0.002856,0.028366,0.000794
439,0.4670319999999999,0.1716369999999999,-0.8674229999999999,-0.003119,0.0282839999999999,0.000143
440,0.467026,0.171648,-0.8674229999999999,-0.005219,0.0291279999999999,0.000404
441,0.466995,0.171657,-0.8674379999999999,-0.005661,0.029866,-0.000436
442,0.466984,0.171669,-0.867442,-0.004581,0.030983,-0.001348
443,0.466977,0.171673,-0.867445,-0.007077,0.028064,0.000563
444,0.466939,0.1716589999999999,-0.867469,-0.005848,0.028842,-0.000665
445,0.466869,0.1716329999999999,-0.867511,-0.005108,0.029005,-0.000897
446,0.466794,0.1716099999999999,-0.867556,-0.004834,0.02828,-0.0034
447,0.466772,0.1716099999999999,-0.867568,-0.005056,0.0297139999999999,-0.00084
448,0.466793,0.171639,-0.8675510000000001,-0.006039,0.028587,-0.0007509999999999
449,0.466829,0.171667,-0.867526,-0.005693,0.029414,-0.002057
450,0.466865,0.171698,-0.8675,-0.004966,0.0289089999999999,-0.001106
451,0.4668989999999999,0.171698,-0.867482,-0.006206,0.0301,-0.001643
452,0.466871,0.171729,-0.867491,-0.004057,0.028985,-0.000505
453,0.4668529999999999,0.171716,-0.867503,-0.005107,0.028663,0.0008039999999999
454,0.466846,0.171681,-0.8675139999999999,-0.005039,0.028301,-0.0004059999999999
455,0.466856,0.171711,-0.867503,-0.004347,0.027706,0.000712
456,0.466891,0.171699,-0.8674860000000001,-0.005083,0.028466,0.0004669999999999
457,0.466876,0.17176,-0.867482,-0.005939,0.0292899999999999,-0.00172
458,0.466887,0.1718039999999999,-0.867468,-0.0054909999999999,0.028895,-0.000513
459,0.4668739999999999,0.171815,-0.8674719999999999,-0.0038759999999999,0.029845,0.0004219999999999
460,0.466846,0.171881,-0.867474,-0.0054659999999999,0.030573,-0.00098
461,0.466812,0.171897,-0.867489,-0.00647,0.030251,0.001065
462,0.466756,0.171853,-0.8675280000000001,-0.007039,0.029273,0.00028
463,0.4666619999999999,0.1718839999999999,-0.8675729999999999,-0.00603,0.0301269999999999,-0.001171
464,0.466605,0.1718849999999999,-0.867603,-0.002845,0.0278829999999999,-0.000256
465,0.4665729999999999,0.171915,-0.867614,-0.007192,0.028051,0.000198
466,0.466567,0.17198,-0.867605,-0.006117,0.0295269999999999,-0.001642
467,0.466559,0.172039,-0.867597,-0.00614,0.02988,-0.003268
468,0.46653,0.172092,-0.8676020000000001,-0.007958,0.0303009999999999,-0.000684
469,0.4664649999999999,0.17212,-0.867632,-0.0045049999999999,0.02835,-7.5e-05
470,0.466379,0.1721349999999999,-0.867675,-0.005045,0.02861,-0.001298
471,0.466335,0.172206,-0.867685,-0.00552,0.027898,-0.00376
472,0.466335,0.172337,-0.8676590000000001,-0.005672,0.029643,-0.003527
473,0.466314,0.172465,-0.8676440000000001,-0.005896,0.030599,0.003417
474,0.4663239999999999,0.17254,-0.867624,-0.00882,0.027899,0.003168
475,0.466259,0.172584,-0.86765,-0.006176,0.0276259999999999,-0.002604
476,0.4662159999999999,0.172623,-0.8676659999999999,-0.005705,0.0254199999999999,-0.000239
477,0.466215,0.172738,-0.867643,-0.005842,0.02825,-0.001955
478,0.466229,0.172891,-0.867605,-0.006604,0.0304779999999999,6e-06
479,0.4662949999999999,0.172938,-0.867561,-0.007402,0.0297449999999999,-0.000802
480,0.466346,0.173014,-0.867518,-0.0072549999999999,0.028905,0.001704
481,0.466384,0.17301,-0.867498,-0.006912,0.031458,-0.000986
482,0.466421,0.172967,-0.8674870000000001,-0.006232,0.029487,-0.001349
483,0.46647,0.172904,-0.8674729999999999,-0.005898,0.029535,-0.000874
484,0.46657,0.17287,-0.867426,-0.0079519999999999,0.0296139999999999,-0.001379
485,0.4666649999999999,0.172827,-0.867384,-0.006795,0.028238,-0.0016649999999999
486,0.4667,0.172826,-0.8673649999999999,-0.004145,0.029323,-0.002111
487,0.466761,0.172764,-0.867345,-0.008234,0.0299329999999999,0.000981
488,0.466787,0.172677,-0.867348,-0.006186,0.028662,-0.002892
489,0.466826,0.172594,-0.867344,-0.0068189999999999,0.027937,0.000858
490,0.466864,0.172533,-0.8673350000000001,-0.007208,0.02783,-0.000264
491,0.466945,0.172523,-0.867294,-0.005611,0.028298,-0.000993
492,0.4670609999999999,0.172523,-0.867231,-0.006749,0.0287399999999999,0.000547
493,0.467156,0.1725529999999999,-0.867174,-0.0054859999999999,0.029702,-0.003035
494,0.4672689999999999,0.172564,-0.8671110000000001,-0.004943,0.029798,0.000213
495,0.467337,0.172551,-0.8670770000000001,-0.004019,0.030895,0.000499
496,0.467379,0.172521,-0.86706,-0.003557,0.030681,0.000453
497,0.467409,0.172477,-0.8670530000000001,-0.005709,0.029382,-0.001112
498,0.467439,0.172426,-0.8670469999999999,-0.0057079999999999,0.0288839999999999,-0.001957
499,0.467496,0.172391,-0.867023,-0.00755,0.030124,-0.00346
500,0.467543,0.172364,-0.8670030000000001,-0.008756,0.027755,-0.003587
501,0.467575,0.172342,-0.8669899999999999,-0.007553,0.02825,-9.1e-05
502,0.4675939999999999,0.1723309999999999,-0.8669819999999999,-0.006626,0.027346,-0.001655
503,0.4675689999999999,0.172347,-0.866992,-0.0067079999999999,0.026368,-0.000394
504,0.4675479999999999,0.172329,-0.867007,-0.0069459999999999,0.0286899999999999,0.001086
505,0.467568,0.172276,-0.867007,-0.007454,0.027935,-0.000486
506,0.467566,0.172279,-0.867008,-0.005728,0.029046,-0.002469
507,0.467585,0.172274,-0.8669979999999999,-0.008951,0.028135,-0.001379
508,0.467628,0.172273,-0.866975,-0.006324,0.028823,-0.001875
509,0.467658,0.172342,-0.8669450000000001,-0.006324,0.0300649999999999,-0.001967
510,0.4677439999999999,0.172367,-0.866894,-0.006409,0.030041,-0.002018
511,0.4678,0.172458,-0.8668459999999999,-0.007061,0.029706,-3.6e-05
512,0.467856,0.172541,-0.866799,-0.005591,0.02947,-0.000251
513,0.467916,0.1725819999999999,-0.866758,-0.005789,0.029841,0.000532
514,0.467964,0.172585,-0.866732,-0.006706,0.0295329999999999,-0.001432
515,0.46798,0.172667,-0.866707,-0.007088,0.030413,-0.001701
516,0.467997,0.172691,-0.866693,-0.007945,0.030037,0.00126
517,0.468014,0.172679,-0.8666860000000001,-0.00494,0.030126,-0.000562
518,0.468004,0.172749,-0.8666780000000001,-0.0069599999999999,0.0297649999999999,-0.00405
519,0.4680229999999999,0.17275,-0.866667,-0.00617,0.030253,-0.003175
520,0.468035,0.172791,-0.8666520000000001,-0.006076,0.0303029999999999,-0.002031
521,0.468064,0.1728569999999999,-0.866624,-0.0063939999999999,0.028773,-0.0009609999999999
522,0.4681149999999999,0.172903,-0.8665870000000001,-0.005545,0.029199,-0.002371
523,0.468176,0.172942,-0.8665459999999999,-0.008124,0.029236,-0.002549
524,0.4682489999999999,0.173025,-0.86649,-0.004702,0.030054,-0.005305
525,0.4682989999999999,0.173152,-0.8664379999999999,-0.00547,0.0312089999999999,0.000334
526,0.468339,0.173255,-0.866395,-0.011903,0.02578,0.003831
527,0.4683449999999999,0.173251,-0.8663930000000001,-0.006736,0.027616,-0.002274
528,0.468409,0.173224,-0.8663639999999999,-0.005411,0.027399,-0.00621
529,0.46857,0.173397,-0.866242,-0.005558,0.030338,-0.00592
530,0.468836,0.173613,-0.8660549999999999,-0.007792,0.03209,-0.001926
531,0.469189,0.173888,-0.865808,-0.008389,0.029969,0.001505
532,0.469456,0.1741059999999999,-0.8656200000000001,-0.005421,0.0296449999999999,0.00536
533,0.469641,0.174137,-0.8655139999999999,-0.004522,0.0294459999999999,0.004781
534,0.469754,0.174102,-0.865459,-0.004499,0.029405,-0.002293
535,0.469779,0.17411,-0.8654440000000001,-0.009177,0.028817,-0.001133
536,0.4697949999999999,0.174076,-0.865442,-0.011757,0.026699,-0.000174
537,0.469858,0.174112,-0.865401,-0.007684,0.026389,-0.0034799999999999
538,0.469926,0.174151,-0.8653559999999999,-0.006837,0.029264,-0.004777
539,0.469966,0.174213,-0.8653219999999999,-0.004908,0.029766,-0.001118
540,0.469975,0.174272,-0.8653049999999999,-0.006428,0.029112,0.001383
541,0.469979,0.174273,-0.865302,-0.006142,0.030652,0.001029
542,0.4699149999999999,0.174214,-0.8653489999999999,-0.005529,0.028835,-0.003013
543,0.469854,0.174155,-0.865394,-0.00533,0.028237,-0.001396
544,0.4697949999999999,0.174122,-0.865433,-0.008491,0.027767,-0.004013
545,0.469717,0.1741089999999999,-0.8654780000000001,-0.0074519999999999,0.027261,-0.002732
546,0.469651,0.174143,-0.865507,-0.005845,0.028707,-0.002718
547,0.4696149999999999,0.1742,-0.8655149999999999,-0.007243,0.031519,-0.0002379999999999
548,0.4695939999999999,0.174247,-0.865517,-0.0071,0.029794,-0.003609
549,0.469583,0.174256,-0.8655209999999999,-0.007837,0.0287779999999999,-0.00217
550,0.469574,0.1743289999999999,-0.865511,-0.00827,0.028674,-0.002317
551,0.469609,0.174381,-0.865481,-0.008367,0.028027,-0.0018739999999999
552,0.469605,0.174448,-0.8654700000000001,-0.006837,0.0277459999999999,-0.001504
553,0.469552,0.174498,-0.865489,-0.006875,0.0267959999999999,-0.000463
554,0.469514,0.1745529999999999,-0.865499,-0.007294,0.0279,-0.000834
555,0.469449,0.174583,-0.865527,-0.005567,0.0289529999999999,-0.001782
556,0.469377,0.174599,-0.865563,-0.007509,0.029273,-0.001594
557,0.4692979999999999,0.1746869999999999,-0.8655889999999999,-0.008009,0.029064,-0.000714
558,0.469235,0.174707,-0.865619,-0.003888,0.029654,-0.001233
559,0.469183,0.174719,-0.8656450000000001,-0.00498,0.028681,-0.00229
560,0.469106,0.174848,-0.86566,-0.0070849999999999,0.029742,-0.001344
561,0.469053,0.174923,-0.8656739999999999,-0.006254,0.029698,-0.003039
562,0.469013,0.174991,-0.865682,-0.0066409999999999,0.0290649999999999,-0.003016
563,0.468885,0.175141,-0.865721,-0.007398,0.028335,-0.000933
564,0.468765,0.175205,-0.8657729999999999,-0.007278,0.0288819999999999,0.000279
565,0.468663,0.175247,-0.865819,-0.008412,0.028122,0.001073
566,0.468524,0.1753289999999999,-0.865878,-0.008273,0.0288639999999999,-0.002927
567,0.468454,0.17531,-0.86592,-0.00805,0.027708,-0.00435
568,0.468375,0.175397,-0.8659450000000001,-0.005531,0.031237,-0.002204
569,0.4683859999999999,0.175472,-0.865924,-0.008989,0.027058,-0.000256
570,0.468446,0.175525,-0.8658809999999999,-0.009095,0.02728,0.001898
571,0.4685229999999999,0.175637,-0.865816,-0.005144,0.029243,0.000109
572,0.4686399999999999,0.1757109999999999,-0.8657379999999999,-0.003171,0.030237,-0.002747
573,0.46868,0.175725,-0.865713,-0.00492,0.029491,-0.001321
574,0.468643,0.17574,-0.8657309999999999,-0.008178,0.03123,-0.000877
575,0.468587,0.175674,-0.8657739999999999,-0.010152,0.0307779999999999,-0.001505
576,0.468552,0.175591,-0.8658100000000001,-0.009965,0.030556,-0.003789
577,0.4686079999999999,0.175577,-0.8657819999999999,-0.00703,0.0261899999999999,-0.008485
578,0.468735,0.1756589999999999,-0.8656969999999999,-0.006028,0.02713,-0.004054
579,0.46889,0.175771,-0.865591,-0.006396,0.030116,-0.0020239999999999
580,0.469074,0.175897,-0.8654649999999999,-0.010502,0.027014,0.006349
581,0.469196,0.175872,-0.8654040000000001,-0.0063659999999999,0.0294199999999999,-0.004057
582,0.469227,0.175827,-0.865397,-0.007236,0.0283509999999999,-0.002447
583,0.469292,0.175837,-0.865359,-0.007393,0.028341,0.000598
584,0.469425,0.1758569999999999,-0.865283,-0.007679,0.02945,-0.000898
585,0.469593,0.17589,-0.865185,-0.0073129999999999,0.029111,-0.002613
586,0.469753,0.175931,-0.8650899999999999,-0.005214,0.028216,-0.000465
587,0.469896,0.175956,-0.865007,-0.005678,0.0305259999999999,-0.001509
588,0.4700229999999999,0.1759609999999999,-0.8649370000000001,-0.006598,0.031818,-0.000877
589,0.47013,0.175931,-0.864885,-0.00489,0.0283839999999999,-0.000396
590,0.4702189999999999,0.1758849999999999,-0.8648459999999999,-0.007847,0.028201,-0.001594
591,0.470271,0.175821,-0.8648309999999999,-0.0080819999999999,0.0288,-0.002097
592,0.470268,0.175753,-0.8648459999999999,-0.008918,0.0295089999999999,-0.00112
593,0.470265,0.175665,-0.864866,-0.008457,0.028254,-0.003359
594,0.470252,0.175569,-0.864892,-0.008338,0.028395,-0.002677
595,0.470249,0.17554,-0.8649,-0.007908,0.0258,-0.000258
596,0.470261,0.175532,-0.8648950000000001,-0.008836,0.028401,-0.003041
597,0.47031,0.175555,-0.8648629999999999,-0.009312,0.028623,-0.000508
598,0.470337,0.175608,-0.8648379999999999,-0.00586,0.029424,-0.001114
599,0.470333,0.1756329999999999,-0.864835,-0.005383,0.0299949999999999,0.001157
600,0.470292,0.175646,-0.8648549999999999,-0.005113,0.030302,0.001818
601,0.4702729999999999,0.175675,-0.864859,-0.0065739999999999,0.0277399999999999,-0.001459
602,0.470306,0.175713,-0.864833,-0.005447,0.029487,0.001277
603,0.470309,0.175743,-0.864826,-0.008028,0.027336,-0.000851
604,0.470308,0.175771,-0.864821,-0.00754,0.02888,-0.003176
605,0.470343,0.175826,-0.864791,-0.010199,0.027971,-0.003129
606,0.470431,0.175868,-0.864734,-0.008792,0.026372,-0.001797
607,0.4704649999999999,0.175931,-0.8647030000000001,-0.00997,0.027576,-0.0009429999999999
608,0.4704359999999999,0.175964,-0.864712,-0.006798,0.028031,-0.001972
609,0.470447,0.175959,-0.864707,-0.007983,0.027136,0.001197
610,0.47048,0.175997,-0.8646809999999999,-0.007864,0.028822,0.00172
611,0.470438,0.176039,-0.8646959999999999,-0.006342,0.02997,-0.003926
612,0.470389,0.175972,-0.8647360000000001,-0.006537,0.0297769999999999,-0.000636
613,0.470311,0.175913,-0.86479,-0.003987,0.031469,-0.00435
614,0.470243,0.175968,-0.864816,-0.008131,0.029416,-0.001044
615,0.4702699999999999,0.176026,-0.8647889999999999,-0.010676,0.027847,-0.002886
616,0.470355,0.176043,-0.86474,-0.0103629999999999,0.026762,-0.00286
617,0.47029,0.176119,-0.8647600000000001,-0.006408,0.0327589999999999,-0.0049
618,0.470132,0.176128,-0.8648440000000001,-0.005532,0.03368,-0.005731
619,0.4700189999999999,0.176202,-0.8648899999999999,-0.005664,0.028907,-0.004846
620,0.4701359999999999,0.176429,-0.8647799999999999,-0.004285,0.024071,0.006092
621,0.470402,0.176644,-0.864592,-0.0073739999999999,0.024879,0.003309
622,0.470757,0.1768829999999999,-0.8643489999999999,-0.00779,0.026074,0.001328
623,0.471087,0.1771839999999999,-0.864108,-0.008517,0.030442,-0.000684
624,0.4712949999999999,0.177369,-0.863957,-0.006802,0.0307,-0.003918
625,0.471279,0.177485,-0.863941,-0.005718,0.034551,-0.004116
626,0.471246,0.17749,-0.863959,-0.004311,0.033096,-0.0009699999999999
627,0.471249,0.177447,-0.863966,-0.007336,0.032438,0.001432
628,0.4712369999999999,0.177399,-0.8639819999999999,-0.008544,0.024521,0.002471
629,0.471218,0.177261,-0.8640209999999999,-0.006817,0.023209,-0.000374
630,0.47118,0.177171,-0.86406,-0.0080299999999999,0.022887,-0.003066
631,0.471151,0.1772369999999999,-0.8640620000000001,-0.004202,0.027093,-0.00456
632,0.471204,0.177323,-0.864016,-0.006055,0.0291279999999999,-0.001707
633,0.471293,0.177448,-0.863941,-0.005794,0.0316269999999999,-0.001766
634,0.471367,0.177525,-0.863885,-0.007088,0.031963,0.001215
635,0.471404,0.177535,-0.8638629999999999,-0.009566,0.029374,0.000963
636,0.4713479999999999,0.177471,-0.863907,-0.0079379999999999,0.0285829999999999,-0.000595
637,0.471311,0.177366,-0.863949,-0.008253,0.026782,-0.001377
638,0.471326,0.17732,-0.86395,-0.008985,0.026247,-0.001773
639,0.471379,0.177321,-0.8639209999999999,-0.008855,0.0259259999999999,-0.002519
640,0.471434,0.17735,-0.863885,-0.006392,0.030017,-0.002326
641,0.4714319999999999,0.177377,-0.86388,-0.006878,0.031348,-0.002346
642,0.471381,0.177337,-0.863916,-0.005927,0.0296939999999999,0.0011539999999999
643,0.471288,0.177271,-0.863981,-0.005697,0.028326,-0.00043
644,0.471239,0.177238,-0.864014,-0.008486,0.026635,-0.002304
645,0.471276,0.177242,-0.863993,-0.006768,0.028248,-0.001562
646,0.471362,0.177308,-0.8639319999999999,-0.007633,0.027816,4.1e-05
647,0.471438,0.177367,-0.8638790000000001,-0.0049,0.030473,-0.001431
648,0.471477,0.1773819999999999,-0.8638549999999999,-0.006573,0.028734,-0.002341
649,0.471456,0.17739,-0.863864,-0.006887,0.032723,-0.000668
650,0.471409,0.177305,-0.863908,-0.006901,0.0294819999999999,-0.002029
651,0.471351,0.1772119999999999,-0.863958,-0.008201,0.0274389999999999,-0.000742
652,0.4713029999999999,0.1771309999999999,-0.864001,-0.005101,0.026604,-0.002744
653,0.471341,0.177102,-0.863986,-0.007428,0.025306,-0.002774
654,0.471417,0.177092,-0.8639469999999999,-0.008939,0.026872,-0.000265
655,0.471458,0.177141,-0.863914,-0.007393,0.027007,-0.0001909999999999
656,0.471455,0.177127,-0.8639190000000001,-0.00626,0.028638,-0.00043
657,0.471423,0.17706,-0.86395,-0.005877,0.029666,-0.001849
658,0.471387,0.177007,-0.863981,-0.006268,0.0284529999999999,0.000288
659,0.4713569999999999,0.17698,-0.8640030000000001,-0.005857,0.028419,-0.00143
660,0.471371,0.176918,-0.864008,-0.0042229999999999,0.02932,-0.001684
661,0.471376,0.176871,-0.864015,-0.003694,0.0298709999999999,-0.002822
662,0.471388,0.1768829999999999,-0.8640059999999999,-0.0078409999999999,0.027738,-0.000496
663,0.471394,0.176824,-0.864014,-0.006642,0.027873,-0.002654
664,0.4713729999999999,0.176742,-0.864043,-0.008467,0.0258189999999999,-0.0002
665,0.471314,0.176759,-0.8640709999999999,-0.008164,0.027618,-0.0020629999999999
666,0.471301,0.176757,-0.864079,-0.006961,0.028702,-0.0002549999999999
667,0.47125,0.17678,-0.864102,-0.007383,0.029198,-0.002002
668,0.471189,0.176839,-0.864123,-0.003324,0.0311839999999999,-0.000348
669,0.4711689999999999,0.176818,-0.864139,-0.005852,0.031419,0.000491
670,0.471109,0.176773,-0.86418,-0.004862,0.0302279999999999,0.0004559999999999
671,0.470983,0.176672,-0.8642690000000001,-0.007467,0.026117,-0.000248
672,0.47083,0.1765779999999999,-0.8643719999999999,-0.009755,0.024899,-0.002525
673,0.470761,0.17653,-0.8644200000000001,-0.01318,0.0239699999999999,-0.00498
674,0.4706939999999999,0.176554,-0.864451,-0.004095,0.026586,-0.002629
675,0.470595,0.176567,-0.864503,-0.005308,0.029748,0.002183
676,0.470505,0.176522,-0.864561,-0.008805,0.031395,-0.000262
677,0.4702979999999999,0.176391,-0.8647,-0.0068579999999999,0.0298009999999999,-0.0047
678,0.470075,0.176281,-0.864843,-0.0073069999999999,0.026676,-0.002039
679,0.469922,0.176342,-0.864914,-0.007123,0.026905,-0.000732
680,0.469844,0.176475,-0.86493,-0.006404,0.027795,0.000855
681,0.4697979999999999,0.1766589999999999,-0.864917,-0.003413,0.027488,-0.0009429999999999
682,0.469804,0.176792,-0.8648870000000001,-0.0063939999999999,0.032284,-0.0020109999999999
683,0.469765,0.176901,-0.864885,-0.0068439999999999,0.0350899999999999,-0.006346
684,0.469693,0.176972,-0.8649100000000001,-0.006192,0.031356,-0.007176
685,0.469567,0.177039,-0.864965,-0.008202,0.0263,-0.0019329999999999
686,0.4694109999999999,0.177149,-0.865027,-0.008138,0.027349,-0.0012
687,0.469237,0.177278,-0.8650950000000001,-0.012023,0.026823,-0.00519
688,0.469179,0.1774099999999999,-0.865099,-0.010057,0.024037,-0.001112
689,0.469235,0.1776049999999999,-0.865029,-0.0061909999999999,0.023734,0.003914
690,0.46941,0.177858,-0.8648819999999999,-0.00954,0.0254199999999999,0.008116
691,0.469739,0.17811,-0.8646520000000001,-0.0087549999999999,0.02593,0.00134
692,0.470067,0.178386,-0.864416,-0.008824,0.034901,-0.003199
693,0.470371,0.178404,-0.864247,-0.010776,0.036607,-0.005183
694,0.470545,0.178238,-0.864187,-0.009043,0.0354149999999999,-0.00709
695,0.470646,0.178014,-0.8641780000000001,-0.00655,0.029918,-0.006245
696,0.470764,0.177805,-0.864157,-0.007064,0.0279139999999999,-0.005045
697,0.470891,0.177741,-0.8641,-0.004629,0.023721,0.001643
698,0.471076,0.177693,-0.8640100000000001,-0.0004639999999999,0.024608,0.001064
699,0.471205,0.17764,-0.86395,0.002154,0.026599,0.001264
700,0.471211,0.177588,-0.863958,-0.0015609999999999,0.0289399999999999,0.003438
701,0.4711939999999999,0.177575,-0.8639700000000001,-0.002459,0.028923,0.000734
702,0.4711979999999999,0.177572,-0.8639680000000001,-0.005821,0.029688,-0.001373
703,0.471202,0.177619,-0.863956,-0.0106,0.0260399999999999,-0.001049
704,0.471227,0.177655,-0.863935,-0.009068,0.026492,-0.002993
705,0.4712739999999999,0.177749,-0.8638899999999999,-0.008078,0.026215,-0.005403
706,0.471365,0.177875,-0.863814,-0.007147,0.028149,-0.001588
707,0.471496,0.178036,-0.8637100000000001,-0.006179,0.028492,0.003587
708,0.471556,0.178107,-0.863662,-0.008681,0.0274899999999999,0.004562
709,0.471462,0.178101,-0.863715,-0.008907,0.029968,0.001166
710,0.471358,0.177999,-0.863793,-0.011946,0.027217,-0.006614
711,0.471251,0.177852,-0.8638809999999999,-0.00862,0.025059,-0.006633
712,0.47118,0.1778819999999999,-0.863914,-0.008976,0.024633,0.000343
713,0.47123,0.178005,-0.8638610000000001,-0.008797,0.025822,0.000733
714,0.471404,0.178118,-0.863743,-0.008956,0.02635,-0.000545
715,0.47155,0.1781859999999999,-0.863649,-0.007882,0.027105,-0.001265
716,0.47166,0.178193,-0.8635879999999999,-0.0071819999999999,0.027617,-0.001784
717,0.471751,0.17817,-0.8635430000000001,-0.0044659999999999,0.02816,-0.003995
718,0.471788,0.178217,-0.863513,-0.00232,0.03153,0.001483
719,0.471885,0.178282,-0.863447,-0.00582,0.0271019999999999,0.003446
720,0.471939,0.178324,-0.863408,-0.003982,0.0300339999999999,0.002508
721,0.4719649999999999,0.178284,-0.863403,-0.003215,0.029327,-0.002076
722,0.471937,0.1782099999999999,-0.863433,-0.00456,0.030011,-0.001023
723,0.471843,0.178108,-0.863505,-0.004436,0.031274,0.000133
724,0.47178,0.177964,-0.8635700000000001,-0.004037,0.030548,-0.0071579999999999
725,0.4717189999999999,0.177886,-0.863619,-0.004282,0.031312,-0.003843
726,0.4717439999999999,0.177865,-0.863609,-0.010975,0.028388,0.003624
727,0.471801,0.177748,-0.8636030000000001,-0.009109,0.025515,0.000962
728,0.471675,0.177516,-0.863719,-0.007854,0.024968,-0.00211
729,0.471547,0.177257,-0.863842,-0.002294,0.025669,-0.000324
730,0.4714239999999999,0.177038,-0.8639540000000001,-0.004307,0.025141,0.00078
731,0.471284,0.176913,-0.8640559999999999,-0.005097,0.0269899999999999,0.0005769999999999
732,0.4711729999999999,0.17683,-0.8641340000000001,-0.008633,0.026661,9e-05
733,0.4710789999999999,0.176753,-0.864201,-0.006006,0.0286,-0.00201
734,0.471035,0.176723,-0.864231,-0.006954,0.030338,-0.005093
735,0.471104,0.176714,-0.864195,-0.008763,0.029066,-0.00432
736,0.471186,0.176777,-0.864138,-0.005732,0.029064,-0.003065
737,0.471235,0.176896,-0.864087,-0.005613,0.028045,0.000332
738,0.471375,0.176992,-0.8639899999999999,-0.006058,0.026789,0.002433
739,0.471485,0.17705,-0.8639180000000001,-0.007252,0.028287,0.003994
740,0.471501,0.177053,-0.863909,-0.005177,0.027247,0.001299
741,0.471574,0.177009,-0.863878,-0.004915,0.026955,-0.002653
742,0.47162,0.177029,-0.863849,-0.007173,0.0300329999999999,-0.001797
743,0.471607,0.177015,-0.863859,-0.006504,0.0286589999999999,-0.0013599999999999
744,0.471603,0.176946,-0.863875,-0.007492,0.0301,-0.003206
745,0.471578,0.176879,-0.8639020000000001,-0.008993,0.0258339999999999,-0.001271
746,0.471518,0.176782,-0.8639549999999999,-0.008322,0.026099,-0.0001189999999999
747,0.471435,0.176671,-0.864023,-0.009506,0.025706,-0.0006309999999999
748,0.4713489999999999,0.176577,-0.864089,-0.005575,0.024381,-0.000611
749,0.471228,0.176519,-0.864168,-0.003942,0.030574,-0.003203
750,0.471177,0.176516,-0.864196,-0.005417,0.030455,-0.0010539999999999
751,0.4712449999999999,0.176516,-0.864159,-0.003593,0.0304079999999999,-0.000999
752,0.471325,0.176549,-0.864108,-0.006572,0.029093,-0.00105
753,0.471402,0.176537,-0.8640690000000001,-0.0044979999999999,0.027137,-0.000769
754,0.471518,0.176502,-0.8640129999999999,-0.006964,0.025967,-0.00055
755,0.471583,0.176532,-0.8639709999999999,-0.005594,0.0256779999999999,0.0008269999999999
756,0.471685,0.17648,-0.863926,-0.007223,0.024402,-0.001583
757,0.471734,0.176468,-0.8639020000000001,-0.005212,0.024017,-0.001867
758,0.471713,0.176524,-0.863901,-0.005954,0.027135,0.000742
759,0.471711,0.176639,-0.8638790000000001,-0.0064849999999999,0.0283779999999999,0.001742
760,0.471727,0.176746,-0.863849,-0.004228,0.029431,-0.0027129999999999
761,0.471751,0.17685,-0.863814,0.000509,0.030273,-0.001695
762,0.471793,0.176991,-0.863763,0.0021449999999999,0.031734,-0.00109
763,0.471946,0.177181,-0.86364,0.003365,0.033893,-0.0043869999999999
764,0.472172,0.177521,-0.863447,0.001812,0.0332029999999999,-0.006091
765,0.472336,0.177928,-0.863273,-0.00853,0.028172,0.005744
766,0.472287,0.17807,-0.8632709999999999,-0.014325,0.02507,0.007863
767,0.472139,0.177972,-0.8633719999999999,-0.013643,0.025412,-0.000962
768,0.4719609999999999,0.177794,-0.863506,-0.0109319999999999,0.027819,-0.006489
769,0.471672,0.1776059999999999,-0.8637020000000001,-0.011452,0.0280519999999999,-0.004004
770,0.471423,0.1774109999999999,-0.863878,-0.011828,0.027224,-0.0016309999999999
771,0.471279,0.177219,-0.8639969999999999,-0.013362,0.025387,-0.00226
772,0.471142,0.176992,-0.864117,-0.008023,0.025141,-0.005435
773,0.470952,0.176749,-0.8642709999999999,-0.007115,0.027368,-0.003039
774,0.470726,0.17651,-0.8644430000000001,-0.00579,0.0264779999999999,-0.0019199999999999
775,0.470509,0.176314,-0.8646010000000001,-0.0025989999999999,0.025865,-0.000634
776,0.47038,0.17619,-0.8646969999999999,-0.0038729999999999,0.026722,-0.000645
777,0.470301,0.176145,-0.864749,-0.003077,0.0277129999999999,-0.001355
778,0.470236,0.176144,-0.864784,-0.001029,0.028385,0.001976
779,0.470167,0.176202,-0.864809,-0.000807,0.031303,-0.000135
780,0.470101,0.176293,-0.864827,-0.001336,0.031624,-0.001155
781,0.4700899999999999,0.1764619999999999,-0.864799,0.001575,0.031347,-0.003091
782,0.470185,0.176751,-0.8646879999999999,-0.0035399999999999,0.026938,0.002521
783,0.470218,0.176913,-0.8646370000000001,-0.003574,0.026777,0.002469
784,0.470227,0.177085,-0.864597,-0.007062,0.027505,0.000171
785,0.4702189999999999,0.1771849999999999,-0.8645809999999999,-0.005848,0.028962,0.000704
786,0.470114,0.1772369999999999,-0.864627,-0.005484,0.029245,-0.0005009999999999
787,0.469973,0.177257,-0.8647,-0.004671,0.029286,-0.0016179999999999
788,0.469777,0.177261,-0.8648049999999999,-0.005727,0.027939,0.001997
789,0.469512,0.1772099999999999,-0.8649600000000001,-0.009109,0.026312,6.1e-05
790,0.46921,0.1771579999999999,-0.8651340000000001,-0.008502,0.026944,-0.00364
791,0.468919,0.177107,-0.865302,-0.00583,0.027987,-0.003503
792,0.468609,0.177098,-0.8654719999999999,-0.006176,0.026317,-0.001151
793,0.468352,0.177117,-0.865607,-0.007826,0.028007,-0.001611
794,0.468189,0.177138,-0.865691,-0.008655,0.0280319999999999,-0.002793
795,0.468072,0.177177,-0.8657469999999999,-0.00599,0.027749,-0.004248
796,0.468016,0.177274,-0.865757,-0.008528,0.0295889999999999,-0.001736
797,0.468014,0.177365,-0.8657389999999999,-0.0055969999999999,0.029575,-0.000136
798,0.467984,0.177405,-0.8657469999999999,-0.008709,0.028588,-0.001913
799,0.467902,0.177439,-0.865785,-0.005408,0.025351,0.003144
800,0.467796,0.17742,-0.8658459999999999,-0.003944,0.025705,0.002336
801,0.467678,0.1774609999999999,-0.865901,-0.004695,0.027175,-0.003102
802,0.467603,0.177502,-0.865933,-0.002271,0.030048,-0.004932
803,0.467485,0.177584,-0.86598,-0.002855,0.031019,0.001616
804,0.467401,0.177641,-0.866014,-0.004572,0.025805,0.004945
805,0.467329,0.177648,-0.866051,-0.003584,0.027247,-0.000953
806,0.4671729999999999,0.177653,-0.866135,-0.004435,0.027929,-0.001831
807,0.467022,0.17768,-0.86621,-0.002575,0.0277329999999999,0.000289
808,0.46693,0.177759,-0.866244,-0.004939,0.0280519999999999,-0.0009279999999999
809,0.466873,0.177785,-0.8662690000000001,-0.007462,0.030848,-0.000263
810,0.466801,0.177794,-0.8663059999999999,-0.006062,0.026277,-0.000897
811,0.466737,0.177829,-0.866333,-0.007035,0.026059,0.001664
812,0.466715,0.177831,-0.866345,-0.007914,0.0275519999999999,-0.0008269999999999
813,0.466753,0.177806,-0.8663299999999999,-0.00757,0.02808,-0.001377
814,0.466815,0.177825,-0.8662920000000001,-0.005984,0.0272829999999999,-0.00207
815,0.4669399999999999,0.177859,-0.866218,-0.0068569999999999,0.029081,-0.001901
816,0.467026,0.1778829999999999,-0.866166,-0.006012,0.028232,0.000444
817,0.46708,0.177863,-0.8661409999999999,-0.008187,0.027474,0.001365
818,0.467114,0.177763,-0.866144,-0.006741,0.027986,-0.002478
819,0.467116,0.177667,-0.8661620000000001,-0.005431,0.025885,0.0002109999999999
820,0.467156,0.177618,-0.866151,-0.005089,0.025965,1.6e-05
821,0.467287,0.1776309999999999,-0.8660770000000001,-0.004839,0.0266839999999999,-0.001354
822,0.46748,0.177674,-0.865965,-0.004162,0.027572,-0.001024
823,0.467606,0.177763,-0.865878,-0.00145,0.0287949999999999,0.000521
824,0.467699,0.177831,-0.865814,-0.002702,0.027201,0.002029
825,0.46773,0.177829,-0.865798,-0.00313,0.027738,0.001982
826,0.467675,0.177809,-0.8658319999999999,-0.000664,0.0269029999999999,-0.000776
827,0.467635,0.177775,-0.8658600000000001,-0.003677,0.028127,0.0005639999999999
828,0.467628,0.17775,-0.865869,-0.0051649999999999,0.026199,-0.0008
829,0.467683,0.177743,-0.865841,-0.009858,0.024131,-0.001225
830,0.4677,0.17774,-0.8658319999999999,-0.009006,0.024637,0.000735
831,0.4676869999999999,0.177747,-0.8658379999999999,-0.008993,0.02463,0.000741
832,0.4677,0.177824,-0.865815,-0.00806,0.026216,-0.002304
833,0.467739,0.177866,-0.865785,-0.008175,0.027869,-0.0036149999999999
834,0.467806,0.1779059999999999,-0.865741,-0.008837,0.02705,-0.000714
835,0.467872,0.177966,-0.865693,-0.006492,0.028211,-0.001296
836,0.467904,0.178018,-0.865665,-0.007089,0.027731,-8.9e-05
837,0.467942,0.177983,-0.8656510000000001,-0.006684,0.026881,0.002065
838,0.467979,0.177865,-0.865656,-0.004035,0.030692,-0.001379
839,0.467984,0.177776,-0.8656709999999999,-0.001599,0.0291629999999999,-0.001364
840,0.468063,0.1777089999999999,-0.865643,-0.003051,0.0261029999999999,0.000561
841,0.468145,0.1776829999999999,-0.865603,-0.00379,0.026998,0.001422
842,0.4681619999999999,0.177751,-0.8655799999999999,-0.006217,0.026687,0.000682
843,0.468261,0.177754,-0.865526,-0.006317,0.025981,-0.000441
844,0.468331,0.177808,-0.865477,-0.006875,0.028704,-0.000551
845,0.468383,0.17786,-0.8654379999999999,-0.00589,0.026547,-0.002177
846,0.468422,0.177902,-0.865408,-0.008004,0.026718,0.000906
847,0.468368,0.1779339999999999,-0.865431,-0.006302,0.025923,-0.00078
848,0.4683199999999999,0.1779359999999999,-0.8654569999999999,-0.006467,0.026898,-0.000907
849,0.468276,0.177924,-0.865483,-0.007323,0.027444,-0.0033829999999999
850,0.4682119999999999,0.1779329999999999,-0.865516,-0.005123,0.0264279999999999,-0.0017629999999999
851,0.468203,0.177997,-0.8655079999999999,-0.006487,0.026181,-0.000703
852,0.468242,0.178056,-0.865474,-0.006023,0.025557,-9.6e-05
853,0.468252,0.178148,-0.86545,-0.005346,0.027616,-0.0016309999999999
854,0.468247,0.17823,-0.8654360000000001,-0.004761,0.030541,-0.002728
855,0.468238,0.1782619999999999,-0.865434,-0.0064459999999999,0.024879,0.001726
856,0.468297,0.178255,-0.865403,-0.008291,0.026151,0.001481
857,0.468405,0.178263,-0.865344,-0.006704,0.0262959999999999,-0.0062689999999999
858,0.468541,0.178345,-0.865253,-0.008229,0.023193,-0.0036899999999999
859,0.468707,0.178483,-0.865135,-0.006701,0.0278,0.001334
860,0.468884,0.1786049999999999,-0.8650129999999999,-0.005261,0.028288,-0.000328
861,0.469025,0.17867,-0.864923,-0.005097,0.026606,-0.0008609999999999
862,0.469124,0.178704,-0.8648629999999999,-0.003624,0.026436,0.0010019999999999
863,0.469192,0.178689,-0.8648290000000001,-0.004546,0.027183,-0.000909
864,0.469221,0.1786589999999999,-0.864819,-0.005735,0.027304,0.000317
865,0.469233,0.178626,-0.86482,-0.005945,0.024408,4.3e-05
866,0.469263,0.178584,-0.864812,-0.002893,0.026968,-0.001048
867,0.4692909999999999,0.178544,-0.8648049999999999,-0.003334,0.026229,-0.001513
868,0.469322,0.178558,-0.864786,-0.002632,0.029297,-0.001227
869,0.46937,0.178639,-0.864743,-0.0035189999999999,0.02615,0.00137
870,0.46941,0.178664,-0.864716,-0.003559,0.026124,0.001343
871,0.469438,0.1786849999999999,-0.8646959999999999,-0.004548,0.027294,0.000164
872,0.46942,0.178689,-0.864705,-0.006865,0.026389,-0.001887
873,0.469387,0.178671,-0.864727,-0.0052299999999999,0.026133,-0.0001419999999999
874,0.469381,0.1786869999999999,-0.864727,-0.006231,0.024133,0.000377
875,0.469354,0.17872,-0.864735,-0.005822,0.0266019999999999,4e-06
876,0.469315,0.17876,-0.864748,-0.006943,0.026532,0.000673
877,0.4692699999999999,0.178777,-0.864768,-0.006334,0.026622,-0.004403
878,0.469258,0.178809,-0.864768,-0.0064129999999999,0.026681,-0.002633
879,0.46923,0.1788529999999999,-0.8647739999999999,-0.007453,0.028132,-0.001787
880,0.4692449999999999,0.178901,-0.864756,-0.007347,0.027337,0.000391
881,0.469302,0.1789339999999999,-0.864719,-0.006289,0.026113,-0.0033229999999999
882,0.469329,0.1789349999999999,-0.8647040000000001,-0.008086,0.024602,-0.000759
883,0.469304,0.178926,-0.864719,-0.004307,0.0268839999999999,0.002231
884,0.469234,0.178918,-0.864759,-0.004101,0.024741,-0.001529
885,0.469172,0.1789349999999999,-0.8647879999999999,-0.00471,0.0255169999999999,-0.005054
886,0.469177,0.179007,-0.864771,-0.006576,0.0264529999999999,0.000849
887,0.469209,0.179043,-0.8647459999999999,-0.006136,0.027134,0.00116
888,0.4692489999999999,0.179095,-0.864714,-0.004802,0.026868,-0.000124
889,0.469225,0.179136,-0.864718,-0.002657,0.027636,0.002154
890,0.4691189999999999,0.179148,-0.8647729999999999,-0.0020629999999999,0.027532,0.0023309999999999
891,0.469046,0.179145,-0.864814,-0.004431,0.02659,-0.000985
892,0.468947,0.179135,-0.864869,-0.004668,0.028201,-0.001082
893,0.468854,0.1791319999999999,-0.86492,-0.005628,0.0284029999999999,-0.002725
894,0.468776,0.179096,-0.8649700000000001,-0.001964,0.0264709999999999,-0.0015609999999999
895,0.4686439999999999,0.179152,-0.86503,-0.001466,0.029238,-0.002173
896,0.468639,0.1792119999999999,-0.8650200000000001,-0.008648,0.023364,-0.001007
897,0.468872,0.179317,-0.864872,-0.017212,0.023259,0.001652
898,0.468963,0.179342,-0.864818,-0.011062,0.0261779999999999,-0.008168
899,0.468862,0.179241,-0.864894,-0.005513,0.029041,-0.008397
900,0.468678,0.179196,-0.865002,-0.005147,0.025363,0.000592
901,0.4685979999999999,0.179297,-0.865025,-0.005494,0.025369,0.004627
902,0.4685689999999999,0.179324,-0.865035,-0.0027329999999999,0.0263029999999999,0.000976
903,0.468485,0.179284,-0.865089,-0.002298,0.0262519999999999,0.000175
904,0.468331,0.179255,-0.8651780000000001,-0.003411,0.027211,0.000692
905,0.4682149999999999,0.179285,-0.8652350000000001,-0.003203,0.027243,-0.003387
906,0.4681689999999999,0.179402,-0.865236,-0.005797,0.029537,-0.004744
907,0.4681149999999999,0.179499,-0.865245,-0.008184,0.029119,0.001887
908,0.468039,0.179542,-0.8652770000000001,-0.009772,0.023492,0.000271
909,0.467954,0.179517,-0.8653280000000001,-0.008176,0.02431,-0.001432
910,0.467872,0.179521,-0.8653709999999999,-0.00785,0.024199,-0.003922
911,0.467809,0.179591,-0.865391,-0.005315,0.027822,0.000187
912,0.467806,0.179662,-0.8653780000000001,-0.006396,0.0285589999999999,-0.000345
913,0.467826,0.179718,-0.8653549999999999,-0.005957,0.02684,0.000472
914,0.467775,0.179797,-0.865367,-0.003907,0.02792,0.003596
915,0.467733,0.179782,-0.865392,-0.0038659999999999,0.027936,0.003622
916,0.467757,0.179767,-0.865382,-0.005233,0.0258149999999999,-0.00121
917,0.46781,0.179765,-0.8653540000000001,-0.005118,0.028731,-0.002443
918,0.467906,0.17977,-0.865301,-0.005718,0.025903,-0.001581
919,0.468022,0.17985,-0.8652219999999999,-0.004521,0.0257009999999999,0.000125
920,0.468122,0.179954,-0.8651459999999999,-0.005934,0.023995,0.000781
921,0.468145,0.179983,-0.8651280000000001,-0.003881,0.024332,0.000825
922,0.4680399999999999,0.179981,-0.865185,-0.002784,0.025174,-0.000598
923,0.467891,0.180058,-0.86525,-0.004359,0.026363,-0.003418
924,0.467785,0.180117,-0.865295,-0.004574,0.027388,-0.001481
925,0.46768,0.180218,-0.865331,-0.00424,0.027241,0.0018969999999999
926,0.46747,0.180319,-0.8654229999999999,-0.001375,0.02302,0.003393
927,0.467258,0.180474,-0.865505,-0.001377,0.020377,0.003109
928,0.4672229999999999,0.18066,-0.8654850000000001,-0.008147,0.02187,0.004829
929,0.467334,0.180824,-0.865391,-0.010868,0.027748,-0.0012779999999999
930,0.4675439999999999,0.180892,-0.8652629999999999,-0.010818,0.033845,-0.005724
931,0.46773,0.180916,-0.865158,-0.011278,0.031258,-0.0069879999999999
932,0.467831,0.180859,-0.865115,-0.010815,0.027134,-0.00166
933,0.467898,0.180692,-0.8651139999999999,-0.009829,0.024615,0.003724
934,0.467985,0.1805,-0.865107,-0.005643,0.019665,0.001963
935,0.46803,0.180285,-0.8651270000000001,-0.000775,0.0180789999999999,-0.0008849999999999
936,0.468016,0.180108,-0.8651719999999999,-0.000776,0.021231,-6.2e-05
937,0.4679569999999999,0.180022,-0.8652209999999999,0.001418,0.025758,0.00162
938,0.467941,0.179941,-0.865247,0.0008699999999999,0.029975,-2e-06
939,0.467923,0.179858,-0.865274,0.001468,0.029263,-0.001852
940,0.467976,0.179832,-0.865251,-0.001514,0.023979,-0.001387
941,0.468099,0.179838,-0.865183,-0.003209,0.021059,-0.0018059999999999
942,0.468264,0.1799859999999999,-0.8650629999999999,-0.0031,0.020972,0.000164
943,0.468458,0.180227,-0.864908,-0.004453,0.019708,0.001306
944,0.4686329999999999,0.180476,-0.8647610000000001,-0.004949,0.023824,0.0008849999999999
945,0.468668,0.180633,-0.8647090000000001,-0.00561,0.028291,-0.003745
946,0.46861,0.180694,-0.864728,-0.008893,0.033616,-0.005526
947,0.468501,0.180667,-0.864792,-0.0073349999999999,0.032529,-0.0036
948,0.468337,0.180572,-0.864901,-0.006911,0.029236,0.001574
949,0.468181,0.1804359999999999,-0.865014,-0.005993,0.0254199999999999,-0.000999
950,0.468022,0.180278,-0.865133,-0.003209,0.025106,-0.001459
951,0.4678859999999999,0.1801559999999999,-0.865232,-0.002798,0.021703,-0.00072
952,0.467764,0.180128,-0.8653040000000001,-0.003057,0.0228139999999999,0.002633
953,0.467692,0.180125,-0.8653430000000001,-0.005091,0.021687,-0.000379
954,0.467724,0.1801579999999999,-0.8653190000000001,-0.004467,0.022478,-0.0025399999999999
955,0.4677659999999999,0.18029,-0.8652690000000001,-0.003899,0.025124,-0.003109
956,0.467836,0.180429,-0.865202,-0.0070659999999999,0.024665,-0.002153
957,0.467881,0.180535,-0.8651559999999999,-0.007111,0.024559,-0.002199
958,0.467894,0.180699,-0.8651139999999999,-0.005568,0.027294,-0.000822
959,0.467937,0.180836,-0.8650629999999999,-0.008388,0.023982,0.0005
960,0.468026,0.1808799999999999,-0.8650049999999999,-0.010324,0.021756,-0.0019079999999999
961,0.468081,0.180973,-0.864956,-0.006487,0.021832,-0.005146
962,0.468176,0.181168,-0.864864,-0.0058189999999999,0.022262,-0.000523
963,0.4683529999999999,0.181411,-0.864717,-0.005249,0.018082,-0.003996
964,0.468425,0.181764,-0.864604,0.004628,0.017317,-0.0123489999999999
965,0.4685939999999999,0.1824339999999999,-0.8643709999999999,0.009448,0.0224,-0.008661
966,0.469142,0.183364,-0.863877,0.000874,0.026994,0.008378
967,0.469896,0.18438,-0.863251,-0.0035259999999999,0.0297769999999999,0.017105
968,0.470542,0.185224,-0.862718,-0.00286,0.032625,0.011476
969,0.470959,0.185816,-0.8623629999999999,-0.004636,0.032979,-0.000537
970,0.471365,0.186226,-0.8620530000000001,-0.011556,0.0306779999999999,-0.005852
971,0.471758,0.186592,-0.861758,-0.021181,0.033241,-0.008939
972,0.472179,0.186926,-0.861455,-0.017543,0.028513,-0.009898
973,0.472663,0.187215,-0.8611270000000001,-0.020758,0.026362,-0.004809
974,0.473142,0.187423,-0.860819,-0.0147229999999999,0.025376,0.003229
975,0.473685,0.187614,-0.8604790000000001,-0.00202,0.025369,-0.000697
976,0.474384,0.187881,-0.860035,0.002133,0.032898,-0.0008349999999999
977,0.475052,0.188175,-0.8596020000000001,0.0035399999999999,0.03648,0.007139
978,0.475707,0.18837,-0.859197,0.006639,0.032638,0.010046
979,0.476359,0.188414,-0.858826,0.008886,0.029375,0.007905
980,0.476998,0.188496,-0.858454,0.00933,0.023586,0.006845
981,0.477726,0.1887579999999999,-0.857991,0.010173,0.021371,0.0062299999999999
982,0.4785569999999999,0.189132,-0.8574450000000001,0.009495,0.019959,0.011315
983,0.479312,0.189594,-0.8569209999999999,-0.008228,0.012981,0.012622
984,0.47995,0.190154,-0.85644,-0.017624,0.00995,0.005122
985,0.480767,0.1907869999999999,-0.855841,-0.017526,0.0133759999999999,-0.009058
986,0.4817439999999999,0.191491,-0.8551340000000001,-0.0145659999999999,0.0199039999999999,-0.012206
987,0.4825109999999999,0.19216,-0.8545510000000001,-0.012754,0.0308769999999999,-0.0132319999999999
988,0.4829529999999999,0.19263,-0.854196,-0.014615,0.030545,-0.0109319999999999
989,0.48316,0.192867,-0.854025,-0.016592,0.030125,-0.011332
990,0.483259,0.192882,-0.853966,-0.013105,0.025273,-0.0102
991,0.483221,0.192695,-0.854029,-0.013815,0.0237509999999999,-0.001821
992,0.482977,0.192265,-0.8542639999999999,-0.013128,0.019908,0.002183
993,0.482606,0.191788,-0.8545809999999999,-0.007203,0.01445,0.002439
994,0.482245,0.191392,-0.854873,-0.005637,0.013381,0.005279
995,0.481996,0.191206,-0.8550559999999999,0.002639,0.014147,0.004561
996,0.481952,0.191211,-0.855079,0.0033229999999999,0.019177,0.00486
997,0.482041,0.191418,-0.8549829999999999,0.001296,0.017078,0.005724
998,0.482199,0.191826,-0.8548020000000001,0.007242,0.031975,0.004277
999,0.4824489999999999,0.192281,-0.8545590000000001,0.009495,0.033824,0.003058
1000,0.48267,0.192671,-0.8543459999999999,0.011425,0.038347,0.00225
1001,0.482739,0.192935,-0.854248,0.009479,0.0411959999999999,0.001999
1002,0.4827649999999999,0.192975,-0.854224,0.00573,0.037326,0.001426
1003,0.482702,0.1928349999999999,-0.854291,0.004023,0.035116,-0.004885
1004,0.482514,0.19268,-0.854432,-0.00705,0.020089,-0.000334
1005,0.482246,0.1924789999999999,-0.8546290000000001,-0.01197,0.0196639999999999,-0.001145
1006,0.482008,0.192297,-0.8548040000000001,-0.017088,0.019663,0.000297
1007,0.481745,0.1920869999999999,-0.855,-0.020212,0.014608,-0.0042229999999999
1008,0.481501,0.191909,-0.8551770000000001,-0.016596,0.013413,-0.013002
1009,0.481355,0.191945,-0.855251,-0.0139789999999999,0.018458,-0.012486
1010,0.481412,0.192223,-0.855157,-0.0147979999999999,0.018913,-0.006873
1011,0.481624,0.192605,-0.854951,-0.010341,0.0226199999999999,-0.0007769999999999
1012,0.481879,0.192983,-0.854722,-0.007423,0.0258589999999999,0.002595
1013,0.482149,0.19329,-0.8545,-0.003145,0.022255,0.003091
1014,0.482305,0.193632,-0.8543350000000001,0.014994,0.020678,-0.0019579999999999
1015,0.482337,0.194109,-0.854209,0.0126579999999999,0.024672,0.002417
1016,0.482523,0.194625,-0.853986,0.00057,0.012269,0.017286
1017,0.483012,0.195103,-0.853601,-0.000788,0.010936,0.013009
1018,0.483329,0.19562,-0.853303,0.002694,0.028531,-0.002257
1019,0.483349,0.196098,-0.853182,0.00069,0.032159,0.002428
1020,0.483379,0.196515,-0.8530690000000001,-0.005093,0.0323209999999999,0.006984
1021,0.483513,0.196851,-0.852915,-0.008172,0.030108,0.005335
1022,0.4837729999999999,0.197092,-0.8527129999999999,-0.00959,0.023946,-0.00271
1023,0.484,0.197245,-0.852548,-0.0123819999999999,0.025183,-0.0018219999999999
1024,0.4841029999999999,0.197376,-0.852459,-0.013659,0.022259,-0.004444
1025,0.484178,0.197492,-0.85239,-0.016023,0.021578,-0.006909
1026,0.484272,0.197616,-0.852308,-0.0138129999999999,0.021622,-0.004382
1027,0.48425,0.197719,-0.852297,-0.009854,0.020405,-0.00125
1028,0.484256,0.197777,-0.8522799999999999,-0.005633,0.026329,-0.001755
1029,0.4842399999999999,0.197789,-0.8522860000000001,-0.004839,0.027232,-0.002984
1030,0.484048,0.197729,-0.852409,-0.000421,0.031275,0.004463
1031,0.483822,0.197506,-0.8525889999999999,0.00214,0.030185,0.006718
1032,0.4834489999999999,0.197138,-0.852886,0.006374,0.0302029999999999,0.002773
1033,0.483093,0.196769,-0.8531719999999999,0.0065769999999999,0.026238,-0.002663
1034,0.482758,0.196468,-0.853432,0.005371,0.022664,0.0001139999999999
1035,0.482421,0.196277,-0.853665,0.000412,0.021603,0.006833
1036,0.482359,0.19613,-0.853735,-0.002043,0.019492,-0.001093
1037,0.482292,0.196062,-0.8537879999999999,-0.051933,0.022657,0.001218
1038,0.482992,0.196369,-0.8533219999999999,0.04745,0.012905,-0.008662
1039,0.482995,0.196677,-0.8532489999999999,0.048194,0.0196919999999999,-0.010978
1040,0.483073,0.197078,-0.8531120000000001,-0.010631,0.020146,0.00271
1041,0.482979,0.197218,-0.853133,-0.010537,0.020006,0.00273
1042,0.4828699999999999,0.1972809999999999,-0.8531799999999999,-0.007284,0.027267,-0.004135
1043,0.4832079999999999,0.197423,-0.8529559999999999,-0.007668,0.029795,-0.004847
1044,0.48313,0.197594,-0.8529610000000001,-0.00759,0.029625,-0.004842
1045,0.482859,0.197728,-0.853083,-0.005289,0.026195,0.0077769999999999
1046,0.482624,0.197775,-0.8532049999999999,-0.003468,0.022806,0.003626
1047,0.482406,0.1976359999999999,-0.853361,-0.002425,0.025966,-0.000735
1048,0.482226,0.197509,-0.853492,-0.001574,0.024659,-0.003076
1049,0.4821109999999999,0.197568,-0.853543,-0.006571,0.017108,0.002042
1050,0.481993,0.197668,-0.8535870000000001,-0.004835,0.01768,0.003352
1051,0.481976,0.1978319999999999,-0.853558,-0.00433,0.018507,0.0033229999999999
1052,0.4820239999999999,0.1980839999999999,-0.8534729999999999,0.00055,0.020437,-0.000424
1053,0.482056,0.198368,-0.853389,4.6e-05,0.024074,-0.001271
1054,0.482151,0.198679,-0.8532629999999999,-0.0023989999999999,0.025976,0.001181
1055,0.482251,0.198873,-0.8531610000000001,-0.001508,0.027262,-0.00098
1056,0.482339,0.198981,-0.853086,-0.007561,0.03547,0.000196
1057,0.482471,0.199118,-0.852979,-0.000416,0.037057,0.002286
1058,0.482563,0.199261,-0.852894,-0.000126,0.035953,0.002415
1059,0.482488,0.1992789999999999,-0.852932,-0.003163,0.0315709999999999,0.0020109999999999
1060,0.482333,0.19925,-0.8530270000000001,-0.005282,0.029647,-0.000443
1061,0.4822909999999999,0.199172,-0.8530690000000001,-0.008322,0.022477,-0.000889
1062,0.482288,0.1991089999999999,-0.853085,-0.010715,0.022021,-0.004459
1063,0.48235,0.199175,-0.8530340000000001,-0.007024,0.019468,-0.002404
1064,0.4824529999999999,0.19938,-0.852928,-0.006715,0.024527,0.001457
1065,0.48276,0.19959,-0.852706,-0.0042439999999999,0.0174509999999999,0.005232
1066,0.4831229999999999,0.199809,-0.852448,-0.002365,0.018926,0.000733
1067,0.483411,0.2001349999999999,-0.852209,-0.00047,0.023895,-0.002375
1068,0.483652,0.200552,-0.851974,0.002447,0.0311839999999999,-0.001694
1069,0.4838699999999999,0.200879,-0.851773,0.003251,0.035923,0.002179
1070,0.4839029999999999,0.201026,-0.85172,0.00125,0.031838,0.006368
1071,0.483754,0.200984,-0.851814,0.003535,0.026708,0.013359
1072,0.483581,0.20092,-0.851928,0.002839,0.020912,0.009795
1073,0.483377,0.200955,-0.852035,0.0026609999999999,0.024005,0.003311
1074,0.48315,0.200982,-0.8521569999999999,0.003468,0.025138,0.000976
1075,0.4829279999999999,0.200969,-0.8522860000000001,0.001676,0.027867,0.00106
1076,0.482772,0.200899,-0.852391,-0.004684,0.0264569999999999,0.003011
1077,0.48256,0.200686,-0.852561,-0.000383,0.020628,0.003867
1078,0.4823119999999999,0.200429,-0.8527620000000001,0.0061979999999999,0.017161,0.001413
1079,0.48206,0.200339,-0.8529260000000001,0.00909,0.017602,0.001562
1080,0.481718,0.2004,-0.8531049999999999,0.00342,0.02305,0.008882
1081,0.4813689999999999,0.200444,-0.853291,0.002334,0.023494,0.007024
1082,0.4810239999999999,0.200425,-0.85349,0.0008029999999999,0.028899,-0.001124
1083,0.480706,0.200368,-0.853683,-0.0007099999999999,0.029918,-0.00055
1084,0.4803729999999999,0.200344,-0.853876,-0.005168,0.0351449999999999,0.00062
1085,0.480175,0.2003339999999999,-0.8539899999999999,-0.007565,0.034057,0.000901
1086,0.4800779999999999,0.200277,-0.854058,-0.008535,0.0327089999999999,0.001519
1087,0.479912,0.200155,-0.8541790000000001,-0.004326,0.0285279999999999,0.0001139999999999
1088,0.479678,0.199989,-0.85435,-0.004565,0.0272149999999999,-0.000859
1089,0.479441,0.1998069999999999,-0.854525,-0.006007,0.0269079999999999,-0.002942
1090,0.479256,0.199643,-0.854667,-0.00747,0.024692,-0.0007559999999999
1091,0.4791399999999999,0.199514,-0.8547629999999999,-0.009902,0.021846,0.000606
1092,0.479102,0.199445,-0.8548,-0.005942,0.022769,0.001529
1093,0.479127,0.199464,-0.8547809999999999,-0.003144,0.022002,0.00154
1094,0.479176,0.199509,-0.854743,-0.0026899999999999,0.023223,0.003288
1095,0.479232,0.199545,-0.8547040000000001,-0.001235,0.0281009999999999,0.004148
1096,0.4793189999999999,0.199538,-0.854657,-0.001093,0.029314,0.003674
1097,0.479504,0.199534,-0.854554,0.002384,0.030325,0.002793
1098,0.479706,0.199545,-0.8544379999999999,0.004531,0.027841,0.0034549999999999
1099,0.479829,0.199526,-0.8543729999999999,0.006865,0.026808,0.005481
1100,0.479824,0.199515,-0.8543790000000001,0.006336,0.031031,0.005792
1101,0.479713,0.199401,-0.854467,0.006447,0.0311439999999999,0.00588
1102,0.479554,0.199268,-0.8545879999999999,0.002685,0.031186,0.0034219999999999
1103,0.479389,0.199066,-0.854727,0.001049,0.026108,0.004034
1104,0.479181,0.1988619999999999,-0.854891,0.001257,0.026312,0.0041979999999999
1105,0.479035,0.198763,-0.8549969999999999,0.0008699999999999,0.024366,0.00467
1106,0.478861,0.198793,-0.855087,0.000448,0.02603,0.00476
1107,0.478692,0.1988089999999999,-0.8551770000000001,0.0008,0.028363,0.0051259999999999
1108,0.478517,0.198684,-0.855305,-0.00258,0.029389,0.005024
1109,0.478337,0.198473,-0.855454,-0.000584,0.0286389999999999,0.002915
1110,0.478131,0.198243,-0.8556229999999999,-0.001279,0.0285629999999999,-0.002898
1111,0.477937,0.1980599999999999,-0.8557739999999999,-0.003922,0.024017,1.5e-05
1112,0.477784,0.197923,-0.855891,-0.003221,0.021712,0.006556
1113,0.477701,0.1978319999999999,-0.855958,-0.0002839999999999,0.023802,0.003694
1114,0.4775979999999999,0.197785,-0.8560270000000001,0.001757,0.023987,0.0007559999999999
1115,0.477516,0.197804,-0.856068,0.003747,0.024075,0.003178
1116,0.477455,0.197847,-0.856092,0.003075,0.026976,0.004682
1117,0.47744,0.1978599999999999,-0.8560969999999999,0.003532,0.027542,0.003604
1118,0.4773729999999999,0.197882,-0.8561290000000001,0.002745,0.0295649999999999,0.003209
1119,0.4772899999999999,0.197892,-0.856173,0.000691,0.0284269999999999,0.00426
1120,0.4772,0.19788,-0.856226,0.0012699999999999,0.0291089999999999,0.005839
1121,0.4770439999999999,0.197821,-0.8563270000000001,0.000373,0.0232479999999999,0.00716
1122,0.476868,0.197701,-0.856453,-0.000641,0.023933,0.007347
1123,0.4766859999999999,0.197604,-0.856577,0.003707,0.026151,0.004007
1124,0.476506,0.197552,-0.8566879999999999,0.001308,0.027118,-0.000917
1125,0.476354,0.197539,-0.856776,0.0027719999999999,0.02965,0.000483
1126,0.4762149999999999,0.197491,-0.856865,-0.001819,0.028385,0.0043869999999999
1127,0.476075,0.197364,-0.8569709999999999,-0.001969,0.027536,0.003135
1128,0.475931,0.19721,-0.857087,-0.00213,0.025049,0.00351
1129,0.475781,0.1971089999999999,-0.857193,0.001819,0.024083,0.004135
1130,0.475707,0.197025,-0.8572540000000001,0.000657,0.024929,0.005294
1131,0.475708,0.1970029999999999,-0.857258,0.000839,0.024982,0.005085
1132,0.475767,0.197047,-0.857215,0.002215,0.0214129999999999,0.00698
1133,0.475938,0.197102,-0.857108,0.001296,0.023556,0.0038369999999999
1134,0.47617,0.197219,-0.856952,0.003093,0.0303649999999999,-0.00166
1135,0.476384,0.197398,-0.856792,0.005305,0.032964,-0.001698
1136,0.476597,0.197595,-0.8566280000000001,0.0014609999999999,0.037634,0.001342
1137,0.4767479999999999,0.197732,-0.856512,0.0032939999999999,0.036445,0.004294
1138,0.476771,0.197744,-0.856497,0.007284,0.035563,0.00852
1139,0.476616,0.197596,-0.856617,0.009377,0.035711,0.009327
1140,0.476245,0.197252,-0.8569030000000001,0.008023,0.031264,0.009521
1141,0.475757,0.196801,-0.8572770000000001,0.006527,0.029548,0.006157
1142,0.475282,0.196413,-0.8576299999999999,0.0052179999999999,0.024901,0.006144
1143,0.474835,0.19613,-0.857942,0.004184,0.024406,0.004732
1144,0.4744739999999999,0.1960039999999999,-0.8581709999999999,0.004683,0.022441,0.004564
1145,0.474256,0.195997,-0.8582930000000001,-0.000593,0.025255,0.0033729999999999
1146,0.474078,0.195969,-0.858397,-0.002811,0.027023,0.002837
1147,0.473902,0.195976,-0.8584930000000001,-0.002283,0.025749,0.0038179999999999
1148,0.473782,0.196013,-0.8585510000000001,-0.009533,0.025178,0.001541
1149,0.473729,0.19604,-0.858574,-0.0054979999999999,0.02358,0.001289
1150,0.473796,0.196119,-0.858519,-0.007838,0.0239729999999999,-0.000627
1151,0.473894,0.196232,-0.858439,-0.003984,0.026318,0.001505
1152,0.473993,0.196318,-0.8583649999999999,-0.002618,0.025362,0.002286
1153,0.4741069999999999,0.196443,-0.858273,0.000762,0.026076,0.006192
1154,0.474227,0.196581,-0.858175,0.0053409999999999,0.028806,0.009237
1155,0.47434,0.19666,-0.858095,0.005992,0.0303899999999999,0.007005
1156,0.474427,0.196708,-0.858035,0.006026,0.031335,0.0072819999999999
1157,0.474463,0.196751,-0.8580059999999999,0.010111,0.033977,0.008961
1158,0.47443,0.196713,-0.858033,0.0090599999999999,0.035006,0.00557
1159,0.474329,0.196624,-0.858109,0.00701,0.034714,0.006135
1160,0.47421,0.196489,-0.8582049999999999,0.006823,0.032347,0.006094
1161,0.474046,0.196295,-0.858341,0.006881,0.029261,0.0064269999999999
1162,0.473863,0.196125,-0.8584809999999999,0.001418,0.025875,0.0055299999999999
1163,0.473656,0.1959769999999999,-0.8586290000000001,0.001869,0.026816,0.00609
1164,0.473467,0.195893,-0.8587520000000001,0.00044,0.029556,0.002917
1165,0.4733479999999999,0.195823,-0.858834,-0.002766,0.029641,0.001305
1166,0.473263,0.195759,-0.8588950000000001,-0.0026969999999999,0.0267139999999999,0.004509
1167,0.473189,0.195624,-0.858967,-0.000715,0.026361,0.0074189999999999
1168,0.473154,0.195509,-0.8590120000000001,0.002966,0.025514,0.002887
1169,0.47312,0.195452,-0.859043,0.002328,0.02606,0.005436
1170,0.473131,0.195446,-0.859039,0.00218,0.0275,0.0054009999999999
1171,0.473145,0.195535,-0.8590110000000001,0.008758,0.032737,0.001849
1172,0.473121,0.19563,-0.859002,0.005257,0.033191,0.009729
1173,0.473172,0.195661,-0.858967,0.003101,0.033053,0.010045
1174,0.473342,0.195642,-0.858878,0.004487,0.027457,0.005606
1175,0.473489,0.195604,-0.858806,0.004889,0.027998,0.001857
1176,0.47353,0.195682,-0.858765,0.008587,0.029873,0.002198
1177,0.473608,0.195765,-0.8587030000000001,0.001993,0.029104,0.0075829999999999
1178,0.473697,0.1957829999999999,-0.85865,0.0015689999999999,0.02872,0.0073319999999999
1179,0.4737149999999999,0.195758,-0.8586459999999999,0.001077,0.028256,0.008731
1180,0.473649,0.195711,-0.858693,0.000106,0.029768,0.005559
1181,0.47362,0.195696,-0.858712,0.0018899999999999,0.028776,0.00541
1182,0.473652,0.195693,-0.8586959999999999,0.002148,0.029206,0.005943
1183,0.473722,0.195646,-0.858668,0.005602,0.029635,0.007593
1184,0.473705,0.195579,-0.858692,0.007862,0.0284959999999999,0.00626
1185,0.473597,0.195518,-0.858766,0.008047,0.0287399999999999,0.008699
1186,0.4734779999999999,0.195472,-0.858842,0.007281,0.032128,0.009934
1187,0.473318,0.195382,-0.85895,0.006906,0.031272,0.007586
1188,0.4731399999999999,0.195226,-0.8590840000000001,0.005009,0.031474,0.005462
1189,0.472956,0.195048,-0.859226,0.003896,0.029668,0.003116
1190,0.472851,0.194939,-0.859308,0.002262,0.0283889999999999,0.001276
1191,0.472832,0.194908,-0.859326,0.00077,0.028831,0.0010949999999999
1192,0.472871,0.194939,-0.859297,-0.002625,0.0298839999999999,0.004668
1193,0.4728819999999999,0.194944,-0.85929,-0.001217,0.0289329999999999,0.0061259999999999
1194,0.472807,0.19485,-0.859353,0.002886,0.031743,0.009881
1195,0.472679,0.194705,-0.859456,0.004632,0.032056,0.007527
1196,0.472463,0.19448,-0.859626,0.002497,0.032281,0.004127
1197,0.4722119999999999,0.194169,-0.859834,0.001757,0.029952,0.003312
1198,0.4720789999999999,0.193939,-0.859959,-0.000491,0.03093,0.003575
1199,0.4720939999999999,0.193872,-0.859966,0.003568,0.027441,0.006206
1200,0.472177,0.193851,-0.859925,0.001181,0.027386,0.007462
1201,0.472263,0.193866,-0.859874,0.00526,0.0281949999999999,0.005672
1202,0.472356,0.193886,-0.859819,0.003902,0.028481,0.004564
1203,0.472435,0.193902,-0.859772,0.003792,0.029823,0.002304
1204,0.472545,0.193947,-0.859701,0.003774,0.028938,0.004675
1205,0.472672,0.194038,-0.85961,0.001907,0.029763,0.004966
1206,0.472788,0.194122,-0.8595280000000001,0.001577,0.030869,0.006134
1207,0.47291,0.194183,-0.859447,0.00234,0.0311279999999999,0.005458
1208,0.472995,0.194235,-0.8593879999999999,0.004513,0.031625,0.005751
1209,0.473033,0.194243,-0.859366,0.006032,0.031938,0.005515
1210,0.473083,0.194234,-0.85934,0.004045,0.03419,0.008907
1211,0.4730819999999999,0.194151,-0.85936,0.007875,0.031297,0.008743
1212,0.47306,0.193998,-0.859406,0.006326,0.029894,0.008775
1213,0.473035,0.193829,-0.8594579999999999,0.006396,0.02013,0.0048439999999999
1214,0.472941,0.1937,-0.8595389999999999,0.006719,0.026057,0.0068769999999999
1215,0.472942,0.19362,-0.859556,0.00507,0.027831,0.008574
1216,0.472952,0.193606,-0.859554,0.005121,0.0281339999999999,0.006465
1217,0.472956,0.193614,-0.85955,0.003363,0.029241,0.007118
1218,0.472919,0.193623,-0.859568,0.003994,0.0284069999999999,0.006938
1219,0.47286,0.19365,-0.8595950000000001,0.001734,0.0281209999999999,0.008597
1220,0.472763,0.193607,-0.859657,0.003952,0.029491,0.004509
1221,0.472638,0.193545,-0.85974,0.0046869999999999,0.03082,0.0059039999999999
1222,0.47253,0.193511,-0.859807,0.00185,0.031816,0.00292
1223,0.472437,0.193451,-0.859872,0.003103,0.0344089999999999,0.00303
1224,0.472372,0.193355,-0.85993,0.005183,0.0320779999999999,0.003881
1225,0.4723199999999999,0.193289,-0.859973,0.0037689999999999,0.03071,0.006625
1226,0.472267,0.193195,-0.860023,0.0019,0.029004,0.0091019999999999
1227,0.4722189999999999,0.193118,-0.860067,0.0035039999999999,0.024487,0.009771
1228,0.472228,0.193124,-0.86006,0.008561,0.027823,0.005492
1229,0.4722479999999999,0.193236,-0.860024,0.007305,0.033815,0.006417
1230,0.472285,0.193318,-0.859985,0.005239,0.033076,0.006683
1231,0.472338,0.193321,-0.8599559999999999,0.005293,0.032982,0.007462
1232,0.472365,0.193302,-0.8599450000000001,0.006365,0.030743,0.0068569999999999
1233,0.472314,0.193236,-0.859988,0.004981,0.031785,0.009021
1234,0.472258,0.193169,-0.860034,0.006486,0.030998,0.005404
1235,0.472252,0.193184,-0.860034,0.004372,0.03051,0.004489
1236,0.472263,0.193194,-0.860025,0.005245,0.031355,0.0059759999999999
1237,0.472272,0.19321,-0.860017,0.004229,0.029996,0.008179
1238,0.4722979999999999,0.193237,-0.8599959999999999,0.000907,0.0297089999999999,0.0062369999999999
1239,0.4722949999999999,0.193207,-0.8600049999999999,0.002833,0.031738,0.005116
1240,0.472253,0.193166,-0.860037,0.004203,0.031062,0.004462
1241,0.472242,0.193179,-0.8600399999999999,0.002962,0.030088,0.006143
1242,0.472242,0.193146,-0.8600479999999999,0.003939,0.028747,0.007493
1243,0.472225,0.193138,-0.860059,0.005176,0.028954,0.007306
1244,0.472224,0.193185,-0.860049,0.003377,0.030386,0.006991
1245,0.472214,0.193181,-0.8600549999999999,0.00499,0.031535,0.005258
1246,0.472213,0.193165,-0.860059,0.0064099999999999,0.029385,0.005384
1247,0.472218,0.193172,-0.8600549999999999,0.005763,0.032109,0.006997
1248,0.47218,0.193119,-0.860088,0.005802,0.032162,0.00703
1249,0.472159,0.193115,-0.8601,0.004984,0.028687,0.0072099999999999
1250,0.472146,0.193094,-0.8601120000000001,0.003517,0.030402,0.00591
1251,0.4721069999999999,0.193048,-0.860144,0.003753,0.032187,0.005804
1252,0.472084,0.193039,-0.860158,0.004951,0.030518,0.006154
1253,0.472071,0.193021,-0.8601700000000001,0.004156,0.028293,0.006212
1254,0.4720439999999999,0.1930049999999999,-0.860188,0.004534,0.030368,0.0070079999999999
1255,0.472054,0.1930339999999999,-0.860176,0.003303,0.029973,0.0053939999999999
1256,0.472078,0.19303,-0.8601639999999999,0.0029739999999999,0.029642,0.006938
1257,0.472101,0.193031,-0.860151,0.002097,0.0298389999999999,0.004911
1258,0.472154,0.193081,-0.8601110000000001,0.003935,0.031544,0.0074189999999999
1259,0.472202,0.193133,-0.860072,0.004864,0.030363,0.00584
1260,0.472279,0.193173,-0.8600209999999999,0.004497,0.031391,0.00614
1261,0.472352,0.193216,-0.859972,0.005615,0.031347,0.006624
1262,0.472386,0.193242,-0.8599469999999999,0.005855,0.031138,0.006783
1263,0.4724069999999999,0.19324,-0.859936,0.0069319999999999,0.030637,0.006435
1264,0.472423,0.193247,-0.859925,0.006504,0.030889,0.007997
1265,0.4724279999999999,0.193266,-0.8599190000000001,0.006423,0.03055,0.004801
1266,0.472448,0.193298,-0.8599,0.005396,0.0298459999999999,0.006018
1267,0.472476,0.193306,-0.859883,0.002774,0.032387,0.006459
1268,0.472508,0.193301,-0.859867,0.004253,0.034009,0.00336
1269,0.4725189999999999,0.19326,-0.85987,0.003464,0.03225,0.005729
1270,0.472498,0.193224,-0.8598889999999999,0.0074519999999999,0.030256,0.008693
1271,0.472445,0.193193,-0.859926,0.005323,0.029311,0.01024
1272,0.472355,0.1930849999999999,-0.859999,0.005412,0.029418,0.010313
1273,0.47229,0.193014,-0.860051,0.005417,0.029718,0.006978
1274,0.4722149999999999,0.192955,-0.8601059999999999,0.003447,0.031411,0.007353
1275,0.472189,0.19292,-0.8601270000000001,0.0034729999999999,0.031445,0.007375
1276,0.472265,0.192959,-0.8600770000000001,0.003229,0.029805,0.007004
1277,0.4723479999999999,0.1930079999999999,-0.8600209999999999,0.005344,0.029099,0.0071
1278,0.4723449999999999,0.192991,-0.8600260000000001,0.005347,0.029116,0.007106
1279,0.472286,0.1930049999999999,-0.8600549999999999,0.003574,0.032154,0.006967
1280,0.472243,0.192989,-0.860082,0.004335,0.031575,0.006918
1281,0.472208,0.192895,-0.8601219999999999,0.004369,0.031669,0.006958
1282,0.4722,0.192828,-0.860142,0.005278,0.0319029999999999,0.0071909999999999
1283,0.472166,0.192798,-0.860167,0.007768,0.027829,0.006652
1284,0.472121,0.192765,-0.8602,0.005144,0.028762,0.007737
1285,0.472077,0.192768,-0.860223,0.006866,0.0303,0.00654
1286,0.472008,0.192805,-0.860253,0.006492,0.032766,0.003365
1287,0.471962,0.192843,-0.8602700000000001,0.004555,0.029722,0.008707
1288,0.471934,0.192844,-0.8602850000000001,0.00208,0.031444,0.009882
1289,0.471929,0.192849,-0.8602860000000001,0.001978,0.029579,0.005214
1290,0.471935,0.192864,-0.8602790000000001,0.003117,0.032539,0.0030859999999999
1291,0.471952,0.192851,-0.860273,0.0008869999999999,0.0341389999999999,0.004606
1292,0.471976,0.192816,-0.860268,0.004236,0.030893,0.007454
1293,0.471944,0.192705,-0.86031,0.003154,0.03137,0.008381
1294,0.471877,0.192625,-0.8603649999999999,0.006501,0.030947,0.006971
1295,0.471825,0.192547,-0.860411,0.007728,0.03043,0.007017
1296,0.4717909999999999,0.192484,-0.8604440000000001,0.0096239999999999,0.031943,0.007584
1297,0.4717989999999999,0.192485,-0.860439,0.005251,0.030782,0.005855
1298,0.471827,0.192449,-0.860431,0.003423,0.0303139999999999,0.00687
1299,0.471854,0.192417,-0.860424,0.004876,0.030422,0.0079
1300,0.471904,0.19244,-0.860392,0.005437,0.030338,0.006906
1301,0.471894,0.192436,-0.860398,0.004775,0.031121,0.007462
1302,0.471887,0.19242,-0.860405,0.005301,0.0295029999999999,0.005501
1303,0.47186,0.19238,-0.8604290000000001,0.001178,0.028796,0.006624
1304,0.471817,0.1923349999999999,-0.8604620000000001,0.002838,0.030855,0.0051
1305,0.47181,0.192341,-0.8604649999999999,0.003136,0.0288959999999999,0.003745
1306,0.4718489999999999,0.192417,-0.860426,0.004088,0.031506,0.003111
1307,0.4719069999999999,0.192502,-0.860376,0.003313,0.033206,0.006555
1308,0.471955,0.192548,-0.860339,0.004012,0.031679,0.008868
1309,0.471967,0.192542,-0.860334,0.007693,0.030405,0.005933
1310,0.471962,0.192511,-0.860344,0.004494,0.033609,0.006675
1311,0.471972,0.192504,-0.86034,0.0038729999999999,0.030381,0.008869
1312,0.472026,0.192545,-0.860301,0.004521,0.0286009999999999,0.007197
1313,0.472116,0.1925849999999999,-0.860243,0.002326,0.0307579999999999,0.005033
1314,0.4722149999999999,0.192634,-0.8601770000000001,0.004408,0.030725,0.007135
1315,0.472271,0.192684,-0.860136,0.007176,0.032032,0.007658
1316,0.472296,0.192725,-0.8601120000000001,0.006876,0.030664,0.009343
1317,0.472246,0.1927019999999999,-0.860145,0.006926,0.030687,0.009376
1318,0.472171,0.192691,-0.860189,0.0065739999999999,0.031201,0.008535
1319,0.472089,0.192645,-0.860244,0.006763,0.031125,0.0078269999999999
1320,0.472009,0.192566,-0.8603059999999999,0.006843,0.031204,0.007889
1321,0.471972,0.1925619999999999,-0.8603270000000001,0.004438,0.03101,0.007162
1322,0.4719319999999999,0.192573,-0.860347,0.004524,0.029717,0.008052
1323,0.471918,0.192554,-0.860358,0.006613,0.03088,0.007193
1324,0.471905,0.192549,-0.860366,0.0034219999999999,0.031373,0.004608
1325,0.471888,0.192542,-0.8603770000000001,0.002111,0.030312,0.005732
1326,0.471888,0.1925089999999999,-0.8603850000000001,0.003713,0.0295829999999999,0.0034659999999999
1327,0.4718989999999999,0.192511,-0.8603780000000001,0.004037,0.030267,0.005443
1328,0.471892,0.192515,-0.860381,0.003435,0.030081,0.005889
1329,0.471861,0.192511,-0.860399,0.006807,0.0307709999999999,0.00934
1330,0.471813,0.192493,-0.8604290000000001,0.006367,0.027874,0.006486
1331,0.4717689999999999,0.192484,-0.860455,0.008028,0.0299589999999999,0.007748
1332,0.471776,0.192547,-0.8604379999999999,0.005626,0.031147,0.005686
1333,0.471822,0.192644,-0.860391,0.007869,0.03134,0.008294
1334,0.4718859999999999,0.192748,-0.860332,0.0051649999999999,0.031526,0.007565
1335,0.471916,0.1928119999999999,-0.860302,0.005974,0.031584,0.006252
1336,0.471908,0.192876,-0.8602920000000001,0.0036479999999999,0.032969,0.007951
1337,0.471839,0.192882,-0.8603280000000001,0.0043729999999999,0.032353,0.005531
1338,0.471788,0.192858,-0.8603620000000001,0.003234,0.031111,0.0075629999999999
1339,0.471755,0.192881,-0.860374,0.003114,0.031332,0.006187
1340,0.471732,0.192918,-0.8603790000000001,0.00396,0.032043,0.00552
1341,0.471727,0.192968,-0.8603700000000001,0.0064379999999999,0.031702,0.00716
1342,0.471733,0.193044,-0.86035,0.005959,0.0306959999999999,0.009673
1343,0.471721,0.1930619999999999,-0.860352,0.004506,0.030418,0.006898
1344,0.471699,0.193049,-0.860367,0.004207,0.0291649999999999,0.004578
1345,0.471671,0.193048,-0.860383,0.004114,0.032599,0.006547
1346,0.471679,0.193098,-0.860368,0.007493,0.034487,0.003098
1347,0.471651,0.193154,-0.8603700000000001,0.0058119999999999,0.032218,0.005619
1348,0.4716479999999999,0.193217,-0.860358,0.003282,0.027517,0.01055
1349,0.471634,0.193237,-0.860361,0.004058,0.029938,0.009805
1350,0.471604,0.193269,-0.8603700000000001,0.003967,0.030929,0.006092
1351,0.471606,0.193316,-0.860359,0.007902,0.032788,0.004554
1352,0.471612,0.193351,-0.860347,0.005149,0.0331959999999999,0.005733
1353,0.47161,0.1933109999999999,-0.860358,0.00416,0.032535,0.008368
1354,0.4715729999999999,0.193253,-0.860391,0.004837,0.028183,0.008676
1355,0.4715229999999999,0.193191,-0.860432,0.003926,0.029435,0.008641
1356,0.4714819999999999,0.19316,-0.860461,0.004409,0.029969,0.006229
1357,0.471475,0.193181,-0.86046,0.005973,0.031291,0.006289
1358,0.47155,0.193252,-0.8604040000000001,0.00306,0.031678,0.006705
1359,0.471627,0.19329,-0.860353,0.0036229999999999,0.031456,0.008058
1360,0.471697,0.193306,-0.860311,0.005094,0.030891,0.006063
1361,0.471727,0.193333,-0.8602879999999999,0.004256,0.030941,0.006193
1362,0.471706,0.193319,-0.860303,0.004277,0.030955,0.006207
1363,0.4717149999999999,0.193355,-0.86029,0.006633,0.0295,0.008407
1364,0.471714,0.193374,-0.8602860000000001,0.007183,0.0296029999999999,0.00616
1365,0.471672,0.193349,-0.8603149999999999,0.007225,0.0296279999999999,0.006189
1366,0.471646,0.193402,-0.860317,0.004596,0.031787,0.005871
1367,0.471639,0.193414,-0.860318,0.004786,0.030737,0.005567
1368,0.471659,0.19341,-0.860308,0.004369,0.031581,0.007143
1369,0.471683,0.193413,-0.860294,0.003872,0.032005,0.0074959999999999
1370,0.4716909999999999,0.193376,-0.860298,0.00243,0.030486,0.00695
1371,0.471659,0.193331,-0.860326,0.004828,0.032529,0.005697
1372,0.471614,0.193287,-0.860361,0.00684,0.0305589999999999,0.007593
1373,0.471584,0.193216,-0.8603930000000001,0.005467,0.02976,0.008235
1374,0.471554,0.193174,-0.860419,0.004627,0.029604,0.007117
1375,0.471572,0.193178,-0.860408,0.005449,0.0300279999999999,0.007579
1376,0.471618,0.193215,-0.860374,0.002656,0.0298529999999999,0.0084459999999999
1377,0.471674,0.193244,-0.8603370000000001,0.004339,0.030236,0.0072489999999999
1378,0.4717479999999999,0.193287,-0.8602870000000001,0.0038229999999999,0.0316279999999999,0.005749
1379,0.471801,0.19329,-0.8602569999999999,0.005128,0.030099,0.003858
1380,0.47181,0.193301,-0.86025,0.004569,0.02963,0.006383
1381,0.4717979999999999,0.193302,-0.8602559999999999,0.004933,0.031475,0.006298
1382,0.4717739999999999,0.193289,-0.8602719999999999,0.0053219999999999,0.0310769999999999,0.005536
1383,0.471756,0.193254,-0.86029,0.006012,0.030333,0.007294
1384,0.4717479999999999,0.193262,-0.860293,0.0053479999999999,0.029501,0.007204
1385,0.471755,0.193267,-0.8602879999999999,0.00644,0.031358,0.006528
1386,0.4717739999999999,0.1932819999999999,-0.860274,0.006543,0.031312,0.007903
1387,0.471804,0.193313,-0.860251,0.004438,0.031251,0.007742
1388,0.4717939999999999,0.1933099999999999,-0.8602569999999999,0.00425,0.031025,0.006772
1389,0.471776,0.193296,-0.8602700000000001,0.006953,0.0283529999999999,0.006342
1390,0.471754,0.193294,-0.860282,0.0042899999999999,0.030369,0.007865
1391,0.471736,0.193305,-0.86029,0.005208,0.029427,0.007476
1392,0.47171,0.193299,-0.8603049999999999,0.003113,0.030639,0.007308
1393,0.4716899999999999,0.193293,-0.860318,0.004613,0.03095,0.00552
1394,0.4716729999999999,0.193298,-0.860326,0.006827,0.0296939999999999,0.007222
1395,0.471643,0.193278,-0.860347,0.0048579999999999,0.032415,0.008723
1396,0.471647,0.19326,-0.860349,0.004732,0.029686,0.006207
1397,0.4716399999999999,0.193261,-0.860352,0.004098,0.0295779999999999,0.003357
1398,0.47163,0.193295,-0.86035,0.002995,0.032169,0.007506
1399,0.471631,0.193322,-0.8603430000000001,0.003146,0.031562,0.0089489999999999
1400,0.471603,0.193295,-0.8603649999999999,0.005143,0.029788,0.006575
1401,0.47155,0.193252,-0.860403,0.00727,0.030243,0.007406
1402,0.471514,0.19324,-0.860426,0.004743,0.02905,0.0064069999999999
1403,0.4715189999999999,0.193247,-0.8604219999999999,0.006722,0.031561,0.006021
1404,0.471529,0.193274,-0.86041,0.005659,0.031824,0.001996
1405,0.4715229999999999,0.1933339999999999,-0.8604,0.005726,0.030711,0.008624
1406,0.471552,0.1933339999999999,-0.860384,0.00263,0.02978,0.011293
1407,0.471552,0.193319,-0.8603870000000001,0.002447,0.0279029999999999,0.005102
1408,0.471502,0.193303,-0.860418,0.004572,0.029643,0.002829
1409,0.471508,0.1933359999999999,-0.8604069999999999,0.006183,0.033135,0.0071819999999999
1410,0.471543,0.1933089999999999,-0.860395,0.0047909999999999,0.033056,0.008527
1411,0.4715399999999999,0.193254,-0.860409,0.007204,0.031798,0.0070459999999999
1412,0.471492,0.193195,-0.860448,0.006047,0.029293,0.008962
1413,0.471438,0.193119,-0.8604950000000001,0.007062,0.028836,0.009359
1414,0.471419,0.193077,-0.8605139999999999,0.0067909999999999,0.0306019999999999,0.007258
1415,0.471473,0.193095,-0.8604809999999999,0.004418,0.030462,0.007072
1416,0.471517,0.19308,-0.86046,0.004374,0.0304769999999999,0.0070519999999999
1417,0.471552,0.193109,-0.860434,0.004781,0.030173,0.006125
1418,0.47156,0.193097,-0.860433,0.006437,0.0312529999999999,0.005132
1419,0.47152,0.1930599999999999,-0.8604629999999999,0.004219,0.030985,0.005696
1420,0.471468,0.193037,-0.860497,0.006025,0.032839,0.006859
1421,0.47143,0.192993,-0.860527,0.0050409999999999,0.029968,0.008385
1422,0.47138,0.192923,-0.8605700000000001,0.00329,0.032557,0.005956
1423,0.4713529999999999,0.192904,-0.8605889999999999,0.004675,0.029126,0.006143
1424,0.4713449999999999,0.192899,-0.8605950000000001,0.004455,0.031222,0.00682
1425,0.4713239999999999,0.192897,-0.860607,0.003087,0.031499,0.007259
1426,0.471335,0.192944,-0.860591,0.0053799999999999,0.029682,0.004954
1427,0.4713529999999999,0.192961,-0.860577,0.005499,0.029879,0.008175
1428,0.471368,0.192962,-0.860568,0.004477,0.031937,0.007251
1429,0.471366,0.192991,-0.860563,0.003564,0.02962,0.0075049999999999
1430,0.471359,0.192964,-0.8605729999999999,0.006379,0.030531,0.006905
1431,0.471351,0.192931,-0.860584,0.004983,0.031312,0.008274
1432,0.4713569999999999,0.192918,-0.860584,0.0071129999999999,0.0297839999999999,0.008182
1433,0.471342,0.192918,-0.860593,0.005602,0.030394,0.0072599999999999
1434,0.4713279999999999,0.192916,-0.8606,0.005478,0.028382,0.009663
1435,0.471359,0.192969,-0.8605719999999999,0.004441,0.0303279999999999,0.0067819999999999
1436,0.471418,0.193051,-0.8605209999999999,0.007754,0.030597,0.008211
1437,0.471526,0.193151,-0.860439,0.003938,0.033595,0.006634
1438,0.471638,0.1932569999999999,-0.8603540000000001,0.006024,0.030422,0.007236
1439,0.471695,0.193295,-0.8603139999999999,0.0068049999999999,0.029362,0.00773
1440,0.4716909999999999,0.193302,-0.8603149999999999,0.005054,0.030773,0.007684
1441,0.471671,0.193321,-0.8603219999999999,0.006509,0.031136,0.007981
1442,0.4716399999999999,0.193289,-0.8603459999999999,0.007669,0.0302069999999999,0.005945
1443,0.471621,0.1932839999999999,-0.860358,0.005079,0.031844,0.007437
1444,0.471626,0.193316,-0.860347,0.005836,0.030835,0.006633
1445,0.471625,0.193374,-0.8603350000000001,0.006204,0.030243,0.00714
1446,0.4716359999999999,0.193404,-0.8603219999999999,0.006818,0.030534,0.005937
1447,0.471629,0.193409,-0.860325,0.003713,0.0296899999999999,0.009663
1448,0.471602,0.193433,-0.8603350000000001,0.003618,0.029055,0.0088939999999999
1449,0.4715689999999999,0.19345,-0.860349,0.0045509999999999,0.029115,0.004621
1450,0.4715569999999999,0.193469,-0.860351,0.005783,0.0311709999999999,0.0041649999999999
1451,0.471549,0.1934799999999999,-0.860353,0.005334,0.02971,0.004396
1452,0.471546,0.1935069999999999,-0.860348,0.007,0.030873,0.007214
1453,0.471551,0.193551,-0.8603360000000001,0.007026,0.03086,0.0077659999999999
1454,0.471559,0.193583,-0.860324,0.006362,0.031088,0.0065489999999999
1455,0.471555,0.19359,-0.860325,0.005374,0.031462,0.006122
1456,0.471559,0.193592,-0.8603219999999999,0.005965,0.0302399999999999,0.006395
1457,0.471537,0.193589,-0.8603350000000001,0.006323,0.029769,0.006163
1458,0.47152,0.193609,-0.86034,0.0035009999999999,0.0301759999999999,0.006519
1459,0.471518,0.1936369999999999,-0.860334,0.005227,0.03227,0.005461
1460,0.471516,0.193641,-0.8603350000000001,0.006954,0.031213,0.008787
1461,0.471464,0.193599,-0.8603729999999999,0.007006,0.031255,0.008826
1462,0.4714279999999999,0.193568,-0.8604,0.004494,0.0278529999999999,0.006167
1463,0.471387,0.193546,-0.860427,0.0076019999999999,0.029797,0.002578
1464,0.471352,0.193543,-0.860447,0.007637,0.0298,0.002598
1465,0.471358,0.193607,-0.8604290000000001,0.005235,0.030881,0.006715
1466,0.47136,0.193638,-0.8604209999999999,0.001068,0.028423,0.007684
1467,0.471335,0.193607,-0.860441,0.0043729999999999,0.029278,0.007063
1468,0.4713229999999999,0.193593,-0.8604510000000001,0.005102,0.030116,0.003502
1469,0.471364,0.19363,-0.8604209999999999,0.005382,0.032337,0.004357
1470,0.471417,0.193662,-0.860384,0.0053289999999999,0.032305,0.00432
1471,0.47148,0.193683,-0.860345,0.004961,0.030225,0.008371
1472,0.4714899999999999,0.193618,-0.8603540000000001,0.006492,0.029389,0.007251
1473,0.471451,0.1935309999999999,-0.860395,0.0068959999999999,0.029705,0.006925
1474,0.471426,0.193482,-0.860419,0.005548,0.0313709999999999,0.004584
1475,0.471441,0.193482,-0.860411,0.00503,0.031677,0.005416
1476,0.471497,0.19349,-0.8603790000000001,0.003768,0.031669,0.007397
1477,0.4715479999999999,0.193492,-0.860351,0.005121,0.030049,0.007277
1478,0.471535,0.193422,-0.860374,0.00663,0.0278759999999999,0.00524
1479,0.471473,0.193344,-0.860425,0.0074849999999999,0.029098,0.007352
1480,0.471394,0.19333,-0.8604709999999999,0.006099,0.026275,0.0067269999999999
1481,0.47136,0.193357,-0.860484,0.003081,0.0271779999999999,0.0097299999999999
1482,0.47135,0.193428,-0.8604729999999999,0.001901,0.029213,0.006225
1483,0.4713819999999999,0.193549,-0.8604290000000001,0.005471,0.032678,0.003984
1484,0.471419,0.193656,-0.860384,0.004487,0.034798,0.004809
1485,0.471483,0.193754,-0.8603270000000001,0.003951,0.034151,0.006629
1486,0.4715819999999999,0.1938359999999999,-0.8602540000000001,0.004568,0.029873,0.007502
1487,0.47166,0.193883,-0.860201,0.003606,0.030497,0.006716
1488,0.471681,0.193882,-0.86019,0.004607,0.030422,0.008277
1489,0.471649,0.193905,-0.860202,0.007019,0.0313149999999999,0.0083349999999999
1490,0.471591,0.193896,-0.8602360000000001,0.006878,0.029737,0.006278
1491,0.471563,0.193871,-0.8602569999999999,0.006418,0.032173,0.005688
1492,0.47158,0.193874,-0.860247,0.005425,0.031147,0.004855
1493,0.471609,0.193854,-0.8602360000000001,0.006174,0.029412,0.007987
1494,0.47163,0.1938369999999999,-0.8602280000000001,0.005878,0.029522,0.006148
1495,0.4716329999999999,0.193833,-0.8602280000000001,0.005464,0.026123,0.007719
1496,0.4715789999999999,0.193832,-0.8602569999999999,0.006784,0.027985,0.008969
1497,0.4715319999999999,0.19386,-0.8602770000000001,0.005931,0.028751,0.006456
1498,0.471509,0.193916,-0.860276,0.005084,0.031075,0.00699
1499,0.4714939999999999,0.193932,-0.860281,0.004458,0.0321269999999999,0.003058
1500,0.471498,0.193969,-0.8602700000000001,0.004973,0.031846,0.0056409999999999
1501,0.471502,0.193971,-0.860268,0.004527,0.03073,0.006051
1502,0.471501,0.1939789999999999,-0.860267,0.006252,0.0300509999999999,0.0074069999999999
1503,0.471498,0.19397,-0.8602709999999999,0.00627,0.031296,0.007228
1504,0.4714649999999999,0.193946,-0.860294,0.002503,0.03106,0.005741
1505,0.471426,0.193893,-0.8603270000000001,0.00509,0.030747,0.007437
1506,0.471365,0.193846,-0.8603709999999999,0.004739,0.028948,0.007512
1507,0.471316,0.1937849999999999,-0.8604120000000001,0.004713,0.028261,0.007736
1508,0.471282,0.1937579999999999,-0.8604370000000001,0.007188,0.0293709999999999,0.007364
1509,0.4712689999999999,0.1937809999999999,-0.8604379999999999,0.008117,0.0276389999999999,0.007716
1510,0.471284,0.193857,-0.8604129999999999,0.006057,0.028311,0.006318
1511,0.4712939999999999,0.193948,-0.8603870000000001,0.0045049999999999,0.031348,0.005712
1512,0.471317,0.194015,-0.860359,0.00494,0.032746,0.007546
1513,0.471335,0.194089,-0.860333,0.003397,0.030185,0.0045899999999999
1514,0.471372,0.194147,-0.8603,0.003176,0.031882,0.005975
1515,0.471389,0.194149,-0.86029,0.003129,0.032795,0.009414
1516,0.471395,0.194139,-0.860289,0.00526,0.033705,0.006529
1517,0.471379,0.194101,-0.8603059999999999,0.006252,0.029135,0.006241
1518,0.471337,0.194049,-0.860341,0.005684,0.025754,0.0062759999999999
1519,0.471265,0.1940589999999999,-0.8603780000000001,0.008212,0.026049,0.008099
1520,0.471222,0.194064,-0.8604,0.0078269999999999,0.027494,0.004581
1521,0.471202,0.1940849999999999,-0.8604069999999999,0.007405,0.030188,0.007166
1522,0.47118,0.19415,-0.8604040000000001,0.006359,0.03168,0.006248
1523,0.471186,0.194212,-0.8603870000000001,0.005453,0.032884,0.0065049999999999
1524,0.471235,0.194279,-0.860345,0.004718,0.0293529999999999,0.006097
1525,0.4712949999999999,0.1943619999999999,-0.860293,0.00394,0.025838,0.006488
1526,0.471314,0.194439,-0.860266,0.005417,0.029102,0.007208
1527,0.471302,0.194511,-0.8602559999999999,0.005565,0.031548,0.003826
1528,0.471272,0.1945869999999999,-0.8602549999999999,0.006252,0.032128,0.005595
1529,0.471213,0.194631,-0.8602780000000001,0.000742,0.029993,0.008471
1530,0.471188,0.19464,-0.860289,0.002109,0.02855,0.007063
1531,0.471176,0.194621,-0.8603,0.004959,0.028737,0.002084
1532,0.471178,0.194598,-0.8603040000000001,0.00392,0.030057,0.005293
1533,0.471182,0.194614,-0.860298,0.008234,0.029477,0.007454
1534,0.471207,0.194621,-0.860283,0.006958,0.027837,0.0081409999999999
1535,0.471221,0.194583,-0.860284,0.00551,0.026929,0.006768
1536,0.471193,0.194563,-0.8603040000000001,0.007277,0.028536,0.00717
1537,0.471176,0.194597,-0.8603049999999999,0.007095,0.029143,0.004546
1538,0.4711979999999999,0.194659,-0.8602790000000001,0.006631,0.030576,0.005787
1539,0.4712949999999999,0.1947549999999999,-0.8602040000000001,0.003665,0.0298389999999999,0.005788
1540,0.471416,0.194866,-0.8601129999999999,0.002476,0.030461,0.008093
1541,0.471518,0.194929,-0.860043,0.001642,0.0310529999999999,0.008495
1542,0.471577,0.194934,-0.860009,0.002087,0.032941,0.007669
1543,0.471558,0.194922,-0.860023,0.0060729999999999,0.029322,0.0072549999999999
1544,0.471499,0.194848,-0.860072,0.00572,0.028205,0.008967
1545,0.471447,0.19478,-0.860115,0.004261,0.027815,0.008217
1546,0.471396,0.194764,-0.8601469999999999,0.00982,0.027343,0.0071959999999999
1547,0.4713479999999999,0.194786,-0.860168,0.006817,0.0280839999999999,0.007553
1548,0.471347,0.194859,-0.860152,0.007367,0.031047,0.00505
1549,0.471395,0.194955,-0.8601040000000001,0.00561,0.032675,0.004757
1550,0.471463,0.195047,-0.8600459999999999,0.002628,0.02825,0.0064849999999999
1551,0.4715,0.195104,-0.8600129999999999,0.005612,0.028361,0.005582
1552,0.4715109999999999,0.19515,-0.8599959999999999,0.005692,0.028681,0.007015
1553,0.4714899999999999,0.195188,-0.86,0.004737,0.029666,0.004378
1554,0.4714569999999999,0.195188,-0.860017,0.002206,0.030718,0.005785
1555,0.4714109999999999,0.195133,-0.8600549999999999,0.004083,0.030361,0.006051
1556,0.4713779999999999,0.195056,-0.8600899999999999,0.004849,0.025204,0.006697
1557,0.4713239999999999,0.1949779999999999,-0.860138,0.006291,0.023925,0.0075069999999999
1558,0.4712909999999999,0.194958,-0.86016,0.007804,0.023441,0.007286
1559,0.4712939999999999,0.195026,-0.860143,0.005726,0.027966,0.006613
1560,0.471326,0.195134,-0.860102,0.005298,0.030055,0.005365
1561,0.471409,0.195276,-0.860024,0.003536,0.030677,0.005058
1562,0.471485,0.195376,-0.8599600000000001,0.003521,0.0307139999999999,0.004475
1563,0.4715609999999999,0.195446,-0.859902,0.004025,0.031269,0.0077599999999999
1564,0.471646,0.195514,-0.8598399999999999,0.004352,0.031781,0.0081549999999999
1565,0.471706,0.195542,-0.8598,0.003468,0.031814,0.005232
1566,0.4717229999999999,0.195516,-0.8597969999999999,0.006014,0.031947,0.006236
1567,0.4716899999999999,0.195434,-0.859834,0.004659,0.028962,0.006196
1568,0.471621,0.195324,-0.8598969999999999,0.0073219999999999,0.026829,0.008395
1569,0.471547,0.195222,-0.8599600000000001,0.007991,0.02481,0.008749
1570,0.471493,0.195185,-0.8599979999999999,0.008029,0.026418,0.008588
1571,0.47147,0.195211,-0.8600049999999999,0.007396,0.028026,0.006642
1572,0.471456,0.195277,-0.8599979999999999,0.007914,0.0290579999999999,0.005857
1573,0.471477,0.195344,-0.8599709999999999,0.004262,0.030379,0.003968
1574,0.471488,0.1953869999999999,-0.8599549999999999,0.001016,0.0310079999999999,0.005601
1575,0.4715,0.195398,-0.8599459999999999,0.003613,0.029913,0.00611
1576,0.4715149999999999,0.195417,-0.859934,0.004575,0.030047,0.006983
1577,0.471499,0.195384,-0.85995,0.004835,0.0277,0.009517
1578,0.471413,0.195313,-0.8600129999999999,0.002753,0.026657,0.005475
1579,0.471325,0.195235,-0.860079,0.005497,0.026719,0.004107
1580,0.471247,0.195185,-0.860133,0.007024,0.027929,0.006709
1581,0.471236,0.195207,-0.8601340000000001,0.004472,0.0293259999999999,0.007855
1582,0.4712689999999999,0.195249,-0.8601059999999999,0.005095,0.028948,0.006392
1583,0.471277,0.195288,-0.860093,0.0062159999999999,0.029459,0.004503
1584,0.4712689999999999,0.1953119999999999,-0.860092,0.005171,0.026597,0.006637
1585,0.4712369999999999,0.195318,-0.860108,0.004334,0.027125,0.004731
1586,0.471224,0.195344,-0.86011,0.005155,0.028243,0.003252
1587,0.471199,0.195425,-0.8601049999999999,0.006783,0.030558,0.0032479999999999
1588,0.47117,0.195548,-0.860093,0.005255,0.0299769999999999,0.0088349999999999
1589,0.4711909999999999,0.195594,-0.8600709999999999,0.00325,0.028252,0.005166
1590,0.471177,0.1955859999999999,-0.86008,0.004516,0.026902,0.003925
1591,0.471128,0.1955609999999999,-0.8601129999999999,0.006594,0.029644,0.004187
1592,0.4711359999999999,0.195572,-0.8601059999999999,0.003977,0.0309899999999999,0.005065
1593,0.471186,0.195581,-0.8600770000000001,0.0045369999999999,0.030661,0.006363
1594,0.4712159999999999,0.195547,-0.860068,0.005163,0.0282079999999999,0.008337
1595,0.471189,0.195498,-0.860094,0.006396,0.026929,0.007951
1596,0.471127,0.195434,-0.860142,0.007571,0.0264899999999999,0.0068099999999999
1597,0.471096,0.195413,-0.8601639999999999,0.007023,0.0276399999999999,0.0064959999999999
1598,0.471124,0.195452,-0.86014,0.005744,0.027311,0.006334
1599,0.471193,0.195493,-0.860093,0.005187,0.0272089999999999,0.006943
1600,0.471256,0.1955299999999999,-0.86005,0.004711,0.029247,0.0067319999999999
1601,0.471282,0.1955609999999999,-0.860029,0.005525,0.0285899999999999,0.00694
1602,0.471262,0.195556,-0.8600399999999999,0.006429,0.02945,0.0077909999999999
1603,0.4712229999999999,0.195526,-0.8600690000000001,0.004104,0.028229,0.008125
1604,0.4711689999999999,0.195483,-0.860108,0.00611,0.027661,0.0054329999999999
1605,0.471122,0.195443,-0.860143,0.005318,0.0282819999999999,0.005727
1606,0.471122,0.195459,-0.860139,0.0066159999999999,0.027899,0.0064099999999999
1607,0.471147,0.195495,-0.860118,0.006194,0.0281839999999999,0.005381
1608,0.471166,0.195552,-0.860094,0.005763,0.027592,0.0066849999999999
1609,0.471179,0.1956099999999999,-0.860074,0.006375,0.027474,0.007489
1610,0.471183,0.195614,-0.8600700000000001,0.005166,0.027622,0.007272
1611,0.471188,0.195635,-0.8600629999999999,0.004321,0.028211,0.0024579999999999
1612,0.471185,0.195656,-0.86006,0.006003,0.026008,0.006056
1613,0.471171,0.195643,-0.8600709999999999,0.0036369999999999,0.027166,0.007135
1614,0.471149,0.195642,-0.860083,0.00488,0.027502,0.006644
1615,0.471138,0.195642,-0.860089,0.006233,0.027991,0.007062
1616,0.471118,0.19564,-0.8601,0.00633,0.027779,0.0068439999999999
1617,0.471103,0.195617,-0.8601139999999999,0.005398,0.02742,0.006201
1618,0.471089,0.195642,-0.860116,0.005398,0.026892,0.0064629999999999
1619,0.471083,0.195661,-0.860115,0.005617,0.0293459999999999,0.0063549999999999
1620,0.4710819999999999,0.195689,-0.860109,0.0037719999999999,0.028707,0.008653
1621,0.471093,0.1957009999999999,-0.8601,0.005515,0.027657,0.006493
1622,0.471088,0.195716,-0.860099,0.005871,0.027474,0.005958
1623,0.4710729999999999,0.195729,-0.8601049999999999,0.0067709999999999,0.030208,0.0062689999999999
1624,0.4710789999999999,0.195762,-0.860094,0.005254,0.027672,0.004518
1625,0.471093,0.195788,-0.86008,0.005759,0.028287,0.00774
1626,0.471096,0.195794,-0.8600770000000001,0.006473,0.0276709999999999,0.005692
1627,0.4710859999999999,0.195799,-0.860082,0.007598,0.027513,0.006444
1628,0.4710649999999999,0.195818,-0.860089,0.005116,0.027311,0.006222
1629,0.4710569999999999,0.195831,-0.8600899999999999,0.005689,0.029725,0.006453
1630,0.47105,0.195843,-0.8600909999999999,0.005421,0.0282779999999999,0.007476
1631,0.47107,0.195873,-0.860074,0.005721,0.026798,0.00642
1632,0.471072,0.195902,-0.860066,0.0048649999999999,0.027518,0.004735
1633,0.471087,0.195933,-0.860051,0.006056,0.027318,0.006886
1634,0.471114,0.19597,-0.860028,0.006654,0.0274339999999999,0.005184
1635,0.471147,0.196052,-0.859991,0.008056,0.027551,0.004736
1636,0.471199,0.196164,-0.8599370000000001,0.007362,0.0278959999999999,0.0076269999999999
1637,0.471255,0.196302,-0.859874,0.007932,0.028216,0.009929
1638,0.471284,0.196421,-0.8598309999999999,0.007903,0.028097,0.009886
1639,0.4713029999999999,0.196526,-0.8597969999999999,0.005031,0.025063,0.008341
1640,0.471301,0.196614,-0.859778,0.003721,0.026088,0.004203
1641,0.471315,0.196726,-0.8597450000000001,0.003706,0.025671,0.004795
1642,0.471376,0.196909,-0.859669,-0.000261,0.029653,0.0060009999999999
1643,0.471483,0.197129,-0.85956,0.000807,0.032257,0.006014
1644,0.471572,0.197256,-0.859482,0.002946,0.029993,0.007325
1645,0.4716109999999999,0.1972819999999999,-0.859455,0.002678,0.0281209999999999,0.005893
1646,0.471605,0.1972539999999999,-0.8594649999999999,0.003935,0.02937,0.0055829999999999
1647,0.471614,0.197192,-0.859474,0.002873,0.029767,0.004035
1648,0.471602,0.197133,-0.8594940000000001,0.004106,0.027507,0.007199
1649,0.471571,0.197029,-0.859535,0.005556,0.024772,0.00869
1650,0.471577,0.196913,-0.859558,0.006206,0.024843,0.006363
1651,0.4715279999999999,0.196842,-0.8596010000000001,0.00978,0.023235,0.009488
1652,0.471502,0.196817,-0.8596219999999999,0.010707,0.025321,0.009753
1653,0.471525,0.196844,-0.8596030000000001,0.009722,0.026254,0.007277
1654,0.471545,0.196866,-0.8595860000000001,0.008664,0.026645,0.005888
1655,0.471562,0.196908,-0.859568,0.004787,0.0257029999999999,0.006251
1656,0.471606,0.19696,-0.8595309999999999,0.0052,0.0259399999999999,0.006947
1657,0.471686,0.197069,-0.8594629999999999,0.002374,0.031721,0.004467
1658,0.471755,0.197143,-0.859408,-0.000548,0.0313569999999999,0.005801
1659,0.471843,0.197165,-0.8593540000000001,-0.0002089999999999,0.0308769999999999,0.005656
1660,0.471869,0.197069,-0.8593620000000001,0.002176,0.0294779999999999,0.002688
1661,0.4717939999999999,0.196879,-0.859447,0.004677,0.027837,0.005412
1662,0.471666,0.196673,-0.859564,0.005415,0.027005,0.008276
1663,0.471541,0.196465,-0.8596809999999999,0.007921,0.027214,0.005906
1664,0.471427,0.196293,-0.8597819999999999,0.006737,0.024624,0.006541
1665,0.4713529999999999,0.196168,-0.8598520000000001,0.008033,0.02513,0.0066409999999999
1666,0.4712989999999999,0.196056,-0.859907,0.0052179999999999,0.025197,0.006009
1667,0.471282,0.196023,-0.859923,0.008134,0.023658,0.009887
1668,0.471307,0.196108,-0.8598899999999999,0.005164,0.0266089999999999,0.0065879999999999
1669,0.471381,0.19621,-0.859826,0.003289,0.02611,0.0034729999999999
1670,0.471471,0.196297,-0.859757,0.0037799999999999,0.0296399999999999,0.003907
1671,0.471509,0.196413,-0.8597100000000001,0.004351,0.0285779999999999,0.005782
1672,0.4715729999999999,0.196494,-0.859656,0.003524,0.026513,0.006186
1673,0.471609,0.196548,-0.8596239999999999,0.005716,0.026108,0.005086
1674,0.4716079999999999,0.1965849999999999,-0.8596159999999999,0.005885,0.027902,0.006131
1675,0.471601,0.1966359999999999,-0.859608,0.005495,0.027393,0.004841
1676,0.471596,0.196659,-0.859606,0.0053479999999999,0.028317,0.007006
1677,0.471603,0.19668,-0.8595969999999999,0.007706,0.026281,0.004617
1678,0.471628,0.196719,-0.859575,0.006812,0.0264399999999999,0.006761
1679,0.4716229999999999,0.1967809999999999,-0.859563,0.006862,0.027157,0.005483
1680,0.471642,0.196839,-0.8595389999999999,0.007209,0.026839,0.00639
1681,0.471657,0.196908,-0.859516,0.004051,0.028693,0.004917
1682,0.471639,0.196941,-0.859518,0.003764,0.028691,0.007162
1683,0.471612,0.196945,-0.859532,0.002738,0.028,0.004277
1684,0.4715859999999999,0.196936,-0.859548,0.003023,0.026269,0.0056359999999999
1685,0.471558,0.196946,-0.859561,0.003906,0.0263209999999999,0.005298
1686,0.471554,0.19695,-0.859562,0.00455,0.0256449999999999,0.005665
1687,0.471552,0.196965,-0.85956,0.0053,0.02618,0.0056479999999999
1688,0.471542,0.196973,-0.859564,0.005509,0.025805,0.006292
1689,0.471542,0.196981,-0.859562,0.005509,0.025797,0.006291
1690,0.471568,0.19704,-0.859534,0.006139,0.0267449999999999,0.008048
1691,0.4715899999999999,0.197079,-0.859513,0.005736,0.02605,0.006104
