,gravity.x,gravity.y,gravity.z,userAcceleration.x,userAcceleration.y,userAcceleration.z
0,0.445615,0.153564,-0.8819549999999999,-0.002774,0.0107739999999999,-0.001315
1,0.441658,0.151373,-0.8843209999999999,-0.007881,0.003931,0.003477
2,0.436679,0.148836,-0.8872200000000001,-0.002902,-0.00815,-0.001391
3,0.431964,0.146377,-0.889932,-0.0016359999999999,-0.0065299999999999,-0.001974
4,0.428105,0.144623,-0.8920819999999999,-0.008229,-0.005432,-0.006936
5,0.4253939999999999,0.143515,-0.8935559999999999,-0.006678,-0.0007379999999999,-0.008391
6,0.424278,0.143242,-0.89413,-0.010231,0.011543,-0.012501
7,0.424185,0.143424,-0.8941450000000001,-0.005362,0.023797,-0.009511
8,0.424164,0.143628,-0.894122,-0.0032049999999999,0.0291779999999999,-0.0099
9,0.423874,0.143556,-0.894272,0.0032049999999999,0.024245,-0.0122069999999999
10,0.423527,0.143394,-0.8944620000000001,-0.000325,0.016381,-0.009743
11,0.42312,0.143143,-0.894695,-0.005517,0.007278,-0.008259
12,0.422897,0.143001,-0.8948229999999999,-0.001358,-0.001643,-0.003309
13,0.422971,0.142982,-0.894791,-0.0032479999999999,-0.002251,-0.000244
14,0.4232609999999999,0.143067,-0.89464,-0.001004,-0.00026,0.001086
15,0.423526,0.143143,-0.894503,-0.0002319999999999,0.003143,0.002886
16,0.423799,0.143175,-0.894368,-0.002244,0.001235,-0.001094
17,0.424212,0.143276,-0.894156,-0.00342,0.000157,-0.001138
18,0.425026,0.1436079999999999,-0.893717,-0.009529,0.0008619999999999,-0.006354
19,0.4263409999999999,0.144224,-0.892991,-0.0056409999999999,0.01317,-0.009994
20,0.427762,0.145002,-0.892185,-0.005017,0.014834,-0.009579
21,0.429162,0.145688,-0.8914,-0.0073019999999999,0.012683,-0.007647
22,0.4305319999999999,0.146317,-0.8906360000000001,0.000483,0.013625,-0.006962
23,0.431874,0.146895,-0.889891,0.000332,0.016329,-0.007051
24,0.43303,0.147252,-0.8892700000000001,-0.006806,0.012522,-0.010892
25,0.434322,0.147833,-0.888544,-0.004298,0.014628,-0.005682
26,0.43527,0.1483,-0.888001,0.0064719999999999,0.015961,9.3e-05
27,0.435367,0.148325,-0.88795,0.011425,0.0163479999999999,0.005564
28,0.434354,0.147766,-0.888539,0.005755,0.00911,0.006764
29,0.4329939999999999,0.146971,-0.8893340000000001,-0.001186,0.000795,0.0016539999999999
30,0.432009,0.146272,-0.889928,-0.003527,0.00035,-0.000895
31,0.431587,0.146003,-0.890177,-0.013725,-0.007026,-0.005102
32,0.431731,0.146152,-0.890083,-0.01599,-0.000598,-0.0046159999999999
33,0.432135,0.146442,-0.8898389999999999,-0.0165319999999999,0.008251,-0.003395
34,0.432185,0.146542,-0.889798,-0.012675,0.011829,-0.004992
35,0.431258,0.146174,-0.890309,-0.011931,0.012975,-0.005749
36,0.42958,0.1454599999999999,-0.891236,-0.0145259999999999,0.011767,-0.0059039999999999
37,0.42772,0.144587,-0.892272,-0.010087,0.002172,-0.000367
38,0.426058,0.143846,-0.8931870000000001,-0.005145,-0.009477,-0.009752
39,0.425098,0.143738,-0.893661,0.007626,0.002838,-0.014862
40,0.424883,0.144067,-0.893711,0.006239,0.011283,-0.005566
41,0.425071,0.144484,-0.8935540000000001,0.004464,0.020677,-0.002915
42,0.425181,0.144776,-0.8934549999999999,0.007376,0.0226889999999999,-0.002877
43,0.4251029999999999,0.144773,-0.893492,0.005363,0.0257279999999999,-0.004442
44,0.424827,0.144645,-0.8936440000000001,0.004983,0.027001,-0.004778
45,0.424496,0.144394,-0.893842,0.003482,0.022309,-0.008594
46,0.424097,0.14405,-0.8940870000000001,0.0004179999999999,0.013314,-0.005678
47,0.4236939999999999,0.143667,-0.894339,-0.002445,0.006175,-0.001611
48,0.423409,0.14334,-0.8945270000000001,-0.005959,-0.006758,0.001109
49,0.423343,0.143333,-0.894559,-0.007679,-0.008598,-0.001178
50,0.423566,0.143472,-0.894431,-0.010617,-0.0069819999999999,-0.003075
51,0.423984,0.14377,-0.894185,-0.010242,0.003904,-0.002696
52,0.424439,0.14402,-0.8939290000000001,-0.0077519999999999,0.009926,-0.0070409999999999
53,0.4248229999999999,0.144256,-0.893709,-0.00777,0.013322,-0.0058119999999999
54,0.424954,0.144342,-0.893633,-0.012341,0.010886,-0.0131669999999999
55,0.42508,0.144515,-0.893545,-0.006409,0.01378,-0.008311
56,0.425352,0.144682,-0.893388,-0.0072459999999999,0.007494,-0.006987
57,0.425701,0.144919,-0.893183,-0.004254,0.009027,-0.004232
58,0.425925,0.14509,-0.893049,-0.007987,0.0058189999999999,-0.003954
59,0.425928,0.145202,-0.8930290000000001,0.0113739999999999,0.027131,0.005059
60,0.425152,0.1448829999999999,-0.893451,0.002766,0.005782,-0.004681
61,0.4248189999999999,0.144716,-0.8936360000000001,0.004303,0.008756,-0.0045119999999999
62,0.424967,0.144731,-0.8935639999999999,0.003118,0.007979,-0.0016539999999999
63,0.425259,0.144864,-0.8934030000000001,-0.003125,0.009509,0.000718
64,0.425371,0.1448839999999999,-0.8933459999999999,0.001615,0.010496,-0.001597
65,0.42543,0.14487,-0.8933209999999999,-0.000519,0.009061,-0.002798
66,0.425451,0.1448289999999999,-0.893317,0.001001,0.010582,-0.0063409999999999
67,0.425435,0.144762,-0.893336,-0.00382,0.007749,-0.0065209999999999
68,0.425545,0.144769,-0.893282,-0.006569,0.005499,-0.007123
69,0.425742,0.144865,-0.893173,-0.005439,0.0078,-0.004807
70,0.4260279999999999,0.145007,-0.893013,-0.00812,0.009228,-0.007454
71,0.426276,0.145154,-0.8928709999999999,-0.00611,0.008731,-0.005047
72,0.426573,0.145273,-0.89271,-0.006529,0.010794,-0.0058649999999999
73,0.426904,0.145432,-0.892526,-0.002313,0.010818,-0.003638
74,0.427126,0.145558,-0.8923989999999999,0.002043,0.015346,-0.001384
75,0.426861,0.145366,-0.8925569999999999,0.009632,0.018834,0.006495
76,0.425677,0.144584,-0.893249,0.013211,0.020058,0.005508
77,0.424015,0.1435799999999999,-0.894201,0.014172,0.009587,-0.002726
78,0.423059,0.1428849999999999,-0.8947649999999999,0.007483,0.0026829999999999,-0.001475
79,0.423191,0.142786,-0.894719,-0.00182,0.007208,-0.008968
80,0.423941,0.143097,-0.8943139999999999,-0.002387,0.012329,-0.001072
81,0.424402,0.143235,-0.894073,-0.001963,0.0138229999999999,0.004806
82,0.424654,0.143173,-0.893963,-0.016253,-0.000977,-0.001377
83,0.425059,0.1431839999999999,-0.893769,-0.018778,0.0008289999999999,-0.009307
84,0.425696,0.143417,-0.8934290000000001,-0.023138,0.0028079999999999,-0.015431
85,0.42645,0.143787,-0.893009,-0.026792,0.003628,-0.019176
86,0.427253,0.1441609999999999,-0.8925649999999999,-0.015678,0.011326,-0.015974
87,0.4276649999999999,0.1443839999999999,-0.892331,-0.006675,0.012995,-0.00902
88,0.427577,0.144394,-0.8923719999999999,0.002843,0.013871,-0.002464
89,0.427176,0.14429,-0.892581,0.006265,0.011731,-0.000867
90,0.426605,0.1441609999999999,-0.892875,0.014145,0.022678,0.000587
91,0.4259449999999999,0.143956,-0.893223,0.003788,0.011302,-0.000637
92,0.425598,0.1438,-0.8934139999999999,0.005097,0.009979,0.000286
93,0.425675,0.143808,-0.893375,0.006057,0.005545,0.006382
94,0.426069,0.14397,-0.8931620000000001,-0.000166,-0.0023989999999999,0.002491
95,0.426934,0.144361,-0.8926850000000001,-0.001046,-0.001584,0.0016179999999999
96,0.42838,0.145124,-0.891868,-0.010564,-0.002729,-0.0034869999999999
97,0.4299949999999999,0.146024,-0.8909440000000001,-0.00899,0.015688,-0.008516
98,0.431281,0.146728,-0.8902059999999999,-0.010261,0.018571,-0.011512
99,0.4321029999999999,0.1471029999999999,-0.8897459999999999,-0.010137,0.019538,-0.012705
100,0.432314,0.147204,-0.8896270000000001,-0.016069,0.005079,-0.010123
101,0.432629,0.147329,-0.889453,-0.016385,0.004953,-0.010297
102,0.4333909999999999,0.1478529999999999,-0.8889950000000001,-0.00938,0.007115,-0.010633
103,0.4343359999999999,0.148623,-0.8884049999999999,0.005682,0.023771,-0.007972
104,0.4349369999999999,0.149171,-0.888019,0.0022429999999999,0.0281519999999999,-0.006756
105,0.435327,0.149382,-0.887792,0.001593,0.023073,-0.002955
106,0.435527,0.149361,-0.887698,0.000661,0.008003,0.006915
107,0.435775,0.1494079999999999,-0.887568,0.003129,-0.010385,0.0125379999999999
108,0.436276,0.149746,-0.887265,0.01543,-0.00996,0.015851
109,0.4367279999999999,0.150063,-0.8869889999999999,0.017679,-0.003747,0.01469
110,0.43705,0.150193,-0.886808,0.0085519999999999,-0.002717,0.009337
111,0.4371779999999999,0.15026,-0.886734,0.008425,-0.001884,0.004624
112,0.437285,0.150312,-0.8866729999999999,0.001284,0.0072959999999999,0.003036
113,0.437297,0.150272,-0.8866729999999999,-0.001186,0.018032,-0.010529
114,0.436868,0.150081,-0.886917,-0.001749,0.022557,-0.014221
115,0.436187,0.149691,-0.887318,-0.009536,0.023008,-0.013362
116,0.435316,0.149238,-0.8878219999999999,-0.01602,0.0272759999999999,-0.014735
117,0.434349,0.1487609999999999,-0.888375,-0.016121,0.023007,-0.018058
118,0.433527,0.148316,-0.8888510000000001,-0.013056,0.019408,-0.019428
119,0.4328329999999999,0.1479099999999999,-0.889257,-0.0151539999999999,0.014688,-0.014338
120,0.432087,0.1474599999999999,-0.8896950000000001,-0.011554,0.012163,-0.00772
121,0.4311939999999999,0.146967,-0.890209,-0.002757,0.004186,-0.003834
122,0.430364,0.146575,-0.890675,0.006434,0.001527,0.004018
123,0.429533,0.146088,-0.891156,0.009584,-0.001038,0.003263
124,0.42858,0.1456579999999999,-0.8916860000000001,0.011835,-0.004132,0.00724
125,0.427875,0.145405,-0.892065,0.0130879999999999,0.000988,0.005758
126,0.4276319999999999,0.145398,-0.892183,0.0076409999999999,0.009525,-0.000395
127,0.427843,0.145531,-0.8920600000000001,-0.003267,0.0181199999999999,-0.003463
128,0.4285029999999999,0.145695,-0.891716,-0.01029,0.018932,-0.00843
129,0.429318,0.145912,-0.8912889999999999,-0.011563,0.023232,-0.012306
130,0.430021,0.145999,-0.890935,-0.011961,0.024182,-0.0136669999999999
131,0.43012,0.145779,-0.8909239999999999,-0.0141199999999999,0.0278959999999999,-0.014121
132,0.429407,0.145137,-0.891373,-0.013666,0.003728,-0.0066989999999999
133,0.428364,0.144315,-0.892007,-0.010106,-0.023389,0.002222
134,0.427631,0.143786,-0.892444,-0.004352,-0.0396899999999999,0.01244
135,0.427463,0.143801,-0.892523,0.000683,-0.037249,0.01499
136,0.427559,0.144311,-0.892395,0.009804,-0.006829,0.008483
137,0.427846,0.144903,-0.8921610000000001,0.013942,0.0147949999999999,0.001551
138,0.428183,0.1454359999999999,-0.891912,0.015588,0.02386,-0.001551
139,0.428434,0.145623,-0.891761,0.00812,0.035499,-0.007836
140,0.428546,0.145722,-0.891691,0.010434,0.037383,-0.008532
141,0.428754,0.145697,-0.891595,-0.0001189999999999,0.035547,-0.009512
142,0.428921,0.145557,-0.8915379999999999,-0.005077,0.030514,-0.012286
143,0.428826,0.145302,-0.891625,-0.0042049999999999,0.020241,-0.008903
144,0.428601,0.145016,-0.8917799999999999,-0.0064819999999999,0.009235,-0.005742
145,0.428302,0.1448289999999999,-0.8919540000000001,-0.0072209999999999,-0.003303,-0.0017989999999999
146,0.4280319999999999,0.144679,-0.892108,-0.006875,-0.005046,-0.0017829999999999
147,0.427767,0.14457,-0.8922530000000001,-0.007448,-0.003365,-0.001271
148,0.427484,0.144556,-0.8923909999999999,-0.010324,0.006186,-0.007679
149,0.427209,0.144503,-0.892531,-0.004739,0.015333,-0.010286
150,0.426863,0.144406,-0.8927120000000001,-0.006209,0.0197479999999999,-0.008274
151,0.42655,0.144207,-0.8928940000000001,-0.007284,0.017979,-0.004369
152,0.426141,0.143929,-0.893134,-0.007333,0.011833,-0.002725
153,0.425764,0.143654,-0.893358,-0.004499,0.003547,-0.00276
154,0.425635,0.143519,-0.893441,-0.003104,0.001165,-0.000525
155,0.425633,0.143514,-0.893443,-0.001927,7.099999999999999e-05,0.001124
156,0.425622,0.143541,-0.893444,0.001181,0.004103,0.001583
157,0.425592,0.143547,-0.893457,0.004019,0.008125,-8.2e-05
158,0.425466,0.143471,-0.8935290000000001,0.001993,0.008476,0.002157
159,0.4252579999999999,0.143362,-0.8936459999999999,0.002217,0.009806,-0.00113
160,0.4251729999999999,0.1433299999999999,-0.893691,0.001707,0.011043,-0.001679
161,0.425196,0.143348,-0.8936780000000001,0.001944,0.010842,-0.002715
162,0.4252829999999999,0.143424,-0.893624,0.001398,0.015755,-0.003822
163,0.425353,0.143443,-0.8935879999999999,-0.000472,0.011769,-0.004438
164,0.42533,0.143399,-0.8936059999999999,0.000863,0.012149,-0.0057469999999999
165,0.425164,0.143292,-0.893702,-0.0025109999999999,0.014393,-0.00884
166,0.424968,0.1431839999999999,-0.893812,-0.0031079999999999,0.014516,-0.0077989999999999
167,0.424806,0.143109,-0.8939010000000001,-0.006212,0.011921,-0.011052
168,0.424833,0.143147,-0.893882,-0.004606,0.008678,-0.010033
169,0.4250239999999999,0.143311,-0.893766,-0.005621,0.007599,-0.0027649999999999
170,0.4251439999999999,0.143445,-0.8936870000000001,-0.0073129999999999,0.011019,-0.003561
171,0.425231,0.143501,-0.8936370000000001,-0.009063,0.008034,-0.005442
172,0.4253149999999999,0.143543,-0.89359,-0.006598,0.0063289999999999,-0.00471
173,0.4253949999999999,0.143613,-0.89354,-0.007212,0.004382,-0.003646
174,0.425541,0.143697,-0.893457,-0.005055,0.008754,-0.003256
175,0.4257069999999999,0.143777,-0.893365,-0.004076,0.0075599999999999,-0.005362
176,0.4258,0.143886,-0.8933030000000001,8.8e-05,0.009679,-0.001335
177,0.425889,0.143945,-0.893251,0.0004559999999999,0.010306,-0.002043
178,0.425933,0.144011,-0.8932200000000001,0.002977,0.011354,-0.001143
179,0.425929,0.144018,-0.8932209999999999,0.001516,0.009959,-0.000975
180,0.42586,0.144011,-0.8932549999999999,0.003431,0.00699,9.7e-05
181,0.4258729999999999,0.144014,-0.8932479999999999,0.002273,0.011534,-0.0014199999999999
182,0.425884,0.143999,-0.8932450000000001,0.0038799999999999,0.0121599999999999,-6.500000000000001e-05
183,0.425796,0.143948,-0.8932959999999999,0.002763,0.01012,-0.002578
184,0.42575,0.143926,-0.8933209999999999,-3e-05,0.010478,-0.003041
185,0.425822,0.1439619999999999,-0.893281,-0.002466,0.009511,-0.003127
186,0.4258619999999999,0.143978,-0.893259,-0.003468,0.0090829999999999,-0.005362
187,0.425721,0.1438839999999999,-0.893342,-0.008088,0.005714,-0.002059
188,0.425613,0.143804,-0.8934059999999999,-0.009719,0.005457,-0.007214
189,0.425521,0.143748,-0.893459,-0.010893,0.007314,-0.007252
190,0.425377,0.14375,-0.8935270000000001,-0.006722,0.007251,-0.004438
191,0.425231,0.143733,-0.893599,-0.005081,0.005086,-0.00583
192,0.42504,0.143736,-0.89369,0.003152,0.0112629999999999,-0.003375
193,0.4247649999999999,0.143705,-0.893825,0.0071959999999999,0.014162,-0.002827
194,0.424367,0.143577,-0.894035,0.0074569999999999,0.01693,-0.0021899999999999
195,0.4238949999999999,0.143428,-0.894282,0.006204,0.017079,-0.00324
196,0.423626,0.143307,-0.89443,0.002568,0.014713,-0.004206
197,0.423631,0.143284,-0.894431,-0.000215,0.012707,-0.001001
198,0.423817,0.143314,-0.894338,-0.002995,0.010419,-0.004878
199,0.424214,0.143469,-0.894125,-0.002843,0.008264,-0.0068
200,0.424784,0.1437369999999999,-0.893811,-0.00271,0.009263,-0.00249
201,0.4253949999999999,0.143982,-0.893481,-0.010554,0.007126,-0.006543
202,0.425785,0.1441839999999999,-0.8932629999999999,-0.0074959999999999,0.0106319999999999,-0.005877
203,0.4259229999999999,0.14427,-0.893183,-0.0073739999999999,0.008333,-0.009542
204,0.426016,0.1443829999999999,-0.89312,0.000971,0.016353,-0.0058969999999999
205,0.425897,0.144344,-0.893183,-0.008523,0.004338,-0.002706
206,0.425695,0.144305,-0.893286,-0.000539,0.007597,0.0004639999999999
207,0.425426,0.144224,-0.8934270000000001,-0.002819,0.007387,0.000574
208,0.425197,0.144179,-0.893543,-0.000683,0.0076,-0.00021
209,0.4251,0.144182,-0.893589,0.001185,0.009641,-0.001125
210,0.425112,0.144218,-0.8935780000000001,0.0015689999999999,0.01394,-0.001564
211,0.4249819999999999,0.14419,-0.8936440000000001,0.001776,0.014853,-0.001559
212,0.4246819999999999,0.144057,-0.893808,0.005021,0.014863,0.000452
213,0.424336,0.143874,-0.8940020000000001,0.00233,0.010575,-0.0012619999999999
214,0.424044,0.143708,-0.894167,0.002118,0.00949,0.000551
215,0.423864,0.143581,-0.894273,0.001535,0.009236,-0.003204
216,0.423818,0.143558,-0.8942979999999999,-0.003423,0.006787,-0.001591
217,0.423952,0.143618,-0.894225,-0.000566,0.013472,-0.0031899999999999
218,0.4240569999999999,0.14364,-0.894172,-0.0046689999999999,0.00643,-0.001839
219,0.424106,0.1436579999999999,-0.8941459999999999,-0.005054,0.0099519999999999,-0.00539
220,0.424162,0.143674,-0.894116,-0.004775,0.0134159999999999,-0.006213
221,0.424251,0.143747,-0.8940620000000001,-0.005321,0.010642,-0.006572
222,0.4243119999999999,0.143765,-0.8940309999999999,-0.005992,0.011661,-0.006604
223,0.4243149999999999,0.14379,-0.894025,-0.002425,0.011727,-0.005389
224,0.42428,0.143771,-0.8940450000000001,-0.003214,0.010602,-0.0035229999999999
225,0.424079,0.143704,-0.894151,-0.000846,0.006717,-0.002806
226,0.4238229999999999,0.1436309999999999,-0.894284,-0.002939,0.007035,-0.001773
227,0.4236569999999999,0.143571,-0.894372,-0.004254,0.0051259999999999,-0.00524
228,0.423401,0.143505,-0.8945040000000001,-0.001862,0.009251,-0.0020559999999999
229,0.4231029999999999,0.143396,-0.8946629999999999,0.001153,0.008078,-0.004034
230,0.422914,0.143364,-0.894757,0.000486,0.013847,-0.0033299999999999
231,0.422838,0.143318,-0.8948010000000001,-0.000352,0.010109,-0.004125
232,0.4227939999999999,0.143335,-0.894818,0.000561,0.01174,-0.005038
233,0.4228979999999999,0.143417,-0.894756,0.001739,0.011597,-0.002796
234,0.423114,0.143564,-0.8946299999999999,-0.002719,0.010046,-0.003563
235,0.423326,0.143691,-0.89451,-0.000489,0.0139479999999999,-0.0025239999999999
236,0.423464,0.143744,-0.894436,-0.002001,0.01365,-0.006977
237,0.4235489999999999,0.143786,-0.894389,-0.0024059999999999,0.010739,-0.003667
238,0.4236229999999999,0.143782,-0.8943549999999999,-0.005029,0.00789,-0.003991
239,0.423634,0.143759,-0.8943530000000001,-0.002919,0.00683,-0.004023
240,0.423585,0.143724,-0.894382,-0.001832,0.007277,-0.001431
241,0.423583,0.143747,-0.894379,-0.000731,0.010413,-0.002441
242,0.423568,0.143734,-0.894388,-0.001373,0.011463,-0.003973
243,0.4235779999999999,0.143725,-0.894385,-0.001718,0.01074,-0.005304
244,0.423626,0.143716,-0.8943639999999999,-0.002285,0.010215,-0.002182
245,0.423691,0.143753,-0.8943270000000001,-0.002961,0.008545,-0.002432
246,0.42382,0.143799,-0.894258,-0.000984,0.007431,-0.0035229999999999
247,0.423997,0.143879,-0.8941620000000001,0.00151,0.009579,-0.001239
248,0.4241109999999999,0.1439609999999999,-0.8940950000000001,-0.003075,0.010565,-0.004618
249,0.424206,0.143991,-0.8940450000000001,-0.001797,0.010123,-0.003783
250,0.424282,0.144026,-0.8940030000000001,-0.0030629999999999,0.011248,-0.00654
251,0.4243229999999999,0.144049,-0.8939799999999999,-0.003073,0.009653,-0.004488
252,0.424332,0.144038,-0.893977,-0.0028079999999999,0.0104879999999999,-0.00385
253,0.4243189999999999,0.144032,-0.893984,-0.00104,0.010448,-0.005277
254,0.424237,0.143996,-0.8940290000000001,-0.001035,0.010011,-0.001296
255,0.424159,0.143965,-0.894071,-0.002269,0.008958,-0.004076
256,0.424085,0.143938,-0.8941100000000001,-0.00015,0.009306,-0.0039
257,0.423989,0.143904,-0.8941620000000001,-0.000206,0.008409,-0.004215
258,0.42395,0.143886,-0.894183,-0.000198,0.010274,-0.00401
259,0.4239479999999999,0.143892,-0.894183,-0.003355,0.007704,-0.00398
260,0.424039,0.143923,-0.894135,-0.003095,0.008832,-0.00415
261,0.424177,0.143991,-0.894058,-0.002851,0.010657,-0.004699
262,0.424264,0.144005,-0.894015,-0.004968,0.005668,-0.009626
263,0.424321,0.144009,-0.8939870000000001,-0.002416,0.011386,-0.007411
264,0.424275,0.143959,-0.8940170000000001,-0.005146,0.00988,-0.004039
265,0.424195,0.143923,-0.8940610000000001,-0.0039829999999999,0.008603,-0.0078409999999999
266,0.424064,0.143862,-0.894133,-0.002478,0.00807,-0.004167
267,0.424063,0.143845,-0.894136,-0.002081,0.006668,-0.000868
268,0.423981,0.1438559999999999,-0.894173,-0.003754,0.008167,-0.002403
269,0.4239159999999999,0.143876,-0.894201,-0.003048,0.012542,-0.004511
270,0.423875,0.143903,-0.894216,0.0002279999999999,0.010409,-0.006938
271,0.423966,0.143952,-0.894165,-0.002442,0.010924,-0.004349
272,0.424093,0.14399,-0.894099,-0.001974,0.009208,-0.002294
273,0.424137,0.144013,-0.8940739999999999,-0.0010869999999999,0.008636,-0.001541
274,0.424138,0.143996,-0.894076,-0.003636,0.009034,-0.002179
275,0.424147,0.143992,-0.894072,-0.001189,0.006978,-0.000993
276,0.424196,0.144015,-0.8940459999999999,-0.002657,0.010633,-0.002271
277,0.424228,0.144023,-0.8940290000000001,-0.001056,0.006734,-0.00537
278,0.424285,0.144058,-0.8939969999999999,-0.0041189999999999,0.009262,-0.003632
279,0.424342,0.144075,-0.893967,-0.002848,0.00746,-0.004837
280,0.424384,0.144082,-0.8939450000000001,-0.002097,0.007422,-0.003592
281,0.424382,0.144051,-0.8939520000000001,-0.004978,0.008094,-0.004883
282,0.4243939999999999,0.144058,-0.8939450000000001,-0.0024879999999999,0.007843,-0.003379
283,0.424487,0.1441349999999999,-0.8938879999999999,-0.001544,0.009063,-0.005434
284,0.424626,0.144192,-0.893813,-0.001362,0.01102,-0.003083
285,0.424646,0.144192,-0.893803,-0.0034729999999999,0.010013,-0.002681
286,0.424596,0.144154,-0.893833,-0.0018969999999999,0.010707,-0.004192
287,0.424547,0.1441339999999999,-0.89386,-0.000978,0.010911,-0.0046689999999999
288,0.424562,0.144127,-0.893854,-0.001726,0.01043,-0.004324
289,0.4246109999999999,0.1441339999999999,-0.8938290000000001,-0.002355,0.008301,-0.001267
290,0.42465,0.144193,-0.8938010000000001,-0.003691,0.009814,-0.004697
291,0.424662,0.144196,-0.8937950000000001,-0.0027719999999999,0.009231,-0.004383
292,0.42467,0.144213,-0.893789,-0.004824,0.008924,-0.004084
293,0.424689,0.144232,-0.893777,-0.0036229999999999,0.009745,-0.003745
294,0.4247,0.144247,-0.893769,-0.003145,0.008265,-0.005508
295,0.42471,0.144256,-0.8937620000000001,-0.002866,0.008439,-0.005255
296,0.424691,0.144282,-0.893767,-0.000863,0.0089459999999999,-0.003953
297,0.424627,0.144251,-0.893803,0.00091,0.0103959999999999,-0.001003
298,0.424433,0.144112,-0.893917,0.000707,0.009559,-0.001423
299,0.4241439999999999,0.143964,-0.894078,0.00243,0.010653,-0.0045579999999999
300,0.423868,0.143797,-0.894236,0.0017,0.009524,-0.003453
301,0.423521,0.143614,-0.89443,0.001222,0.0099049999999999,-0.0046939999999999
302,0.423196,0.143484,-0.8946049999999999,-0.004693,0.006845,-0.001971
303,0.422828,0.143254,-0.894816,-0.001945,0.011287,-0.002783
304,0.42256,0.143051,-0.894975,-0.004195,0.0067909999999999,-0.013488
305,0.422668,0.143091,-0.894917,-0.008071,0.009222,-0.008495
306,0.422932,0.143197,-0.894776,-0.012897,0.011299,-0.004974
307,0.4231319999999999,0.143263,-0.8946700000000001,-0.011557,0.008287,-0.0092909999999999
308,0.423339,0.143335,-0.894561,-0.007003,0.0084739999999999,-0.006822
309,0.423576,0.143449,-0.89443,-0.002495,0.00688,-0.005136
310,0.423696,0.143526,-0.8943610000000001,-0.001181,0.008406,-0.0024289999999999
311,0.423725,0.143518,-0.894349,-0.002842,0.00849,-0.0034479999999999
312,0.423533,0.143432,-0.8944540000000001,0.000295,0.009263,0.001006
313,0.4233189999999999,0.14334,-0.8945700000000001,0.002203,0.0076159999999999,-0.001777
314,0.423314,0.14332,-0.894575,0.003871,0.006598,-0.0031609999999999
315,0.423446,0.143403,-0.8944989999999999,0.00055,0.007125,-0.002046
316,0.423613,0.143504,-0.8944040000000001,-0.000776,0.010121,-0.000814
317,0.423729,0.143572,-0.894338,0.000694,0.012602,-0.002802
318,0.423822,0.1436,-0.8942889999999999,0.0010279999999999,0.009949,-0.003355
319,0.4239739999999999,0.143654,-0.894209,-0.006402,0.009041,-0.006304
320,0.424185,0.143696,-0.8941020000000001,-0.008139,0.008236,-0.005816
321,0.424313,0.143751,-0.894033,-0.004361,0.00812,-0.008784
322,0.424302,0.143746,-0.8940379999999999,-0.005235,0.008858,-0.006078
323,0.424179,0.143617,-0.8941180000000001,-0.000946,0.0115959999999999,-0.007112
324,0.42403,0.143459,-0.894214,-0.006519,0.009769,-0.007657
325,0.4242,0.143557,-0.894117,-0.005697,0.003187,-0.008654
326,0.4248479999999999,0.1439,-0.893754,-0.005308,0.007055,-0.00447
327,0.425599,0.144297,-0.893333,-0.0028239999999999,0.00997,-0.002816
328,0.4262439999999999,0.144641,-0.89297,0.00114,0.011487,-0.000997
329,0.426613,0.144808,-0.892766,0.001518,0.009779,3.6e-05
330,0.4266689999999999,0.14482,-0.8927379999999999,0.0044979999999999,0.012972,-0.000649
331,0.426451,0.144688,-0.892863,0.001192,0.008449,-0.002538
332,0.4261939999999999,0.14452,-0.893013,0.0009449999999999,0.008648,-0.003471
333,0.426099,0.144465,-0.893067,-0.000318,0.0074819999999999,-0.003173
334,0.426167,0.144531,-0.893025,-0.005207,0.006837,-0.004421
335,0.4262689999999999,0.144629,-0.8929600000000001,-0.003921,0.008005,-0.001495
336,0.4263109999999999,0.1446579999999999,-0.892935,-0.008556,0.007946,-0.0033659999999999
337,0.426339,0.144678,-0.892918,-0.007622,0.0099239999999999,-0.00793
338,0.4263729999999999,0.144722,-0.8928950000000001,-0.006192,0.009118,-0.007053
339,0.42639,0.144779,-0.8928780000000001,-0.004484,0.011196,-0.006811
340,0.426428,0.1448829999999999,-0.892843,-0.00376,0.008407,-0.006678
341,0.426501,0.145024,-0.892785,-0.005511,0.009868,-0.004737
342,0.426593,0.145084,-0.8927309999999999,-0.004092,0.009746,-0.005462
343,0.4266649999999999,0.145127,-0.89269,-0.003325,0.00859,-0.0069069999999999
344,0.426666,0.145144,-0.8926860000000001,-0.00351,0.010023,-0.003432
345,0.426721,0.145125,-0.8926629999999999,-0.003503,0.0067909999999999,-0.004675
346,0.426871,0.1451579999999999,-0.8925860000000001,-0.002539,0.0078269999999999,-0.00489
347,0.427139,0.145321,-0.892431,-0.005676,0.003696,-0.0035039999999999
348,0.427467,0.14549,-0.8922469999999999,-0.001823,0.0077849999999999,8.1e-05
349,0.427538,0.145522,-0.892208,0.0002569999999999,0.010728,0.0012929999999999
350,0.427562,0.145541,-0.892193,0.0019579999999999,0.011533,-0.006992
351,0.42762,0.145583,-0.892159,-0.000801,0.011049,-0.003822
352,0.427712,0.145629,-0.892107,-0.001961,0.00969,-0.002058
353,0.427857,0.145721,-0.892022,-0.000306,0.008713,-0.004371
354,0.427976,0.145785,-0.8919549999999999,-0.000135,0.009183,-0.001493
355,0.427966,0.145785,-0.8919590000000001,-0.001575,0.006879,-0.003701
356,0.427952,0.145774,-0.891968,-0.002751,0.007943,-0.003342
357,0.428138,0.145879,-0.891862,-0.0060799999999999,0.007594,-0.0082849999999999
358,0.428447,0.146088,-0.8916790000000001,-0.004253,0.008652,-0.008254
359,0.42885,0.146376,-0.891438,-0.004946,0.010851,-0.0069989999999999
360,0.428911,0.14642,-0.891402,-0.006639,0.009372,-0.003832
361,0.4287609999999999,0.146371,-0.891482,-0.004582,0.011023,-0.006437
362,0.42846,0.146194,-0.891655,-0.010095,0.007691,-0.005562
363,0.428029,0.145983,-0.8918969999999999,-0.007344,0.0048189999999999,-0.008387
364,0.427709,0.145862,-0.89207,-0.0033009999999999,0.010327,-0.004811
365,0.4273119999999999,0.145713,-0.892285,-0.002812,0.010094,-0.003238
366,0.426774,0.145489,-0.8925790000000001,0.003203,0.010761,0.000641
367,0.4261109999999999,0.145196,-0.892943,0.0022489999999999,0.009147,0.003218
368,0.425427,0.144873,-0.893322,0.0064269999999999,0.006754,0.000331
369,0.424886,0.144612,-0.8936209999999999,0.004084,0.006618,0.000357
370,0.424679,0.144476,-0.893742,-0.003445,0.001642,0.000569
371,0.424795,0.144505,-0.893682,-0.005286,0.00497,-0.003352
372,0.425077,0.14462,-0.8935290000000001,-0.005568,0.008395,-0.00764
373,0.425378,0.14479,-0.893358,-0.010583,0.0098269999999999,-0.011793
374,0.42567,0.1449359999999999,-0.8931959999999999,-0.010662,0.012169,-0.008263
375,0.425877,0.145045,-0.8930790000000001,-0.008778,0.009007,-0.010379
376,0.426058,0.145163,-0.8929739999999999,-0.016299,0.000619,-0.0097209999999999
377,0.4261609999999999,0.145303,-0.8929020000000001,-0.0055829999999999,0.006965,9.5e-05
378,0.426095,0.145345,-0.892927,-0.005074,0.009501,-0.006792
379,0.4260609999999999,0.145388,-0.8929360000000001,-0.001714,0.013197,-0.0051049999999999
380,0.42605,0.145405,-0.8929379999999999,0.000159,0.011761,-0.003332
381,0.426,0.1453839999999999,-0.892966,0.002864,0.013323,-0.004892
382,0.425906,0.145346,-0.8930170000000001,0.005887,0.01333,-0.001362
383,0.425772,0.145285,-0.893091,0.0060979999999999,0.011865,-0.000434
384,0.425658,0.145203,-0.893158,0.001862,0.007903,-0.000611
385,0.425766,0.145231,-0.8931020000000001,0.008346,0.01694,0.003072
386,0.425602,0.145084,-0.8932040000000001,-0.007648,0.002041,0.001053
387,0.42546,0.145019,-0.893282,0.001588,0.005204,-0.005613
388,0.425404,0.144963,-0.8933180000000001,-0.000813,0.006145,-0.00367
389,0.425413,0.1449349999999999,-0.8933180000000001,-0.009825,0.005913,-0.005562
390,0.425387,0.144873,-0.8933409999999999,-0.0097989999999999,0.005975,-0.005539
391,0.425296,0.144832,-0.8933909999999999,-0.00896,0.008809,-0.007137
392,0.425222,0.144807,-0.89343,-0.006185,0.006622,-0.00719
393,0.425225,0.144823,-0.893426,-0.006219,0.009321,-0.0075599999999999
394,0.425243,0.1448819999999999,-0.893408,-0.00584,0.006241,-0.006906
395,0.4251819999999999,0.144916,-0.893431,-0.003506,0.009625,-0.002779
396,0.4250739999999999,0.144906,-0.8934840000000001,0.000585,0.012794,-0.004862
397,0.424932,0.144843,-0.8935620000000001,-0.000891,0.011804,-0.002938
398,0.424791,0.144772,-0.893641,0.0016769999999999,0.009205,-0.0038659999999999
399,0.424675,0.144702,-0.8937069999999999,-8.4e-05,0.008542,-0.002914
400,0.424785,0.144783,-0.893642,-0.00082,0.011193,-0.004842
401,0.424926,0.14484,-0.8935649999999999,-0.003616,0.008633,-0.000478
402,0.424993,0.144843,-0.893533,0.000666,0.007806,-0.002509
403,0.425064,0.1448539999999999,-0.893497,-0.001541,0.008619,-0.0060079999999999
404,0.425125,0.144872,-0.893466,-0.004654,0.00941,-0.005002
405,0.42506,0.144831,-0.893503,-0.00613,0.007436,-0.0048579999999999
406,0.425014,0.144788,-0.893532,-0.008221,0.0093569999999999,-0.005882
407,0.424989,0.144756,-0.8935489999999999,-0.005586,0.0052229999999999,-0.005438
408,0.424935,0.14475,-0.893576,-0.004647,0.007258,-0.006525
409,0.424912,0.144746,-0.8935870000000001,-0.0035859999999999,0.008421,-0.004194
410,0.424829,0.14478,-0.8936209999999999,-0.00361,0.00764,-0.006357
411,0.4247939999999999,0.144816,-0.893632,-0.0026899999999999,0.008565,-0.005431
412,0.4248,0.144866,-0.8936209999999999,-0.003276,0.0103769999999999,-0.004588
413,0.424804,0.144919,-0.893611,-0.0036,0.009256,-0.004125
414,0.424776,0.144929,-0.8936219999999999,-0.002718,0.010192,-0.007318
415,0.4247149999999999,0.1449,-0.8936559999999999,-0.002962,0.01164,-0.004232
416,0.4246399999999999,0.1448539999999999,-0.893699,-0.004047,0.007779,-0.003228
417,0.424589,0.144814,-0.8937299999999999,-0.000104,0.006813,-0.005226
418,0.42457,0.144794,-0.893742,-0.003763,0.0071379999999999,-0.000194
419,0.424592,0.144825,-0.893726,-0.0025039999999999,0.007564,-0.003704
420,0.424655,0.144858,-0.893691,-0.00426,0.007714,-0.004639
421,0.424722,0.144876,-0.8936559999999999,-0.0036869999999999,0.0079709999999999,-0.0055439999999999
422,0.4247869999999999,0.1449,-0.8936219999999999,-0.0035229999999999,0.0091069999999999,-0.0049229999999999
423,0.424859,0.144924,-0.893583,-0.002313,0.009144,-0.002748
424,0.42494,0.14498,-0.8935360000000001,-0.00337,0.007592,-0.001117
425,0.425174,0.145115,-0.8934030000000001,-0.002963,0.008099,-0.004516
426,0.425326,0.145197,-0.893317,-0.004901,0.0057729999999999,-0.0035789999999999
427,0.425457,0.145263,-0.893244,-0.002468,0.0074769999999999,-0.005789
428,0.425616,0.1453549999999999,-0.8931530000000001,-0.003527,0.0084689999999999,-0.0029649999999999
429,0.4257069999999999,0.1454119999999999,-0.893101,-0.0035259999999999,0.009801,-0.0033829999999999
430,0.425708,0.145402,-0.8931020000000001,-0.002414,0.009627,-0.005854
431,0.425687,0.1454089999999999,-0.8931110000000001,-0.001676,0.010078,-0.005266
432,0.425734,0.14542,-0.893086,-0.003249,0.009869,-0.0042369999999999
433,0.425792,0.145457,-0.8930530000000001,-0.001644,0.010197,-0.004927
434,0.425801,0.145473,-0.8930459999999999,-0.002202,0.008763,-0.001943
435,0.425743,0.1454349999999999,-0.8930799999999999,-0.003044,0.009091,-0.004228
436,0.425658,0.145358,-0.893133,-0.002379,0.0071379999999999,-0.00326
437,0.425608,0.145311,-0.893164,-0.001475,0.008529,-0.003274
438,0.4255819999999999,0.145289,-0.89318,-0.001265,0.00739,-0.002953
439,0.425487,0.145253,-0.893231,0.001347,0.009577,-0.002398
440,0.425378,0.145208,-0.893291,-0.002694,0.007959,-0.007848
441,0.4252729999999999,0.145163,-0.8933479999999999,-0.002589,0.007333,-0.0051049999999999
442,0.425188,0.145113,-0.893396,-0.005449,0.006345,-0.002462
443,0.4251399999999999,0.145062,-0.8934280000000001,-0.004608,0.0047799999999999,-0.005467
444,0.425143,0.145076,-0.893424,-0.004946,0.009526,-0.006448
445,0.425243,0.145151,-0.8933639999999999,-0.002971,0.006689,-0.00637
446,0.425333,0.145243,-0.8933059999999999,-0.004069,0.008764,-0.005574
447,0.425364,0.145339,-0.8932760000000001,-0.002421,0.0079659999999999,-0.00536
448,0.425358,0.145397,-0.8932690000000001,-0.002537,0.0078319999999999,-0.00468
449,0.425253,0.1454089999999999,-0.893317,-0.002783,0.0077129999999999,-0.003503
450,0.425266,0.145468,-0.893301,-0.002582,0.009775,-0.004419
451,0.4252829999999999,0.145485,-0.893291,-0.005086,0.00843,-0.005711
452,0.4253699999999999,0.145515,-0.893244,-0.005006,0.0099569999999999,-0.005193
453,0.425462,0.14554,-0.8931969999999999,-0.003144,0.0088939999999999,-0.003928
454,0.4254979999999999,0.145556,-0.893177,-0.004279,0.008038,-0.005795
455,0.4254479999999999,0.145521,-0.8932059999999999,-0.002933,0.010912,-0.002851
456,0.425266,0.145442,-0.8933059999999999,-0.002338,0.008291,-0.000661
457,0.425055,0.145379,-0.893416,2.4e-05,0.007315,-0.003175
458,0.4247649999999999,0.145257,-0.893574,0.000604,0.0065069999999999,-0.0011099999999999
459,0.424501,0.1451309999999999,-0.8937200000000001,0.002089,0.007014,-0.001452
460,0.424285,0.145053,-0.893835,-9.1e-05,0.006818,-0.000986
461,0.424232,0.14504,-0.893863,-0.000923,0.007884,-0.003842
462,0.42431,0.145098,-0.8938159999999999,-0.002741,0.0101599999999999,-0.006956
463,0.424485,0.145208,-0.8937149999999999,-0.006852,0.011653,-0.007225
464,0.424701,0.145313,-0.893596,-0.008151,0.0129509999999999,-0.010778
465,0.424858,0.145389,-0.893509,-0.006859,0.009976,-0.00853
466,0.4249189999999999,0.145417,-0.893475,-0.008202,0.010131,-0.007999
467,0.424928,0.1454359999999999,-0.893468,-0.00879,0.0068769999999999,-0.009517
468,0.4250109999999999,0.145504,-0.893417,-0.006569,0.008884,-0.008179
469,0.425068,0.145575,-0.8933780000000001,-0.005314,0.0054259999999999,-0.003427
470,0.425121,0.145637,-0.893343,-0.000759,0.0067519999999999,-0.003508
471,0.425159,0.145701,-0.8933139999999999,-0.000156,0.0069019999999999,-0.001385
472,0.425203,0.14574,-0.893287,0.002654,0.006665,-0.002571
473,0.42527,0.145812,-0.893244,0.002373,0.007142,-0.000982
474,0.425427,0.145887,-0.893156,0.001346,0.007525,-0.001466
475,0.425556,0.145952,-0.893085,0.001049,0.0076739999999999,0.0002319999999999
476,0.425656,0.145999,-0.8930290000000001,0.001391,0.010297,-0.0033179999999999
477,0.425749,0.146024,-0.8929809999999999,-0.0017989999999999,0.009555,-0.002405
478,0.425803,0.146054,-0.89295,-0.004493,0.008777,-0.005839
479,0.425849,0.146055,-0.892928,-0.002754,0.007128,-0.006883
480,0.425913,0.146061,-0.8928959999999999,-0.004176,0.00674,-0.005877
481,0.4259449999999999,0.146082,-0.8928780000000001,-0.006297,0.006079,-0.005453
482,0.425971,0.146085,-0.8928649999999999,-0.006629,0.007098,-0.006794
483,0.42593,0.1461,-0.892882,-0.00407,0.009311,-0.005403
484,0.4258729999999999,0.146129,-0.8929040000000001,-0.001282,0.0065049999999999,-0.005533
485,0.4258699999999999,0.1461829999999999,-0.8928969999999999,-0.003689,0.007306,-0.0032359999999999
486,0.4259159999999999,0.146239,-0.8928659999999999,-0.004194,0.0089129999999999,-0.0036799999999999
487,0.4259529999999999,0.146301,-0.8928379999999999,-0.00156,0.009629,-0.0052179999999999
488,0.425955,0.146346,-0.8928290000000001,-0.001883,0.0076,-0.004097
489,0.4260029999999999,0.146365,-0.892803,-0.002923,0.008984,-0.004566
490,0.426044,0.1463799999999999,-0.8927809999999999,-6.4e-05,0.009275,-0.0053659999999999
491,0.426045,0.1464089999999999,-0.892776,-0.004857,0.008223,-0.003846
492,0.426039,0.1464109999999999,-0.8927790000000001,-0.001067,0.00784,-0.005567
493,0.4260229999999999,0.146403,-0.8927879999999999,-0.004636,0.004415,-0.002964
494,0.426035,0.146393,-0.892784,-0.003,0.006973,-0.003747
495,0.426052,0.146393,-0.892775,-0.004086,0.005981,-0.005647
496,0.426073,0.146427,-0.89276,-0.002245,0.007122,-0.004427
497,0.426116,0.146464,-0.892733,-0.002502,0.006719,-0.003934
498,0.4261529999999999,0.1464859999999999,-0.8927120000000001,-0.002814,0.00746,-0.004108
499,0.426238,0.146534,-0.8926639999999999,-0.002791,0.007855,-0.005881
500,0.426326,0.146572,-0.8926149999999999,-0.003993,0.007023,-0.005197
501,0.426406,0.146627,-0.892568,-0.001571,0.010463,-0.005106
502,0.426451,0.146636,-0.892545,-0.0007769999999999,0.009797,-0.004657
503,0.426479,0.14664,-0.892531,-0.002376,0.008191,-0.003602
504,0.426442,0.146619,-0.892552,-0.003606,0.006839,-0.003215
505,0.426421,0.146612,-0.8925629999999999,-0.002807,0.005915,-0.004303
506,0.426396,0.146617,-0.892575,-0.004475,0.006398,-0.002613
507,0.426381,0.146624,-0.892581,-0.0017289999999999,0.007368,-0.003599
508,0.4263659999999999,0.14662,-0.892589,-0.004506,0.008226,-0.004567
509,0.426353,0.146627,-0.8925930000000001,-0.002251,0.0076549999999999,-0.004868
510,0.426347,0.146639,-0.892594,-0.003725,0.007033,-0.005675
511,0.42641,0.146689,-0.8925559999999999,-0.002963,0.0096519999999999,-0.004233
512,0.426461,0.146722,-0.892526,-0.003442,0.00875,-0.003867
513,0.426488,0.1467359999999999,-0.892511,-0.002568,0.009269,-0.005148
514,0.426458,0.14672,-0.8925280000000001,-0.002019,0.00599,-0.0027199999999999
515,0.426415,0.146675,-0.8925559999999999,-0.0042049999999999,0.00692,-0.0029059999999999
516,0.426351,0.146653,-0.89259,-0.004949,0.004562,-0.003314
517,0.4263399999999999,0.14667,-0.8925930000000001,-0.003244,0.0043619999999999,-0.003907
518,0.426426,0.146733,-0.892541,-0.002109,0.0095319999999999,-0.00669
519,0.426513,0.146798,-0.892489,-0.004012,0.011207,-0.006803
520,0.4265229999999999,0.146815,-0.892481,-0.006754,0.006948,-0.0038659999999999
521,0.426483,0.146811,-0.892501,-0.002441,0.00892,-0.005646
522,0.426384,0.146764,-0.8925559999999999,-0.002953,0.00999,-0.005042
523,0.426303,0.146734,-0.8926,-0.001864,0.007547,-0.00979
524,0.4262479999999999,0.146771,-0.8926200000000001,6.7e-05,0.005847,-0.007069
525,0.4263729999999999,0.146879,-0.892543,-0.00079,0.0088519999999999,-0.002431
526,0.4265319999999999,0.147024,-0.892443,-0.002109,0.006403,-0.003859
527,0.426709,0.147146,-0.892338,-0.001157,0.009272,-0.003231
528,0.426843,0.147227,-0.89226,-0.004602,0.006231,-0.004743
529,0.426884,0.147253,-0.892236,-0.005971,0.0089819999999999,-0.006384
530,0.426937,0.147285,-0.8922059999999999,-0.000484,0.011284,-0.005606
531,0.427014,0.147305,-0.892166,-0.006314,0.006794,-0.0043799999999999
532,0.4270609999999999,0.147323,-0.8921399999999999,-0.004103,0.005799,-0.003322
533,0.427193,0.147402,-0.892064,-0.002404,0.005308,-0.007137
534,0.427351,0.147497,-0.8919729999999999,-0.002332,0.006678,-0.003321
535,0.4274739999999999,0.147582,-0.8919,-0.001402,0.005372,-0.0036079999999999
536,0.4276359999999999,0.147673,-0.891807,-0.000283,0.005952,-0.0060659999999999
537,0.427822,0.147783,-0.891699,0.001057,0.01132,-0.001947
538,0.427976,0.147887,-0.891608,-0.00308,0.0039689999999999,-0.004678
539,0.428255,0.148055,-0.891446,0.002073,0.0132449999999999,-0.0002009999999999
540,0.428345,0.148083,-0.8913989999999999,-0.003967,0.007861,-0.004872
541,0.4283649999999999,0.148119,-0.891383,-0.002065,0.00839,-0.005162
542,0.428374,0.14812,-0.8913780000000001,-0.002898,0.008954,-0.004938
543,0.428418,0.148115,-0.891358,-0.003675,0.009646,-0.006362
544,0.428462,0.148107,-0.891338,-0.004878,0.004298,-0.004719
545,0.428512,0.148125,-0.8913110000000001,-0.003524,0.005317,-0.005951
546,0.428556,0.148153,-0.891286,-0.0052619999999999,0.006175,-0.004451
547,0.428544,0.148166,-0.8912889999999999,-0.004975,0.005521,-0.002495
548,0.428487,0.148143,-0.8913200000000001,-0.0020039999999999,0.006306,-0.003638
549,0.428443,0.148165,-0.891338,-0.00257,0.007292,-0.0038799999999999
550,0.428407,0.148172,-0.8913540000000001,-0.004014,0.005774,-0.004169
551,0.42837,0.148181,-0.8913700000000001,-0.003276,0.00752,-0.00455
552,0.428346,0.148201,-0.891379,-0.00171,0.00869,-0.005838
553,0.428389,0.148274,-0.8913459999999999,-0.001448,0.0097,-0.006558
554,0.428388,0.148316,-0.891339,-0.0026829999999999,0.010818,-0.006335
555,0.428216,0.148247,-0.891433,-0.001657,0.01229,-0.005738
556,0.4278869999999999,0.148075,-0.8916200000000001,-0.004654,0.011501,-0.006055
557,0.427529,0.147864,-0.891827,-0.000283,0.011743,-0.006031
558,0.427206,0.147633,-0.89202,-0.003194,0.003933,-0.0048
559,0.427041,0.147473,-0.892125,-0.004464,0.003284,-0.000773
560,0.426925,0.1474,-0.892193,-0.004424,0.000549,-0.002186
561,0.426946,0.1474369999999999,-0.892176,-0.004003,0.004922,-0.004064
562,0.4271529999999999,0.147501,-0.892067,-0.005308,0.0075739999999999,-0.003288
563,0.427289,0.147647,-0.891977,-0.000745,0.009869,-0.006979
564,0.427491,0.147794,-0.891856,-0.002076,0.01134,-0.005788
565,0.427672,0.147915,-0.89175,-0.003157,0.012165,-0.005864
566,0.427754,0.1479599999999999,-0.891703,-0.003559,0.007176,-0.003942
567,0.427708,0.147926,-0.8917309999999999,-0.003513,0.0072099999999999,-0.003914
568,0.427605,0.147889,-0.8917860000000001,-0.0015949999999999,0.0055229999999999,-0.0037979999999999
569,0.4275319999999999,0.147857,-0.891827,0.00063,0.0074319999999999,-0.002216
570,0.42758,0.147867,-0.8918020000000001,0.000154,0.010794,-0.002547
571,0.4276609999999999,0.147875,-0.891762,-0.00072,0.009611,-0.003502
572,0.4276279999999999,0.147837,-0.891784,-0.001007,0.007772,-0.003068
573,0.4275529999999999,0.147759,-0.891832,-0.0018629999999999,0.004569,-0.002607
574,0.427455,0.147666,-0.8918950000000001,-0.002375,0.008385,-0.002163
575,0.427239,0.147544,-0.892018,-0.00335,0.005807,-0.00323
576,0.4270239999999999,0.147458,-0.892136,-0.00402,0.008151,-0.0065
577,0.426867,0.147387,-0.892222,-0.003711,0.012205,-0.006337
578,0.42672,0.147274,-0.8923120000000001,-0.006157,0.011585,-0.005943
579,0.4264819999999999,0.1471049999999999,-0.892453,-0.005492,0.008138,-0.006595
580,0.426246,0.1469609999999999,-0.89259,-0.007758,0.0052,-0.005527
581,0.426117,0.146899,-0.8926620000000001,-0.00531,0.005704,-0.003655
582,0.4260279999999999,0.146871,-0.892708,-0.004657,0.0057929999999999,-0.005683
583,0.426026,0.146923,-0.892701,0.001113,0.008579,-0.0043479999999999
584,0.42611,0.147,-0.892648,-0.001656,0.009006,-0.003546
585,0.42618,0.147081,-0.892601,-0.000841,0.010237,-0.003822
586,0.42616,0.1471049999999999,-0.8926069999999999,-0.002484,0.009663,-0.0018629999999999
587,0.426088,0.147043,-0.892652,-0.001497,0.008353,-0.006122
588,0.426014,0.147002,-0.8926940000000001,-0.001514,0.005312,-0.0047979999999999
589,0.426005,0.147018,-0.8926950000000001,-0.0017649999999999,0.006775,-0.004354
590,0.426041,0.147066,-0.8926700000000001,0.000198,0.009321,-0.004333
591,0.426002,0.14705,-0.892691,-0.000801,0.005156,-0.002725
592,0.425906,0.1469869999999999,-0.892748,-0.004351,0.005936,-0.001326
593,0.425778,0.146918,-0.8928200000000001,-0.004163,0.005853,-0.0038929999999999
594,0.4257359999999999,0.146878,-0.892847,-0.003602,0.008945,-0.007147
595,0.42578,0.146919,-0.892819,-2.9e-05,0.0084,-0.004764
596,0.4258479999999999,0.146953,-0.8927809999999999,-0.002218,0.0078319999999999,-0.002101
597,0.425846,0.146946,-0.892783,-0.001652,0.004956,-0.003564
598,0.425713,0.146905,-0.8928530000000001,-0.005516,0.0061259999999999,-0.001937
599,0.425606,0.146869,-0.89291,-0.000267,0.007809,-0.004856
600,0.425506,0.146888,-0.8929549999999999,-0.000839,0.01098,-0.006765
601,0.4254729999999999,0.146905,-0.892967,-0.00134,0.009071,-0.0025399999999999
602,0.425402,0.146879,-0.893006,-0.003283,0.006365,-0.002716
603,0.425305,0.146833,-0.893059,-0.00488,0.006899,-0.004249
604,0.425239,0.146814,-0.893094,-0.003792,0.007681,-0.0073269999999999
605,0.425183,0.14682,-0.89312,-0.001828,0.008636,-0.005684
606,0.425174,0.146792,-0.8931290000000001,-0.0020629999999999,0.008634,-0.004637
607,0.425137,0.146758,-0.8931520000000001,-0.001096,0.007219,-0.004508
608,0.425139,0.146746,-0.8931530000000001,-0.002684,0.007368,-0.004964
609,0.425106,0.146696,-0.893177,-0.0037189999999999,0.006869,-0.0012779999999999
610,0.425015,0.146616,-0.8932329999999999,-0.001431,0.0062619999999999,-0.003297
611,0.424888,0.146544,-0.8933059999999999,-0.000342,0.006166,-0.005376
612,0.424708,0.14644,-0.893408,-0.0001629999999999,0.00627,-0.005274
613,0.424569,0.146376,-0.8934850000000001,-0.001015,0.005189,-0.002862
614,0.424595,0.146375,-0.8934719999999999,-0.004063,0.007251,-0.003882
615,0.4247649999999999,0.1464619999999999,-0.8933770000000001,-0.003744,0.006187,-0.0034729999999999
616,0.4248939999999999,0.146518,-0.893307,-0.002118,0.006131,-0.00159
617,0.425033,0.146593,-0.893228,-9.1e-05,0.0095959999999999,-0.00144
618,0.425066,0.1466,-0.8932110000000001,-0.002535,0.009634,-0.004601
619,0.424915,0.1465,-0.8933,-0.002216,0.008865,-0.004985
620,0.424716,0.1464099999999999,-0.893409,-0.004413,0.007231,-0.006325
621,0.424634,0.146349,-0.893458,-0.004331,0.007292,-0.0062759999999999
622,0.424637,0.146377,-0.893452,-0.003388,0.0074319999999999,-0.003688
623,0.424623,0.1463809999999999,-0.893458,-0.002046,0.0065879999999999,-0.002935
624,0.424621,0.146392,-0.893457,-0.00418,0.00647,-0.003424
625,0.424614,0.146397,-0.89346,-0.002937,0.006802,-0.002246
626,0.424598,0.14639,-0.893468,-0.002342,0.0070069999999999,-0.005473
627,0.424614,0.146414,-0.893457,-0.0035479999999999,0.008402,-0.004919
628,0.424713,0.14651,-0.893394,-0.000397,0.011327,-0.004281
629,0.4248729999999999,0.146608,-0.893302,-0.003227,0.009627,-0.005349
630,0.424933,0.146655,-0.893266,-5.2e-05,0.010129,-0.003539
631,0.4247869999999999,0.1466319999999999,-0.893339,-0.001875,0.009267,-0.002322
632,0.424566,0.146513,-0.8934639999999999,0.00175,0.009783,-0.0055229999999999
633,0.424296,0.1463819999999999,-0.8936129999999999,0.000875,0.009898,-0.003268
634,0.4237619999999999,0.146117,-0.89391,-0.007945,0.001222,-0.0016589999999999
635,0.423083,0.145837,-0.894277,-0.002993,0.004584,-0.004465
636,0.422695,0.145722,-0.8944790000000001,-0.001705,0.004714,-0.0065829999999999
637,0.422606,0.145731,-0.8945200000000001,-0.000182,0.009466,-0.002865
638,0.422614,0.145778,-0.894509,-0.002708,0.007268,-0.003639
639,0.422626,0.145817,-0.894497,-0.0052369999999999,0.007717,-0.006077
640,0.4225819999999999,0.145829,-0.894515,-0.004217,0.010375,-0.005082
641,0.422454,0.145794,-0.894581,-0.000823,0.005878,-0.00558
642,0.422454,0.145769,-0.8945860000000001,-0.001372,0.007994,-0.004035
643,0.422579,0.145816,-0.8945190000000001,-0.003573,0.006344,-0.005628
644,0.4229159999999999,0.146,-0.89433,-0.000949,0.008709,-0.003299
645,0.4232039999999999,0.146107,-0.894176,-0.000413,0.00787,-0.002522
646,0.423433,0.14615,-0.8940610000000001,-0.005113,0.0041789999999999,-0.003187
647,0.423518,0.146097,-0.8940290000000001,-0.0064959999999999,-0.002237,-0.0018
648,0.423604,0.146114,-0.893985,0.002391,0.004079,-0.004422
649,0.423789,0.146238,-0.893877,-0.002463,0.006197,-0.004118
650,0.424145,0.1464349999999999,-0.893676,-0.002178,0.006565,-0.000733
651,0.424396,0.146598,-0.8935299999999999,0.000852,0.00988,-0.004709
652,0.424461,0.146664,-0.893489,-0.002433,0.010959,-0.002355
653,0.424396,0.146644,-0.893523,0.002927,0.010659,-0.00345
654,0.423997,0.146465,-0.893741,-0.002687,0.008137,-0.002026
655,0.423272,0.146142,-0.8941379999999999,0.0013039999999999,0.009162,-0.002758
656,0.422714,0.1458809999999999,-0.894445,0.002655,0.003885,-0.006572
657,0.422605,0.145807,-0.894508,-0.004026,0.00611,-0.001228
658,0.422527,0.145781,-0.8945489999999999,-0.009685,0.003785,-0.001477
659,0.422443,0.145806,-0.8945850000000001,-0.001957,0.008659,-0.006203
660,0.422417,0.145879,-0.8945850000000001,0.0004799999999999,0.013377,-0.007316
661,0.4225279999999999,0.146,-0.8945129999999999,-0.000759,0.0150409999999999,-0.008609
662,0.422689,0.146066,-0.894426,-0.005407,0.0108709999999999,-0.0050799999999999
663,0.422739,0.146061,-0.8944040000000001,-0.00654,0.007672,-0.006033
664,0.422754,0.146022,-0.8944030000000001,-0.005838,0.004125,-0.0032719999999999
665,0.422826,0.146019,-0.8943690000000001,-0.0036509999999999,0.000786,-0.002527
666,0.423002,0.146103,-0.894272,-0.001966,0.001571,-0.002487
667,0.423321,0.146314,-0.8940870000000001,0.0003549999999999,0.0064719999999999,-0.006624
668,0.4237579999999999,0.146571,-0.8938370000000001,-0.001807,0.012319,-0.003959
669,0.424096,0.14675,-0.893648,-0.002252,0.012048,-0.002913
670,0.424174,0.146818,-0.8936,0.00208,0.0135979999999999,-0.004609
671,0.424116,0.146873,-0.893618,0.0049619999999999,0.011818,-0.003202
672,0.423963,0.14681,-0.893701,0.003481,0.014506,-0.001212
673,0.423626,0.146651,-0.8938870000000001,-0.003307,0.005525,-0.003177
674,0.423545,0.146628,-0.8939290000000001,0.00689,0.008844,-0.000327
675,0.423572,0.146638,-0.893915,0.00552,0.007217,0.000574
676,0.423625,0.1466299999999999,-0.893891,0.000157,0.008109,-0.001602
677,0.423653,0.146579,-0.8938860000000001,-0.008492,0.002026,-0.001439
678,0.423741,0.14658,-0.8938440000000001,-0.008763,0.002254,-0.004776
679,0.4239239999999999,0.146693,-0.893739,-0.008625,0.006108,-0.008162
680,0.424201,0.14687,-0.8935780000000001,-0.010962,0.005688,-0.008369
681,0.424616,0.1471029999999999,-0.893343,-0.0094709999999999,0.005699,-0.007429
682,0.424994,0.14729,-0.8931319999999999,-0.010352,0.006778,-0.009151
683,0.425196,0.147447,-0.8930100000000001,-0.004679,0.008864,-0.004069
684,0.425254,0.147505,-0.8929729999999999,-0.002082,0.0091569999999999,-0.002321
685,0.4252039999999999,0.147504,-0.8929969999999999,-0.001284,0.00577,-0.003853
686,0.425096,0.147523,-0.8930450000000001,-0.001375,0.004683,-0.001242
687,0.425038,0.147576,-0.893064,0.003978,0.008353,-0.0020469999999999
688,0.425097,0.147661,-0.893022,0.005399,0.009932,-0.000746
689,0.425167,0.147689,-0.892984,0.004337,0.010361,-0.001441
690,0.425135,0.147635,-0.893008,0.00472,0.007959,-0.001294
691,0.425051,0.147575,-0.893058,0.001676,0.008111,-0.002663
692,0.425045,0.147532,-0.8930680000000001,-0.002362,0.004506,-0.003584
693,0.425143,0.14756,-0.8930170000000001,-0.0073569999999999,0.006508,-0.0045969999999999
694,0.425352,0.1476299999999999,-0.892906,-0.008817,0.006591,-0.00454
695,0.425551,0.147702,-0.892799,-0.0102069999999999,0.005573,-0.007225
696,0.425671,0.147753,-0.892734,-0.008969,0.006117,-0.008527
697,0.42582,0.147809,-0.892653,-0.00869,0.0060149999999999,-0.008241
698,0.425962,0.147878,-0.892574,-0.005155,0.006709,-0.007435
699,0.426037,0.147929,-0.8925299999999999,-0.004559,0.008031,-0.004367
700,0.4260239999999999,0.14793,-0.8925360000000001,-0.003553,0.006214,-0.0018579999999999
701,0.426026,0.147927,-0.8925350000000001,0.0016769999999999,0.007575,-0.004148
702,0.426067,0.147983,-0.8925059999999999,0.002583,0.006207,-0.0028179999999999
703,0.426159,0.148074,-0.8924469999999999,0.004414,0.004331,-0.000863
704,0.4262979999999999,0.148189,-0.8923620000000001,0.004442,0.008534,0.001126
705,0.426356,0.148288,-0.8923180000000001,0.003575,0.006589,0.000701
706,0.42645,0.148346,-0.8922629999999999,0.000811,0.008163,-0.003382
707,0.426546,0.148416,-0.8922059999999999,-0.002169,0.010641,-0.005866
708,0.426613,0.148449,-0.8921680000000001,-0.00515,0.0102569999999999,-0.006529
709,0.42657,0.148404,-0.8921959999999999,-0.006755,0.010364,-0.007401
710,0.426404,0.148298,-0.892293,-0.004361,0.00783,-0.0052899999999999
711,0.426164,0.148145,-0.892433,-0.007081,0.0072959999999999,-0.006966
712,0.425904,0.147989,-0.892583,-0.005524,0.004431,-0.0049689999999999
713,0.4257109999999999,0.14789,-0.892692,-0.006338,0.0064069999999999,-0.003304
714,0.4256029999999999,0.147819,-0.892755,-0.003545,0.005929,-0.004385
715,0.4255859999999999,0.14779,-0.892768,-0.0002319999999999,0.007087,-0.003991
716,0.425587,0.147792,-0.892767,-0.001546,0.00472,-0.001245
717,0.4256479999999999,0.147814,-0.892734,-0.000538,0.003935,-0.0016899999999999
718,0.425714,0.14783,-0.8927,-0.000742,0.005704,-0.001862
719,0.425745,0.147861,-0.892681,-0.000604,0.005292,-0.003392
720,0.42582,0.147927,-0.892634,-0.00013,0.0069349999999999,-0.006384
721,0.42612,0.148127,-0.892458,0.002545,0.008093,-0.005919
722,0.426521,0.14836,-0.892227,-0.001365,0.009019,-0.0038909999999999
723,0.426728,0.148416,-0.8921190000000001,-0.0036479999999999,0.0099239999999999,-0.00374
724,0.426752,0.148385,-0.8921120000000001,-0.0037329999999999,0.010139,-0.004219
725,0.426692,0.148336,-0.892149,-0.0087689999999999,0.001627,-0.006532
726,0.4266,0.148279,-0.8922030000000001,-0.009043,0.0016239999999999,-0.004785
727,0.426541,0.148221,-0.892241,-0.005689,0.002307,-0.004686
728,0.426526,0.148246,-0.892244,-0.003415,0.008523,-0.005111
729,0.426472,0.148241,-0.8922700000000001,-0.005238,0.0072,-0.0046409999999999
730,0.426336,0.148165,-0.8923479999999999,-0.006368,0.006681,-0.004457
731,0.4261609999999999,0.14809,-0.892444,-0.001036,0.007672,-0.005582
732,0.426031,0.148057,-0.892511,-0.000646,0.0075209999999999,-0.005728
733,0.426013,0.14806,-0.8925200000000001,0.001066,0.006725,-0.00517
734,0.426022,0.148085,-0.892511,0.0004309999999999,0.005647,-0.001257
735,0.426083,0.148116,-0.8924770000000001,-0.000698,0.005646,-0.002466
736,0.426106,0.148162,-0.892458,-0.001073,0.007843,-0.004515
737,0.4261359999999999,0.148192,-0.892439,0.001018,0.007234,-0.003481
738,0.426171,0.148255,-0.8924120000000001,-0.00074,0.006561,-0.006758
739,0.426548,0.148544,-0.892184,0.003185,0.010697,-0.008833
740,0.42691,0.148689,-0.8919860000000001,0.0032359999999999,0.010476,0.001163
741,0.4268649999999999,0.148636,-0.8920170000000001,-0.002991,0.007308,-0.007397
742,0.4267479999999999,0.148562,-0.892085,-0.021276,-0.000673,-0.004338
743,0.4267399999999999,0.148517,-0.8920959999999999,-0.007642,0.005094,-0.0061579999999999
744,0.42676,0.148573,-0.892077,-0.00519,0.004014,-0.005612
745,0.426818,0.148618,-0.892042,-0.000625,0.0093099999999999,-0.00606
746,0.426685,0.148555,-0.892116,-0.0013,0.009298,-0.003315
747,0.426332,0.148363,-0.892317,-0.002245,0.008147,-0.004869
748,0.425818,0.148101,-0.8926059999999999,0.0018239999999999,0.0073409999999999,-0.001422
749,0.425349,0.147884,-0.8928649999999999,0.006536,0.007405,-0.0037869999999999
750,0.425077,0.147774,-0.893013,0.005571,0.005974,-0.000267
751,0.425022,0.1477359999999999,-0.8930450000000001,0.003948,0.00624,0.003077
752,0.425018,0.147714,-0.893051,0.001847,0.005667,-0.000229
753,0.4250489999999999,0.147702,-0.8930379999999999,-0.002335,0.002887,-0.00221
754,0.425179,0.147779,-0.892964,-0.006798,0.002505,-0.0037799999999999
755,0.4254189999999999,0.147944,-0.8928219999999999,-0.006214,0.007208,-0.007996
756,0.425696,0.148122,-0.892661,-0.007712,0.012386,-0.0116969999999999
757,0.4259239999999999,0.14826,-0.8925290000000001,-0.011633,0.0120489999999999,-0.010303
758,0.425964,0.148263,-0.892509,-0.009064,0.008201,-0.005867
759,0.425784,0.148171,-0.892611,-0.0066549999999999,0.005881,-0.006468
760,0.42553,0.148064,-0.892749,-0.001518,0.002571,-0.00372
761,0.42539,0.148008,-0.892825,-0.001272,0.004595,-0.003735
762,0.425463,0.148082,-0.8927780000000001,-0.000521,0.007527,-0.000685
763,0.425535,0.148128,-0.8927360000000001,-0.000792,0.002934,-0.002253
764,0.425662,0.148179,-0.892667,-0.00072,0.004546,-0.002306
765,0.425742,0.148195,-0.8926270000000001,-0.0008609999999999,0.004302,-0.003461
766,0.42581,0.148223,-0.892589,-0.000105,0.006623,-0.002049
767,0.425842,0.148245,-0.8925700000000001,0.001953,0.009226,-0.002739
768,0.425857,0.148252,-0.8925620000000001,-0.000121,0.0078459999999999,-0.003129
769,0.425879,0.148264,-0.8925489999999999,-0.002646,0.006872,-0.004194
770,0.425972,0.148298,-0.8925,-0.00164,0.006014,-0.006609
771,0.426242,0.148446,-0.8923459999999999,-0.001926,0.008842,-0.004627
772,0.426543,0.148609,-0.892175,-0.001402,0.005444,-0.001929
773,0.426712,0.1487079999999999,-0.892078,-0.000946,0.00565,-0.002606
774,0.426747,0.14873,-0.892057,-0.000874,0.005933,-0.001604
775,0.426743,0.148738,-0.892058,0.000671,0.0062759999999999,-0.004106
776,0.426745,0.148724,-0.892059,-0.001742,0.0083349999999999,-0.003906
777,0.4266609999999999,0.148664,-0.892109,-0.001704,0.008929,-0.003139
778,0.426434,0.1485,-0.8922450000000001,-0.004116,0.0077959999999999,-0.0045439999999999
779,0.426149,0.148314,-0.8924129999999999,-0.002061,0.009599,-0.004575
780,0.425962,0.148181,-0.892524,-0.002897,0.004682,-0.003839
781,0.425932,0.148151,-0.892543,-0.003065,0.004193,-0.003987
782,0.4259949999999999,0.148179,-0.892508,-0.003281,0.004989,-0.003228
783,0.4260819999999999,0.148239,-0.892457,-0.003643,0.008546,-0.007308
784,0.426085,0.1482609999999999,-0.892452,-0.001738,0.010629,-0.0072829999999999
785,0.426071,0.148255,-0.89246,-0.00624,0.007506,-0.006131
786,0.426114,0.148301,-0.892431,-0.003613,0.007476,-0.00831
787,0.42661,0.148622,-0.892141,0.003016,0.0097489999999999,-0.006083
788,0.427422,0.149053,-0.8916799999999999,-0.001916,0.011287,-0.0010199999999999
789,0.427991,0.149332,-0.8913610000000001,-0.001248,0.007361,0.003543
790,0.42806,0.149339,-0.8913260000000001,0.0015199999999999,0.006423,-0.000779
791,0.4278689999999999,0.1492,-0.891441,0.000171,0.0047,-0.002434
792,0.427623,0.149026,-0.8915879999999999,0.001622,0.002143,-0.003767
793,0.427502,0.148943,-0.89166,-0.003658,0.004469,-0.001864
794,0.427521,0.14893,-0.891653,-0.004257,0.005733,-0.002725
795,0.427487,0.148891,-0.891676,-0.003613,0.010258,-0.003069
796,0.427406,0.148784,-0.891733,-0.006843,0.005315,-0.006186
797,0.427384,0.1487,-0.891757,-0.0079659999999999,0.007459,-0.006345
798,0.427216,0.148589,-0.891856,-0.006638,0.006761,-0.00562
799,0.426845,0.148395,-0.892066,-0.006633,0.0057799999999999,-0.005364
800,0.426376,0.148121,-0.892336,-0.001937,0.004314,-0.004118
801,0.425957,0.147886,-0.892575,-9.9e-05,0.0049159999999999,-0.002017
802,0.425737,0.147755,-0.892702,0.002746,0.00465,-0.003401
803,0.425571,0.1476869999999999,-0.892792,0.001614,0.0066709999999999,-0.000473
804,0.4254449999999999,0.147641,-0.89286,0.003357,0.0066549999999999,0.00077
805,0.4253189999999999,0.147551,-0.892935,0.004628,0.006456,-0.002085
806,0.425183,0.147482,-0.8930110000000001,0.00159,0.0037939999999999,-0.003229
807,0.425098,0.147432,-0.8930600000000001,0.00227,0.006773,-0.000571
808,0.425202,0.1475119999999999,-0.8929969999999999,0.000213,0.006754,-0.005761
809,0.425505,0.147734,-0.8928159999999999,-0.002149,0.005785,-0.003851
810,0.425979,0.148013,-0.892544,-0.004577,0.00636,-0.005985
811,0.426485,0.148316,-0.892251,-0.003512,0.009093,-0.005637
812,0.4268439999999999,0.148501,-0.892049,-0.0057929999999999,0.011014,-0.006053
813,0.427046,0.148566,-0.891941,-0.005995,0.0109489999999999,-0.00616
814,0.427062,0.148555,-0.891935,-0.00682,0.006703,-0.005663
815,0.426942,0.148452,-0.8920100000000001,-0.001848,0.0066989999999999,-0.003589
816,0.4268119999999999,0.1483799999999999,-0.892085,-0.003045,0.002454,-0.004384
817,0.426714,0.148343,-0.8921379999999999,-0.0028699999999999,0.005985,-0.005735
818,0.426392,0.148196,-0.892316,-0.002839,0.005689,-0.006503
819,0.426094,0.148045,-0.892483,0.0001909999999999,0.006755,-0.004886
820,0.425889,0.147968,-0.892594,0.002105,0.006756,-0.002075
821,0.4257439999999999,0.1479089999999999,-0.8926729999999999,0.0016239999999999,0.006617,-0.001324
822,0.425595,0.147869,-0.8927510000000001,0.004306,0.007999,0.000874
823,0.42531,0.147749,-0.892906,0.000914,0.0077379999999999,0.000832
824,0.42502,0.147608,-0.8930680000000001,0.000868,0.008703,-0.005751
825,0.424878,0.147528,-0.8931479999999999,0.00133,0.010461,-0.00561
826,0.4247189999999999,0.147431,-0.8932399999999999,-0.002005,0.00978,-0.003977
827,0.424392,0.147264,-0.893423,-0.00299,0.008269,-0.004084
828,0.423918,0.147028,-0.8936870000000001,-0.001662,0.006247,-0.002447
829,0.423513,0.146829,-0.893912,-0.002446,0.003394,-0.004785
830,0.423359,0.14672,-0.8940020000000001,-0.00449,0.004861,-0.008067
831,0.4233989999999999,0.146724,-0.893983,-0.0072159999999999,0.002751,-0.005569
832,0.423409,0.146765,-0.893971,-0.005013,0.003809,-0.00407
833,0.423336,0.146757,-0.894007,-0.002666,0.007708,-0.00356
834,0.423299,0.146741,-0.894027,-0.001698,0.008868,-0.002991
835,0.423322,0.146766,-0.894012,-0.000959,0.008385,-0.004624
836,0.423342,0.1467619999999999,-0.8940030000000001,-0.001192,0.005063,-0.002206
837,0.423252,0.146722,-0.8940530000000001,-0.00214,0.0055299999999999,-0.003012
838,0.423116,0.1466569999999999,-0.894128,-0.00118,0.005046,-0.0036079999999999
839,0.42295,0.146588,-0.8942180000000001,0.0017329999999999,0.007877,-0.0020989999999999
840,0.4228449999999999,0.146549,-0.894274,0.000358,0.00755,-0.004896
841,0.4227579999999999,0.146493,-0.894324,-0.000212,0.007972,-0.004556
842,0.422599,0.1464359999999999,-0.894408,-0.001243,0.005541,-0.003068
843,0.422413,0.146347,-0.8945110000000001,-0.002689,0.004135,-0.002416
844,0.422187,0.1462369999999999,-0.8946350000000001,-0.004417,0.006305,-0.003802
845,0.422017,0.146166,-0.894727,-8.1e-05,0.009489,-0.0069599999999999
846,0.421912,0.146123,-0.894784,-0.002768,0.006449,-0.006064
847,0.421875,0.146112,-0.894803,-0.003967,0.0064909999999999,-0.00545
848,0.421912,0.146109,-0.8947860000000001,-0.004157,0.008218,-0.006123
849,0.421915,0.146118,-0.894783,-0.002802,0.0075379999999999,-0.0034409999999999
850,0.4218659999999999,0.146097,-0.89481,-0.002997,0.0072689999999999,-0.003994
851,0.421833,0.146076,-0.8948290000000001,-0.0023989999999999,0.00433,-0.005226
852,0.421836,0.146093,-0.894824,-0.000984,0.003977,-0.004483
853,0.421867,0.146126,-0.894804,-0.000206,0.00277,-0.001344
854,0.4218979999999999,0.1461579999999999,-0.894785,-0.001534,0.0051329999999999,-0.000387
855,0.4219819999999999,0.146232,-0.894733,0.000977,0.00744,-0.004894
856,0.422068,0.146298,-0.894682,-0.0003,0.008777,-0.0038469999999999
857,0.4221609999999999,0.146351,-0.8946290000000001,0.000508,0.006847,-0.005151
858,0.422239,0.1463809999999999,-0.8945870000000001,-0.000624,0.007992,-0.007512
859,0.422288,0.146441,-0.8945549999999999,-0.004258,0.0105569999999999,-0.006187
860,0.422346,0.14644,-0.8945270000000001,-0.002913,0.0048049999999999,-0.005726
861,0.422385,0.146438,-0.894509,-0.00376,0.003754,-0.004554
862,0.422489,0.146495,-0.89445,-0.00417,0.000798,-0.001485
863,0.422627,0.1466309999999999,-0.8943629999999999,-0.0036659999999999,0.006552,-0.007645
864,0.4227869999999999,0.1467619999999999,-0.894266,-0.002575,0.0136379999999999,-0.006628
865,0.42291,0.146803,-0.894201,-0.001157,0.012911,-0.0086769999999999
866,0.4227979999999999,0.146748,-0.8942629999999999,0.0009539999999999,0.007167,-0.005136
867,0.4225939999999999,0.1466309999999999,-0.894379,0.00337,0.00144,0.000168
868,0.422402,0.146535,-0.8944850000000001,0.00434,0.0002089999999999,0.002227
869,0.422281,0.146536,-0.8945420000000001,0.004339,0.004785,0.0008349999999999
870,0.422163,0.146527,-0.894599,0.00374,0.006396,0.0015789999999999
871,0.421972,0.146455,-0.894701,0.003169,0.008513,-0.003645
872,0.4218699999999999,0.1463539999999999,-0.894766,-0.001612,0.007348,-0.003855
873,0.421955,0.146343,-0.894727,-0.001408,0.0066409999999999,-0.004183
874,0.422154,0.1464349999999999,-0.894619,-0.003529,0.007465,-0.009022
875,0.422439,0.146602,-0.894457,-0.005492,0.005482,-0.009855
876,0.42268,0.14679,-0.8943120000000001,-0.004468,0.009628,-0.005453
877,0.422792,0.146838,-0.894252,-0.004136,0.004331,-0.001638
878,0.422771,0.14685,-0.894259,-0.004726,0.004334,-0.00337
879,0.422724,0.146843,-0.894282,-0.003077,0.004967,-0.00327
880,0.422775,0.146914,-0.8942469999999999,-0.002044,0.007352,-0.00561
881,0.422987,0.147042,-0.894126,-0.000135,0.008826,-0.003229
882,0.423209,0.147142,-0.8940040000000001,-0.00054,0.008147,-0.002663
883,0.42328,0.147181,-0.893964,-0.000489,0.0077569999999999,-0.001956
884,0.423267,0.147169,-0.893972,-0.00278,0.005739,-0.003077
885,0.423257,0.147167,-0.893977,0.001593,0.008397,-0.0035909999999999
886,0.423325,0.147191,-0.893941,0.003829,0.0068319999999999,-0.005595
887,0.423338,0.147194,-0.893934,-0.000243,0.0100019999999999,-0.0034659999999999
888,0.423247,0.147142,-0.8939860000000001,-0.0036149999999999,0.008406,-0.002483
889,0.423015,0.147005,-0.8941180000000001,-0.005718,0.003707,-0.001954
890,0.422802,0.146923,-0.8942319999999999,0.000644,0.007816,-0.006204
891,0.422808,0.1469359999999999,-0.894228,-0.000277,0.0065069999999999,-0.007719
892,0.422996,0.147018,-0.894125,-0.0044009999999999,0.005951,-0.00451
893,0.423159,0.147099,-0.894035,-0.004153,0.007946,-0.006615
894,0.4231279999999999,0.147116,-0.8940469999999999,-0.002855,0.007104,-0.006115
895,0.422979,0.147049,-0.894128,-0.00356,0.0070799999999999,-0.007178
896,0.422813,0.14697,-0.8942200000000001,0.000207,0.006335,-0.004569
897,0.42272,0.146927,-0.8942709999999999,0.000376,0.003479,-0.002763
898,0.422692,0.146925,-0.894284,-5.4000000000000005e-05,0.0072959999999999,-0.002185
899,0.4226729999999999,0.146921,-0.894294,-0.001119,0.006323,-0.0018239999999999
900,0.4226609999999999,0.146905,-0.894302,-0.000389,0.0073459999999999,-0.002457
901,0.42262,0.146872,-0.8943270000000001,0.00162,0.006097,-0.0026149999999999
902,0.422602,0.146844,-0.8943399999999999,-0.000727,0.003821,-0.003777
903,0.422651,0.146851,-0.894315,-0.002897,0.004882,-0.00313
904,0.4227229999999999,0.146884,-0.8942760000000001,-0.002633,0.007657,-0.004878
905,0.422693,0.146867,-0.894293,-0.0036409999999999,0.005721,-0.004846
906,0.422601,0.146814,-0.8943459999999999,-0.004174,0.004218,-0.002612
907,0.4224159999999999,0.14674,-0.894445,-0.000678,0.005649,-0.0066319999999999
908,0.422238,0.146662,-0.8945420000000001,-0.002027,0.00591,-0.005849
909,0.422039,0.146586,-0.894648,-0.00053,0.008429,-0.004659
910,0.421859,0.146534,-0.894741,-0.001266,0.006359,-0.00217
911,0.421792,0.146483,-0.894782,-0.0019309999999999,0.006868,-0.002862
912,0.421753,0.14648,-0.8948,-0.0035859999999999,0.005238,-0.004385
913,0.421753,0.146494,-0.894798,-0.004487,0.0058649999999999,-0.005974
914,0.4218189999999999,0.146551,-0.8947579999999999,-0.004414,0.0080209999999999,-0.004793
915,0.421912,0.146606,-0.894705,-0.003165,0.009033,-0.005427
916,0.4219859999999999,0.146655,-0.8946620000000001,-0.00266,0.007794,-0.006248
917,0.422016,0.146693,-0.894642,-0.001651,0.009145,-0.003231
918,0.42203,0.146708,-0.894633,-1.7e-05,0.008184,-0.005148
919,0.4219729999999999,0.14668,-0.8946639999999999,0.000955,0.007861,-0.0039109999999999
920,0.4218659999999999,0.1466329999999999,-0.8947219999999999,0.0017329999999999,0.005253,-0.001732
921,0.421718,0.146569,-0.8948020000000001,0.002888,0.004569,-0.000644
922,0.42161,0.146523,-0.894861,0.002066,0.004829,-0.000647
923,0.421567,0.146532,-0.8948799999999999,0.002414,0.001936,-0.000491
924,0.421618,0.146572,-0.894849,-0.0005059999999999,0.004688,-0.00162
925,0.4216609999999999,0.146606,-0.8948229999999999,-0.000839,0.0066989999999999,-0.002043
926,0.421666,0.1466,-0.8948219999999999,-0.007436,0.002616,-0.007003
927,0.421637,0.146598,-0.8948360000000001,-0.007483,0.004876,-0.0061189999999999
928,0.4217229999999999,0.14669,-0.8947809999999999,-0.010071,0.004418,-0.011851
929,0.421951,0.146905,-0.8946379999999999,-0.010665,0.005241,-0.008011
930,0.422266,0.14711,-0.8944549999999999,-0.009073,0.007232,-0.010589
931,0.4226069999999999,0.1473819999999999,-0.894249,-0.008102,0.0059229999999999,-0.013374
932,0.42265,0.147514,-0.894207,-0.003567,0.006523,-0.005939
933,0.422722,0.147623,-0.8941549999999999,-0.0004349999999999,0.007498,-0.0067239999999999
934,0.4228229999999999,0.14776,-0.894085,0.008222,0.009345,0.003902
935,0.422796,0.147809,-0.8940889999999999,0.009424,0.00899,0.001099
936,0.422641,0.147811,-0.8941620000000001,0.0131349999999999,0.010072,0.001081
937,0.4225399999999999,0.147722,-0.894225,0.007406,0.006697,0.002791
938,0.422271,0.147559,-0.894379,0.006058,0.007928,0.0038759999999999
939,0.421971,0.147363,-0.894553,0.001384,0.005698,6.7e-05
940,0.4216649999999999,0.147119,-0.8947370000000001,-0.000965,0.0026,-0.0017469999999999
941,0.421415,0.146963,-0.8948799999999999,-0.001539,0.005502,-0.004366
942,0.421288,0.146845,-0.8949600000000001,-0.007012,0.002325,-0.00595
943,0.42125,0.146821,-0.8949819999999999,-0.012025,0.001006,-0.008797
944,0.421317,0.146851,-0.8949450000000001,-0.017768,0.001693,-0.0079329999999999
945,0.4214819999999999,0.146963,-0.894849,-0.01308,0.007532,-0.007571
946,0.421612,0.147053,-0.8947729999999999,-0.0126769999999999,0.008327,-0.014208
947,0.4216069999999999,0.1471039999999999,-0.894767,-0.008201,0.012213,-0.010705
948,0.421626,0.14715,-0.89475,-0.005992,0.005163,-0.011347
949,0.421722,0.147227,-0.894692,-0.007492,3.6e-05,-0.0081549999999999
950,0.4220399999999999,0.147475,-0.894502,0.002337,0.012971,-0.004775
951,0.422263,0.147618,-0.894373,0.003167,0.009456,-0.000647
952,0.4224819999999999,0.147771,-0.894244,0.00957,0.007792,-0.001355
953,0.422835,0.147977,-0.894043,0.0098739999999999,0.0070069999999999,0.004685
954,0.423183,0.148155,-0.893849,0.006459,0.0053939999999999,-0.000392
955,0.423554,0.148333,-0.8936440000000001,0.003906,0.004636,-0.000399
956,0.424043,0.1485119999999999,-0.893382,-0.004472,0.0050219999999999,-0.001927
957,0.4245779999999999,0.148717,-0.893094,-0.003832,0.002376,-0.003543
958,0.424971,0.14889,-0.8928780000000001,-0.003553,0.004659,-0.0065819999999999
959,0.4252329999999999,0.149,-0.8927350000000001,-0.006364,0.011583,-0.006099
960,0.4251979999999999,0.148993,-0.892753,-0.0063289999999999,0.01159,-0.006082
961,0.424861,0.148834,-0.89294,-0.003948,0.009888,-0.005116
962,0.4242109999999999,0.148515,-0.893302,-0.001542,0.007949,-0.002862
963,0.423496,0.148113,-0.893708,-0.001209,0.006703,-0.003402
964,0.422956,0.147786,-0.894018,-0.000562,0.004573,-0.003336
965,0.422685,0.147621,-0.894173,-0.001756,0.004723,-0.002784
966,0.42266,0.147593,-0.8941899999999999,-0.001807,0.004629,-0.004751
967,0.422754,0.147629,-0.8941389999999999,-0.0021609999999999,0.004409,-0.002559
968,0.422772,0.147623,-0.8941319999999999,-0.005047,0.008322,-0.0079069999999999
969,0.4226859999999999,0.147566,-0.8941819999999999,-0.006045,0.005739,-0.005492
970,0.422574,0.147503,-0.8942450000000001,-0.004377,0.007908,-0.007901
971,0.422475,0.14744,-0.894302,-0.005071,0.008048,-0.010453
972,0.422479,0.1474339999999999,-0.894301,-0.005059,0.003613,-0.0069739999999999
973,0.422596,0.147483,-0.8942379999999999,-0.005558,0.006035,-0.006305
974,0.42277,0.1475769999999999,-0.8941399999999999,-0.000651,0.0069489999999999,-0.004938
975,0.422906,0.147652,-0.894064,-0.000268,0.005149,-0.004588
976,0.422975,0.147697,-0.8940239999999999,0.000732,0.002312,-0.001118
977,0.423142,0.14781,-0.893925,0.0027,0.006639,-0.002055
978,0.423251,0.1479069999999999,-0.893858,0.003186,0.004833,-0.0013449999999999
979,0.423365,0.147994,-0.89379,0.001867,0.008622,-0.0027559999999999
980,0.423466,0.14804,-0.893734,1.2e-05,0.005219,-0.001148
981,0.42357,0.14808,-0.8936780000000001,-0.003785,0.004173,-0.002959
982,0.423577,0.1481039999999999,-0.8936709999999999,-0.003839,0.004209,-0.004507
983,0.423563,0.1481039999999999,-0.893677,-0.005839,0.00488,-0.003585
984,0.423466,0.148089,-0.893726,-0.0036509999999999,0.007963,-0.00755
985,0.423317,0.148047,-0.893804,-0.004676,0.006097,-0.006663
986,0.423185,0.147994,-0.893875,-0.003599,0.008043,-0.00705
987,0.422983,0.147876,-0.89399,-0.00451,0.005246,-0.005424
988,0.422752,0.147752,-0.89412,-0.002738,0.00595,-0.006301
989,0.422563,0.147634,-0.894229,-0.00113,0.004725,-0.004514
990,0.422402,0.147491,-0.894328,-0.005075,0.002853,-0.001577
991,0.422235,0.147362,-0.8944280000000001,-0.004998,0.001655,-0.002163
992,0.422045,0.147253,-0.8945360000000001,-0.004534,0.002787,-0.005626
993,0.421861,0.14717,-0.8946360000000001,-0.001421,0.007127,-0.007921
994,0.421677,0.14708,-0.8947379999999999,-0.0028079999999999,0.0087739999999999,-0.005729
995,0.4214859999999999,0.146991,-0.894842,-0.0019309999999999,0.011014,-0.006815
996,0.4213119999999999,0.146901,-0.8949389999999999,0.0014789999999999,0.008906,-0.005451
997,0.42115,0.146816,-0.8950290000000001,-0.00042,0.0064129999999999,-0.004644
998,0.420976,0.146725,-0.895126,9.1e-05,0.004704,-0.003906
999,0.4208229999999999,0.146652,-0.8952100000000001,6e-05,0.007523,-0.003182
1000,0.420726,0.146597,-0.895264,-0.001216,0.005365,-0.004882
1001,0.420629,0.146531,-0.8953209999999999,-0.001393,0.005477,-0.00394
1002,0.420534,0.1464589999999999,-0.8953780000000001,-0.000429,0.0053659999999999,-0.0038689999999999
1003,0.42046,0.1464,-0.8954219999999999,-0.004536,0.004006,-0.005854
1004,0.420416,0.146378,-0.895446,-0.0026609999999999,0.003799,-0.0034189999999999
1005,0.420432,0.146387,-0.895437,-0.004188,0.001471,-0.006434
1006,0.4204779999999999,0.146414,-0.8954110000000001,-0.003043,0.005732,-0.002203
1007,0.420513,0.1464369999999999,-0.8953909999999999,-0.003933,0.004793,-0.005229
1008,0.420519,0.146441,-0.895387,-0.004046,0.006864,-0.005934
1009,0.420545,0.146454,-0.895373,-0.003111,0.006332,-0.005994
1010,0.420605,0.146477,-0.8953409999999999,-0.002164,0.0064459999999999,-0.004989
1011,0.420675,0.146533,-0.895299,-0.001013,0.006208,-0.004603
1012,0.4206899999999999,0.146539,-0.895291,-0.000341,0.006903,-0.003559
1013,0.420592,0.146478,-0.8953469999999999,-0.002425,0.004294,-0.004113
1014,0.4205239999999999,0.1464339999999999,-0.895386,-0.001258,0.0022329999999999,-0.004303
1015,0.4206,0.146474,-0.895344,-0.004432,0.004542,-0.004009
1016,0.4207689999999999,0.146568,-0.895249,-0.0010609999999999,0.007455,-0.007522
1017,0.421033,0.146703,-0.8951030000000001,-0.002545,0.0041,-0.002328
1018,0.421213,0.146752,-0.8950100000000001,-0.003961,0.001808,-0.001261
1019,0.421367,0.146816,-0.894927,-0.002604,0.001072,-0.00705
1020,0.421717,0.147117,-0.8947129999999999,-0.001185,0.003792,-0.0024129999999999
1021,0.42223,0.147498,-0.894408,-0.002216,0.009072,-0.0036479999999999
1022,0.422583,0.147727,-0.8942040000000001,-0.001532,0.016137,-0.006706
1023,0.42257,0.147743,-0.894207,-0.001518,0.016121,-0.006702
1024,0.422368,0.147574,-0.894331,-0.003132,0.002298,-0.006304
1025,0.422188,0.1474339999999999,-0.894439,-0.006004,-0.002491,-0.003297
1026,0.422297,0.1474619999999999,-0.894382,-0.006037,-0.005082,-0.002392
1027,0.422626,0.147672,-0.894193,-0.0083489999999999,-0.002423,-0.0022
1028,0.4231319999999999,0.147968,-0.893904,-0.005697,0.001171,-0.004549
1029,0.423649,0.148282,-0.8936069999999999,-0.00359,0.008868,-0.0082329999999999
1030,0.423979,0.14845,-0.893423,-0.0048509999999999,0.0129419999999999,-0.006571
1031,0.423952,0.148411,-0.893442,-0.005113,0.009228,-0.008948
1032,0.4235819999999999,0.148228,-0.893648,-0.005827,0.009288,-0.00659
1033,0.4230359999999999,0.147973,-0.893949,0.0040729999999999,0.0089489999999999,-0.0027949999999999
1034,0.4226359999999999,0.147792,-0.8941680000000001,0.010088,0.006139,-0.002744
1035,0.422538,0.1477359999999999,-0.894223,0.010079,0.0032189999999999,-0.00101
1036,0.422797,0.147865,-0.8940790000000001,0.009484,0.001854,0.0012109999999999
1037,0.42325,0.1480759999999999,-0.8938299999999999,0.007231,0.004344,0.001588
1038,0.4235569999999999,0.148281,-0.893651,0.001309,0.006245,-0.000697
1039,0.423706,0.1484069999999999,-0.89356,0.000535,0.012345,-0.006831
1040,0.4237439999999999,0.148427,-0.8935379999999999,-0.003089,0.014613,-0.0071579999999999
1041,0.4237579999999999,0.1483259999999999,-0.893548,-0.009192,0.008138,-0.006186
1042,0.4234779999999999,0.148065,-0.893724,-0.009172,0.002692,-0.0059039999999999
1043,0.42295,0.147772,-0.8940229999999999,-0.011482,0.0004969999999999,-0.007741
1044,0.422451,0.147521,-0.8943,-0.013469,0.000825,-0.006625
1045,0.42213,0.147303,-0.894488,-0.011806,-0.0001159999999999,-0.010206
1046,0.421922,0.147206,-0.894601,-0.009172,-0.002034,-0.005515
1047,0.421849,0.14717,-0.894642,-0.008504,-0.002075,-0.0057799999999999
1048,0.421885,0.147196,-0.8946209999999999,-0.003107,-0.0002379999999999,-0.003771
1049,0.4220359999999999,0.147296,-0.894533,-0.003518,0.002485,-0.001158
1050,0.4222229999999999,0.1474369999999999,-0.8944209999999999,-8.9e-05,0.003991,-0.000964
1051,0.422267,0.147531,-0.894385,0.003606,0.008475,-0.004159
1052,0.4222689999999999,0.147569,-0.8943780000000001,0.004229,0.009673,-0.0035409999999999
1053,0.422321,0.14764,-0.894342,0.0045439999999999,0.011189,-0.004767
1054,0.422467,0.147721,-0.894259,0.005878,0.012619,-0.005139
1055,0.422627,0.147793,-0.894172,0.004528,0.011173,-0.0057909999999999
1056,0.4228439999999999,0.147883,-0.8940540000000001,0.001274,0.007405,-0.002003
1057,0.423216,0.148001,-0.893859,-0.001189,0.006204,-0.004502
1058,0.423652,0.148165,-0.893625,-0.005699,0.004331,-0.004462
1059,0.4241109999999999,0.148358,-0.893375,-0.004235,0.005664,-0.006939
1060,0.424667,0.148578,-0.893075,-0.004547,0.00784,-0.009544
1061,0.425271,0.14883,-0.8927450000000001,-0.006371,0.0074959999999999,-0.005402
1062,0.425681,0.14895,-0.8925299999999999,-0.009131,0.0041719999999999,-0.005771
1063,0.425921,0.149018,-0.8924040000000001,-0.0073269999999999,0.004332,-0.006415
1064,0.426172,0.1491,-0.8922709999999999,-0.0073939999999999,0.002283,-0.005007
1065,0.426339,0.149148,-0.892183,-0.0075,0.000419,-0.005294
1066,0.426418,0.149173,-0.892141,-0.006954,-0.001727,-0.004359
1067,0.4264189999999999,0.149134,-0.8921469999999999,-0.005581,0.001989,-0.001835
1068,0.426359,0.149056,-0.8921879999999999,-0.000654,0.002128,-0.002755
1069,0.426335,0.149035,-0.8922040000000001,0.000637,0.004347,-0.00248
1070,0.42636,0.149021,-0.892194,0.000505,0.001903,-0.003696
1071,0.426437,0.149043,-0.8921530000000001,0.0028079999999999,0.004964,-0.001325
1072,0.426457,0.149064,-0.8921399999999999,0.002757,0.005248,0.000111
1073,0.4263399999999999,0.149006,-0.8922059999999999,-0.000712,0.004513,-0.001318
1074,0.426104,0.148861,-0.892343,-0.0004759999999999,0.004657,-0.001182
1075,0.425874,0.148731,-0.892474,0.000716,0.007427,-0.005765
1076,0.425647,0.1486289999999999,-0.892599,-0.004382,0.005088,-0.005487
1077,0.4254699999999999,0.148507,-0.892704,-0.00506,0.004508,-0.0065879999999999
1078,0.425426,0.1484339999999999,-0.8927370000000001,-0.0065569999999999,0.006473,-0.0073019999999999
1079,0.425422,0.148424,-0.892741,-0.007896,0.002119,-0.005529
1080,0.42536,0.1483529999999999,-0.892782,-0.0082,0.002053,-0.005152
1081,0.4252829999999999,0.148313,-0.892826,-0.002889,0.006259,-0.006207
1082,0.425246,0.148294,-0.8928459999999999,-0.0035689999999999,0.003409,-0.008445
1083,0.4252729999999999,0.148343,-0.892825,-0.0045579999999999,0.005358,-0.006085
1084,0.425343,0.1483789999999999,-0.8927860000000001,-0.00562,0.0055829999999999,-0.00733
1085,0.425386,0.148412,-0.89276,-0.005922,0.005961,-0.005464
1086,0.425383,0.148389,-0.8927649999999999,-0.0069099999999999,0.0013449999999999,-0.002315
1087,0.42531,0.148333,-0.892809,-0.0031609999999999,0.00427,-0.008283
1088,0.4249949999999999,0.148223,-0.892978,0.0017329999999999,0.0092319999999999,-0.007184
1089,0.424418,0.148014,-0.893287,-0.00033,0.005016,0.0018989999999999
1090,0.4235649999999999,0.147573,-0.8937649999999999,0.0045969999999999,0.010569,0.000393
1091,0.422282,0.146874,-0.894486,0.006765,0.008735,0.004853
1092,0.420818,0.145999,-0.8953190000000001,0.006275,0.003018,0.003321
1093,0.4194729999999999,0.145231,-0.896075,0.003379,-0.006865,-0.002362
1094,0.4187619999999999,0.144878,-0.896465,0.003129,-0.005321,-0.004033
1095,0.418738,0.144887,-0.896474,-0.002554,-0.002309,-0.00326
1096,0.419063,0.145075,-0.896292,-0.010234,0.003149,-0.010965
1097,0.41936,0.145289,-0.896119,-0.0126209999999999,0.009328,-0.013656
1098,0.419639,0.145504,-0.8959530000000001,-0.018119,0.015446,-0.012281
1099,0.420044,0.14572,-0.8957280000000001,-0.017807,0.010331,-0.015557
1100,0.420245,0.145752,-0.8956280000000001,-0.01456,0.006027,-0.010042
1101,0.420079,0.145675,-0.895719,-0.01061,0.001664,-0.006884
1102,0.419886,0.14552,-0.895835,-0.003153,-0.004666,-0.00213
1103,0.419935,0.1454,-0.8958309999999999,0.003054,-0.0087879999999999,0.001437
1104,0.420172,0.1454349999999999,-0.8957139999999999,0.011758,-0.008412,0.005425
1105,0.420381,0.1456059999999999,-0.8955879999999999,0.012114,-0.0044469999999999,0.007817
1106,0.420502,0.14577,-0.8955049999999999,0.01117,0.002393,0.005002
1107,0.420518,0.145926,-0.8954719999999999,0.008757,0.0092859999999999,-0.004552
1108,0.4205569999999999,0.146164,-0.895415,0.008154,0.017105,-0.006074
1109,0.420551,0.146358,-0.895386,-0.000293,0.021046,-0.010192
1110,0.420411,0.1464369999999999,-0.895439,-0.006593,0.021166,-0.015099
1111,0.420255,0.146441,-0.8955120000000001,-0.004254,0.023206,-0.016079
1112,0.420035,0.14625,-0.8956459999999999,-0.010596,0.018438,-0.0138389999999999
1113,0.419705,0.145955,-0.895849,-0.007489,0.014171,-0.013102
1114,0.419407,0.14564,-0.89604,-0.0107,0.004095,-0.01134
1115,0.4191859999999999,0.145406,-0.8961809999999999,-0.0137449999999999,-0.000265,-0.007384
1116,0.418908,0.145126,-0.8963559999999999,-0.012445,-0.004105,-0.005438
1117,0.4186729999999999,0.14492,-0.8964989999999999,-0.009188,-0.0009539999999999,-0.001801
1118,0.418493,0.144746,-0.8966120000000001,-0.012976,-0.009247,-0.002879
1119,0.418545,0.144779,-0.896582,-0.013013,-0.008548,-0.004785
1120,0.418906,0.145037,-0.896372,-0.00643,-0.005892,-0.000204
1121,0.419589,0.145416,-0.89599,-0.000949,-0.007858,0.0031379999999999
1122,0.42028,0.145798,-0.8956049999999999,9e-06,-0.01001,0.001852
1123,0.4207909999999999,0.14609,-0.895317,0.005326,-0.009585,0.0093
1124,0.421091,0.146269,-0.8951469999999999,0.007956,-0.00929,0.0075739999999999
1125,0.4212229999999999,0.146439,-0.895057,0.009548,-0.005005,0.006736
1126,0.421288,0.146645,-0.894993,0.009926,-9.9e-05,0.0030399999999999
1127,0.421463,0.146999,-0.8948520000000001,0.010559,0.00919,-0.003356
1128,0.421846,0.147483,-0.894592,0.008619,0.021188,-0.008698
1129,0.422268,0.1478799999999999,-0.8943270000000001,0.004444,0.025018,-0.009909
1130,0.42243,0.148043,-0.894224,0.00091,0.028517,-0.010424
1131,0.422376,0.1479869999999999,-0.894259,-0.002912,0.021569,-0.014784
1132,0.422075,0.147789,-0.894433,-0.00612,0.017876,-0.014212
1133,0.4216149999999999,0.147456,-0.894705,-0.008773,0.009267,-0.013788
1134,0.420964,0.147039,-0.8950799999999999,-0.014409,0.005183,-0.012863
1135,0.420339,0.1466299999999999,-0.8954409999999999,-0.013693,0.002921,-0.011008
1136,0.419912,0.146332,-0.89569,-0.015447,0.003204,-0.009644
1137,0.419709,0.146111,-0.8958209999999999,-0.014924,-0.001625,-0.0072239999999999
1138,0.419671,0.145995,-0.895858,-0.014398,-0.004378,-0.0075239999999999
1139,0.419807,0.14601,-0.895792,-0.010581,-0.004591,-0.0077269999999999
1140,0.420133,0.14617,-0.8956129999999999,-0.009748,-0.002921,-0.005861
1141,0.4206689999999999,0.146477,-0.8953110000000001,-0.0022429999999999,0.002251,-0.002791
1142,0.421349,0.146843,-0.8949309999999999,0.001091,0.0035619999999999,-0.0033079999999999
1143,0.421922,0.147148,-0.894611,0.002425,0.001732,0.002933
1144,0.4223159999999999,0.147345,-0.894393,0.004183,0.00091,0.006911
1145,0.422576,0.147453,-0.894252,0.008179,-0.004829,0.006221
1146,0.422656,0.147481,-0.8942100000000001,0.013104,-0.008687,0.009871
1147,0.422731,0.147534,-0.894166,0.011854,-0.003018,0.00943
1148,0.422808,0.147582,-0.8941209999999999,0.007429,1.6e-05,0.002382
1149,0.4229239999999999,0.147641,-0.894057,0.004001,0.004611,0.000944
1150,0.423029,0.147733,-0.893992,0.002035,0.01018,-0.003759
1151,0.423084,0.147807,-0.8939530000000001,-0.002705,0.01267,-0.013777
1152,0.4231319999999999,0.147822,-0.8939280000000001,-0.008139,0.0128069999999999,-0.009941
1153,0.423072,0.147753,-0.893968,-0.009543,0.010709,-0.010527
1154,0.422951,0.147654,-0.894042,-0.0089959999999999,0.011053,-0.014711
1155,0.422696,0.147469,-0.894193,-0.012097,0.008842,-0.013675
1156,0.422239,0.147226,-0.8944489999999999,-0.012708,0.004263,-0.012625
1157,0.421821,0.146981,-0.8946860000000001,-0.008308,0.005301,-0.0131659999999999
1158,0.4216109999999999,0.1468819999999999,-0.8948010000000001,-0.005275,0.004241,-0.010243
1159,0.421625,0.146874,-0.8947959999999999,-0.0080349999999999,0.0021739999999999,-0.010263
1160,0.4217,0.146926,-0.894752,-0.009377,0.001115,-0.003304
1161,0.4217579999999999,0.146957,-0.8947200000000001,-0.005926,-0.001281,-0.004374
1162,0.42188,0.147043,-0.894648,0.000239,-0.001642,-0.004232
1163,0.422145,0.147206,-0.894497,0.002065,0.001567,-0.000859
1164,0.422431,0.147364,-0.894335,0.002023,0.000708,0.000521
1165,0.422544,0.147509,-0.894258,0.006945,0.002103,0.002382
1166,0.422576,0.147566,-0.894234,0.008119,0.001817,0.0010609999999999
1167,0.4226229999999999,0.147641,-0.894199,0.008407,0.004855,-0.001202
1168,0.422729,0.147734,-0.894134,0.003266,0.005357,-0.001969
1169,0.422821,0.147819,-0.894076,0.000106,0.008522,-0.003706
1170,0.422881,0.147875,-0.8940379999999999,-0.003371,0.0097019999999999,-0.006367
1171,0.422938,0.147897,-0.894008,-0.004267,0.010108,-0.009694
1172,0.423006,0.147924,-0.893971,-0.008424,0.006892,-0.009288
1173,0.422983,0.147888,-0.8939879999999999,-0.008173,0.006592,-0.010324
1174,0.4228729999999999,0.14781,-0.8940530000000001,-0.00936,0.005068,-0.008901
1175,0.4227039999999999,0.147703,-0.894151,-0.010152,-0.000593,-0.009048
1176,0.422529,0.147614,-0.8942479999999999,-0.0073069999999999,0.003356,-0.0069209999999999
1177,0.42239,0.147536,-0.8943270000000001,-0.0077319999999999,0.000154,-0.008536
1178,0.422256,0.147493,-0.8943969999999999,-0.00447,-0.001802,-0.002957
1179,0.422202,0.147496,-0.8944219999999999,-0.001426,0.0005139999999999,-0.002444
1180,0.422279,0.147595,-0.8943690000000001,0.000832,0.000781,-0.00149
1181,0.422372,0.1477,-0.894308,0.000632,0.005346,-0.00181
1182,0.422506,0.147811,-0.8942260000000001,0.0027559999999999,0.006379,-0.003128
1183,0.422573,0.147883,-0.894183,0.003239,0.006475,-0.002104
1184,0.422574,0.147902,-0.8941790000000001,0.000308,0.004579,-0.0035259999999999
1185,0.422514,0.1478789999999999,-0.8942110000000001,-0.00131,0.006342,-0.0038299999999999
1186,0.422379,0.147785,-0.894291,-0.002396,0.00555,-0.00465
1187,0.422241,0.147691,-0.8943709999999999,-0.002686,0.006743,-0.006523
1188,0.422151,0.147615,-0.894426,-0.003297,0.0043619999999999,-0.008513
1189,0.422134,0.147543,-0.894446,-0.007003,-0.00057,-0.004327
1190,0.422064,0.1475,-0.894486,-0.00733,0.0026,-0.006591
1191,0.4220319999999999,0.147467,-0.8945069999999999,-0.008122,0.003152,-0.0070129999999999
1192,0.422047,0.147477,-0.8944979999999999,-0.008687,0.004882,-0.008487
1193,0.422108,0.147524,-0.8944610000000001,-0.0052229999999999,0.002211,-0.00599
1194,0.422181,0.147544,-0.894424,-0.004837,0.002114,-0.005692
1195,0.422195,0.147559,-0.894415,-0.0069879999999999,0.004983,-0.004389
1196,0.422166,0.147567,-0.8944270000000001,-0.000687,0.002518,-0.006055
1197,0.422147,0.147591,-0.894432,0.0017579999999999,0.003913,-0.005775
1198,0.422193,0.147654,-0.8944,0.001239,0.002477,-0.000726
1199,0.422234,0.147707,-0.894372,0.002327,0.000624,-0.003089
1200,0.422243,0.1477119999999999,-0.894367,-0.000109,0.0021899999999999,-0.004574
1201,0.422289,0.147748,-0.894339,-0.0009939999999999,0.004154,-0.005365
1202,0.422289,0.147751,-0.894338,-0.003695,0.004699,-0.005594
1203,0.4222609999999999,0.147741,-0.8943530000000001,-0.002934,0.006281,-0.007975
1204,0.4222189999999999,0.14767,-0.894385,-0.0035789999999999,0.007039,-0.007455
1205,0.422066,0.14756,-0.894476,-0.008873,0.002938,-0.006769
1206,0.4218409999999999,0.147452,-0.8946,-0.00555,0.001901,-0.006264
1207,0.421677,0.147369,-0.89469,-0.006775,0.003968,-0.004846
1208,0.421579,0.147311,-0.8947459999999999,-0.003351,0.000226,-0.005431
1209,0.4215359999999999,0.147279,-0.8947709999999999,-0.003629,0.003829,-0.005665
1210,0.421489,0.147255,-0.894798,-0.002269,0.002892,-0.005425
1211,0.421468,0.147244,-0.894809,-0.004949,0.0026739999999999,-0.004254
1212,0.421458,0.14724,-0.8948149999999999,-0.000362,0.005561,-0.00373
1213,0.421512,0.147272,-0.894784,-0.001667,0.003409,-0.004661
1214,0.421562,0.147289,-0.894757,-0.005501,0.000522,1.3e-05
1215,0.421596,0.147266,-0.8947450000000001,-0.00259,0.000759,0.001923
1216,0.421558,0.147221,-0.8947709999999999,-0.003498,0.000896,-0.0009199999999999
1217,0.421613,0.14726,-0.8947379999999999,0.002688,-0.002393,-0.002768
1218,0.421824,0.147369,-0.8946209999999999,-0.000987,-0.002838,-0.001619
1219,0.42211,0.147567,-0.894453,-0.000327,-0.004653,-0.000749
1220,0.4223739999999999,0.14785,-0.894282,3.5e-05,0.005379,-0.009419
1221,0.422687,0.148215,-0.8940739999999999,-0.003528,0.012369,-0.009292
1222,0.423042,0.148567,-0.893848,-0.004752,0.011406,-0.012173
1223,0.423378,0.148871,-0.8936379999999999,-0.009163,0.02279,-0.01957
1224,0.423599,0.14902,-0.893508,-0.006943,0.022336,-0.01645
1225,0.423468,0.148889,-0.893592,-0.009786,0.009574,-0.008812
1226,0.422966,0.148534,-0.8938889999999999,-0.007836,0.006663,-0.009859
1227,0.422336,0.148144,-0.894251,-0.0030859999999999,0.00475,-0.0083819999999999
1228,0.421807,0.147785,-0.89456,-0.00306,-0.001117,-0.005327
1229,0.42139,0.1475,-0.894804,-0.002796,-0.008554,0.002393
1230,0.420985,0.147342,-0.895021,0.001135,-0.009113,0.001817
1231,0.420703,0.147248,-0.8951680000000001,0.000348,-0.003388,0.001309
1232,0.42052,0.1472119999999999,-0.8952610000000001,0.001294,-0.000712,0.001416
1233,0.420563,0.147217,-0.8952399999999999,0.001129,-0.00589,-0.001138
1234,0.420796,0.14736,-0.895107,-0.000401,-0.001944,-0.000737
1235,0.42112,0.14758,-0.894918,-0.005302,0.001483,-0.004526
1236,0.421442,0.147826,-0.894726,-0.005121,0.0031899999999999,-0.00771
1237,0.42163,0.147967,-0.8946139999999999,-0.0038439999999999,0.008374,-0.005593
1238,0.421629,0.147966,-0.8946149999999999,-0.002226,0.006193,-0.0069819999999999
1239,0.421547,0.147923,-0.89466,-0.002555,0.009914,-0.010003
1240,0.4214239999999999,0.147834,-0.894733,-0.0048439999999999,0.000893,-0.003247
1241,0.421234,0.147707,-0.8948440000000001,-0.004531,-0.001421,-0.0017929999999999
1242,0.421062,0.1476039999999999,-0.894941,-0.0034289999999999,-0.001318,-0.0019089999999999
1243,0.420919,0.147521,-0.895022,-0.0050409999999999,0.000871,-0.005612
1244,0.4208939999999999,0.14749,-0.8950389999999999,-0.002589,-0.000533,-0.004039
1245,0.421052,0.147517,-0.8949600000000001,-0.00229,-0.0016579999999999,-0.001539
1246,0.4212439999999999,0.147586,-0.894859,-0.001734,-0.002642,-8.499999999999999e-05
1247,0.421365,0.147633,-0.8947940000000001,-0.0004669999999999,-0.004201,-0.001004
1248,0.421407,0.147669,-0.894768,-0.000249,-0.002451,-0.003166
1249,0.421401,0.147721,-0.8947620000000001,-0.0034479999999999,0.0011279999999999,-0.004804
1250,0.4213739999999999,0.147817,-0.894759,-0.002657,0.00532,-0.006333
1251,0.4213689999999999,0.147964,-0.8947379999999999,0.001025,0.0099189999999999,-0.012169
1252,0.421451,0.148121,-0.8946729999999999,-0.001926,0.015438,-0.0106769999999999
1253,0.4215399999999999,0.148195,-0.894619,-0.000596,0.017286,-0.011265
1254,0.421464,0.148133,-0.8946649999999999,-0.003968,0.015685,-0.010121
1255,0.421188,0.147943,-0.894826,-0.005203,0.008902,-0.011119
1256,0.420813,0.147702,-0.895042,-0.004081,0.010226,-0.009926
1257,0.420442,0.147451,-0.895258,-0.002977,0.009699,-0.01119
1258,0.420089,0.14724,-0.895458,-0.007598,0.003333,-0.009052
1259,0.419821,0.147062,-0.8956129999999999,-0.008734,9.4e-05,-0.007447
1260,0.419675,0.146946,-0.895701,-0.008527,-0.000569,-0.009237
1261,0.419655,0.1469069999999999,-0.895716,-0.004723,0.001225,-0.008504
1262,0.419759,0.146917,-0.895666,-0.007955,-0.000509,-0.006251
1263,0.4199989999999999,0.147024,-0.8955360000000001,-0.0085,0.0004059999999999,-0.0064719999999999
1264,0.4203399999999999,0.147197,-0.8953469999999999,-0.010337,0.0016829999999999,-0.004509
1265,0.420614,0.147332,-0.8951969999999999,-0.002706,0.001243,-0.004248
1266,0.421025,0.147535,-0.89497,-0.004017,-0.000852,-0.001468
1267,0.421446,0.14777,-0.894733,-0.007078,-0.005924,-0.000393
1268,0.421608,0.1479359999999999,-0.8946290000000001,0.004463,-0.007188,0.005439
1269,0.421747,0.148075,-0.894541,0.00231,-0.005299,0.004297
1270,0.421876,0.148233,-0.8944540000000001,0.005324,-0.00181,0.002425
1271,0.4220569999999999,0.148369,-0.8943459999999999,0.003831,0.004005,-0.001818
1272,0.4222189999999999,0.148484,-0.89425,0.002006,0.006271,-0.003394
1273,0.422272,0.148531,-0.894217,-0.000367,0.006284,-0.0071189999999999
1274,0.422201,0.148606,-0.8942389999999999,-0.003759,0.005294,-0.006915
1275,0.422015,0.148579,-0.894331,-0.002505,0.0076709999999999,-0.005434
1276,0.421771,0.148494,-0.89446,0.0002109999999999,0.011006,-0.012125
1277,0.421668,0.148475,-0.8945120000000001,-0.006828,0.0135889999999999,-0.012898
1278,0.421579,0.148453,-0.8945569999999999,-0.00747,0.01242,-0.011113
1279,0.421418,0.148362,-0.894648,-0.010849,0.011443,-0.016393
1280,0.42122,0.148229,-0.894763,-0.010988,0.011149,-0.011136
1281,0.420946,0.148026,-0.894926,-0.009417,0.006088,-0.011049
1282,0.420764,0.147837,-0.895043,-0.004977,0.003057,-0.009223
1283,0.420738,0.147742,-0.895071,-0.0096969999999999,-0.003485,-0.006159
1284,0.420856,0.147793,-0.895007,-0.0092959999999999,-0.003399,-0.004697
1285,0.421074,0.14795,-0.8948790000000001,-0.004631,0.003097,-0.002826
1286,0.421281,0.148107,-0.894755,-0.002671,0.0034119999999999,-0.0006309999999999
1287,0.421396,0.148203,-0.8946850000000001,-0.001963,0.000799,-0.005843
1288,0.421488,0.14827,-0.894631,-0.0015199999999999,-0.001419,-0.00074
1289,0.42157,0.148333,-0.894581,-0.002045,-0.003375,-0.001705
1290,0.421687,0.148442,-0.894508,-5.6000000000000006e-05,-0.0033009999999999,0.00103
1291,0.4218399999999999,0.14855,-0.894418,0.000997,-0.003973,0.0006349999999999
1292,0.422004,0.148679,-0.8943200000000001,0.002252,-0.005154,0.000444
1293,0.422203,0.148831,-0.8942,0.004829,-0.002148,0.0038799999999999
1294,0.422359,0.148966,-0.8941040000000001,0.002522,0.00379,-0.005539
1295,0.4225569999999999,0.149083,-0.893991,-0.000621,0.004543,-0.002387
1296,0.422701,0.149162,-0.89391,5.9e-05,0.004219,-0.005459
1297,0.422864,0.14926,-0.8938159999999999,-0.001538,0.00577,-0.0065739999999999
1298,0.4230899999999999,0.1494069999999999,-0.8936850000000001,-0.004312,0.004233,-0.011223
1299,0.423404,0.149606,-0.893503,-0.003757,0.010291,-0.0086579999999999
1300,0.4236359999999999,0.149716,-0.893374,-0.005392,0.006214,-0.0110599999999999
1301,0.423874,0.149827,-0.893243,-0.0082849999999999,0.006011,-0.011878
1302,0.423851,0.14981,-0.893257,-0.00605,0.00969,-0.009713
1303,0.4236479999999999,0.14972,-0.893368,-0.006594,0.008346,-0.01334
1304,0.423472,0.149622,-0.893468,-0.0057469999999999,0.00707,-0.011317
1305,0.423427,0.149556,-0.8935,-0.004207,0.004252,-0.00953
1306,0.423421,0.149515,-0.89351,-0.008168,0.003774,-0.00656
1307,0.423325,0.149438,-0.893568,-0.0084689999999999,0.000785,-0.004885
1308,0.423197,0.149385,-0.8936379999999999,-0.007197,-0.001634,-0.005975
1309,0.423126,0.1494319999999999,-0.8936629999999999,-0.00563,0.001157,-0.006712
1310,0.423235,0.149527,-0.893596,-0.0015119999999999,0.00178,-0.005436
1311,0.4233119999999999,0.149612,-0.893545,-0.002246,0.003708,-0.00506
1312,0.4233149999999999,0.1496579999999999,-0.8935360000000001,-0.0004639999999999,-0.001846,0.001233
1313,0.4232869999999999,0.149669,-0.893548,-0.001992,-0.001018,-0.001716
1314,0.423364,0.149713,-0.8935040000000001,-0.001977,-0.000558,0.000468
1315,0.423523,0.149829,-0.893409,-0.001831,0.000439,-0.001779
1316,0.423633,0.149886,-0.8933469999999999,0.000821,-0.001449,-0.001474
1317,0.423691,0.149904,-0.893317,0.003952,-0.001116,-0.0004969999999999
1318,0.423741,0.1499069999999999,-0.893292,2.6e-05,-0.000157,-0.001376
1319,0.42368,0.149872,-0.8933270000000001,0.001414,-0.000763,-0.0041649999999999
1320,0.423629,0.149884,-0.89335,0.001161,0.00104,-0.0040659999999999
1321,0.423643,0.149941,-0.893333,-0.004224,0.008979,-0.005318
1322,0.423687,0.150008,-0.893301,-0.004253,0.008012,-0.012598
1323,0.423763,0.150101,-0.893249,-0.002926,0.011307,-0.009247
1324,0.423763,0.150088,-0.893252,-0.0071519999999999,0.007016,-0.012937
1325,0.423685,0.150052,-0.8932950000000001,-0.007684,0.006167,-0.010483
1326,0.4235489999999999,0.149964,-0.893374,-0.006618,0.004944,-0.01074
1327,0.423388,0.149886,-0.8934629999999999,-0.0068239999999999,0.005784,-0.011261
1328,0.423222,0.149783,-0.893559,-0.006794,0.006177,-0.009807
1329,0.423044,0.149667,-0.8936629999999999,-0.007654,0.003913,-0.009032
1330,0.422884,0.149567,-0.893755,-0.004839,0.001068,-0.005705
1331,0.42278,0.149476,-0.8938200000000001,-0.004155,-0.000504,-0.006525
1332,0.422688,0.1494319999999999,-0.8938709999999999,-0.002125,0.000104,-0.002293
1333,0.422567,0.149369,-0.8939379999999999,-0.004019,-0.001816,-0.001035
1334,0.422425,0.149301,-0.8940170000000001,-0.0015119999999999,-0.001565,-0.004268
1335,0.42238,0.1492869999999999,-0.894041,-0.000398,-0.0024059999999999,-0.003985
1336,0.422537,0.1494069999999999,-0.8939459999999999,-0.001623,-0.002144,-0.004171
1337,0.422755,0.149552,-0.893819,0.00057,0.001251,-0.001994
1338,0.422868,0.149668,-0.8937459999999999,0.000457,0.001134,-0.002067
1339,0.422861,0.149717,-0.893741,0.001455,0.003558,-0.003857
1340,0.422803,0.149755,-0.8937620000000001,-0.00311,0.006938,-0.006094
1341,0.42278,0.1497359999999999,-0.893776,-0.004796,0.006788,-0.007667
1342,0.422789,0.149741,-0.8937709999999999,-0.004759,0.006723,-0.007993
1343,0.422804,0.1497339999999999,-0.8937649999999999,-0.003767,0.007661,-0.007663
1344,0.422763,0.149692,-0.893792,-0.007572,0.006039,-0.009147
1345,0.422699,0.149631,-0.893832,-0.008209,0.003781,-0.007703
1346,0.422692,0.149579,-0.8938440000000001,-0.0082329999999999,0.0030859999999999,-0.008973
1347,0.4227149999999999,0.149553,-0.8938379999999999,-0.008118,-1.7e-05,-0.0067819999999999
1348,0.42265,0.149517,-0.893875,-0.006756,-0.000164,-0.00705
1349,0.422505,0.149483,-0.893949,-0.004994,0.000252,-0.006411
1350,0.422408,0.1494869999999999,-0.8939940000000001,-0.001158,0.002292,-0.0072209999999999
1351,0.422352,0.149506,-0.8940170000000001,-0.001728,0.004181,-0.003917
1352,0.422277,0.14949,-0.8940549999999999,-0.001562,0.002228,-0.00629
1353,0.422131,0.1494609999999999,-0.8941290000000001,-0.001751,0.001556,-0.003393
1354,0.422037,0.1494319999999999,-0.894178,-0.0034119999999999,0.004071,-0.006106
1355,0.4219449999999999,0.149437,-0.8942209999999999,0.000159,0.005104,-0.006811
1356,0.421876,0.149442,-0.894252,-0.002,0.003207,-0.002553
1357,0.42181,0.149418,-0.894288,-0.003475,0.00262,-0.005188
1358,0.421696,0.149394,-0.8943459999999999,-0.001057,0.003926,-0.006305
1359,0.421579,0.149348,-0.894408,-0.00364,0.0033469999999999,-0.006669
1360,0.4214729999999999,0.149293,-0.894468,-0.004221,0.00331,-0.007937
1361,0.4213449999999999,0.14924,-0.894537,-0.007969,0.000907,-0.00654
1362,0.421205,0.149177,-0.8946129999999999,-0.0052049999999999,0.001488,-0.006129
1363,0.421126,0.149153,-0.8946540000000001,-0.003203,0.002305,-0.00891
1364,0.4210689999999999,0.149143,-0.894683,-0.003756,0.002774,-0.00763
1365,0.421035,0.1491299999999999,-0.894701,-0.0037689999999999,0.004236,-0.007338
1366,0.4210779999999999,0.149105,-0.8946850000000001,-0.00671,0.001331,-0.006148
1367,0.421031,0.149047,-0.894716,-0.00677,-0.001541,-0.004438
1368,0.420901,0.148988,-0.8947870000000001,-0.002505,-0.001374,-0.004062
1369,0.420752,0.148944,-0.8948649999999999,-0.002829,-0.001651,-0.0015429999999999
1370,0.420674,0.148979,-0.8948959999999999,0.004573,0.005273,-0.001192
1371,0.420616,0.148983,-0.8949219999999999,0.003364,0.005893,-0.002569
1372,0.420467,0.148929,-0.895001,0.001301,0.002819,-0.002536
1373,0.420242,0.148859,-0.895119,0.002319,0.002905,-0.003914
1374,0.420048,0.148818,-0.895217,0.001369,0.002992,-0.0047469999999999
1375,0.419937,0.148835,-0.895266,-0.002822,0.003799,-0.003431
1376,0.419919,0.148859,-0.8952700000000001,-0.005704,0.0058649999999999,-0.010232
1377,0.420068,0.14894,-0.8951870000000001,-0.003991,0.010591,-0.012879
1378,0.420209,0.1489859999999999,-0.8951129999999999,-0.006817,0.010438,-0.011625
1379,0.420268,0.1489359999999999,-0.8950940000000001,-0.010371,0.007573,-0.009691
1380,0.4201729999999999,0.148813,-0.895158,-0.0067819999999999,0.0075739999999999,-0.01042
1381,0.420062,0.148688,-0.8952319999999999,-0.004397,0.00277,-0.008668
1382,0.4199239999999999,0.148538,-0.8953209999999999,-0.005342,0.001562,-0.00539
1383,0.41976,0.148387,-0.895423,-0.0080629999999999,-0.0042369999999999,-0.002282
1384,0.419609,0.148284,-0.8955110000000001,-0.001854,-0.005813,0.000888
1385,0.4195399999999999,0.14826,-0.895548,-0.002792,-0.0048119999999999,-0.002051
1386,0.419535,0.1482619999999999,-0.89555,0.0008449999999999,-0.002037,0.0012619999999999
1387,0.4195859999999999,0.148289,-0.8955209999999999,0.001144,-0.002171,-0.001437
1388,0.419616,0.14836,-0.895495,0.003434,-0.002868,-0.001676
1389,0.419704,0.148475,-0.895435,0.000111,0.000207,-0.0004849999999999
1390,0.419747,0.148578,-0.8953969999999999,0.000617,0.004101,-0.004307
1391,0.419803,0.148677,-0.8953549999999999,0.000348,0.010869,-0.008072
1392,0.419846,0.148731,-0.8953260000000001,-0.004059,0.010296,-0.009505
1393,0.419753,0.148693,-0.8953760000000001,-0.002364,0.0108069999999999,-0.0085849999999999
1394,0.419447,0.148539,-0.895545,-0.007398,0.005193,-0.010705
1395,0.419085,0.148346,-0.8957459999999999,-0.003665,0.00647,-0.010077
1396,0.4188989999999999,0.148201,-0.895857,-0.005141,0.005912,-0.011049
1397,0.418935,0.148178,-0.8958440000000001,-0.0072829999999999,0.004104,-0.011001
1398,0.4190029999999999,0.148167,-0.8958139999999999,-0.01141,0.0016129999999999,-0.009169
1399,0.419006,0.148117,-0.8958209999999999,-0.006668,-0.001022,-0.004432
1400,0.4189729999999999,0.148045,-0.895848,-0.006894,0.0001629999999999,-0.005519
1401,0.418963,0.148027,-0.895856,-0.006579,0.00125,-0.0051909999999999
1402,0.419112,0.148074,-0.8957780000000001,-0.003875,-0.000781,-0.005985
1403,0.419339,0.148214,-0.895649,-0.003018,0.002238,-0.004848
1404,0.419542,0.148347,-0.895532,-0.000841,0.001692,-0.000846
1405,0.4197229999999999,0.148446,-0.895431,0.001084,0.0021739999999999,-0.00261
1406,0.419799,0.148494,-0.895387,-0.000197,0.000279,0.000337
1407,0.419917,0.148571,-0.8953190000000001,0.002568,-0.0010789999999999,-0.002417
1408,0.420097,0.148671,-0.8952180000000001,0.000878,0.00053,-0.001388
1409,0.420279,0.148777,-0.895115,-0.001974,0.001736,-0.00407
1410,0.42039,0.148834,-0.8950530000000001,0.0004469999999999,0.003235,-0.002835
1411,0.420355,0.14885,-0.8950670000000001,-0.0035159999999999,0.006393,-0.005339
1412,0.4202439999999999,0.14883,-0.895123,-0.0047469999999999,0.008198,-0.010059
1413,0.420205,0.148833,-0.8951399999999999,-0.007241,0.008805,-0.012559
1414,0.4203189999999999,0.148886,-0.895078,-0.003799,0.009012,-0.010058
1415,0.420408,0.1489049999999999,-0.895033,-0.008237,0.006613,-0.010881
1416,0.420387,0.148856,-0.895051,-0.005485,0.003747,-0.0102989999999999
1417,0.4202609999999999,0.14875,-0.895128,-0.006534,0.002617,-0.009215
1418,0.4201149999999999,0.148645,-0.895214,-0.005167,0.001089,-0.006748
1419,0.420084,0.148601,-0.895236,-0.0035039999999999,0.002019,-0.004743
1420,0.420159,0.148612,-0.895199,-0.0033659999999999,-0.001609,-0.001927
1421,0.420243,0.148611,-0.895159,-0.001328,-0.001196,-0.001371
1422,0.420247,0.148597,-0.8951600000000001,-0.000569,-0.001564,0.0004
1423,0.4202229999999999,0.148594,-0.895172,-0.002102,-0.0062299999999999,0.000656
1424,0.420205,0.148617,-0.895176,0.002112,-0.004818,-0.000484
1425,0.420209,0.148665,-0.895167,0.00394,-0.003371,0.000666
1426,0.420227,0.148783,-0.8951379999999999,0.001999,0.004263,-0.003711
1427,0.420271,0.148893,-0.895099,0.000414,0.006869,-0.006176
1428,0.420417,0.14903,-0.895008,0.001977,0.010959,-0.008221
1429,0.420543,0.14912,-0.894934,-0.004802,0.009801,-0.0109959999999999
1430,0.420602,0.149137,-0.8949030000000001,-0.004464,0.010759,-0.012171
1431,0.420592,0.149085,-0.894917,-0.0060409999999999,0.010827,-0.011425
1432,0.420491,0.148967,-0.894984,-0.007069,0.007069,-0.011587
1433,0.420339,0.148805,-0.8950819999999999,-0.008947,0.003676,-0.0092909999999999
1434,0.4202229999999999,0.148652,-0.8951620000000001,-0.008647,-0.002198,-0.007609
1435,0.420116,0.148535,-0.895231,-0.0087239999999999,-0.00112,-0.006121
1436,0.420026,0.1484579999999999,-0.895287,-0.007199,-0.0032549999999999,-0.002037
1437,0.420013,0.148445,-0.8952950000000001,-0.005203,-0.003776,-0.004928
1438,0.42007,0.1484849999999999,-0.8952620000000001,-0.002498,-0.004777,-9.4e-05
1439,0.420105,0.148522,-0.8952389999999999,-4.6e-05,-0.0035789999999999,0.000967
1440,0.420152,0.148578,-0.895207,-0.002062,-0.002277,-0.0008039999999999
1441,0.420142,0.1486309999999999,-0.8952040000000001,0.002542,-0.003001,-0.000319
1442,0.4200819999999999,0.148669,-0.895225,0.004555,0.002439,-0.000466
1443,0.420018,0.14872,-0.8952469999999999,0.004893,0.0038829999999999,-0.0038469999999999
1444,0.419905,0.148766,-0.895292,0.000413,0.006019,-0.002398
1445,0.419735,0.148729,-0.8953780000000001,-0.004055,0.0110459999999999,-0.006996
1446,0.419592,0.148691,-0.895451,-0.0016079999999999,0.013296,-0.012416
1447,0.419534,0.148635,-0.895488,-0.004327,0.011658,-0.011265
1448,0.419438,0.148495,-0.8955559999999999,-0.0099379999999999,0.007129,-0.010587
1449,0.419326,0.148309,-0.895639,-0.0089719999999999,0.0058969999999999,-0.009588
1450,0.419267,0.148149,-0.8956940000000001,-0.010652,0.0003799999999999,-0.011838
1451,0.419221,0.148036,-0.895734,-0.012559,-0.001307,-0.007693
1452,0.419163,0.147963,-0.8957729999999999,-0.008931,-0.0008539999999999,-0.0086769999999999
1453,0.419179,0.148004,-0.895759,-0.0069319999999999,-0.001352,-0.007501
1454,0.419404,0.1481309999999999,-0.895632,-0.00432,-0.006239,0.0016809999999999
1455,0.419688,0.148307,-0.8954700000000001,-0.002589,-0.006874,0.001839
1456,0.4199319999999999,0.148481,-0.8953270000000001,-0.001322,-0.007093,-5.9e-05
1457,0.420048,0.148645,-0.8952450000000001,0.003384,0.001394,-0.003055
1458,0.420178,0.14881,-0.895157,0.002903,0.002176,-0.00235
1459,0.420303,0.148967,-0.895072,0.0032049999999999,0.00504,-0.001656
1460,0.420466,0.149088,-0.894975,-0.000987,0.011495,-0.005843
1461,0.420654,0.1492079999999999,-0.894867,-0.004089,0.01104,-0.005417
1462,0.420697,0.149218,-0.8948450000000001,-0.004071,0.010495,-0.010688
1463,0.420624,0.149128,-0.8948940000000001,-0.006729,0.008496,-0.010333
1464,0.420417,0.148954,-0.895021,-0.0076359999999999,0.004413,-0.010726
1465,0.420109,0.148723,-0.8952040000000001,-0.009297,0.0017289999999999,-0.009475
1466,0.419822,0.148514,-0.895373,-0.007347,-0.002473,-0.0083439999999999
1467,0.419659,0.148367,-0.895474,-0.007229,-0.000891,-0.006275
1468,0.419576,0.148319,-0.8955209999999999,-0.009191,-0.002583,-0.003802
1469,0.419509,0.148281,-0.895558,-0.008895,-0.005642,-0.002544
1470,0.41945,0.1482609999999999,-0.895589,-0.002763,-0.001395,-0.002711
1471,0.41945,0.1482619999999999,-0.895589,-0.000307,0.0008619999999999,-0.002375
1472,0.419502,0.148294,-0.89556,-0.000266,-0.001138,-0.002344
1473,0.419555,0.148358,-0.895524,-0.002334,0.0004759999999999,-0.002044
1474,0.419572,0.14845,-0.895501,0.000838,0.004733,-0.004691
1475,0.4195819999999999,0.148533,-0.895483,6.6e-05,0.0069849999999999,-0.004649
1476,0.41956,0.148564,-0.895488,-0.002201,0.007289,-0.006261
1477,0.419537,0.148564,-0.8954979999999999,-0.00343,0.006389,-0.006388
1478,0.419539,0.148561,-0.8954979999999999,-0.006469,0.005553,-0.010218
1479,0.419612,0.148569,-0.8954620000000001,-0.006343,0.006643,-0.009354
1480,0.4196399999999999,0.148522,-0.895457,-0.006737,0.0067209999999999,-0.008718
1481,0.419575,0.148423,-0.8955040000000001,-0.008045,0.003127,-0.008167
1482,0.419498,0.1483259999999999,-0.8955559999999999,-0.006961,0.001973,-0.008161
1483,0.419489,0.148268,-0.8955700000000001,-0.006037,0.000673,-0.007598
1484,0.419525,0.148229,-0.89556,-0.006698,-0.001531,-0.005258
1485,0.419588,0.14823,-0.8955299999999999,-0.005495,-0.001639,-0.003243
1486,0.419671,0.148266,-0.8954850000000001,-0.004281,-0.002651,-0.002541
1487,0.4197399999999999,0.1483259999999999,-0.895443,-0.001619,-0.000178,-0.002522
1488,0.4198479999999999,0.14843,-0.895375,-0.000842,0.002022,-0.003048
1489,0.4199529999999999,0.148537,-0.895308,-0.001343,0.003029,-0.0037549999999999
1490,0.420071,0.1486,-0.895242,-0.002606,0.006185,-0.005057
1491,0.420116,0.148606,-0.8952200000000001,-0.00108,0.005828,-0.003813
1492,0.420108,0.148577,-0.895228,-0.001315,0.003935,-0.005437
1493,0.420062,0.148549,-0.8952540000000001,-0.005985,0.003154,-0.005121
1494,0.420014,0.148481,-0.8952889999999999,-0.004715,0.000644,-0.009481
1495,0.419971,0.148447,-0.8953139999999999,-0.0073269999999999,0.001959,-0.0080819999999999
1496,0.41999,0.148482,-0.895299,-0.005226,0.000566,-0.007151
1497,0.420121,0.148543,-0.895228,-0.006486,0.001161,-0.006185
1498,0.420176,0.148569,-0.8951979999999999,-0.007532,0.001746,-0.0033
1499,0.420282,0.148634,-0.8951370000000001,-0.005609,0.0038929999999999,-0.007939
1500,0.420388,0.148697,-0.895077,-0.005227,0.004471,-0.007175
1501,0.420425,0.148716,-0.895056,-0.003387,0.00346,-0.003854
1502,0.4204529999999999,0.1487349999999999,-0.89504,-0.003781,0.0020989999999999,-0.004313
1503,0.4205319999999999,0.148755,-0.895,-0.0053549999999999,0.001499,-0.0049479999999999
1504,0.420563,0.148756,-0.894985,-0.001862,0.00432,-0.004063
1505,0.420447,0.148728,-0.8950440000000001,-0.000113,0.002594,-0.004278
1506,0.420307,0.148638,-0.895125,-0.004215,0.000532,-0.006227
1507,0.4200779999999999,0.148522,-0.895252,-0.001621,0.00312,-0.005368
1508,0.4199279999999999,0.148443,-0.895335,-0.005209,8.6e-05,-0.0019579999999999
1509,0.419718,0.148333,-0.895452,-0.006357,-0.001009,-0.001643
1510,0.4194319999999999,0.1481829999999999,-0.89561,-0.001571,0.000483,-0.004506
1511,0.419126,0.14804,-0.895777,-0.004255,-0.000396,-0.007589
1512,0.418797,0.147902,-0.8959540000000001,-0.005894,0.0028699999999999,-0.006451
1513,0.418562,0.14779,-0.8960819999999999,-0.006774,0.004142,-0.008184
1514,0.418459,0.147727,-0.896141,-0.007555,0.002435,-0.009346
1515,0.418385,0.147702,-0.89618,-0.00301,0.006488,-0.003845
1516,0.4182,0.147615,-0.89628,-0.005221,0.000868,-0.005835
1517,0.4181069999999999,0.147556,-0.896333,-0.005204,0.002346,-0.0066209999999999
1518,0.417934,0.147505,-0.8964219999999999,-0.002956,0.001772,-0.00673
1519,0.417885,0.147498,-0.8964469999999999,-0.0001139999999999,0.003015,-0.009254
1520,0.418058,0.147576,-0.8963530000000001,0.000246,0.005164,-0.006281
1521,0.418438,0.147718,-0.8961520000000001,0.000187,0.005587,-0.006176
1522,0.418876,0.147867,-0.8959229999999999,-0.014472,-0.007287,-0.002102
1523,0.4190109999999999,0.147868,-0.89586,-0.0134939999999999,-0.004618,-0.002486
1524,0.418785,0.14777,-0.8959809999999999,-0.008614,-0.001789,-0.003692
1525,0.418434,0.147655,-0.896164,0.002068,0.002812,-0.008987
1526,0.418226,0.1476,-0.8962700000000001,0.000978,0.004194,-0.009217
1527,0.4183739999999999,0.147697,-0.896186,-0.003778,0.002908,-0.008737
1528,0.4185399999999999,0.147755,-0.896099,-0.004035,0.0014449999999999,-0.001164
1529,0.4184199999999999,0.1477109999999999,-0.8961620000000001,0.000648,0.003335,-0.006136
1530,0.418327,0.147663,-0.8962129999999999,-0.004539,0.000988,-0.0035369999999999
1531,0.41825,0.147605,-0.896259,-0.004935,-0.000953,-0.005261
1532,0.4182899999999999,0.147594,-0.896242,-0.005097,8.1e-05,-0.008253
1533,0.418415,0.147655,-0.896173,-0.008442,0.000584,-0.005575
1534,0.418547,0.1477099999999999,-0.8961030000000001,-0.004408,-0.000753,-0.007111
1535,0.418593,0.147738,-0.896077,-0.0081319999999999,-9.4e-05,-0.00439
1536,0.418555,0.147758,-0.896091,-0.008094,-0.0001139999999999,-0.004376
1537,0.418476,0.147753,-0.8961290000000001,-0.002262,0.004163,-0.009984
1538,0.41855,0.147859,-0.896077,-0.004381,0.004058,-0.008693
1539,0.418821,0.148024,-0.8959229999999999,-0.003904,0.003343,-0.003766
1540,0.419034,0.1481319999999999,-0.895806,-0.002926,0.00267,-0.004127
1541,0.4190609999999999,0.148161,-0.8957879999999999,-0.0011539999999999,0.00226,-0.006617
1542,0.419013,0.14814,-0.8958139999999999,-0.003867,0.003731,-0.00804
1543,0.41895,0.148108,-0.895849,-0.0037119999999999,0.001321,-0.00915
1544,0.418998,0.148102,-0.895827,-0.002723,0.002914,-0.006059
1545,0.419102,0.1481319999999999,-0.8957729999999999,-0.003987,0.002335,-0.00387
1546,0.4192109999999999,0.148174,-0.895716,-0.008002,8e-05,-0.004339
1547,0.419255,0.1481869999999999,-0.8956930000000001,-0.006581,0.00286,-0.0054909999999999
1548,0.41926,0.1481839999999999,-0.895691,-0.00413,0.002314,-0.008743
1549,0.419238,0.148169,-0.8957040000000001,-0.005618,0.00242,-0.0087
1550,0.419155,0.148085,-0.895757,-0.002956,0.003618,-0.008983
1551,0.4190359999999999,0.148002,-0.895826,-0.005447,-0.0004799999999999,-0.009753
1552,0.418936,0.147925,-0.895885,-0.007376,-0.002737,-0.005985
1553,0.418842,0.147862,-0.89594,-0.004917,-0.0038799999999999,-0.004649
1554,0.418782,0.147857,-0.895969,-0.002598,0.000703,-0.004407
1555,0.418772,0.147878,-0.89597,-0.000513,-0.001622,-0.003261
1556,0.418847,0.147922,-0.8959280000000001,0.002815,0.0048649999999999,-0.004768
1557,0.41881,0.147919,-0.8959450000000001,-0.004122,0.002578,-0.004659
1558,0.41873,0.147871,-0.895991,-0.005888,0.002794,-0.008947
1559,0.418531,0.147777,-0.896099,-0.003782,0.003453,-0.005238
1560,0.418331,0.1477,-0.8962049999999999,-0.006344,0.001272,-0.008092
1561,0.4182149999999999,0.147666,-0.896265,-0.005175,0.000741,-0.0045829999999999
1562,0.418178,0.147643,-0.896286,-0.007931,0.000871,-0.005371
1563,0.418138,0.14762,-0.896309,-0.0093239999999999,0.0008029999999999,-0.0047079999999999
1564,0.418019,0.147571,-0.896372,-0.006611,0.001995,-0.009603
1565,0.417891,0.147528,-0.896439,-0.00656,0.000925,-0.005508
1566,0.417751,0.147448,-0.896517,-0.004635,-0.00014,-0.00601
1567,0.417682,0.147441,-0.89655,-0.005252,-0.0008039999999999,-0.006541
1568,0.417682,0.14745,-0.8965489999999999,-0.003345,0.002574,-0.00401
1569,0.417726,0.147499,-0.8965209999999999,-0.004335,0.00042,-0.004938
1570,0.4177649999999999,0.14756,-0.896492,-0.0033369999999999,0.004615,-0.002785
1571,0.417761,0.147549,-0.896496,-0.003485,0.0009339999999999,-0.001621
1572,0.417696,0.147496,-0.8965350000000001,-0.003389,-0.001133,-0.002711
1573,0.417584,0.1474359999999999,-0.896597,-0.007717,-0.0040799999999999,-0.007303
1574,0.417579,0.147425,-0.896601,-0.001045,-8.6e-05,-0.004247
1575,0.417593,0.1474359999999999,-0.8965930000000001,0.000482,0.001215,-0.006392
1576,0.417622,0.147431,-0.8965799999999999,-0.0019879999999999,-0.0034799999999999,-0.0016899999999999
1577,0.417552,0.147429,-0.8966129999999999,5.1e-05,0.001192,-0.0039759999999999
1578,0.417353,0.147401,-0.89671,-0.00355,0.00473,-0.008136
1579,0.417135,0.147388,-0.8968139999999999,-0.00234,0.013852,-0.011511
1580,0.4169449999999999,0.147428,-0.8968959999999999,-0.007353,0.017138,-0.013825
1581,0.416877,0.147394,-0.896933,-0.008293,0.015707,-0.017023
1582,0.416758,0.147254,-0.897011,-0.011027,0.013649,-0.0148849999999999
1583,0.416535,0.147004,-0.897156,-0.011414,0.0058439999999999,-0.011719
1584,0.416387,0.146785,-0.8972600000000001,-0.011419,0.003804,-0.014987
1585,0.416272,0.146625,-0.8973399999999999,-0.008511,-0.00539,-0.0071099999999999
1586,0.416114,0.1466049999999999,-0.897416,-0.005942,-0.001158,-0.008101
1587,0.416278,0.1466849999999999,-0.8973270000000001,-0.002963,-0.0009939999999999,-0.009487
1588,0.416539,0.14677,-0.897192,-0.004033,0.002903,-0.005335
1589,0.4167909999999999,0.146858,-0.8970610000000001,-0.003568,-0.000694,-0.002201
1590,0.41689,0.14685,-0.897016,-0.003469,-0.001297,-0.001498
1591,0.416881,0.146828,-0.8970239999999999,-0.001537,-0.0046159999999999,-0.0004219999999999
1592,0.4170109999999999,0.14686,-0.896958,0.00372,-0.001123,-0.0005639999999999
1593,0.417281,0.146939,-0.8968200000000001,0.00345,-0.0012029999999999,-0.0007019999999999
1594,0.417647,0.147092,-0.896624,-0.00801,-0.004727,0.000155
1595,0.417872,0.147171,-0.8965059999999999,-0.0057929999999999,-0.000641,-0.001794
1596,0.417838,0.147154,-0.896525,-0.003074,-0.000288,-0.0026449999999999
1597,0.417693,0.147099,-0.896601,-0.0036609999999999,-0.000264,-0.005666
1598,0.417551,0.147052,-0.896675,-0.003443,-0.000262,-0.005608
1599,0.417411,0.146973,-0.896754,-0.0032869999999999,0.0064849999999999,-0.008444
1600,0.417247,0.146864,-0.896848,-8.7e-05,0.008791,-0.012347
1601,0.41696,0.146655,-0.897015,-0.0086959999999999,0.001737,-0.003528
1602,0.41653,0.146419,-0.8972530000000001,-0.003017,0.000783,-0.00712
1603,0.41623,0.146231,-0.897423,-0.006044,0.000681,-0.007576
1604,0.416034,0.146101,-0.8975360000000001,-0.0038179999999999,-0.0009599999999999,-0.006258
1605,0.4160609999999999,0.146057,-0.8975299999999999,-0.001983,-0.002212,-0.008125
1606,0.416275,0.146111,-0.8974219999999999,-0.004135,-0.0007099999999999,-0.005746
1607,0.416491,0.146252,-0.897299,-0.006212,0.000828,-0.0034579999999999
1608,0.4165399999999999,0.146299,-0.8972690000000001,-0.007986,0.0001699999999999,-0.009347
1609,0.416524,0.146352,-0.897267,-0.0077569999999999,0.00532,-0.011974
1610,0.4166439999999999,0.146497,-0.8971879999999999,-0.004824,0.013766,-0.012221
1611,0.416722,0.146643,-0.897128,-0.00533,0.011881,-0.0121739999999999
1612,0.4167359999999999,0.146675,-0.897116,-0.011096,0.01014,-0.0141229999999999
1613,0.416714,0.146639,-0.8971319999999999,-0.005902,0.012648,-0.015526
1614,0.416631,0.146521,-0.8971899999999999,-0.007696,0.008584,-0.014034
1615,0.4164319999999999,0.146363,-0.897308,-0.007176,0.002319,-0.0079189999999999
1616,0.416179,0.146145,-0.8974610000000001,-0.007625,-0.001827,-0.007599
1617,0.416012,0.146017,-0.897559,-0.007229,-0.000753,-0.0064319999999999
1618,0.415886,0.145949,-0.8976290000000001,-0.004615,-0.000686,-0.006851
1619,0.415854,0.145905,-0.897651,-0.00411,-0.0038299999999999,-0.0064319999999999
1620,0.415836,0.1459329999999999,-0.897655,-0.008594,-0.006254,-0.004658
1621,0.4159239999999999,0.145996,-0.8976040000000001,-0.005203,-0.00531,-0.000819
1622,0.416034,0.14606,-0.8975420000000001,-0.003711,-0.005618,-0.00323
1623,0.416233,0.14617,-0.897432,-0.004352,-0.006171,-0.00273
1624,0.416549,0.146346,-0.897257,-0.006301,-0.003341,-0.001516
1625,0.4168979999999999,0.146534,-0.897064,-0.0045899999999999,-0.001316,-0.001877
1626,0.417151,0.146713,-0.896917,-0.004157,-0.000411,-0.0040079999999999
1627,0.417249,0.1468,-0.896857,-0.002423,0.002415,-0.0017629999999999
1628,0.417249,0.146824,-0.896853,-0.000455,0.001842,-0.006421
1629,0.417203,0.146807,-0.8968780000000001,-0.000271,0.000822,-0.005802
1630,0.417217,0.146823,-0.896868,-0.001171,0.0018579999999999,-0.0073219999999999
1631,0.417234,0.146802,-0.896864,-0.008817,-0.000744,-0.0077989999999999
1632,0.4170689999999999,0.1466849999999999,-0.8969600000000001,-0.00821,0.0017519999999999,-0.007383
1633,0.416776,0.146532,-0.897121,-0.009061,0.001097,-0.006749
1634,0.416692,0.14644,-0.897175,-0.008489,-0.003786,-0.008907
1635,0.416908,0.14651,-0.8970629999999999,-0.008415,-0.001902,-0.006822
1636,0.4172119999999999,0.146644,-0.8969,-0.0089319999999999,-0.002326,-0.006603
1637,0.417386,0.146726,-0.896806,-0.007779,-0.0048189999999999,-0.005675
1638,0.417456,0.146788,-0.8967629999999999,-0.0091159999999999,-0.004439,-0.00671
1639,0.417516,0.146912,-0.8967149999999999,-0.00504,0.000275,-0.009276
1640,0.417522,0.147032,-0.896692,-0.0032909999999999,0.009202,-0.008581
1641,0.417523,0.147145,-0.8966729999999999,-0.004193,0.010662,-0.009287
1642,0.417451,0.147178,-0.896701,-0.003571,0.011452,-0.01051
1643,0.417463,0.1471829999999999,-0.896695,-0.012464,0.006915,-0.004688
1644,0.41739,0.147067,-0.896748,-0.001222,0.011228,-0.0068319999999999
1645,0.417205,0.146885,-0.896864,-0.0071099999999999,0.003994,-0.010714
1646,0.417196,0.146779,-0.896885,-0.011541,0.000392,-0.0068769999999999
1647,0.4171319999999999,0.146673,-0.896932,-0.009295,-0.001883,-0.00532
1648,0.4171859999999999,0.14664,-0.896913,-0.006312,-0.004093,-0.010222
1649,0.417257,0.146626,-0.896882,-0.0095269999999999,-0.002201,-0.0040729999999999
1650,0.417335,0.146634,-0.8968440000000001,-0.007698,-0.002042,-0.005499
1651,0.417371,0.146646,-0.896825,-0.004026,0.002722,-0.0071819999999999
1652,0.417331,0.146623,-0.896848,-0.0065489999999999,-0.00081,-0.005541
1653,0.417309,0.146573,-0.896867,-0.0067709999999999,-0.003277,-0.007095
1654,0.417288,0.146531,-0.896883,-0.00997,-0.006226,-0.0033399999999999
1655,0.417363,0.146569,-0.896842,-0.0079849999999999,-0.0075,-0.0037619999999999
1656,0.417588,0.1466869999999999,-0.896718,-0.005661,-0.00832,-0.001292
1657,0.417817,0.146819,-0.896589,-0.0038009999999999,-0.007369,0.000944
1658,0.418037,0.146955,-0.896465,-0.003319,-0.003263,0.001598
1659,0.418187,0.147065,-0.8963770000000001,0.000682,-0.001969,0.000259
1660,0.418202,0.1471039999999999,-0.8963629999999999,-0.002766,0.000891,-0.006499
1661,0.4180899999999999,0.147095,-0.896417,-0.004592,0.0028829999999999,-0.007193
1662,0.417962,0.147086,-0.8964780000000001,-0.004281,0.00277,-0.005499
1663,0.417843,0.147085,-0.896534,-0.006604,0.0021,-0.00964
1664,0.41772,0.147087,-0.896591,-0.005656,0.003945,-0.0073849999999999
1665,0.417704,0.147111,-0.896595,-0.005838,0.003753,-0.0098079999999999
1666,0.417802,0.14718,-0.896538,-0.008531,0.006263,-0.010399
1667,0.417951,0.147248,-0.896457,-0.009931,0.005371,-0.010541
1668,0.418019,0.147242,-0.8964260000000001,-0.010716,0.005376,-0.010968
