id;Attitude Roll;Attitude Pitch;Attitude Azimuth;Gravity X;Gravity Y;Gravity Z;Rotation Rate X;Rotation Rate Y;Rotation Rate Z;User Acceleration X;User Acceleration Z;User Acceleration Y
1;-2.9911253;3.131489;1.6366442;0.122628145;-0.16223197;9.804542;-0.00037048757;0.003825178;0.0044192355;-0.44633457;0.9371473;0.9012087
2;-2.9854188;3.1236365;1.6317755;0.17430723;-0.26480034;9.801524;0.000503565;0.0008580833;-0.0032045047;-0.42300636;0.9773532;0.9171114
3;-2.9854188;3.1236365;1.6317755;0.17430723;-0.26480034;9.801524;0.000503565;0.0008580833;-0.0032045047;-0.42300636;0.9773532;0.9171114
4;-2.9854188;3.1236365;1.6317755;0.17430723;-0.26480034;9.801524;0.000503565;0.0008580833;-0.0032045047;-0.42300636;0.9773532;0.9171114
5;-2.9854188;3.1236365;1.6317755;0.17430723;-0.26480034;9.801524;0.000503565;0.0008580833;-0.0032045047;-0.42300636;0.9773532;0.9171114
6;-2.9701178;3.1156266;1.6317439;0.25266102;-0.4240698;9.794218;-0.0014830149;0.0036910358;0.0020738787;-0.4350319;0.9897875;0.8808633
7;-2.9701178;3.1156266;1.6317439;0.25266102;-0.4240698;9.794218;-0.0014830149;0.0036910358;0.0020738787;-0.4350319;0.9897875;0.8808633
8;-2.9701178;3.1156266;1.6317439;0.25266102;-0.4240698;9.794218;-0.0014830149;0.0036910358;0.0020738787;-0.4350319;0.9897875;0.8808633
9;-2.9701178;3.1156266;1.6317439;0.25266102;-0.4240698;9.794218;-0.0014830149;0.0036910358;0.0020738787;-0.4350319;0.9897875;0.8808633
10;-2.9518812;3.1050115;1.6307446;0.35640532;-0.6464559;9.778827;0.03984445;-0.08158818;0.004048748;-0.39712217;0.9804087;0.884064
11;-2.9518812;3.1050115;1.6307446;0.35640532;-0.6464559;9.778827;0.03984445;-0.08158818;0.004048748;-0.39712217;0.9804087;0.884064
12;-2.9518812;3.1050115;1.6307446;0.35640532;-0.6464559;9.778827;0.03984445;-0.08158818;0.004048748;-0.39712217;0.9804087;0.884064
13;-2.9518812;3.1050115;1.6307446;0.35640532;-0.6464559;9.778827;0.03984445;-0.08158818;0.004048748;-0.39712217;0.9804087;0.884064
14;-2.9518812;3.1050115;1.6307446;0.35640532;-0.6464559;9.778827;0.03984445;-0.08158818;0.004048748;-0.39712217;0.9804087;0.884064
15;-2.9309242;3.0910401;1.6279526;0.49299276;-0.92946196;9.750049;0.07182881;-0.1433542;0.008474371;-0.35586447;0.9042581;0.85619146
16;-2.9309242;3.0910401;1.6279526;0.49299276;-0.92946196;9.750049;0.07182881;-0.1433542;0.008474371;-0.35586447;0.9042581;0.85619146
17;-2.9309242;3.0910401;1.6279526;0.49299276;-0.92946196;9.750049;0.07182881;-0.1433542;0.008474371;-0.35586447;0.9042581;0.85619146
18;-2.9309242;3.0910401;1.6279526;0.49299276;-0.92946196;9.750049;0.07182881;-0.1433542;0.008474371;-0.35586447;0.9042581;0.85619146
19;-2.9309242;3.0910401;1.6279526;0.49299276;-0.92946196;9.750049;0.07182881;-0.1433542;0.008474371;-0.35586447;0.9042581;0.85619146
20;-2.911412;3.074;1.6214437;0.6604512;-1.2922142;9.698678;0.09949934;-0.18820344;0.014327649;-0.47302574;0.8506982;0.74013925
21;-2.911412;3.074;1.6214437;0.6604512;-1.2922142;9.698678;0.09949934;-0.18820344;0.014327649;-0.47302574;0.8506982;0.74013925
22;-2.911412;3.074;1.6214437;0.6604512;-1.2922142;9.698678;0.09949934;-0.18820344;0.014327649;-0.47302574;0.8506982;0.74013925
23;-2.911412;3.074;1.6214437;0.6604512;-1.2922142;9.698678;0.09949934;-0.18820344;0.014327649;-0.47302574;0.8506982;0.74013925
24;-2.911412;3.074;1.6214437;0.6604512;-1.2922142;9.698678;0.09949934;-0.18820344;0.014327649;-0.47302574;0.8506982;0.74013925
25;-2.896601;3.055586;1.6109403;0.84277976;-1.6721176;9.626221;0.117462665;-0.20828748;0.019571964;-0.21428755;0.7251885;0.7746302
26;-2.896601;3.055586;1.6109403;0.84277976;-1.6721176;9.626221;0.117462665;-0.20828748;0.019571964;-0.21428755;0.7251885;0.7746302
27;-2.896601;3.055586;1.6109403;0.84277976;-1.6721176;9.626221;0.117462665;-0.20828748;0.019571964;-0.21428755;0.7251885;0.7746302
28;-2.896601;3.055586;1.6109403;0.84277976;-1.6721176;9.626221;0.117462665;-0.20828748;0.019571964;-0.21428755;0.7251885;0.7746302
29;-2.896601;3.055586;1.6109403;0.84277976;-1.6721176;9.626221;0.117462665;-0.20828748;0.019571964;-0.21428755;0.7251885;0.7746302
30;-2.8895745;3.0366306;1.5953163;1.0319307;-2.0700965;9.529964;0.1268707;-0.21672459;0.021247676;-0.40099025;0.8940263;0.6642612
31;-2.8895745;3.0366306;1.5953163;1.0319307;-2.0700965;9.529964;0.1268707;-0.21672459;0.021247676;-0.40099025;0.8940263;0.6642612
32;-2.8895745;3.0366306;1.5953163;1.0319307;-2.0700965;9.529964;0.1268707;-0.21672459;0.021247676;-0.40099025;0.8940263;0.6642612
33;-2.8895745;3.0366306;1.5953163;1.0319307;-2.0700965;9.529964;0.1268707;-0.21672459;0.021247676;-0.40099025;0.8940263;0.6642612
34;-2.8895745;3.0366306;1.5953163;1.0319307;-2.0700965;9.529964;0.1268707;-0.21672459;0.021247676;-0.40099025;0.8940263;0.6642612
35;-2.8893175;3.016375;1.5739903;1.2344083;-2.480019;9.407238;0.13118029;-0.22806811;0.017745078;-0.2856562;0.97962683;0.66933393
36;-2.8893175;3.016375;1.5739903;1.2344083;-2.480019;9.407238;0.13118029;-0.22806811;0.017745078;-0.2856562;0.97962683;0.66933393
37;-2.8893175;3.016375;1.5739903;1.2344083;-2.480019;9.407238;0.13118029;-0.22806811;0.017745078;-0.2856562;0.97962683;0.66933393
38;-2.8893175;3.016375;1.5739903;1.2344083;-2.480019;9.407238;0.13118029;-0.22806811;0.017745078;-0.2856562;0.97962683;0.66933393
39;-2.895114;2.9937584;1.5459099;1.4586669;-2.9066625;9.251702;0.1348958;-0.24664891;0.009393138;-0.3784791;0.8969004;0.56482905
40;-2.895114;2.9937584;1.5459099;1.4586669;-2.9066625;9.251702;0.1348958;-0.24664891;0.009393138;-0.3784791;0.8969004;0.56482905
41;-2.895114;2.9937584;1.5459099;1.4586669;-2.9066625;9.251702;0.1348958;-0.24664891;0.009393138;-0.3784791;0.8969004;0.56482905
42;-2.895114;2.9937584;1.5459099;1.4586669;-2.9066625;9.251702;0.1348958;-0.24664891;0.009393138;-0.3784791;0.8969004;0.56482905
43;-2.895114;2.9937584;1.5459099;1.4586669;-2.9066625;9.251702;0.1348958;-0.24664891;0.009393138;-0.3784791;0.8969004;0.56482905
44;-2.9174604;2.972906;1.5093526;1.6589813;-3.3602977;9.062371;0.14118451;-0.26908684;0.00015436983;-0.39906126;0.75752455;0.6396392
45;-2.9174604;2.972906;1.5093526;1.6589813;-3.3602977;9.062371;0.14118451;-0.26908684;0.00015436983;-0.39906126;0.75752455;0.6396392
46;-2.9174604;2.972906;1.5093526;1.6589813;-3.3602977;9.062371;0.14118451;-0.26908684;0.00015436983;-0.39906126;0.75752455;0.6396392
47;-2.9174604;2.972906;1.5093526;1.6589813;-3.3602977;9.062371;0.14118451;-0.26908684;0.00015436983;-0.39906126;0.75752455;0.6396392
48;-2.9174604;2.972906;1.5093526;1.6589813;-3.3602977;9.062371;0.14118451;-0.26908684;0.00015436983;-0.39906126;0.75752455;0.6396392
49;-2.9511251;2.9502895;1.4636319;1.8619711;-3.8109477;8.841953;0.14934056;-0.289634;-0.0036356756;0.0013836905;0.6637911;0.58052236
50;-2.9511251;2.9502895;1.4636319;1.8619711;-3.8109477;8.841953;0.14934056;-0.289634;-0.0036356756;0.0013836905;0.6637911;0.58052236
51;-2.9511251;2.9502895;1.4636319;1.8619711;-3.8109477;8.841953;0.14934056;-0.289634;-0.0036356756;0.0013836905;0.6637911;0.58052236
52;-2.9511251;2.9502895;1.4636319;1.8619711;-3.8109477;8.841953;0.14934056;-0.289634;-0.0036356756;0.0013836905;0.6637911;0.58052236
53;-2.9511251;2.9502895;1.4636319;1.8619711;-3.8109477;8.841953;0.14934056;-0.289634;-0.0036356756;0.0013836905;0.6637911;0.58052236
54;-3.002887;2.9267642;1.4066129;2.0447211;-4.260508;8.592879;0.15801722;-0.30542657;0.0042989333;-0.10689704;0.74871516;0.4629428
55;-3.002887;2.9267642;1.4066129;2.0447211;-4.260508;8.592879;0.15801722;-0.30542657;0.0042989333;-0.10689704;0.74871516;0.4629428
56;-3.002887;2.9267642;1.4066129;2.0447211;-4.260508;8.592879;0.15801722;-0.30542657;0.0042989333;-0.10689704;0.74871516;0.4629428
57;-3.002887;2.9267642;1.4066129;2.0447211;-4.260508;8.592879;0.15801722;-0.30542657;0.0042989333;-0.10689704;0.74871516;0.4629428
58;-3.0705788;2.8991299;1.3380202;2.2169576;-4.69594;8.318872;0.1706255;-0.31429484;0.02154151;-0.062493518;0.5987552;0.37023297
59;-3.0705788;2.8991299;1.3380202;2.2169576;-4.69594;8.318872;0.1706255;-0.31429484;0.02154151;-0.062493518;0.5987552;0.37023297
60;-3.0705788;2.8991299;1.3380202;2.2169576;-4.69594;8.318872;0.1706255;-0.31429484;0.02154151;-0.062493518;0.5987552;0.37023297
61;-3.0705788;2.8991299;1.3380202;2.2169576;-4.69594;8.318872;0.1706255;-0.31429484;0.02154151;-0.062493518;0.5987552;0.37023297
62;-3.0705788;2.8991299;1.3380202;2.2169576;-4.69594;8.318872;0.1706255;-0.31429484;0.02154151;-0.062493518;0.5987552;0.37023297
63;3.129452;2.8619685;1.2561067;2.3900795;-5.129434;8.0091715;0.19071913;-0.31177595;0.037269134;-0.22496015;0.17132472;0.5476477
64;3.129452;2.8619685;1.2561067;2.3900795;-5.129434;8.0091715;0.19071913;-0.31177595;0.037269134;-0.22496015;0.17132472;0.5476477
65;3.129452;2.8619685;1.2561067;2.3900795;-5.129434;8.0091715;0.19071913;-0.31177595;0.037269134;-0.22496015;0.17132472;0.5476477
66;3.129452;2.8619685;1.2561067;2.3900795;-5.129434;8.0091715;0.19071913;-0.31177595;0.037269134;-0.22496015;0.17132472;0.5476477
67;3.129452;2.8619685;1.2561067;2.3900795;-5.129434;8.0091715;0.19071913;-0.31177595;0.037269134;-0.22496015;0.17132472;0.5476477
68;3.0300136;2.8097472;1.1624674;2.5482416;-5.5461392;7.675754;0.20989293;-0.30001828;0.043065988;-0.010175151;0.56541336;0.1810624
69;3.0300136;2.8097472;1.1624674;2.5482416;-5.5461392;7.675754;0.20989293;-0.30001828;0.043065988;-0.010175151;0.56541336;0.1810624
70;3.0300136;2.8097472;1.1624674;2.5482416;-5.5461392;7.675754;0.20989293;-0.30001828;0.043065988;-0.010175151;0.56541336;0.1810624
71;3.0300136;2.8097472;1.1624674;2.5482416;-5.5461392;7.675754;0.20989293;-0.30001828;0.043065988;-0.010175151;0.56541336;0.1810624
72;2.9286103;2.7223747;1.0621943;2.7471952;-5.9350376;7.307436;0.21092667;-0.29108718;0.03721697;-0.09630334;0.6547778;0.23757786
73;2.9286103;2.7223747;1.0621943;2.7471952;-5.9350376;7.307436;0.21092667;-0.29108718;0.03721697;-0.09630334;0.6547778;0.23757786
74;2.9286103;2.7223747;1.0621943;2.7471952;-5.9350376;7.307436;0.21092667;-0.29108718;0.03721697;-0.09630334;0.6547778;0.23757786
75;2.9286103;2.7223747;1.0621943;2.7471952;-5.9350376;7.307436;0.21092667;-0.29108718;0.03721697;-0.09630334;0.6547778;0.23757786
76;2.9286103;2.7223747;1.0621943;2.7471952;-5.9350376;7.307436;0.21092667;-0.29108718;0.03721697;-0.09630334;0.6547778;0.23757786
77;2.8157842;2.5756285;0.9579466;2.9338415;-6.2986484;6.92026;0.18995154;-0.2941171;0.02503772;-0.35403794;0.7480774;0.34645864
78;2.8157842;2.5756285;0.9579466;2.9338415;-6.2986484;6.92026;0.18995154;-0.2941171;0.02503772;-0.35403794;0.7480774;0.34645864
79;2.8157842;2.5756285;0.9579466;2.9338415;-6.2986484;6.92026;0.18995154;-0.2941171;0.02503772;-0.35403794;0.7480774;0.34645864
80;2.8157842;2.5756285;0.9579466;2.9338415;-6.2986484;6.92026;0.18995154;-0.2941171;0.02503772;-0.35403794;0.7480774;0.34645864
81;2.8157842;2.5756285;0.9579466;2.9338415;-6.2986484;6.92026;0.18995154;-0.2941171;0.02503772;-0.35403794;0.7480774;0.34645864
82;2.6934166;2.303656;0.85482717;3.1113667;-6.629965;6.52176;0.16545996;-0.3040074;0.01585112;0.046251792;0.717706;0.053496704
83;2.6934166;2.303656;0.85482717;3.1113667;-6.629965;6.52176;0.16545996;-0.3040074;0.01585112;0.046251792;0.717706;0.053496704
84;2.6934166;2.303656;0.85482717;3.1113667;-6.629965;6.52176;0.16545996;-0.3040074;0.01585112;0.046251792;0.717706;0.053496704
85;2.6934166;2.303656;0.85482717;3.1113667;-6.629965;6.52176;0.16545996;-0.3040074;0.01585112;0.046251792;0.717706;0.053496704
86;2.6934166;2.303656;0.85482717;3.1113667;-6.629965;6.52176;0.16545996;-0.3040074;0.01585112;0.046251792;0.717706;0.053496704
87;2.5626342;1.8013777;0.75442874;3.294658;-6.966866;6.06452;0.15504906;-0.3028768;0.01659529;0.04785192;0.26742598;-0.09604088
88;2.5626342;1.8013777;0.75442874;3.294658;-6.966866;6.06452;0.15504906;-0.3028768;0.01659529;0.04785192;0.26742598;-0.09604088
89;2.5626342;1.8013777;0.75442874;3.294658;-6.966866;6.06452;0.15504906;-0.3028768;0.01659529;0.04785192;0.26742598;-0.09604088
90;2.5626342;1.8013777;0.75442874;3.294658;-6.966866;6.06452;0.15504906;-0.3028768;0.01659529;0.04785192;0.26742598;-0.09604088
91;2.5626342;1.8013777;0.75442874;3.294658;-6.966866;6.06452;0.15504906;-0.3028768;0.01659529;0.04785192;0.26742598;-0.09604088
92;2.4262338;1.2396795;0.6672509;3.464717;-7.2663474;5.600564;0.15357243;-0.27251598;0.020853767;-0.26087308;0.58621746;0.10967823
93;2.4262338;1.2396795;0.6672509;3.464717;-7.2663474;5.600564;0.15357243;-0.27251598;0.020853767;-0.26087308;0.58621746;0.10967823
94;2.4262338;1.2396795;0.6672509;3.464717;-7.2663474;5.600564;0.15357243;-0.27251598;0.020853767;-0.26087308;0.58621746;0.10967823
95;2.4262338;1.2396795;0.6672509;3.464717;-7.2663474;5.600564;0.15357243;-0.27251598;0.020853767;-0.26087308;0.58621746;0.10967823
96;2.4262338;1.2396795;0.6672509;3.464717;-7.2663474;5.600564;0.15357243;-0.27251598;0.020853767;-0.26087308;0.58621746;0.10967823
97;2.4262338;1.2396795;0.6672509;3.464717;-7.2663474;5.600564;0.15357243;-0.27251598;0.020853767;-0.26087308;0.58621746;0.10967823
98;2.2856095;0.89988136;0.5968866;3.6323514;-7.5288835;5.1276045;0.13819718;-0.20922753;0.011688457;-0.2628214;0.5321481;0.022878073
99;2.2856095;0.89988136;0.5968866;3.6323514;-7.5288835;5.1276045;0.13819718;-0.20922753;0.011688457;-0.2628214;0.5321481;0.022878073
100;2.2856095;0.89988136;0.5968866;3.6323514;-7.5288835;5.1276045;0.13819718;-0.20922753;0.011688457;-0.2628214;0.5321481;0.022878073
101;2.2856095;0.89988136;0.5968866;3.6323514;-7.5288835;5.1276045;0.13819718;-0.20922753;0.011688457;-0.2628214;0.5321481;0.022878073
102;2.2856095;0.89988136;0.5968866;3.6323514;-7.5288835;5.1276045;0.13819718;-0.20922753;0.011688457;-0.2628214;0.5321481;0.022878073
103;2.2856095;0.89988136;0.5968866;3.6323514;-7.5288835;5.1276045;0.13819718;-0.20922753;0.011688457;-0.2628214;0.5321481;0.022878073
104;2.1411028;0.73269427;0.5419746;3.7873745;-7.7674947;4.635969;0.09477349;-0.12851448;-0.015628614;-0.36367816;0.78075826;0.24114753
105;2.1411028;0.73269427;0.5419746;3.7873745;-7.7674947;4.635969;0.09477349;-0.12851448;-0.015628614;-0.36367816;0.78075826;0.24114753
106;2.1411028;0.73269427;0.5419746;3.7873745;-7.7674947;4.635969;0.09477349;-0.12851448;-0.015628614;-0.36367816;0.78075826;0.24114753
107;2.1411028;0.73269427;0.5419746;3.7873745;-7.7674947;4.635969;0.09477349;-0.12851448;-0.015628614;-0.36367816;0.78075826;0.24114753
108;2.1411028;0.73269427;0.5419746;3.7873745;-7.7674947;4.635969;0.09477349;-0.12851448;-0.015628614;-0.36367816;0.78075826;0.24114753
109;2.1411028;0.73269427;0.5419746;3.7873745;-7.7674947;4.635969;0.09477349;-0.12851448;-0.015628614;-0.36367816;0.78075826;0.24114753
110;2.0001175;0.65622693;0.50296503;3.9347785;-7.980541;4.1229672;0.027545964;-0.055980887;-0.04702211;-0.04895015;0.73529804;0.031018231
111;2.0001175;0.65622693;0.50296503;3.9347785;-7.980541;4.1229672;0.027545964;-0.055980887;-0.04702211;-0.04895015;0.73529804;0.031018231
112;2.0001175;0.65622693;0.50296503;3.9347785;-7.980541;4.1229672;0.027545964;-0.055980887;-0.04702211;-0.04895015;0.73529804;0.031018231
113;2.0001175;0.65622693;0.50296503;3.9347785;-7.980541;4.1229672;0.027545964;-0.055980887;-0.04702211;-0.04895015;0.73529804;0.031018231
114;2.0001175;0.65622693;0.50296503;3.9347785;-7.980541;4.1229672;0.027545964;-0.055980887;-0.04702211;-0.04895015;0.73529804;0.031018231
115;2.0001175;0.65622693;0.50296503;3.9347785;-7.980541;4.1229672;0.027545964;-0.055980887;-0.04702211;-0.04895015;0.73529804;0.031018231
116;1.875272;0.6222729;0.4768421;4.052155;-8.167338;3.6117907;-0.05035224;-0.0046566455;-0.06416568;0.27980092;0.14870535;-0.008035946
117;1.875272;0.6222729;0.4768421;4.052155;-8.167338;3.6117907;-0.05035224;-0.0046566455;-0.06416568;0.27980092;0.14870535;-0.008035946
118;1.875272;0.6222729;0.4768421;4.052155;-8.167338;3.6117907;-0.05035224;-0.0046566455;-0.06416568;0.27980092;0.14870535;-0.008035946
119;1.875272;0.6222729;0.4768421;4.052155;-8.167338;3.6117907;-0.05035224;-0.0046566455;-0.06416568;0.27980092;0.14870535;-0.008035946
120;1.875272;0.6222729;0.4768421;4.052155;-8.167338;3.6117907;-0.05035224;-0.0046566455;-0.06416568;0.27980092;0.14870535;-0.008035946
121;1.875272;0.6222729;0.4768421;4.052155;-8.167338;3.6117907;-0.05035224;-0.0046566455;-0.06416568;0.27980092;0.14870535;-0.008035946
122;1.7736446;0.61063886;0.46125367;4.14422;-8.3231735;3.117791;-0.11877321;0.040995304;-0.060914334;0.028044634;0.013904857;0.23331481
123;1.7736446;0.61063886;0.46125367;4.14422;-8.3231735;3.117791;-0.11877321;0.040995304;-0.060914334;0.028044634;0.013904857;0.23331481
124;1.7736446;0.61063886;0.46125367;4.14422;-8.3231735;3.117791;-0.11877321;0.040995304;-0.060914334;0.028044634;0.013904857;0.23331481
125;1.7736446;0.61063886;0.46125367;4.14422;-8.3231735;3.117791;-0.11877321;0.040995304;-0.060914334;0.028044634;0.013904857;0.23331481
126;1.7736446;0.61063886;0.46125367;4.14422;-8.3231735;3.117791;-0.11877321;0.040995304;-0.060914334;0.028044634;0.013904857;0.23331481
127;1.7736446;0.61063886;0.46125367;4.14422;-8.3231735;3.117791;-0.11877321;0.040995304;-0.060914334;0.028044634;0.013904857;0.23331481
128;1.6968673;0.6068122;0.45172226;4.2003255;-8.446481;2.6804137;-0.16059253;0.10862632;-0.04185445;0.24853408;-0.6139764;-0.036490824
129;1.6968673;0.6068122;0.45172226;4.2003255;-8.446481;2.6804137;-0.16059253;0.10862632;-0.04185445;0.24853408;-0.6139764;-0.036490824
130;1.6968673;0.6068122;0.45172226;4.2003255;-8.446481;2.6804137;-0.16059253;0.10862632;-0.04185445;0.24853408;-0.6139764;-0.036490824
131;1.6968673;0.6068122;0.45172226;4.2003255;-8.446481;2.6804137;-0.16059253;0.10862632;-0.04185445;0.24853408;-0.6139764;-0.036490824
132;1.6968673;0.6068122;0.45172226;4.2003255;-8.446481;2.6804137;-0.16059253;0.10862632;-0.04185445;0.24853408;-0.6139764;-0.036490824
133;1.6968673;0.6068122;0.45172226;4.2003255;-8.446481;2.6804137;-0.16059253;0.10862632;-0.04185445;0.24853408;-0.6139764;-0.036490824
134;1.6395422;0.6063173;0.446178;4.232429;-8.550047;2.2701626;-0.17450817;0.20667352;-0.017033912;-0.051312245;0.15398529;0.0618014
135;1.6395422;0.6063173;0.446178;4.232429;-8.550047;2.2701626;-0.17450817;0.20667352;-0.017033912;-0.051312245;0.15398529;0.0618014
136;1.6395422;0.6063173;0.446178;4.232429;-8.550047;2.2701626;-0.17450817;0.20667352;-0.017033912;-0.051312245;0.15398529;0.0618014
137;1.6395422;0.6063173;0.446178;4.232429;-8.550047;2.2701626;-0.17450817;0.20667352;-0.017033912;-0.051312245;0.15398529;0.0618014
138;1.6395422;0.6063173;0.446178;4.232429;-8.550047;2.2701626;-0.17450817;0.20667352;-0.017033912;-0.051312245;0.15398529;0.0618014
139;1.6395422;0.6063173;0.446178;4.232429;-8.550047;2.2701626;-0.17450817;0.20667352;-0.017033912;-0.051312245;0.15398529;0.0618014
140;1.5972637;0.6061217;0.44298553;4.244897;-8.638605;1.8776945;-0.17611468;0.3114619;-0.00044926943;-0.14717606;0.47664717;0.23044756
141;1.5972637;0.6061217;0.44298553;4.244897;-8.638605;1.8776945;-0.17611468;0.3114619;-0.00044926943;-0.14717606;0.47664717;0.23044756
142;1.5972637;0.6061217;0.44298553;4.244897;-8.638605;1.8776945;-0.17611468;0.3114619;-0.00044926943;-0.14717606;0.47664717;0.23044756
143;1.5972637;0.6061217;0.44298553;4.244897;-8.638605;1.8776945;-0.17611468;0.3114619;-0.00044926943;-0.14717606;0.47664717;0.23044756
144;1.5972637;0.6061217;0.44298553;4.244897;-8.638605;1.8776945;-0.17611468;0.3114619;-0.00044926943;-0.14717606;0.47664717;0.23044756
145;1.5972637;0.6061217;0.44298553;4.244897;-8.638605;1.8776945;-0.17611468;0.3114619;-0.00044926943;-0.14717606;0.47664717;0.23044756
146;1.5664009;0.6059848;0.44159088;4.246719;-8.710765;1.5027766;-0.18945755;0.38399014;0.0027935614;0.08681637;0.77376366;-0.14250562
147;1.5664009;0.6059848;0.44159088;4.246719;-8.710765;1.5027766;-0.18945755;0.38399014;0.0027935614;0.08681637;0.77376366;-0.14250562
148;1.5664009;0.6059848;0.44159088;4.246719;-8.710765;1.5027766;-0.18945755;0.38399014;0.0027935614;0.08681637;0.77376366;-0.14250562
149;1.5664009;0.6059848;0.44159088;4.246719;-8.710765;1.5027766;-0.18945755;0.38399014;0.0027935614;0.08681637;0.77376366;-0.14250562
150;1.5664009;0.6059848;0.44159088;4.246719;-8.710765;1.5027766;-0.18945755;0.38399014;0.0027935614;0.08681637;0.77376366;-0.14250562
151;1.5664009;0.6059848;0.44159088;4.246719;-8.710765;1.5027766;-0.18945755;0.38399014;0.0027935614;0.08681637;0.77376366;-0.14250562
152;1.5497774;0.6061065;0.4417156;4.2456207;-8.755279;1.2207373;-0.22522983;0.4053773;-0.00034067823;0.2511989;-0.26977584;-0.20512877
153;1.5497774;0.6061065;0.4417156;4.2456207;-8.755279;1.2207373;-0.22522983;0.4053773;-0.00034067823;0.2511989;-0.26977584;-0.20512877
154;1.5497774;0.6061065;0.4417156;4.2456207;-8.755279;1.2207373;-0.22522983;0.4053773;-0.00034067823;0.2511989;-0.26977584;-0.20512877
155;1.5497774;0.6061065;0.4417156;4.2456207;-8.755279;1.2207373;-0.22522983;0.4053773;-0.00034067823;0.2511989;-0.26977584;-0.20512877
156;1.5497774;0.6061065;0.4417156;4.2456207;-8.755279;1.2207373;-0.22522983;0.4053773;-0.00034067823;0.2511989;-0.26977584;-0.20512877
157;1.5497774;0.6061065;0.4417156;4.2456207;-8.755279;1.2207373;-0.22522983;0.4053773;-0.00034067823;0.2511989;-0.26977584;-0.20512877
158;1.5439261;0.59997076;0.43989855;4.219144;-8.796409;0.99619675;-0.26924226;0.3910305;0.0022239902;0.20554587;-0.086680606;0.18897964
159;1.5439261;0.59997076;0.43989855;4.219144;-8.796409;0.99619675;-0.26924226;0.3910305;0.0022239902;0.20554587;-0.086680606;0.18897964
160;1.5439261;0.59997076;0.43989855;4.219144;-8.796409;0.99619675;-0.26924226;0.3910305;0.0022239902;0.20554587;-0.086680606;0.18897964
161;1.5439261;0.59997076;0.43989855;4.219144;-8.796409;0.99619675;-0.26924226;0.3910305;0.0022239902;0.20554587;-0.086680606;0.18897964
162;1.5439261;0.59997076;0.43989855;4.219144;-8.796409;0.99619675;-0.26924226;0.3910305;0.0022239902;0.20554587;-0.086680606;0.18897964
163;1.5439261;0.59997076;0.43989855;4.219144;-8.796409;0.99619675;-0.26924226;0.3910305;0.0022239902;0.20554587;-0.086680606;0.18897964
164;1.5479653;0.59488267;0.4391638;4.19868;-8.824978;0.81316215;-0.29275227;0.3738869;0.015273031;0.16489884;-0.7154812;-0.22980586
165;1.5479653;0.59488267;0.4391638;4.19868;-8.824978;0.81316215;-0.29275227;0.3738869;0.015273031;0.16489884;-0.7154812;-0.22980586
166;1.5479653;0.59488267;0.4391638;4.19868;-8.824978;0.81316215;-0.29275227;0.3738869;0.015273031;0.16489884;-0.7154812;-0.22980586
167;1.5479653;0.59488267;0.4391638;4.19868;-8.824978;0.81316215;-0.29275227;0.3738869;0.015273031;0.16489884;-0.7154812;-0.22980586
168;1.5479653;0.59488267;0.4391638;4.19868;-8.824978;0.81316215;-0.29275227;0.3738869;0.015273031;0.16489884;-0.7154812;-0.22980586
169;1.5479653;0.59488267;0.4391638;4.19868;-8.824978;0.81316215;-0.29275227;0.3738869;0.015273031;0.16489884;-0.7154812;-0.22980586
170;1.5626582;0.5922814;0.43975264;4.1894736;-8.840094;0.68661004;-0.27552778;0.37763757;0.03052264;-0.06887006;-0.21732606;-0.02341003
171;1.5626582;0.5922814;0.43975264;4.1894736;-8.840094;0.68661004;-0.27552778;0.37763757;0.03052264;-0.06887006;-0.21732606;-0.02341003
172;1.5626582;0.5922814;0.43975264;4.1894736;-8.840094;0.68661004;-0.27552778;0.37763757;0.03052264;-0.06887006;-0.21732606;-0.02341003
173;1.5626582;0.5922814;0.43975264;4.1894736;-8.840094;0.68661004;-0.27552778;0.37763757;0.03052264;-0.06887006;-0.21732606;-0.02341003
174;1.5626582;0.5922814;0.43975264;4.1894736;-8.840094;0.68661004;-0.27552778;0.37763757;0.03052264;-0.06887006;-0.21732606;-0.02341003
175;1.5626582;0.5922814;0.43975264;4.1894736;-8.840094;0.68661004;-0.27552778;0.37763757;0.03052264;-0.06887006;-0.21732606;-0.02341003
176;1.5890034;0.58320105;0.4369738;4.150093;-8.862792;0.6308912;-0.22808407;0.3948599;0.036347173;0.34542942;0.24900052;0.15097344
177;1.5890034;0.58320105;0.4369738;4.150093;-8.862792;0.6308912;-0.22808407;0.3948599;0.036347173;0.34542942;0.24900052;0.15097344
178;1.5890034;0.58320105;0.4369738;4.150093;-8.862792;0.6308912;-0.22808407;0.3948599;0.036347173;0.34542942;0.24900052;0.15097344
179;1.5890034;0.58320105;0.4369738;4.150093;-8.862792;0.6308912;-0.22808407;0.3948599;0.036347173;0.34542942;0.24900052;0.15097344
180;1.5890034;0.58320105;0.4369738;4.150093;-8.862792;0.6308912;-0.22808407;0.3948599;0.036347173;0.34542942;0.24900052;0.15097344
181;1.5890034;0.58320105;0.4369738;4.150093;-8.862792;0.6308912;-0.22808407;0.3948599;0.036347173;0.34542942;0.24900052;0.15097344
182;1.6329142;0.5763929;0.43473324;4.1096296;-8.878883;0.6684062;-0.17683755;0.4000116;0.031770375;0.0821161;-0.25286156;-0.045912467
183;1.6329142;0.5763929;0.43473324;4.1096296;-8.878883;0.6684062;-0.17683755;0.4000116;0.031770375;0.0821161;-0.25286156;-0.045912467
184;1.6329142;0.5763929;0.43473324;4.1096296;-8.878883;0.6684062;-0.17683755;0.4000116;0.031770375;0.0821161;-0.25286156;-0.045912467
185;1.6329142;0.5763929;0.43473324;4.1096296;-8.878883;0.6684062;-0.17683755;0.4000116;0.031770375;0.0821161;-0.25286156;-0.045912467
186;1.6329142;0.5763929;0.43473324;4.1096296;-8.878883;0.6684062;-0.17683755;0.4000116;0.031770375;0.0821161;-0.25286156;-0.045912467
187;1.6329142;0.5763929;0.43473324;4.1096296;-8.878883;0.6684062;-0.17683755;0.4000116;0.031770375;0.0821161;-0.25286156;-0.045912467
188;1.6890098;0.57371944;0.43318668;4.0693913;-8.895051;0.69893163;-0.13661091;0.38049287;0.028994912;0.06483524;-0.34493217;-0.0807523
189;1.6890098;0.57371944;0.43318668;4.0693913;-8.895051;0.69893163;-0.13661091;0.38049287;0.028994912;0.06483524;-0.34493217;-0.0807523
190;1.6890098;0.57371944;0.43318668;4.0693913;-8.895051;0.69893163;-0.13661091;0.38049287;0.028994912;0.06483524;-0.34493217;-0.0807523
191;1.6890098;0.57371944;0.43318668;4.0693913;-8.895051;0.69893163;-0.13661091;0.38049287;0.028994912;0.06483524;-0.34493217;-0.0807523
192;1.6890098;0.57371944;0.43318668;4.0693913;-8.895051;0.69893163;-0.13661091;0.38049287;0.028994912;0.06483524;-0.34493217;-0.0807523
193;1.6890098;0.57371944;0.43318668;4.0693913;-8.895051;0.69893163;-0.13661091;0.38049287;0.028994912;0.06483524;-0.34493217;-0.0807523
194;1.7572485;0.58262014;0.4351546;4.0550656;-8.899361;0.7267798;-0.10724445;0.34468228;0.035052598;0.11657936;0.3168607;0.7349352
195;1.7572485;0.58262014;0.4351546;4.0550656;-8.899361;0.7267798;-0.10724445;0.34468228;0.035052598;0.11657936;0.3168607;0.7349352
196;1.7572485;0.58262014;0.4351546;4.0550656;-8.899361;0.7267798;-0.10724445;0.34468228;0.035052598;0.11657936;0.3168607;0.7349352
197;1.7572485;0.58262014;0.4351546;4.0550656;-8.899361;0.7267798;-0.10724445;0.34468228;0.035052598;0.11657936;0.3168607;0.7349352
198;1.7572485;0.58262014;0.4351546;4.0550656;-8.899361;0.7267798;-0.10724445;0.34468228;0.035052598;0.11657936;0.3168607;0.7349352
199;1.7572485;0.58262014;0.4351546;4.0550656;-8.899361;0.7267798;-0.10724445;0.34468228;0.035052598;0.11657936;0.3168607;0.7349352
200;1.8391532;0.5987986;0.4374184;4.0409527;-8.9052305;0.7334541;-0.091379486;0.30332074;0.03855945;0.04534043;-0.28527996;-0.06421786
201;1.8391532;0.5987986;0.4374184;4.0409527;-8.9052305;0.7334541;-0.091379486;0.30332074;0.03855945;0.04534043;-0.28527996;-0.06421786
202;1.8391532;0.5987986;0.4374184;4.0409527;-8.9052305;0.7334541;-0.091379486;0.30332074;0.03855945;0.04534043;-0.28527996;-0.06421786
203;1.8391532;0.5987986;0.4374184;4.0409527;-8.9052305;0.7334541;-0.091379486;0.30332074;0.03855945;0.04534043;-0.28527996;-0.06421786
204;1.8391532;0.5987986;0.4374184;4.0409527;-8.9052305;0.7334541;-0.091379486;0.30332074;0.03855945;0.04534043;-0.28527996;-0.06421786
205;1.8391532;0.5987986;0.4374184;4.0409527;-8.9052305;0.7334541;-0.091379486;0.30332074;0.03855945;0.04534043;-0.28527996;-0.06421786
206;1.9405242;0.6220542;0.4387764;4.013956;-8.916793;0.7411802;-0.09616069;0.25752506;0.02427013;-0.11995356;-0.033601683;-0.09517149
207;1.9405242;0.6220542;0.4387764;4.013956;-8.916793;0.7411802;-0.09616069;0.25752506;0.02427013;-0.11995356;-0.033601683;-0.09517149
208;1.9405242;0.6220542;0.4387764;4.013956;-8.916793;0.7411802;-0.09616069;0.25752506;0.02427013;-0.11995356;-0.033601683;-0.09517149
209;1.9405242;0.6220542;0.4387764;4.013956;-8.916793;0.7411802;-0.09616069;0.25752506;0.02427013;-0.11995356;-0.033601683;-0.09517149
210;1.9405242;0.6220542;0.4387764;4.013956;-8.916793;0.7411802;-0.09616069;0.25752506;0.02427013;-0.11995356;-0.033601683;-0.09517149
211;1.9405242;0.6220542;0.4387764;4.013956;-8.916793;0.7411802;-0.09616069;0.25752506;0.02427013;-0.11995356;-0.033601683;-0.09517149
212;2.0633194;0.6705923;0.44492614;4.026183;-8.911325;0.74062395;-0.11642679;0.20701526;-0.0060076476;-0.18997182;0.33682024;0.2504826
213;2.0633194;0.6705923;0.44492614;4.026183;-8.911325;0.74062395;-0.11642679;0.20701526;-0.0060076476;-0.18997182;0.33682024;0.2504826
214;2.0633194;0.6705923;0.44492614;4.026183;-8.911325;0.74062395;-0.11642679;0.20701526;-0.0060076476;-0.18997182;0.33682024;0.2504826
215;2.0633194;0.6705923;0.44492614;4.026183;-8.911325;0.74062395;-0.11642679;0.20701526;-0.0060076476;-0.18997182;0.33682024;0.2504826
216;2.0633194;0.6705923;0.44492614;4.026183;-8.911325;0.74062395;-0.11642679;0.20701526;-0.0060076476;-0.18997182;0.33682024;0.2504826
217;2.0633194;0.6705923;0.44492614;4.026183;-8.911325;0.74062395;-0.11642679;0.20701526;-0.0060076476;-0.18997182;0.33682024;0.2504826
218;2.2078347;0.7391319;0.451163;4.0380216;-8.906592;0.7330567;-0.1300454;0.15947148;-0.03211957;0.038208045;0.40682545;0.144068
219;2.2078347;0.7391319;0.451163;4.0380216;-8.906592;0.7330567;-0.1300454;0.15947148;-0.03211957;0.038208045;0.40682545;0.144068
220;2.2078347;0.7391319;0.451163;4.0380216;-8.906592;0.7330567;-0.1300454;0.15947148;-0.03211957;0.038208045;0.40682545;0.144068
221;2.2078347;0.7391319;0.451163;4.0380216;-8.906592;0.7330567;-0.1300454;0.15947148;-0.03211957;0.038208045;0.40682545;0.144068
222;2.2078347;0.7391319;0.451163;4.0380216;-8.906592;0.7330567;-0.1300454;0.15947148;-0.03211957;0.038208045;0.40682545;0.144068
223;2.2078347;0.7391319;0.451163;4.0380216;-8.906592;0.7330567;-0.1300454;0.15947148;-0.03211957;0.038208045;0.40682545;0.144068
224;2.3665411;0.83457017;0.45808774;4.0625095;-8.897584;0.7066905;-0.11212253;0.12682493;-0.035996914;0.043632954;-0.28898436;-0.2376952
225;2.3665411;0.83457017;0.45808774;4.0625095;-8.897584;0.7066905;-0.11212253;0.12682493;-0.035996914;0.043632954;-0.28898436;-0.2376952
226;2.3665411;0.83457017;0.45808774;4.0625095;-8.897584;0.7066905;-0.11212253;0.12682493;-0.035996914;0.043632954;-0.28898436;-0.2376952
227;2.3665411;0.83457017;0.45808774;4.0625095;-8.897584;0.7066905;-0.11212253;0.12682493;-0.035996914;0.043632954;-0.28898436;-0.2376952
228;2.3665411;0.83457017;0.45808774;4.0625095;-8.897584;0.7066905;-0.11212253;0.12682493;-0.035996914;0.043632954;-0.28898436;-0.2376952
229;2.3665411;0.83457017;0.45808774;4.0625095;-8.897584;0.7066905;-0.11212253;0.12682493;-0.035996914;0.043632954;-0.28898436;-0.2376952
230;2.5318468;0.9530149;0.46376094;4.0785694;-8.892265;0.6806438;-0.061279498;0.10964622;-0.019657135;0.31714964;-0.59573454;-0.25765383
231;2.5318468;0.9530149;0.46376094;4.0785694;-8.892265;0.6806438;-0.061279498;0.10964622;-0.019657135;0.31714964;-0.59573454;-0.25765383
232;2.5318468;0.9530149;0.46376094;4.0785694;-8.892265;0.6806438;-0.061279498;0.10964622;-0.019657135;0.31714964;-0.59573454;-0.25765383
233;2.5318468;0.9530149;0.46376094;4.0785694;-8.892265;0.6806438;-0.061279498;0.10964622;-0.019657135;0.31714964;-0.59573454;-0.25765383
234;2.5318468;0.9530149;0.46376094;4.0785694;-8.892265;0.6806438;-0.061279498;0.10964622;-0.019657135;0.31714964;-0.59573454;-0.25765383
235;2.5318468;0.9530149;0.46376094;4.0785694;-8.892265;0.6806438;-0.061279498;0.10964622;-0.019657135;0.31714964;-0.59573454;-0.25765383
236;2.691968;1.0963504;0.46938306;4.093539;-8.886737;0.66274786;0.001270091;0.097037934;0.00003513244;-0.43106776;0.3630498;0.25298908
237;2.691968;1.0963504;0.46938306;4.093539;-8.886737;0.66274786;0.001270091;0.097037934;0.00003513244;-0.43106776;0.3630498;0.25298908
238;2.691968;1.0963504;0.46938306;4.093539;-8.886737;0.66274786;0.001270091;0.097037934;0.00003513244;-0.43106776;0.3630498;0.25298908
239;2.691968;1.0963504;0.46938306;4.093539;-8.886737;0.66274786;0.001270091;0.097037934;0.00003513244;-0.43106776;0.3630498;0.25298908
240;2.691968;1.0963504;0.46938306;4.093539;-8.886737;0.66274786;0.001270091;0.097037934;0.00003513244;-0.43106776;0.3630498;0.25298908
241;2.691968;1.0963504;0.46938306;4.093539;-8.886737;0.66274786;0.001270091;0.097037934;0.00003513244;-0.43106776;0.3630498;0.25298908
242;2.832406;1.252316;0.47463316;4.112303;-8.8796625;0.64105093;0.04925036;0.07610007;0.0061098514;-0.054283362;0.202201;-0.1382455
243;2.832406;1.252316;0.47463316;4.112303;-8.8796625;0.64105093;0.04925036;0.07610007;0.0061098514;-0.054283362;0.202201;-0.1382455
244;2.832406;1.252316;0.47463316;4.112303;-8.8796625;0.64105093;0.04925036;0.07610007;0.0061098514;-0.054283362;0.202201;-0.1382455
245;2.832406;1.252316;0.47463316;4.112303;-8.8796625;0.64105093;0.04925036;0.07610007;0.0061098514;-0.054283362;0.202201;-0.1382455
246;2.832406;1.252316;0.47463316;4.112303;-8.8796625;0.64105093;0.04925036;0.07610007;0.0061098514;-0.054283362;0.202201;-0.1382455
247;2.832406;1.252316;0.47463316;4.112303;-8.8796625;0.64105093;0.04925036;0.07610007;0.0061098514;-0.054283362;0.202201;-0.1382455
248;2.9439082;1.397193;0.47859243;4.11204;-8.879694;0.6422904;0.07101225;0.03806973;-0.0044618202;-0.060167514;0.0026886554;-0.029887335
249;2.9439082;1.397193;0.47859243;4.11204;-8.879694;0.6422904;0.07101225;0.03806973;-0.0044618202;-0.060167514;0.0026886554;-0.029887335
250;2.9439082;1.397193;0.47859243;4.11204;-8.879694;0.6422904;0.07101225;0.03806973;-0.0044618202;-0.060167514;0.0026886554;-0.029887335
251;2.9439082;1.397193;0.47859243;4.11204;-8.879694;0.6422904;0.07101225;0.03806973;-0.0044618202;-0.060167514;0.0026886554;-0.029887335
252;2.9439082;1.397193;0.47859243;4.11204;-8.879694;0.6422904;0.07101225;0.03806973;-0.0044618202;-0.060167514;0.0026886554;-0.029887335
253;2.9439082;1.397193;0.47859243;4.11204;-8.879694;0.6422904;0.07101225;0.03806973;-0.0044618202;-0.060167514;0.0026886554;-0.029887335
254;3.0264478;1.5181271;0.48112842;4.1009035;-8.884335;0.64929885;0.078064285;-0.01930794;-0.020387463;0.29648495;-0.17231801;0.23517364
255;3.0264478;1.5181271;0.48112842;4.1009035;-8.884335;0.64929885;0.078064285;-0.01930794;-0.020387463;0.29648495;-0.17231801;0.23517364
256;3.0264478;1.5181271;0.48112842;4.1009035;-8.884335;0.64929885;0.078064285;-0.01930794;-0.020387463;0.29648495;-0.17231801;0.23517364
257;3.0264478;1.5181271;0.48112842;4.1009035;-8.884335;0.64929885;0.078064285;-0.01930794;-0.020387463;0.29648495;-0.17231801;0.23517364
258;3.0264478;1.5181271;0.48112842;4.1009035;-8.884335;0.64929885;0.078064285;-0.01930794;-0.020387463;0.29648495;-0.17231801;0.23517364
259;3.0264478;1.5181271;0.48112842;4.1009035;-8.884335;0.64929885;0.078064285;-0.01930794;-0.020387463;0.29648495;-0.17231801;0.23517364
260;3.084954;1.609992;0.48207805;4.084338;-8.891752;0.6521526;0.090762004;-0.090307415;-0.025846832;0.073680595;-0.13590668;-0.102381214
261;3.084954;1.609992;0.48207805;4.084338;-8.891752;0.6521526;0.090762004;-0.090307415;-0.025846832;0.073680595;-0.13590668;-0.102381214
262;3.084954;1.609992;0.48207805;4.084338;-8.891752;0.6521526;0.090762004;-0.090307415;-0.025846832;0.073680595;-0.13590668;-0.102381214
263;3.084954;1.609992;0.48207805;4.084338;-8.891752;0.6521526;0.090762004;-0.090307415;-0.025846832;0.073680595;-0.13590668;-0.102381214
264;3.084954;1.609992;0.48207805;4.084338;-8.891752;0.6521526;0.090762004;-0.090307415;-0.025846832;0.073680595;-0.13590668;-0.102381214
265;3.084954;1.609992;0.48207805;4.084338;-8.891752;0.6521526;0.090762004;-0.090307415;-0.025846832;0.073680595;-0.13590668;-0.102381214
266;3.1229656;1.6820874;0.48555008;4.0764127;-8.893217;0.68113375;0.12393874;-0.15882419;-0.012441143;0.10704068;-0.27889857;-0.20845127
267;3.1229656;1.6820874;0.48555008;4.0764127;-8.893217;0.68113375;0.12393874;-0.15882419;-0.012441143;0.10704068;-0.27889857;-0.20845127
268;3.1229656;1.6820874;0.48555008;4.0764127;-8.893217;0.68113375;0.12393874;-0.15882419;-0.012441143;0.10704068;-0.27889857;-0.20845127
269;3.1229656;1.6820874;0.48555008;4.0764127;-8.893217;0.68113375;0.12393874;-0.15882419;-0.012441143;0.10704068;-0.27889857;-0.20845127
270;3.1229656;1.6820874;0.48555008;4.0764127;-8.893217;0.68113375;0.12393874;-0.15882419;-0.012441143;0.10704068;-0.27889857;-0.20845127
271;3.1229656;1.6820874;0.48555008;4.0764127;-8.893217;0.68113375;0.12393874;-0.15882419;-0.012441143;0.10704068;-0.27889857;-0.20845127
272;-3.1405964;1.7209358;0.48627457;4.0517282;-8.902399;0.70794564;0.17162518;-0.21256725;0.01316402;0.36664173;-0.27274865;0.3275383
273;-3.1405964;1.7209358;0.48627457;4.0517282;-8.902399;0.70794564;0.17162518;-0.21256725;0.01316402;0.36664173;-0.27274865;0.3275383
274;-3.1405964;1.7209358;0.48627457;4.0517282;-8.902399;0.70794564;0.17162518;-0.21256725;0.01316402;0.36664173;-0.27274865;0.3275383
275;-3.1405964;1.7209358;0.48627457;4.0517282;-8.902399;0.70794564;0.17162518;-0.21256725;0.01316402;0.36664173;-0.27274865;0.3275383
276;-3.1405964;1.7209358;0.48627457;4.0517282;-8.902399;0.70794564;0.17162518;-0.21256725;0.01316402;0.36664173;-0.27274865;0.3275383
277;-3.1405964;1.7209358;0.48627457;4.0517282;-8.902399;0.70794564;0.17162518;-0.21256725;0.01316402;0.36664173;-0.27274865;0.3275383
278;-3.1405964;1.7209358;0.48627457;4.011581;-8.918841;0.7292971;0.207538;-0.25812978;0.03739263;0.13264748;-0.46532968;-0.019722586
279;-3.1405964;1.7209358;0.48627457;4.011581;-8.918841;0.7292971;0.207538;-0.25812978;0.03739263;0.13264748;-0.46532968;-0.019722586
280;-3.1405964;1.7209358;0.48627457;4.011581;-8.918841;0.7292971;0.207538;-0.25812978;0.03739263;0.13264748;-0.46532968;-0.019722586
281;-3.1405964;1.7209358;0.48627457;4.011581;-8.918841;0.7292971;0.207538;-0.25812978;0.03739263;0.13264748;-0.46532968;-0.019722586
282;-3.1405964;1.7209358;0.48627457;4.011581;-8.918841;0.7292971;0.207538;-0.25812978;0.03739263;0.13264748;-0.46532968;-0.019722586
283;-3.1405964;1.7209358;0.48627457;4.011581;-8.918841;0.7292971;0.207538;-0.25812978;0.03739263;0.13264748;-0.46532968;-0.019722586
284;-3.137606;1.7321845;0.4832302;3.9782827;-8.931112;0.7608532;0.21067223;-0.3090867;0.05022981;-0.04500358;0.093849055;-0.05221274
285;-3.137606;1.7321845;0.4832302;3.9782827;-8.931112;0.7608532;0.21067223;-0.3090867;0.05022981;-0.04500358;0.093849055;-0.05221274
286;-3.137606;1.7321845;0.4832302;3.9782827;-8.931112;0.7608532;0.21067223;-0.3090867;0.05022981;-0.04500358;0.093849055;-0.05221274
287;-3.137606;1.7321845;0.4832302;3.9782827;-8.931112;0.7608532;0.21067223;-0.3090867;0.05022981;-0.04500358;0.093849055;-0.05221274
288;-3.137606;1.7321845;0.4832302;3.9782827;-8.931112;0.7608532;0.21067223;-0.3090867;0.05022981;-0.04500358;0.093849055;-0.05221274
289;-3.137606;1.7321845;0.4832302;3.9782827;-8.931112;0.7608532;0.21067223;-0.3090867;0.05022981;-0.04500358;0.093849055;-0.05221274
290;-3.137606;1.7321845;0.4832302;3.9619303;-8.93602;0.78805405;0.18686734;-0.36542958;0.047342565;-0.12964992;0.041953042;-0.09322647
291;-3.137606;1.7321845;0.4832302;3.9619303;-8.93602;0.78805405;0.18686734;-0.36542958;0.047342565;-0.12964992;0.041953042;-0.09322647
292;-3.137606;1.7321845;0.4832302;3.9619303;-8.93602;0.78805405;0.18686734;-0.36542958;0.047342565;-0.12964992;0.041953042;-0.09322647
293;-3.137606;1.7321845;0.4832302;3.9619303;-8.93602;0.78805405;0.18686734;-0.36542958;0.047342565;-0.12964992;0.041953042;-0.09322647
294;-3.137606;1.7321845;0.4832302;3.9619303;-8.93602;0.78805405;0.18686734;-0.36542958;0.047342565;-0.12964992;0.041953042;-0.09322647
295;-3.137606;1.7321845;0.4832302;3.9619303;-8.93602;0.78805405;0.18686734;-0.36542958;0.047342565;-0.12964992;0.041953042;-0.09322647
296;3.1167357;1.6808637;0.48083606;3.9523466;-8.940496;0.7853942;0.1634851;-0.41688582;0.031876836;0.31062835;-0.14721827;0.13768324
297;3.1167357;1.6808637;0.48083606;3.9523466;-8.940496;0.7853942;0.1634851;-0.41688582;0.031876836;0.31062835;-0.14721827;0.13768324
298;3.1167357;1.6808637;0.48083606;3.9523466;-8.940496;0.7853942;0.1634851;-0.41688582;0.031876836;0.31062835;-0.14721827;0.13768324
299;3.1167357;1.6808637;0.48083606;3.9523466;-8.940496;0.7853942;0.1634851;-0.41688582;0.031876836;0.31062835;-0.14721827;0.13768324
300;3.1167357;1.6808637;0.48083606;3.9523466;-8.940496;0.7853942;0.1634851;-0.41688582;0.031876836;0.31062835;-0.14721827;0.13768324
301;3.1167357;1.6808637;0.48083606;3.9523466;-8.940496;0.7853942;0.1634851;-0.41688582;0.031876836;0.31062835;-0.14721827;0.13768324
302;3.0855255;1.6216075;0.4790119;3.9559212;-8.939258;0.7815097;0.16195418;-0.46125704;0.016234383;-0.054604754;-0.25597557;-0.04669757
303;3.0855255;1.6216075;0.4790119;3.9559212;-8.939258;0.7815097;0.16195418;-0.46125704;0.016234383;-0.054604754;-0.25597557;-0.04669757
304;3.0855255;1.6216075;0.4790119;3.9559212;-8.939258;0.7815097;0.16195418;-0.46125704;0.016234383;-0.054604754;-0.25597557;-0.04669757
305;3.0855255;1.6216075;0.4790119;3.9559212;-8.939258;0.7815097;0.16195418;-0.46125704;0.016234383;-0.054604754;-0.25597557;-0.04669757
306;3.0855255;1.6216075;0.4790119;3.9559212;-8.939258;0.7815097;0.16195418;-0.46125704;0.016234383;-0.054604754;-0.25597557;-0.04669757
307;3.0855255;1.6216075;0.4790119;3.9559212;-8.939258;0.7815097;0.16195418;-0.46125704;0.016234383;-0.054604754;-0.25597557;-0.04669757
308;3.041914;1.5472599;0.4790809;3.9854023;-8.926922;0.7726676;0.18985891;-0.503252;0.012398559;-0.03744423;-0.30422398;-0.11475234
309;3.041914;1.5472599;0.4790809;3.9854023;-8.926922;0.7726676;0.18985891;-0.503252;0.012398559;-0.03744423;-0.30422398;-0.11475234
310;3.041914;1.5472599;0.4790809;3.9854023;-8.926922;0.7726676;0.18985891;-0.503252;0.012398559;-0.03744423;-0.30422398;-0.11475234
311;3.041914;1.5472599;0.4790809;3.9854023;-8.926922;0.7726676;0.18985891;-0.503252;0.012398559;-0.03744423;-0.30422398;-0.11475234
312;3.041914;1.5472599;0.4790809;3.9854023;-8.926922;0.7726676;0.18985891;-0.503252;0.012398559;-0.03744423;-0.30422398;-0.11475234
313;3.041914;1.5472599;0.4790809;3.9854023;-8.926922;0.7726676;0.18985891;-0.503252;0.012398559;-0.03744423;-0.30422398;-0.11475234
314;2.9819193;1.4637226;0.4820603;4.0271473;-8.906619;0.7903176;0.25027183;-0.5454216;0.020082982;-0.022938492;-0.48156267;-0.106825374
315;2.9819193;1.4637226;0.4820603;4.0271473;-8.906619;0.7903176;0.25027183;-0.5454216;0.020082982;-0.022938492;-0.48156267;-0.106825374
316;2.9819193;1.4637226;0.4820603;4.0271473;-8.906619;0.7903176;0.25027183;-0.5454216;0.020082982;-0.022938492;-0.48156267;-0.106825374
317;2.9819193;1.4637226;0.4820603;4.0271473;-8.906619;0.7903176;0.25027183;-0.5454216;0.020082982;-0.022938492;-0.48156267;-0.106825374
318;2.9819193;1.4637226;0.4820603;4.0271473;-8.906619;0.7903176;0.25027183;-0.5454216;0.020082982;-0.022938492;-0.48156267;-0.106825374
319;2.9819193;1.4637226;0.4820603;4.0271473;-8.906619;0.7903176;0.25027183;-0.5454216;0.020082982;-0.022938492;-0.48156267;-0.106825374
320;2.9038703;1.3611834;0.48325148;4.0705047;-8.886863;0.79060686;0.33819872;-0.5948189;0.032254778;-0.09515268;0.1710754;-0.20194617
321;2.9038703;1.3611834;0.48325148;4.0705047;-8.886863;0.79060686;0.33819872;-0.5948189;0.032254778;-0.09515268;0.1710754;-0.20194617
322;2.9038703;1.3611834;0.48325148;4.0705047;-8.886863;0.79060686;0.33819872;-0.5948189;0.032254778;-0.09515268;0.1710754;-0.20194617
323;2.9038703;1.3611834;0.48325148;4.0705047;-8.886863;0.79060686;0.33819872;-0.5948189;0.032254778;-0.09515268;0.1710754;-0.20194617
324;2.9038703;1.3611834;0.48325148;4.0705047;-8.886863;0.79060686;0.33819872;-0.5948189;0.032254778;-0.09515268;0.1710754;-0.20194617
325;2.9038703;1.3611834;0.48325148;4.0705047;-8.886863;0.79060686;0.33819872;-0.5948189;0.032254778;-0.09515268;0.1710754;-0.20194617
326;2.8044307;1.250711;0.48483542;4.11578;-8.865034;0.80120057;0.4318203;-0.6679966;0.048137836;0.033443514;0.08136606;-0.015213875
327;2.8044307;1.250711;0.48483542;4.11578;-8.865034;0.80120057;0.4318203;-0.6679966;0.048137836;0.033443514;0.08136606;-0.015213875
328;2.8044307;1.250711;0.48483542;4.11578;-8.865034;0.80120057;0.4318203;-0.6679966;0.048137836;0.033443514;0.08136606;-0.015213875
329;2.8044307;1.250711;0.48483542;4.11578;-8.865034;0.80120057;0.4318203;-0.6679966;0.048137836;0.033443514;0.08136606;-0.015213875
330;2.8044307;1.250711;0.48483542;4.11578;-8.865034;0.80120057;0.4318203;-0.6679966;0.048137836;0.033443514;0.08136606;-0.015213875
331;2.8044307;1.250711;0.48483542;4.11578;-8.865034;0.80120057;0.4318203;-0.6679966;0.048137836;0.033443514;0.08136606;-0.015213875
332;2.6844375;1.1439847;0.48738584;4.1776576;-8.835701;0.8049516;0.49804178;-0.7767176;0.06906932;-0.10277823;-0.08176981;-0.09276261
333;2.6844375;1.1439847;0.48738584;4.1776576;-8.835701;0.8049516;0.49804178;-0.7767176;0.06906932;-0.10277823;-0.08176981;-0.09276261
334;2.6844375;1.1439847;0.48738584;4.1776576;-8.835701;0.8049516;0.49804178;-0.7767176;0.06906932;-0.10277823;-0.08176981;-0.09276261
335;2.6844375;1.1439847;0.48738584;4.1776576;-8.835701;0.8049516;0.49804178;-0.7767176;0.06906932;-0.10277823;-0.08176981;-0.09276261
336;2.6844375;1.1439847;0.48738584;4.1776576;-8.835701;0.8049516;0.49804178;-0.7767176;0.06906932;-0.10277823;-0.08176981;-0.09276261
337;2.6844375;1.1439847;0.48738584;4.1776576;-8.835701;0.8049516;0.49804178;-0.7767176;0.06906932;-0.10277823;-0.08176981;-0.09276261
338;2.5448334;1.0447189;0.48968226;4.252331;-8.801921;0.7837354;0.5218573;-0.9081587;0.088614665;0.4251634;-0.37972972;0.24162218
339;2.5448334;1.0447189;0.48968226;4.252331;-8.801921;0.7837354;0.5218573;-0.9081587;0.088614665;0.4251634;-0.37972972;0.24162218
340;2.5448334;1.0447189;0.48968226;4.252331;-8.801921;0.7837354;0.5218573;-0.9081587;0.088614665;0.4251634;-0.37972972;0.24162218
341;2.5448334;1.0447189;0.48968226;4.252331;-8.801921;0.7837354;0.5218573;-0.9081587;0.088614665;0.4251634;-0.37972972;0.24162218
342;2.5448334;1.0447189;0.48968226;4.252331;-8.801921;0.7837354;0.5218573;-0.9081587;0.088614665;0.4251634;-0.37972972;0.24162218
343;2.5448334;1.0447189;0.48968226;4.252331;-8.801921;0.7837354;0.5218573;-0.9081587;0.088614665;0.4251634;-0.37972972;0.24162218
344;2.3888571;0.9492059;0.490634;4.3080926;-8.774976;0.78136486;0.5172326;-1.0318314;0.09770013;0.11406151;-0.14128351;-0.114883095
345;2.3888571;0.9492059;0.490634;4.3080926;-8.774976;0.78136486;0.5172326;-1.0318314;0.09770013;0.11406151;-0.14128351;-0.114883095
346;2.3888571;0.9492059;0.490634;4.3080926;-8.774976;0.78136486;0.5172326;-1.0318314;0.09770013;0.11406151;-0.14128351;-0.114883095
347;2.3888571;0.9492059;0.490634;4.3080926;-8.774976;0.78136486;0.5172326;-1.0318314;0.09770013;0.11406151;-0.14128351;-0.114883095
348;2.3888571;0.9492059;0.490634;4.3080926;-8.774976;0.78136486;0.5172326;-1.0318314;0.09770013;0.11406151;-0.14128351;-0.114883095
349;2.3888571;0.9492059;0.490634;4.3080926;-8.774976;0.78136486;0.5172326;-1.0318314;0.09770013;0.11406151;-0.14128351;-0.114883095
350;2.2223608;0.86327386;0.49068466;4.359251;-8.749807;0.77986246;0.5206479;-1.1214383;0.09609043;-0.13454293;-0.30202624;-0.022016363
351;2.2223608;0.86327386;0.49068466;4.359251;-8.749807;0.77986246;0.5206479;-1.1214383;0.09609043;-0.13454293;-0.30202624;-0.022016363
352;2.2223608;0.86327386;0.49068466;4.359251;-8.749807;0.77986246;0.5206479;-1.1214383;0.09609043;-0.13454293;-0.30202624;-0.022016363
353;2.2223608;0.86327386;0.49068466;4.359251;-8.749807;0.77986246;0.5206479;-1.1214383;0.09609043;-0.13454293;-0.30202624;-0.022016363
354;2.2223608;0.86327386;0.49068466;4.359251;-8.749807;0.77986246;0.5206479;-1.1214383;0.09609043;-0.13454293;-0.30202624;-0.022016363
355;2.2223608;0.86327386;0.49068466;4.359251;-8.749807;0.77986246;0.5206479;-1.1214383;0.09609043;-0.13454293;-0.30202624;-0.022016363
356;2.0478473;0.80005586;0.49343705;4.4461;-8.708366;0.752934;0.5597226;-1.1635131;0.08507907;-0.03392431;0.18675971;0.717796
357;2.0478473;0.80005586;0.49343705;4.4461;-8.708366;0.752934;0.5597226;-1.1635131;0.08507907;-0.03392431;0.18675971;0.717796
358;2.0478473;0.80005586;0.49343705;4.4461;-8.708366;0.752934;0.5597226;-1.1635131;0.08507907;-0.03392431;0.18675971;0.717796
359;2.0478473;0.80005586;0.49343705;4.4461;-8.708366;0.752934;0.5597226;-1.1635131;0.08507907;-0.03392431;0.18675971;0.717796
360;2.0478473;0.80005586;0.49343705;4.4461;-8.708366;0.752934;0.5597226;-1.1635131;0.08507907;-0.03392431;0.18675971;0.717796
361;2.0478473;0.80005586;0.49343705;4.4461;-8.708366;0.752934;0.5597226;-1.1635131;0.08507907;-0.03392431;0.18675971;0.717796
362;1.8640091;0.7477607;0.49513853;4.5373325;-8.666429;0.68994504;0.6112108;-1.155506;0.06284023;0.22919495;-0.23748688;-0.019862479
363;1.8640091;0.7477607;0.49513853;4.5373325;-8.666429;0.68994504;0.6112108;-1.155506;0.06284023;0.22919495;-0.23748688;-0.019862479
364;1.8640091;0.7477607;0.49513853;4.5373325;-8.666429;0.68994504;0.6112108;-1.155506;0.06284023;0.22919495;-0.23748688;-0.019862479
365;1.8640091;0.7477607;0.49513853;4.5373325;-8.666429;0.68994504;0.6112108;-1.155506;0.06284023;0.22919495;-0.23748688;-0.019862479
366;1.8640091;0.7477607;0.49513853;4.5373325;-8.666429;0.68994504;0.6112108;-1.155506;0.06284023;0.22919495;-0.23748688;-0.019862479
367;1.8640091;0.7477607;0.49513853;4.5373325;-8.666429;0.68994504;0.6112108;-1.155506;0.06284023;0.22919495;-0.23748688;-0.019862479
368;1.6766939;0.7120816;0.49446788;4.611482;-8.630041;0.65346575;0.62330806;-1.0986383;0.03467359;-0.020970725;0.046293765;-0.029820452
369;1.6766939;0.7120816;0.49446788;4.611482;-8.630041;0.65346575;0.62330806;-1.0986383;0.03467359;-0.020970725;0.046293765;-0.029820452
370;1.6766939;0.7120816;0.49446788;4.611482;-8.630041;0.65346575;0.62330806;-1.0986383;0.03467359;-0.020970725;0.046293765;-0.029820452
371;1.6766939;0.7120816;0.49446788;4.611482;-8.630041;0.65346575;0.62330806;-1.0986383;0.03467359;-0.020970725;0.046293765;-0.029820452
372;1.6766939;0.7120816;0.49446788;4.611482;-8.630041;0.65346575;0.62330806;-1.0986383;0.03467359;-0.020970725;0.046293765;-0.029820452
373;1.6766939;0.7120816;0.49446788;4.611482;-8.630041;0.65346575;0.62330806;-1.0986383;0.03467359;-0.020970725;0.046293765;-0.029820452
374;1.47598;0.7292171;0.4884648;4.666704;-8.601556;0.636799;0.5699004;-0.99583656;0.011550057;-0.10808328;0.02262967;-0.033750348
375;1.47598;0.7292171;0.4884648;4.666704;-8.601556;0.636799;0.5699004;-0.99583656;0.011550057;-0.10808328;0.02262967;-0.033750348
376;1.47598;0.7292171;0.4884648;4.666704;-8.601556;0.636799;0.5699004;-0.99583656;0.011550057;-0.10808328;0.02262967;-0.033750348
377;1.47598;0.7292171;0.4884648;4.666704;-8.601556;0.636799;0.5699004;-0.99583656;0.011550057;-0.10808328;0.02262967;-0.033750348
378;1.47598;0.7292171;0.4884648;4.666704;-8.601556;0.636799;0.5699004;-0.99583656;0.011550057;-0.10808328;0.02262967;-0.033750348
379;1.47598;0.7292171;0.4884648;4.666704;-8.601556;0.636799;0.5699004;-0.99583656;0.011550057;-0.10808328;0.02262967;-0.033750348
380;1.2369827;1.0153875;0.47281864;4.7164903;-8.575196;0.6254061;0.4772508;-0.8574616;0.0025912838;0.28943554;0.032694943;0.055820957
381;1.2369827;1.0153875;0.47281864;4.7164903;-8.575196;0.6254061;0.4772508;-0.8574616;0.0025912838;0.28943554;0.032694943;0.055820957
382;1.2369827;1.0153875;0.47281864;4.7164903;-8.575196;0.6254061;0.4772508;-0.8574616;0.0025912838;0.28943554;0.032694943;0.055820957
383;1.2369827;1.0153875;0.47281864;4.7164903;-8.575196;0.6254061;0.4772508;-0.8574616;0.0025912838;0.28943554;0.032694943;0.055820957
384;1.2369827;1.0153875;0.47281864;4.7164903;-8.575196;0.6254061;0.4772508;-0.8574616;0.0025912838;0.28943554;0.032694943;0.055820957
385;1.2369827;1.0153875;0.47281864;4.7164903;-8.575196;0.6254061;0.4772508;-0.8574616;0.0025912838;0.28943554;0.032694943;0.055820957
386;0.9429877;2.2533622;0.42790523;4.7640767;-8.550903;0.59667975;0.39005423;-0.706045;0.007638645;0.16054307;-0.1239893;-0.010526775
387;0.9429877;2.2533622;0.42790523;4.7640767;-8.550903;0.59667975;0.39005423;-0.706045;0.007638645;0.16054307;-0.1239893;-0.010526775
388;0.9429877;2.2533622;0.42790523;4.7640767;-8.550903;0.59667975;0.39005423;-0.706045;0.007638645;0.16054307;-0.1239893;-0.010526775
389;0.9429877;2.2533622;0.42790523;4.7640767;-8.550903;0.59667975;0.39005423;-0.706045;0.007638645;0.16054307;-0.1239893;-0.010526775
390;0.9429877;2.2533622;0.42790523;4.7640767;-8.550903;0.59667975;0.39005423;-0.706045;0.007638645;0.16054307;-0.1239893;-0.010526775
391;0.9429877;2.2533622;0.42790523;4.7640767;-8.550903;0.59667975;0.39005423;-0.706045;0.007638645;0.16054307;-0.1239893;-0.010526775
392;0.77191097;2.6757045;-0.037160162;4.7792926;-8.539517;0.6366991;0.32536688;-0.5656685;0.020381076;0.11474706;-0.13797006;0.01503957
393;0.77191097;2.6757045;-0.037160162;4.7792926;-8.539517;0.6366991;0.32536688;-0.5656685;0.020381076;0.11474706;-0.13797006;0.01503957
394;0.77191097;2.6757045;-0.037160162;4.7792926;-8.539517;0.6366991;0.32536688;-0.5656685;0.020381076;0.11474706;-0.13797006;0.01503957
395;0.77191097;2.6757045;-0.037160162;4.7792926;-8.539517;0.6366991;0.32536688;-0.5656685;0.020381076;0.11474706;-0.13797006;0.01503957
396;0.77191097;2.6757045;-0.037160162;4.7792926;-8.539517;0.6366991;0.32536688;-0.5656685;0.020381076;0.11474706;-0.13797006;0.01503957
397;0.77191097;2.6757045;-0.037160162;4.7792926;-8.539517;0.6366991;0.32536688;-0.5656685;0.020381076;0.11474706;-0.13797006;0.01503957
398;0.8153169;2.6558166;-2.3750377;4.7848186;-8.531937;0.69422346;0.27969897;-0.44294983;0.034314815;-0.058458287;-0.10135502;-0.13013381
399;0.8153169;2.6558166;-2.3750377;4.7848186;-8.531937;0.69422346;0.27969897;-0.44294983;0.034314815;-0.058458287;-0.10135502;-0.13013381
400;0.8153169;2.6558166;-2.3750377;4.7848186;-8.531937;0.69422346;0.27969897;-0.44294983;0.034314815;-0.058458287;-0.10135502;-0.13013381
401;0.8153169;2.6558166;-2.3750377;4.7848186;-8.531937;0.69422346;0.27969897;-0.44294983;0.034314815;-0.058458287;-0.10135502;-0.13013381
402;0.8153169;2.6558166;-2.3750377;4.7848186;-8.531937;0.69422346;0.27969897;-0.44294983;0.034314815;-0.058458287;-0.10135502;-0.13013381
403;0.8153169;2.6558166;-2.3750377;4.7848186;-8.531937;0.69422346;0.27969897;-0.44294983;0.034314815;-0.058458287;-0.10135502;-0.13013381
404;0.8903801;2.553918;-2.4837472;4.765284;-8.537202;0.7606915;0.24521062;-0.3288237;0.04532937;0.0147200255;-0.35523245;-0.0667276
405;0.8903801;2.553918;-2.4837472;4.765284;-8.537202;0.7606915;0.24521062;-0.3288237;0.04532937;0.0147200255;-0.35523245;-0.0667276
406;0.8903801;2.553918;-2.4837472;4.765284;-8.537202;0.7606915;0.24521062;-0.3288237;0.04532937;0.0147200255;-0.35523245;-0.0667276
407;0.8903801;2.553918;-2.4837472;4.765284;-8.537202;0.7606915;0.24521062;-0.3288237;0.04532937;0.0147200255;-0.35523245;-0.0667276
408;0.8903801;2.553918;-2.4837472;4.765284;-8.537202;0.7606915;0.24521062;-0.3288237;0.04532937;0.0147200255;-0.35523245;-0.0667276
409;0.8903801;2.553918;-2.4837472;4.765284;-8.537202;0.7606915;0.24521062;-0.3288237;0.04532937;0.0147200255;-0.35523245;-0.0667276
410;0.9442962;2.4409974;-2.516446;4.746884;-8.544156;0.79678607;0.20877826;-0.21580157;0.05573496;-0.03889572;0.43284637;-0.16798797
411;0.9442962;2.4409974;-2.516446;4.746884;-8.544156;0.79678607;0.20877826;-0.21580157;0.05573496;-0.03889572;0.43284637;-0.16798797
412;0.9442962;2.4409974;-2.516446;4.746884;-8.544156;0.79678607;0.20877826;-0.21580157;0.05573496;-0.03889572;0.43284637;-0.16798797
413;0.9442962;2.4409974;-2.516446;4.746884;-8.544156;0.79678607;0.20877826;-0.21580157;0.05573496;-0.03889572;0.43284637;-0.16798797
414;0.9442962;2.4409974;-2.516446;4.746884;-8.544156;0.79678607;0.20877826;-0.21580157;0.05573496;-0.03889572;0.43284637;-0.16798797
415;0.9442962;2.4409974;-2.516446;4.746884;-8.544156;0.79678607;0.20877826;-0.21580157;0.05573496;-0.03889572;0.43284637;-0.16798797
416;0.9801016;2.3401754;-2.530888;4.727065;-8.551299;0.83697623;0.15759456;-0.107801236;0.067667216;-0.15611094;0.4257166;-0.016424488
417;0.9801016;2.3401754;-2.530888;4.727065;-8.551299;0.83697623;0.15759456;-0.107801236;0.067667216;-0.15611094;0.4257166;-0.016424488
418;0.9801016;2.3401754;-2.530888;4.727065;-8.551299;0.83697623;0.15759456;-0.107801236;0.067667216;-0.15611094;0.4257166;-0.016424488
419;0.9801016;2.3401754;-2.530888;4.727065;-8.551299;0.83697623;0.15759456;-0.107801236;0.067667216;-0.15611094;0.4257166;-0.016424488
420;0.9801016;2.3401754;-2.530888;4.727065;-8.551299;0.83697623;0.15759456;-0.107801236;0.067667216;-0.15611094;0.4257166;-0.016424488
421;0.9801016;2.3401754;-2.530888;4.727065;-8.551299;0.83697623;0.15759456;-0.107801236;0.067667216;-0.15611094;0.4257166;-0.016424488
422;1.0055095;2.251652;-2.5398598;4.7094135;-8.557797;0.8694353;0.091273025;-0.016709203;0.07386436;-0.01196414;0.14933597;0.01903353
423;1.0055095;2.251652;-2.5398598;4.7094135;-8.557797;0.8694353;0.091273025;-0.016709203;0.07386436;-0.01196414;0.14933597;0.01903353
424;1.0055095;2.251652;-2.5398598;4.7094135;-8.557797;0.8694353;0.091273025;-0.016709203;0.07386436;-0.01196414;0.14933597;0.01903353
425;1.0055095;2.251652;-2.5398598;4.7094135;-8.557797;0.8694353;0.091273025;-0.016709203;0.07386436;-0.01196414;0.14933597;0.01903353
426;1.0055095;2.251652;-2.5398598;4.7094135;-8.557797;0.8694353;0.091273025;-0.016709203;0.07386436;-0.01196414;0.14933597;0.01903353
427;1.0055095;2.251652;-2.5398598;4.7094135;-8.557797;0.8694353;0.091273025;-0.016709203;0.07386436;-0.01196414;0.14933597;0.01903353
428;1.0250409;2.1646042;-2.5514164;4.693753;-8.5681715;0.85176677;0.02421051;0.046865616;0.06324691;-0.039430592;0.09042553;-0.004965328
429;1.0250409;2.1646042;-2.5514164;4.693753;-8.5681715;0.85176677;0.02421051;0.046865616;0.06324691;-0.039430592;0.09042553;-0.004965328
430;1.0250409;2.1646042;-2.5514164;4.693753;-8.5681715;0.85176677;0.02421051;0.046865616;0.06324691;-0.039430592;0.09042553;-0.004965328
431;1.0250409;2.1646042;-2.5514164;4.693753;-8.5681715;0.85176677;0.02421051;0.046865616;0.06324691;-0.039430592;0.09042553;-0.004965328
432;1.0250409;2.1646042;-2.5514164;4.693753;-8.5681715;0.85176677;0.02421051;0.046865616;0.06324691;-0.039430592;0.09042553;-0.004965328
433;1.0250409;2.1646042;-2.5514164;4.693753;-8.5681715;0.85176677;0.02421051;0.046865616;0.06324691;-0.039430592;0.09042553;-0.004965328
434;1.0410727;2.0731971;-2.564767;4.668179;-8.586163;0.81011677;-0.027191447;0.080178626;0.03640147;-0.12452881;0.12913391;0.060560454
435;1.0410727;2.0731971;-2.564767;4.668179;-8.586163;0.81011677;-0.027191447;0.080178626;0.03640147;-0.12452881;0.12913391;0.060560454
436;1.0410727;2.0731971;-2.564767;4.668179;-8.586163;0.81011677;-0.027191447;0.080178626;0.03640147;-0.12452881;0.12913391;0.060560454
437;1.0410727;2.0731971;-2.564767;4.668179;-8.586163;0.81011677;-0.027191447;0.080178626;0.03640147;-0.12452881;0.12913391;0.060560454
438;1.0410727;2.0731971;-2.564767;4.668179;-8.586163;0.81011677;-0.027191447;0.080178626;0.03640147;-0.12452881;0.12913391;0.060560454
439;1.0410727;2.0731971;-2.564767;4.668179;-8.586163;0.81011677;-0.027191447;0.080178626;0.03640147;-0.12452881;0.12913391;0.060560454
440;1.0583682;1.9750575;-2.5746884;4.659743;-8.594261;0.77191985;-0.05659943;0.08968142;0.008380685;0.010795088;0.31853342;0.18664455
441;1.0583682;1.9750575;-2.5746884;4.659743;-8.594261;0.77191985;-0.05659943;0.08968142;0.008380685;0.010795088;0.31853342;0.18664455
442;1.0583682;1.9750575;-2.5746884;4.659743;-8.594261;0.77191985;-0.05659943;0.08968142;0.008380685;0.010795088;0.31853342;0.18664455
443;1.0583682;1.9750575;-2.5746884;4.659743;-8.594261;0.77191985;-0.05659943;0.08968142;0.008380685;0.010795088;0.31853342;0.18664455
444;1.0583682;1.9750575;-2.5746884;4.659743;-8.594261;0.77191985;-0.05659943;0.08968142;0.008380685;0.010795088;0.31853342;0.18664455
445;1.0583682;1.9750575;-2.5746884;4.659743;-8.594261;0.77191985;-0.05659943;0.08968142;0.008380685;0.010795088;0.31853342;0.18664455
446;1.0764195;1.8715843;-2.581802;4.656367;-8.598065;0.74960405;-0.06475016;0.08847946;-0.0055487966;-0.19553322;-0.20797597;-0.11100472
447;1.0764195;1.8715843;-2.581802;4.656367;-8.598065;0.74960405;-0.06475016;0.08847946;-0.0055487966;-0.19553322;-0.20797597;-0.11100472
448;1.0764195;1.8715843;-2.581802;4.656367;-8.598065;0.74960405;-0.06475016;0.08847946;-0.0055487966;-0.19553322;-0.20797597;-0.11100472
449;1.0764195;1.8715843;-2.581802;4.656367;-8.598065;0.74960405;-0.06475016;0.08847946;-0.0055487966;-0.19553322;-0.20797597;-0.11100472
450;1.0764195;1.8715843;-2.581802;4.656367;-8.598065;0.74960405;-0.06475016;0.08847946;-0.0055487966;-0.19553322;-0.20797597;-0.11100472
451;1.0764195;1.8715843;-2.581802;4.656367;-8.598065;0.74960405;-0.06475016;0.08847946;-0.0055487966;-0.19553322;-0.20797597;-0.11100472
452;1.0954448;1.7681253;-2.586757;4.6711874;-8.592574;0.71976084;-0.057206262;0.08950469;-0.004660904;0.16132462;-0.0016171086;0.11213508
453;1.0954448;1.7681253;-2.586757;4.6711874;-8.592574;0.71976084;-0.057206262;0.08950469;-0.004660904;0.16132462;-0.0016171086;0.11213508
454;1.0954448;1.7681253;-2.586757;4.6711874;-8.592574;0.71976084;-0.057206262;0.08950469;-0.004660904;0.16132462;-0.0016171086;0.11213508
455;1.0954448;1.7681253;-2.586757;4.6711874;-8.592574;0.71976084;-0.057206262;0.08950469;-0.004660904;0.16132462;-0.0016171086;0.11213508
456;1.0954448;1.7681253;-2.586757;4.6711874;-8.592574;0.71976084;-0.057206262;0.08950469;-0.004660904;0.16132462;-0.0016171086;0.11213508
457;1.0954448;1.7681253;-2.586757;4.6711874;-8.592574;0.71976084;-0.057206262;0.08950469;-0.004660904;0.16132462;-0.0016171086;0.11213508
458;1.1130182;1.6764767;-2.589222;4.6870136;-8.584851;0.7089593;-0.044865195;0.1013028;-0.0008516956;0.019920466;0.039747745;0.1051125
459;1.1130182;1.6764767;-2.589222;4.6870136;-8.584851;0.7089593;-0.044865195;0.1013028;-0.0008516956;0.019920466;0.039747745;0.1051125
460;1.1130182;1.6764767;-2.589222;4.6870136;-8.584851;0.7089593;-0.044865195;0.1013028;-0.0008516956;0.019920466;0.039747745;0.1051125
461;1.1130182;1.6764767;-2.589222;4.6870136;-8.584851;0.7089593;-0.044865195;0.1013028;-0.0008516956;0.019920466;0.039747745;0.1051125
462;1.1130182;1.6764767;-2.589222;4.6870136;-8.584851;0.7089593;-0.044865195;0.1013028;-0.0008516956;0.019920466;0.039747745;0.1051125
463;1.1130182;1.6764767;-2.589222;4.6870136;-8.584851;0.7089593;-0.044865195;0.1013028;-0.0008516956;0.019920466;0.039747745;0.1051125
464;1.1279883;1.5990038;-2.5909426;4.6987677;-8.578749;0.7050155;-0.041816123;0.1253121;-0.004129659;-0.089195184;-0.13588727;-0.11196432
465;1.1279883;1.5990038;-2.5909426;4.6987677;-8.578749;0.7050155;-0.041816123;0.1253121;-0.004129659;-0.089195184;-0.13588727;-0.11196432
466;1.1279883;1.5990038;-2.5909426;4.6987677;-8.578749;0.7050155;-0.041816123;0.1253121;-0.004129659;-0.089195184;-0.13588727;-0.11196432
467;1.1279883;1.5990038;-2.5909426;4.6987677;-8.578749;0.7050155;-0.041816123;0.1253121;-0.004129659;-0.089195184;-0.13588727;-0.11196432
468;1.1279883;1.5990038;-2.5909426;4.6987677;-8.578749;0.7050155;-0.041816123;0.1253121;-0.004129659;-0.089195184;-0.13588727;-0.11196432
469;1.1279883;1.5990038;-2.5909426;4.6987677;-8.578749;0.7050155;-0.041816123;0.1253121;-0.004129659;-0.089195184;-0.13588727;-0.11196432
470;1.1397778;1.5352483;-2.5911493;4.691197;-8.579302;0.74742144;-0.054101832;0.15560904;-0.01338759;-0.25348517;0.008524235;0.36389062
471;1.1397778;1.5352483;-2.5911493;4.691197;-8.579302;0.74742144;-0.054101832;0.15560904;-0.01338759;-0.25348517;0.008524235;0.36389062
472;1.1397778;1.5352483;-2.5911493;4.691197;-8.579302;0.74742144;-0.054101832;0.15560904;-0.01338759;-0.25348517;0.008524235;0.36389062
473;1.1397778;1.5352483;-2.5911493;4.691197;-8.579302;0.74742144;-0.054101832;0.15560904;-0.01338759;-0.25348517;0.008524235;0.36389062
474;1.1397778;1.5352483;-2.5911493;4.691197;-8.579302;0.74742144;-0.054101832;0.15560904;-0.01338759;-0.25348517;0.008524235;0.36389062
475;1.1397778;1.5352483;-2.5911493;4.691197;-8.579302;0.74742144;-0.054101832;0.15560904;-0.01338759;-0.25348517;0.008524235;0.36389062
476;1.1397778;1.5352483;-2.5911493;4.691197;-8.579302;0.74742144;-0.054101832;0.15560904;-0.01338759;-0.25348517;0.008524235;0.36389062
477;1.1506317;1.4875228;-2.5880094;4.689459;-8.572875;0.8277571;-0.06947281;0.18281859;-0.01968588;0.14756751;0.12605096;0.17271683
478;1.1506317;1.4875228;-2.5880094;4.689459;-8.572875;0.8277571;-0.06947281;0.18281859;-0.01968588;0.14756751;0.12605096;0.17271683
479;1.1506317;1.4875228;-2.5880094;4.689459;-8.572875;0.8277571;-0.06947281;0.18281859;-0.01968588;0.14756751;0.12605096;0.17271683
480;1.1506317;1.4875228;-2.5880094;4.689459;-8.572875;0.8277571;-0.06947281;0.18281859;-0.01968588;0.14756751;0.12605096;0.17271683
481;1.1506317;1.4875228;-2.5880094;4.689459;-8.572875;0.8277571;-0.06947281;0.18281859;-0.01968588;0.14756751;0.12605096;0.17271683
482;1.1600522;1.4536213;-2.582525;4.6887026;-8.561433;0.9425027;-0.06896179;0.19860263;-0.013298162;0.31149676;-0.25127923;-0.41234186
483;1.1600522;1.4536213;-2.582525;4.6887026;-8.561433;0.9425027;-0.06896179;0.19860263;-0.013298162;0.31149676;-0.25127923;-0.41234186
484;1.1600522;1.4536213;-2.582525;4.6887026;-8.561433;0.9425027;-0.06896179;0.19860263;-0.013298162;0.31149676;-0.25127923;-0.41234186
485;1.1600522;1.4536213;-2.582525;4.6887026;-8.561433;0.9425027;-0.06896179;0.19860263;-0.013298162;0.31149676;-0.25127923;-0.41234186
486;1.1600522;1.4536213;-2.582525;4.6887026;-8.561433;0.9425027;-0.06896179;0.19860263;-0.013298162;0.31149676;-0.25127923;-0.41234186
487;1.1600522;1.4536213;-2.582525;4.6887026;-8.561433;0.9425027;-0.06896179;0.19860263;-0.013298162;0.31149676;-0.25127923;-0.41234186
488;1.1674292;1.4170599;-2.581038;4.67796;-8.559001;1.0151746;-0.04883729;0.1978244;0.003502598;0.38752374;0.13344097;0.48017868
489;1.1674292;1.4170599;-2.581038;4.67796;-8.559001;1.0151746;-0.04883729;0.1978244;0.003502598;0.38752374;0.13344097;0.48017868
490;1.1674292;1.4170599;-2.581038;4.67796;-8.559001;1.0151746;-0.04883729;0.1978244;0.003502598;0.38752374;0.13344097;0.48017868
491;1.1674292;1.4170599;-2.581038;4.67796;-8.559001;1.0151746;-0.04883729;0.1978244;0.003502598;0.38752374;0.13344097;0.48017868
492;1.1674292;1.4170599;-2.581038;4.67796;-8.559001;1.0151746;-0.04883729;0.1978244;0.003502598;0.38752374;0.13344097;0.48017868
493;1.1674292;1.4170599;-2.581038;4.67796;-8.559001;1.0151746;-0.04883729;0.1978244;0.003502598;0.38752374;0.13344097;0.48017868
494;1.1674292;1.4170599;-2.581038;4.67796;-8.559001;1.0151746;-0.04883729;0.1978244;0.003502598;0.38752374;0.13344097;0.48017868
495;1.1746889;1.3761064;-2.5821786;4.6679797;-8.560526;1.0477294;-0.028516898;0.17643194;0.015333714;0.1829628;0.094781674;-0.16135873
496;1.1746889;1.3761064;-2.5821786;4.6679797;-8.560526;1.0477294;-0.028516898;0.17643194;0.015333714;0.1829628;0.094781674;-0.16135873
497;1.1746889;1.3761064;-2.5821786;4.6679797;-8.560526;1.0477294;-0.028516898;0.17643194;0.015333714;0.1829628;0.094781674;-0.16135873
498;1.1746889;1.3761064;-2.5821786;4.6679797;-8.560526;1.0477294;-0.028516898;0.17643194;0.015333714;0.1829628;0.094781674;-0.16135873
499;1.1746889;1.3761064;-2.5821786;4.6679797;-8.560526;1.0477294;-0.028516898;0.17643194;0.015333714;0.1829628;0.094781674;-0.16135873
500;1.1746889;1.3761064;-2.5821786;4.6679797;-8.560526;1.0477294;-0.028516898;0.17643194;0.015333714;0.1829628;0.094781674;-0.16135873
501;1.1826229;1.3374949;-2.5819974;4.6620536;-8.557447;1.0980661;-0.023828313;0.13326907;0.011327552;-0.0036127826;-0.007960386;-0.17129532
502;1.1826229;1.3374949;-2.5819974;4.6620536;-8.557447;1.0980661;-0.023828313;0.13326907;0.011327552;-0.0036127826;-0.007960386;-0.17129532
503;1.1826229;1.3374949;-2.5819974;4.6620536;-8.557447;1.0980661;-0.023828313;0.13326907;0.011327552;-0.0036127826;-0.007960386;-0.17129532
504;1.1826229;1.3374949;-2.5819974;4.6620536;-8.557447;1.0980661;-0.023828313;0.13326907;0.011327552;-0.0036127826;-0.007960386;-0.17129532
505;1.1826229;1.3374949;-2.5819974;4.6620536;-8.557447;1.0980661;-0.023828313;0.13326907;0.011327552;-0.0036127826;-0.007960386;-0.17129532
506;1.1826229;1.3374949;-2.5819974;4.6620536;-8.557447;1.0980661;-0.023828313;0.13326907;0.011327552;-0.0036127826;-0.007960386;-0.17129532
507;1.1916975;1.2972299;-2.5825899;4.665387;-8.552644;1.121085;-0.02723616;0.0716095;-0.0019791275;-0.09162165;0.32191065;0.2709376
508;1.1916975;1.2972299;-2.5825899;4.665387;-8.552644;1.121085;-0.02723616;0.0716095;-0.0019791275;-0.09162165;0.32191065;0.2709376
509;1.1916975;1.2972299;-2.5825899;4.665387;-8.552644;1.121085;-0.02723616;0.0716095;-0.0019791275;-0.09162165;0.32191065;0.2709376
510;1.1916975;1.2972299;-2.5825899;4.665387;-8.552644;1.121085;-0.02723616;0.0716095;-0.0019791275;-0.09162165;0.32191065;0.2709376
511;1.1916975;1.2972299;-2.5825899;4.665387;-8.552644;1.121085;-0.02723616;0.0716095;-0.0019791275;-0.09162165;0.32191065;0.2709376
512;1.1916975;1.2972299;-2.5825899;4.665387;-8.552644;1.121085;-0.02723616;0.0716095;-0.0019791275;-0.09162165;0.32191065;0.2709376
513;1.1993107;1.2502711;-2.5860279;4.6465607;-8.560355;1.1402544;-0.021312617;-0.0007281997;-0.0052815774;0.17882696;0.22184889;0.051964555
514;1.1993107;1.2502711;-2.5860279;4.6465607;-8.560355;1.1402544;-0.021312617;-0.0007281997;-0.0052815774;0.17882696;0.22184889;0.051964555
515;1.1993107;1.2502711;-2.5860279;4.6465607;-8.560355;1.1402544;-0.021312617;-0.0007281997;-0.0052815774;0.17882696;0.22184889;0.051964555
516;1.1993107;1.2502711;-2.5860279;4.6465607;-8.560355;1.1402544;-0.021312617;-0.0007281997;-0.0052815774;0.17882696;0.22184889;0.051964555
517;1.1993107;1.2502711;-2.5860279;4.6465607;-8.560355;1.1402544;-0.021312617;-0.0007281997;-0.0052815774;0.17882696;0.22184889;0.051964555
518;1.1993107;1.2502711;-2.5860279;4.6465607;-8.560355;1.1402544;-0.021312617;-0.0007281997;-0.0052815774;0.17882696;0.22184889;0.051964555
519;1.2076102;1.207983;-2.5878887;4.6342683;-8.562093;1.1766486;0.0038187902;-0.072590016;0.011261545;0.14779893;-0.26938894;-0.283547
520;1.2076102;1.207983;-2.5878887;4.6342683;-8.562093;1.1766486;0.0038187902;-0.072590016;0.011261545;0.14779893;-0.26938894;-0.283547
521;1.2076102;1.207983;-2.5878887;4.6342683;-8.562093;1.1766486;0.0038187902;-0.072590016;0.011261545;0.14779893;-0.26938894;-0.283547
522;1.2076102;1.207983;-2.5878887;4.6342683;-8.562093;1.1766486;0.0038187902;-0.072590016;0.011261545;0.14779893;-0.26938894;-0.283547
523;1.2076102;1.207983;-2.5878887;4.6342683;-8.562093;1.1766486;0.0038187902;-0.072590016;0.011261545;0.14779893;-0.26938894;-0.283547
524;1.2076102;1.207983;-2.5878887;4.6342683;-8.562093;1.1766486;0.0038187902;-0.072590016;0.011261545;0.14779893;-0.26938894;-0.283547
525;1.21719;1.1694837;-2.5886996;4.634514;-8.5573;1.2100768;0.04411144;-0.13499907;0.036085278;0.4187273;-0.037055846;0.23092575
526;1.21719;1.1694837;-2.5886996;4.634514;-8.5573;1.2100768;0.04411144;-0.13499907;0.036085278;0.4187273;-0.037055846;0.23092575
527;1.21719;1.1694837;-2.5886996;4.634514;-8.5573;1.2100768;0.04411144;-0.13499907;0.036085278;0.4187273;-0.037055846;0.23092575
528;1.21719;1.1694837;-2.5886996;4.634514;-8.5573;1.2100768;0.04411144;-0.13499907;0.036085278;0.4187273;-0.037055846;0.23092575
529;1.21719;1.1694837;-2.5886996;4.634514;-8.5573;1.2100768;0.04411144;-0.13499907;0.036085278;0.4187273;-0.037055846;0.23092575
530;1.21719;1.1694837;-2.5886996;4.634514;-8.5573;1.2100768;0.04411144;-0.13499907;0.036085278;0.4187273;-0.037055846;0.23092575
531;1.2264643;1.1307155;-2.59024;4.628873;-8.555378;1.2447609;0.08583601;-0.18678217;0.04797814;0.32394627;-0.33810347;-0.0856644
532;1.2264643;1.1307155;-2.59024;4.628873;-8.555378;1.2447609;0.08583601;-0.18678217;0.04797814;0.32394627;-0.33810347;-0.0856644
533;1.2264643;1.1307155;-2.59024;4.628873;-8.555378;1.2447609;0.08583601;-0.18678217;0.04797814;0.32394627;-0.33810347;-0.0856644
534;1.2264643;1.1307155;-2.59024;4.628873;-8.555378;1.2447609;0.08583601;-0.18678217;0.04797814;0.32394627;-0.33810347;-0.0856644
535;1.2264643;1.1307155;-2.59024;4.628873;-8.555378;1.2447609;0.08583601;-0.18678217;0.04797814;0.32394627;-0.33810347;-0.0856644
536;1.2264643;1.1307155;-2.59024;4.628873;-8.555378;1.2447609;0.08583601;-0.18678217;0.04797814;0.32394627;-0.33810347;-0.0856644
537;1.2347991;1.091111;-2.5931277;4.612421;-8.559437;1.2774985;0.113806754;-0.23410663;0.03829543;-0.053578656;0.043034025;-0.029944984
538;1.2347991;1.091111;-2.5931277;4.612421;-8.559437;1.2774985;0.113806754;-0.23410663;0.03829543;-0.053578656;0.043034025;-0.029944984
539;1.2347991;1.091111;-2.5931277;4.612421;-8.559437;1.2774985;0.113806754;-0.23410663;0.03829543;-0.053578656;0.043034025;-0.029944984
540;1.2347991;1.091111;-2.5931277;4.612421;-8.559437;1.2774985;0.113806754;-0.23410663;0.03829543;-0.053578656;0.043034025;-0.029944984
541;1.2347991;1.091111;-2.5931277;4.612421;-8.559437;1.2774985;0.113806754;-0.23410663;0.03829543;-0.053578656;0.043034025;-0.029944984
542;1.2347991;1.091111;-2.5931277;4.612421;-8.559437;1.2774985;0.113806754;-0.23410663;0.03829543;-0.053578656;0.043034025;-0.029944984
543;1.2431104;1.0587766;-2.5941827;4.6022034;-8.556191;1.3348045;0.12451363;-0.280836;0.019916901;-0.37823996;0.14747468;0.3384239
544;1.2431104;1.0587766;-2.5941827;4.6022034;-8.556191;1.3348045;0.12451363;-0.280836;0.019916901;-0.37823996;0.14747468;0.3384239
545;1.2431104;1.0587766;-2.5941827;4.6022034;-8.556191;1.3348045;0.12451363;-0.280836;0.019916901;-0.37823996;0.14747468;0.3384239
546;1.2431104;1.0587766;-2.5941827;4.6022034;-8.556191;1.3348045;0.12451363;-0.280836;0.019916901;-0.37823996;0.14747468;0.3384239
547;1.2431104;1.0587766;-2.5941827;4.6022034;-8.556191;1.3348045;0.12451363;-0.280836;0.019916901;-0.37823996;0.14747468;0.3384239
548;1.2431104;1.0587766;-2.5941827;4.6022034;-8.556191;1.3348045;0.12451363;-0.280836;0.019916901;-0.37823996;0.14747468;0.3384239
549;1.2521958;1.0300939;-2.595195;4.6034203;-8.550416;1.367223;0.13119413;-0.32036743;0.010369394;-0.1374756;0.5144243;0.23406802
550;1.2521958;1.0300939;-2.595195;4.6034203;-8.550416;1.367223;0.13119413;-0.32036743;0.010369394;-0.1374756;0.5144243;0.23406802
551;1.2521958;1.0300939;-2.595195;4.6034203;-8.550416;1.367223;0.13119413;-0.32036743;0.010369394;-0.1374756;0.5144243;0.23406802
552;1.2521958;1.0300939;-2.595195;4.6034203;-8.550416;1.367223;0.13119413;-0.32036743;0.010369394;-0.1374756;0.5144243;0.23406802
553;1.2521958;1.0300939;-2.595195;4.6034203;-8.550416;1.367223;0.13119413;-0.32036743;0.010369394;-0.1374756;0.5144243;0.23406802
554;1.2521958;1.0300939;-2.595195;4.6034203;-8.550416;1.367223;0.13119413;-0.32036743;0.010369394;-0.1374756;0.5144243;0.23406802
555;1.2598581;0.9948086;-2.599455;4.5816493;-8.559192;1.3853227;0.14907335;-0.34052387;0.0133418115;0.2312719;-0.17197157;-0.2144272
556;1.2598581;0.9948086;-2.599455;4.5816493;-8.559192;1.3853227;0.14907335;-0.34052387;0.0133418115;0.2312719;-0.17197157;-0.2144272
557;1.2598581;0.9948086;-2.599455;4.5816493;-8.559192;1.3853227;0.14907335;-0.34052387;0.0133418115;0.2312719;-0.17197157;-0.2144272
558;1.2598581;0.9948086;-2.599455;4.5816493;-8.559192;1.3853227;0.14907335;-0.34052387;0.0133418115;0.2312719;-0.17197157;-0.2144272
559;1.2598581;0.9948086;-2.599455;4.5816493;-8.559192;1.3853227;0.14907335;-0.34052387;0.0133418115;0.2312719;-0.17197157;-0.2144272
560;1.2598581;0.9948086;-2.599455;4.5816493;-8.559192;1.3853227;0.14907335;-0.34052387;0.0133418115;0.2312719;-0.17197157;-0.2144272
561;1.2670357;0.9632868;-2.6026032;4.5572796;-8.563528;1.4379094;0.17558768;-0.33629093;0.022832895;-0.40429637;-0.09339392;-0.008396903
562;1.2670357;0.9632868;-2.6026032;4.5572796;-8.563528;1.4379094;0.17558768;-0.33629093;0.022832895;-0.40429637;-0.09339392;-0.008396903
563;1.2670357;0.9632868;-2.6026032;4.5572796;-8.563528;1.4379094;0.17558768;-0.33629093;0.022832895;-0.40429637;-0.09339392;-0.008396903
564;1.2670357;0.9632868;-2.6026032;4.5572796;-8.563528;1.4379094;0.17558768;-0.33629093;0.022832895;-0.40429637;-0.09339392;-0.008396903
565;1.2670357;0.9632868;-2.6026032;4.5572796;-8.563528;1.4379094;0.17558768;-0.33629093;0.022832895;-0.40429637;-0.09339392;-0.008396903
566;1.2670357;0.9632868;-2.6026032;4.5572796;-8.563528;1.4379094;0.17558768;-0.33629093;0.022832895;-0.40429637;-0.09339392;-0.008396903
567;1.275111;0.936064;-2.6045988;4.5430145;-8.560971;1.4970554;0.19076811;-0.318087;0.029821057;-0.36621326;0.5950188;0.21981297
568;1.275111;0.936064;-2.6045988;4.5430145;-8.560971;1.4970554;0.19076811;-0.318087;0.029821057;-0.36621326;0.5950188;0.21981297
569;1.275111;0.936064;-2.6045988;4.5430145;-8.560971;1.4970554;0.19076811;-0.318087;0.029821057;-0.36621326;0.5950188;0.21981297
570;1.275111;0.936064;-2.6045988;4.5430145;-8.560971;1.4970554;0.19076811;-0.318087;0.029821057;-0.36621326;0.5950188;0.21981297
571;1.275111;0.936064;-2.6045988;4.5430145;-8.560971;1.4970554;0.19076811;-0.318087;0.029821057;-0.36621326;0.5950188;0.21981297
572;1.275111;0.936064;-2.6045988;4.5430145;-8.560971;1.4970554;0.19076811;-0.318087;0.029821057;-0.36621326;0.5950188;0.21981297
573;1.2858838;0.9125149;-2.606159;4.5513253;-8.554003;1.5115767;0.18011339;-0.304017;0.02762794;-0.06322341;0.15280329;-0.04598693
574;1.2858838;0.9125149;-2.606159;4.5513253;-8.554003;1.5115767;0.18011339;-0.304017;0.02762794;-0.06322341;0.15280329;-0.04598693
575;1.2858838;0.9125149;-2.606159;4.5513253;-8.554003;1.5115767;0.18011339;-0.304017;0.02762794;-0.06322341;0.15280329;-0.04598693
576;1.2858838;0.9125149;-2.606159;4.5513253;-8.554003;1.5115767;0.18011339;-0.304017;0.02762794;-0.06322341;0.15280329;-0.04598693
577;1.2858838;0.9125149;-2.606159;4.5513253;-8.554003;1.5115767;0.18011339;-0.304017;0.02762794;-0.06322341;0.15280329;-0.04598693
578;1.2858838;0.9125149;-2.606159;4.5513253;-8.554003;1.5115767;0.18011339;-0.304017;0.02762794;-0.06322341;0.15280329;-0.04598693
579;1.2980206;0.8849223;-2.6096916;4.5546794;-8.554995;1.4957743;0.14953752;-0.30349746;0.018173054;-0.22737592;0.06382001;-0.029004045
580;1.2980206;0.8849223;-2.6096916;4.5546794;-8.554995;1.4957743;0.14953752;-0.30349746;0.018173054;-0.22737592;0.06382001;-0.029004045
581;1.2980206;0.8849223;-2.6096916;4.5546794;-8.554995;1.4957743;0.14953752;-0.30349746;0.018173054;-0.22737592;0.06382001;-0.029004045
582;1.2980206;0.8849223;-2.6096916;4.5546794;-8.554995;1.4957743;0.14953752;-0.30349746;0.018173054;-0.22737592;0.06382001;-0.029004045
583;1.2980206;0.8849223;-2.6096916;4.5546794;-8.554995;1.4957743;0.14953752;-0.30349746;0.018173054;-0.22737592;0.06382001;-0.029004045
584;1.2980206;0.8849223;-2.6096916;4.5546794;-8.554995;1.4957743;0.14953752;-0.30349746;0.018173054;-0.22737592;0.06382001;-0.029004045
585;1.3137659;0.8619002;-2.6113892;4.578865;-8.544921;1.4794276;0.12386635;-0.3079859;0.012072785;0.13580582;-0.41424567;0.73152846
586;1.3137659;0.8619002;-2.6113892;4.578865;-8.544921;1.4794276;0.12386635;-0.3079859;0.012072785;0.13580582;-0.41424567;0.73152846
587;1.3137659;0.8619002;-2.6113892;4.578865;-8.544921;1.4794276;0.12386635;-0.3079859;0.012072785;0.13580582;-0.41424567;0.73152846
588;1.3137659;0.8619002;-2.6113892;4.578865;-8.544921;1.4794276;0.12386635;-0.3079859;0.012072785;0.13580582;-0.41424567;0.73152846
589;1.3137659;0.8619002;-2.6113892;4.578865;-8.544921;1.4794276;0.12386635;-0.3079859;0.012072785;0.13580582;-0.41424567;0.73152846
590;1.3137659;0.8619002;-2.6113892;4.578865;-8.544921;1.4794276;0.12386635;-0.3079859;0.012072785;0.13580582;-0.41424567;0.73152846
591;1.333514;0.8377457;-2.613428;4.6088305;-8.533413;1.4525644;0.12457112;-0.30433637;0.020275678;0.09590636;-0.15730734;-0.084889695
592;1.333514;0.8377457;-2.613428;4.6088305;-8.533413;1.4525644;0.12457112;-0.30433637;0.020275678;0.09590636;-0.15730734;-0.084889695
593;1.333514;0.8377457;-2.613428;4.6088305;-8.533413;1.4525644;0.12457112;-0.30433637;0.020275678;0.09590636;-0.15730734;-0.084889695
594;1.333514;0.8377457;-2.613428;4.6088305;-8.533413;1.4525644;0.12457112;-0.30433637;0.020275678;0.09590636;-0.15730734;-0.084889695
595;1.333514;0.8377457;-2.613428;4.6088305;-8.533413;1.4525644;0.12457112;-0.30433637;0.020275678;0.09590636;-0.15730734;-0.084889695
596;1.333514;0.8377457;-2.613428;4.6088305;-8.533413;1.4525644;0.12457112;-0.30433637;0.020275678;0.09590636;-0.15730734;-0.084889695
597;1.3589656;0.8165016;-2.614517;4.654652;-8.51334;1.4239548;0.14942573;-0.29451102;0.03873618;-0.36801237;-0.20220153;0.04797108
598;1.3589656;0.8165016;-2.614517;4.654652;-8.51334;1.4239548;0.14942573;-0.29451102;0.03873618;-0.36801237;-0.20220153;0.04797108
599;1.3589656;0.8165016;-2.614517;4.654652;-8.51334;1.4239548;0.14942573;-0.29451102;0.03873618;-0.36801237;-0.20220153;0.04797108
600;1.3589656;0.8165016;-2.614517;4.654652;-8.51334;1.4239548;0.14942573;-0.29451102;0.03873618;-0.36801237;-0.20220153;0.04797108
601;1.3589656;0.8165016;-2.614517;4.654652;-8.51334;1.4239548;0.14942573;-0.29451102;0.03873618;-0.36801237;-0.20220153;0.04797108
602;1.3589656;0.8165016;-2.614517;4.654652;-8.51334;1.4239548;0.14942573;-0.29451102;0.03873618;-0.36801237;-0.20220153;0.04797108
603;1.389857;0.79530126;-2.6164207;4.697881;-8.492313;1.4074572;0.17907432;-0.2925404;0.05149671;-0.37580857;0.8084655;-0.04897268
604;1.389857;0.79530126;-2.6164207;4.697881;-8.492313;1.4074572;0.17907432;-0.2925404;0.05149671;-0.37580857;0.8084655;-0.04897268
605;1.389857;0.79530126;-2.6164207;4.697881;-8.492313;1.4074572;0.17907432;-0.2925404;0.05149671;-0.37580857;0.8084655;-0.04897268
606;1.389857;0.79530126;-2.6164207;4.697881;-8.492313;1.4074572;0.17907432;-0.2925404;0.05149671;-0.37580857;0.8084655;-0.04897268
607;1.389857;0.79530126;-2.6164207;4.697881;-8.492313;1.4074572;0.17907432;-0.2925404;0.05149671;-0.37580857;0.8084655;-0.04897268
608;1.389857;0.79530126;-2.6164207;4.697881;-8.492313;1.4074572;0.17907432;-0.2925404;0.05149671;-0.37580857;0.8084655;-0.04897268
609;1.4249493;0.770111;-2.6218097;4.712004;-8.481744;1.4238734;0.1938949;-0.30879608;0.048688244;-0.016093083;0.015489089;-0.013727271
610;1.4249493;0.770111;-2.6218097;4.712004;-8.481744;1.4238734;0.1938949;-0.30879608;0.048688244;-0.016093083;0.015489089;-0.013727271
611;1.4249493;0.770111;-2.6218097;4.712004;-8.481744;1.4238734;0.1938949;-0.30879608;0.048688244;-0.016093083;0.015489089;-0.013727271
612;1.4249493;0.770111;-2.6218097;4.712004;-8.481744;1.4238734;0.1938949;-0.30879608;0.048688244;-0.016093083;0.015489089;-0.013727271
613;1.4249493;0.770111;-2.6218097;4.712004;-8.481744;1.4238734;0.1938949;-0.30879608;0.048688244;-0.016093083;0.015489089;-0.013727271
614;1.4249493;0.770111;-2.6218097;4.712004;-8.481744;1.4238734;0.1938949;-0.30879608;0.048688244;-0.016093083;0.015489089;-0.013727271
615;1.469339;0.7635232;-2.6233625;4.769256;-8.4458275;1.4465744;0.18952782;-0.33586296;0.036202386;0.033185143;0.10663994;0.037769098
616;1.469339;0.7635232;-2.6233625;4.769256;-8.4458275;1.4465744;0.18952782;-0.33586296;0.036202386;0.033185143;0.10663994;0.037769098
617;1.469339;0.7635232;-2.6233625;4.769256;-8.4458275;1.4465744;0.18952782;-0.33586296;0.036202386;0.033185143;0.10663994;0.037769098
618;1.469339;0.7635232;-2.6233625;4.769256;-8.4458275;1.4465744;0.18952782;-0.33586296;0.036202386;0.033185143;0.10663994;0.037769098
619;1.469339;0.7635232;-2.6233625;4.769256;-8.4458275;1.4465744;0.18952782;-0.33586296;0.036202386;0.033185143;0.10663994;0.037769098
620;1.469339;0.7635232;-2.6233625;4.769256;-8.4458275;1.4465744;0.18952782;-0.33586296;0.036202386;0.033185143;0.10663994;0.037769098
621;1.469339;0.7635232;-2.6233625;4.769256;-8.4458275;1.4465744;0.18952782;-0.33586296;0.036202386;0.033185143;0.10663994;0.037769098
622;1.5233045;0.7571281;-2.6293676;4.7976604;-8.428231;1.4552591;0.1745944;-0.35687643;0.027993105;-0.07862626;0.17488496;-0.013153511
623;1.5233045;0.7571281;-2.6293676;4.7976604;-8.428231;1.4552591;0.1745944;-0.35687643;0.027993105;-0.07862626;0.17488496;-0.013153511
624;1.5233045;0.7571281;-2.6293676;4.7976604;-8.428231;1.4552591;0.1745944;-0.35687643;0.027993105;-0.07862626;0.17488496;-0.013153511
625;1.5233045;0.7571281;-2.6293676;4.7976604;-8.428231;1.4552591;0.1745944;-0.35687643;0.027993105;-0.07862626;0.17488496;-0.013153511
626;1.5233045;0.7571281;-2.6293676;4.7976604;-8.428231;1.4552591;0.1745944;-0.35687643;0.027993105;-0.07862626;0.17488496;-0.013153511
627;1.5233045;0.7571281;-2.6293676;4.7976604;-8.428231;1.4552591;0.1745944;-0.35687643;0.027993105;-0.07862626;0.17488496;-0.013153511
628;1.5928072;0.7571109;-2.6384354;4.8072557;-8.425754;1.4378331;0.1607586;-0.36443627;0.032376144;0.32016492;-0.019208359;0.11888984
629;1.5928072;0.7571109;-2.6384354;4.8072557;-8.425754;1.4378331;0.1607586;-0.36443627;0.032376144;0.32016492;-0.019208359;0.11888984
630;1.5928072;0.7571109;-2.6384354;4.8072557;-8.425754;1.4378331;0.1607586;-0.36443627;0.032376144;0.32016492;-0.019208359;0.11888984
631;1.5928072;0.7571109;-2.6384354;4.8072557;-8.425754;1.4378331;0.1607586;-0.36443627;0.032376144;0.32016492;-0.019208359;0.11888984
632;1.5928072;0.7571109;-2.6384354;4.8072557;-8.425754;1.4378331;0.1607586;-0.36443627;0.032376144;0.32016492;-0.019208359;0.11888984
633;1.5928072;0.7571109;-2.6384354;4.8072557;-8.425754;1.4378331;0.1607586;-0.36443627;0.032376144;0.32016492;-0.019208359;0.11888984
634;1.6840149;0.7615629;-2.6524956;4.780153;-8.442012;1.4328082;0.15628934;-0.36177367;0.050883487;0.24760179;-0.049007434;0.056706388
635;1.6840149;0.7615629;-2.6524956;4.780153;-8.442012;1.4328082;0.15628934;-0.36177367;0.050883487;0.24760179;-0.049007434;0.056706388
636;1.6840149;0.7615629;-2.6524956;4.780153;-8.442012;1.4328082;0.15628934;-0.36177367;0.050883487;0.24760179;-0.049007434;0.056706388
637;1.6840149;0.7615629;-2.6524956;4.780153;-8.442012;1.4328082;0.15628934;-0.36177367;0.050883487;0.24760179;-0.049007434;0.056706388
638;1.6840149;0.7615629;-2.6524956;4.780153;-8.442012;1.4328082;0.15628934;-0.36177367;0.050883487;0.24760179;-0.049007434;0.056706388
639;1.6840149;0.7615629;-2.6524956;4.780153;-8.442012;1.4328082;0.15628934;-0.36177367;0.050883487;0.24760179;-0.049007434;0.056706388
640;1.8116987;0.7812883;-2.669308;4.739717;-8.464042;1.4371756;0.16334137;-0.35403708;0.07971019;0.34940067;-0.19060344;0.12279669
641;1.8116987;0.7812883;-2.669308;4.739717;-8.464042;1.4371756;0.16334137;-0.35403708;0.07971019;0.34940067;-0.19060344;0.12279669
642;1.8116987;0.7812883;-2.669308;4.739717;-8.464042;1.4371756;0.16334137;-0.35403708;0.07971019;0.34940067;-0.19060344;0.12279669
643;1.8116987;0.7812883;-2.669308;4.739717;-8.464042;1.4371756;0.16334137;-0.35403708;0.07971019;0.34940067;-0.19060344;0.12279669
644;1.8116987;0.7812883;-2.669308;4.739717;-8.464042;1.4371756;0.16334137;-0.35403708;0.07971019;0.34940067;-0.19060344;0.12279669
645;1.8116987;0.7812883;-2.669308;4.739717;-8.464042;1.4371756;0.16334137;-0.35403708;0.07971019;0.34940067;-0.19060344;0.12279669
646;1.99864;0.8237594;-2.6886585;4.6908107;-8.489442;1.4477776;0.17835145;-0.34416807;0.109238476;0.19065937;-0.07920891;0.13973205
647;1.99864;0.8237594;-2.6886585;4.6908107;-8.489442;1.4477776;0.17835145;-0.34416807;0.109238476;0.19065937;-0.07920891;0.13973205
648;1.99864;0.8237594;-2.6886585;4.6908107;-8.489442;1.4477776;0.17835145;-0.34416807;0.109238476;0.19065937;-0.07920891;0.13973205
649;1.99864;0.8237594;-2.6886585;4.6908107;-8.489442;1.4477776;0.17835145;-0.34416807;0.109238476;0.19065937;-0.07920891;0.13973205
650;1.99864;0.8237594;-2.6886585;4.6908107;-8.489442;1.4477776;0.17835145;-0.34416807;0.109238476;0.19065937;-0.07920891;0.13973205
651;1.99864;0.8237594;-2.6886585;4.6908107;-8.489442;1.4477776;0.17835145;-0.34416807;0.109238476;0.19065937;-0.07920891;0.13973205
652;2.2734556;0.8982573;-2.7102764;4.6322813;-8.521897;1.4455516;0.1927121;-0.3362494;0.12796514;0.14759637;-0.010123614;0.03294347
653;2.2734556;0.8982573;-2.7102764;4.6322813;-8.521897;1.4455516;0.1927121;-0.3362494;0.12796514;0.14759637;-0.010123614;0.03294347
654;2.2734556;0.8982573;-2.7102764;4.6322813;-8.521897;1.4455516;0.1927121;-0.3362494;0.12796514;0.14759637;-0.010123614;0.03294347
655;2.2734556;0.8982573;-2.7102764;4.6322813;-8.521897;1.4455516;0.1927121;-0.3362494;0.12796514;0.14759637;-0.010123614;0.03294347
656;2.2734556;0.8982573;-2.7102764;4.6322813;-8.521897;1.4455516;0.1927121;-0.3362494;0.12796514;0.14759637;-0.010123614;0.03294347
657;2.2734556;0.8982573;-2.7102764;4.6322813;-8.521897;1.4455516;0.1927121;-0.3362494;0.12796514;0.14759637;-0.010123614;0.03294347
658;2.6299183;1.0221574;-2.7322423;4.580971;-8.551083;1.4366907;0.19734532;-0.33430222;0.1297324;0.06426768;-0.024694063;0.12612687
659;2.6299183;1.0221574;-2.7322423;4.580971;-8.551083;1.4366907;0.19734532;-0.33430222;0.1297324;0.06426768;-0.024694063;0.12612687
660;2.6299183;1.0221574;-2.7322423;4.580971;-8.551083;1.4366907;0.19734532;-0.33430222;0.1297324;0.06426768;-0.024694063;0.12612687
661;2.6299183;1.0221574;-2.7322423;4.580971;-8.551083;1.4366907;0.19734532;-0.33430222;0.1297324;0.06426768;-0.024694063;0.12612687
662;2.6299183;1.0221574;-2.7322423;4.580971;-8.551083;1.4366907;0.19734532;-0.33430222;0.1297324;0.06426768;-0.024694063;0.12612687
663;2.6299183;1.0221574;-2.7322423;4.580971;-8.551083;1.4366907;0.19734532;-0.33430222;0.1297324;0.06426768;-0.024694063;0.12612687
664;2.9908273;1.2097983;-2.7533145;4.5304117;-8.585378;1.391775;0.18635951;-0.33567452;0.118292;0.12061624;0.09763705;0.13532192
665;2.9908273;1.2097983;-2.7533145;4.5304117;-8.585378;1.391775;0.18635951;-0.33567452;0.118292;0.12061624;0.09763705;0.13532192
666;2.9908273;1.2097983;-2.7533145;4.5304117;-8.585378;1.391775;0.18635951;-0.33567452;0.118292;0.12061624;0.09763705;0.13532192
667;2.9908273;1.2097983;-2.7533145;4.5304117;-8.585378;1.391775;0.18635951;-0.33567452;0.118292;0.12061624;0.09763705;0.13532192
668;2.9908273;1.2097983;-2.7533145;4.5304117;-8.585378;1.391775;0.18635951;-0.33567452;0.118292;0.12061624;0.09763705;0.13532192
669;2.9908273;1.2097983;-2.7533145;4.5304117;-8.585378;1.391775;0.18635951;-0.33567452;0.118292;0.12061624;0.09763705;0.13532192
670;-3.0129445;1.4600005;-2.7739627;4.4914656;-8.612144;1.3520732;0.16055101;-0.33304277;0.09935242;-0.0688372;0.12824608;0.009588655
671;-3.0129445;1.4600005;-2.7739627;4.4914656;-8.612144;1.3520732;0.16055101;-0.33304277;0.09935242;-0.0688372;0.12824608;0.009588655
672;-3.0129445;1.4600005;-2.7739627;4.4914656;-8.612144;1.3520732;0.16055101;-0.33304277;0.09935242;-0.0688372;0.12824608;0.009588655
673;-3.0129445;1.4600005;-2.7739627;4.4914656;-8.612144;1.3520732;0.16055101;-0.33304277;0.09935242;-0.0688372;0.12824608;0.009588655
674;-3.0129445;1.4600005;-2.7739627;4.4914656;-8.612144;1.3520732;0.16055101;-0.33304277;0.09935242;-0.0688372;0.12824608;0.009588655
675;-3.0129445;1.4600005;-2.7739627;4.4914656;-8.612144;1.3520732;0.16055101;-0.33304277;0.09935242;-0.0688372;0.12824608;0.009588655
676;-2.8226519;1.741076;-2.7939496;4.460735;-8.63506;1.3068863;0.12857942;-0.32047495;0.07610326;0.020283805;0.049934637;0.049230494
677;-2.8226519;1.741076;-2.7939496;4.460735;-8.63506;1.3068863;0.12857942;-0.32047495;0.07610326;0.020283805;0.049934637;0.049230494
678;-2.8226519;1.741076;-2.7939496;4.460735;-8.63506;1.3068863;0.12857942;-0.32047495;0.07610326;0.020283805;0.049934637;0.049230494
679;-2.8226519;1.741076;-2.7939496;4.460735;-8.63506;1.3068863;0.12857942;-0.32047495;0.07610326;0.020283805;0.049934637;0.049230494
680;-2.8226519;1.741076;-2.7939496;4.460735;-8.63506;1.3068863;0.12857942;-0.32047495;0.07610326;0.020283805;0.049934637;0.049230494
681;-2.8226519;1.741076;-2.7939496;4.460735;-8.63506;1.3068863;0.12857942;-0.32047495;0.07610326;0.020283805;0.049934637;0.049230494
682;-2.6971924;1.9982686;-2.8132148;4.436122;-8.655344;1.2554829;0.10135603;-0.29708526;0.05215358;0.025096556;0.038349256;0.0388649
683;-2.6971924;1.9982686;-2.8132148;4.436122;-8.655344;1.2554829;0.10135603;-0.29708526;0.05215358;0.025096556;0.038349256;0.0388649
684;-2.6971924;1.9982686;-2.8132148;4.436122;-8.655344;1.2554829;0.10135603;-0.29708526;0.05215358;0.025096556;0.038349256;0.0388649
685;-2.6971924;1.9982686;-2.8132148;4.436122;-8.655344;1.2554829;0.10135603;-0.29708526;0.05215358;0.025096556;0.038349256;0.0388649
686;-2.6971924;1.9982686;-2.8132148;4.436122;-8.655344;1.2554829;0.10135603;-0.29708526;0.05215358;0.025096556;0.038349256;0.0388649
687;-2.6971924;1.9982686;-2.8132148;4.436122;-8.655344;1.2554829;0.10135603;-0.29708526;0.05215358;0.025096556;0.038349256;0.0388649
688;-2.6133912;2.1951919;-2.835727;4.4050055;-8.676012;1.2219344;0.08434022;-0.2661304;0.032415535;0.019484071;0.025167145;0.049937148
689;-2.6133912;2.1951919;-2.835727;4.4050055;-8.676012;1.2219344;0.08434022;-0.2661304;0.032415535;0.019484071;0.025167145;0.049937148
690;-2.6133912;2.1951919;-2.835727;4.4050055;-8.676012;1.2219344;0.08434022;-0.2661304;0.032415535;0.019484071;0.025167145;0.049937148
691;-2.6133912;2.1951919;-2.835727;4.4050055;-8.676012;1.2219344;0.08434022;-0.2661304;0.032415535;0.019484071;0.025167145;0.049937148
692;-2.6133912;2.1951919;-2.835727;4.4050055;-8.676012;1.2219344;0.08434022;-0.2661304;0.032415535;0.019484071;0.025167145;0.049937148
693;-2.6133912;2.1951919;-2.835727;4.4050055;-8.676012;1.2219344;0.08434022;-0.2661304;0.032415535;0.019484071;0.025167145;0.049937148
694;-2.5552976;2.3394969;-2.859095;4.3814945;-8.692292;1.1903552;0.07474906;-0.2320732;0.020278871;0.014158757;0.044889424;0.04876571
695;-2.5552976;2.3394969;-2.859095;4.3814945;-8.692292;1.1903552;0.07474906;-0.2320732;0.020278871;0.014158757;0.044889424;0.04876571
696;-2.5552976;2.3394969;-2.859095;4.3814945;-8.692292;1.1903552;0.07474906;-0.2320732;0.020278871;0.014158757;0.044889424;0.04876571
697;-2.5552976;2.3394969;-2.859095;4.3814945;-8.692292;1.1903552;0.07474906;-0.2320732;0.020278871;0.014158757;0.044889424;0.04876571
698;-2.5552976;2.3394969;-2.859095;4.3814945;-8.692292;1.1903552;0.07474906;-0.2320732;0.020278871;0.014158757;0.044889424;0.04876571
699;-2.5552976;2.3394969;-2.859095;4.3814945;-8.692292;1.1903552;0.07474906;-0.2320732;0.020278871;0.014158757;0.044889424;0.04876571
700;-2.5552976;2.3394969;-2.859095;4.3814945;-8.692292;1.1903552;0.07474906;-0.2320732;0.020278871;0.014158757;0.044889424;0.04876571
701;-2.5143137;2.4415777;-2.8888497;4.3509555;-8.708689;1.1824976;0.06761718;-0.19972154;0.013998682;0.006164566;0.025540115;0.036355793
702;-2.5143137;2.4415777;-2.8888497;4.3509555;-8.708689;1.1824976;0.06761718;-0.19972154;0.013998682;0.006164566;0.025540115;0.036355793
703;-2.5143137;2.4415777;-2.8888497;4.3509555;-8.708689;1.1824976;0.06761718;-0.19972154;0.013998682;0.006164566;0.025540115;0.036355793
704;-2.5143137;2.4415777;-2.8888497;4.3509555;-8.708689;1.1824976;0.06761718;-0.19972154;0.013998682;0.006164566;0.025540115;0.036355793
705;-2.5143137;2.4415777;-2.8888497;4.3509555;-8.708689;1.1824976;0.06761718;-0.19972154;0.013998682;0.006164566;0.025540115;0.036355793
706;-2.5143137;2.4415777;-2.8888497;4.3509555;-8.708689;1.1824976;0.06761718;-0.19972154;0.013998682;0.006164566;0.025540115;0.036355793
707;-2.4855762;2.5162098;-2.9239373;4.3159933;-8.72609;1.182346;0.060868554;-0.17211384;0.01008514;-0.008625989;0.04016808;0.04043929
708;-2.4855762;2.5162098;-2.9239373;4.3159933;-8.72609;1.182346;0.060868554;-0.17211384;0.01008514;-0.008625989;0.04016808;0.04043929
709;-2.4855762;2.5162098;-2.9239373;4.3159933;-8.72609;1.182346;0.060868554;-0.17211384;0.01008514;-0.008625989;0.04016808;0.04043929
710;-2.4855762;2.5162098;-2.9239373;4.3159933;-8.72609;1.182346;0.060868554;-0.17211384;0.01008514;-0.008625989;0.04016808;0.04043929
711;-2.4855762;2.5162098;-2.9239373;4.3159933;-8.72609;1.182346;0.060868554;-0.17211384;0.01008514;-0.008625989;0.04016808;0.04043929
712;-2.4855762;2.5162098;-2.9239373;4.3159933;-8.72609;1.182346;0.060868554;-0.17211384;0.01008514;-0.008625989;0.04016808;0.04043929
713;-2.4654546;2.5721123;-2.9633486;4.282202;-8.742954;1.1806302;0.053964496;-0.14976108;0.006759269;-0.010606248;0.038528837;0.03920836
714;-2.4654546;2.5721123;-2.9633486;4.282202;-8.742954;1.1806302;0.053964496;-0.14976108;0.006759269;-0.010606248;0.038528837;0.03920836
715;-2.4654546;2.5721123;-2.9633486;4.282202;-8.742954;1.1806302;0.053964496;-0.14976108;0.006759269;-0.010606248;0.038528837;0.03920836
716;-2.4654546;2.5721123;-2.9633486;4.282202;-8.742954;1.1806302;0.053964496;-0.14976108;0.006759269;-0.010606248;0.038528837;0.03920836
717;-2.4654546;2.5721123;-2.9633486;4.282202;-8.742954;1.1806302;0.053964496;-0.14976108;0.006759269;-0.010606248;0.038528837;0.03920836
718;-2.4654546;2.5721123;-2.9633486;4.282202;-8.742954;1.1806302;0.053964496;-0.14976108;0.006759269;-0.010606248;0.038528837;0.03920836
719;-2.4654546;2.5721123;-2.9633486;4.282202;-8.742954;1.1806302;0.053964496;-0.14976108;0.006759269;-0.010606248;0.038528837;0.03920836
720;-2.4516022;2.614197;-3.0086236;4.249751;-8.758756;1.1807636;0.04695504;-0.13132827;0.0034536256;-0.021723991;0.05318586;0.03271647
721;-2.4516022;2.614197;-3.0086236;4.249751;-8.758756;1.1807636;0.04695504;-0.13132827;0.0034536256;-0.021723991;0.05318586;0.03271647
722;-2.4516022;2.614197;-3.0086236;4.249751;-8.758756;1.1807636;0.04695504;-0.13132827;0.0034536256;-0.021723991;0.05318586;0.03271647
723;-2.4516022;2.614197;-3.0086236;4.249751;-8.758756;1.1807636;0.04695504;-0.13132827;0.0034536256;-0.021723991;0.05318586;0.03271647
724;-2.4516022;2.614197;-3.0086236;4.249751;-8.758756;1.1807636;0.04695504;-0.13132827;0.0034536256;-0.021723991;0.05318586;0.03271647
725;-2.4516022;2.614197;-3.0086236;4.249751;-8.758756;1.1807636;0.04695504;-0.13132827;0.0034536256;-0.021723991;0.05318586;0.03271647
726;-2.4440382;2.6480348;-3.0567877;4.209224;-8.780863;1.1615845;0.040326722;-0.11510879;0.00022676395;-0.018533459;0.033170577;0.029486714
727;-2.4440382;2.6480348;-3.0567877;4.209224;-8.780863;1.1615845;0.040326722;-0.11510879;0.00022676395;-0.018533459;0.033170577;0.029486714
728;-2.4440382;2.6480348;-3.0567877;4.209224;-8.780863;1.1615845;0.040326722;-0.11510879;0.00022676395;-0.018533459;0.033170577;0.029486714
729;-2.4440382;2.6480348;-3.0567877;4.209224;-8.780863;1.1615845;0.040326722;-0.11510879;0.00022676395;-0.018533459;0.033170577;0.029486714
730;-2.4440382;2.6480348;-3.0567877;4.209224;-8.780863;1.1615845;0.040326722;-0.11510879;0.00022676395;-0.018533459;0.033170577;0.029486714
731;-2.4440382;2.6480348;-3.0567877;4.209224;-8.780863;1.1615845;0.040326722;-0.11510879;0.00022676395;-0.018533459;0.033170577;0.029486714
732;-2.4440382;2.6480348;-3.0567877;4.209224;-8.780863;1.1615845;0.040326722;-0.11510879;0.00022676395;-0.018533459;0.033170577;0.029486714
733;-2.4399018;2.6746335;-3.114146;4.1687293;-8.802272;1.1454673;0.03441915;-0.10059164;-0.0024954681;-0.013387214;0.043730497;0.034137942
734;-2.4399018;2.6746335;-3.114146;4.1687293;-8.802272;1.1454673;0.03441915;-0.10059164;-0.0024954681;-0.013387214;0.043730497;0.034137942
735;-2.4399018;2.6746335;-3.114146;4.1687293;-8.802272;1.1454673;0.03441915;-0.10059164;-0.0024954681;-0.013387214;0.043730497;0.034137942
736;-2.4399018;2.6746335;-3.114146;4.1687293;-8.802272;1.1454673;0.03441915;-0.10059164;-0.0024954681;-0.013387214;0.043730497;0.034137942
737;-2.4399018;2.6746335;-3.114146;4.1687293;-8.802272;1.1454673;0.03441915;-0.10059164;-0.0024954681;-0.013387214;0.043730497;0.034137942
738;-2.4399018;2.6746335;-3.114146;4.1687293;-8.802272;1.1454673;0.03441915;-0.10059164;-0.0024954681;-0.013387214;0.043730497;0.034137942
739;-2.4363348;2.6942902;3.1022666;4.14814;-8.814378;1.1269728;0.029158862;-0.08781195;-0.004336195;-0.019879054;0.026713688;0.022165393
740;-2.4363348;2.6942902;3.1022666;4.14814;-8.814378;1.1269728;0.029158862;-0.08781195;-0.004336195;-0.019879054;0.026713688;0.022165393
741;-2.4363348;2.6942902;3.1022666;4.14814;-8.814378;1.1269728;0.029158862;-0.08781195;-0.004336195;-0.019879054;0.026713688;0.022165393
742;-2.4363348;2.6942902;3.1022666;4.14814;-8.814378;1.1269728;0.029158862;-0.08781195;-0.004336195;-0.019879054;0.026713688;0.022165393
743;-2.4363348;2.6942902;3.1022666;4.14814;-8.814378;1.1269728;0.029158862;-0.08781195;-0.004336195;-0.019879054;0.026713688;0.022165393
744;-2.4363348;2.6942902;3.1022666;4.14814;-8.814378;1.1269728;0.029158862;-0.08781195;-0.004336195;-0.019879054;0.026713688;0.022165393
745;-2.4363348;2.6942902;3.1022666;4.14814;-8.814378;1.1269728;0.029158862;-0.08781195;-0.004336195;-0.019879054;0.026713688;0.022165393
746;-2.4350495;2.7101507;3.0262015;4.1303906;-8.82774;1.0868589;0.024389368;-0.0764301;-0.0051921494;-0.02022402;0.030434428;0.033006173
747;-2.4350495;2.7101507;3.0262015;4.1303906;-8.82774;1.0868589;0.024389368;-0.0764301;-0.0051921494;-0.02022402;0.030434428;0.033006173
748;-2.4350495;2.7101507;3.0262015;4.1303906;-8.82774;1.0868589;0.024389368;-0.0764301;-0.0051921494;-0.02022402;0.030434428;0.033006173
749;-2.4350495;2.7101507;3.0262015;4.1303906;-8.82774;1.0868589;0.024389368;-0.0764301;-0.0051921494;-0.02022402;0.030434428;0.033006173
750;-2.4350495;2.7101507;3.0262015;4.1303906;-8.82774;1.0868589;0.024389368;-0.0764301;-0.0051921494;-0.02022402;0.030434428;0.033006173
751;-2.4350495;2.7101507;3.0262015;4.1303906;-8.82774;1.0868589;0.024389368;-0.0764301;-0.0051921494;-0.02022402;0.030434428;0.033006173
752;-2.435902;2.7231536;2.921424;4.1059837;-8.842751;1.0568975;0.020141536;-0.06649933;-0.0051335953;-0.019295184;0.020546667;0.034892812
753;-2.435902;2.7231536;2.921424;4.1059837;-8.842751;1.0568975;0.020141536;-0.06649933;-0.0051335953;-0.019295184;0.020546667;0.034892812
754;-2.435902;2.7231536;2.921424;4.1059837;-8.842751;1.0568975;0.020141536;-0.06649933;-0.0051335953;-0.019295184;0.020546667;0.034892812
755;-2.435902;2.7231536;2.921424;4.1059837;-8.842751;1.0568975;0.020141536;-0.06649933;-0.0051335953;-0.019295184;0.020546667;0.034892812
756;-2.435902;2.7231536;2.921424;4.1059837;-8.842751;1.0568975;0.020141536;-0.06649933;-0.0051335953;-0.019295184;0.020546667;0.034892812
757;-2.435902;2.7231536;2.921424;4.1059837;-8.842751;1.0568975;0.020141536;-0.06649933;-0.0051335953;-0.019295184;0.020546667;0.034892812
758;-2.438783;2.7339675;2.7784128;4.0759892;-8.8598175;1.029727;0.016750723;-0.05861795;-0.004442657;-0.030162549;0.015824534;0.02680758
759;-2.438783;2.7339675;2.7784128;4.0759892;-8.8598175;1.029727;0.016750723;-0.05861795;-0.004442657;-0.030162549;0.015824534;0.02680758
760;-2.438783;2.7339675;2.7784128;4.0759892;-8.8598175;1.029727;0.016750723;-0.05861795;-0.004442657;-0.030162549;0.015824534;0.02680758
761;-2.438783;2.7339675;2.7784128;4.0759892;-8.8598175;1.029727;0.016750723;-0.05861795;-0.004442657;-0.030162549;0.015824534;0.02680758
762;-2.438783;2.7339675;2.7784128;4.0759892;-8.8598175;1.029727;0.016750723;-0.05861795;-0.004442657;-0.030162549;0.015824534;0.02680758
763;-2.438783;2.7339675;2.7784128;4.0759892;-8.8598175;1.029727;0.016750723;-0.05861795;-0.004442657;-0.030162549;0.015824534;0.02680758
764;-2.4410627;2.741144;2.5845385;4.0606155;-8.869165;1.0098019;0.01449373;-0.05269973;-0.0035132442;-0.026360441;0.029413087;0.03171205
765;-2.4410627;2.741144;2.5845385;4.0606155;-8.869165;1.0098019;0.01449373;-0.05269973;-0.0035132442;-0.026360441;0.029413087;0.03171205
766;-2.4410627;2.741144;2.5845385;4.0606155;-8.869165;1.0098019;0.01449373;-0.05269973;-0.0035132442;-0.026360441;0.029413087;0.03171205
767;-2.4410627;2.741144;2.5845385;4.0606155;-8.869165;1.0098019;0.01449373;-0.05269973;-0.0035132442;-0.026360441;0.029413087;0.03171205
768;-2.4410627;2.741144;2.5845385;4.0606155;-8.869165;1.0098019;0.01449373;-0.05269973;-0.0035132442;-0.026360441;0.029413087;0.03171205
769;-2.4410627;2.741144;2.5845385;4.0606155;-8.869165;1.0098019;0.01449373;-0.05269973;-0.0035132442;-0.026360441;0.029413087;0.03171205
770;-2.4410627;2.741144;2.5845385;4.0606155;-8.869165;1.0098019;0.01449373;-0.05269973;-0.0035132442;-0.026360441;0.029413087;0.03171205
771;-2.4441998;2.7463036;2.3404405;4.0466433;-8.878085;0.98726004;0.013293903;-0.04752781;-0.0027243611;-0.03852324;0.019793529;0.022504866
772;-2.4441998;2.7463036;2.3404405;4.0466433;-8.878085;0.98726004;0.013293903;-0.04752781;-0.0027243611;-0.03852324;0.019793529;0.022504866
773;-2.4441998;2.7463036;2.3404405;4.0466433;-8.878085;0.98726004;0.013293903;-0.04752781;-0.0027243611;-0.03852324;0.019793529;0.022504866
774;-2.4441998;2.7463036;2.3404405;4.0466433;-8.878085;0.98726004;0.013293903;-0.04752781;-0.0027243611;-0.03852324;0.019793529;0.022504866
775;-2.4441998;2.7463036;2.3404405;4.0466433;-8.878085;0.98726004;0.013293903;-0.04752781;-0.0027243611;-0.03852324;0.019793529;0.022504866
776;-2.4441998;2.7463036;2.3404405;4.0466433;-8.878085;0.98726004;0.013293903;-0.04752781;-0.0027243611;-0.03852324;0.019793529;0.022504866
777;-2.4471207;2.7493057;2.069435;4.0388384;-8.882891;0.975921;0.01263384;-0.0422622;-0.0022836088;-0.029556563;0.007899152;0.022015002
778;-2.4471207;2.7493057;2.069435;4.0388384;-8.882891;0.975921;0.01263384;-0.0422622;-0.0022836088;-0.029556563;0.007899152;0.022015002
779;-2.4471207;2.7493057;2.069435;4.0388384;-8.882891;0.975921;0.01263384;-0.0422622;-0.0022836088;-0.029556563;0.007899152;0.022015002
780;-2.4471207;2.7493057;2.069435;4.0388384;-8.882891;0.975921;0.01263384;-0.0422622;-0.0022836088;-0.029556563;0.007899152;0.022015002
781;-2.4471207;2.7493057;2.069435;4.0388384;-8.882891;0.975921;0.01263384;-0.0422622;-0.0022836088;-0.029556563;0.007899152;0.022015002
782;-2.4471207;2.7493057;2.069435;4.0388384;-8.882891;0.975921;0.01263384;-0.0422622;-0.0022836088;-0.029556563;0.007899152;0.022015002
783;-2.4525802;2.7526915;1.8148353;4.0138454;-8.896023;0.95928276;0.011825793;-0.037437346;-0.002126045;-0.03747352;0.017917842;0.027509954
784;-2.4525802;2.7526915;1.8148353;4.0138454;-8.896023;0.95928276;0.011825793;-0.037437346;-0.002126045;-0.03747352;0.017917842;0.027509954
785;-2.4525802;2.7526915;1.8148353;4.0138454;-8.896023;0.95928276;0.011825793;-0.037437346;-0.002126045;-0.03747352;0.017917842;0.027509954
786;-2.4525802;2.7526915;1.8148353;4.0138454;-8.896023;0.95928276;0.011825793;-0.037437346;-0.002126045;-0.03747352;0.017917842;0.027509954
787;-2.4525802;2.7526915;1.8148353;4.0138454;-8.896023;0.95928276;0.011825793;-0.037437346;-0.002126045;-0.03747352;0.017917842;0.027509954
788;-2.4581742;2.7552307;1.602036;3.989339;-8.90923;0.938721;0.010557831;-0.033768665;-0.0021803407;-0.0394835;0.013869386;0.014937009
789;-2.4581742;2.7552307;1.602036;3.989339;-8.90923;0.938721;0.010557831;-0.033768665;-0.0021803407;-0.0394835;0.013869386;0.014937009
790;-2.4581742;2.7552307;1.602036;3.989339;-8.90923;0.938721;0.010557831;-0.033768665;-0.0021803407;-0.0394835;0.013869386;0.014937009
791;-2.4677832;2.757865;1.3090248;3.952057;-8.930007;0.8981103;0.007982517;-0.029124795;-0.0023155473;-0.044748273;0.010217773;0.022581374
792;-2.4677832;2.757865;1.3090248;3.952057;-8.930007;0.8981103;0.007982517;-0.029124795;-0.0023155473;-0.044748273;0.010217773;0.022581374
793;-2.4677832;2.757865;1.3090248;3.952057;-8.930007;0.8981103;0.007982517;-0.029124795;-0.0023155473;-0.044748273;0.010217773;0.022581374
794;-2.4677832;2.757865;1.3090248;3.952057;-8.930007;0.8981103;0.007982517;-0.029124795;-0.0023155473;-0.044748273;0.010217773;0.022581374
795;-2.4677832;2.757865;1.3090248;3.952057;-8.930007;0.8981103;0.007982517;-0.029124795;-0.0023155473;-0.044748273;0.010217773;0.022581374
796;-2.4717226;2.7585077;1.2253368;3.93768;-8.936461;0.89706814;0.007912252;-0.02757045;-0.0019706106;-0.045725692;0.009623428;0.013137373
797;-2.4717226;2.7585077;1.2253368;3.93768;-8.936461;0.89706814;0.007912252;-0.02757045;-0.0019706106;-0.045725692;0.009623428;0.013137373
798;-2.4717226;2.7585077;1.2253368;3.93768;-8.936461;0.89706814;0.007912252;-0.02757045;-0.0019706106;-0.045725692;0.009623428;0.013137373
799;-2.4717226;2.7585077;1.2253368;3.93768;-8.936461;0.89706814;0.007912252;-0.02757045;-0.0019706106;-0.045725692;0.009623428;0.013137373
800;-2.4717226;2.7585077;1.2253368;3.93768;-8.936461;0.89706814;0.007912252;-0.02757045;-0.0019706106;-0.045725692;0.009623428;0.013137373
801;-2.4717226;2.7585077;1.2253368;3.93768;-8.936461;0.89706814;0.007912252;-0.02757045;-0.0019706106;-0.045725692;0.009623428;0.013137373
802;-2.4717226;2.7585077;1.2253368;3.93768;-8.936461;0.89706814;0.007912252;-0.02757045;-0.0019706106;-0.045725692;0.009623428;0.013137373
803;-2.4748342;2.7586823;1.1687138;3.9282846;-8.939782;0.9051237;0.008593609;-0.026008654;-0.0013499375;-0.03496869;0.021183101;0.015239443
804;-2.4748342;2.7586823;1.1687138;3.9282846;-8.939782;0.9051237;0.008593609;-0.026008654;-0.0013499375;-0.03496869;0.021183101;0.015239443
805;-2.4748342;2.7586823;1.1687138;3.9282846;-8.939782;0.9051237;0.008593609;-0.026008654;-0.0013499375;-0.03496869;0.021183101;0.015239443
806;-2.4748342;2.7586823;1.1687138;3.9282846;-8.939782;0.9051237;0.008593609;-0.026008654;-0.0013499375;-0.03496869;0.021183101;0.015239443
807;-2.4748342;2.7586823;1.1687138;3.9282846;-8.939782;0.9051237;0.008593609;-0.026008654;-0.0013499375;-0.03496869;0.021183101;0.015239443
808;-2.4748342;2.7586823;1.1687138;3.9282846;-8.939782;0.9051237;0.008593609;-0.026008654;-0.0013499375;-0.03496869;0.021183101;0.015239443
809;-2.4748342;2.7586823;1.1687138;3.9282846;-8.939782;0.9051237;0.008593609;-0.026008654;-0.0013499375;-0.03496869;0.021183101;0.015239443
810;-2.4735312;2.7559693;1.1269141;3.9518588;-8.9293165;0.90581745;0.009138694;-0.023833636;-0.0009017327;-0.042816013;0.015396444;0.013865705
811;-2.4735312;2.7559693;1.1269141;3.9518588;-8.9293165;0.90581745;0.009138694;-0.023833636;-0.0009017327;-0.042816013;0.015396444;0.013865705
812;-2.4735312;2.7559693;1.1269141;3.9518588;-8.9293165;0.90581745;0.009138694;-0.023833636;-0.0009017327;-0.042816013;0.015396444;0.013865705
813;-2.4735312;2.7559693;1.1269141;3.9518588;-8.9293165;0.90581745;0.009138694;-0.023833636;-0.0009017327;-0.042816013;0.015396444;0.013865705
814;-2.4735312;2.7559693;1.1269141;3.9518588;-8.9293165;0.90581745;0.009138694;-0.023833636;-0.0009017327;-0.042816013;0.015396444;0.013865705
815;-2.4735312;2.7559693;1.1269141;3.9518588;-8.9293165;0.90581745;0.009138694;-0.023833636;-0.0009017327;-0.042816013;0.015396444;0.013865705
816;-2.4735312;2.7559693;1.1269141;3.9518588;-8.9293165;0.90581745;0.009138694;-0.023833636;-0.0009017327;-0.042816013;0.015396444;0.013865705
817;-2.469643;2.7517645;1.0903697;3.9929478;-8.912865;0.8874631;0.008802274;-0.020882512;-0.0007824953;-0.039603755;0.0062037497;0.02384069
818;-2.469643;2.7517645;1.0903697;3.9929478;-8.912865;0.8874631;0.008802274;-0.020882512;-0.0007824953;-0.039603755;0.0062037497;0.02384069
819;-2.469643;2.7517645;1.0903697;3.9929478;-8.912865;0.8874631;0.008802274;-0.020882512;-0.0007824953;-0.039603755;0.0062037497;0.02384069
820;-2.469643;2.7517645;1.0903697;3.9929478;-8.912865;0.8874631;0.008802274;-0.020882512;-0.0007824953;-0.039603755;0.0062037497;0.02384069
821;-2.469643;2.7517645;1.0903697;3.9929478;-8.912865;0.8874631;0.008802274;-0.020882512;-0.0007824953;-0.039603755;0.0062037497;0.02384069
822;-2.469643;2.7517645;1.0903697;3.9929478;-8.912865;0.8874631;0.008802274;-0.020882512;-0.0007824953;-0.039603755;0.0062037497;0.02384069
823;-2.469643;2.7517645;1.0903697;4.0385923;-8.894949;0.8602626;0.007559863;-0.017775951;-0.0007164889;-0.032998443;0.0039191297;0.02664319
824;-2.469643;2.7517645;1.0903697;4.0385923;-8.894949;0.8602626;0.007559863;-0.017775951;-0.0007164889;-0.032998443;0.0039191297;0.02664319
825;-2.469643;2.7517645;1.0903697;4.0385923;-8.894949;0.8602626;0.007559863;-0.017775951;-0.0007164889;-0.032998443;0.0039191297;0.02664319
826;-2.469643;2.7517645;1.0903697;4.0385923;-8.894949;0.8602626;0.007559863;-0.017775951;-0.0007164889;-0.032998443;0.0039191297;0.02664319
827;-2.469643;2.7517645;1.0903697;4.0385923;-8.894949;0.8602626;0.007559863;-0.017775951;-0.0007164889;-0.032998443;0.0039191297;0.02664319
828;-2.469643;2.7517645;1.0903697;4.0385923;-8.894949;0.8602626;0.007559863;-0.017775951;-0.0007164889;-0.032998443;0.0039191297;0.02664319
829;-2.458108;2.7422488;1.0419883;4.0937896;-8.873036;0.824927;0.005823469;-0.015283678;-0.0005961869;-0.02444313;0.00861507;0.029853115
830;-2.458108;2.7422488;1.0419883;4.0937896;-8.873036;0.824927;0.005823469;-0.015283678;-0.0005961869;-0.02444313;0.00861507;0.029853115
831;-2.458108;2.7422488;1.0419883;4.0937896;-8.873036;0.824927;0.005823469;-0.015283678;-0.0005961869;-0.02444313;0.00861507;0.029853115
832;-2.458108;2.7422488;1.0419883;4.0937896;-8.873036;0.824927;0.005823469;-0.015283678;-0.0005961869;-0.02444313;0.00861507;0.029853115
833;-2.458108;2.7422488;1.0419883;4.1366496;-8.856182;0.79155934;0.0038911842;-0.013382267;-0.0005855407;-0.027395824;0.029619394;0.026690047
834;-2.458108;2.7422488;1.0419883;4.1366496;-8.856182;0.79155934;0.0038911842;-0.013382267;-0.0005855407;-0.027395824;0.029619394;0.026690047
835;-2.458108;2.7422488;1.0419883;4.1366496;-8.856182;0.79155934;0.0038911842;-0.013382267;-0.0005855407;-0.027395824;0.029619394;0.026690047
836;-2.458108;2.7422488;1.0419883;4.1366496;-8.856182;0.79155934;0.0038911842;-0.013382267;-0.0005855407;-0.027395824;0.029619394;0.026690047
837;-2.458108;2.7422488;1.0419883;4.1366496;-8.856182;0.79155934;0.0038911842;-0.013382267;-0.0005855407;-0.027395824;0.029619394;0.026690047
838;-2.458108;2.7422488;1.0419883;4.1366496;-8.856182;0.79155934;0.0038911842;-0.013382267;-0.0005855407;-0.027395824;0.029619394;0.026690047
839;-2.448435;2.7354407;1.0191554;4.1707945;-8.842355;0.7665627;0.0020600387;-0.011677811;-0.0007814307;-0.019034065;-0.0046561067;0.026635218
840;-2.448435;2.7354407;1.0191554;4.1707945;-8.842355;0.7665627;0.0020600387;-0.011677811;-0.0007814307;-0.019034065;-0.0046561067;0.026635218
841;-2.448435;2.7354407;1.0191554;4.1707945;-8.842355;0.7665627;0.0020600387;-0.011677811;-0.0007814307;-0.019034065;-0.0046561067;0.026635218
842;-2.448435;2.7354407;1.0191554;4.1707945;-8.842355;0.7665627;0.0020600387;-0.011677811;-0.0007814307;-0.019034065;-0.0046561067;0.026635218
843;-2.448435;2.7354407;1.0191554;4.1707945;-8.842355;0.7665627;0.0020600387;-0.011677811;-0.0007814307;-0.019034065;-0.0046561067;0.026635218
844;-2.448435;2.7354407;1.0191554;4.1707945;-8.842355;0.7665627;0.0020600387;-0.011677811;-0.0007814307;-0.019034065;-0.0046561067;0.026635218
845;-2.448435;2.7354407;1.0191554;4.1707945;-8.842355;0.7665627;0.0020600387;-0.011677811;-0.0007814307;-0.019034065;-0.0046561067;0.026635218
846;-2.448435;2.7354407;1.0191554;4.1923594;-8.833552;0.75023973;0.00073032896;-0.0101458235;-0.0008889573;-0.021716943;-0.0014388779;0.026068166
847;-2.448435;2.7354407;1.0191554;4.1923594;-8.833552;0.75023973;0.00073032896;-0.0101458235;-0.0008889573;-0.021716943;-0.0014388779;0.026068166
848;-2.448435;2.7354407;1.0191554;4.1923594;-8.833552;0.75023973;0.00073032896;-0.0101458235;-0.0008889573;-0.021716943;-0.0014388779;0.026068166
849;-2.448435;2.7354407;1.0191554;4.1923594;-8.833552;0.75023973;0.00073032896;-0.0101458235;-0.0008889573;-0.021716943;-0.0014388779;0.026068166
850;-2.448435;2.7354407;1.0191554;4.1923594;-8.833552;0.75023973;0.00073032896;-0.0101458235;-0.0008889573;-0.021716943;-0.0014388779;0.026068166
851;-2.448435;2.7354407;1.0191554;4.1923594;-8.833552;0.75023973;0.00073032896;-0.0101458235;-0.0008889573;-0.021716943;-0.0014388779;0.026068166
852;-2.448435;2.7354407;1.0191554;4.1923594;-8.833552;0.75023973;0.00073032896;-0.0101458235;-0.0008889573;-0.021716943;-0.0014388779;0.026068166
853;-2.448435;2.7354407;1.0191554;4.2049103;-8.827846;0.7471754;0.00016820988;-0.009202571;-0.0008080462;-0.01067527;-0.0017512464;0.033483494
854;-2.448435;2.7354407;1.0191554;4.2049103;-8.827846;0.7471754;0.00016820988;-0.009202571;-0.0008080462;-0.01067527;-0.0017512464;0.033483494
855;-2.448435;2.7354407;1.0191554;4.2049103;-8.827846;0.7471754;0.00016820988;-0.009202571;-0.0008080462;-0.01067527;-0.0017512464;0.033483494
856;-2.448435;2.7354407;1.0191554;4.2049103;-8.827846;0.7471754;0.00016820988;-0.009202571;-0.0008080462;-0.01067527;-0.0017512464;0.033483494
857;-2.448435;2.7354407;1.0191554;4.2049103;-8.827846;0.7471754;0.00016820988;-0.009202571;-0.0008080462;-0.01067527;-0.0017512464;0.033483494
858;-2.448435;2.7354407;1.0191554;4.2049103;-8.827846;0.7471754;0.00016820988;-0.009202571;-0.0008080462;-0.01067527;-0.0017512464;0.033483494
859;-2.448435;2.7354407;1.0191554;4.2049103;-8.827846;0.7471754;0.00016820988;-0.009202571;-0.0008080462;-0.01067527;-0.0017512464;0.033483494
860;-2.448435;2.7354407;1.0191554;4.214013;-8.8233185;0.74934226;0.00015117596;-0.008918317;-0.0008591479;-0.0038899898;-0.009340188;0.038337998
861;-2.448435;2.7354407;1.0191554;4.214013;-8.8233185;0.74934226;0.00015117596;-0.008918317;-0.0008591479;-0.0038899898;-0.009340188;0.038337998
862;-2.448435;2.7354407;1.0191554;4.214013;-8.8233185;0.74934226;0.00015117596;-0.008918317;-0.0008591479;-0.0038899898;-0.009340188;0.038337998
863;-2.448435;2.7354407;1.0191554;4.214013;-8.8233185;0.74934226;0.00015117596;-0.008918317;-0.0008591479;-0.0038899898;-0.009340188;0.038337998
864;-2.448435;2.7354407;1.0191554;4.214013;-8.8233185;0.74934226;0.00015117596;-0.008918317;-0.0008591479;-0.0038899898;-0.009340188;0.038337998
865;-2.448435;2.7354407;1.0191554;4.214013;-8.8233185;0.74934226;0.00015117596;-0.008918317;-0.0008591479;-0.0038899898;-0.009340188;0.038337998
866;-2.448435;2.7354407;1.0191554;4.219641;-8.820186;0.75456077;0.00031512737;-0.008566993;-0.0012903188;-0.021376496;-0.0014865191;0.028895067
867;-2.448435;2.7354407;1.0191554;4.219641;-8.820186;0.75456077;0.00031512737;-0.008566993;-0.0012903188;-0.021376496;-0.0014865191;0.028895067
868;-2.448435;2.7354407;1.0191554;4.219641;-8.820186;0.75456077;0.00031512737;-0.008566993;-0.0012903188;-0.021376496;-0.0014865191;0.028895067
869;-2.448435;2.7354407;1.0191554;4.219641;-8.820186;0.75456077;0.00031512737;-0.008566993;-0.0012903188;-0.021376496;-0.0014865191;0.028895067
870;-2.448435;2.7354407;1.0191554;4.219641;-8.820186;0.75456077;0.00031512737;-0.008566993;-0.0012903188;-0.021376496;-0.0014865191;0.028895067
871;-2.448435;2.7354407;1.0191554;4.219641;-8.820186;0.75456077;0.00031512737;-0.008566993;-0.0012903188;-0.021376496;-0.0014865191;0.028895067
872;-2.448435;2.7354407;1.0191554;4.219641;-8.820186;0.75456077;0.00031512737;-0.008566993;-0.0012903188;-0.021376496;-0.0014865191;0.028895067
873;-2.448435;2.7354407;1.0191554;4.2197366;-8.819991;0.75628966;0.00064941787;-0.00741401;-0.0019972262;-0.013068837;-0.011560676;0.03623661
874;-2.448435;2.7354407;1.0191554;4.2197366;-8.819991;0.75628966;0.00064941787;-0.00741401;-0.0019972262;-0.013068837;-0.011560676;0.03623661
875;-2.448435;2.7354407;1.0191554;4.2197366;-8.819991;0.75628966;0.00064941787;-0.00741401;-0.0019972262;-0.013068837;-0.011560676;0.03623661
876;-2.448435;2.7354407;1.0191554;4.2197366;-8.819991;0.75628966;0.00064941787;-0.00741401;-0.0019972262;-0.013068837;-0.011560676;0.03623661
877;-2.448435;2.7354407;1.0191554;4.2197366;-8.819991;0.75628966;0.00064941787;-0.00741401;-0.0019972262;-0.013068837;-0.011560676;0.03623661
878;-2.448435;2.7354407;1.0191554;4.2197366;-8.819991;0.75628966;0.00064941787;-0.00741401;-0.0019972262;-0.013068837;-0.011560676;0.03623661
879;-2.448435;2.7354407;1.0191554;4.2241917;-8.81812;0.7532219;0.0012392171;-0.0055285688;-0.0026455794;-0.01505527;0.004234378;0.03008186
880;-2.448435;2.7354407;1.0191554;4.2241917;-8.81812;0.7532219;0.0012392171;-0.0055285688;-0.0026455794;-0.01505527;0.004234378;0.03008186
881;-2.448435;2.7354407;1.0191554;4.2241917;-8.81812;0.7532219;0.0012392171;-0.0055285688;-0.0026455794;-0.01505527;0.004234378;0.03008186
882;-2.448435;2.7354407;1.0191554;4.2241917;-8.81812;0.7532219;0.0012392171;-0.0055285688;-0.0026455794;-0.01505527;0.004234378;0.03008186
883;-2.448435;2.7354407;1.0191554;4.2241917;-8.81812;0.7532219;0.0012392171;-0.0055285688;-0.0026455794;-0.01505527;0.004234378;0.03008186
884;-2.448435;2.7354407;1.0191554;4.2241917;-8.81812;0.7532219;0.0012392171;-0.0055285688;-0.0026455794;-0.01505527;0.004234378;0.03008186
885;-2.448435;2.7354407;1.0191554;4.2241917;-8.81812;0.7532219;0.0012392171;-0.0055285688;-0.0026455794;-0.01505527;0.004234378;0.03008186
886;-2.448435;2.7354407;1.0191554;4.228914;-8.816071;0.7507102;0.0018162408;-0.003497275;-0.003074621;-0.01555014;-0.006760175;0.035171915
887;-2.448435;2.7354407;1.0191554;4.228914;-8.816071;0.7507102;0.0018162408;-0.003497275;-0.003074621;-0.01555014;-0.006760175;0.035171915
888;-2.448435;2.7354407;1.0191554;4.228914;-8.816071;0.7507102;0.0018162408;-0.003497275;-0.003074621;-0.01555014;-0.006760175;0.035171915
889;-2.448435;2.7354407;1.0191554;4.228914;-8.816071;0.7507102;0.0018162408;-0.003497275;-0.003074621;-0.01555014;-0.006760175;0.035171915
